»»»»»»»»»»»»»»»»»»»»»»»»»»»»»»»»»»»» Hysteresis ««««««««««««««««««««««««««««««««««««
»»»  Executed Version:	5.48.1
»»»  Vision Version:	5.48.4 (R)
»»»  Vision Compiled:	9/18/24
»»»  Driver Version:	5.47.0
»»»  Windows Version:	Windows 8 or 8.1
»»»  Processor Information:	x86 (AMD or Intel) - 32 Processors
»»»  Tester Name:	PMF21124-494 (100V)
»»»  Tester S/N:	PMF21124-494
»»»  Internal Amp Type:	100V RevK 270k
»»»  Internal Amp S/N:	iAB2-596/K     
»»»  Execution Count:	1
»»»»»»»»»»»»»»»»»»»»»»»»»»»»»»»»»»»»»»»»»»««««««««««««««««««««««««««««««««««««««««««

Stored:	6/6/2025 - 11:42:54
Configured:	06/06/25 11:06:04 AM
Executed:	06/06/25 11:42:18 AM

»»»»»»»»»»»»»»»»»»»»»»»»»»»»»»»»»»» Sample Info ««««««««««««««««««««««««««««««««««««
Sample Name:	
Lot Name:	
Wafer Name:	
Die Row/Column:	0/0
Capacitor Number:	0
Sample Area (cm2):	1.00e-04
Sample Thickness (microns):	3.00e-01

Amplifier:	Internal

»»»»»»»»»»»»»»»»»»»»»»»»»»»»»»»»»»» Tester Info «««««««««««««««««««««««««««««««««««
Tester Name:	PMF21124-494 (100V)
Tester Serial Number:	PMF21124-494
Return Signal Amp. Level:	0.19 [Index: 3]

»»»»»»»»»»»»»»»»»»»»»»»»»»»»»»»» Hysteresis Info ««««««««««««««««««««««««««««««««««
Task Name:	Hyst-477
Volts:	20.00
Field:	666.67 (kV/cm)
DCBias:	0.00
DCField:	0.00 (kV/cm)
Hysteresis Period (ms):	2.00e+02
Preset:	Enabled
Preset Delay (ms):	1.00e+03
Profile:	Standard Bipolar

»»»»»»»»»»»»»»»»»»»»»»»»»»»»»»»»»»»»»» Data «««««««««««««««««««««««««««««««««««««««
Points:	2009

Valid Data

Point	Time (ms)	Drive Voltage	Measured Polarization (uC/cm2)	Capacitance (uF)	Normalized Capacitance (uF/cm2)	Dielectric Constant	Instantaneous Current (mA)
   1	0.0000e+00	-0.0112	-3.233746	0.000436	4.358598	1.476733	0.000174
   2	9.9500e-02	0.0193	-3.060149	0.000436	4.358598	1.476733	0.000174
   3	1.9900e-01	0.0642	-2.809846	0.000628	6.284490	2.129243	0.000252
   4	2.9850e-01	0.1027	-2.587804	0.000557	5.574951	1.888845	0.000223
   5	3.9800e-01	0.1332	-2.418244	0.000426	4.257235	1.442390	0.000170
   6	4.9750e-01	0.1684	-2.147756	0.000679	6.791304	2.300956	0.000272
   7	5.9700e-01	0.2182	-1.933788	0.000537	5.372226	1.820159	0.000215
   8	6.9650e-01	0.2519	-1.667337	0.000669	6.689941	2.266613	0.000268
   9	7.9600e-01	0.3016	-1.449332	0.000547	5.473588	1.854502	0.000219
  10	8.9550e-01	0.3385	-1.255549	0.000487	4.865412	1.648446	0.000195
  11	9.9500e-01	0.3706	-0.989098	0.000669	6.689941	2.266613	0.000268
  12	1.0945e+00	0.4155	-0.815501	0.000436	4.358598	1.476733	0.000174
  13	1.1940e+00	0.4508	-0.585385	0.000578	5.777677	1.957530	0.000231
  14	1.2935e+00	0.4893	-0.367379	0.000547	5.473588	1.854502	0.000219
  15	1.3930e+00	0.5246	-0.068631	0.000750	7.500843	2.541355	0.000300
  16	1.4925e+00	0.5743	0.133225	0.000507	5.068137	1.717131	0.000203
  17	1.5920e+00	0.6112	0.387565	0.000639	6.385853	2.163586	0.000256
  18	1.6915e+00	0.6465	0.597496	0.000527	5.270863	1.785817	0.000211
  19	1.7910e+00	0.7043	0.843761	0.000618	6.183128	2.094900	0.000248
  20	1.8905e+00	0.7267	1.029470	0.000466	4.662686	1.579761	0.000187
  21	1.9900e+00	0.7716	1.291883	0.000659	6.588579	2.232271	0.000264
  22	2.0895e+00	0.8069	1.542186	0.000628	6.284490	2.129243	0.000252
  23	2.1890e+00	0.8599	1.812674	0.000679	6.791304	2.300956	0.000272
  24	2.2885e+00	0.8903	1.998382	0.000466	4.662686	1.579761	0.000187
  25	2.3880e+00	0.9305	2.232536	0.000588	5.879039	1.991872	0.000235
  26	2.4875e+00	0.9690	2.474764	0.000608	6.081765	2.060558	0.000243
  27	2.5870e+00	1.0155	2.704881	0.000578	5.777677	1.957530	0.000231
  28	2.6865e+00	1.0572	2.914812	0.000527	5.270863	1.785817	0.000211
  29	2.7860e+00	1.0925	3.148966	0.000588	5.879039	1.991872	0.000235
  30	2.8855e+00	1.1358	3.354860	0.000517	5.169500	1.751474	0.000207
  31	2.9850e+00	1.1775	3.669756	0.000791	7.906294	2.678725	0.000316
  32	3.0845e+00	1.2080	3.895836	0.000568	5.676314	1.923187	0.000227
  33	3.1840e+00	1.2545	4.101730	0.000517	5.169500	1.751474	0.000207
  34	3.2835e+00	1.3010	4.347995	0.000618	6.183128	2.094900	0.000248
  35	3.3830e+00	1.3347	4.578112	0.000578	5.777677	1.957530	0.000231
  36	3.4825e+00	1.3716	4.820340	0.000608	6.081765	2.060558	0.000243
  37	3.5820e+00	1.4085	5.054494	0.000588	5.879039	1.991872	0.000235
  38	3.6815e+00	1.4582	5.296722	0.000608	6.081765	2.060558	0.000243
  39	3.7810e+00	1.4951	5.522802	0.000568	5.676314	1.923187	0.000227
  40	3.8805e+00	1.5353	5.756956	0.000588	5.879039	1.991872	0.000235
  41	3.9800e+00	1.5641	5.966887	0.000527	5.270863	1.785817	0.000211
  42	4.0795e+00	1.6139	6.241412	0.000689	6.892667	2.335299	0.000276
  43	4.1790e+00	1.6508	6.471529	0.000578	5.777677	1.957530	0.000231
  44	4.2785e+00	1.6860	6.729905	0.000649	6.487216	2.197928	0.000260
  45	4.3780e+00	1.7246	6.972133	0.000608	6.081765	2.060558	0.000243
  46	4.4775e+00	1.7775	7.222436	0.000628	6.284490	2.129243	0.000252
  47	4.5770e+00	1.8208	7.424293	0.000507	5.068137	1.717131	0.000203
  48	4.6765e+00	1.8561	7.666521	0.000608	6.081765	2.060558	0.000243
  49	4.7760e+00	1.8978	7.916823	0.000628	6.284490	2.129243	0.000252
  50	4.8755e+00	1.9283	8.163088	0.000618	6.183128	2.094900	0.000248
  51	4.9750e+00	1.9684	8.360908	0.000497	4.966775	1.682789	0.000199
  52	5.0745e+00	2.0101	8.635433	0.000689	6.892667	2.335299	0.000276
  53	5.1740e+00	2.0534	8.889773	0.000639	6.385853	2.163586	0.000256
  54	5.2735e+00	2.0887	9.107778	0.000547	5.473588	1.854502	0.000219
  55	5.3730e+00	2.1336	9.341932	0.000588	5.879039	1.991872	0.000235
  56	5.4725e+00	2.1705	9.592235	0.000628	6.284490	2.129243	0.000252
  57	5.5720e+00	2.2154	9.850611	0.000649	6.487216	2.197928	0.000260
  58	5.6715e+00	2.2507	10.080728	0.000578	5.777677	1.957530	0.000231
  59	5.7710e+00	2.2844	10.322956	0.000608	6.081765	2.060558	0.000243
  60	5.8705e+00	2.3293	10.597481	0.000689	6.892667	2.335299	0.000276
  61	5.9700e+00	2.3662	10.835672	0.000598	5.980402	2.026215	0.000239
  62	6.0695e+00	2.4080	11.041566	0.000517	5.169500	1.751474	0.000207
  63	6.1690e+00	2.4449	11.312054	0.000679	6.791304	2.300956	0.000272
  64	6.2685e+00	2.4850	11.534097	0.000557	5.574951	1.888845	0.000223
  65	6.3680e+00	2.5347	11.784399	0.000628	6.284490	2.129243	0.000252
  66	6.4675e+00	2.5652	12.006442	0.000557	5.574951	1.888845	0.000223
  67	6.5670e+00	2.6181	12.268856	0.000659	6.588579	2.232271	0.000264
  68	6.6665e+00	2.6486	12.523195	0.000639	6.385853	2.163586	0.000256
  69	6.7660e+00	2.6887	12.753312	0.000578	5.777677	1.957530	0.000231
  70	6.8655e+00	2.7288	12.987466	0.000588	5.879039	1.991872	0.000235
  71	6.9650e+00	2.7737	13.233731	0.000618	6.183128	2.094900	0.000248
  72	7.0645e+00	2.8090	13.479996	0.000618	6.183128	2.094900	0.000248
  73	7.1640e+00	2.8555	13.738373	0.000649	6.487216	2.197928	0.000260
  74	7.2635e+00	2.8764	13.988675	0.000628	6.284490	2.129243	0.000252
  75	7.3630e+00	2.9341	14.255126	0.000669	6.689941	2.266613	0.000268
  76	7.4625e+00	2.9630	14.485243	0.000578	5.777677	1.957530	0.000231
  77	7.5620e+00	3.0079	14.691137	0.000517	5.169500	1.751474	0.000207
  78	7.6615e+00	3.0432	14.941439	0.000628	6.284490	2.129243	0.000252
  79	7.7610e+00	3.0833	15.191742	0.000628	6.284490	2.129243	0.000252
  80	7.8605e+00	3.1299	15.433970	0.000608	6.081765	2.060558	0.000243
  81	7.9600e+00	3.1619	15.688309	0.000639	6.385853	2.163586	0.000256
  82	8.0595e+00	3.2085	15.938612	0.000628	6.284490	2.129243	0.000252
  83	8.1590e+00	3.2486	16.176803	0.000598	5.980402	2.026215	0.000239
  84	8.2585e+00	3.2903	16.382697	0.000517	5.169500	1.751474	0.000207
  85	8.3580e+00	3.3224	16.665296	0.000710	7.095392	2.403984	0.000284
  86	8.4575e+00	3.3673	16.830819	0.000416	4.155873	1.408048	0.000166
  87	8.5570e+00	3.4058	17.137641	0.000770	7.703569	2.610040	0.000308
  88	8.6565e+00	3.4443	17.323349	0.000466	4.662686	1.579761	0.000187
  89	8.7560e+00	3.4812	17.605949	0.000710	7.095392	2.403984	0.000284
  90	8.8555e+00	3.5421	17.827991	0.000557	5.574951	1.888845	0.000223
  91	8.9550e+00	3.5646	18.086368	0.000649	6.487216	2.197928	0.000260
  92	9.0545e+00	3.6031	18.272076	0.000466	4.662686	1.579761	0.000187
  93	9.1540e+00	3.6464	18.599084	0.000821	8.210383	2.781753	0.000329
  94	9.2535e+00	3.6849	18.796904	0.000497	4.966775	1.682789	0.000199
  95	9.3530e+00	3.7218	19.043169	0.000618	6.183128	2.094900	0.000248
  96	9.4525e+00	3.7667	19.269249	0.000568	5.676314	1.923187	0.000227
  97	9.5520e+00	3.8036	19.523588	0.000639	6.385853	2.163586	0.000256
  98	9.6515e+00	3.8373	19.749668	0.000568	5.676314	1.923187	0.000227
  99	9.7510e+00	3.8758	19.979785	0.000578	5.777677	1.957530	0.000231
 100	9.8505e+00	3.9240	20.205864	0.000568	5.676314	1.923187	0.000227
 101	9.9500e+00	3.9560	20.476352	0.000679	6.791304	2.300956	0.000272
 102	1.0050e+01	3.9961	20.706469	0.000578	5.777677	1.957530	0.000231
 103	1.0149e+01	4.0427	20.908326	0.000507	5.068137	1.717131	0.000203
 104	1.0248e+01	4.0892	21.142480	0.000588	5.879039	1.991872	0.000235
 105	1.0348e+01	4.1261	21.388745	0.000618	6.183128	2.094900	0.000248
 106	1.0447e+01	4.1646	21.679419	0.000730	7.298118	2.472669	0.000292
 107	1.0547e+01	4.2079	21.881276	0.000507	5.068137	1.717131	0.000203
 108	1.0646e+01	4.2528	22.103318	0.000557	5.574951	1.888845	0.000223
 109	1.0746e+01	4.2881	22.353621	0.000628	6.284490	2.129243	0.000252
 110	1.0845e+01	4.3218	22.599886	0.000618	6.183128	2.094900	0.000248
 111	1.0945e+01	4.3651	22.773483	0.000436	4.358598	1.476733	0.000174
 112	1.1044e+01	4.4068	23.048008	0.000689	6.892667	2.335299	0.000276
 113	1.1144e+01	4.4421	23.290236	0.000608	6.081765	2.060558	0.000243
 114	1.1243e+01	4.4854	23.524390	0.000588	5.879039	1.991872	0.000235
 115	1.1343e+01	4.5320	23.734321	0.000527	5.270863	1.785817	0.000211
 116	1.1443e+01	4.5673	23.988661	0.000639	6.385853	2.163586	0.000256
 117	1.1542e+01	4.6025	24.234926	0.000618	6.183128	2.094900	0.000248
 118	1.1642e+01	4.6410	24.493303	0.000649	6.487216	2.197928	0.000260
 119	1.1741e+01	4.6779	24.683048	0.000476	4.764049	1.614104	0.000191
 120	1.1841e+01	4.7245	24.905090	0.000557	5.574951	1.888845	0.000223
 121	1.1940e+01	4.7630	25.147319	0.000608	6.081765	2.060558	0.000243
 122	1.2040e+01	4.8031	25.389547	0.000608	6.081765	2.060558	0.000243
 123	1.2139e+01	4.8464	25.623701	0.000588	5.879039	1.991872	0.000235
 124	1.2239e+01	4.8785	25.833632	0.000527	5.270863	1.785817	0.000211
 125	1.2338e+01	4.9090	26.075860	0.000608	6.081765	2.060558	0.000243
 126	1.2438e+01	4.9651	26.301939	0.000568	5.676314	1.923187	0.000227
 127	1.2537e+01	4.9988	26.548205	0.000618	6.183128	2.094900	0.000248
 128	1.2636e+01	5.0421	26.786396	0.000598	5.980402	2.026215	0.000239
 129	1.2736e+01	5.0694	27.016512	0.000578	5.777677	1.957530	0.000231
 130	1.2835e+01	5.1191	27.226443	0.000527	5.270863	1.785817	0.000211
 131	1.2935e+01	5.1608	27.468672	0.000608	6.081765	2.060558	0.000243
 132	1.3034e+01	5.1993	27.735123	0.000669	6.689941	2.266613	0.000268
 133	1.3134e+01	5.2426	27.928905	0.000487	4.865412	1.648446	0.000195
 134	1.3233e+01	5.2827	28.146910	0.000547	5.473588	1.854502	0.000219
 135	1.3333e+01	5.3132	28.429510	0.000710	7.095392	2.403984	0.000284
 136	1.3432e+01	5.3549	28.647515	0.000547	5.473588	1.854502	0.000219
 137	1.3532e+01	5.3870	28.913966	0.000669	6.689941	2.266613	0.000268
 138	1.3632e+01	5.4416	29.095637	0.000456	4.561324	1.545418	0.000183
 139	1.3731e+01	5.4736	29.337865	0.000608	6.081765	2.060558	0.000243
 140	1.3831e+01	5.5186	29.567982	0.000578	5.777677	1.957530	0.000231
 141	1.3930e+01	5.5587	29.777913	0.000527	5.270863	1.785817	0.000211
 142	1.4030e+01	5.5988	30.003993	0.000568	5.676314	1.923187	0.000227
 143	1.4129e+01	5.6437	30.213924	0.000527	5.270863	1.785817	0.000211
 144	1.4229e+01	5.6742	30.448078	0.000588	5.879039	1.991872	0.000235
 145	1.4328e+01	5.7223	30.674157	0.000568	5.676314	1.923187	0.000227
 146	1.4428e+01	5.7592	30.936571	0.000659	6.588579	2.232271	0.000264
 147	1.4527e+01	5.7881	31.134391	0.000497	4.966775	1.682789	0.000199
 148	1.4627e+01	5.8442	31.368545	0.000588	5.879039	1.991872	0.000235
 149	1.4726e+01	5.8715	31.610773	0.000608	6.081765	2.060558	0.000243
 150	1.4825e+01	5.9244	31.824741	0.000537	5.372226	1.820159	0.000215
 151	1.4925e+01	5.9597	32.042746	0.000547	5.473588	1.854502	0.000219
 152	1.5024e+01	5.9982	32.309197	0.000669	6.689941	2.266613	0.000268
 153	1.5124e+01	6.0415	32.507017	0.000497	4.966775	1.682789	0.000199
 154	1.5223e+01	6.0784	32.712911	0.000517	5.169500	1.751474	0.000207
 155	1.5323e+01	6.1218	32.910731	0.000497	4.966775	1.682789	0.000199
 156	1.5422e+01	6.1603	33.148922	0.000598	5.980402	2.026215	0.000239
 157	1.5522e+01	6.1988	33.399224	0.000628	6.284490	2.129243	0.000252
 158	1.5621e+01	6.2292	33.605118	0.000517	5.169500	1.751474	0.000207
 159	1.5721e+01	6.2790	33.855420	0.000628	6.284490	2.129243	0.000252
 160	1.5820e+01	6.3191	34.061314	0.000517	5.169500	1.751474	0.000207
 161	1.5920e+01	6.3560	34.319691	0.000649	6.487216	2.197928	0.000260
 162	1.6020e+01	6.3929	34.513473	0.000487	4.865412	1.648446	0.000195
 163	1.6119e+01	6.4378	34.735516	0.000557	5.574951	1.888845	0.000223
 164	1.6218e+01	6.4763	34.989855	0.000639	6.385853	2.163586	0.000256
 165	1.6318e+01	6.5052	35.159415	0.000426	4.257235	1.442390	0.000170
 166	1.6418e+01	6.5549	35.409718	0.000628	6.284490	2.129243	0.000252
 167	1.6517e+01	6.5966	35.627723	0.000547	5.473588	1.854502	0.000219
 168	1.6616e+01	6.6431	35.853802	0.000568	5.676314	1.923187	0.000227
 169	1.6716e+01	6.6656	36.071808	0.000547	5.473588	1.854502	0.000219
 170	1.6816e+01	6.7105	36.322110	0.000628	6.284490	2.129243	0.000252
 171	1.6915e+01	6.7490	36.503781	0.000456	4.561324	1.545418	0.000183
 172	1.7015e+01	6.7907	36.750047	0.000618	6.183128	2.094900	0.000248
 173	1.7114e+01	6.8356	36.955941	0.000517	5.169500	1.751474	0.000207
 174	1.7213e+01	6.8773	37.169909	0.000537	5.372226	1.820159	0.000215
 175	1.7313e+01	6.9094	37.379840	0.000527	5.270863	1.785817	0.000211
 176	1.7413e+01	6.9447	37.670514	0.000730	7.298118	2.472669	0.000292
 177	1.7512e+01	6.9961	37.884482	0.000537	5.372226	1.820159	0.000215
 178	1.7611e+01	7.0281	38.086339	0.000507	5.068137	1.717131	0.000203
 179	1.7711e+01	7.0747	38.312418	0.000568	5.676314	1.923187	0.000227
 180	1.7811e+01	7.1084	38.562721	0.000628	6.284490	2.129243	0.000252
 181	1.7910e+01	7.1549	38.776689	0.000537	5.372226	1.820159	0.000215
 182	1.8009e+01	7.1966	38.978546	0.000507	5.068137	1.717131	0.000203
 183	1.8109e+01	7.2287	39.224811	0.000618	6.183128	2.094900	0.000248
 184	1.8209e+01	7.2736	39.458965	0.000588	5.879039	1.991872	0.000235
 185	1.8308e+01	7.3169	39.693119	0.000588	5.879039	1.991872	0.000235
 186	1.8407e+01	7.3442	39.903050	0.000527	5.270863	1.785817	0.000211
 187	1.8507e+01	7.3875	40.129129	0.000568	5.676314	1.923187	0.000227
 188	1.8607e+01	7.4276	40.375395	0.000618	6.183128	2.094900	0.000248
 189	1.8706e+01	7.4613	40.561103	0.000466	4.662686	1.579761	0.000187
 190	1.8805e+01	7.5094	40.758922	0.000497	4.966775	1.682789	0.000199
 191	1.8905e+01	7.5527	41.025373	0.000669	6.689941	2.266613	0.000268
 192	1.9005e+01	7.5896	41.267602	0.000608	6.081765	2.060558	0.000243
 193	1.9104e+01	7.6297	41.485607	0.000547	5.473588	1.854502	0.000219
 194	1.9203e+01	7.6779	41.695538	0.000527	5.270863	1.785817	0.000211
 195	1.9303e+01	7.7148	41.917580	0.000557	5.574951	1.888845	0.000223
 196	1.9402e+01	7.7372	42.147697	0.000578	5.777677	1.957530	0.000231
 197	1.9502e+01	7.7966	42.361665	0.000537	5.372226	1.820159	0.000215
 198	1.9602e+01	7.8271	42.555448	0.000487	4.865412	1.648446	0.000195
 199	1.9701e+01	7.8720	42.817862	0.000659	6.588579	2.232271	0.000264
 200	1.9800e+01	7.9121	43.027793	0.000527	5.270863	1.785817	0.000211
 201	1.9900e+01	7.9506	43.261947	0.000588	5.879039	1.991872	0.000235
 202	2.0000e+01	7.9859	43.488026	0.000568	5.676314	1.923187	0.000227
 203	2.0099e+01	8.0308	43.685846	0.000497	4.966775	1.682789	0.000199
 204	2.0198e+01	8.0757	43.928074	0.000608	6.081765	2.060558	0.000243
 205	2.0298e+01	8.1078	44.138005	0.000527	5.270863	1.785817	0.000211
 206	2.0398e+01	8.1463	44.364085	0.000568	5.676314	1.923187	0.000227
 207	2.0497e+01	8.1880	44.578053	0.000537	5.372226	1.820159	0.000215
 208	2.0596e+01	8.2217	44.792021	0.000537	5.372226	1.820159	0.000215
 209	2.0696e+01	8.2714	45.018101	0.000568	5.676314	1.923187	0.000227
 210	2.0796e+01	8.3083	45.223995	0.000517	5.169500	1.751474	0.000207
 211	2.0895e+01	8.3613	45.486408	0.000659	6.588579	2.232271	0.000264
 212	2.0994e+01	8.3901	45.732674	0.000618	6.183128	2.094900	0.000248
 213	2.1094e+01	8.4286	45.942605	0.000527	5.270863	1.785817	0.000211
 214	2.1194e+01	8.4703	46.160610	0.000547	5.473588	1.854502	0.000219
 215	2.1293e+01	8.4992	46.350355	0.000476	4.764049	1.614104	0.000191
 216	2.1392e+01	8.5522	46.596621	0.000618	6.183128	2.094900	0.000248
 217	2.1492e+01	8.5859	46.802515	0.000517	5.169500	1.751474	0.000207
 218	2.1591e+01	8.6276	47.004371	0.000507	5.068137	1.717131	0.000203
 219	2.1691e+01	8.6677	47.266785	0.000659	6.588579	2.232271	0.000264
 220	2.1791e+01	8.7078	47.444419	0.000446	4.459961	1.511076	0.000179
 221	2.1890e+01	8.7415	47.666462	0.000557	5.574951	1.888845	0.000223
 222	2.1989e+01	8.7832	47.908690	0.000608	6.081765	2.060558	0.000243
 223	2.2089e+01	8.8201	48.094398	0.000466	4.662686	1.579761	0.000187
 224	2.2189e+01	8.8698	48.328552	0.000588	5.879039	1.991872	0.000235
 225	2.2288e+01	8.9051	48.570780	0.000608	6.081765	2.060558	0.000243
 226	2.2387e+01	8.9468	48.792823	0.000557	5.574951	1.888845	0.000223
 227	2.2487e+01	8.9869	48.998716	0.000517	5.169500	1.751474	0.000207
 228	2.2587e+01	9.0270	49.257093	0.000649	6.487216	2.197928	0.000260
 229	2.2686e+01	9.0655	49.414541	0.000395	3.953147	1.339363	0.000158
 230	2.2785e+01	9.1072	49.685030	0.000679	6.791304	2.300956	0.000272
 231	2.2885e+01	9.1425	49.898998	0.000537	5.372226	1.820159	0.000215
 232	2.2985e+01	9.1810	50.121040	0.000557	5.574951	1.888845	0.000223
 233	2.3084e+01	9.2388	50.322897	0.000507	5.068137	1.717131	0.000203
 234	2.3183e+01	9.2564	50.553014	0.000578	5.777677	1.957530	0.000231
 235	2.3283e+01	9.3094	50.758908	0.000517	5.169500	1.751474	0.000207
 236	2.3383e+01	9.3382	50.993062	0.000588	5.879039	1.991872	0.000235
 237	2.3482e+01	9.3783	51.227215	0.000588	5.879039	1.991872	0.000235
 238	2.3581e+01	9.4297	51.412924	0.000466	4.662686	1.579761	0.000187
 239	2.3681e+01	9.4746	51.643040	0.000578	5.777677	1.957530	0.000231
 240	2.3780e+01	9.4987	51.852971	0.000527	5.270863	1.785817	0.000211
 241	2.3880e+01	9.5404	52.091162	0.000598	5.980402	2.026215	0.000239
 242	2.3980e+01	9.5901	52.301093	0.000527	5.270863	1.785817	0.000211
 243	2.4079e+01	9.6238	52.511025	0.000527	5.270863	1.785817	0.000211
 244	2.4178e+01	9.6639	52.692696	0.000456	4.561324	1.545418	0.000183
 245	2.4278e+01	9.6912	52.922812	0.000578	5.777677	1.957530	0.000231
 246	2.4378e+01	9.7441	53.156966	0.000588	5.879039	1.991872	0.000235
 247	2.4477e+01	9.7858	53.391120	0.000588	5.879039	1.991872	0.000235
 248	2.4576e+01	9.8243	53.605088	0.000537	5.372226	1.820159	0.000215
 249	2.4676e+01	9.8660	53.798871	0.000487	4.865412	1.648446	0.000195
 250	2.4776e+01	9.8933	54.004765	0.000517	5.169500	1.751474	0.000207
 251	2.4875e+01	9.9398	54.271216	0.000669	6.689941	2.266613	0.000268
 252	2.4974e+01	9.9703	54.464998	0.000487	4.865412	1.648446	0.000195
 253	2.5074e+01	10.0249	54.691078	0.000568	5.676314	1.923187	0.000227
 254	2.5174e+01	10.0569	54.848526	0.000395	3.953147	1.339363	0.000158
 255	2.5273e+01	10.1019	55.094791	0.000618	6.183128	2.094900	0.000248
 256	2.5372e+01	10.1468	55.296648	0.000507	5.068137	1.717131	0.000203
 257	2.5472e+01	10.1789	55.510616	0.000537	5.372226	1.820159	0.000215
 258	2.5572e+01	10.2125	55.724585	0.000537	5.372226	1.820159	0.000215
 259	2.5671e+01	10.2671	55.942590	0.000547	5.473588	1.854502	0.000219
 260	2.5770e+01	10.3008	56.200967	0.000649	6.487216	2.197928	0.000260
 261	2.5870e+01	10.3425	56.354378	0.000385	3.851784	1.305020	0.000154
 262	2.5970e+01	10.3714	56.556235	0.000507	5.068137	1.717131	0.000203
 263	2.6069e+01	10.4291	56.774240	0.000547	5.473588	1.854502	0.000219
 264	2.6169e+01	10.4692	57.020505	0.000618	6.183128	2.094900	0.000248
 265	2.6268e+01	10.5045	57.214288	0.000487	4.865412	1.648446	0.000195
 266	2.6367e+01	10.5350	57.416144	0.000507	5.068137	1.717131	0.000203
 267	2.6467e+01	10.5751	57.601853	0.000466	4.662686	1.579761	0.000187
 268	2.6567e+01	10.6248	57.823895	0.000557	5.574951	1.888845	0.000223
 269	2.6666e+01	10.6633	58.037863	0.000537	5.372226	1.820159	0.000215
 270	2.6765e+01	10.7002	58.239720	0.000507	5.068137	1.717131	0.000203
 271	2.6865e+01	10.7371	58.429466	0.000476	4.764049	1.614104	0.000191
 272	2.6965e+01	10.7820	58.639397	0.000527	5.270863	1.785817	0.000211
 273	2.7064e+01	10.8206	58.833179	0.000487	4.865412	1.648446	0.000195
 274	2.7163e+01	10.8671	59.039073	0.000517	5.169500	1.751474	0.000207
 275	2.7263e+01	10.9040	59.277264	0.000598	5.980402	2.026215	0.000239
 276	2.7363e+01	10.9328	59.479121	0.000507	5.068137	1.717131	0.000203
 277	2.7462e+01	10.9778	59.648681	0.000426	4.257235	1.442390	0.000170
 278	2.7561e+01	11.0179	59.862649	0.000537	5.372226	1.820159	0.000215
 279	2.7661e+01	11.0596	60.116988	0.000639	6.385853	2.163586	0.000256
 280	2.7761e+01	11.0933	60.310771	0.000487	4.865412	1.648446	0.000195
 281	2.7860e+01	11.1334	60.504553	0.000487	4.865412	1.648446	0.000195
 282	2.7959e+01	11.1767	60.678150	0.000436	4.358598	1.476733	0.000174
 283	2.8059e+01	11.2232	60.900193	0.000557	5.574951	1.888845	0.000223
 284	2.8159e+01	11.2585	61.134346	0.000588	5.879039	1.991872	0.000235
 285	2.8258e+01	11.2986	61.307943	0.000436	4.358598	1.476733	0.000174
 286	2.8358e+01	11.3323	61.525949	0.000547	5.473588	1.854502	0.000219
 287	2.8457e+01	11.3804	61.711657	0.000466	4.662686	1.579761	0.000187
 288	2.8556e+01	11.4141	61.885254	0.000436	4.358598	1.476733	0.000174
 289	2.8656e+01	11.4462	62.103259	0.000547	5.473588	1.854502	0.000219
 290	2.8756e+01	11.4959	62.333376	0.000578	5.777677	1.957530	0.000231
 291	2.8855e+01	11.5360	62.547344	0.000537	5.372226	1.820159	0.000215
 292	2.8954e+01	11.5681	62.729015	0.000456	4.561324	1.545418	0.000183
 293	2.9054e+01	11.6082	62.934909	0.000517	5.169500	1.751474	0.000207
 294	2.9154e+01	11.6628	63.152914	0.000547	5.473588	1.854502	0.000219
 295	2.9253e+01	11.6916	63.346697	0.000487	4.865412	1.648446	0.000195
 296	2.9352e+01	11.7430	63.492034	0.000365	3.649059	1.236335	0.000146
 297	2.9452e+01	11.7815	63.714076	0.000557	5.574951	1.888845	0.000223
 298	2.9552e+01	11.8136	63.932082	0.000547	5.473588	1.854502	0.000219
 299	2.9651e+01	11.8569	64.129901	0.000497	4.966775	1.682789	0.000199
 300	2.9750e+01	11.8954	64.335795	0.000517	5.169500	1.751474	0.000207
 301	2.9850e+01	11.9387	64.513429	0.000446	4.459961	1.511076	0.000179
 302	2.9950e+01	11.9804	64.727397	0.000537	5.372226	1.820159	0.000215
 303	3.0049e+01	12.0061	64.941365	0.000537	5.372226	1.820159	0.000215
 304	3.0148e+01	12.0590	65.143222	0.000507	5.068137	1.717131	0.000203
 305	3.0248e+01	12.0911	65.337005	0.000487	4.865412	1.648446	0.000195
 306	3.0348e+01	12.1312	65.546936	0.000527	5.270863	1.785817	0.000211
 307	3.0447e+01	12.1729	65.736681	0.000476	4.764049	1.614104	0.000191
 308	3.0547e+01	12.2178	65.942575	0.000517	5.169500	1.751474	0.000207
 309	3.0646e+01	12.2547	66.108098	0.000416	4.155873	1.408048	0.000166
 310	3.0745e+01	12.2916	66.305917	0.000497	4.966775	1.682789	0.000199
 311	3.0845e+01	12.3317	66.531997	0.000568	5.676314	1.923187	0.000227
 312	3.0945e+01	12.3799	66.725779	0.000487	4.865412	1.648446	0.000195
 313	3.1044e+01	12.4103	66.903413	0.000446	4.459961	1.511076	0.000179
 314	3.1143e+01	12.4569	67.101233	0.000497	4.966775	1.682789	0.000199
 315	3.1243e+01	12.4906	67.303090	0.000507	5.068137	1.717131	0.000203
 316	3.1343e+01	12.5194	67.513021	0.000527	5.270863	1.785817	0.000211
 317	3.1442e+01	12.5692	67.694692	0.000456	4.561324	1.545418	0.000183
 318	3.1541e+01	12.6125	67.888475	0.000487	4.865412	1.648446	0.000195
 319	3.1641e+01	12.6558	68.086294	0.000497	4.966775	1.682789	0.000199
 320	3.1741e+01	12.6911	68.235668	0.000375	3.750422	1.270677	0.000150
 321	3.1840e+01	12.7328	68.449636	0.000537	5.372226	1.820159	0.000215
 322	3.1939e+01	12.7745	68.615159	0.000416	4.155873	1.408048	0.000166
 323	3.2039e+01	12.8050	68.845276	0.000578	5.777677	1.957530	0.000231
 324	3.2139e+01	12.8515	69.022910	0.000446	4.459961	1.511076	0.000179
 325	3.2238e+01	12.8852	69.220729	0.000497	4.966775	1.682789	0.000199
 326	3.2337e+01	12.9381	69.410475	0.000476	4.764049	1.614104	0.000191
 327	3.2437e+01	12.9686	69.600220	0.000476	4.764049	1.614104	0.000191
 328	3.2536e+01	13.0007	69.802077	0.000507	5.068137	1.717131	0.000203
 329	3.2636e+01	13.0520	70.003934	0.000507	5.068137	1.717131	0.000203
 330	3.2736e+01	13.0873	70.173493	0.000426	4.257235	1.442390	0.000170
 331	3.2835e+01	13.1242	70.314793	0.000355	3.547696	1.201992	0.000142
 332	3.2934e+01	13.1756	70.552984	0.000598	5.980402	2.026215	0.000239
 333	3.3034e+01	13.2028	70.738692	0.000466	4.662686	1.579761	0.000187
 334	3.3133e+01	13.2510	70.932475	0.000487	4.865412	1.648446	0.000195
 335	3.3233e+01	13.2943	71.085886	0.000385	3.851784	1.305020	0.000154
 336	3.3333e+01	13.3199	71.311966	0.000568	5.676314	1.923187	0.000227
 337	3.3432e+01	13.3665	71.489600	0.000446	4.459961	1.511076	0.000179
 338	3.3532e+01	13.4050	71.703568	0.000537	5.372226	1.820159	0.000215
 339	3.3631e+01	13.4467	71.889276	0.000466	4.662686	1.579761	0.000187
 340	3.3730e+01	13.4820	72.087096	0.000497	4.966775	1.682789	0.000199
 341	3.3830e+01	13.5189	72.280878	0.000487	4.865412	1.648446	0.000195
 342	3.3929e+01	13.5638	72.462549	0.000456	4.561324	1.545418	0.000183
 343	3.4029e+01	13.6151	72.672480	0.000527	5.270863	1.785817	0.000211
 344	3.4129e+01	13.6472	72.846077	0.000436	4.358598	1.476733	0.000174
 345	3.4228e+01	13.6857	73.023711	0.000446	4.459961	1.511076	0.000179
 346	3.4328e+01	13.7210	73.225568	0.000507	5.068137	1.717131	0.000203
 347	3.4427e+01	13.7547	73.411276	0.000466	4.662686	1.579761	0.000187
 348	3.4526e+01	13.7996	73.592947	0.000456	4.561324	1.545418	0.000183
 349	3.4626e+01	13.8509	73.814990	0.000557	5.574951	1.888845	0.000223
 350	3.4725e+01	13.8862	74.020884	0.000517	5.169500	1.751474	0.000207
 351	3.4825e+01	13.9247	74.234852	0.000537	5.372226	1.820159	0.000215
 352	3.4925e+01	13.9681	74.384226	0.000375	3.750422	1.270677	0.000150
 353	3.5024e+01	14.0033	74.602231	0.000547	5.473588	1.854502	0.000219
 354	3.5123e+01	14.0483	74.763717	0.000405	4.054510	1.373705	0.000162
 355	3.5223e+01	14.0820	74.993833	0.000578	5.777677	1.957530	0.000231
 356	3.5322e+01	14.1269	75.183579	0.000476	4.764049	1.614104	0.000191
 357	3.5422e+01	14.1654	75.369287	0.000466	4.662686	1.579761	0.000187
 358	3.5522e+01	14.1926	75.522698	0.000385	3.851784	1.305020	0.000154
 359	3.5621e+01	14.2344	75.724555	0.000507	5.068137	1.717131	0.000203
 360	3.5721e+01	14.2793	75.934486	0.000527	5.270863	1.785817	0.000211
 361	3.5820e+01	14.3178	76.100009	0.000416	4.155873	1.408048	0.000166
 362	3.5919e+01	14.3627	76.285717	0.000466	4.662686	1.579761	0.000187
 363	3.6019e+01	14.4124	76.503722	0.000547	5.473588	1.854502	0.000219
 364	3.6118e+01	14.4413	76.681356	0.000446	4.459961	1.511076	0.000179
 365	3.6218e+01	14.4782	76.863027	0.000456	4.561324	1.545418	0.000183
 366	3.6318e+01	14.5215	77.085070	0.000557	5.574951	1.888845	0.000223
 367	3.6417e+01	14.5536	77.258667	0.000436	4.358598	1.476733	0.000174
 368	3.6517e+01	14.5921	77.464561	0.000517	5.169500	1.751474	0.000207
 369	3.6616e+01	14.6466	77.638157	0.000436	4.358598	1.476733	0.000174
 370	3.6715e+01	14.6851	77.831940	0.000487	4.865412	1.648446	0.000195
 371	3.6815e+01	14.7253	77.965165	0.000334	3.344971	1.133307	0.000134
 372	3.6914e+01	14.7622	78.227579	0.000659	6.588579	2.232271	0.000264
 373	3.7014e+01	14.8039	78.380990	0.000385	3.851784	1.305020	0.000154
 374	3.7114e+01	14.8408	78.598996	0.000547	5.473588	1.854502	0.000219
 375	3.7213e+01	14.8793	78.804890	0.000517	5.169500	1.751474	0.000207
 376	3.7313e+01	14.9210	78.986561	0.000456	4.561324	1.545418	0.000183
 377	3.7412e+01	14.9579	79.164195	0.000446	4.459961	1.511076	0.000179
 378	3.7511e+01	14.9932	79.341829	0.000446	4.459961	1.511076	0.000179
 379	3.7611e+01	15.0461	79.535611	0.000487	4.865412	1.648446	0.000195
 380	3.7711e+01	15.0846	79.717282	0.000456	4.561324	1.545418	0.000183
 381	3.7810e+01	15.1167	79.902991	0.000466	4.662686	1.579761	0.000187
 382	3.7910e+01	15.1664	80.092736	0.000476	4.764049	1.614104	0.000191
 383	3.8009e+01	15.2001	80.270370	0.000446	4.459961	1.511076	0.000179
 384	3.8108e+01	15.2386	80.464152	0.000487	4.865412	1.648446	0.000195
 385	3.8208e+01	15.2803	80.649861	0.000466	4.662686	1.579761	0.000187
 386	3.8307e+01	15.3220	80.851717	0.000507	5.068137	1.717131	0.000203
 387	3.8407e+01	15.3702	81.041463	0.000476	4.764049	1.614104	0.000191
 388	3.8507e+01	15.3958	81.231208	0.000476	4.764049	1.614104	0.000191
 389	3.8606e+01	15.4407	81.400768	0.000426	4.257235	1.442390	0.000170
 390	3.8706e+01	15.4712	81.614736	0.000537	5.372226	1.820159	0.000215
 391	3.8805e+01	15.5161	81.784296	0.000426	4.257235	1.442390	0.000170
 392	3.8904e+01	15.5546	81.978078	0.000487	4.865412	1.648446	0.000195
 393	3.9004e+01	15.6012	82.167824	0.000476	4.764049	1.614104	0.000191
 394	3.9103e+01	15.6381	82.365643	0.000497	4.966775	1.682789	0.000199
 395	3.9203e+01	15.6766	82.531166	0.000416	4.155873	1.408048	0.000166
 396	3.9303e+01	15.7151	82.765320	0.000588	5.879039	1.991872	0.000235
 397	3.9402e+01	15.7552	82.890471	0.000314	3.142245	1.064621	0.000126
 398	3.9502e+01	15.7985	83.072142	0.000456	4.561324	1.545418	0.000183
 399	3.9601e+01	15.8402	83.290147	0.000547	5.473588	1.854502	0.000219
 400	3.9700e+01	15.8739	83.496041	0.000517	5.169500	1.751474	0.000207
 401	3.9800e+01	15.9092	83.649452	0.000385	3.851784	1.305020	0.000154
 402	3.9900e+01	15.9477	83.847272	0.000497	4.966775	1.682789	0.000199
 403	3.9999e+01	15.9910	84.008758	0.000405	4.054510	1.373705	0.000162
 404	4.0099e+01	16.0391	84.230800	0.000557	5.574951	1.888845	0.000223
 405	4.0198e+01	16.0744	84.396323	0.000416	4.155873	1.408048	0.000166
 406	4.0297e+01	16.1177	84.582031	0.000466	4.662686	1.579761	0.000187
 407	4.0397e+01	16.1530	84.783888	0.000507	5.068137	1.717131	0.000203
 408	4.0496e+01	16.2028	84.985744	0.000507	5.068137	1.717131	0.000203
 409	4.0596e+01	16.2396	85.151267	0.000416	4.155873	1.408048	0.000166
 410	4.0696e+01	16.2669	85.324864	0.000436	4.358598	1.476733	0.000174
 411	4.0795e+01	16.3199	85.510572	0.000466	4.662686	1.579761	0.000187
 412	4.0895e+01	16.3535	85.716466	0.000517	5.169500	1.751474	0.000207
 413	4.0994e+01	16.3969	85.898137	0.000456	4.561324	1.545418	0.000183
 414	4.1093e+01	16.4402	86.104031	0.000517	5.169500	1.751474	0.000207
 415	4.1193e+01	16.4658	86.289739	0.000466	4.662686	1.579761	0.000187
 416	4.1292e+01	16.5124	86.447188	0.000395	3.953147	1.339363	0.000158
 417	4.1392e+01	16.5573	86.632896	0.000466	4.662686	1.579761	0.000187
 418	4.1492e+01	16.5926	86.826678	0.000487	4.865412	1.648446	0.000195
 419	4.1591e+01	16.6455	86.984127	0.000395	3.953147	1.339363	0.000158
 420	4.1691e+01	16.6696	87.169835	0.000466	4.662686	1.579761	0.000187
 421	4.1790e+01	16.7081	87.351506	0.000456	4.561324	1.545418	0.000183
 422	4.1889e+01	16.7610	87.557400	0.000517	5.169500	1.751474	0.000207
 423	4.1989e+01	16.7867	87.718885	0.000405	4.054510	1.373705	0.000162
 424	4.2089e+01	16.8268	87.904594	0.000466	4.662686	1.579761	0.000187
 425	4.2188e+01	16.8733	88.098376	0.000487	4.865412	1.648446	0.000195
 426	4.2288e+01	16.9070	88.271973	0.000436	4.358598	1.476733	0.000174
 427	4.2387e+01	16.9535	88.441533	0.000426	4.257235	1.442390	0.000170
 428	4.2486e+01	16.9936	88.651464	0.000527	5.270863	1.785817	0.000211
 429	4.2586e+01	17.0225	88.784689	0.000334	3.344971	1.133307	0.000134
 430	4.2685e+01	17.0787	88.998657	0.000537	5.372226	1.820159	0.000215
 431	4.2785e+01	17.1027	89.164180	0.000416	4.155873	1.408048	0.000166
 432	4.2885e+01	17.1525	89.362000	0.000497	4.966775	1.682789	0.000199
 433	4.2984e+01	17.1861	89.495225	0.000334	3.344971	1.133307	0.000134
 434	4.3084e+01	17.2359	89.721305	0.000568	5.676314	1.923187	0.000227
 435	4.3183e+01	17.2696	89.838382	0.000294	2.939520	0.995936	0.000118
 436	4.3282e+01	17.3113	90.044276	0.000517	5.169500	1.751474	0.000207
 437	4.3382e+01	17.3562	90.225947	0.000456	4.561324	1.545418	0.000183
 438	4.3481e+01	17.3931	90.411655	0.000466	4.662686	1.579761	0.000187
 439	4.3581e+01	17.4348	90.585252	0.000436	4.358598	1.476733	0.000174
 440	4.3681e+01	17.4717	90.746737	0.000405	4.054510	1.373705	0.000162
 441	4.3780e+01	17.5246	90.920334	0.000436	4.358598	1.476733	0.000174
 442	4.3880e+01	17.5519	91.106042	0.000466	4.662686	1.579761	0.000187
 443	4.3979e+01	17.5936	91.295788	0.000476	4.764049	1.614104	0.000191
 444	4.4078e+01	17.6273	91.453236	0.000395	3.953147	1.339363	0.000158
 445	4.4178e+01	17.6690	91.634907	0.000456	4.561324	1.545418	0.000183
 446	4.4278e+01	17.7204	91.844838	0.000527	5.270863	1.785817	0.000211
 447	4.4377e+01	17.7556	92.006323	0.000405	4.054510	1.373705	0.000162
 448	4.4477e+01	17.7974	92.151660	0.000365	3.649059	1.236335	0.000146
 449	4.4576e+01	17.8310	92.341406	0.000476	4.764049	1.614104	0.000191
 450	4.4675e+01	17.8663	92.502891	0.000405	4.054510	1.373705	0.000162
 451	4.4775e+01	17.9016	92.680525	0.000446	4.459961	1.511076	0.000179
 452	4.4874e+01	17.9546	92.842011	0.000405	4.054510	1.373705	0.000162
 453	4.4974e+01	17.9883	93.035793	0.000487	4.865412	1.648446	0.000195
 454	4.5074e+01	18.0316	93.205353	0.000426	4.257235	1.442390	0.000170
 455	4.5173e+01	18.0749	93.366838	0.000405	4.054510	1.373705	0.000162
 456	4.5273e+01	18.1022	93.540435	0.000436	4.358598	1.476733	0.000174
 457	4.5372e+01	18.1471	93.738255	0.000497	4.966775	1.682789	0.000199
 458	4.5471e+01	18.1888	93.895703	0.000395	3.953147	1.339363	0.000158
 459	4.5571e+01	18.2257	94.049114	0.000385	3.851784	1.305020	0.000154
 460	4.5670e+01	18.2658	94.234822	0.000466	4.662686	1.579761	0.000187
 461	4.5770e+01	18.3139	94.420531	0.000466	4.662686	1.579761	0.000187
 462	4.5870e+01	18.3524	94.590090	0.000426	4.257235	1.442390	0.000170
 463	4.5969e+01	18.3813	94.735427	0.000365	3.649059	1.236335	0.000146
 464	4.6069e+01	18.4246	94.937284	0.000507	5.068137	1.717131	0.000203
 465	4.6168e+01	18.4647	95.098769	0.000405	4.054510	1.373705	0.000162
 466	4.6267e+01	18.5048	95.256218	0.000395	3.953147	1.339363	0.000158
 467	4.6367e+01	18.5481	95.454037	0.000497	4.966775	1.682789	0.000199
 468	4.6467e+01	18.5834	95.631671	0.000446	4.459961	1.511076	0.000179
 469	4.6566e+01	18.6251	95.772971	0.000355	3.547696	1.201992	0.000142
 470	4.6666e+01	18.6685	95.958679	0.000466	4.662686	1.579761	0.000187
 471	4.6765e+01	18.7086	96.156499	0.000497	4.966775	1.682789	0.000199
 472	4.6864e+01	18.7567	96.301836	0.000365	3.649059	1.236335	0.000146
 473	4.6964e+01	18.7824	96.463321	0.000405	4.054510	1.373705	0.000162
 474	4.7063e+01	18.8209	96.657104	0.000487	4.865412	1.648446	0.000195
 475	4.7163e+01	18.8754	96.822626	0.000416	4.155873	1.408048	0.000166
 476	4.7263e+01	18.9107	97.000260	0.000446	4.459961	1.511076	0.000179
 477	4.7362e+01	18.9492	97.137523	0.000345	3.446333	1.167649	0.000138
 478	4.7462e+01	18.9893	97.319194	0.000456	4.561324	1.545418	0.000183
 479	4.7561e+01	19.0278	97.500865	0.000456	4.561324	1.545418	0.000183
 480	4.7660e+01	19.0727	97.654276	0.000385	3.851784	1.305020	0.000154
 481	4.7760e+01	19.1032	97.831910	0.000446	4.459961	1.511076	0.000179
 482	4.7859e+01	19.1433	97.981284	0.000375	3.750422	1.270677	0.000150
 483	4.7959e+01	19.1770	98.171030	0.000476	4.764049	1.614104	0.000191
 484	4.8059e+01	19.2251	98.316367	0.000365	3.649059	1.236335	0.000146
 485	4.8158e+01	19.2588	98.489963	0.000436	4.358598	1.476733	0.000174
 486	4.8258e+01	19.3053	98.647412	0.000395	3.953147	1.339363	0.000158
 487	4.8357e+01	19.3390	98.812934	0.000416	4.155873	1.408048	0.000166
 488	4.8456e+01	19.3872	98.962308	0.000375	3.750422	1.270677	0.000150
 489	4.8556e+01	19.4289	99.131868	0.000426	4.257235	1.442390	0.000170
 490	4.8656e+01	19.4690	99.321613	0.000476	4.764049	1.614104	0.000191
 491	4.8755e+01	19.5043	99.466950	0.000365	3.649059	1.236335	0.000146
 492	4.8855e+01	19.5396	99.640547	0.000436	4.358598	1.476733	0.000174
 493	4.8954e+01	19.5877	99.806070	0.000416	4.155873	1.408048	0.000166
 494	4.9053e+01	19.6310	99.979667	0.000436	4.358598	1.476733	0.000174
 495	4.9153e+01	19.6631	100.120966	0.000355	3.547696	1.201992	0.000142
 496	4.9252e+01	19.7032	100.298600	0.000446	4.459961	1.511076	0.000179
 497	4.9352e+01	19.7449	100.460086	0.000405	4.054510	1.373705	0.000162
 498	4.9452e+01	19.7834	100.637720	0.000446	4.459961	1.511076	0.000179
 499	4.9551e+01	19.8267	100.795168	0.000395	3.953147	1.339363	0.000158
 500	4.9651e+01	19.8588	100.952616	0.000395	3.953147	1.339363	0.000158
 501	4.9750e+01	19.8989	101.097953	0.000365	3.649059	1.236335	0.000146
 502	4.9849e+01	19.9518	101.340181	0.000608	6.081765	2.060558	0.000243
 503	4.9949e+01	19.9855	101.457258	0.000294	2.939520	0.995936	0.000118
 504	5.0048e+01	19.9374	101.299810	0.000395	3.953147	1.339363	-0.000158
 505	5.0148e+01	19.9037	101.202919	0.000243	2.432706	0.824223	-0.000097
 506	5.0248e+01	19.8620	101.029322	0.000436	4.358598	1.476733	-0.000174
 507	5.0347e+01	19.8267	100.924356	0.000264	2.635431	0.892908	-0.000105
 508	5.0447e+01	19.7786	100.807279	0.000294	2.939520	0.995936	-0.000118
 509	5.0546e+01	19.7433	100.698277	0.000274	2.736794	0.927251	-0.000110
 510	5.0645e+01	19.7064	100.520643	0.000446	4.459961	1.511076	-0.000179
 511	5.0745e+01	19.6551	100.423751	0.000243	2.432706	0.824223	-0.000097
 512	5.0844e+01	19.6246	100.282452	0.000355	3.547696	1.201992	-0.000142
 513	5.0944e+01	19.5781	100.161338	0.000304	3.040882	1.030279	-0.000122
 514	5.1044e+01	19.5460	100.016001	0.000365	3.649059	1.236335	-0.000146
 515	5.1143e+01	19.4946	99.854515	0.000405	4.054510	1.373705	-0.000162
 516	5.1242e+01	19.4497	99.717253	0.000345	3.446333	1.167649	-0.000138
 517	5.1342e+01	19.4224	99.600176	0.000294	2.939520	0.995936	-0.000118
 518	5.1441e+01	19.3855	99.422542	0.000446	4.459961	1.511076	-0.000179
 519	5.1541e+01	19.3470	99.305465	0.000294	2.939520	0.995936	-0.000118
 520	5.1641e+01	19.3182	99.196462	0.000274	2.736794	0.927251	-0.000110
 521	5.1740e+01	19.2668	99.026903	0.000426	4.257235	1.442390	-0.000170
 522	5.1840e+01	19.2219	98.917900	0.000274	2.736794	0.927251	-0.000110
 523	5.1939e+01	19.1850	98.732192	0.000466	4.662686	1.579761	-0.000187
 524	5.2038e+01	19.1513	98.582818	0.000375	3.750422	1.270677	-0.000150
 525	5.2138e+01	19.1016	98.481889	0.000253	2.534069	0.858566	-0.000101
 526	5.2237e+01	19.0663	98.352701	0.000324	3.243608	1.098964	-0.000130
 527	5.2337e+01	19.0230	98.207364	0.000365	3.649059	1.236335	-0.000146
 528	5.2437e+01	18.9861	98.066064	0.000355	3.547696	1.201992	-0.000142
 529	5.2536e+01	18.9364	97.916690	0.000375	3.750422	1.270677	-0.000150
 530	5.2636e+01	18.9075	97.791539	0.000314	3.142245	1.064621	-0.000126
 531	5.2735e+01	18.8690	97.605831	0.000466	4.662686	1.579761	-0.000187
 532	5.2834e+01	18.8241	97.492791	0.000284	2.838157	0.961594	-0.000114
 533	5.2934e+01	18.7888	97.327268	0.000416	4.155873	1.408048	-0.000166
 534	5.3033e+01	18.7567	97.190006	0.000345	3.446333	1.167649	-0.000138
 535	5.3133e+01	18.7054	97.040632	0.000375	3.750422	1.270677	-0.000150
 536	5.3233e+01	18.6781	96.903369	0.000345	3.446333	1.167649	-0.000138
 537	5.3332e+01	18.6107	96.782255	0.000304	3.040882	1.030279	-0.000122
 538	5.3431e+01	18.5834	96.636918	0.000365	3.649059	1.236335	-0.000146
 539	5.3531e+01	18.5465	96.463321	0.000436	4.358598	1.476733	-0.000174
 540	5.3630e+01	18.5080	96.317984	0.000365	3.649059	1.236335	-0.000146
 541	5.3730e+01	18.4759	96.180722	0.000345	3.446333	1.167649	-0.000138
 542	5.3830e+01	18.4326	96.047496	0.000334	3.344971	1.133307	-0.000134
 543	5.3929e+01	18.3861	95.857751	0.000476	4.764049	1.614104	-0.000191
 544	5.4029e+01	18.3508	95.728563	0.000324	3.243608	1.098964	-0.000130
 545	5.4128e+01	18.3107	95.595337	0.000334	3.344971	1.133307	-0.000134
 546	5.4227e+01	18.2674	95.413666	0.000456	4.561324	1.545418	-0.000183
 547	5.4327e+01	18.2273	95.292552	0.000304	3.040882	1.030279	-0.000122
 548	5.4426e+01	18.1952	95.159326	0.000334	3.344971	1.133307	-0.000134
 549	5.4526e+01	18.1551	94.961507	0.000497	4.966775	1.682789	-0.000199
 550	5.4626e+01	18.1054	94.876727	0.000213	2.128618	0.721195	-0.000085
 551	5.4725e+01	18.0685	94.715242	0.000405	4.054510	1.373705	-0.000162
 552	5.4825e+01	18.0332	94.561830	0.000385	3.851784	1.305020	-0.000154
 553	5.4924e+01	17.9915	94.424568	0.000345	3.446333	1.167649	-0.000138
 554	5.5023e+01	17.9482	94.279231	0.000365	3.649059	1.236335	-0.000146
 555	5.5123e+01	17.9064	94.069300	0.000527	5.270863	1.785817	-0.000211
 556	5.5222e+01	17.8647	93.956260	0.000284	2.838157	0.961594	-0.000114
 557	5.5322e+01	17.8343	93.823035	0.000334	3.344971	1.133307	-0.000134
 558	5.5422e+01	17.7909	93.681735	0.000355	3.547696	1.201992	-0.000142
 559	5.5521e+01	17.7460	93.500064	0.000456	4.561324	1.545418	-0.000183
 560	5.5620e+01	17.7043	93.362801	0.000345	3.446333	1.167649	-0.000138
 561	5.5720e+01	17.6754	93.225538	0.000345	3.446333	1.167649	-0.000138
 562	5.5819e+01	17.6273	93.080202	0.000365	3.649059	1.236335	-0.000146
 563	5.5919e+01	17.5920	92.902568	0.000446	4.459961	1.511076	-0.000179
 564	5.6019e+01	17.5487	92.757231	0.000365	3.649059	1.236335	-0.000146
 565	5.6118e+01	17.5118	92.611894	0.000365	3.649059	1.236335	-0.000146
 566	5.6218e+01	17.4685	92.474631	0.000345	3.446333	1.167649	-0.000138
 567	5.6317e+01	17.4332	92.317183	0.000395	3.953147	1.339363	-0.000158
 568	5.6416e+01	17.3899	92.196069	0.000304	3.040882	1.030279	-0.000122
 569	5.6516e+01	17.3546	92.014398	0.000456	4.561324	1.545418	-0.000183
 570	5.6615e+01	17.3017	91.873098	0.000355	3.547696	1.201992	-0.000142
 571	5.6715e+01	17.2808	91.719687	0.000385	3.851784	1.305020	-0.000154
 572	5.6815e+01	17.2375	91.586461	0.000334	3.344971	1.133307	-0.000134
 573	5.6914e+01	17.1861	91.420939	0.000416	4.155873	1.408048	-0.000166
 574	5.7014e+01	17.1509	91.259453	0.000405	4.054510	1.373705	-0.000162
 575	5.7113e+01	17.1140	91.114116	0.000365	3.649059	1.236335	-0.000146
 576	5.7212e+01	17.0738	90.960705	0.000385	3.851784	1.305020	-0.000154
 577	5.7312e+01	17.0305	90.811331	0.000375	3.750422	1.270677	-0.000150
 578	5.7411e+01	16.9888	90.690217	0.000304	3.040882	1.030279	-0.000122
 579	5.7511e+01	16.9567	90.532769	0.000395	3.953147	1.339363	-0.000158
 580	5.7611e+01	16.9214	90.322838	0.000527	5.270863	1.785817	-0.000211
 581	5.7710e+01	16.8733	90.225947	0.000243	2.432706	0.824223	-0.000097
 582	5.7809e+01	16.8444	90.076573	0.000375	3.750422	1.270677	-0.000150
 583	5.7909e+01	16.7963	89.911050	0.000416	4.155873	1.408048	-0.000166
 584	5.8008e+01	16.7562	89.765713	0.000365	3.649059	1.236335	-0.000146
 585	5.8108e+01	16.7113	89.567893	0.000497	4.966775	1.682789	-0.000199
 586	5.8208e+01	16.6712	89.479076	0.000223	2.229980	0.755538	-0.000089
 587	5.8307e+01	16.6359	89.281257	0.000497	4.966775	1.682789	-0.000199
 588	5.8407e+01	16.5974	89.115734	0.000416	4.155873	1.408048	-0.000166
 589	5.8506e+01	16.5541	89.010769	0.000264	2.635431	0.892908	-0.000105
 590	5.8605e+01	16.5204	88.800838	0.000527	5.270863	1.785817	-0.000211
 591	5.8705e+01	16.4835	88.683761	0.000294	2.939520	0.995936	-0.000118
 592	5.8804e+01	16.4386	88.518238	0.000416	4.155873	1.408048	-0.000166
 593	5.8904e+01	16.3904	88.348678	0.000426	4.257235	1.442390	-0.000170
 594	5.9004e+01	16.3600	88.203342	0.000365	3.649059	1.236335	-0.000146
 595	5.9103e+01	16.3070	88.029745	0.000436	4.358598	1.476733	-0.000174
 596	5.9203e+01	16.2814	87.860185	0.000426	4.257235	1.442390	-0.000170
 597	5.9302e+01	16.2332	87.726960	0.000334	3.344971	1.133307	-0.000134
 598	5.9401e+01	16.1899	87.565474	0.000405	4.054510	1.373705	-0.000162
 599	5.9501e+01	16.1530	87.375729	0.000476	4.764049	1.614104	-0.000191
 600	5.9600e+01	16.1145	87.238466	0.000345	3.446333	1.167649	-0.000138
 601	5.9700e+01	16.0712	87.044684	0.000487	4.865412	1.648446	-0.000195
 602	5.9800e+01	16.0279	86.923570	0.000304	3.040882	1.030279	-0.000122
 603	5.9899e+01	16.0054	86.774196	0.000375	3.750422	1.270677	-0.000150
 604	5.9998e+01	15.9557	86.560227	0.000537	5.372226	1.820159	-0.000215
 605	6.0098e+01	15.9188	86.459299	0.000253	2.534069	0.858566	-0.000101
 606	6.0197e+01	15.8771	86.297814	0.000405	4.054510	1.373705	-0.000162
 607	6.0297e+01	15.8386	86.095957	0.000507	5.068137	1.717131	-0.000203
 608	6.0397e+01	15.7969	85.966768	0.000324	3.243608	1.098964	-0.000130
 609	6.0496e+01	15.7600	85.768949	0.000497	4.966775	1.682789	-0.000199
 610	6.0596e+01	15.7119	85.651872	0.000294	2.939520	0.995936	-0.000118
 611	6.0695e+01	15.6718	85.470201	0.000456	4.561324	1.545418	-0.000183
 612	6.0794e+01	15.6316	85.292567	0.000446	4.459961	1.511076	-0.000179
 613	6.0894e+01	15.5980	85.143193	0.000375	3.750422	1.270677	-0.000150
 614	6.0993e+01	15.5514	84.973633	0.000426	4.257235	1.442390	-0.000170
 615	6.1093e+01	15.5097	84.812148	0.000405	4.054510	1.373705	-0.000162
 616	6.1193e+01	15.4841	84.638551	0.000436	4.358598	1.476733	-0.000174
 617	6.1292e+01	15.4456	84.473028	0.000416	4.155873	1.408048	-0.000166
 618	6.1392e+01	15.3910	84.347877	0.000314	3.142245	1.064621	-0.000126
 619	6.1491e+01	15.3621	84.162169	0.000466	4.662686	1.579761	-0.000187
 620	6.1590e+01	15.3156	83.972423	0.000476	4.764049	1.614104	-0.000191
 621	6.1690e+01	15.2787	83.806901	0.000416	4.155873	1.408048	-0.000166
 622	6.1789e+01	15.2338	83.661564	0.000365	3.649059	1.236335	-0.000146
 623	6.1889e+01	15.1985	83.467781	0.000487	4.865412	1.648446	-0.000195
 624	6.1989e+01	15.1632	83.322444	0.000365	3.649059	1.236335	-0.000146
 625	6.2088e+01	15.1103	83.177108	0.000365	3.649059	1.236335	-0.000146
 626	6.2188e+01	15.0798	82.995437	0.000456	4.561324	1.545418	-0.000183
 627	6.2287e+01	15.0477	82.813765	0.000456	4.561324	1.545418	-0.000183
 628	6.2386e+01	15.0076	82.636131	0.000446	4.459961	1.511076	-0.000179
 629	6.2486e+01	14.9659	82.466572	0.000426	4.257235	1.442390	-0.000170
 630	6.2586e+01	14.9113	82.317198	0.000375	3.750422	1.270677	-0.000150
 631	6.2685e+01	14.8809	82.135527	0.000456	4.561324	1.545418	-0.000183
 632	6.2785e+01	14.8520	81.974041	0.000405	4.054510	1.373705	-0.000162
 633	6.2884e+01	14.7974	81.820630	0.000385	3.851784	1.305020	-0.000154
 634	6.2983e+01	14.7589	81.634922	0.000466	4.662686	1.579761	-0.000187
 635	6.3083e+01	14.7220	81.461325	0.000436	4.358598	1.476733	-0.000174
 636	6.3182e+01	14.6803	81.315988	0.000365	3.649059	1.236335	-0.000146
 637	6.3282e+01	14.6370	81.118168	0.000497	4.966775	1.682789	-0.000199
 638	6.3382e+01	14.5953	80.976869	0.000355	3.547696	1.201992	-0.000142
 639	6.3481e+01	14.5664	80.779049	0.000497	4.966775	1.682789	-0.000199
 640	6.3581e+01	14.5183	80.637749	0.000355	3.547696	1.201992	-0.000142
 641	6.3680e+01	14.4830	80.460115	0.000446	4.459961	1.511076	-0.000179
 642	6.3779e+01	14.4445	80.298630	0.000405	4.054510	1.373705	-0.000162
 643	6.3879e+01	14.4060	80.116959	0.000456	4.561324	1.545418	-0.000183
 644	6.3978e+01	14.3595	79.955473	0.000405	4.054510	1.373705	-0.000162
 645	6.4078e+01	14.3242	79.761691	0.000487	4.865412	1.648446	-0.000195
 646	6.4177e+01	14.2777	79.580020	0.000456	4.561324	1.545418	-0.000183
 647	6.4277e+01	14.2488	79.410460	0.000426	4.257235	1.442390	-0.000170
 648	6.4376e+01	14.2023	79.236863	0.000436	4.358598	1.476733	-0.000174
 649	6.4476e+01	14.1606	79.067303	0.000426	4.257235	1.442390	-0.000170
 650	6.4576e+01	14.1172	78.865447	0.000507	5.068137	1.717131	-0.000203
 651	6.4675e+01	14.0820	78.691850	0.000436	4.358598	1.476733	-0.000174
 652	6.4775e+01	14.0386	78.510179	0.000456	4.561324	1.545418	-0.000183
 653	6.4874e+01	14.0066	78.385027	0.000314	3.142245	1.064621	-0.000126
 654	6.4974e+01	13.9600	78.187208	0.000497	4.966775	1.682789	-0.000199
 655	6.5073e+01	13.9296	78.021685	0.000416	4.155873	1.408048	-0.000166
 656	6.5172e+01	13.8830	77.876348	0.000365	3.649059	1.236335	-0.000146
 657	6.5272e+01	13.8445	77.674492	0.000507	5.068137	1.717131	-0.000203
 658	6.5371e+01	13.8092	77.488783	0.000466	4.662686	1.579761	-0.000187
 659	6.5471e+01	13.7675	77.315187	0.000436	4.358598	1.476733	-0.000174
 660	6.5570e+01	13.7162	77.137553	0.000446	4.459961	1.511076	-0.000179
 661	6.5670e+01	13.6873	76.935696	0.000507	5.068137	1.717131	-0.000203
 662	6.5769e+01	13.6440	76.782285	0.000385	3.851784	1.305020	-0.000154
 663	6.5869e+01	13.5959	76.600613	0.000456	4.561324	1.545418	-0.000183
 664	6.5969e+01	13.5654	76.414905	0.000466	4.662686	1.579761	-0.000187
 665	6.6068e+01	13.5205	76.245346	0.000426	4.257235	1.442390	-0.000170
 666	6.6168e+01	13.4852	76.075786	0.000426	4.257235	1.442390	-0.000170
 667	6.6267e+01	13.4499	75.906226	0.000426	4.257235	1.442390	-0.000170
 668	6.6367e+01	13.3969	75.720518	0.000466	4.662686	1.579761	-0.000187
 669	6.6466e+01	13.3729	75.542884	0.000446	4.459961	1.511076	-0.000179
 670	6.6566e+01	13.3360	75.369287	0.000436	4.358598	1.476733	-0.000174
 671	6.6665e+01	13.2830	75.199727	0.000426	4.257235	1.442390	-0.000170
 672	6.6764e+01	13.2526	74.997871	0.000507	5.068137	1.717131	-0.000203
 673	6.6864e+01	13.1996	74.828311	0.000426	4.257235	1.442390	-0.000170
 674	6.6963e+01	13.1708	74.630491	0.000497	4.966775	1.682789	-0.000199
 675	6.7063e+01	13.1290	74.501303	0.000324	3.243608	1.098964	-0.000130
 676	6.7162e+01	13.0873	74.303483	0.000497	4.966775	1.682789	-0.000199
 677	6.7262e+01	13.0520	74.085478	0.000547	5.473588	1.854502	-0.000219
 678	6.7362e+01	13.0071	73.968401	0.000294	2.939520	0.995936	-0.000118
 679	6.7461e+01	12.9622	73.758470	0.000527	5.270863	1.785817	-0.000211
 680	6.7561e+01	12.9237	73.613133	0.000365	3.649059	1.236335	-0.000146
 681	6.7660e+01	12.8884	73.455685	0.000395	3.953147	1.339363	-0.000158
 682	6.7760e+01	12.8451	73.253828	0.000507	5.068137	1.717131	-0.000203
 683	6.7859e+01	12.8130	73.060045	0.000487	4.865412	1.648446	-0.000195
 684	6.7959e+01	12.7777	72.902597	0.000395	3.953147	1.339363	-0.000158
 685	6.8058e+01	12.7344	72.741112	0.000405	4.054510	1.373705	-0.000162
 686	6.8157e+01	12.6959	72.579626	0.000405	4.054510	1.373705	-0.000162
 687	6.8257e+01	12.6494	72.381807	0.000497	4.966775	1.682789	-0.000199
 688	6.8356e+01	12.6141	72.212247	0.000426	4.257235	1.442390	-0.000170
 689	6.8456e+01	12.5676	71.998279	0.000537	5.372226	1.820159	-0.000215
 690	6.8555e+01	12.5307	71.824682	0.000436	4.358598	1.476733	-0.000174
 691	6.8655e+01	12.4890	71.671271	0.000385	3.851784	1.305020	-0.000154
 692	6.8754e+01	12.4488	71.457303	0.000537	5.372226	1.820159	-0.000215
 693	6.8854e+01	12.4136	71.324077	0.000334	3.344971	1.133307	-0.000134
 694	6.8954e+01	12.3767	71.122220	0.000507	5.068137	1.717131	-0.000203
 695	6.9053e+01	12.3349	70.964772	0.000395	3.953147	1.339363	-0.000158
 696	6.9153e+01	12.2948	70.787138	0.000446	4.459961	1.511076	-0.000179
 697	6.9252e+01	12.2499	70.613541	0.000436	4.358598	1.476733	-0.000174
 698	6.9352e+01	12.2114	70.407647	0.000517	5.169500	1.751474	-0.000207
 699	6.9451e+01	12.1713	70.270385	0.000345	3.446333	1.167649	-0.000138
 700	6.9550e+01	12.1296	70.084676	0.000466	4.662686	1.579761	-0.000187
 701	6.9650e+01	12.0959	69.890894	0.000487	4.865412	1.648446	-0.000195
 702	6.9749e+01	12.0606	69.725371	0.000416	4.155873	1.408048	-0.000166
 703	6.9849e+01	12.0253	69.531589	0.000487	4.865412	1.648446	-0.000195
 704	6.9948e+01	11.9788	69.370103	0.000405	4.054510	1.373705	-0.000162
 705	7.0048e+01	11.9355	69.127875	0.000608	6.081765	2.060558	-0.000243
 706	7.0147e+01	11.9002	69.006761	0.000304	3.040882	1.030279	-0.000122
 707	7.0247e+01	11.8569	68.788756	0.000547	5.473588	1.854502	-0.000219
 708	7.0347e+01	11.8088	68.651493	0.000345	3.446333	1.167649	-0.000138
 709	7.0446e+01	11.7783	68.457711	0.000487	4.865412	1.648446	-0.000195
 710	7.0546e+01	11.7318	68.247780	0.000527	5.270863	1.785817	-0.000211
 711	7.0645e+01	11.7029	68.130703	0.000294	2.939520	0.995936	-0.000118
 712	7.0745e+01	11.6419	67.953069	0.000446	4.459961	1.511076	-0.000179
 713	7.0844e+01	11.6162	67.731026	0.000557	5.574951	1.888845	-0.000223
 714	7.0944e+01	11.5761	67.561467	0.000426	4.257235	1.442390	-0.000170
 715	7.1043e+01	11.5457	67.351536	0.000527	5.270863	1.785817	-0.000211
 716	7.1142e+01	11.4943	67.153716	0.000497	4.966775	1.682789	-0.000199
 717	7.1242e+01	11.4671	67.028565	0.000314	3.142245	1.064621	-0.000126
 718	7.1341e+01	11.4125	66.834782	0.000487	4.865412	1.648446	-0.000195
 719	7.1441e+01	11.3772	66.665222	0.000426	4.257235	1.442390	-0.000170
 720	7.1540e+01	11.3403	66.463366	0.000507	5.068137	1.717131	-0.000203
 721	7.1640e+01	11.2922	66.289769	0.000436	4.358598	1.476733	-0.000174
 722	7.1740e+01	11.2553	66.091949	0.000497	4.966775	1.682789	-0.000199
 723	7.1839e+01	11.2184	65.882018	0.000527	5.270863	1.785817	-0.000211
 724	7.1939e+01	11.1687	65.744755	0.000345	3.446333	1.167649	-0.000138
 725	7.2038e+01	11.1398	65.530787	0.000537	5.372226	1.820159	-0.000215
 726	7.2138e+01	11.0997	65.365265	0.000416	4.155873	1.408048	-0.000166
 727	7.2237e+01	11.0580	65.179556	0.000466	4.662686	1.579761	-0.000187
 728	7.2337e+01	11.0275	64.989811	0.000476	4.764049	1.614104	-0.000191
 729	7.2436e+01	10.9778	64.787954	0.000507	5.068137	1.717131	-0.000203
 730	7.2535e+01	10.9409	64.646655	0.000355	3.547696	1.201992	-0.000142
 731	7.2635e+01	10.9008	64.448835	0.000497	4.966775	1.682789	-0.000199
 732	7.2734e+01	10.8591	64.287349	0.000405	4.054510	1.373705	-0.000162
 733	7.2834e+01	10.8125	64.077418	0.000527	5.270863	1.785817	-0.000211
 734	7.2933e+01	10.7660	63.883636	0.000487	4.865412	1.648446	-0.000195
 735	7.3033e+01	10.7323	63.714076	0.000426	4.257235	1.442390	-0.000170
 736	7.3132e+01	10.7066	63.516257	0.000497	4.966775	1.682789	-0.000199
 737	7.3232e+01	10.6505	63.366883	0.000375	3.750422	1.270677	-0.000150
 738	7.3332e+01	10.6168	63.144840	0.000557	5.574951	1.888845	-0.000223
 739	7.3431e+01	10.5767	62.991429	0.000385	3.851784	1.305020	-0.000154
 740	7.3531e+01	10.5446	62.825906	0.000416	4.155873	1.408048	-0.000166
 741	7.3630e+01	10.4965	62.648272	0.000446	4.459961	1.511076	-0.000179
 742	7.3730e+01	10.4532	62.458527	0.000476	4.764049	1.614104	-0.000191
 743	7.3829e+01	10.4163	62.252633	0.000517	5.169500	1.751474	-0.000207
 744	7.3928e+01	10.3842	62.099222	0.000385	3.851784	1.305020	-0.000154
 745	7.4028e+01	10.3393	61.917551	0.000456	4.561324	1.545418	-0.000183
 746	7.4127e+01	10.2976	61.711657	0.000517	5.169500	1.751474	-0.000207
 747	7.4227e+01	10.2543	61.485577	0.000568	5.676314	1.923187	-0.000227
 748	7.4326e+01	10.2222	61.291795	0.000487	4.865412	1.648446	-0.000195
 749	7.4426e+01	10.1740	61.138384	0.000385	3.851784	1.305020	-0.000154
 750	7.4525e+01	10.1468	60.936527	0.000507	5.068137	1.717131	-0.000203
 751	7.4625e+01	10.1019	60.750819	0.000466	4.662686	1.579761	-0.000187
 752	7.4725e+01	10.0650	60.597407	0.000385	3.851784	1.305020	-0.000154
 753	7.4824e+01	10.0313	60.391514	0.000517	5.169500	1.751474	-0.000207
 754	7.4924e+01	9.9815	60.177545	0.000537	5.372226	1.820159	-0.000215
 755	7.5023e+01	9.9446	60.007986	0.000426	4.257235	1.442390	-0.000170
 756	7.5123e+01	9.8965	59.834389	0.000436	4.358598	1.476733	-0.000174
 757	7.5222e+01	9.8612	59.660792	0.000436	4.358598	1.476733	-0.000174
 758	7.5322e+01	9.8275	59.454898	0.000517	5.169500	1.751474	-0.000207
 759	7.5421e+01	9.7858	59.257078	0.000497	4.966775	1.682789	-0.000199
 760	7.5520e+01	9.7329	59.055222	0.000507	5.068137	1.717131	-0.000203
 761	7.5620e+01	9.7024	58.873550	0.000456	4.561324	1.545418	-0.000183
 762	7.5719e+01	9.6527	58.699954	0.000436	4.358598	1.476733	-0.000174
 763	7.5819e+01	9.6110	58.490023	0.000527	5.270863	1.785817	-0.000211
 764	7.5918e+01	9.5789	58.288166	0.000507	5.068137	1.717131	-0.000203
 765	7.6018e+01	9.5532	58.118606	0.000426	4.257235	1.442390	-0.000170
 766	7.6118e+01	9.5099	57.884452	0.000588	5.879039	1.991872	-0.000235
 767	7.6217e+01	9.4586	57.702781	0.000456	4.561324	1.545418	-0.000183
 768	7.6317e+01	9.4297	57.525147	0.000446	4.459961	1.511076	-0.000179
 769	7.6416e+01	9.3880	57.274845	0.000628	6.284490	2.129243	-0.000252
 770	7.6516e+01	9.3495	57.125471	0.000375	3.750422	1.270677	-0.000150
 771	7.6615e+01	9.3013	56.923614	0.000507	5.068137	1.717131	-0.000203
 772	7.6715e+01	9.2693	56.774240	0.000375	3.750422	1.270677	-0.000150
 773	7.6814e+01	9.2211	56.523937	0.000628	6.284490	2.129243	-0.000252
 774	7.6913e+01	9.1810	56.346303	0.000446	4.459961	1.511076	-0.000179
 775	7.7013e+01	9.1393	56.128298	0.000547	5.473588	1.854502	-0.000219
 776	7.7112e+01	9.1040	55.962776	0.000416	4.155873	1.408048	-0.000166
 777	7.7212e+01	9.0655	55.756882	0.000517	5.169500	1.751474	-0.000207
 778	7.7311e+01	9.0286	55.575211	0.000456	4.561324	1.545418	-0.000183
 779	7.7411e+01	8.9821	55.381428	0.000487	4.865412	1.648446	-0.000195
 780	7.7510e+01	8.9436	55.167460	0.000537	5.372226	1.820159	-0.000215
 781	7.7610e+01	8.9051	54.949455	0.000547	5.473588	1.854502	-0.000219
 782	7.7710e+01	8.8682	54.771821	0.000446	4.459961	1.511076	-0.000179
 783	7.7809e+01	8.8233	54.537667	0.000588	5.879039	1.991872	-0.000235
 784	7.7909e+01	8.7832	54.351958	0.000466	4.662686	1.579761	-0.000187
 785	7.8008e+01	8.7511	54.150102	0.000507	5.068137	1.717131	-0.000203
 786	7.8108e+01	8.6949	54.016876	0.000334	3.344971	1.133307	-0.000134
 787	7.8207e+01	8.6725	53.766574	0.000628	6.284490	2.129243	-0.000252
 788	7.8306e+01	8.6308	53.536457	0.000578	5.777677	1.957530	-0.000231
 789	7.8406e+01	8.5875	53.322489	0.000537	5.372226	1.820159	-0.000215
 790	7.8505e+01	8.5538	53.156966	0.000416	4.155873	1.408048	-0.000166
 791	7.8605e+01	8.4992	52.959147	0.000497	4.966775	1.682789	-0.000199
 792	7.8704e+01	8.4703	52.745178	0.000537	5.372226	1.820159	-0.000215
 793	7.8804e+01	8.4286	52.539284	0.000517	5.169500	1.751474	-0.000207
 794	7.8903e+01	8.3917	52.373762	0.000416	4.155873	1.408048	-0.000166
 795	7.9003e+01	8.3452	52.127497	0.000618	6.183128	2.094900	-0.000248
 796	7.9103e+01	8.3115	51.933714	0.000487	4.865412	1.648446	-0.000195
 797	7.9202e+01	8.2714	51.743969	0.000476	4.764049	1.614104	-0.000191
 798	7.9302e+01	8.2233	51.501741	0.000608	6.081765	2.060558	-0.000243
 799	7.9401e+01	8.1896	51.332181	0.000426	4.257235	1.442390	-0.000170
 800	7.9501e+01	8.1447	51.106101	0.000568	5.676314	1.923187	-0.000227
 801	7.9600e+01	8.1046	50.888096	0.000547	5.473588	1.854502	-0.000219
 802	7.9700e+01	8.0725	50.694313	0.000487	4.865412	1.648446	-0.000195
 803	7.9799e+01	8.0372	50.544939	0.000375	3.750422	1.270677	-0.000150
 804	7.9898e+01	7.9923	50.278488	0.000669	6.689941	2.266613	-0.000268
 805	7.9998e+01	7.9538	50.096817	0.000456	4.561324	1.545418	-0.000183
 806	8.0097e+01	7.9121	49.882849	0.000537	5.372226	1.820159	-0.000215
 807	8.0197e+01	7.8656	49.680992	0.000507	5.068137	1.717131	-0.000203
 808	8.0296e+01	7.8367	49.438764	0.000608	6.081765	2.060558	-0.000243
 809	8.0396e+01	7.7805	49.244982	0.000487	4.865412	1.648446	-0.000195
 810	8.0496e+01	7.7452	49.063311	0.000456	4.561324	1.545418	-0.000183
 811	8.0595e+01	7.7019	48.865491	0.000497	4.966775	1.682789	-0.000199
 812	8.0695e+01	7.6666	48.651523	0.000537	5.372226	1.820159	-0.000215
 813	8.0794e+01	7.6281	48.437555	0.000537	5.372226	1.820159	-0.000215
 814	8.0894e+01	7.5880	48.231661	0.000517	5.169500	1.751474	-0.000207
 815	8.0993e+01	7.5479	48.017692	0.000537	5.372226	1.820159	-0.000215
 816	8.1093e+01	7.5030	47.795650	0.000557	5.574951	1.888845	-0.000223
 817	8.1192e+01	7.4757	47.573608	0.000557	5.574951	1.888845	-0.000223
 818	8.1291e+01	7.4356	47.355602	0.000547	5.473588	1.854502	-0.000219
 819	8.1391e+01	7.3859	47.149708	0.000517	5.169500	1.751474	-0.000207
 820	8.1490e+01	7.3506	46.947851	0.000507	5.068137	1.717131	-0.000203
 821	8.1590e+01	7.3089	46.774255	0.000436	4.358598	1.476733	-0.000174
 822	8.1689e+01	7.2704	46.544138	0.000578	5.777677	1.957530	-0.000231
 823	8.1789e+01	7.2303	46.342281	0.000507	5.068137	1.717131	-0.000203
 824	8.1888e+01	7.1886	46.116202	0.000568	5.676314	1.923187	-0.000227
 825	8.1988e+01	7.1485	45.894159	0.000557	5.574951	1.888845	-0.000223
 826	8.2088e+01	7.1180	45.643857	0.000628	6.284490	2.129243	-0.000252
 827	8.2187e+01	7.0666	45.446037	0.000497	4.966775	1.682789	-0.000199
 828	8.2287e+01	7.0265	45.284552	0.000405	4.054510	1.373705	-0.000162
 829	8.2386e+01	6.9912	45.078658	0.000517	5.169500	1.751474	-0.000207
 830	8.2486e+01	6.9560	44.804132	0.000689	6.892667	2.335299	-0.000276
 831	8.2585e+01	6.9158	44.602276	0.000507	5.068137	1.717131	-0.000203
 832	8.2684e+01	6.8725	44.432716	0.000426	4.257235	1.442390	-0.000170
 833	8.2784e+01	6.8340	44.146079	0.000720	7.196755	2.438327	-0.000288
 834	8.2883e+01	6.7907	43.984594	0.000405	4.054510	1.373705	-0.000162
 835	8.2983e+01	6.7490	43.746403	0.000598	5.980402	2.026215	-0.000239
 836	8.3082e+01	6.7073	43.552620	0.000487	4.865412	1.648446	-0.000195
 837	8.3182e+01	6.6720	43.294244	0.000649	6.487216	2.197928	-0.000260
 838	8.3281e+01	6.6351	43.108535	0.000466	4.662686	1.579761	-0.000187
 839	8.3381e+01	6.5854	42.910716	0.000497	4.966775	1.682789	-0.000199
 840	8.3481e+01	6.5613	42.672525	0.000598	5.980402	2.026215	-0.000239
 841	8.3580e+01	6.5100	42.462594	0.000527	5.270863	1.785817	-0.000211
 842	8.3680e+01	6.4699	42.280923	0.000456	4.561324	1.545418	-0.000183
 843	8.3779e+01	6.4314	42.075029	0.000517	5.169500	1.751474	-0.000207
 844	8.3879e+01	6.3993	41.820689	0.000639	6.385853	2.163586	-0.000256
 845	8.3978e+01	6.3640	41.618832	0.000507	5.068137	1.717131	-0.000203
 846	8.4078e+01	6.3062	41.421013	0.000497	4.966775	1.682789	-0.000199
 847	8.4177e+01	6.2774	41.207044	0.000537	5.372226	1.820159	-0.000215
 848	8.4276e+01	6.2357	41.005188	0.000507	5.068137	1.717131	-0.000203
 849	8.4376e+01	6.2004	40.771034	0.000588	5.879039	1.991872	-0.000235
 850	8.4475e+01	6.1603	40.540917	0.000578	5.777677	1.957530	-0.000231
 851	8.4575e+01	6.1282	40.383469	0.000395	3.953147	1.339363	-0.000158
 852	8.4674e+01	6.0720	40.137204	0.000618	6.183128	2.094900	-0.000248
 853	8.4774e+01	6.0335	39.886901	0.000628	6.284490	2.129243	-0.000252
 854	8.4874e+01	5.9918	39.705230	0.000456	4.561324	1.545418	-0.000183
 855	8.4973e+01	5.9597	39.467039	0.000598	5.980402	2.026215	-0.000239
 856	8.5073e+01	5.9196	39.253071	0.000537	5.372226	1.820159	-0.000215
 857	8.5172e+01	5.8795	39.055251	0.000497	4.966775	1.682789	-0.000199
 858	8.5272e+01	5.8394	38.837246	0.000547	5.473588	1.854502	-0.000219
 859	8.5371e+01	5.7961	38.639426	0.000497	4.966775	1.682789	-0.000199
 860	8.5471e+01	5.7592	38.417384	0.000557	5.574951	1.888845	-0.000223
 861	8.5570e+01	5.7159	38.179193	0.000598	5.980402	2.026215	-0.000239
 862	8.5669e+01	5.6870	37.924853	0.000639	6.385853	2.163586	-0.000256
 863	8.5769e+01	5.6373	37.775479	0.000375	3.750422	1.270677	-0.000150
 864	8.5868e+01	5.5924	37.500954	0.000689	6.892667	2.335299	-0.000276
 865	8.5968e+01	5.5506	37.351580	0.000375	3.750422	1.270677	-0.000150
 866	8.6067e+01	5.5202	37.113389	0.000598	5.980402	2.026215	-0.000239
 867	8.6167e+01	5.4801	36.923643	0.000476	4.764049	1.614104	-0.000191
 868	8.6266e+01	5.4303	36.649118	0.000689	6.892667	2.335299	-0.000276
 869	8.6366e+01	5.3966	36.459373	0.000476	4.764049	1.614104	-0.000191
 870	8.6466e+01	5.3565	36.249442	0.000527	5.270863	1.785817	-0.000211
 871	8.6565e+01	5.3196	36.051622	0.000497	4.966775	1.682789	-0.000199
 872	8.6665e+01	5.2843	35.825543	0.000568	5.676314	1.923187	-0.000227
 873	8.6764e+01	5.2442	35.571203	0.000639	6.385853	2.163586	-0.000256
 874	8.6864e+01	5.2009	35.341086	0.000578	5.777677	1.957530	-0.000231
 875	8.6963e+01	5.1560	35.143267	0.000497	4.966775	1.682789	-0.000199
 876	8.7063e+01	5.1191	34.937373	0.000517	5.169500	1.751474	-0.000207
 877	8.7162e+01	5.0822	34.715330	0.000557	5.574951	1.888845	-0.000223
 878	8.7261e+01	5.0357	34.533659	0.000456	4.561324	1.545418	-0.000183
 879	8.7361e+01	5.0020	34.275282	0.000649	6.487216	2.197928	-0.000260
 880	8.7460e+01	4.9587	34.053240	0.000557	5.574951	1.888845	-0.000223
 881	8.7560e+01	4.9138	33.802938	0.000628	6.284490	2.129243	-0.000252
 882	8.7659e+01	4.8785	33.681823	0.000304	3.040882	1.030279	-0.000122
 883	8.7759e+01	4.8368	33.399224	0.000710	7.095392	2.403984	-0.000284
 884	8.7859e+01	4.8079	33.193330	0.000517	5.169500	1.751474	-0.000207
 885	8.7958e+01	4.7614	32.951102	0.000608	6.081765	2.060558	-0.000243
 886	8.8058e+01	4.7293	32.733097	0.000547	5.473588	1.854502	-0.000219
 887	8.8157e+01	4.6828	32.523166	0.000527	5.270863	1.785817	-0.000211
 888	8.8257e+01	4.6475	32.284974	0.000598	5.980402	2.026215	-0.000239
 889	8.8356e+01	4.5993	32.075043	0.000527	5.270863	1.785817	-0.000211
 890	8.8456e+01	4.5528	31.848964	0.000568	5.676314	1.923187	-0.000227
 891	8.8555e+01	4.5223	31.651144	0.000497	4.966775	1.682789	-0.000199
 892	8.8654e+01	4.4806	31.400842	0.000628	6.284490	2.129243	-0.000252
 893	8.8754e+01	4.4437	31.166688	0.000588	5.879039	1.991872	-0.000235
 894	8.8853e+01	4.4036	30.948683	0.000547	5.473588	1.854502	-0.000219
 895	8.8953e+01	4.3699	30.758937	0.000476	4.764049	1.614104	-0.000191
 896	8.9052e+01	4.3250	30.536895	0.000557	5.574951	1.888845	-0.000223
 897	8.9152e+01	4.2833	30.314852	0.000557	5.574951	1.888845	-0.000223
 898	8.9251e+01	4.2512	30.108958	0.000517	5.169500	1.751474	-0.000207
 899	8.9351e+01	4.2031	29.866730	0.000608	6.081765	2.060558	-0.000243
 900	8.9451e+01	4.1598	29.620465	0.000618	6.183128	2.094900	-0.000248
 901	8.9550e+01	4.1277	29.442831	0.000446	4.459961	1.511076	-0.000179
 902	8.9650e+01	4.0876	29.184454	0.000649	6.487216	2.197928	-0.000260
 903	8.9749e+01	4.0507	29.002783	0.000456	4.561324	1.545418	-0.000183
 904	8.9849e+01	4.0074	28.772666	0.000578	5.777677	1.957530	-0.000231
 905	8.9948e+01	3.9576	28.562735	0.000527	5.270863	1.785817	-0.000211
 906	9.0047e+01	3.9320	28.328581	0.000588	5.879039	1.991872	-0.000235
 907	9.0147e+01	3.8871	28.114613	0.000537	5.372226	1.820159	-0.000215
 908	9.0246e+01	3.8550	27.827977	0.000720	7.196755	2.438327	-0.000288
 909	9.0346e+01	3.8068	27.646306	0.000456	4.561324	1.545418	-0.000183
 910	9.0445e+01	3.7683	27.452523	0.000487	4.865412	1.648446	-0.000195
 911	9.0545e+01	3.7218	27.206258	0.000618	6.183128	2.094900	-0.000248
 912	9.0644e+01	3.6801	26.968067	0.000598	5.980402	2.026215	-0.000239
 913	9.0744e+01	3.6464	26.770247	0.000497	4.966775	1.682789	-0.000199
 914	9.0844e+01	3.6079	26.548205	0.000557	5.574951	1.888845	-0.000223
 915	9.0943e+01	3.5630	26.310014	0.000598	5.980402	2.026215	-0.000239
 916	9.1043e+01	3.5213	26.092008	0.000547	5.473588	1.854502	-0.000219
 917	9.1142e+01	3.4892	25.857854	0.000588	5.879039	1.991872	-0.000235
 918	9.1242e+01	3.4507	25.651960	0.000517	5.169500	1.751474	-0.000207
 919	9.1341e+01	3.4074	25.401658	0.000628	6.284490	2.129243	-0.000252
 920	9.1441e+01	3.3689	25.171541	0.000578	5.777677	1.957530	-0.000231
 921	9.1540e+01	3.3288	24.965647	0.000517	5.169500	1.751474	-0.000207
 922	9.1639e+01	3.2807	24.711308	0.000639	6.385853	2.163586	-0.000256
 923	9.1739e+01	3.2470	24.489265	0.000557	5.574951	1.888845	-0.000223
 924	9.1838e+01	3.2037	24.271260	0.000547	5.473588	1.854502	-0.000219
 925	9.1938e+01	3.1716	24.073440	0.000497	4.966775	1.682789	-0.000199
 926	9.2037e+01	3.1315	23.851398	0.000557	5.574951	1.888845	-0.000223
 927	9.2137e+01	3.0898	23.580910	0.000679	6.791304	2.300956	-0.000272
 928	9.2237e+01	3.0545	23.370979	0.000527	5.270863	1.785817	-0.000211
 929	9.2336e+01	3.0079	23.132788	0.000598	5.980402	2.026215	-0.000239
 930	9.2436e+01	2.9646	22.890560	0.000608	6.081765	2.060558	-0.000243
 931	9.2535e+01	2.9309	22.640257	0.000628	6.284490	2.129243	-0.000252
 932	9.2635e+01	2.8812	22.434363	0.000517	5.169500	1.751474	-0.000207
 933	9.2734e+01	2.8443	22.159838	0.000689	6.892667	2.335299	-0.000276
 934	9.2834e+01	2.8058	21.970093	0.000476	4.764049	1.614104	-0.000191
 935	9.2933e+01	2.7705	21.739976	0.000578	5.777677	1.957530	-0.000231
 936	9.3032e+01	2.7320	21.513896	0.000568	5.676314	1.923187	-0.000227
 937	9.3132e+01	2.6935	21.251483	0.000659	6.588579	2.232271	-0.000264
 938	9.3231e+01	2.6454	21.021366	0.000578	5.777677	1.957530	-0.000231
 939	9.3331e+01	2.6085	20.811435	0.000527	5.270863	1.785817	-0.000211
 940	9.3430e+01	2.5732	20.544984	0.000669	6.689941	2.266613	-0.000268
 941	9.3530e+01	2.5235	20.343127	0.000507	5.068137	1.717131	-0.000203
 942	9.3629e+01	2.4962	20.100899	0.000608	6.081765	2.060558	-0.000243
 943	9.3729e+01	2.4416	19.850596	0.000628	6.284490	2.129243	-0.000252
 944	9.3829e+01	2.4096	19.628554	0.000557	5.574951	1.888845	-0.000223
 945	9.3928e+01	2.3678	19.398437	0.000578	5.777677	1.957530	-0.000231
 946	9.4028e+01	2.3245	19.156209	0.000608	6.081765	2.060558	-0.000243
 947	9.4127e+01	2.2908	18.889758	0.000669	6.689941	2.266613	-0.000268
 948	9.4227e+01	2.2572	18.704050	0.000466	4.662686	1.579761	-0.000187
 949	9.4326e+01	2.2026	18.437599	0.000669	6.689941	2.266613	-0.000268
 950	9.4425e+01	2.1737	18.183259	0.000639	6.385853	2.163586	-0.000256
 951	9.4525e+01	2.1240	17.932957	0.000628	6.284490	2.129243	-0.000252
 952	9.4624e+01	2.0839	17.694766	0.000598	5.980402	2.026215	-0.000239
 953	9.4724e+01	2.0454	17.464649	0.000578	5.777677	1.957530	-0.000231
 954	9.4823e+01	2.0149	17.246644	0.000547	5.473588	1.854502	-0.000219
 955	9.4923e+01	1.9764	16.996341	0.000628	6.284490	2.129243	-0.000252
 956	9.5022e+01	1.9283	16.733928	0.000659	6.588579	2.232271	-0.000264
 957	9.5122e+01	1.8930	16.523997	0.000527	5.270863	1.785817	-0.000211
 958	9.5222e+01	1.8593	16.265620	0.000649	6.487216	2.197928	-0.000260
 959	9.5321e+01	1.8112	16.035503	0.000578	5.777677	1.957530	-0.000231
 960	9.5421e+01	1.7695	15.805386	0.000578	5.777677	1.957530	-0.000231
 961	9.5520e+01	1.7229	15.575270	0.000578	5.777677	1.957530	-0.000231
 962	9.5620e+01	1.6925	15.292670	0.000710	7.095392	2.403984	-0.000284
 963	9.5719e+01	1.6508	15.078702	0.000537	5.372226	1.820159	-0.000215
 964	9.5819e+01	1.6090	14.796102	0.000710	7.095392	2.403984	-0.000284
 965	9.5918e+01	1.5802	14.602320	0.000487	4.865412	1.648446	-0.000195
 966	9.6017e+01	1.5336	14.331832	0.000679	6.791304	2.300956	-0.000272
 967	9.6117e+01	1.4919	14.105752	0.000568	5.676314	1.923187	-0.000227
 968	9.6216e+01	1.4486	13.871598	0.000588	5.879039	1.991872	-0.000235
 969	9.6316e+01	1.4133	13.605147	0.000669	6.689941	2.266613	-0.000268
 970	9.6415e+01	1.3748	13.379068	0.000568	5.676314	1.923187	-0.000227
 971	9.6515e+01	1.3299	13.140877	0.000598	5.980402	2.026215	-0.000239
 972	9.6615e+01	1.2882	12.866352	0.000689	6.892667	2.335299	-0.000276
 973	9.6714e+01	1.2545	12.664495	0.000507	5.068137	1.717131	-0.000203
 974	9.6814e+01	1.2112	12.398044	0.000669	6.689941	2.266613	-0.000268
 975	9.6913e+01	1.1759	12.163890	0.000588	5.879039	1.991872	-0.000235
 976	9.7013e+01	1.1262	11.945885	0.000547	5.473588	1.854502	-0.000219
 977	9.7112e+01	1.0893	11.663285	0.000710	7.095392	2.403984	-0.000284
 978	9.7212e+01	1.0508	11.441243	0.000557	5.574951	1.888845	-0.000223
 979	9.7311e+01	1.0123	11.186903	0.000639	6.385853	2.163586	-0.000256
 980	9.7410e+01	0.9690	10.928526	0.000649	6.487216	2.197928	-0.000260
 981	9.7510e+01	0.9337	10.690335	0.000598	5.980402	2.026215	-0.000239
 982	9.7609e+01	0.8968	10.427922	0.000659	6.588579	2.232271	-0.000264
 983	9.7709e+01	0.8551	10.205879	0.000557	5.574951	1.888845	-0.000223
 984	9.7808e+01	0.8133	9.963651	0.000608	6.081765	2.060558	-0.000243
 985	9.7908e+01	0.7781	9.705274	0.000649	6.487216	2.197928	-0.000260
 986	9.8007e+01	0.7251	9.446898	0.000649	6.487216	2.197928	-0.000260
 987	9.8107e+01	0.6882	9.192558	0.000639	6.385853	2.163586	-0.000256
 988	9.8207e+01	0.6625	8.958404	0.000588	5.879039	1.991872	-0.000235
 989	9.8306e+01	0.6176	8.700028	0.000649	6.487216	2.197928	-0.000260
 990	9.8406e+01	0.5711	8.441651	0.000649	6.487216	2.197928	-0.000260
 991	9.8505e+01	0.5374	8.199423	0.000608	6.081765	2.060558	-0.000243
 992	9.8605e+01	0.4957	7.961232	0.000598	5.980402	2.026215	-0.000239
 993	9.8704e+01	0.4556	7.674595	0.000720	7.196755	2.438327	-0.000288
 994	9.8803e+01	0.4251	7.448515	0.000568	5.676314	1.923187	-0.000227
 995	9.8903e+01	0.3802	7.182064	0.000669	6.689941	2.266613	-0.000268
 996	9.9002e+01	0.3353	6.919651	0.000659	6.588579	2.232271	-0.000264
 997	9.9102e+01	0.2984	6.669348	0.000628	6.284490	2.129243	-0.000252
 998	9.9201e+01	0.2535	6.419046	0.000628	6.284490	2.129243	-0.000252
 999	9.9301e+01	0.2166	6.213152	0.000517	5.169500	1.751474	-0.000207
1000	9.9400e+01	0.1717	5.926515	0.000720	7.196755	2.438327	-0.000288
1001	9.9500e+01	0.1396	5.728696	0.000497	4.966775	1.682789	-0.000199
1002	9.9600e+01	0.1027	5.454170	0.000689	6.892667	2.335299	-0.000276
1003	9.9699e+01	0.0561	5.187719	0.000669	6.689941	2.266613	-0.000268
1004	9.9799e+01	0.0257	4.973751	0.000537	5.372226	1.820159	-0.000215
1005	9.9898e+01	-0.0144	4.711337	0.000659	6.588579	2.232271	-0.000264
1006	9.9998e+01	-0.0626	4.448924	0.000659	6.588579	2.232271	-0.000264
1007	1.0010e+02	-0.0898	4.267252	0.000456	4.561324	1.545418	-0.000183
1008	1.0020e+02	-0.1332	3.980616	0.000720	7.196755	2.438327	-0.000288
1009	1.0030e+02	-0.1845	3.726276	0.000639	6.385853	2.163586	-0.000256
1010	1.0040e+02	-0.2102	3.504234	0.000557	5.574951	1.888845	-0.000223
1011	1.0050e+02	-0.2551	3.237783	0.000669	6.689941	2.266613	-0.000268
1012	1.0059e+02	-0.3016	3.023815	0.000537	5.372226	1.820159	-0.000215
1013	1.0069e+02	-0.3353	2.696807	0.000821	8.210383	2.781753	-0.000329
1014	1.0079e+02	-0.3722	2.503024	0.000487	4.865412	1.648446	-0.000195
1015	1.0089e+02	-0.4123	2.252722	0.000628	6.284490	2.129243	-0.000252
1016	1.0099e+02	-0.4604	1.953974	0.000750	7.500843	2.541355	-0.000300
1017	1.0109e+02	-0.4909	1.760191	0.000487	4.865412	1.648446	-0.000195
1018	1.0119e+02	-0.5342	1.501814	0.000649	6.487216	2.197928	-0.000260
1019	1.0129e+02	-0.5663	1.255549	0.000618	6.183128	2.094900	-0.000248
1020	1.0139e+02	-0.6096	1.013321	0.000608	6.081765	2.060558	-0.000243
1021	1.0149e+02	-0.6529	0.783204	0.000578	5.777677	1.957530	-0.000231
1022	1.0159e+02	-0.6866	0.488493	0.000740	7.399481	2.507012	-0.000296
1023	1.0169e+02	-0.7267	0.278562	0.000527	5.270863	1.785817	-0.000211
1024	1.0179e+02	-0.7652	-0.004037	0.000710	7.095392	2.403984	-0.000284
1025	1.0189e+02	-0.8117	-0.222042	0.000547	5.473588	1.854502	-0.000219
1026	1.0199e+02	-0.8535	-0.500605	0.000699	6.994030	2.369641	-0.000280
1027	1.0209e+02	-0.8839	-0.718610	0.000547	5.473588	1.854502	-0.000219
1028	1.0219e+02	-0.9321	-0.952764	0.000588	5.879039	1.991872	-0.000235
1029	1.0229e+02	-0.9657	-1.199029	0.000618	6.183128	2.094900	-0.000248
1030	1.0239e+02	-1.0139	-1.465480	0.000669	6.689941	2.266613	-0.000268
1031	1.0248e+02	-1.0492	-1.691560	0.000568	5.676314	1.923187	-0.000227
1032	1.0258e+02	-1.0957	-1.937825	0.000618	6.183128	2.094900	-0.000248
1033	1.0268e+02	-1.1262	-2.192165	0.000639	6.385853	2.163586	-0.000256
1034	1.0278e+02	-1.1679	-2.450541	0.000649	6.487216	2.197928	-0.000260
1035	1.0288e+02	-1.2064	-2.729104	0.000699	6.994030	2.369641	-0.000280
1036	1.0298e+02	-1.2481	-2.918849	0.000476	4.764049	1.614104	-0.000191
1037	1.0308e+02	-1.2962	-3.189337	0.000679	6.791304	2.300956	-0.000272
1038	1.0318e+02	-1.3283	-3.411380	0.000557	5.574951	1.888845	-0.000223
1039	1.0328e+02	-1.3732	-3.649571	0.000598	5.980402	2.026215	-0.000239
1040	1.0338e+02	-1.4053	-3.952356	0.000760	7.602206	2.575697	-0.000304
1041	1.0348e+02	-1.4518	-4.178435	0.000568	5.676314	1.923187	-0.000227
1042	1.0358e+02	-1.4823	-4.376255	0.000497	4.966775	1.682789	-0.000199
1043	1.0368e+02	-1.5256	-4.666929	0.000730	7.298118	2.472669	-0.000292
1044	1.0378e+02	-1.5641	-4.893009	0.000568	5.676314	1.923187	-0.000227
1045	1.0388e+02	-1.6123	-5.131200	0.000598	5.980402	2.026215	-0.000239
1046	1.0398e+02	-1.6604	-5.393613	0.000659	6.588579	2.232271	-0.000264
1047	1.0408e+02	-1.6973	-5.611619	0.000547	5.473588	1.854502	-0.000219
1048	1.0418e+02	-1.7342	-5.890181	0.000699	6.994030	2.369641	-0.000280
1049	1.0428e+02	-1.7647	-6.120298	0.000578	5.777677	1.957530	-0.000231
1050	1.0438e+02	-1.8128	-6.334266	0.000537	5.372226	1.820159	-0.000215
1051	1.0447e+02	-1.8481	-6.592643	0.000649	6.487216	2.197928	-0.000260
1052	1.0457e+02	-1.8850	-6.826797	0.000588	5.879039	1.991872	-0.000235
1053	1.0467e+02	-1.9203	-7.069025	0.000608	6.081765	2.060558	-0.000243
1054	1.0477e+02	-1.9652	-7.323364	0.000639	6.385853	2.163586	-0.000256
1055	1.0487e+02	-2.0021	-7.569630	0.000618	6.183128	2.094900	-0.000248
1056	1.0497e+02	-2.0422	-7.840118	0.000679	6.791304	2.300956	-0.000272
1057	1.0507e+02	-2.0839	-8.066197	0.000568	5.676314	1.923187	-0.000227
1058	1.0517e+02	-2.1240	-8.276128	0.000527	5.270863	1.785817	-0.000211
1059	1.0527e+02	-2.1641	-8.542579	0.000669	6.689941	2.266613	-0.000268
1060	1.0537e+02	-2.2154	-8.800956	0.000649	6.487216	2.197928	-0.000260
1061	1.0547e+02	-2.2539	-8.986664	0.000466	4.662686	1.579761	-0.000187
1062	1.0557e+02	-2.2844	-9.249078	0.000659	6.588579	2.232271	-0.000264
1063	1.0567e+02	-2.3229	-9.519566	0.000679	6.791304	2.300956	-0.000272
1064	1.0577e+02	-2.3630	-9.701237	0.000456	4.561324	1.545418	-0.000183
1065	1.0587e+02	-2.4031	-9.947502	0.000618	6.183128	2.094900	-0.000248
1066	1.0597e+02	-2.4497	-10.213953	0.000669	6.689941	2.266613	-0.000268
1067	1.0607e+02	-2.4930	-10.407736	0.000487	4.865412	1.648446	-0.000195
1068	1.0617e+02	-2.5186	-10.658038	0.000628	6.284490	2.129243	-0.000252
1069	1.0627e+02	-2.5652	-10.928526	0.000679	6.791304	2.300956	-0.000272
1070	1.0637e+02	-2.6069	-11.150569	0.000557	5.574951	1.888845	-0.000223
1071	1.0647e+02	-2.6486	-11.360500	0.000527	5.270863	1.785817	-0.000211
1072	1.0656e+02	-2.6807	-11.626951	0.000669	6.689941	2.266613	-0.000268
1073	1.0666e+02	-2.7256	-11.861105	0.000588	5.879039	1.991872	-0.000235
1074	1.0676e+02	-2.7609	-12.099296	0.000598	5.980402	2.026215	-0.000239
1075	1.0686e+02	-2.8042	-12.341524	0.000608	6.081765	2.060558	-0.000243
1076	1.0696e+02	-2.8491	-12.547418	0.000517	5.169500	1.751474	-0.000207
1077	1.0706e+02	-2.8780	-12.797720	0.000628	6.284490	2.129243	-0.000252
1078	1.0716e+02	-2.9165	-13.019763	0.000557	5.574951	1.888845	-0.000223
1079	1.0726e+02	-2.9646	-13.282177	0.000659	6.588579	2.232271	-0.000264
1080	1.0736e+02	-2.9967	-13.492108	0.000527	5.270863	1.785817	-0.000211
1081	1.0746e+02	-3.0416	-13.738373	0.000618	6.183128	2.094900	-0.000248
1082	1.0756e+02	-3.0737	-14.000787	0.000659	6.588579	2.232271	-0.000264
1083	1.0766e+02	-3.1250	-14.222829	0.000557	5.574951	1.888845	-0.000223
1084	1.0776e+02	-3.1603	-14.440835	0.000547	5.473588	1.854502	-0.000219
1085	1.0786e+02	-3.2085	-14.658840	0.000547	5.473588	1.854502	-0.000219
1086	1.0796e+02	-3.2454	-14.876845	0.000547	5.473588	1.854502	-0.000219
1087	1.0806e+02	-3.2839	-15.127148	0.000628	6.284490	2.129243	-0.000252
1088	1.0816e+02	-3.3192	-15.373413	0.000618	6.183128	2.094900	-0.000248
1089	1.0826e+02	-3.3705	-15.603530	0.000578	5.777677	1.957530	-0.000231
1090	1.0836e+02	-3.4042	-15.841721	0.000598	5.980402	2.026215	-0.000239
1091	1.0845e+02	-3.4411	-16.055689	0.000537	5.372226	1.820159	-0.000215
1092	1.0855e+02	-3.4732	-16.273694	0.000547	5.473588	1.854502	-0.000219
1093	1.0865e+02	-3.5149	-16.523997	0.000628	6.284490	2.129243	-0.000252
1094	1.0875e+02	-3.5694	-16.762188	0.000598	5.980402	2.026215	-0.000239
1095	1.0885e+02	-3.5999	-17.008453	0.000618	6.183128	2.094900	-0.000248
1096	1.0895e+02	-3.6400	-17.262792	0.000639	6.385853	2.163586	-0.000256
1097	1.0905e+02	-3.6833	-17.472723	0.000527	5.270863	1.785817	-0.000211
1098	1.0915e+02	-3.7234	-17.698803	0.000568	5.676314	1.923187	-0.000227
1099	1.0925e+02	-3.7571	-17.973328	0.000689	6.892667	2.335299	-0.000276
1100	1.0935e+02	-3.7972	-18.171148	0.000497	4.966775	1.682789	-0.000199
1101	1.0945e+02	-3.8421	-18.401265	0.000578	5.777677	1.957530	-0.000231
1102	1.0955e+02	-3.8742	-18.623307	0.000557	5.574951	1.888845	-0.000223
1103	1.0965e+02	-3.9207	-18.829201	0.000517	5.169500	1.751474	-0.000207
1104	1.0975e+02	-3.9657	-19.067392	0.000598	5.980402	2.026215	-0.000239
1105	1.0985e+02	-3.9929	-19.277323	0.000527	5.270863	1.785817	-0.000211
1106	1.0995e+02	-4.0411	-19.576071	0.000750	7.500843	2.541355	-0.000300
1107	1.1005e+02	-4.0715	-19.773891	0.000497	4.966775	1.682789	-0.000199
1108	1.1015e+02	-4.1213	-20.020156	0.000618	6.183128	2.094900	-0.000248
1109	1.1025e+02	-4.1614	-20.266421	0.000618	6.183128	2.094900	-0.000248
1110	1.1035e+02	-4.1951	-20.472315	0.000517	5.169500	1.751474	-0.000207
1111	1.1044e+02	-4.2400	-20.694358	0.000557	5.574951	1.888845	-0.000223
1112	1.1054e+02	-4.2881	-20.928512	0.000588	5.879039	1.991872	-0.000235
1113	1.1064e+02	-4.3154	-21.166703	0.000598	5.980402	2.026215	-0.000239
1114	1.1074e+02	-4.3651	-21.380671	0.000537	5.372226	1.820159	-0.000215
1115	1.1084e+02	-4.3956	-21.590602	0.000527	5.270863	1.785817	-0.000211
1116	1.1094e+02	-4.4453	-21.832830	0.000608	6.081765	2.060558	-0.000243
1117	1.1104e+02	-4.4870	-22.095244	0.000659	6.588579	2.232271	-0.000264
1118	1.1114e+02	-4.5191	-22.321323	0.000568	5.676314	1.923187	-0.000227
1119	1.1124e+02	-4.5448	-22.579700	0.000649	6.487216	2.197928	-0.000260
1120	1.1134e+02	-4.5945	-22.773483	0.000487	4.865412	1.648446	-0.000195
1121	1.1144e+02	-4.6330	-23.019748	0.000618	6.183128	2.094900	-0.000248
1122	1.1154e+02	-4.6779	-23.221605	0.000507	5.068137	1.717131	-0.000203
1123	1.1164e+02	-4.7213	-23.488056	0.000669	6.689941	2.266613	-0.000268
1124	1.1174e+02	-4.7517	-23.657615	0.000426	4.257235	1.442390	-0.000170
1125	1.1184e+02	-4.7934	-23.907918	0.000628	6.284490	2.129243	-0.000252
1126	1.1194e+02	-4.8319	-24.146109	0.000598	5.980402	2.026215	-0.000239
1127	1.1204e+02	-4.8817	-24.331817	0.000466	4.662686	1.579761	-0.000187
1128	1.1214e+02	-4.9090	-24.582120	0.000628	6.284490	2.129243	-0.000252
1129	1.1224e+02	-4.9619	-24.816273	0.000588	5.879039	1.991872	-0.000235
1130	1.1234e+02	-4.9876	-25.014093	0.000497	4.966775	1.682789	-0.000199
1131	1.1244e+02	-5.0437	-25.296693	0.000710	7.095392	2.403984	-0.000284
1132	1.1253e+02	-5.0774	-25.498549	0.000507	5.068137	1.717131	-0.000203
1133	1.1263e+02	-5.1191	-25.736740	0.000598	5.980402	2.026215	-0.000239
1134	1.1273e+02	-5.1576	-25.930523	0.000487	4.865412	1.648446	-0.000195
1135	1.1283e+02	-5.1929	-26.120268	0.000476	4.764049	1.614104	-0.000191
1136	1.1293e+02	-5.2394	-26.374608	0.000639	6.385853	2.163586	-0.000256
1137	1.1303e+02	-5.2763	-26.616836	0.000608	6.081765	2.060558	-0.000243
1138	1.1313e+02	-5.3164	-26.834841	0.000547	5.473588	1.854502	-0.000219
1139	1.1323e+02	-5.3565	-27.081107	0.000618	6.183128	2.094900	-0.000248
1140	1.1333e+02	-5.3918	-27.303149	0.000557	5.574951	1.888845	-0.000223
1141	1.1343e+02	-5.4383	-27.488857	0.000466	4.662686	1.579761	-0.000187
1142	1.1353e+02	-5.4801	-27.727048	0.000598	5.980402	2.026215	-0.000239
1143	1.1363e+02	-5.5218	-27.961202	0.000588	5.879039	1.991872	-0.000235
1144	1.1373e+02	-5.5522	-28.175170	0.000537	5.372226	1.820159	-0.000215
1145	1.1383e+02	-5.5924	-28.409324	0.000588	5.879039	1.991872	-0.000235
1146	1.1393e+02	-5.6276	-28.631367	0.000557	5.574951	1.888845	-0.000223
1147	1.1403e+02	-5.6710	-28.825149	0.000487	4.865412	1.648446	-0.000195
1148	1.1413e+02	-5.7079	-29.083526	0.000649	6.487216	2.197928	-0.000260
1149	1.1423e+02	-5.7624	-29.321717	0.000598	5.980402	2.026215	-0.000239
1150	1.1433e+02	-5.7897	-29.471091	0.000375	3.750422	1.270677	-0.000150
1151	1.1442e+02	-5.8298	-29.753690	0.000710	7.095392	2.403984	-0.000284
1152	1.1452e+02	-5.8699	-29.983807	0.000578	5.777677	1.957530	-0.000231
1153	1.1462e+02	-5.9100	-30.185664	0.000507	5.068137	1.717131	-0.000203
1154	1.1472e+02	-5.9549	-30.431929	0.000618	6.183128	2.094900	-0.000248
1155	1.1482e+02	-5.9822	-30.629749	0.000497	4.966775	1.682789	-0.000199
1156	1.1492e+02	-6.0335	-30.847754	0.000547	5.473588	1.854502	-0.000219
1157	1.1502e+02	-6.0736	-31.102094	0.000639	6.385853	2.163586	-0.000256
1158	1.1512e+02	-6.1105	-31.312025	0.000527	5.270863	1.785817	-0.000211
1159	1.1522e+02	-6.1554	-31.530030	0.000547	5.473588	1.854502	-0.000219
1160	1.1532e+02	-6.1811	-31.739961	0.000527	5.270863	1.785817	-0.000211
1161	1.1542e+02	-6.2340	-32.002375	0.000659	6.588579	2.232271	-0.000264
1162	1.1552e+02	-6.2790	-32.244603	0.000608	6.081765	2.060558	-0.000243
1163	1.1562e+02	-6.3127	-32.414163	0.000426	4.257235	1.442390	-0.000170
1164	1.1572e+02	-6.3479	-32.680614	0.000669	6.689941	2.266613	-0.000268
1165	1.1582e+02	-6.3913	-32.894582	0.000537	5.372226	1.820159	-0.000215
1166	1.1592e+02	-6.4378	-33.104513	0.000527	5.270863	1.785817	-0.000211
1167	1.1602e+02	-6.4651	-33.294258	0.000476	4.764049	1.614104	-0.000191
1168	1.1612e+02	-6.5116	-33.496115	0.000507	5.068137	1.717131	-0.000203
1169	1.1622e+02	-6.5453	-33.718158	0.000557	5.574951	1.888845	-0.000223
1170	1.1632e+02	-6.5854	-33.960386	0.000608	6.081765	2.060558	-0.000243
1171	1.1642e+02	-6.6303	-34.194540	0.000588	5.879039	1.991872	-0.000235
1172	1.1651e+02	-6.6640	-34.388322	0.000487	4.865412	1.648446	-0.000195
1173	1.1661e+02	-6.7041	-34.622476	0.000588	5.879039	1.991872	-0.000235
1174	1.1671e+02	-6.7458	-34.832407	0.000527	5.270863	1.785817	-0.000211
1175	1.1681e+02	-6.7939	-35.038301	0.000517	5.169500	1.751474	-0.000207
1176	1.1691e+02	-6.8276	-35.268418	0.000578	5.777677	1.957530	-0.000231
1177	1.1701e+02	-6.8645	-35.470275	0.000507	5.068137	1.717131	-0.000203
1178	1.1711e+02	-6.9046	-35.716540	0.000618	6.183128	2.094900	-0.000248
1179	1.1721e+02	-6.9367	-35.910322	0.000487	4.865412	1.648446	-0.000195
1180	1.1731e+02	-6.9848	-36.116216	0.000517	5.169500	1.751474	-0.000207
1181	1.1741e+02	-7.0233	-36.338259	0.000557	5.574951	1.888845	-0.000223
1182	1.1751e+02	-7.0682	-36.560301	0.000557	5.574951	1.888845	-0.000223
1183	1.1761e+02	-7.0971	-36.741972	0.000456	4.561324	1.545418	-0.000183
1184	1.1771e+02	-7.1485	-36.955941	0.000537	5.372226	1.820159	-0.000215
1185	1.1781e+02	-7.1838	-37.165872	0.000527	5.270863	1.785817	-0.000211
1186	1.1791e+02	-7.2223	-37.400025	0.000588	5.879039	1.991872	-0.000235
1187	1.1801e+02	-7.2704	-37.650328	0.000628	6.284490	2.129243	-0.000252
1188	1.1811e+02	-7.3089	-37.791628	0.000355	3.547696	1.201992	-0.000142
1189	1.1821e+02	-7.3442	-38.054041	0.000659	6.588579	2.232271	-0.000264
1190	1.1831e+02	-7.3795	-38.243787	0.000476	4.764049	1.614104	-0.000191
1191	1.1841e+02	-7.4292	-38.469866	0.000568	5.676314	1.923187	-0.000227
1192	1.1850e+02	-7.4693	-38.675760	0.000517	5.169500	1.751474	-0.000207
1193	1.1860e+02	-7.5110	-38.869543	0.000487	4.865412	1.648446	-0.000195
1194	1.1870e+02	-7.5383	-39.127920	0.000649	6.487216	2.197928	-0.000260
1195	1.1880e+02	-7.5912	-39.333813	0.000517	5.169500	1.751474	-0.000207
1196	1.1890e+02	-7.6345	-39.495299	0.000405	4.054510	1.373705	-0.000162
1197	1.1900e+02	-7.6763	-39.709267	0.000537	5.372226	1.820159	-0.000215
1198	1.1910e+02	-7.7003	-39.935347	0.000568	5.676314	1.923187	-0.000227
1199	1.1920e+02	-7.7340	-40.165463	0.000578	5.777677	1.957530	-0.000231
1200	1.1930e+02	-7.7837	-40.351172	0.000466	4.662686	1.579761	-0.000187
1201	1.1940e+02	-7.8222	-40.561103	0.000527	5.270863	1.785817	-0.000211
1202	1.1950e+02	-7.8607	-40.726625	0.000416	4.155873	1.408048	-0.000166
1203	1.1960e+02	-7.9008	-40.940594	0.000537	5.372226	1.820159	-0.000215
1204	1.1970e+02	-7.9361	-41.170710	0.000578	5.777677	1.957530	-0.000231
1205	1.1980e+02	-7.9875	-41.356419	0.000466	4.662686	1.579761	-0.000187
1206	1.1990e+02	-8.0164	-41.586535	0.000578	5.777677	1.957530	-0.000231
1207	1.2000e+02	-8.0661	-41.804541	0.000547	5.473588	1.854502	-0.000219
1208	1.2010e+02	-8.0982	-41.957952	0.000385	3.851784	1.305020	-0.000154
1209	1.2020e+02	-8.1447	-42.155771	0.000497	4.966775	1.682789	-0.000199
1210	1.2030e+02	-8.1848	-42.422222	0.000669	6.689941	2.266613	-0.000268
1211	1.2039e+02	-8.2201	-42.611968	0.000476	4.764049	1.614104	-0.000191
1212	1.2049e+02	-8.2586	-42.793639	0.000456	4.561324	1.545418	-0.000183
1213	1.2059e+02	-8.2987	-43.015681	0.000557	5.574951	1.888845	-0.000223
1214	1.2069e+02	-8.3292	-43.233687	0.000547	5.473588	1.854502	-0.000219
1215	1.2079e+02	-8.3789	-43.439581	0.000517	5.169500	1.751474	-0.000207
1216	1.2089e+02	-8.4286	-43.633363	0.000487	4.865412	1.648446	-0.000195
1217	1.2099e+02	-8.4607	-43.831183	0.000497	4.966775	1.682789	-0.000199
1218	1.2109e+02	-8.4992	-44.061299	0.000578	5.777677	1.957530	-0.000231
1219	1.2119e+02	-8.5425	-44.251045	0.000476	4.764049	1.614104	-0.000191
1220	1.2129e+02	-8.5778	-44.473087	0.000557	5.574951	1.888845	-0.000223
1221	1.2139e+02	-8.6179	-44.670907	0.000497	4.966775	1.682789	-0.000199
1222	1.2149e+02	-8.6532	-44.868727	0.000497	4.966775	1.682789	-0.000199
1223	1.2159e+02	-8.6982	-45.082695	0.000537	5.372226	1.820159	-0.000215
1224	1.2169e+02	-8.7495	-45.276477	0.000487	4.865412	1.648446	-0.000195
1225	1.2179e+02	-8.7816	-45.466223	0.000476	4.764049	1.614104	-0.000191
1226	1.2189e+02	-8.8185	-45.700377	0.000588	5.879039	1.991872	-0.000235
1227	1.2199e+02	-8.8506	-45.906270	0.000517	5.169500	1.751474	-0.000207
1228	1.2209e+02	-8.8955	-46.104090	0.000497	4.966775	1.682789	-0.000199
1229	1.2219e+02	-8.9372	-46.253464	0.000375	3.750422	1.270677	-0.000150
1230	1.2229e+02	-8.9773	-46.479544	0.000568	5.676314	1.923187	-0.000227
1231	1.2239e+02	-9.0126	-46.661215	0.000456	4.561324	1.545418	-0.000183
1232	1.2248e+02	-9.0671	-46.854997	0.000487	4.865412	1.648446	-0.000195
1233	1.2258e+02	-9.0976	-47.101263	0.000618	6.183128	2.094900	-0.000248
1234	1.2268e+02	-9.1409	-47.278897	0.000446	4.459961	1.511076	-0.000179
1235	1.2278e+02	-9.1730	-47.480753	0.000507	5.068137	1.717131	-0.000203
1236	1.2288e+02	-9.2115	-47.706833	0.000568	5.676314	1.923187	-0.000227
1237	1.2298e+02	-9.2580	-47.876393	0.000426	4.257235	1.442390	-0.000170
1238	1.2308e+02	-9.3062	-48.078250	0.000507	5.068137	1.717131	-0.000203
1239	1.2318e+02	-9.3318	-48.263958	0.000466	4.662686	1.579761	-0.000187
1240	1.2328e+02	-9.3735	-48.502149	0.000598	5.980402	2.026215	-0.000239
1241	1.2338e+02	-9.4168	-48.704006	0.000507	5.068137	1.717131	-0.000203
1242	1.2348e+02	-9.4570	-48.901825	0.000497	4.966775	1.682789	-0.000199
1243	1.2358e+02	-9.4971	-49.059273	0.000395	3.953147	1.339363	-0.000158
1244	1.2368e+02	-9.5324	-49.261130	0.000507	5.068137	1.717131	-0.000203
1245	1.2378e+02	-9.5676	-49.454913	0.000487	4.865412	1.648446	-0.000195
1246	1.2388e+02	-9.6222	-49.680992	0.000568	5.676314	1.923187	-0.000227
1247	1.2398e+02	-9.6559	-49.822292	0.000355	3.547696	1.201992	-0.000142
1248	1.2408e+02	-9.6896	-50.052409	0.000578	5.777677	1.957530	-0.000231
1249	1.2418e+02	-9.7393	-50.254266	0.000507	5.068137	1.717131	-0.000203
1250	1.2428e+02	-9.7842	-50.448048	0.000487	4.865412	1.648446	-0.000195
1251	1.2438e+02	-9.8147	-50.625682	0.000446	4.459961	1.511076	-0.000179
1252	1.2447e+02	-9.8500	-50.791205	0.000416	4.155873	1.408048	-0.000166
1253	1.2457e+02	-9.8981	-51.037470	0.000618	6.183128	2.094900	-0.000248
1254	1.2467e+02	-9.9286	-51.227215	0.000476	4.764049	1.614104	-0.000191
1255	1.2477e+02	-9.9671	-51.433109	0.000517	5.169500	1.751474	-0.000207
1256	1.2487e+02	-10.0056	-51.582483	0.000375	3.750422	1.270677	-0.000150
1257	1.2497e+02	-10.0617	-51.800489	0.000547	5.473588	1.854502	-0.000219
1258	1.2507e+02	-10.1002	-52.018494	0.000547	5.473588	1.854502	-0.000219
1259	1.2517e+02	-10.1371	-52.212276	0.000487	4.865412	1.648446	-0.000195
1260	1.2527e+02	-10.1837	-52.422208	0.000527	5.270863	1.785817	-0.000211
1261	1.2537e+02	-10.2158	-52.607916	0.000466	4.662686	1.579761	-0.000187
1262	1.2547e+02	-10.2478	-52.789587	0.000456	4.561324	1.545418	-0.000183
1263	1.2557e+02	-10.2976	-52.987407	0.000497	4.966775	1.682789	-0.000199
1264	1.2567e+02	-10.3409	-53.225598	0.000598	5.980402	2.026215	-0.000239
1265	1.2577e+02	-10.3778	-53.370934	0.000365	3.649059	1.236335	-0.000146
1266	1.2587e+02	-10.4179	-53.629311	0.000649	6.487216	2.197928	-0.000260
1267	1.2597e+02	-10.4596	-53.774648	0.000365	3.649059	1.236335	-0.000146
1268	1.2607e+02	-10.4981	-53.968431	0.000487	4.865412	1.648446	-0.000195
1269	1.2617e+02	-10.5286	-54.214696	0.000618	6.183128	2.094900	-0.000248
1270	1.2627e+02	-10.5815	-54.364070	0.000375	3.750422	1.270677	-0.000150
1271	1.2636e+02	-10.6168	-54.602261	0.000598	5.980402	2.026215	-0.000239
1272	1.2646e+02	-10.6521	-54.775858	0.000436	4.358598	1.476733	-0.000174
1273	1.2656e+02	-10.6938	-55.005974	0.000578	5.777677	1.957530	-0.000231
1274	1.2666e+02	-10.7387	-55.175534	0.000426	4.257235	1.442390	-0.000170
1275	1.2676e+02	-10.7724	-55.341057	0.000416	4.155873	1.408048	-0.000166
1276	1.2686e+02	-10.8157	-55.587322	0.000618	6.183128	2.094900	-0.000248
1277	1.2696e+02	-10.8542	-55.768993	0.000456	4.561324	1.545418	-0.000183
1278	1.2706e+02	-10.8943	-55.930479	0.000405	4.054510	1.373705	-0.000162
1279	1.2716e+02	-10.9328	-56.176744	0.000618	6.183128	2.094900	-0.000248
1280	1.2726e+02	-10.9697	-56.374563	0.000497	4.966775	1.682789	-0.000199
1281	1.2736e+02	-11.0050	-56.568346	0.000487	4.865412	1.648446	-0.000195
1282	1.2746e+02	-11.0484	-56.786351	0.000547	5.473588	1.854502	-0.000219
1283	1.2756e+02	-11.0885	-56.963985	0.000446	4.459961	1.511076	-0.000179
1284	1.2766e+02	-11.1318	-57.161805	0.000497	4.966775	1.682789	-0.000199
1285	1.2776e+02	-11.1719	-57.371736	0.000527	5.270863	1.785817	-0.000211
1286	1.2786e+02	-11.2168	-57.541296	0.000426	4.257235	1.442390	-0.000170
1287	1.2796e+02	-11.2537	-57.698744	0.000395	3.953147	1.339363	-0.000158
1288	1.2806e+02	-11.2890	-57.936935	0.000598	5.980402	2.026215	-0.000239
1289	1.2816e+02	-11.3275	-58.126680	0.000476	4.764049	1.614104	-0.000191
1290	1.2826e+02	-11.3612	-58.300277	0.000436	4.358598	1.476733	-0.000174
1291	1.2835e+02	-11.4173	-58.498097	0.000497	4.966775	1.682789	-0.000199
1292	1.2845e+02	-11.4462	-58.720139	0.000557	5.574951	1.888845	-0.000223
1293	1.2855e+02	-11.4815	-58.885662	0.000416	4.155873	1.408048	-0.000166
1294	1.2865e+02	-11.5232	-59.087519	0.000507	5.068137	1.717131	-0.000203
1295	1.2875e+02	-11.5697	-59.277264	0.000476	4.764049	1.614104	-0.000191
1296	1.2885e+02	-11.6034	-59.523529	0.000618	6.183128	2.094900	-0.000248
1297	1.2895e+02	-11.6435	-59.680978	0.000395	3.953147	1.339363	-0.000158
1298	1.2905e+02	-11.6836	-59.870723	0.000476	4.764049	1.614104	-0.000191
1299	1.2915e+02	-11.7334	-60.080654	0.000527	5.270863	1.785817	-0.000211
1300	1.2925e+02	-11.7703	-60.262325	0.000456	4.561324	1.545418	-0.000183
1301	1.2935e+02	-11.8039	-60.488405	0.000568	5.676314	1.923187	-0.000227
1302	1.2945e+02	-11.8457	-60.645853	0.000395	3.953147	1.339363	-0.000158
1303	1.2955e+02	-11.8858	-60.839636	0.000487	4.865412	1.648446	-0.000195
1304	1.2965e+02	-11.9275	-61.025344	0.000466	4.662686	1.579761	-0.000187
1305	1.2975e+02	-11.9644	-61.235275	0.000527	5.270863	1.785817	-0.000211
1306	1.2985e+02	-12.0029	-61.453280	0.000547	5.473588	1.854502	-0.000219
1307	1.2995e+02	-12.0462	-61.614766	0.000405	4.054510	1.373705	-0.000162
1308	1.3005e+02	-12.0783	-61.776251	0.000405	4.054510	1.373705	-0.000162
1309	1.3015e+02	-12.1232	-62.002331	0.000568	5.676314	1.923187	-0.000227
1310	1.3025e+02	-12.1617	-62.240522	0.000598	5.980402	2.026215	-0.000239
1311	1.3034e+02	-12.2066	-62.430267	0.000476	4.764049	1.614104	-0.000191
1312	1.3044e+02	-12.2451	-62.611938	0.000456	4.561324	1.545418	-0.000183
1313	1.3054e+02	-12.2884	-62.773424	0.000405	4.054510	1.373705	-0.000162
1314	1.3064e+02	-12.3269	-63.019689	0.000618	6.183128	2.094900	-0.000248
1315	1.3074e+02	-12.3622	-63.173100	0.000385	3.851784	1.305020	-0.000154
1316	1.3084e+02	-12.4023	-63.378994	0.000517	5.169500	1.751474	-0.000207
1317	1.3094e+02	-12.4440	-63.540479	0.000405	4.054510	1.373705	-0.000162
1318	1.3104e+02	-12.4873	-63.746373	0.000517	5.169500	1.751474	-0.000207
1319	1.3114e+02	-12.5275	-63.964379	0.000547	5.473588	1.854502	-0.000219
1320	1.3124e+02	-12.5676	-64.158161	0.000487	4.865412	1.648446	-0.000195
1321	1.3134e+02	-12.6012	-64.360018	0.000507	5.068137	1.717131	-0.000203
1322	1.3144e+02	-12.6430	-64.525541	0.000416	4.155873	1.408048	-0.000166
1323	1.3154e+02	-12.6815	-64.715286	0.000476	4.764049	1.614104	-0.000191
1324	1.3164e+02	-12.7312	-64.925217	0.000527	5.270863	1.785817	-0.000211
1325	1.3174e+02	-12.7649	-65.139185	0.000537	5.372226	1.820159	-0.000215
1326	1.3184e+02	-12.8002	-65.284522	0.000365	3.649059	1.236335	-0.000146
1327	1.3194e+02	-12.8419	-65.494453	0.000527	5.270863	1.785817	-0.000211
1328	1.3204e+02	-12.8916	-65.696310	0.000507	5.068137	1.717131	-0.000203
1329	1.3214e+02	-12.9157	-65.869907	0.000436	4.358598	1.476733	-0.000174
1330	1.3224e+02	-12.9638	-66.120209	0.000628	6.284490	2.129243	-0.000252
1331	1.3234e+02	-12.9975	-66.301880	0.000456	4.561324	1.545418	-0.000183
1332	1.3243e+02	-13.0392	-66.455291	0.000385	3.851784	1.305020	-0.000154
1333	1.3253e+02	-13.0841	-66.685408	0.000578	5.777677	1.957530	-0.000231
1334	1.3263e+02	-13.1210	-66.867079	0.000456	4.561324	1.545418	-0.000183
1335	1.3273e+02	-13.1595	-67.020490	0.000385	3.851784	1.305020	-0.000154
1336	1.3283e+02	-13.1980	-67.258681	0.000598	5.980402	2.026215	-0.000239
1337	1.3293e+02	-13.2413	-67.424204	0.000416	4.155873	1.408048	-0.000166
1338	1.3303e+02	-13.2782	-67.638172	0.000537	5.372226	1.820159	-0.000215
1339	1.3313e+02	-13.3248	-67.819843	0.000456	4.561324	1.545418	-0.000183
1340	1.3323e+02	-13.3568	-68.009589	0.000476	4.764049	1.614104	-0.000191
1341	1.3333e+02	-13.3986	-68.219520	0.000527	5.270863	1.785817	-0.000211
1342	1.3343e+02	-13.4403	-68.376968	0.000395	3.953147	1.339363	-0.000158
1343	1.3353e+02	-13.4659	-68.570751	0.000487	4.865412	1.648446	-0.000195
1344	1.3363e+02	-13.5189	-68.740310	0.000426	4.257235	1.442390	-0.000170
1345	1.3373e+02	-13.5606	-68.950241	0.000527	5.270863	1.785817	-0.000211
1346	1.3383e+02	-13.6023	-69.176321	0.000568	5.676314	1.923187	-0.000227
1347	1.3393e+02	-13.6344	-69.313583	0.000345	3.446333	1.167649	-0.000138
1348	1.3403e+02	-13.6777	-69.507366	0.000487	4.865412	1.648446	-0.000195
1349	1.3413e+02	-13.7258	-69.680963	0.000436	4.358598	1.476733	-0.000174
1350	1.3423e+02	-13.7627	-69.890894	0.000527	5.270863	1.785817	-0.000211
1351	1.3432e+02	-13.7900	-70.044305	0.000385	3.851784	1.305020	-0.000154
1352	1.3442e+02	-13.8317	-70.274422	0.000578	5.777677	1.957530	-0.000231
1353	1.3452e+02	-13.8830	-70.448019	0.000436	4.358598	1.476733	-0.000174
1354	1.3462e+02	-13.9183	-70.597393	0.000375	3.750422	1.270677	-0.000150
1355	1.3472e+02	-13.9632	-70.827509	0.000578	5.777677	1.957530	-0.000231
1356	1.3482e+02	-13.9969	-71.005143	0.000446	4.459961	1.511076	-0.000179
1357	1.3492e+02	-14.0370	-71.182777	0.000446	4.459961	1.511076	-0.000179
1358	1.3502e+02	-14.0787	-71.364448	0.000456	4.561324	1.545418	-0.000183
1359	1.3512e+02	-14.1156	-71.542082	0.000446	4.459961	1.511076	-0.000179
1360	1.3522e+02	-14.1670	-71.747976	0.000517	5.169500	1.751474	-0.000207
1361	1.3532e+02	-14.2055	-71.941759	0.000487	4.865412	1.648446	-0.000195
1362	1.3542e+02	-14.2376	-72.095170	0.000385	3.851784	1.305020	-0.000154
1363	1.3552e+02	-14.2761	-72.288953	0.000487	4.865412	1.648446	-0.000195
1364	1.3562e+02	-14.3178	-72.466586	0.000446	4.459961	1.511076	-0.000179
1365	1.3572e+02	-14.3611	-72.656332	0.000476	4.764049	1.614104	-0.000191
1366	1.3582e+02	-14.3964	-72.866263	0.000527	5.270863	1.785817	-0.000211
1367	1.3592e+02	-14.4365	-73.043897	0.000446	4.459961	1.511076	-0.000179
1368	1.3602e+02	-14.4766	-73.209419	0.000416	4.155873	1.408048	-0.000166
1369	1.3612e+02	-14.5167	-73.374942	0.000416	4.155873	1.408048	-0.000166
1370	1.3622e+02	-14.5616	-73.564687	0.000476	4.764049	1.614104	-0.000191
1371	1.3631e+02	-14.6001	-73.746359	0.000456	4.561324	1.545418	-0.000183
1372	1.3641e+02	-14.6306	-73.952252	0.000517	5.169500	1.751474	-0.000207
1373	1.3651e+02	-14.6835	-74.093552	0.000355	3.547696	1.201992	-0.000142
1374	1.3661e+02	-14.7140	-74.315595	0.000557	5.574951	1.888845	-0.000223
1375	1.3671e+02	-14.7573	-74.501303	0.000466	4.662686	1.579761	-0.000187
1376	1.3681e+02	-14.8103	-74.642603	0.000355	3.547696	1.201992	-0.000142
1377	1.3691e+02	-14.8392	-74.880794	0.000598	5.980402	2.026215	-0.000239
1378	1.3701e+02	-14.8744	-75.038242	0.000395	3.953147	1.339363	-0.000158
1379	1.3711e+02	-14.9146	-75.219913	0.000456	4.561324	1.545418	-0.000183
1380	1.3721e+02	-14.9563	-75.425807	0.000517	5.169500	1.751474	-0.000207
1381	1.3731e+02	-14.9948	-75.567107	0.000355	3.547696	1.201992	-0.000142
1382	1.3741e+02	-15.0429	-75.748778	0.000456	4.561324	1.545418	-0.000183
1383	1.3751e+02	-15.0766	-75.962746	0.000537	5.372226	1.820159	-0.000215
1384	1.3761e+02	-15.1103	-76.124231	0.000405	4.054510	1.373705	-0.000162
1385	1.3771e+02	-15.1504	-76.318014	0.000487	4.865412	1.648446	-0.000195
1386	1.3781e+02	-15.1937	-76.519871	0.000507	5.068137	1.717131	-0.000203
1387	1.3791e+02	-15.2306	-76.693468	0.000436	4.358598	1.476733	-0.000174
1388	1.3801e+02	-15.2723	-76.826693	0.000334	3.344971	1.133307	-0.000134
1389	1.3811e+02	-15.3108	-77.020476	0.000487	4.865412	1.648446	-0.000195
1390	1.3821e+02	-15.3525	-77.210221	0.000476	4.764049	1.614104	-0.000191
1391	1.3831e+02	-15.4071	-77.420152	0.000527	5.270863	1.785817	-0.000211
1392	1.3840e+02	-15.4359	-77.565489	0.000365	3.649059	1.236335	-0.000146
1393	1.3850e+02	-15.4728	-77.795606	0.000578	5.777677	1.957530	-0.000231
1394	1.3860e+02	-15.5129	-77.989388	0.000487	4.865412	1.648446	-0.000195
1395	1.3870e+02	-15.5514	-78.110502	0.000304	3.040882	1.030279	-0.000122
1396	1.3880e+02	-15.5883	-78.352730	0.000608	6.081765	2.060558	-0.000243
1397	1.3890e+02	-15.6365	-78.542476	0.000476	4.764049	1.614104	-0.000191
1398	1.3900e+02	-15.6782	-78.687813	0.000365	3.649059	1.236335	-0.000146
1399	1.3910e+02	-15.7119	-78.857372	0.000426	4.257235	1.442390	-0.000170
1400	1.3920e+02	-15.7504	-79.075378	0.000547	5.473588	1.854502	-0.000219
1401	1.3930e+02	-15.7905	-79.212640	0.000345	3.446333	1.167649	-0.000138
1402	1.3940e+02	-15.8418	-79.422571	0.000527	5.270863	1.785817	-0.000211
1403	1.3950e+02	-15.8723	-79.608280	0.000466	4.662686	1.579761	-0.000187
1404	1.3960e+02	-15.9108	-79.777839	0.000426	4.257235	1.442390	-0.000170
1405	1.3970e+02	-15.9413	-79.979696	0.000507	5.068137	1.717131	-0.000203
1406	1.3980e+02	-15.9894	-80.133107	0.000385	3.851784	1.305020	-0.000154
1407	1.3990e+02	-16.0295	-80.339001	0.000517	5.169500	1.751474	-0.000207
1408	1.4000e+02	-16.0664	-80.528747	0.000476	4.764049	1.614104	-0.000191
1409	1.4010e+02	-16.1145	-80.674083	0.000365	3.649059	1.236335	-0.000146
1410	1.4020e+02	-16.1450	-80.904200	0.000578	5.777677	1.957530	-0.000231
1411	1.4029e+02	-16.1867	-81.085871	0.000456	4.561324	1.545418	-0.000183
1412	1.4039e+02	-16.2348	-81.251394	0.000416	4.155873	1.408048	-0.000166
1413	1.4049e+02	-16.2605	-81.429028	0.000446	4.459961	1.511076	-0.000179
1414	1.4059e+02	-16.3118	-81.598588	0.000426	4.257235	1.442390	-0.000170
1415	1.4069e+02	-16.3455	-81.764110	0.000416	4.155873	1.408048	-0.000166
1416	1.4079e+02	-16.3888	-82.002301	0.000598	5.980402	2.026215	-0.000239
1417	1.4089e+02	-16.4257	-82.159749	0.000395	3.953147	1.339363	-0.000158
1418	1.4099e+02	-16.4658	-82.357569	0.000497	4.966775	1.682789	-0.000199
1419	1.4109e+02	-16.5108	-82.502906	0.000365	3.649059	1.236335	-0.000146
1420	1.4119e+02	-16.5557	-82.716874	0.000537	5.372226	1.820159	-0.000215
1421	1.4129e+02	-16.5878	-82.926805	0.000527	5.270863	1.785817	-0.000211
1422	1.4139e+02	-16.6279	-83.104439	0.000446	4.459961	1.511076	-0.000179
1423	1.4149e+02	-16.6680	-83.294185	0.000476	4.764049	1.614104	-0.000191
1424	1.4159e+02	-16.7097	-83.455670	0.000405	4.054510	1.373705	-0.000162
1425	1.4169e+02	-16.7546	-83.677712	0.000557	5.574951	1.888845	-0.000223
1426	1.4179e+02	-16.7867	-83.863421	0.000466	4.662686	1.579761	-0.000187
1427	1.4189e+02	-16.8348	-84.049129	0.000466	4.662686	1.579761	-0.000187
1428	1.4199e+02	-16.8669	-84.259060	0.000527	5.270863	1.785817	-0.000211
1429	1.4209e+02	-16.9054	-84.428620	0.000426	4.257235	1.442390	-0.000170
1430	1.4219e+02	-16.9407	-84.614328	0.000466	4.662686	1.579761	-0.000187
1431	1.4228e+02	-16.9856	-84.779850	0.000416	4.155873	1.408048	-0.000166
1432	1.4238e+02	-17.0241	-84.997856	0.000547	5.473588	1.854502	-0.000219
1433	1.4248e+02	-17.0578	-85.195675	0.000497	4.966775	1.682789	-0.000199
1434	1.4258e+02	-17.1075	-85.365235	0.000426	4.257235	1.442390	-0.000170
1435	1.4268e+02	-17.1396	-85.575166	0.000527	5.270863	1.785817	-0.000211
1436	1.4278e+02	-17.1878	-85.768949	0.000487	4.865412	1.648446	-0.000195
1437	1.4288e+02	-17.2295	-86.007140	0.000598	5.980402	2.026215	-0.000239
1438	1.4298e+02	-17.2696	-86.196885	0.000476	4.764049	1.614104	-0.000191
1439	1.4308e+02	-17.3161	-86.374519	0.000446	4.459961	1.511076	-0.000179
1440	1.4318e+02	-17.3450	-86.560227	0.000466	4.662686	1.579761	-0.000187
1441	1.4328e+02	-17.3915	-86.778233	0.000547	5.473588	1.854502	-0.000219
1442	1.4338e+02	-17.4300	-86.984127	0.000517	5.169500	1.751474	-0.000207
1443	1.4348e+02	-17.4605	-87.169835	0.000466	4.662686	1.579761	-0.000187
1444	1.4358e+02	-17.5054	-87.323246	0.000385	3.851784	1.305020	-0.000154
1445	1.4368e+02	-17.5471	-87.557400	0.000588	5.879039	1.991872	-0.000235
1446	1.4378e+02	-17.5856	-87.783479	0.000568	5.676314	1.923187	-0.000227
1447	1.4388e+02	-17.6305	-87.989373	0.000517	5.169500	1.751474	-0.000207
1448	1.4398e+02	-17.6674	-88.183156	0.000487	4.865412	1.648446	-0.000195
1449	1.4408e+02	-17.7091	-88.368864	0.000466	4.662686	1.579761	-0.000187
1450	1.4418e+02	-17.7428	-88.615129	0.000618	6.183128	2.094900	-0.000248
1451	1.4428e+02	-17.7861	-88.821023	0.000517	5.169500	1.751474	-0.000207
1452	1.4437e+02	-17.8294	-88.966360	0.000365	3.649059	1.236335	-0.000146
1453	1.4447e+02	-17.8695	-89.204551	0.000598	5.980402	2.026215	-0.000239
1454	1.4457e+02	-17.9048	-89.398334	0.000487	4.865412	1.648446	-0.000195
1455	1.4467e+02	-17.9433	-89.600191	0.000507	5.068137	1.717131	-0.000203
1456	1.4477e+02	-17.9818	-89.830307	0.000578	5.777677	1.957530	-0.000231
1457	1.4487e+02	-18.0268	-90.011978	0.000456	4.561324	1.545418	-0.000183
1458	1.4497e+02	-18.0733	-90.221909	0.000527	5.270863	1.785817	-0.000211
1459	1.4507e+02	-18.0990	-90.443952	0.000557	5.574951	1.888845	-0.000223
1460	1.4517e+02	-18.1503	-90.637734	0.000487	4.865412	1.648446	-0.000195
1461	1.4527e+02	-18.1824	-90.879963	0.000608	6.081765	2.060558	-0.000243
1462	1.4537e+02	-18.2321	-91.065671	0.000466	4.662686	1.579761	-0.000187
1463	1.4547e+02	-18.2642	-91.279639	0.000537	5.372226	1.820159	-0.000215
1464	1.4557e+02	-18.3043	-91.469384	0.000476	4.764049	1.614104	-0.000191
1465	1.4567e+02	-18.3396	-91.727761	0.000649	6.487216	2.197928	-0.000260
1466	1.4577e+02	-18.3813	-91.917506	0.000476	4.764049	1.614104	-0.000191
1467	1.4587e+02	-18.4262	-92.119363	0.000507	5.068137	1.717131	-0.000203
1468	1.4597e+02	-18.4663	-92.373703	0.000639	6.385853	2.163586	-0.000256
1469	1.4607e+02	-18.5032	-92.555374	0.000456	4.561324	1.545418	-0.000183
1470	1.4617e+02	-18.5433	-92.801639	0.000618	6.183128	2.094900	-0.000248
1471	1.4626e+02	-18.5834	-93.031756	0.000578	5.777677	1.957530	-0.000231
1472	1.4636e+02	-18.6251	-93.261873	0.000578	5.777677	1.957530	-0.000231
1473	1.4646e+02	-18.6588	-93.459692	0.000497	4.966775	1.682789	-0.000199
1474	1.4656e+02	-18.6989	-93.689809	0.000578	5.777677	1.957530	-0.000231
1475	1.4666e+02	-18.7455	-93.891666	0.000507	5.068137	1.717131	-0.000203
1476	1.4676e+02	-18.7759	-94.109671	0.000547	5.473588	1.854502	-0.000219
1477	1.4686e+02	-18.8225	-94.327677	0.000547	5.473588	1.854502	-0.000219
1478	1.4696e+02	-18.8706	-94.573942	0.000618	6.183128	2.094900	-0.000248
1479	1.4706e+02	-18.8930	-94.791947	0.000547	5.473588	1.854502	-0.000219
1480	1.4716e+02	-18.9380	-94.997841	0.000517	5.169500	1.751474	-0.000207
1481	1.4726e+02	-18.9781	-95.203735	0.000517	5.169500	1.751474	-0.000207
1482	1.4736e+02	-19.0294	-95.494409	0.000730	7.298118	2.472669	-0.000292
1483	1.4746e+02	-19.0599	-95.692228	0.000497	4.966775	1.682789	-0.000199
1484	1.4756e+02	-19.0920	-95.890048	0.000497	4.966775	1.682789	-0.000199
1485	1.4766e+02	-19.1417	-96.124202	0.000588	5.879039	1.991872	-0.000235
1486	1.4776e+02	-19.1834	-96.378541	0.000639	6.385853	2.163586	-0.000256
1487	1.4786e+02	-19.2219	-96.632881	0.000639	6.385853	2.163586	-0.000256
1488	1.4796e+02	-19.2620	-96.862998	0.000578	5.777677	1.957530	-0.000231
1489	1.4806e+02	-19.3037	-97.085040	0.000557	5.574951	1.888845	-0.000223
1490	1.4816e+02	-19.3406	-97.331306	0.000618	6.183128	2.094900	-0.000248
1491	1.4825e+02	-19.3791	-97.569497	0.000598	5.980402	2.026215	-0.000239
1492	1.4835e+02	-19.4144	-97.791539	0.000557	5.574951	1.888845	-0.000223
1493	1.4845e+02	-19.4513	-98.005507	0.000537	5.372226	1.820159	-0.000215
1494	1.4855e+02	-19.5027	-98.255810	0.000628	6.284490	2.129243	-0.000252
1495	1.4865e+02	-19.5476	-98.477852	0.000557	5.574951	1.888845	-0.000223
1496	1.4875e+02	-19.5732	-98.720080	0.000608	6.081765	2.060558	-0.000243
1497	1.4885e+02	-19.6134	-98.990568	0.000679	6.791304	2.300956	-0.000272
1498	1.4895e+02	-19.6663	-99.208574	0.000547	5.473588	1.854502	-0.000219
1499	1.4905e+02	-19.6936	-99.450802	0.000608	6.081765	2.060558	-0.000243
1500	1.4915e+02	-19.7321	-99.701104	0.000628	6.284490	2.129243	-0.000252
1501	1.4925e+02	-19.7706	-99.991778	0.000730	7.298118	2.472669	-0.000292
1502	1.4935e+02	-19.8187	-100.181523	0.000476	4.764049	1.614104	-0.000191
1503	1.4945e+02	-19.8588	-100.419714	0.000598	5.980402	2.026215	-0.000239
1504	1.4955e+02	-19.8973	-100.702314	0.000710	7.095392	2.403984	-0.000284
1505	1.4965e+02	-19.9278	-100.908208	0.000517	5.169500	1.751474	-0.000207
1506	1.4975e+02	-19.9727	-101.215030	0.000770	7.703569	2.610040	-0.000308
1507	1.4985e+02	-20.0032	-101.457258	0.000608	6.081765	2.060558	-0.000243
1508	1.4995e+02	-19.9727	-101.428998	0.000071	0.709539	0.240398	0.000028
1509	1.5005e+02	-19.9390	-101.356330	0.000182	1.824529	0.618167	0.000073
1510	1.5015e+02	-19.8925	-101.340181	0.000041	0.405451	0.137371	0.000016
1511	1.5025e+02	-19.8572	-101.247327	0.000233	2.331343	0.789880	0.000093
1512	1.5034e+02	-19.8171	-101.174659	0.000182	1.824529	0.618167	0.000073
1513	1.5044e+02	-19.7802	-101.138325	0.000091	0.912265	0.309084	0.000037
1514	1.5054e+02	-19.7321	-101.097953	0.000101	1.013627	0.343426	0.000041
1515	1.5064e+02	-19.6936	-100.964728	0.000334	3.344971	1.133307	0.000134
1516	1.5074e+02	-19.6567	-100.904171	0.000152	1.520441	0.515139	0.000061
1517	1.5084e+02	-19.6166	-100.819391	0.000213	2.128618	0.721195	0.000085
1518	1.5094e+02	-19.5700	-100.734611	0.000213	2.128618	0.721195	0.000085
1519	1.5104e+02	-19.5347	-100.637720	0.000243	2.432706	0.824223	0.000097
1520	1.5114e+02	-19.4978	-100.565051	0.000182	1.824529	0.618167	0.000073
1521	1.5124e+02	-19.4658	-100.464123	0.000253	2.534069	0.858566	0.000101
1522	1.5134e+02	-19.4289	-100.359157	0.000264	2.635431	0.892908	0.000105
1523	1.5144e+02	-19.3775	-100.294563	0.000162	1.621804	0.549482	0.000065
1524	1.5154e+02	-19.3278	-100.153263	0.000355	3.547696	1.201992	0.000142
1525	1.5164e+02	-19.3118	-100.036186	0.000294	2.939520	0.995936	0.000118
1526	1.5174e+02	-19.2572	-99.983704	0.000132	1.317716	0.446454	0.000053
1527	1.5184e+02	-19.2123	-99.850478	0.000334	3.344971	1.133307	0.000134
1528	1.5194e+02	-19.1818	-99.765698	0.000213	2.128618	0.721195	0.000085
1529	1.5204e+02	-19.1321	-99.640547	0.000314	3.142245	1.064621	0.000126
1530	1.5214e+02	-19.0984	-99.507322	0.000334	3.344971	1.133307	0.000134
1531	1.5224e+02	-19.0615	-99.414468	0.000233	2.331343	0.789880	0.000093
1532	1.5233e+02	-19.0102	-99.333725	0.000203	2.027255	0.686853	0.000081
1533	1.5243e+02	-18.9829	-99.212611	0.000304	3.040882	1.030279	0.000122
1534	1.5253e+02	-18.9332	-99.075348	0.000345	3.446333	1.167649	0.000138
1535	1.5263e+02	-18.8995	-98.970383	0.000264	2.635431	0.892908	0.000105
1536	1.5273e+02	-18.8610	-98.845231	0.000314	3.142245	1.064621	0.000126
1537	1.5283e+02	-18.8305	-98.724117	0.000304	3.040882	1.030279	0.000122
1538	1.5293e+02	-18.7775	-98.603003	0.000304	3.040882	1.030279	0.000122
1539	1.5303e+02	-18.7342	-98.433444	0.000426	4.257235	1.442390	0.000170
1540	1.5313e+02	-18.7005	-98.336552	0.000243	2.432706	0.824223	0.000097
1541	1.5323e+02	-18.6701	-98.207364	0.000324	3.243608	1.098964	0.000130
1542	1.5333e+02	-18.6300	-98.114510	0.000233	2.331343	0.789880	0.000093
1543	1.5343e+02	-18.5915	-97.977247	0.000345	3.446333	1.167649	0.000138
1544	1.5353e+02	-18.5385	-97.844022	0.000334	3.344971	1.133307	0.000134
1545	1.5363e+02	-18.5064	-97.710796	0.000334	3.344971	1.133307	0.000134
1546	1.5373e+02	-18.4647	-97.597756	0.000284	2.838157	0.961594	0.000114
1547	1.5383e+02	-18.4246	-97.468568	0.000324	3.243608	1.098964	0.000130
1548	1.5393e+02	-18.3845	-97.359565	0.000274	2.736794	0.927251	0.000110
1549	1.5403e+02	-18.3524	-97.218266	0.000355	3.547696	1.201992	0.000142
1550	1.5413e+02	-18.3027	-97.056780	0.000405	4.054510	1.373705	0.000162
1551	1.5422e+02	-18.2626	-96.923555	0.000334	3.344971	1.133307	0.000134
1552	1.5432e+02	-18.2177	-96.830701	0.000233	2.331343	0.789880	0.000093
1553	1.5442e+02	-18.1904	-96.693438	0.000345	3.446333	1.167649	0.000138
1554	1.5452e+02	-18.1487	-96.511767	0.000456	4.561324	1.545418	0.000183
1555	1.5462e+02	-18.1038	-96.414876	0.000243	2.432706	0.824223	0.000097
1556	1.5472e+02	-18.0701	-96.281650	0.000334	3.344971	1.133307	0.000134
1557	1.5482e+02	-18.0300	-96.148425	0.000334	3.344971	1.133307	0.000134
1558	1.5492e+02	-17.9674	-96.023274	0.000314	3.142245	1.064621	0.000126
1559	1.5502e+02	-17.9466	-95.886011	0.000345	3.446333	1.167649	0.000138
1560	1.5512e+02	-17.9032	-95.748748	0.000345	3.446333	1.167649	0.000138
1561	1.5522e+02	-17.8695	-95.603411	0.000365	3.649059	1.236335	0.000146
1562	1.5532e+02	-17.8310	-95.458075	0.000365	3.649059	1.236335	0.000146
1563	1.5542e+02	-17.7813	-95.349072	0.000274	2.736794	0.927251	0.000110
1564	1.5552e+02	-17.7444	-95.207772	0.000355	3.547696	1.201992	0.000142
1565	1.5562e+02	-17.7075	-95.062435	0.000365	3.649059	1.236335	0.000146
1566	1.5572e+02	-17.6706	-94.933247	0.000324	3.243608	1.098964	0.000130
1567	1.5582e+02	-17.6209	-94.775799	0.000395	3.953147	1.339363	0.000158
1568	1.5592e+02	-17.5888	-94.666796	0.000274	2.736794	0.927251	0.000110
1569	1.5602e+02	-17.5487	-94.537608	0.000324	3.243608	1.098964	0.000130
1570	1.5612e+02	-17.5118	-94.323639	0.000537	5.372226	1.820159	0.000215
1571	1.5622e+02	-17.4685	-94.234822	0.000223	2.229980	0.755538	0.000089
1572	1.5631e+02	-17.4284	-94.049114	0.000466	4.662686	1.579761	0.000187
1573	1.5641e+02	-17.3883	-93.940111	0.000274	2.736794	0.927251	0.000110
1574	1.5651e+02	-17.3434	-93.774589	0.000416	4.155873	1.408048	0.000166
1575	1.5661e+02	-17.3017	-93.665586	0.000274	2.736794	0.927251	0.000110
1576	1.5671e+02	-17.2696	-93.512175	0.000385	3.851784	1.305020	0.000154
1577	1.5681e+02	-17.2295	-93.366838	0.000365	3.649059	1.236335	0.000146
1578	1.5691e+02	-17.1926	-93.213427	0.000385	3.851784	1.305020	0.000154
1579	1.5701e+02	-17.1525	-93.080202	0.000334	3.344971	1.133307	0.000134
1580	1.5711e+02	-17.1075	-92.894493	0.000466	4.662686	1.579761	0.000187
1581	1.5721e+02	-17.0674	-92.757231	0.000345	3.446333	1.167649	0.000138
1582	1.5731e+02	-17.0257	-92.632080	0.000314	3.142245	1.064621	0.000126
1583	1.5741e+02	-16.9936	-92.466557	0.000416	4.155873	1.408048	0.000166
1584	1.5751e+02	-16.9471	-92.373703	0.000233	2.331343	0.789880	0.000093
1585	1.5761e+02	-16.9070	-92.212217	0.000405	4.054510	1.373705	0.000162
1586	1.5771e+02	-16.8685	-92.030546	0.000456	4.561324	1.545418	0.000183
1587	1.5781e+02	-16.8284	-91.893284	0.000345	3.446333	1.167649	0.000138
1588	1.5791e+02	-16.7867	-91.747947	0.000365	3.649059	1.236335	0.000146
1589	1.5801e+02	-16.7530	-91.610684	0.000345	3.446333	1.167649	0.000138
1590	1.5811e+02	-16.7065	-91.473422	0.000345	3.446333	1.167649	0.000138
1591	1.5821e+02	-16.6584	-91.307899	0.000416	4.155873	1.408048	0.000166
1592	1.5830e+02	-16.6359	-91.182748	0.000314	3.142245	1.064621	0.000126
1593	1.5840e+02	-16.5878	-91.021262	0.000405	4.054510	1.373705	0.000162
1594	1.5850e+02	-16.5412	-90.879963	0.000355	3.547696	1.201992	0.000142
1595	1.5860e+02	-16.5172	-90.730589	0.000375	3.750422	1.270677	0.000150
1596	1.5870e+02	-16.4691	-90.601400	0.000324	3.243608	1.098964	0.000130
1597	1.5880e+02	-16.4273	-90.439915	0.000405	4.054510	1.373705	0.000162
1598	1.5890e+02	-16.3953	-90.306689	0.000334	3.344971	1.133307	0.000134
1599	1.5900e+02	-16.3439	-90.120981	0.000466	4.662686	1.579761	0.000187
1600	1.5910e+02	-16.3167	-90.016016	0.000264	2.635431	0.892908	0.000105
1601	1.5920e+02	-16.2782	-89.834344	0.000456	4.561324	1.545418	0.000183
1602	1.5930e+02	-16.2316	-89.717268	0.000294	2.939520	0.995936	0.000118
1603	1.5940e+02	-16.1931	-89.535596	0.000456	4.561324	1.545418	0.000183
1604	1.5950e+02	-16.1466	-89.442742	0.000233	2.331343	0.789880	0.000093
1605	1.5960e+02	-16.1033	-89.236848	0.000517	5.169500	1.751474	0.000207
1606	1.5970e+02	-16.0712	-89.123809	0.000284	2.838157	0.961594	0.000114
1607	1.5980e+02	-16.0263	-88.950212	0.000436	4.358598	1.476733	0.000174
1608	1.5990e+02	-15.9878	-88.808912	0.000355	3.547696	1.201992	0.000142
1609	1.6000e+02	-15.9509	-88.707984	0.000253	2.534069	0.858566	0.000101
1610	1.6010e+02	-15.9076	-88.534387	0.000436	4.358598	1.476733	0.000174
1611	1.6019e+02	-15.8803	-88.401161	0.000334	3.344971	1.133307	0.000134
1612	1.6029e+02	-15.8258	-88.219490	0.000456	4.561324	1.545418	0.000183
1613	1.6039e+02	-15.7889	-88.070116	0.000375	3.750422	1.270677	0.000150
1614	1.6049e+02	-15.7552	-87.957076	0.000284	2.838157	0.961594	0.000114
1615	1.6059e+02	-15.7070	-87.763294	0.000487	4.865412	1.648446	0.000195
1616	1.6069e+02	-15.6669	-87.642180	0.000304	3.040882	1.030279	0.000122
1617	1.6079e+02	-15.6365	-87.496843	0.000365	3.649059	1.236335	0.000146
1618	1.6089e+02	-15.5899	-87.351506	0.000365	3.649059	1.236335	0.000146
1619	1.6099e+02	-15.5530	-87.210206	0.000355	3.547696	1.201992	0.000142
1620	1.6109e+02	-15.5081	-87.072944	0.000345	3.446333	1.167649	0.000138
1621	1.6119e+02	-15.4760	-86.911458	0.000405	4.054510	1.373705	0.000162
1622	1.6129e+02	-15.4343	-86.741898	0.000426	4.257235	1.442390	0.000170
1623	1.6139e+02	-15.3910	-86.604636	0.000345	3.446333	1.167649	0.000138
1624	1.6149e+02	-15.3525	-86.447188	0.000395	3.953147	1.339363	0.000158
1625	1.6159e+02	-15.3156	-86.326073	0.000304	3.040882	1.030279	0.000122
1626	1.6169e+02	-15.2707	-86.148440	0.000446	4.459961	1.511076	0.000179
1627	1.6179e+02	-15.2370	-85.962731	0.000466	4.662686	1.579761	0.000187
1628	1.6189e+02	-15.1937	-85.833543	0.000324	3.243608	1.098964	0.000130
1629	1.6199e+02	-15.1520	-85.696280	0.000345	3.446333	1.167649	0.000138
1630	1.6209e+02	-15.1183	-85.542869	0.000385	3.851784	1.305020	0.000154
1631	1.6219e+02	-15.0734	-85.405607	0.000345	3.446333	1.167649	0.000138
1632	1.6228e+02	-15.0317	-85.195675	0.000527	5.270863	1.785817	0.000211
1633	1.6238e+02	-14.9900	-85.082636	0.000284	2.838157	0.961594	0.000114
1634	1.6248e+02	-14.9514	-84.941336	0.000355	3.547696	1.201992	0.000142
1635	1.6258e+02	-14.9162	-84.800036	0.000355	3.547696	1.201992	0.000142
1636	1.6268e+02	-14.8664	-84.634514	0.000416	4.155873	1.408048	0.000166
1637	1.6278e+02	-14.8375	-84.493214	0.000355	3.547696	1.201992	0.000142
1638	1.6288e+02	-14.7990	-84.327691	0.000416	4.155873	1.408048	0.000166
1639	1.6298e+02	-14.7413	-84.170243	0.000395	3.953147	1.339363	0.000158
1640	1.6308e+02	-14.7204	-84.032980	0.000345	3.446333	1.167649	0.000138
1641	1.6318e+02	-14.6691	-83.871495	0.000405	4.054510	1.373705	0.000162
1642	1.6328e+02	-14.6306	-83.742307	0.000324	3.243608	1.098964	0.000130
1643	1.6338e+02	-14.6001	-83.592933	0.000375	3.750422	1.270677	0.000150
1644	1.6348e+02	-14.5600	-83.459707	0.000334	3.344971	1.133307	0.000134
1645	1.6358e+02	-14.5215	-83.261887	0.000497	4.966775	1.682789	0.000199
1646	1.6368e+02	-14.4798	-83.120588	0.000355	3.547696	1.201992	0.000142
1647	1.6378e+02	-14.4365	-82.955065	0.000416	4.155873	1.408048	0.000166
1648	1.6388e+02	-14.3964	-82.809728	0.000365	3.649059	1.236335	0.000146
1649	1.6398e+02	-14.3531	-82.656317	0.000385	3.851784	1.305020	0.000154
1650	1.6408e+02	-14.3178	-82.502906	0.000385	3.851784	1.305020	0.000154
1651	1.6418e+02	-14.2793	-82.345458	0.000395	3.953147	1.339363	0.000158
1652	1.6427e+02	-14.2360	-82.196084	0.000375	3.750422	1.270677	0.000150
1653	1.6437e+02	-14.2071	-82.042672	0.000385	3.851784	1.305020	0.000154
1654	1.6447e+02	-14.1638	-81.901373	0.000355	3.547696	1.201992	0.000142
1655	1.6457e+02	-14.1189	-81.731813	0.000426	4.257235	1.442390	0.000170
1656	1.6467e+02	-14.0787	-81.594550	0.000345	3.446333	1.167649	0.000138
1657	1.6477e+02	-14.0435	-81.449214	0.000365	3.649059	1.236335	0.000146
1658	1.6487e+02	-13.9889	-81.271580	0.000446	4.459961	1.511076	0.000179
1659	1.6497e+02	-13.9568	-81.118168	0.000385	3.851784	1.305020	0.000154
1660	1.6507e+02	-13.9263	-80.960720	0.000395	3.953147	1.339363	0.000158
1661	1.6517e+02	-13.8750	-80.831532	0.000324	3.243608	1.098964	0.000130
1662	1.6527e+02	-13.8365	-80.682158	0.000375	3.750422	1.270677	0.000150
1663	1.6537e+02	-13.7964	-80.548932	0.000334	3.344971	1.133307	0.000134
1664	1.6547e+02	-13.7579	-80.375335	0.000436	4.358598	1.476733	0.000174
1665	1.6557e+02	-13.7242	-80.173479	0.000507	5.068137	1.717131	0.000203
1666	1.6567e+02	-13.6809	-80.024105	0.000375	3.750422	1.270677	0.000150
1667	1.6577e+02	-13.6360	-79.911065	0.000284	2.838157	0.961594	0.000114
1668	1.6587e+02	-13.5959	-79.721319	0.000476	4.764049	1.614104	0.000191
1669	1.6597e+02	-13.5622	-79.600205	0.000304	3.040882	1.030279	0.000122
1670	1.6607e+02	-13.5157	-79.406423	0.000487	4.865412	1.648446	0.000195
1671	1.6616e+02	-13.4820	-79.297420	0.000274	2.736794	0.927251	0.000110
1672	1.6626e+02	-13.4451	-79.075378	0.000557	5.574951	1.888845	0.000223
1673	1.6636e+02	-13.4082	-78.950226	0.000314	3.142245	1.064621	0.000126
1674	1.6646e+02	-13.3617	-78.772593	0.000446	4.459961	1.511076	0.000179
1675	1.6656e+02	-13.3232	-78.611107	0.000405	4.054510	1.373705	0.000162
1676	1.6666e+02	-13.2750	-78.473844	0.000345	3.446333	1.167649	0.000138
1677	1.6676e+02	-13.2413	-78.336582	0.000345	3.446333	1.167649	0.000138
1678	1.6686e+02	-13.1964	-78.150874	0.000466	4.662686	1.579761	0.000187
1679	1.6696e+02	-13.1547	-77.981314	0.000426	4.257235	1.442390	0.000170
1680	1.6706e+02	-13.1098	-77.835977	0.000365	3.649059	1.236335	0.000146
1681	1.6716e+02	-13.0857	-77.674492	0.000405	4.054510	1.373705	0.000162
1682	1.6726e+02	-13.0408	-77.500895	0.000436	4.358598	1.476733	0.000174
1683	1.6736e+02	-13.0023	-77.323261	0.000446	4.459961	1.511076	0.000179
1684	1.6746e+02	-12.9510	-77.190035	0.000334	3.344971	1.133307	0.000134
1685	1.6756e+02	-12.9173	-77.004327	0.000466	4.662686	1.579761	0.000187
1686	1.6766e+02	-12.8788	-76.871102	0.000334	3.344971	1.133307	0.000134
1687	1.6776e+02	-12.8451	-76.721728	0.000375	3.750422	1.270677	0.000150
1688	1.6786e+02	-12.8114	-76.531982	0.000476	4.764049	1.614104	0.000191
1689	1.6796e+02	-12.7745	-76.354348	0.000446	4.459961	1.511076	0.000179
1690	1.6806e+02	-12.7248	-76.253420	0.000253	2.534069	0.858566	0.000101
1691	1.6816e+02	-12.6879	-76.047526	0.000517	5.169500	1.751474	0.000207
1692	1.6825e+02	-12.6430	-75.877966	0.000426	4.257235	1.442390	0.000170
1693	1.6835e+02	-12.6093	-75.708406	0.000426	4.257235	1.442390	0.000170
1694	1.6845e+02	-12.5660	-75.554995	0.000385	3.851784	1.305020	0.000154
1695	1.6855e+02	-12.5226	-75.336990	0.000547	5.473588	1.854502	0.000219
1696	1.6865e+02	-12.4922	-75.199727	0.000345	3.446333	1.167649	0.000138
1697	1.6875e+02	-12.4328	-75.022093	0.000446	4.459961	1.511076	0.000179
1698	1.6885e+02	-12.4087	-74.852534	0.000426	4.257235	1.442390	0.000170
1699	1.6895e+02	-12.3638	-74.719308	0.000334	3.344971	1.133307	0.000134
1700	1.6905e+02	-12.3285	-74.529563	0.000476	4.764049	1.614104	0.000191
1701	1.6915e+02	-12.2724	-74.360003	0.000426	4.257235	1.442390	0.000170
1702	1.6925e+02	-12.2419	-74.190443	0.000426	4.257235	1.442390	0.000170
1703	1.6935e+02	-12.2082	-74.028958	0.000405	4.054510	1.373705	0.000162
1704	1.6945e+02	-12.1665	-73.879584	0.000375	3.750422	1.270677	0.000150
1705	1.6955e+02	-12.1280	-73.685801	0.000487	4.865412	1.648446	0.000195
1706	1.6965e+02	-12.0879	-73.483945	0.000507	5.068137	1.717131	0.000203
1707	1.6975e+02	-12.0462	-73.370905	0.000284	2.838157	0.961594	0.000114
1708	1.6985e+02	-11.9948	-73.189234	0.000456	4.561324	1.545418	0.000183
1709	1.6995e+02	-11.9676	-73.039860	0.000375	3.750422	1.270677	0.000150
1710	1.7005e+02	-11.9307	-72.829929	0.000527	5.270863	1.785817	0.000211
1711	1.7015e+02	-11.8890	-72.684592	0.000365	3.649059	1.236335	0.000146
1712	1.7024e+02	-11.8408	-72.486772	0.000497	4.966775	1.682789	0.000199
1713	1.7034e+02	-11.8055	-72.329324	0.000395	3.953147	1.339363	0.000158
1714	1.7044e+02	-11.7654	-72.151690	0.000446	4.459961	1.511076	0.000179
1715	1.7054e+02	-11.7269	-71.945796	0.000517	5.169500	1.751474	0.000207
1716	1.7064e+02	-11.6836	-71.796422	0.000375	3.750422	1.270677	0.000150
1717	1.7074e+02	-11.6419	-71.638974	0.000395	3.953147	1.339363	0.000158
1718	1.7084e+02	-11.5986	-71.441154	0.000497	4.966775	1.682789	0.000199
1719	1.7094e+02	-11.5681	-71.279669	0.000405	4.054510	1.373705	0.000162
1720	1.7104e+02	-11.5296	-71.142406	0.000345	3.446333	1.167649	0.000138
1721	1.7114e+02	-11.4879	-70.972846	0.000426	4.257235	1.442390	0.000170
1722	1.7124e+02	-11.4414	-70.799249	0.000436	4.358598	1.476733	0.000174
1723	1.7134e+02	-11.4093	-70.601430	0.000497	4.966775	1.682789	0.000199
1724	1.7144e+02	-11.3708	-70.460130	0.000355	3.547696	1.201992	0.000142
1725	1.7154e+02	-11.3355	-70.254236	0.000517	5.169500	1.751474	0.000207
1726	1.7164e+02	-11.2890	-70.084676	0.000426	4.257235	1.442390	0.000170
1727	1.7174e+02	-11.2441	-69.886857	0.000497	4.966775	1.682789	0.000199
1728	1.7184e+02	-11.2104	-69.733446	0.000385	3.851784	1.305020	0.000154
1729	1.7194e+02	-11.1703	-69.584072	0.000375	3.750422	1.270677	0.000150
1730	1.7204e+02	-11.1398	-69.394326	0.000476	4.764049	1.614104	0.000191
1731	1.7213e+02	-11.0917	-69.188432	0.000517	5.169500	1.751474	0.000207
1732	1.7223e+02	-11.0419	-68.998687	0.000476	4.764049	1.614104	0.000191
1733	1.7233e+02	-11.0050	-68.845276	0.000385	3.851784	1.305020	0.000154
1734	1.7243e+02	-10.9713	-68.687827	0.000395	3.953147	1.339363	0.000158
1735	1.7253e+02	-10.9377	-68.510193	0.000446	4.459961	1.511076	0.000179
1736	1.7263e+02	-10.8927	-68.316411	0.000487	4.865412	1.648446	0.000195
1737	1.7273e+02	-10.8446	-68.122628	0.000487	4.865412	1.648446	0.000195
1738	1.7283e+02	-10.8157	-67.993440	0.000324	3.243608	1.098964	0.000130
1739	1.7293e+02	-10.7772	-67.763323	0.000578	5.777677	1.957530	0.000231
1740	1.7303e+02	-10.7371	-67.605875	0.000395	3.953147	1.339363	0.000158
1741	1.7313e+02	-10.6906	-67.395944	0.000527	5.270863	1.785817	0.000211
1742	1.7323e+02	-10.6521	-67.226384	0.000426	4.257235	1.442390	0.000170
1743	1.7333e+02	-10.6120	-67.060862	0.000416	4.155873	1.408048	0.000166
1744	1.7343e+02	-10.5751	-66.814596	0.000618	6.183128	2.094900	0.000248
1745	1.7353e+02	-10.5334	-66.717705	0.000243	2.432706	0.824223	0.000097
1746	1.7363e+02	-10.4885	-66.544108	0.000436	4.358598	1.476733	0.000174
1747	1.7373e+02	-10.4468	-66.322066	0.000557	5.574951	1.888845	0.000223
1748	1.7383e+02	-10.4051	-66.160580	0.000405	4.054510	1.373705	0.000162
1749	1.7393e+02	-10.3778	-65.962761	0.000497	4.966775	1.682789	0.000199
1750	1.7403e+02	-10.3281	-65.789164	0.000436	4.358598	1.476733	0.000174
1751	1.7413e+02	-10.2847	-65.623641	0.000416	4.155873	1.408048	0.000166
1752	1.7422e+02	-10.2559	-65.413710	0.000527	5.270863	1.785817	0.000211
1753	1.7432e+02	-10.2174	-65.215891	0.000497	4.966775	1.682789	0.000199
1754	1.7442e+02	-10.1676	-65.074591	0.000355	3.547696	1.201992	0.000142
1755	1.7452e+02	-10.1339	-64.900994	0.000436	4.358598	1.476733	0.000174
1756	1.7462e+02	-10.0922	-64.695100	0.000517	5.169500	1.751474	0.000207
1757	1.7472e+02	-10.0521	-64.493243	0.000507	5.068137	1.717131	0.000203
1758	1.7482e+02	-10.0120	-64.303498	0.000476	4.764049	1.614104	0.000191
1759	1.7492e+02	-9.9671	-64.142013	0.000405	4.054510	1.373705	0.000162
1760	1.7502e+02	-9.9302	-63.948230	0.000487	4.865412	1.648446	0.000195
1761	1.7512e+02	-9.8981	-63.758485	0.000476	4.764049	1.614104	0.000191
1762	1.7522e+02	-9.8548	-63.552591	0.000517	5.169500	1.751474	0.000207
1763	1.7532e+02	-9.8163	-63.403217	0.000375	3.750422	1.270677	0.000150
1764	1.7542e+02	-9.7746	-63.245768	0.000395	3.953147	1.339363	0.000158
1765	1.7552e+02	-9.7409	-63.060060	0.000466	4.662686	1.579761	0.000187
1766	1.7562e+02	-9.6864	-62.821869	0.000598	5.980402	2.026215	0.000239
1767	1.7572e+02	-9.6463	-62.664421	0.000395	3.953147	1.339363	0.000158
1768	1.7582e+02	-9.6078	-62.490824	0.000436	4.358598	1.476733	0.000174
1769	1.7592e+02	-9.5741	-62.345487	0.000365	3.649059	1.236335	0.000146
1770	1.7602e+02	-9.5356	-62.135556	0.000527	5.270863	1.785817	0.000211
1771	1.7612e+02	-9.4971	-61.945811	0.000476	4.764049	1.614104	0.000191
1772	1.7621e+02	-9.4505	-61.792400	0.000385	3.851784	1.305020	0.000154
1773	1.7631e+02	-9.4233	-61.602654	0.000476	4.764049	1.614104	0.000191
1774	1.7641e+02	-9.3703	-61.412909	0.000476	4.764049	1.614104	0.000191
1775	1.7651e+02	-9.3366	-61.239312	0.000436	4.358598	1.476733	0.000174
1776	1.7661e+02	-9.2981	-61.049567	0.000476	4.764049	1.614104	0.000191
1777	1.7671e+02	-9.2532	-60.847710	0.000507	5.068137	1.717131	0.000203
1778	1.7681e+02	-9.2292	-60.674113	0.000436	4.358598	1.476733	0.000174
1779	1.7691e+02	-9.1730	-60.492442	0.000456	4.561324	1.545418	0.000183
1780	1.7701e+02	-9.1329	-60.298659	0.000487	4.865412	1.648446	0.000195
1781	1.7711e+02	-9.0992	-60.129100	0.000426	4.257235	1.442390	0.000170
1782	1.7721e+02	-9.0655	-59.931280	0.000497	4.966775	1.682789	0.000199
1783	1.7731e+02	-9.0206	-59.745572	0.000466	4.662686	1.579761	0.000187
1784	1.7741e+02	-8.9757	-59.543715	0.000507	5.068137	1.717131	0.000203
1785	1.7751e+02	-8.9500	-59.366081	0.000446	4.459961	1.511076	0.000179
1786	1.7761e+02	-8.8939	-59.204596	0.000405	4.054510	1.373705	0.000162
1787	1.7771e+02	-8.8650	-59.039073	0.000416	4.155873	1.408048	0.000166
1788	1.7781e+02	-8.8201	-58.873550	0.000416	4.155873	1.408048	0.000166
1789	1.7791e+02	-8.7655	-58.643434	0.000578	5.777677	1.957530	0.000231
1790	1.7801e+02	-8.7431	-58.469837	0.000436	4.358598	1.476733	0.000174
1791	1.7810e+02	-8.6998	-58.300277	0.000426	4.257235	1.442390	0.000170
1792	1.7820e+02	-8.6564	-58.054012	0.000618	6.183128	2.094900	0.000248
1793	1.7830e+02	-8.6228	-57.932898	0.000304	3.040882	1.030279	0.000122
1794	1.7840e+02	-8.5714	-57.706818	0.000568	5.676314	1.923187	0.000227
1795	1.7850e+02	-8.5345	-57.545333	0.000405	4.054510	1.373705	0.000162
1796	1.7860e+02	-8.4992	-57.323290	0.000557	5.574951	1.888845	0.000223
1797	1.7870e+02	-8.4591	-57.181991	0.000355	3.547696	1.201992	0.000142
1798	1.7880e+02	-8.4190	-57.016468	0.000416	4.155873	1.408048	0.000166
1799	1.7890e+02	-8.3805	-56.778277	0.000598	5.980402	2.026215	0.000239
1800	1.7900e+02	-8.3516	-56.600643	0.000446	4.459961	1.511076	0.000179
1801	1.7910e+02	-8.2955	-56.447232	0.000385	3.851784	1.305020	0.000154
1802	1.7920e+02	-8.2554	-56.213078	0.000588	5.879039	1.991872	0.000235
1803	1.7930e+02	-8.2217	-56.075815	0.000345	3.446333	1.167649	0.000138
1804	1.7940e+02	-8.1784	-55.865884	0.000527	5.270863	1.785817	0.000211
1805	1.7950e+02	-8.1399	-55.659990	0.000517	5.169500	1.751474	0.000207
1806	1.7960e+02	-8.1062	-55.486394	0.000436	4.358598	1.476733	0.000174
1807	1.7970e+02	-8.0597	-55.324908	0.000405	4.054510	1.373705	0.000162
1808	1.7980e+02	-8.0147	-55.098829	0.000568	5.676314	1.923187	0.000227
1809	1.7990e+02	-7.9795	-54.941380	0.000395	3.953147	1.339363	0.000158
1810	1.8000e+02	-7.9426	-54.751635	0.000476	4.764049	1.614104	0.000191
1811	1.8009e+02	-7.9008	-54.537667	0.000537	5.372226	1.820159	0.000215
1812	1.8019e+02	-7.8591	-54.323698	0.000537	5.372226	1.820159	0.000215
1813	1.8029e+02	-7.8271	-54.142027	0.000456	4.561324	1.545418	0.000183
1814	1.8039e+02	-7.7773	-53.988616	0.000385	3.851784	1.305020	0.000154
1815	1.8049e+02	-7.7404	-53.738314	0.000628	6.284490	2.129243	0.000252
1816	1.8059e+02	-7.7067	-53.564717	0.000436	4.358598	1.476733	0.000174
1817	1.8069e+02	-7.6682	-53.374972	0.000476	4.764049	1.614104	0.000191
1818	1.8079e+02	-7.6217	-53.189263	0.000466	4.662686	1.579761	0.000187
1819	1.8089e+02	-7.5912	-53.015667	0.000436	4.358598	1.476733	0.000174
1820	1.8099e+02	-7.5431	-52.797661	0.000547	5.473588	1.854502	0.000219
1821	1.8109e+02	-7.5046	-52.640213	0.000395	3.953147	1.339363	0.000158
1822	1.8119e+02	-7.4661	-52.434319	0.000517	5.169500	1.751474	0.000207
1823	1.8129e+02	-7.4164	-52.240536	0.000487	4.865412	1.648446	0.000195
1824	1.8139e+02	-7.3795	-52.083088	0.000395	3.953147	1.339363	0.000158
1825	1.8149e+02	-7.3394	-51.865083	0.000547	5.473588	1.854502	0.000219
1826	1.8159e+02	-7.2961	-51.663226	0.000507	5.068137	1.717131	0.000203
1827	1.8169e+02	-7.2543	-51.493666	0.000426	4.257235	1.442390	0.000170
1828	1.8179e+02	-7.2287	-51.336218	0.000395	3.953147	1.339363	0.000158
1829	1.8189e+02	-7.1870	-51.134361	0.000507	5.068137	1.717131	0.000203
1830	1.8199e+02	-7.1501	-50.900207	0.000588	5.879039	1.991872	0.000235
1831	1.8209e+02	-7.1051	-50.722573	0.000446	4.459961	1.511076	0.000179
1832	1.8218e+02	-7.0715	-50.524754	0.000497	4.966775	1.682789	0.000199
1833	1.8228e+02	-7.0185	-50.359231	0.000416	4.155873	1.408048	0.000166
1834	1.8238e+02	-6.9832	-50.161412	0.000497	4.966775	1.682789	0.000199
1835	1.8248e+02	-6.9383	-49.959555	0.000507	5.068137	1.717131	0.000203
1836	1.8258e+02	-6.8966	-49.753661	0.000517	5.169500	1.751474	0.000207
1837	1.8268e+02	-6.8613	-49.580064	0.000436	4.358598	1.476733	0.000174
1838	1.8278e+02	-6.8244	-49.362059	0.000547	5.473588	1.854502	0.000219
1839	1.8288e+02	-6.7875	-49.208648	0.000385	3.851784	1.305020	0.000154
1840	1.8298e+02	-6.7458	-49.006791	0.000507	5.068137	1.717131	0.000203
1841	1.8308e+02	-6.7201	-48.796860	0.000527	5.270863	1.785817	0.000211
1842	1.8318e+02	-6.6624	-48.615189	0.000456	4.561324	1.545418	0.000183
1843	1.8328e+02	-6.6255	-48.376998	0.000598	5.980402	2.026215	0.000239
1844	1.8338e+02	-6.5966	-48.239735	0.000345	3.446333	1.167649	0.000138
1845	1.8348e+02	-6.5469	-48.029804	0.000527	5.270863	1.785817	0.000211
1846	1.8358e+02	-6.5052	-47.848133	0.000456	4.561324	1.545418	0.000183
1847	1.8368e+02	-6.4715	-47.622053	0.000568	5.676314	1.923187	0.000227
1848	1.8378e+02	-6.4266	-47.452493	0.000426	4.257235	1.442390	0.000170
1849	1.8388e+02	-6.3961	-47.254674	0.000497	4.966775	1.682789	0.000199
1850	1.8398e+02	-6.3608	-47.028594	0.000568	5.676314	1.923187	0.000227
1851	1.8407e+02	-6.3143	-46.850960	0.000446	4.459961	1.511076	0.000179
1852	1.8417e+02	-6.2758	-46.645066	0.000517	5.169500	1.751474	0.000207
1853	1.8427e+02	-6.2260	-46.447247	0.000497	4.966775	1.682789	0.000199
1854	1.8437e+02	-6.1907	-46.233278	0.000537	5.372226	1.820159	0.000215
1855	1.8447e+02	-6.1570	-46.031422	0.000507	5.068137	1.717131	0.000203
1856	1.8457e+02	-6.1137	-45.865899	0.000416	4.155873	1.408048	0.000166
1857	1.8467e+02	-6.0688	-45.639820	0.000568	5.676314	1.923187	0.000227
1858	1.8477e+02	-6.0271	-45.429888	0.000527	5.270863	1.785817	0.000211
1859	1.8487e+02	-5.9982	-45.252254	0.000446	4.459961	1.511076	0.000179
1860	1.8497e+02	-5.9581	-45.018101	0.000588	5.879039	1.991872	0.000235
1861	1.8507e+02	-5.9132	-44.812207	0.000517	5.169500	1.751474	0.000207
1862	1.8517e+02	-5.8747	-44.646684	0.000416	4.155873	1.408048	0.000166
1863	1.8527e+02	-5.8362	-44.420605	0.000568	5.676314	1.923187	0.000227
1864	1.8537e+02	-5.7897	-44.222785	0.000497	4.966775	1.682789	0.000199
1865	1.8547e+02	-5.7512	-43.988631	0.000588	5.879039	1.991872	0.000235
1866	1.8557e+02	-5.7111	-43.802923	0.000466	4.662686	1.579761	0.000187
1867	1.8567e+02	-5.6726	-43.588955	0.000537	5.372226	1.820159	0.000215
1868	1.8577e+02	-5.6325	-43.419395	0.000426	4.257235	1.442390	0.000170
1869	1.8587e+02	-5.6004	-43.193315	0.000568	5.676314	1.923187	0.000227
1870	1.8597e+02	-5.5587	-42.914753	0.000699	6.994030	2.369641	0.000280
1871	1.8606e+02	-5.5089	-42.741156	0.000436	4.358598	1.476733	0.000174
1872	1.8616e+02	-5.4769	-42.551411	0.000476	4.764049	1.614104	0.000191
1873	1.8626e+02	-5.4367	-42.349554	0.000507	5.068137	1.717131	0.000203
1874	1.8636e+02	-5.4015	-42.091177	0.000649	6.487216	2.197928	0.000260
1875	1.8646e+02	-5.3469	-41.873172	0.000547	5.473588	1.854502	0.000219
1876	1.8656e+02	-5.3116	-41.707649	0.000416	4.155873	1.408048	0.000166
1877	1.8666e+02	-5.2747	-41.505793	0.000507	5.068137	1.717131	0.000203
1878	1.8676e+02	-5.2250	-41.295861	0.000527	5.270863	1.785817	0.000211
1879	1.8686e+02	-5.1849	-41.073819	0.000557	5.574951	1.888845	0.000223
1880	1.8696e+02	-5.1592	-40.863888	0.000527	5.270863	1.785817	0.000211
1881	1.8706e+02	-5.1143	-40.645883	0.000547	5.473588	1.854502	0.000219
1882	1.8716e+02	-5.0742	-40.468249	0.000446	4.459961	1.511076	0.000179
1883	1.8726e+02	-5.0325	-40.270429	0.000497	4.966775	1.682789	0.000199
1884	1.8736e+02	-5.0020	-40.032238	0.000598	5.980402	2.026215	0.000239
1885	1.8746e+02	-4.9635	-39.810196	0.000557	5.574951	1.888845	0.000223
1886	1.8756e+02	-4.9073	-39.624487	0.000466	4.662686	1.579761	0.000187
1887	1.8766e+02	-4.8721	-39.374185	0.000628	6.284490	2.129243	0.000252
1888	1.8776e+02	-4.8368	-39.127920	0.000618	6.183128	2.094900	0.000248
1889	1.8786e+02	-4.7934	-38.974508	0.000385	3.851784	1.305020	0.000154
1890	1.8796e+02	-4.7566	-38.772652	0.000507	5.068137	1.717131	0.000203
1891	1.8806e+02	-4.7180	-38.514275	0.000649	6.487216	2.197928	0.000260
1892	1.8815e+02	-4.6779	-38.292232	0.000557	5.574951	1.888845	0.000223
1893	1.8825e+02	-4.6362	-38.094413	0.000497	4.966775	1.682789	0.000199
1894	1.8835e+02	-4.6106	-37.904667	0.000476	4.764049	1.614104	0.000191
1895	1.8845e+02	-4.5576	-37.690699	0.000537	5.372226	1.820159	0.000215
1896	1.8855e+02	-4.5175	-37.460583	0.000578	5.777677	1.957530	0.000231
1897	1.8865e+02	-4.4694	-37.218354	0.000608	6.081765	2.060558	0.000243
1898	1.8875e+02	-4.4405	-37.020535	0.000497	4.966775	1.682789	0.000199
1899	1.8885e+02	-4.3940	-36.814641	0.000517	5.169500	1.751474	0.000207
1900	1.8895e+02	-4.3571	-36.576450	0.000598	5.980402	2.026215	0.000239
1901	1.8905e+02	-4.3122	-36.390742	0.000466	4.662686	1.579761	0.000187
1902	1.8915e+02	-4.2785	-36.136402	0.000639	6.385853	2.163586	0.000256
1903	1.8925e+02	-4.2368	-35.962805	0.000436	4.358598	1.476733	0.000174
1904	1.8935e+02	-4.2015	-35.708466	0.000639	6.385853	2.163586	0.000256
1905	1.8945e+02	-4.1582	-35.494497	0.000537	5.372226	1.820159	0.000215
1906	1.8955e+02	-4.1116	-35.260344	0.000588	5.879039	1.991872	0.000235
1907	1.8965e+02	-4.0828	-35.066561	0.000487	4.865412	1.648446	0.000195
1908	1.8975e+02	-4.0411	-34.824333	0.000608	6.081765	2.060558	0.000243
1909	1.8985e+02	-4.0058	-34.622476	0.000507	5.068137	1.717131	0.000203
1910	1.8995e+02	-3.9609	-34.396396	0.000568	5.676314	1.923187	0.000227
1911	1.9004e+02	-3.9223	-34.154168	0.000608	6.081765	2.060558	0.000243
1912	1.9014e+02	-3.8758	-33.928089	0.000568	5.676314	1.923187	0.000227
1913	1.9024e+02	-3.8389	-33.738343	0.000476	4.764049	1.614104	0.000191
1914	1.9034e+02	-3.7988	-33.492078	0.000618	6.183128	2.094900	0.000248
1915	1.9044e+02	-3.7571	-33.241776	0.000628	6.284490	2.129243	0.000252
1916	1.9054e+02	-3.7170	-33.031845	0.000527	5.270863	1.785817	0.000211
1917	1.9064e+02	-3.6817	-32.846136	0.000466	4.662686	1.579761	0.000187
1918	1.9074e+02	-3.6464	-32.559500	0.000720	7.196755	2.438327	0.000288
1919	1.9084e+02	-3.5935	-32.349569	0.000527	5.270863	1.785817	0.000211
1920	1.9094e+02	-3.5598	-32.192120	0.000395	3.953147	1.339363	0.000158
1921	1.9104e+02	-3.5197	-31.889335	0.000760	7.602206	2.575697	0.000304
1922	1.9114e+02	-3.4812	-31.743998	0.000365	3.649059	1.236335	0.000146
1923	1.9124e+02	-3.4443	-31.469473	0.000689	6.892667	2.335299	0.000276
1924	1.9134e+02	-3.3962	-31.267616	0.000507	5.068137	1.717131	0.000203
1925	1.9144e+02	-3.3609	-31.037500	0.000578	5.777677	1.957530	0.000231
1926	1.9154e+02	-3.3320	-30.807383	0.000578	5.777677	1.957530	0.000231
1927	1.9164e+02	-3.2742	-30.577266	0.000578	5.777677	1.957530	0.000231
1928	1.9174e+02	-3.2341	-30.359261	0.000547	5.473588	1.854502	0.000219
1929	1.9184e+02	-3.1988	-30.072624	0.000720	7.196755	2.438327	0.000288
1930	1.9194e+02	-3.1716	-29.899027	0.000436	4.358598	1.476733	0.000174
1931	1.9203e+02	-3.1379	-29.693133	0.000517	5.169500	1.751474	0.000207
1932	1.9213e+02	-3.0801	-29.422645	0.000679	6.791304	2.300956	0.000272
1933	1.9223e+02	-3.0480	-29.261160	0.000405	4.054510	1.373705	0.000162
1934	1.9233e+02	-3.0127	-29.018932	0.000608	6.081765	2.060558	0.000243
1935	1.9243e+02	-2.9646	-28.768629	0.000628	6.284490	2.129243	0.000252
1936	1.9253e+02	-2.9261	-28.562735	0.000517	5.169500	1.751474	0.000207
1937	1.9263e+02	-2.8828	-28.312433	0.000628	6.284490	2.129243	0.000252
1938	1.9273e+02	-2.8315	-28.106539	0.000517	5.169500	1.751474	0.000207
1939	1.9283e+02	-2.8042	-27.884497	0.000557	5.574951	1.888845	0.000223
1940	1.9293e+02	-2.7673	-27.634194	0.000628	6.284490	2.129243	0.000252
1941	1.9303e+02	-2.7224	-27.404077	0.000578	5.777677	1.957530	0.000231
1942	1.9313e+02	-2.6791	-27.210295	0.000487	4.865412	1.648446	0.000195
1943	1.9323e+02	-2.6454	-26.959992	0.000628	6.284490	2.129243	0.000252
1944	1.9333e+02	-2.6005	-26.754099	0.000517	5.169500	1.751474	0.000207
1945	1.9343e+02	-2.5684	-26.479573	0.000689	6.892667	2.335299	0.000276
1946	1.9353e+02	-2.5235	-26.301939	0.000446	4.459961	1.511076	0.000179
1947	1.9363e+02	-2.4850	-26.043563	0.000649	6.487216	2.197928	0.000260
1948	1.9373e+02	-2.4497	-25.841706	0.000507	5.068137	1.717131	0.000203
1949	1.9383e+02	-2.4015	-25.587366	0.000639	6.385853	2.163586	0.000256
1950	1.9393e+02	-2.3614	-25.349175	0.000598	5.980402	2.026215	0.000239
1951	1.9403e+02	-2.3277	-25.119059	0.000578	5.777677	1.957530	0.000231
1952	1.9412e+02	-2.2812	-24.884905	0.000588	5.879039	1.991872	0.000235
1953	1.9422e+02	-2.2443	-24.642677	0.000608	6.081765	2.060558	0.000243
1954	1.9432e+02	-2.2074	-24.461005	0.000456	4.561324	1.545418	0.000183
1955	1.9442e+02	-2.1721	-24.218777	0.000608	6.081765	2.060558	0.000243
1956	1.9452e+02	-2.1240	-24.004809	0.000537	5.372226	1.820159	0.000215
1957	1.9462e+02	-2.0855	-23.730284	0.000689	6.892667	2.335299	0.000276
1958	1.9472e+02	-2.0438	-23.504204	0.000568	5.676314	1.923187	0.000227
1959	1.9482e+02	-1.9941	-23.290236	0.000537	5.372226	1.820159	0.000215
1960	1.9492e+02	-1.9716	-23.080305	0.000527	5.270863	1.785817	0.000211
1961	1.9502e+02	-1.9267	-22.809817	0.000679	6.791304	2.300956	0.000272
1962	1.9512e+02	-1.8850	-22.579700	0.000578	5.777677	1.957530	0.000231
1963	1.9522e+02	-1.8385	-22.369769	0.000527	5.270863	1.785817	0.000211
1964	1.9532e+02	-1.8048	-22.119467	0.000628	6.284490	2.129243	0.000252
1965	1.9542e+02	-1.7727	-21.909536	0.000527	5.270863	1.785817	0.000211
1966	1.9552e+02	-1.7310	-21.667308	0.000608	6.081765	2.060558	0.000243
1967	1.9562e+02	-1.6893	-21.425079	0.000608	6.081765	2.060558	0.000243
1968	1.9572e+02	-1.6443	-21.207074	0.000547	5.473588	1.854502	0.000219
1969	1.9582e+02	-1.6123	-20.948697	0.000649	6.487216	2.197928	0.000260
1970	1.9592e+02	-1.5705	-20.730692	0.000547	5.473588	1.854502	0.000219
1971	1.9601e+02	-1.5256	-20.480390	0.000628	6.284490	2.129243	0.000252
1972	1.9611e+02	-1.4823	-20.274496	0.000517	5.169500	1.751474	0.000207
1973	1.9621e+02	-1.4470	-20.048416	0.000568	5.676314	1.923187	0.000227
1974	1.9631e+02	-1.4053	-19.806188	0.000608	6.081765	2.060558	0.000243
1975	1.9641e+02	-1.3636	-19.547811	0.000649	6.487216	2.197928	0.000260
1976	1.9651e+02	-1.3267	-19.317695	0.000578	5.777677	1.957530	0.000231
1977	1.9661e+02	-1.2866	-19.051244	0.000669	6.689941	2.266613	0.000268
1978	1.9671e+02	-1.2545	-18.809015	0.000608	6.081765	2.060558	0.000243
1979	1.9681e+02	-1.2080	-18.591010	0.000547	5.473588	1.854502	0.000219
1980	1.9691e+02	-1.1663	-18.344745	0.000618	6.183128	2.094900	0.000248
1981	1.9701e+02	-1.1342	-18.094442	0.000628	6.284490	2.129243	0.000252
1982	1.9711e+02	-1.0877	-17.860289	0.000588	5.879039	1.991872	0.000235
1983	1.9721e+02	-1.0476	-17.682655	0.000446	4.459961	1.511076	0.000179
1984	1.9731e+02	-1.0091	-17.404092	0.000699	6.994030	2.369641	0.000280
1985	1.9741e+02	-0.9706	-17.178013	0.000568	5.676314	1.923187	0.000227
1986	1.9751e+02	-0.9337	-16.919636	0.000649	6.487216	2.197928	0.000260
1987	1.9761e+02	-0.8936	-16.665296	0.000639	6.385853	2.163586	0.000256
1988	1.9771e+02	-0.8535	-16.451328	0.000537	5.372226	1.820159	0.000215
1989	1.9781e+02	-0.8117	-16.217174	0.000588	5.879039	1.991872	0.000235
1990	1.9791e+02	-0.7748	-15.970909	0.000618	6.183128	2.094900	0.000248
1991	1.9800e+02	-0.7267	-15.728681	0.000608	6.081765	2.060558	0.000243
1992	1.9810e+02	-0.6866	-15.490490	0.000598	5.980402	2.026215	0.000239
1993	1.9820e+02	-0.6465	-15.236150	0.000639	6.385853	2.163586	0.000256
1994	1.9830e+02	-0.6080	-14.997959	0.000598	5.980402	2.026215	0.000239
1995	1.9840e+02	-0.5679	-14.731508	0.000669	6.689941	2.266613	0.000268
1996	1.9850e+02	-0.5374	-14.582134	0.000375	3.750422	1.270677	0.000150
1997	1.9860e+02	-0.4893	-14.315683	0.000669	6.689941	2.266613	0.000268
1998	1.9870e+02	-0.4492	-14.045195	0.000679	6.791304	2.300956	0.000272
1999	1.9880e+02	-0.4171	-13.815078	0.000578	5.777677	1.957530	0.000231
2000	1.9890e+02	-0.3674	-13.568813	0.000618	6.183128	2.094900	0.000248
2001	1.9900e+02	-0.3273	-13.330622	0.000598	5.980402	2.026215	0.000239
2002	1.9910e+02	-0.2888	-13.116654	0.000537	5.372226	1.820159	0.000215
2003	1.9920e+02	-0.2551	-12.854240	0.000659	6.588579	2.232271	0.000264
2004	1.9930e+02	-0.2182	-12.628161	0.000568	5.676314	1.923187	0.000227
2005	1.9940e+02	-0.1765	-12.377858	0.000628	6.284490	2.129243	0.000252
2006	1.9950e+02	-0.1283	-12.107370	0.000679	6.791304	2.300956	0.000272
2007	1.9960e+02	-0.0898	-11.929736	0.000446	4.459961	1.511076	0.000179
2008	1.9970e+02	-0.0449	-11.630988	0.000750	7.500843	2.541355	0.000300
2009	1.9980e+02	-0.0128	-11.356463	0.000750	7.500843	2.541355	0.000276

Center data before PMax,+/-Pr and +/-Vc Calc.

PMax (uC/cm2):	1.01e+02
Pr (uC/cm2):	4.81e+00
-Pr (uC/cm2):	-1.14e+01
PLoss (uC/cm2):	-8.12e+00
Vc:	5.41e-01
-Vc:	-7.65e-01
C (Max-Eff) (nF):	5.08e-01
K (Eff):	1.72e+03
Vert. (+/-Pr) Shift (uC/cm2):	-3.28e+00
Horiz. Shift (+/-Vc):	-1.12e-01
Offset (uC/cm2):	3.17e+00

A (Loop Area - uC/cm2·Volts):	5.25e-02



Hysteresis Version: 5.48.1 - Radiant Technologies, Inc., 1999 - 9/12/24

