»»»»»»»»»»»»»»»»»»»»»»»»»»»»»»»»»»»» Hysteresis ««««««««««««««««««««««««««««««««««««
»»»  Executed Version:	5.48.1
»»»  Vision Version:	5.48.4 (R)
»»»  Vision Compiled:	9/18/24
»»»  Driver Version:	5.47.0
»»»  Windows Version:	Windows 8 or 8.1
»»»  Processor Information:	x86 (AMD or Intel) - 32 Processors
»»»  Tester Name:	PMF21124-494 (100V)
»»»  Tester S/N:	PMF21124-494
»»»  Internal Amp Type:	100V RevK 270k
»»»  Internal Amp S/N:	iAB2-596/K     
»»»  Execution Count:	1
»»»»»»»»»»»»»»»»»»»»»»»»»»»»»»»»»»»»»»»»»»««««««««««««««««««««««««««««««««««««««««««

Stored:	6/6/2025 - 11:37:19
Configured:	06/06/25 11:06:04 AM
Executed:	06/06/25 11:36:44 AM

»»»»»»»»»»»»»»»»»»»»»»»»»»»»»»»»»»» Sample Info ««««««««««««««««««««««««««««««««««««
Sample Name:	
Lot Name:	
Wafer Name:	
Die Row/Column:	0/0
Capacitor Number:	0
Sample Area (cm2):	1.00e-04
Sample Thickness (microns):	3.00e-01

Amplifier:	Internal

»»»»»»»»»»»»»»»»»»»»»»»»»»»»»»»»»»» Tester Info «««««««««««««««««««««««««««««««««««
Tester Name:	PMF21124-494 (100V)
Tester Serial Number:	PMF21124-494
Return Signal Amp. Level:	0.19 [Index: 3]

»»»»»»»»»»»»»»»»»»»»»»»»»»»»»»»» Hysteresis Info ««««««««««««««««««««««««««««««««««
Task Name:	Hyst-477
Volts:	20.00
Field:	666.67 (kV/cm)
DCBias:	0.00
DCField:	0.00 (kV/cm)
Hysteresis Period (ms):	2.00e+02
Preset:	Enabled
Preset Delay (ms):	1.00e+03
Profile:	Standard Bipolar

»»»»»»»»»»»»»»»»»»»»»»»»»»»»»»»»»»»»»» Data «««««««««««««««««««««««««««««««««««««««
Points:	2009

Valid Data

Point	Time (ms)	Drive Voltage	Measured Polarization (uC/cm2)	Capacitance (uF)	Normalized Capacitance (uF/cm2)	Dielectric Constant	Instantaneous Current (mA)
   1	0.0000e+00	-0.0160	-7.696799	0.000426	4.256211	1.442043	0.000170
   2	9.9500e-02	0.0160	-7.527240	0.000426	4.256211	1.442043	0.000170
   3	1.9900e-01	0.0449	-7.357680	0.000426	4.256211	1.442043	0.000170
   4	2.9850e-01	0.0882	-7.139675	0.000547	5.472271	1.854056	0.000219
   5	3.9800e-01	0.1299	-6.925706	0.000537	5.370933	1.819721	0.000215
   6	4.9750e-01	0.1588	-6.715775	0.000527	5.269594	1.785387	0.000211
   7	5.9700e-01	0.2150	-6.530067	0.000466	4.661564	1.579381	0.000187
   8	6.9650e-01	0.2535	-6.308025	0.000557	5.573610	1.888390	0.000223
   9	7.9600e-01	0.2888	-6.110205	0.000497	4.965579	1.682384	0.000199
  10	8.9550e-01	0.3353	-5.916422	0.000486	4.864241	1.648049	0.000195
  11	9.9500e-01	0.3738	-5.702454	0.000537	5.370933	1.819721	0.000215
  12	1.0945e+00	0.4123	-5.436003	0.000669	6.688331	2.266068	0.000268
  13	1.1940e+00	0.4508	-5.258369	0.000446	4.458888	1.510712	0.000179
  14	1.2935e+00	0.5005	-5.068624	0.000476	4.762903	1.613715	0.000191
  15	1.3930e+00	0.5294	-4.866767	0.000507	5.066918	1.716718	0.000203
  16	1.4925e+00	0.5663	-4.681059	0.000466	4.661564	1.579381	0.000187
  17	1.5920e+00	0.6000	-4.422682	0.000649	6.485655	2.197399	0.000260
  18	1.6915e+00	0.6577	-4.216788	0.000517	5.168256	1.751053	0.000207
  19	1.7910e+00	0.6770	-4.023006	0.000486	4.864241	1.648049	0.000195
  20	1.8905e+00	0.7315	-3.788852	0.000588	5.877625	1.991393	0.000235
  21	1.9900e+00	0.7716	-3.635441	0.000385	3.850857	1.304706	0.000154
  22	2.0895e+00	0.8053	-3.425510	0.000527	5.269594	1.785387	0.000211
  23	2.1890e+00	0.8486	-3.191356	0.000588	5.877625	1.991393	0.000235
  24	2.2885e+00	0.8807	-2.973350	0.000547	5.472271	1.854056	0.000219
  25	2.3880e+00	0.9289	-2.751308	0.000557	5.573610	1.888390	0.000223
  26	2.4875e+00	0.9786	-2.561563	0.000476	4.762903	1.613715	0.000191
  27	2.5870e+00	1.0059	-2.383929	0.000446	4.458888	1.510712	0.000179
  28	2.6865e+00	1.0460	-2.117478	0.000669	6.688331	2.266068	0.000268
  29	2.7860e+00	1.0845	-1.931769	0.000466	4.661564	1.579381	0.000187
  30	2.8855e+00	1.1230	-1.693578	0.000598	5.978963	2.025727	0.000239
  31	2.9850e+00	1.1647	-1.479610	0.000537	5.370933	1.819721	0.000215
  32	3.0845e+00	1.2064	-1.257568	0.000557	5.573610	1.888390	0.000223
  33	3.1840e+00	1.2497	-1.055711	0.000507	5.066918	1.716718	0.000203
  34	3.2835e+00	1.2754	-0.853854	0.000507	5.066918	1.716718	0.000203
  35	3.3830e+00	1.3219	-0.631812	0.000557	5.573610	1.888390	0.000223
  36	3.4825e+00	1.3732	-0.401695	0.000578	5.776286	1.957059	0.000231
  37	3.5820e+00	1.4053	-0.220024	0.000456	4.560226	1.545046	0.000183
  38	3.6815e+00	1.4470	-0.026241	0.000486	4.864241	1.648049	0.000195
  39	3.7810e+00	1.4951	0.191764	0.000547	5.472271	1.854056	0.000219
  40	3.8805e+00	1.5240	0.417844	0.000567	5.674948	1.922724	0.000227
  41	3.9800e+00	1.5561	0.623737	0.000517	5.168256	1.751053	0.000207
  42	4.0795e+00	1.6155	0.841743	0.000547	5.472271	1.854056	0.000219
  43	4.1790e+00	1.6347	1.100119	0.000649	6.485655	2.197399	0.000260
  44	4.2785e+00	1.6844	1.310051	0.000527	5.269594	1.785387	0.000211
  45	4.3780e+00	1.7197	1.503833	0.000486	4.864241	1.648049	0.000195
  46	4.4775e+00	1.7727	1.681467	0.000446	4.458888	1.510712	0.000179
  47	4.5770e+00	1.8064	1.935807	0.000638	6.384316	2.163065	0.000256
  48	4.6765e+00	1.8449	2.137663	0.000507	5.066918	1.716718	0.000203
  49	4.7760e+00	1.8834	2.319334	0.000456	4.560226	1.545046	0.000183
  50	4.8755e+00	1.9203	2.541377	0.000557	5.573610	1.888390	0.000223
  51	4.9750e+00	1.9684	2.795716	0.000638	6.384316	2.163065	0.000256
  52	5.0745e+00	1.9909	2.945091	0.000375	3.749519	1.270371	0.000150
  53	5.1740e+00	2.0470	3.179244	0.000588	5.877625	1.991393	0.000235
  54	5.2735e+00	2.0823	3.425510	0.000618	6.181640	2.094396	0.000248
  55	5.3730e+00	2.1224	3.627366	0.000507	5.066918	1.716718	0.000203
  56	5.4725e+00	2.1657	3.829223	0.000507	5.066918	1.716718	0.000203
  57	5.5720e+00	2.2074	4.047229	0.000547	5.472271	1.854056	0.000219
  58	5.6715e+00	2.2459	4.253123	0.000517	5.168256	1.751053	0.000207
  59	5.7710e+00	2.2764	4.467091	0.000537	5.370933	1.819721	0.000215
  60	5.8705e+00	2.3181	4.693170	0.000567	5.674948	1.922724	0.000227
  61	5.9700e+00	2.3678	4.870804	0.000446	4.458888	1.510712	0.000179
  62	6.0695e+00	2.4096	5.108995	0.000598	5.978963	2.025727	0.000239
  63	6.1690e+00	2.4465	5.314889	0.000517	5.168256	1.751053	0.000207
  64	6.2685e+00	2.4834	5.536932	0.000557	5.573610	1.888390	0.000223
  65	6.3680e+00	2.5283	5.730714	0.000486	4.864241	1.648049	0.000195
  66	6.4675e+00	2.5652	5.944682	0.000537	5.370933	1.819721	0.000215
  67	6.5670e+00	2.6037	6.215170	0.000679	6.789670	2.300402	0.000272
  68	6.6665e+00	2.6454	6.372619	0.000395	3.952196	1.339040	0.000158
  69	6.7660e+00	2.6839	6.602735	0.000578	5.776286	1.957059	0.000231
  70	6.8655e+00	2.7336	6.828815	0.000567	5.674948	1.922724	0.000227
  71	6.9650e+00	2.7625	7.014523	0.000466	4.661564	1.579381	0.000187
  72	7.0645e+00	2.8058	7.236566	0.000557	5.573610	1.888390	0.000223
  73	7.1640e+00	2.8523	7.470720	0.000588	5.877625	1.991393	0.000235
  74	7.2635e+00	2.8844	7.640279	0.000426	4.256211	1.442043	0.000170
  75	7.3630e+00	2.9229	7.870396	0.000578	5.776286	1.957059	0.000231
  76	7.4625e+00	2.9614	8.100513	0.000578	5.776286	1.957059	0.000231
  77	7.5620e+00	2.9999	8.294295	0.000486	4.864241	1.648049	0.000195
  78	7.6615e+00	3.0352	8.540561	0.000618	6.181640	2.094396	0.000248
  79	7.7610e+00	3.0785	8.750492	0.000527	5.269594	1.785387	0.000211
  80	7.8605e+00	3.1218	8.952348	0.000507	5.066918	1.716718	0.000203
  81	7.9600e+00	3.1571	9.129982	0.000446	4.458888	1.510712	0.000179
  82	8.0595e+00	3.2037	9.347988	0.000547	5.472271	1.854056	0.000219
  83	8.1590e+00	3.2454	9.598290	0.000628	6.282978	2.128731	0.000252
  84	8.2585e+00	3.2774	9.783998	0.000466	4.661564	1.579381	0.000187
  85	8.3580e+00	3.3208	9.965670	0.000456	4.560226	1.545046	0.000183
  86	8.4575e+00	3.3689	10.203861	0.000598	5.978963	2.025727	0.000239
  87	8.5570e+00	3.4090	10.361309	0.000395	3.952196	1.339040	0.000158
  88	8.6565e+00	3.4315	10.607574	0.000618	6.181640	2.094396	0.000248
  89	8.7560e+00	3.4812	10.837691	0.000578	5.776286	1.957059	0.000231
  90	8.8555e+00	3.5165	11.055696	0.000547	5.472271	1.854056	0.000219
  91	8.9550e+00	3.5582	11.225256	0.000426	4.256211	1.442043	0.000170
  92	9.0545e+00	3.5983	11.471521	0.000618	6.181640	2.094396	0.000248
  93	9.1540e+00	3.6336	11.669341	0.000497	4.965579	1.682384	0.000199
  94	9.2535e+00	3.6833	11.846975	0.000446	4.458888	1.510712	0.000179
  95	9.3530e+00	3.7202	12.069017	0.000557	5.573610	1.888390	0.000223
  96	9.4525e+00	3.7507	12.291060	0.000557	5.573610	1.888390	0.000223
  97	9.5520e+00	3.7940	12.505028	0.000537	5.370933	1.819721	0.000215
  98	9.6515e+00	3.8373	12.698810	0.000486	4.864241	1.648049	0.000195
  99	9.7510e+00	3.8742	12.945076	0.000618	6.181640	2.094396	0.000248
 100	9.8505e+00	3.9127	13.118673	0.000436	4.357549	1.476378	0.000174
 101	9.9500e+00	3.9480	13.336678	0.000547	5.472271	1.854056	0.000219
 102	1.0050e+01	4.0010	13.522386	0.000466	4.661564	1.579381	0.000187
 103	1.0149e+01	4.0395	13.744429	0.000557	5.573610	1.888390	0.000223
 104	1.0248e+01	4.0828	13.946285	0.000507	5.066918	1.716718	0.000203
 105	1.0348e+01	4.1277	14.192551	0.000618	6.181640	2.094396	0.000248
 106	1.0447e+01	4.1598	14.386333	0.000486	4.864241	1.648049	0.000195
 107	1.0547e+01	4.1967	14.563967	0.000446	4.458888	1.510712	0.000179
 108	1.0646e+01	4.2384	14.794084	0.000578	5.776286	1.957059	0.000231
 109	1.0746e+01	4.2769	15.016126	0.000557	5.573610	1.888390	0.000223
 110	1.0845e+01	4.3009	15.250280	0.000588	5.877625	1.991393	0.000235
 111	1.0945e+01	4.3555	15.444063	0.000486	4.864241	1.648049	0.000195
 112	1.1044e+01	4.3940	15.658031	0.000537	5.370933	1.819721	0.000215
 113	1.1144e+01	4.4325	15.880073	0.000557	5.573610	1.888390	0.000223
 114	1.1243e+01	4.4806	16.053670	0.000436	4.357549	1.476378	0.000174
 115	1.1343e+01	4.5095	16.295898	0.000608	6.080301	2.060062	0.000243
 116	1.1443e+01	4.5608	16.497755	0.000507	5.066918	1.716718	0.000203
 117	1.1542e+01	4.5881	16.711723	0.000537	5.370933	1.819721	0.000215
 118	1.1642e+01	4.6282	16.909543	0.000497	4.965579	1.682384	0.000199
 119	1.1741e+01	4.6779	17.119474	0.000527	5.269594	1.785387	0.000211
 120	1.1841e+01	4.7164	17.329405	0.000527	5.269594	1.785387	0.000211
 121	1.1940e+01	4.7501	17.511076	0.000456	4.560226	1.545046	0.000183
 122	1.2040e+01	4.7967	17.773490	0.000659	6.586993	2.231734	0.000264
 123	1.2139e+01	4.8432	17.967273	0.000486	4.864241	1.648049	0.000195
 124	1.2239e+01	4.8656	18.181241	0.000537	5.370933	1.819721	0.000215
 125	1.2338e+01	4.9090	18.399246	0.000547	5.472271	1.854056	0.000219
 126	1.2438e+01	4.9571	18.580917	0.000456	4.560226	1.545046	0.000183
 127	1.2537e+01	4.9892	18.790848	0.000527	5.269594	1.785387	0.000211
 128	1.2636e+01	5.0405	18.980594	0.000476	4.762903	1.613715	0.000191
 129	1.2736e+01	5.0678	19.202636	0.000557	5.573610	1.888390	0.000223
 130	1.2835e+01	5.1207	19.432753	0.000578	5.776286	1.957059	0.000231
 131	1.2935e+01	5.1528	19.610387	0.000446	4.458888	1.510712	0.000179
 132	1.3034e+01	5.1977	19.808206	0.000497	4.965579	1.682384	0.000199
 133	1.3134e+01	5.2330	20.102917	0.000740	7.397700	2.506409	0.000296
 134	1.3233e+01	5.2795	20.244217	0.000355	3.546842	1.201703	0.000142
 135	1.3333e+01	5.3132	20.470297	0.000567	5.674948	1.922724	0.000227
 136	1.3432e+01	5.3597	20.692339	0.000557	5.573610	1.888390	0.000223
 137	1.3532e+01	5.3966	20.886122	0.000486	4.864241	1.648049	0.000195
 138	1.3632e+01	5.4351	21.092016	0.000517	5.168256	1.751053	0.000207
 139	1.3731e+01	5.4688	21.338281	0.000618	6.181640	2.094396	0.000248
 140	1.3831e+01	5.5170	21.523989	0.000466	4.661564	1.579381	0.000187
 141	1.3930e+01	5.5587	21.741995	0.000547	5.472271	1.854056	0.000219
 142	1.4030e+01	5.5875	21.923666	0.000456	4.560226	1.545046	0.000183
 143	1.4129e+01	5.6357	22.153782	0.000578	5.776286	1.957059	0.000231
 144	1.4229e+01	5.6678	22.391973	0.000598	5.978963	2.025727	0.000239
 145	1.4328e+01	5.6966	22.569607	0.000446	4.458888	1.510712	0.000179
 146	1.4428e+01	5.7496	22.775501	0.000517	5.168256	1.751053	0.000207
 147	1.4527e+01	5.7945	23.001581	0.000567	5.674948	1.922724	0.000227
 148	1.4627e+01	5.8282	23.203438	0.000507	5.066918	1.716718	0.000203
 149	1.4726e+01	5.8795	23.413369	0.000527	5.269594	1.785387	0.000211
 150	1.4825e+01	5.9100	23.619263	0.000517	5.168256	1.751053	0.000207
 151	1.4925e+01	5.9469	23.804971	0.000466	4.661564	1.579381	0.000187
 152	1.5024e+01	5.9902	24.027013	0.000557	5.573610	1.888390	0.000223
 153	1.5124e+01	6.0319	24.253093	0.000567	5.674948	1.922724	0.000227
 154	1.5223e+01	6.0704	24.487247	0.000588	5.877625	1.991393	0.000235
 155	1.5323e+01	6.1041	24.648732	0.000405	4.053534	1.373375	0.000162
 156	1.5422e+01	6.1538	24.862700	0.000537	5.370933	1.819721	0.000215
 157	1.5522e+01	6.1939	25.084743	0.000557	5.573610	1.888390	0.000223
 158	1.5621e+01	6.2308	25.339082	0.000638	6.384316	2.163065	0.000256
 159	1.5721e+01	6.2629	25.496531	0.000395	3.952196	1.339040	0.000158
 160	1.5820e+01	6.3143	25.714536	0.000547	5.472271	1.854056	0.000219
 161	1.5920e+01	6.3528	25.928504	0.000537	5.370933	1.819721	0.000215
 162	1.6020e+01	6.3897	26.138435	0.000527	5.269594	1.785387	0.000211
 163	1.6119e+01	6.4346	26.336255	0.000497	4.965579	1.682384	0.000199
 164	1.6218e+01	6.4715	26.513889	0.000446	4.458888	1.510712	0.000179
 165	1.6318e+01	6.4971	26.715746	0.000507	5.066918	1.716718	0.000203
 166	1.6418e+01	6.5501	26.974122	0.000649	6.485655	2.197399	0.000260
 167	1.6517e+01	6.5918	27.163868	0.000476	4.762903	1.613715	0.000191
 168	1.6616e+01	6.6303	27.398022	0.000588	5.877625	1.991393	0.000235
 169	1.6716e+01	6.6544	27.595841	0.000497	4.965579	1.682384	0.000199
 170	1.6816e+01	6.6945	27.801735	0.000517	5.168256	1.751053	0.000207
 171	1.6915e+01	6.7378	28.007629	0.000517	5.168256	1.751053	0.000207
 172	1.7015e+01	6.7747	28.201412	0.000486	4.864241	1.648049	0.000195
 173	1.7114e+01	6.8228	28.407306	0.000517	5.168256	1.751053	0.000207
 174	1.7213e+01	6.8709	28.637422	0.000578	5.776286	1.957059	0.000231
 175	1.7313e+01	6.9062	28.819093	0.000456	4.560226	1.545046	0.000183
 176	1.7413e+01	6.9367	29.073433	0.000638	6.384316	2.163065	0.000256
 177	1.7512e+01	6.9864	29.283364	0.000527	5.269594	1.785387	0.000211
 178	1.7611e+01	7.0201	29.501369	0.000547	5.472271	1.854056	0.000219
 179	1.7711e+01	7.0618	29.670929	0.000426	4.256211	1.442043	0.000170
 180	1.7811e+01	7.1051	29.892972	0.000557	5.573610	1.888390	0.000223
 181	1.7910e+01	7.1404	30.090791	0.000497	4.965579	1.682384	0.000199
 182	1.8009e+01	7.1822	30.345131	0.000638	6.384316	2.163065	0.000256
 183	1.8109e+01	7.2239	30.506616	0.000405	4.053534	1.373375	0.000162
 184	1.8209e+01	7.2624	30.748844	0.000608	6.080301	2.060062	0.000243
 185	1.8308e+01	7.2977	30.950701	0.000507	5.066918	1.716718	0.000203
 186	1.8407e+01	7.3474	31.136409	0.000466	4.661564	1.579381	0.000187
 187	1.8507e+01	7.3779	31.366526	0.000578	5.776286	1.957059	0.000231
 188	1.8607e+01	7.4212	31.536086	0.000426	4.256211	1.442043	0.000170
 189	1.8706e+01	7.4741	31.766203	0.000578	5.776286	1.957059	0.000231
 190	1.8805e+01	7.5094	31.951911	0.000466	4.661564	1.579381	0.000187
 191	1.8905e+01	7.5479	32.165879	0.000537	5.370933	1.819721	0.000215
 192	1.9005e+01	7.5816	32.383884	0.000547	5.472271	1.854056	0.000219
 193	1.9104e+01	7.6281	32.601890	0.000547	5.472271	1.854056	0.000219
 194	1.9203e+01	7.6634	32.763375	0.000405	4.053534	1.373375	0.000162
 195	1.9303e+01	7.7003	32.961195	0.000497	4.965579	1.682384	0.000199
 196	1.9402e+01	7.7388	33.179200	0.000547	5.472271	1.854056	0.000219
 197	1.9502e+01	7.7821	33.397205	0.000547	5.472271	1.854056	0.000219
 198	1.9602e+01	7.8238	33.615211	0.000547	5.472271	1.854056	0.000219
 199	1.9701e+01	7.8575	33.837253	0.000557	5.573610	1.888390	0.000223
 200	1.9800e+01	7.9057	34.026999	0.000476	4.762903	1.613715	0.000191
 201	1.9900e+01	7.9329	34.208670	0.000456	4.560226	1.545046	0.000183
 202	2.0000e+01	7.9875	34.402452	0.000486	4.864241	1.648049	0.000195
 203	2.0099e+01	8.0180	34.604309	0.000507	5.066918	1.716718	0.000203
 204	2.0198e+01	8.0645	34.790017	0.000466	4.661564	1.579381	0.000187
 205	2.0298e+01	8.0918	34.991874	0.000507	5.066918	1.716718	0.000203
 206	2.0398e+01	8.1399	35.250251	0.000649	6.485655	2.197399	0.000260
 207	2.0497e+01	8.1864	35.439996	0.000476	4.762903	1.613715	0.000191
 208	2.0596e+01	8.2185	35.593407	0.000385	3.850857	1.304706	0.000154
 209	2.0696e+01	8.2554	35.847747	0.000638	6.384316	2.163065	0.000256
 210	2.0796e+01	8.2987	36.045566	0.000497	4.965579	1.682384	0.000199
 211	2.0895e+01	8.3468	36.215126	0.000426	4.256211	1.442043	0.000170
 212	2.0994e+01	8.3837	36.445243	0.000578	5.776286	1.957059	0.000231
 213	2.1094e+01	8.4142	36.630951	0.000466	4.661564	1.579381	0.000187
 214	2.1194e+01	8.4543	36.857031	0.000567	5.674948	1.922724	0.000227
 215	2.1293e+01	8.4960	37.018516	0.000405	4.053534	1.373375	0.000162
 216	2.1392e+01	8.5409	37.252670	0.000588	5.877625	1.991393	0.000235
 217	2.1492e+01	8.5875	37.478750	0.000567	5.674948	1.922724	0.000227
 218	2.1591e+01	8.6308	37.632161	0.000385	3.850857	1.304706	0.000154
 219	2.1691e+01	8.6484	37.842092	0.000527	5.269594	1.785387	0.000211
 220	2.1791e+01	8.6949	38.023763	0.000456	4.560226	1.545046	0.000183
 221	2.1890e+01	8.7383	38.241768	0.000547	5.472271	1.854056	0.000219
 222	2.1989e+01	8.7816	38.451699	0.000527	5.269594	1.785387	0.000211
 223	2.2089e+01	8.8121	38.605110	0.000385	3.850857	1.304706	0.000154
 224	2.2189e+01	8.8634	38.867524	0.000659	6.586993	2.231734	0.000264
 225	2.2288e+01	8.8955	39.012861	0.000365	3.648181	1.236037	0.000146
 226	2.2387e+01	8.9340	39.234904	0.000557	5.573610	1.888390	0.000223
 227	2.2487e+01	8.9821	39.384278	0.000375	3.749519	1.270371	0.000150
 228	2.2587e+01	9.0206	39.614394	0.000578	5.776286	1.957059	0.000231
 229	2.2686e+01	9.0607	39.816251	0.000507	5.066918	1.716718	0.000203
 230	2.2785e+01	9.0976	40.030219	0.000537	5.370933	1.819721	0.000215
 231	2.2885e+01	9.1329	40.211891	0.000456	4.560226	1.545046	0.000183
 232	2.2985e+01	9.1698	40.413747	0.000507	5.066918	1.716718	0.000203
 233	2.3084e+01	9.2131	40.587344	0.000436	4.357549	1.476378	0.000174
 234	2.3183e+01	9.2596	40.817461	0.000578	5.776286	1.957059	0.000231
 235	2.3283e+01	9.2997	41.023355	0.000517	5.168256	1.751053	0.000207
 236	2.3383e+01	9.3318	41.196952	0.000436	4.357549	1.476378	0.000174
 237	2.3482e+01	9.3751	41.382660	0.000466	4.661564	1.579381	0.000187
 238	2.3581e+01	9.4168	41.596628	0.000537	5.370933	1.819721	0.000215
 239	2.3681e+01	9.4602	41.798485	0.000507	5.066918	1.716718	0.000203
 240	2.3780e+01	9.4955	41.988230	0.000476	4.762903	1.613715	0.000191
 241	2.3880e+01	9.5340	42.177976	0.000476	4.762903	1.613715	0.000191
 242	2.3980e+01	9.5660	42.363684	0.000466	4.661564	1.579381	0.000187
 243	2.4079e+01	9.6270	42.553429	0.000476	4.762903	1.613715	0.000191
 244	2.4178e+01	9.6543	42.787583	0.000588	5.877625	1.991393	0.000235
 245	2.4278e+01	9.7024	42.977328	0.000476	4.762903	1.613715	0.000191
 246	2.4378e+01	9.7393	43.146888	0.000426	4.256211	1.442043	0.000170
 247	2.4477e+01	9.7714	43.332596	0.000466	4.661564	1.579381	0.000187
 248	2.4576e+01	9.8243	43.530416	0.000497	4.965579	1.682384	0.000199
 249	2.4676e+01	9.8516	43.724199	0.000486	4.864241	1.648049	0.000195
 250	2.4776e+01	9.8949	43.893758	0.000426	4.256211	1.442043	0.000170
 251	2.4875e+01	9.9318	44.075429	0.000456	4.560226	1.545046	0.000183
 252	2.4974e+01	9.9735	44.277286	0.000507	5.066918	1.716718	0.000203
 253	2.5074e+01	10.0120	44.462994	0.000466	4.661564	1.579381	0.000187
 254	2.5174e+01	10.0537	44.685037	0.000557	5.573610	1.888390	0.000223
 255	2.5273e+01	10.0938	44.846522	0.000405	4.053534	1.373375	0.000162
 256	2.5372e+01	10.1291	45.020119	0.000436	4.357549	1.476378	0.000174
 257	2.5472e+01	10.1676	45.234087	0.000537	5.370933	1.819721	0.000215
 258	2.5572e+01	10.2093	45.395573	0.000405	4.053534	1.373375	0.000162
 259	2.5671e+01	10.2430	45.649912	0.000638	6.384316	2.163065	0.000256
 260	2.5770e+01	10.2928	45.787175	0.000345	3.445504	1.167368	0.000138
 261	2.5870e+01	10.3345	45.997106	0.000527	5.269594	1.785387	0.000211
 262	2.5970e+01	10.3730	46.186851	0.000476	4.762903	1.613715	0.000191
 263	2.6069e+01	10.4131	46.364485	0.000446	4.458888	1.510712	0.000179
 264	2.6169e+01	10.4596	46.546156	0.000456	4.560226	1.545046	0.000183
 265	2.6268e+01	10.4885	46.768199	0.000557	5.573610	1.888390	0.000223
 266	2.6367e+01	10.5270	46.941796	0.000436	4.357549	1.476378	0.000174
 267	2.6467e+01	10.5655	47.115393	0.000436	4.357549	1.476378	0.000174
 268	2.6567e+01	10.6104	47.313212	0.000497	4.965579	1.682384	0.000199
 269	2.6666e+01	10.6441	47.498921	0.000466	4.661564	1.579381	0.000187
 270	2.6765e+01	10.6986	47.644257	0.000365	3.648181	1.236037	0.000146
 271	2.6865e+01	10.7371	47.858226	0.000537	5.370933	1.819721	0.000215
 272	2.6965e+01	10.7724	48.060082	0.000507	5.066918	1.716718	0.000203
 273	2.7064e+01	10.8045	48.229642	0.000426	4.256211	1.442043	0.000170
 274	2.7163e+01	10.8510	48.447647	0.000547	5.472271	1.854056	0.000219
 275	2.7263e+01	10.8847	48.613170	0.000415	4.154873	1.407709	0.000166
 276	2.7363e+01	10.9296	48.794841	0.000456	4.560226	1.545046	0.000183
 277	2.7462e+01	10.9697	49.008809	0.000537	5.370933	1.819721	0.000215
 278	2.7561e+01	11.0131	49.190480	0.000456	4.560226	1.545046	0.000183
 279	2.7661e+01	11.0419	49.388300	0.000497	4.965579	1.682384	0.000199
 280	2.7761e+01	11.0885	49.549785	0.000405	4.053534	1.373375	0.000162
 281	2.7860e+01	11.1334	49.771828	0.000557	5.573610	1.888390	0.000223
 282	2.7959e+01	11.1687	49.977722	0.000517	5.168256	1.751053	0.000207
 283	2.8059e+01	11.2088	50.147282	0.000426	4.256211	1.442043	0.000170
 284	2.8159e+01	11.2489	50.312804	0.000415	4.154873	1.407709	0.000166
 285	2.8258e+01	11.2890	50.482364	0.000426	4.256211	1.442043	0.000170
 286	2.8358e+01	11.3275	50.704406	0.000557	5.573610	1.888390	0.000223
 287	2.8457e+01	11.3724	50.906263	0.000507	5.066918	1.716718	0.000203
 288	2.8556e+01	11.4125	51.031414	0.000314	3.141489	1.064365	0.000126
 289	2.8656e+01	11.4382	51.200974	0.000426	4.256211	1.442043	0.000170
 290	2.8756e+01	11.4927	51.443202	0.000608	6.080301	2.060062	0.000243
 291	2.8855e+01	11.5232	51.612762	0.000426	4.256211	1.442043	0.000170
 292	2.8954e+01	11.5665	51.802507	0.000476	4.762903	1.613715	0.000191
 293	2.9054e+01	11.6082	51.988215	0.000466	4.661564	1.579381	0.000187
 294	2.9154e+01	11.6467	52.153738	0.000415	4.154873	1.407709	0.000166
 295	2.9253e+01	11.6949	52.339446	0.000466	4.661564	1.579381	0.000187
 296	2.9352e+01	11.7269	52.533229	0.000486	4.864241	1.648049	0.000195
 297	2.9452e+01	11.7622	52.731048	0.000497	4.965579	1.682384	0.000199
 298	2.9552e+01	11.8072	52.912720	0.000456	4.560226	1.545046	0.000183
 299	2.9651e+01	11.8585	53.130725	0.000547	5.472271	1.854056	0.000219
 300	2.9750e+01	11.8938	53.300285	0.000426	4.256211	1.442043	0.000170
 301	2.9850e+01	11.9178	53.457733	0.000395	3.952196	1.339040	0.000158
 302	2.9950e+01	11.9628	53.651515	0.000486	4.864241	1.648049	0.000195
 303	3.0049e+01	12.0125	53.837224	0.000466	4.661564	1.579381	0.000187
 304	3.0148e+01	12.0462	54.018895	0.000456	4.560226	1.545046	0.000183
 305	3.0248e+01	12.0847	54.212677	0.000486	4.864241	1.648049	0.000195
 306	3.0348e+01	12.1232	54.410497	0.000497	4.965579	1.682384	0.000199
 307	3.0447e+01	12.1697	54.584094	0.000436	4.357549	1.476378	0.000174
 308	3.0547e+01	12.2098	54.798062	0.000537	5.370933	1.819721	0.000215
 309	3.0646e+01	12.2435	54.963585	0.000415	4.154873	1.407709	0.000166
 310	3.0745e+01	12.2852	55.116996	0.000385	3.850857	1.304706	0.000154
 311	3.0845e+01	12.3221	55.335001	0.000547	5.472271	1.854056	0.000219
 312	3.0945e+01	12.3590	55.524746	0.000476	4.762903	1.613715	0.000191
 313	3.1044e+01	12.4023	55.714492	0.000476	4.762903	1.613715	0.000191
 314	3.1143e+01	12.4505	55.884051	0.000426	4.256211	1.442043	0.000170
 315	3.1243e+01	12.4890	56.069760	0.000466	4.661564	1.579381	0.000187
 316	3.1343e+01	12.5387	56.271616	0.000507	5.066918	1.716718	0.000203
 317	3.1442e+01	12.5611	56.412916	0.000355	3.546842	1.201703	0.000142
 318	3.1541e+01	12.6093	56.586513	0.000436	4.357549	1.476378	0.000174
 319	3.1641e+01	12.6446	56.792407	0.000517	5.168256	1.751053	0.000207
 320	3.1741e+01	12.6847	56.966004	0.000436	4.357549	1.476378	0.000174
 321	3.1840e+01	12.7216	57.200158	0.000588	5.877625	1.991393	0.000235
 322	3.1939e+01	12.7713	57.345495	0.000365	3.648181	1.236037	0.000146
 323	3.2039e+01	12.7938	57.575611	0.000578	5.776286	1.957059	0.000231
 324	3.2139e+01	12.8403	57.769394	0.000486	4.864241	1.648049	0.000195
 325	3.2238e+01	12.8868	57.910694	0.000355	3.546842	1.201703	0.000142
 326	3.2337e+01	12.9317	58.104476	0.000486	4.864241	1.648049	0.000195
 327	3.2437e+01	12.9606	58.261924	0.000395	3.952196	1.339040	0.000158
 328	3.2536e+01	12.9991	58.407261	0.000365	3.648181	1.236037	0.000146
 329	3.2636e+01	13.0424	58.637378	0.000578	5.776286	1.957059	0.000231
 330	3.2736e+01	13.0697	58.831161	0.000486	4.864241	1.648049	0.000195
 331	3.2835e+01	13.1178	59.004757	0.000436	4.357549	1.476378	0.000174
 332	3.2934e+01	13.1563	59.146057	0.000355	3.546842	1.201703	0.000142
 333	3.3034e+01	13.2044	59.347914	0.000507	5.066918	1.716718	0.000203
 334	3.3133e+01	13.2445	59.549771	0.000507	5.066918	1.716718	0.000203
 335	3.3233e+01	13.2750	59.699145	0.000375	3.749519	1.270371	0.000150
 336	3.3333e+01	13.3183	59.933299	0.000588	5.877625	1.991393	0.000235
 337	3.3432e+01	13.3552	60.110933	0.000446	4.458888	1.510712	0.000179
 338	3.3532e+01	13.4002	60.300678	0.000476	4.762903	1.613715	0.000191
 339	3.3631e+01	13.4419	60.494460	0.000486	4.864241	1.648049	0.000195
 340	3.3730e+01	13.4788	60.672094	0.000446	4.458888	1.510712	0.000179
 341	3.3830e+01	13.5205	60.841654	0.000426	4.256211	1.442043	0.000170
 342	3.3929e+01	13.5654	61.039474	0.000497	4.965579	1.682384	0.000199
 343	3.4029e+01	13.5991	61.229219	0.000476	4.762903	1.613715	0.000191
 344	3.4129e+01	13.6392	61.390705	0.000405	4.053534	1.373375	0.000162
 345	3.4228e+01	13.6809	61.584487	0.000486	4.864241	1.648049	0.000195
 346	3.4328e+01	13.7130	61.778270	0.000486	4.864241	1.648049	0.000195
 347	3.4427e+01	13.7595	61.963978	0.000466	4.661564	1.579381	0.000187
 348	3.4526e+01	13.8044	62.133538	0.000426	4.256211	1.442043	0.000170
 349	3.4626e+01	13.8381	62.331357	0.000497	4.965579	1.682384	0.000199
 350	3.4725e+01	13.8702	62.492843	0.000405	4.053534	1.373375	0.000162
 351	3.4825e+01	13.9167	62.714885	0.000557	5.573610	1.888390	0.000223
 352	3.4925e+01	13.9568	62.880408	0.000415	4.154873	1.407709	0.000166
 353	3.5024e+01	13.9985	63.049967	0.000426	4.256211	1.442043	0.000170
 354	3.5123e+01	14.0338	63.219527	0.000426	4.256211	1.442043	0.000170
 355	3.5223e+01	14.0836	63.385050	0.000415	4.154873	1.407709	0.000166
 356	3.5322e+01	14.1124	63.615166	0.000578	5.776286	1.957059	0.000231
 357	3.5422e+01	14.1638	63.760503	0.000365	3.648181	1.236037	0.000146
 358	3.5522e+01	14.1991	63.954286	0.000486	4.864241	1.648049	0.000195
 359	3.5621e+01	14.2344	64.119808	0.000415	4.154873	1.407709	0.000166
 360	3.5721e+01	14.2777	64.333777	0.000537	5.370933	1.819721	0.000215
 361	3.5820e+01	14.3146	64.499299	0.000415	4.154873	1.407709	0.000166
 362	3.5919e+01	14.3547	64.680970	0.000456	4.560226	1.545046	0.000183
 363	3.6019e+01	14.3884	64.862641	0.000456	4.560226	1.545046	0.000183
 364	3.6118e+01	14.4333	65.052387	0.000476	4.762903	1.613715	0.000191
 365	3.6218e+01	14.4734	65.205798	0.000385	3.850857	1.304706	0.000154
 366	3.6318e+01	14.5135	65.423803	0.000547	5.472271	1.854056	0.000219
 367	3.6417e+01	14.5600	65.561066	0.000345	3.445504	1.167368	0.000138
 368	3.6517e+01	14.5985	65.758885	0.000497	4.965579	1.682384	0.000199
 369	3.6616e+01	14.6354	65.956705	0.000497	4.965579	1.682384	0.000199
 370	3.6715e+01	14.6739	66.122228	0.000415	4.154873	1.407709	0.000166
 371	3.6815e+01	14.7044	66.287750	0.000415	4.154873	1.407709	0.000166
 372	3.6914e+01	14.7525	66.485570	0.000497	4.965579	1.682384	0.000199
 373	3.7014e+01	14.7942	66.651092	0.000415	4.154873	1.407709	0.000166
 374	3.7114e+01	14.8392	66.856986	0.000517	5.168256	1.751053	0.000207
 375	3.7213e+01	14.8761	67.014435	0.000395	3.952196	1.339040	0.000158
 376	3.7313e+01	14.9113	67.200143	0.000466	4.661564	1.579381	0.000187
 377	3.7412e+01	14.9498	67.349517	0.000375	3.749519	1.270371	0.000150
 378	3.7511e+01	14.9932	67.559448	0.000527	5.269594	1.785387	0.000211
 379	3.7611e+01	15.0268	67.729008	0.000426	4.256211	1.442043	0.000170
 380	3.7711e+01	15.0750	67.934902	0.000517	5.168256	1.751053	0.000207
 381	3.7810e+01	15.1119	68.064090	0.000324	3.242827	1.098700	0.000130
 382	3.7910e+01	15.1472	68.310355	0.000618	6.181640	2.094396	0.000248
 383	3.8009e+01	15.1985	68.435506	0.000314	3.141489	1.064365	0.000126
 384	3.8108e+01	15.2370	68.633326	0.000497	4.965579	1.682384	0.000199
 385	3.8208e+01	15.2627	68.798849	0.000415	4.154873	1.407709	0.000166
 386	3.8307e+01	15.3076	68.984557	0.000466	4.661564	1.579381	0.000187
 387	3.8407e+01	15.3541	69.117782	0.000334	3.344166	1.133034	0.000134
 388	3.8507e+01	15.3910	69.287342	0.000426	4.256211	1.442043	0.000170
 389	3.8606e+01	15.4263	69.497273	0.000527	5.269594	1.785387	0.000211
 390	3.8706e+01	15.4680	69.666833	0.000426	4.256211	1.442043	0.000170
 391	3.8805e+01	15.5097	69.852541	0.000466	4.661564	1.579381	0.000187
 392	3.8904e+01	15.5466	70.046324	0.000486	4.864241	1.648049	0.000195
 393	3.9004e+01	15.5835	70.223958	0.000446	4.458888	1.510712	0.000179
 394	3.9103e+01	15.6332	70.381406	0.000395	3.952196	1.339040	0.000158
 395	3.9203e+01	15.6750	70.567114	0.000466	4.661564	1.579381	0.000187
 396	3.9303e+01	15.7119	70.708414	0.000355	3.546842	1.201703	0.000142
 397	3.9402e+01	15.7552	70.918345	0.000527	5.269594	1.785387	0.000211
 398	3.9502e+01	15.7937	71.075793	0.000395	3.952196	1.339040	0.000158
 399	3.9601e+01	15.8274	71.261501	0.000466	4.661564	1.579381	0.000187
 400	3.9700e+01	15.8610	71.427024	0.000415	4.154873	1.407709	0.000166
 401	3.9800e+01	15.9028	71.596584	0.000426	4.256211	1.442043	0.000170
 402	3.9900e+01	15.9445	71.766143	0.000426	4.256211	1.442043	0.000170
 403	3.9999e+01	15.9894	71.976075	0.000527	5.269594	1.785387	0.000211
 404	4.0099e+01	16.0215	72.133523	0.000395	3.952196	1.339040	0.000158
 405	4.0198e+01	16.0664	72.303083	0.000426	4.256211	1.442043	0.000170
 406	4.0297e+01	16.1113	72.468605	0.000415	4.154873	1.407709	0.000166
 407	4.0397e+01	16.1450	72.630090	0.000405	4.053534	1.373375	0.000162
 408	4.0496e+01	16.1835	72.831947	0.000507	5.066918	1.716718	0.000203
 409	4.0596e+01	16.2172	72.985358	0.000385	3.850857	1.304706	0.000154
 410	4.0696e+01	16.2717	73.167030	0.000456	4.560226	1.545046	0.000183
 411	4.0795e+01	16.3038	73.316404	0.000375	3.749519	1.270371	0.000150
 412	4.0895e+01	16.3471	73.494038	0.000446	4.458888	1.510712	0.000179
 413	4.0994e+01	16.3888	73.712043	0.000547	5.472271	1.854056	0.000219
 414	4.1093e+01	16.4257	73.861417	0.000375	3.749519	1.270371	0.000150
 415	4.1193e+01	16.4723	74.035014	0.000436	4.357549	1.476378	0.000174
 416	4.1292e+01	16.5060	74.204573	0.000426	4.256211	1.442043	0.000170
 417	4.1392e+01	16.5445	74.390282	0.000466	4.661564	1.579381	0.000187
 418	4.1492e+01	16.5830	74.563879	0.000436	4.357549	1.476378	0.000174
 419	4.1591e+01	16.6247	74.749587	0.000466	4.661564	1.579381	0.000187
 420	4.1691e+01	16.6664	74.931258	0.000456	4.560226	1.545046	0.000183
 421	4.1790e+01	16.7113	75.028149	0.000243	2.432121	0.824025	0.000097
 422	4.1889e+01	16.7450	75.230006	0.000507	5.066918	1.716718	0.000203
 423	4.1989e+01	16.7835	75.391491	0.000405	4.053534	1.373375	0.000162
 424	4.2089e+01	16.8172	75.581237	0.000476	4.762903	1.613715	0.000191
 425	4.2188e+01	16.8541	75.766945	0.000466	4.661564	1.579381	0.000187
 426	4.2288e+01	16.9006	75.932468	0.000415	4.154873	1.407709	0.000166
 427	4.2387e+01	16.9535	76.102027	0.000426	4.256211	1.442043	0.000170
 428	4.2486e+01	16.9920	76.299847	0.000497	4.965579	1.682384	0.000199
 429	4.2586e+01	17.0193	76.481518	0.000456	4.560226	1.545046	0.000183
 430	4.2685e+01	17.0626	76.626855	0.000365	3.648181	1.236037	0.000146
 431	4.2785e+01	17.0979	76.780266	0.000385	3.850857	1.304706	0.000154
 432	4.2885e+01	17.1476	76.986160	0.000517	5.168256	1.751053	0.000207
 433	4.2984e+01	17.1894	77.159757	0.000436	4.357549	1.476378	0.000174
 434	4.3084e+01	17.2279	77.301057	0.000355	3.546842	1.201703	0.000142
 435	4.3183e+01	17.2664	77.482728	0.000456	4.560226	1.545046	0.000183
 436	4.3282e+01	17.3065	77.712844	0.000578	5.776286	1.957059	0.000231
 437	4.3382e+01	17.3434	77.829921	0.000294	2.938812	0.995697	0.000118
 438	4.3481e+01	17.3883	78.011592	0.000456	4.560226	1.545046	0.000183
 439	4.3581e+01	17.4156	78.189226	0.000446	4.458888	1.510712	0.000179
 440	4.3681e+01	17.4637	78.399157	0.000527	5.269594	1.785387	0.000211
 441	4.3780e+01	17.5006	78.504123	0.000263	2.634797	0.892693	0.000105
 442	4.3880e+01	17.5455	78.722128	0.000547	5.472271	1.854056	0.000219
 443	4.3979e+01	17.5760	78.911874	0.000476	4.762903	1.613715	0.000191
 444	4.4078e+01	17.6209	79.061248	0.000375	3.749519	1.270371	0.000150
 445	4.4178e+01	17.6610	79.279253	0.000547	5.472271	1.854056	0.000219
 446	4.4278e+01	17.6963	79.416516	0.000345	3.445504	1.167368	0.000138
 447	4.4377e+01	17.7428	79.590113	0.000436	4.357549	1.476378	0.000174
 448	4.4477e+01	17.7829	79.796006	0.000517	5.168256	1.751053	0.000207
 449	4.4576e+01	17.8166	79.945380	0.000375	3.749519	1.270371	0.000150
 450	4.4675e+01	17.8663	80.114940	0.000426	4.256211	1.442043	0.000170
 451	4.4775e+01	17.9048	80.304686	0.000476	4.762903	1.613715	0.000191
 452	4.4874e+01	17.9417	80.470208	0.000415	4.154873	1.407709	0.000166
 453	4.4974e+01	17.9915	80.680139	0.000527	5.269594	1.785387	0.000211
 454	4.5074e+01	18.0284	80.829513	0.000375	3.749519	1.270371	0.000150
 455	4.5173e+01	18.0701	81.027333	0.000497	4.965579	1.682384	0.000199
 456	4.5273e+01	18.0957	81.188818	0.000405	4.053534	1.373375	0.000162
 457	4.5372e+01	18.1359	81.354341	0.000415	4.154873	1.407709	0.000166
 458	4.5471e+01	18.1872	81.527938	0.000436	4.357549	1.476378	0.000174
 459	4.5571e+01	18.2225	81.733832	0.000517	5.168256	1.751053	0.000207
 460	4.5670e+01	18.2578	81.887243	0.000385	3.850857	1.304706	0.000154
 461	4.5770e+01	18.3011	82.085062	0.000497	4.965579	1.682384	0.000199
 462	4.5870e+01	18.3460	82.266734	0.000456	4.560226	1.545046	0.000183
 463	4.5969e+01	18.3781	82.440330	0.000436	4.357549	1.476378	0.000174
 464	4.6069e+01	18.4166	82.605853	0.000415	4.154873	1.407709	0.000166
 465	4.6168e+01	18.4679	82.795598	0.000476	4.762903	1.613715	0.000191
 466	4.6267e+01	18.5048	83.001492	0.000517	5.168256	1.751053	0.000207
 467	4.6367e+01	18.5401	83.150866	0.000375	3.749519	1.270371	0.000150
 468	4.6467e+01	18.5834	83.348686	0.000497	4.965579	1.682384	0.000199
 469	4.6566e+01	18.6251	83.530357	0.000456	4.560226	1.545046	0.000183
 470	4.6666e+01	18.6588	83.691842	0.000405	4.053534	1.373375	0.000162
 471	4.6765e+01	18.6941	83.881588	0.000476	4.762903	1.613715	0.000191
 472	4.6864e+01	18.7374	84.063259	0.000456	4.560226	1.545046	0.000183
 473	4.6964e+01	18.7727	84.257041	0.000486	4.864241	1.648049	0.000195
 474	4.7063e+01	18.8144	84.450824	0.000486	4.864241	1.648049	0.000195
 475	4.7163e+01	18.8562	84.600198	0.000375	3.749519	1.270371	0.000150
 476	4.7263e+01	18.9027	84.785906	0.000466	4.661564	1.579381	0.000187
 477	4.7362e+01	18.9380	84.971614	0.000466	4.661564	1.579381	0.000187
 478	4.7462e+01	18.9845	85.169434	0.000497	4.965579	1.682384	0.000199
 479	4.7561e+01	19.0118	85.330920	0.000405	4.053534	1.373375	0.000162
 480	4.7660e+01	19.0615	85.540851	0.000527	5.269594	1.785387	0.000211
 481	4.7760e+01	19.1032	85.718485	0.000446	4.458888	1.510712	0.000179
 482	4.7859e+01	19.1321	85.920341	0.000507	5.066918	1.716718	0.000203
 483	4.7959e+01	19.1786	86.057604	0.000345	3.445504	1.167368	0.000138
 484	4.8059e+01	19.2203	86.271572	0.000537	5.370933	1.819721	0.000215
 485	4.8158e+01	19.2572	86.465355	0.000486	4.864241	1.648049	0.000195
 486	4.8258e+01	19.3005	86.659137	0.000486	4.864241	1.648049	0.000195
 487	4.8357e+01	19.3454	86.865031	0.000517	5.168256	1.751053	0.000207
 488	4.8456e+01	19.3743	87.046702	0.000456	4.560226	1.545046	0.000183
 489	4.8556e+01	19.4112	87.228373	0.000456	4.560226	1.545046	0.000183
 490	4.8656e+01	19.4513	87.450416	0.000557	5.573610	1.888390	0.000223
 491	4.8755e+01	19.4994	87.668421	0.000547	5.472271	1.854056	0.000219
 492	4.8855e+01	19.5283	87.874315	0.000517	5.168256	1.751053	0.000207
 493	4.8954e+01	19.5716	88.084246	0.000527	5.269594	1.785387	0.000211
 494	4.9053e+01	19.6101	88.229583	0.000365	3.648181	1.236037	0.000146
 495	4.9153e+01	19.6486	88.423366	0.000486	4.864241	1.648049	0.000195
 496	4.9252e+01	19.6855	88.649445	0.000567	5.674948	1.922724	0.000227
 497	4.9352e+01	19.7433	88.851302	0.000507	5.066918	1.716718	0.000203
 498	4.9452e+01	19.7706	89.085456	0.000588	5.877625	1.991393	0.000235
 499	4.9551e+01	19.8187	89.311535	0.000567	5.674948	1.922724	0.000227
 500	4.9651e+01	19.8508	89.497244	0.000466	4.661564	1.579381	0.000187
 501	4.9750e+01	19.8909	89.707175	0.000527	5.269594	1.785387	0.000211
 502	4.9849e+01	19.9358	89.921143	0.000537	5.370933	1.819721	0.000215
 503	4.9949e+01	19.9727	90.175482	0.000638	6.384316	2.163065	0.000256
 504	5.0048e+01	19.9326	90.143185	0.000081	0.810707	0.274675	-0.000032
 505	5.0148e+01	19.8989	90.070517	0.000182	1.824090	0.618019	-0.000073
 506	5.0248e+01	19.8508	90.022071	0.000122	1.216060	0.412012	-0.000049
 507	5.0347e+01	19.8187	90.013997	0.000020	0.202677	0.068669	-0.000008
 508	5.0447e+01	19.7706	89.961514	0.000132	1.317399	0.446347	-0.000053
 509	5.0546e+01	19.7401	89.892883	0.000172	1.722752	0.583684	-0.000069
 510	5.0645e+01	19.6887	89.868660	0.000061	0.608030	0.206006	-0.000024
 511	5.0745e+01	19.6551	89.832326	0.000091	0.912045	0.309009	-0.000037
 512	5.0844e+01	19.6085	89.719286	0.000284	2.837474	0.961362	-0.000114
 513	5.0944e+01	19.5893	89.691026	0.000071	0.709368	0.240341	-0.000028
 514	5.1044e+01	19.5347	89.610283	0.000203	2.026767	0.686687	-0.000081
 515	5.1143e+01	19.4962	89.614321	-0.000010	-0.101338	-0.034334	0.000004
 516	5.1242e+01	19.4561	89.477058	0.000345	3.445504	1.167368	-0.000138
 517	5.1342e+01	19.4241	89.456872	0.000051	0.506692	0.171672	-0.000020
 518	5.1441e+01	19.3759	89.368055	0.000223	2.229444	0.755356	-0.000089
 519	5.1541e+01	19.3374	89.311535	0.000142	1.418737	0.480681	-0.000057
 520	5.1641e+01	19.2973	89.263090	0.000122	1.216060	0.412012	-0.000049
 521	5.1740e+01	19.2588	89.186384	0.000193	1.925429	0.652353	-0.000077
 522	5.1840e+01	19.2203	89.077381	0.000274	2.736136	0.927028	-0.000110
 523	5.1939e+01	19.1786	89.032973	0.000111	1.114722	0.377678	-0.000045
 524	5.2038e+01	19.1417	88.944156	0.000223	2.229444	0.755356	-0.000089
 525	5.2138e+01	19.0920	88.843228	0.000253	2.533459	0.858359	-0.000101
 526	5.2237e+01	19.0583	88.798819	0.000111	1.114722	0.377678	-0.000045
 527	5.2337e+01	19.0246	88.738262	0.000152	1.520075	0.515015	-0.000061
 528	5.2437e+01	18.9797	88.633297	0.000263	2.634797	0.892693	-0.000105
 529	5.2536e+01	18.9332	88.516220	0.000294	2.938812	0.995697	-0.000118
 530	5.2636e+01	18.9059	88.459700	0.000142	1.418737	0.480681	-0.000057
 531	5.2735e+01	18.8578	88.358771	0.000253	2.533459	0.858359	-0.000101
 532	5.2834e+01	18.8241	88.257843	0.000253	2.533459	0.858359	-0.000101
 533	5.2934e+01	18.7727	88.136729	0.000304	3.040151	1.030031	-0.000122
 534	5.3033e+01	18.7390	88.080209	0.000142	1.418737	0.480681	-0.000057
 535	5.3133e+01	18.6973	87.967169	0.000284	2.837474	0.961362	-0.000114
 536	5.3233e+01	18.6524	87.922761	0.000111	1.114722	0.377678	-0.000045
 537	5.3332e+01	18.6171	87.825869	0.000243	2.432121	0.824025	-0.000097
 538	5.3431e+01	18.5706	87.684570	0.000355	3.546842	1.201703	-0.000142
 539	5.3531e+01	18.5385	87.607864	0.000193	1.925429	0.652353	-0.000077
 540	5.3630e+01	18.5016	87.555381	0.000132	1.317399	0.446347	-0.000053
 541	5.3730e+01	18.4567	87.482713	0.000182	1.824090	0.618019	-0.000073
 542	5.3830e+01	18.4198	87.345450	0.000345	3.445504	1.167368	-0.000138
 543	5.3929e+01	18.3781	87.256633	0.000223	2.229444	0.755356	-0.000089
 544	5.4029e+01	18.3428	87.143593	0.000284	2.837474	0.961362	-0.000114
 545	5.4128e+01	18.3011	87.054776	0.000223	2.229444	0.755356	-0.000089
 546	5.4227e+01	18.2626	86.953848	0.000253	2.533459	0.858359	-0.000101
 547	5.4327e+01	18.2225	86.852920	0.000253	2.533459	0.858359	-0.000101
 548	5.4426e+01	18.1952	86.760066	0.000233	2.330782	0.789690	-0.000093
 549	5.4526e+01	18.1375	86.634914	0.000314	3.141489	1.064365	-0.000126
 550	5.4626e+01	18.0957	86.538023	0.000243	2.432121	0.824025	-0.000097
 551	5.4725e+01	18.0653	86.477466	0.000152	1.520075	0.515015	-0.000061
 552	5.4825e+01	18.0107	86.332129	0.000365	3.648181	1.236037	-0.000146
 553	5.4924e+01	17.9851	86.215052	0.000294	2.938812	0.995697	-0.000118
 554	5.5023e+01	17.9466	86.122198	0.000233	2.330782	0.789690	-0.000093
 555	5.5123e+01	17.9000	86.041455	0.000203	2.026767	0.686687	-0.000081
 556	5.5222e+01	17.8535	85.908230	0.000334	3.344166	1.133034	-0.000134
 557	5.5322e+01	17.8262	85.803264	0.000263	2.634797	0.892693	-0.000105
 558	5.5422e+01	17.7845	85.661965	0.000355	3.546842	1.201703	-0.000142
 559	5.5521e+01	17.7412	85.609482	0.000132	1.317399	0.446347	-0.000053
 560	5.5620e+01	17.7107	85.476256	0.000334	3.344166	1.133034	-0.000134
 561	5.5720e+01	17.6658	85.359179	0.000294	2.938812	0.995697	-0.000118
 562	5.5819e+01	17.6241	85.274400	0.000213	2.128105	0.721022	-0.000085
 563	5.5919e+01	17.5856	85.149248	0.000314	3.141489	1.064365	-0.000126
 564	5.6019e+01	17.5455	85.032171	0.000294	2.938812	0.995697	-0.000118
 565	5.6118e+01	17.5054	84.939317	0.000233	2.330782	0.789690	-0.000093
 566	5.6218e+01	17.4637	84.789943	0.000375	3.749519	1.270371	-0.000150
 567	5.6317e+01	17.4316	84.680941	0.000274	2.736136	0.927028	-0.000110
 568	5.6416e+01	17.3883	84.584049	0.000243	2.432121	0.824025	-0.000097
 569	5.6516e+01	17.3337	84.450824	0.000334	3.344166	1.133034	-0.000134
 570	5.6615e+01	17.3081	84.357970	0.000233	2.330782	0.789690	-0.000093
 571	5.6715e+01	17.2583	84.236856	0.000304	3.040151	1.030031	-0.000122
 572	5.6815e+01	17.2230	84.111705	0.000314	3.141489	1.064365	-0.000126
 573	5.6914e+01	17.1797	83.962331	0.000375	3.749519	1.270371	-0.000150
 574	5.7014e+01	17.1460	83.861402	0.000253	2.533459	0.858359	-0.000101
 575	5.7113e+01	17.1059	83.796808	0.000162	1.621414	0.549350	-0.000065
 576	5.7212e+01	17.0706	83.635323	0.000405	4.053534	1.373375	-0.000162
 577	5.7312e+01	17.0145	83.481911	0.000385	3.850857	1.304706	-0.000154
 578	5.7411e+01	16.9904	83.385020	0.000243	2.432121	0.824025	-0.000097
 579	5.7511e+01	16.9471	83.296203	0.000223	2.229444	0.755356	-0.000089
 580	5.7611e+01	16.9022	83.142792	0.000385	3.850857	1.304706	-0.000154
 581	5.7710e+01	16.8669	83.037826	0.000263	2.634797	0.892693	-0.000105
 582	5.7809e+01	16.8300	82.904601	0.000334	3.344166	1.133034	-0.000134
 583	5.7909e+01	16.7851	82.783487	0.000304	3.040151	1.030031	-0.000122
 584	5.8008e+01	16.7546	82.654299	0.000324	3.242827	1.098700	-0.000130
 585	5.8108e+01	16.7017	82.557407	0.000243	2.432121	0.824025	-0.000097
 586	5.8208e+01	16.6664	82.420145	0.000345	3.445504	1.167368	-0.000138
 587	5.8307e+01	16.6343	82.307105	0.000284	2.837474	0.961362	-0.000114
 588	5.8407e+01	16.5878	82.157731	0.000375	3.749519	1.270371	-0.000150
 589	5.8506e+01	16.5509	82.028542	0.000324	3.242827	1.098700	-0.000130
 590	5.8605e+01	16.5108	81.879168	0.000375	3.749519	1.270371	-0.000150
 591	5.8705e+01	16.4739	81.762092	0.000294	2.938812	0.995697	-0.000118
 592	5.8804e+01	16.4257	81.636940	0.000314	3.141489	1.064365	-0.000126
 593	5.8904e+01	16.3840	81.544086	0.000233	2.330782	0.789690	-0.000093
 594	5.9004e+01	16.3519	81.394712	0.000375	3.749519	1.270371	-0.000150
 595	5.9103e+01	16.2958	81.241301	0.000385	3.850857	1.304706	-0.000154
 596	5.9203e+01	16.2765	81.136335	0.000263	2.634797	0.892693	-0.000105
 597	5.9302e+01	16.2316	80.990999	0.000365	3.648181	1.236037	-0.000146
 598	5.9401e+01	16.1931	80.861810	0.000324	3.242827	1.098700	-0.000130
 599	5.9501e+01	16.1434	80.716473	0.000365	3.648181	1.236037	-0.000146
 600	5.9600e+01	16.1081	80.554988	0.000405	4.053534	1.373375	-0.000162
 601	5.9700e+01	16.0712	80.429837	0.000314	3.141489	1.064365	-0.000126
 602	5.9800e+01	16.0327	80.324871	0.000263	2.634797	0.892693	-0.000105
 603	5.9899e+01	15.9942	80.215869	0.000274	2.736136	0.927028	-0.000110
 604	5.9998e+01	15.9493	80.082643	0.000334	3.344166	1.133034	-0.000134
 605	6.0098e+01	15.9140	79.949418	0.000334	3.344166	1.133034	-0.000134
 606	6.0197e+01	15.8691	79.800044	0.000375	3.749519	1.270371	-0.000150
 607	6.0297e+01	15.8322	79.678929	0.000304	3.040151	1.030031	-0.000122
 608	6.0397e+01	15.7937	79.553778	0.000314	3.141489	1.064365	-0.000126
 609	6.0496e+01	15.7488	79.416516	0.000345	3.445504	1.167368	-0.000138
 610	6.0596e+01	15.7086	79.323662	0.000233	2.330782	0.789690	-0.000093
 611	6.0695e+01	15.6734	79.137953	0.000466	4.661564	1.579381	-0.000187
 612	6.0794e+01	15.6300	79.000691	0.000345	3.445504	1.167368	-0.000138
 613	6.0894e+01	15.5915	78.883614	0.000294	2.938812	0.995697	-0.000118
 614	6.0993e+01	15.5482	78.766537	0.000294	2.938812	0.995697	-0.000118
 615	6.1093e+01	15.5113	78.605051	0.000405	4.053534	1.373375	-0.000162
 616	6.1193e+01	15.4680	78.492012	0.000284	2.837474	0.961362	-0.000114
 617	6.1292e+01	15.4295	78.350712	0.000355	3.546842	1.201703	-0.000142
 618	6.1392e+01	15.3926	78.197301	0.000385	3.850857	1.304706	-0.000154
 619	6.1491e+01	15.3493	78.084261	0.000284	2.837474	0.961362	-0.000114
 620	6.1590e+01	15.3108	77.898553	0.000466	4.661564	1.579381	-0.000187
 621	6.1690e+01	15.2627	77.789550	0.000274	2.736136	0.927028	-0.000110
 622	6.1789e+01	15.2290	77.680547	0.000274	2.736136	0.927028	-0.000110
 623	6.1889e+01	15.1905	77.523099	0.000395	3.952196	1.339040	-0.000158
 624	6.1989e+01	15.1568	77.373725	0.000375	3.749519	1.270371	-0.000150
 625	6.2088e+01	15.1167	77.252611	0.000304	3.040151	1.030031	-0.000122
 626	6.2188e+01	15.0766	77.058828	0.000486	4.864241	1.648049	-0.000195
 627	6.2287e+01	15.0301	76.994234	0.000162	1.621414	0.549350	-0.000065
 628	6.2386e+01	14.9932	76.869083	0.000314	3.141489	1.064365	-0.000126
 629	6.2486e+01	14.9466	76.663189	0.000517	5.168256	1.751053	-0.000207
 630	6.2586e+01	14.9146	76.513815	0.000375	3.749519	1.270371	-0.000150
 631	6.2685e+01	14.8728	76.364441	0.000375	3.749519	1.270371	-0.000150
 632	6.2785e+01	14.8343	76.219104	0.000365	3.648181	1.236037	-0.000146
 633	6.2884e+01	14.7926	76.093953	0.000314	3.141489	1.064365	-0.000126
 634	6.2983e+01	14.7525	75.948616	0.000365	3.648181	1.236037	-0.000146
 635	6.3083e+01	14.7124	75.811353	0.000345	3.445504	1.167368	-0.000138
 636	6.3182e+01	14.6755	75.641794	0.000426	4.256211	1.442043	-0.000170
 637	6.3282e+01	14.6354	75.520680	0.000304	3.040151	1.030031	-0.000122
 638	6.3382e+01	14.5985	75.415714	0.000263	2.634797	0.892693	-0.000105
 639	6.3481e+01	14.5568	75.254229	0.000405	4.053534	1.373375	-0.000162
 640	6.3581e+01	14.5247	75.121003	0.000334	3.344166	1.133034	-0.000134
 641	6.3680e+01	14.4846	75.012001	0.000274	2.736136	0.927028	-0.000110
 642	6.3779e+01	14.4381	74.834367	0.000446	4.458888	1.510712	-0.000179
 643	6.3879e+01	14.3900	74.684993	0.000375	3.749519	1.270371	-0.000150
 644	6.3978e+01	14.3515	74.527544	0.000395	3.952196	1.339040	-0.000158
 645	6.4078e+01	14.3226	74.394319	0.000334	3.344166	1.133034	-0.000134
 646	6.4177e+01	14.2793	74.253019	0.000355	3.546842	1.201703	-0.000142
 647	6.4277e+01	14.2360	74.091534	0.000405	4.053534	1.373375	-0.000162
 648	6.4376e+01	14.2023	73.986568	0.000263	2.634797	0.892693	-0.000105
 649	6.4476e+01	14.1590	73.812971	0.000436	4.357549	1.476378	-0.000174
 650	6.4576e+01	14.1092	73.651486	0.000405	4.053534	1.373375	-0.000162
 651	6.4675e+01	14.0755	73.522297	0.000324	3.242827	1.098700	-0.000130
 652	6.4775e+01	14.0370	73.364849	0.000395	3.952196	1.339040	-0.000158
 653	6.4874e+01	13.9921	73.235661	0.000324	3.242827	1.098700	-0.000130
 654	6.4974e+01	13.9568	73.037841	0.000497	4.965579	1.682384	-0.000199
 655	6.5073e+01	13.9151	72.912690	0.000314	3.141489	1.064365	-0.000126
 656	6.5172e+01	13.8798	72.779465	0.000334	3.344166	1.133034	-0.000134
 657	6.5272e+01	13.8413	72.634128	0.000365	3.648181	1.236037	-0.000146
 658	6.5371e+01	13.8060	72.521088	0.000284	2.837474	0.961362	-0.000114
 659	6.5471e+01	13.7579	72.323268	0.000497	4.965579	1.682384	-0.000199
 660	6.5570e+01	13.7178	72.169857	0.000385	3.850857	1.304706	-0.000154
 661	6.5670e+01	13.6761	72.036632	0.000334	3.344166	1.133034	-0.000134
 662	6.5769e+01	13.6344	71.895332	0.000355	3.546842	1.201703	-0.000142
 663	6.5869e+01	13.6007	71.725772	0.000426	4.256211	1.442043	-0.000170
 664	6.5969e+01	13.5574	71.596584	0.000324	3.242827	1.098700	-0.000130
 665	6.6068e+01	13.5060	71.471433	0.000314	3.141489	1.064365	-0.000126
 666	6.6168e+01	13.4643	71.309947	0.000405	4.053534	1.373375	-0.000162
 667	6.6267e+01	13.4371	71.128276	0.000456	4.560226	1.545046	-0.000183
 668	6.6367e+01	13.3986	70.982939	0.000365	3.648181	1.236037	-0.000146
 669	6.6466e+01	13.3536	70.845676	0.000345	3.445504	1.167368	-0.000138
 670	6.6566e+01	13.3248	70.704377	0.000355	3.546842	1.201703	-0.000142
 671	6.6665e+01	13.2766	70.538854	0.000415	4.154873	1.407709	-0.000166
 672	6.6764e+01	13.2301	70.389480	0.000375	3.749519	1.270371	-0.000150
 673	6.6864e+01	13.2012	70.276440	0.000284	2.837474	0.961362	-0.000114
 674	6.6963e+01	13.1563	70.123029	0.000385	3.850857	1.304706	-0.000154
 675	6.7063e+01	13.1178	69.921172	0.000507	5.066918	1.716718	-0.000203
 676	6.7162e+01	13.0809	69.783910	0.000345	3.445504	1.167368	-0.000138
 677	6.7262e+01	13.0344	69.614350	0.000426	4.256211	1.442043	-0.000170
 678	6.7362e+01	12.9975	69.525533	0.000223	2.229444	0.755356	-0.000089
 679	6.7461e+01	12.9574	69.351936	0.000436	4.357549	1.476378	-0.000174
 680	6.7561e+01	12.9253	69.182377	0.000426	4.256211	1.442043	-0.000170
 681	6.7660e+01	12.8852	69.024928	0.000395	3.952196	1.339040	-0.000158
 682	6.7760e+01	12.8435	68.891703	0.000334	3.344166	1.133034	-0.000134
 683	6.7859e+01	12.8066	68.705995	0.000466	4.661564	1.579381	-0.000187
 684	6.7959e+01	12.7633	68.609103	0.000243	2.432121	0.824025	-0.000097
 685	6.8058e+01	12.7200	68.411284	0.000497	4.965579	1.682384	-0.000199
 686	6.8157e+01	12.6815	68.282095	0.000324	3.242827	1.098700	-0.000130
 687	6.8257e+01	12.6414	68.104461	0.000446	4.458888	1.510712	-0.000179
 688	6.8356e+01	12.6093	67.922790	0.000456	4.560226	1.545046	-0.000183
 689	6.8456e+01	12.5644	67.813788	0.000274	2.736136	0.927028	-0.000110
 690	6.8555e+01	12.5275	67.640191	0.000436	4.357549	1.476378	-0.000174
 691	6.8655e+01	12.4777	67.506965	0.000334	3.344166	1.133034	-0.000134
 692	6.8754e+01	12.4488	67.309146	0.000497	4.965579	1.682384	-0.000199
 693	6.8854e+01	12.4039	67.147660	0.000405	4.053534	1.373375	-0.000162
 694	6.8954e+01	12.3654	66.978100	0.000426	4.256211	1.442043	-0.000170
 695	6.9053e+01	12.3301	66.820652	0.000395	3.952196	1.339040	-0.000158
 696	6.9153e+01	12.2852	66.667241	0.000385	3.850857	1.304706	-0.000154
 697	6.9252e+01	12.2435	66.534016	0.000334	3.344166	1.133034	-0.000134
 698	6.9352e+01	12.2034	66.348307	0.000466	4.661564	1.579381	-0.000187
 699	6.9451e+01	12.1649	66.202970	0.000365	3.648181	1.236037	-0.000146
 700	6.9550e+01	12.1248	66.037448	0.000415	4.154873	1.407709	-0.000166
 701	6.9650e+01	12.0847	65.884037	0.000385	3.850857	1.304706	-0.000154
 702	6.9749e+01	12.0526	65.702366	0.000456	4.560226	1.545046	-0.000183
 703	6.9849e+01	11.9932	65.552992	0.000375	3.749519	1.270371	-0.000150
 704	6.9948e+01	11.9660	65.427840	0.000314	3.141489	1.064365	-0.000126
 705	7.0048e+01	11.9307	65.258281	0.000426	4.256211	1.442043	-0.000170
 706	7.0147e+01	11.8826	65.121018	0.000345	3.445504	1.167368	-0.000138
 707	7.0247e+01	11.8441	64.927236	0.000486	4.864241	1.648049	-0.000195
 708	7.0347e+01	11.8088	64.745564	0.000456	4.560226	1.545046	-0.000183
 709	7.0446e+01	11.7719	64.588116	0.000395	3.952196	1.339040	-0.000158
 710	7.0546e+01	11.7173	64.398371	0.000476	4.762903	1.613715	-0.000191
 711	7.0645e+01	11.6884	64.289368	0.000274	2.736136	0.927028	-0.000110
 712	7.0745e+01	11.6467	64.091548	0.000497	4.965579	1.682384	-0.000199
 713	7.0844e+01	11.6114	63.954286	0.000345	3.445504	1.167368	-0.000138
 714	7.0944e+01	11.5649	63.760503	0.000486	4.864241	1.648049	-0.000195
 715	7.1043e+01	11.5312	63.594981	0.000415	4.154873	1.407709	-0.000166
 716	7.1142e+01	11.4895	63.417347	0.000446	4.458888	1.510712	-0.000179
 717	7.1242e+01	11.4494	63.284121	0.000334	3.344166	1.133034	-0.000134
 718	7.1341e+01	11.4205	63.118599	0.000415	4.154873	1.407709	-0.000166
 719	7.1441e+01	11.3676	62.936928	0.000456	4.560226	1.545046	-0.000183
 720	7.1540e+01	11.3275	62.803702	0.000334	3.344166	1.133034	-0.000134
 721	7.1640e+01	11.2938	62.597808	0.000517	5.168256	1.751053	-0.000207
 722	7.1740e+01	11.2473	62.456508	0.000355	3.546842	1.201703	-0.000142
 723	7.1839e+01	11.2024	62.278874	0.000446	4.458888	1.510712	-0.000179
 724	7.1939e+01	11.1671	62.117389	0.000405	4.053534	1.373375	-0.000162
 725	7.2038e+01	11.1334	61.943792	0.000436	4.357549	1.476378	-0.000174
 726	7.2138e+01	11.0852	61.754047	0.000476	4.762903	1.613715	-0.000191
 727	7.2237e+01	11.0484	61.592561	0.000405	4.053534	1.373375	-0.000162
 728	7.2337e+01	11.0115	61.410890	0.000456	4.560226	1.545046	-0.000183
 729	7.2436e+01	10.9681	61.257479	0.000385	3.850857	1.304706	-0.000154
 730	7.2535e+01	10.9296	61.083882	0.000436	4.357549	1.476378	-0.000174
 731	7.2635e+01	10.8911	60.918360	0.000415	4.154873	1.407709	-0.000166
 732	7.2734e+01	10.8574	60.708429	0.000527	5.269594	1.785387	-0.000211
 733	7.2834e+01	10.8013	60.587315	0.000304	3.040151	1.030031	-0.000122
 734	7.2933e+01	10.7660	60.397569	0.000476	4.762903	1.613715	-0.000191
 735	7.3033e+01	10.7323	60.219935	0.000446	4.458888	1.510712	-0.000179
 736	7.3132e+01	10.6874	60.090747	0.000324	3.242827	1.098700	-0.000130
 737	7.3232e+01	10.6473	59.892927	0.000497	4.965579	1.682384	-0.000199
 738	7.3332e+01	10.6072	59.723368	0.000426	4.256211	1.442043	-0.000170
 739	7.3431e+01	10.5639	59.594179	0.000324	3.242827	1.098700	-0.000130
 740	7.3531e+01	10.5222	59.384248	0.000527	5.269594	1.785387	-0.000211
 741	7.3630e+01	10.4933	59.202577	0.000456	4.560226	1.545046	-0.000183
 742	7.3730e+01	10.4596	59.024943	0.000446	4.458888	1.510712	-0.000179
 743	7.3829e+01	10.4067	58.819049	0.000517	5.168256	1.751053	-0.000207
 744	7.3928e+01	10.3778	58.649489	0.000426	4.256211	1.442043	-0.000170
 745	7.4028e+01	10.3248	58.520301	0.000324	3.242827	1.098700	-0.000130
 746	7.4127e+01	10.2944	58.322481	0.000497	4.965579	1.682384	-0.000199
 747	7.4227e+01	10.2494	58.152922	0.000426	4.256211	1.442043	-0.000170
 748	7.4326e+01	10.2254	58.003548	0.000375	3.749519	1.270371	-0.000150
 749	7.4426e+01	10.1644	57.797654	0.000517	5.168256	1.751053	-0.000207
 750	7.4525e+01	10.1339	57.591760	0.000517	5.168256	1.751053	-0.000207
 751	7.4625e+01	10.1002	57.446423	0.000365	3.648181	1.236037	-0.000146
 752	7.4725e+01	10.0601	57.244566	0.000507	5.066918	1.716718	-0.000203
 753	7.4824e+01	10.0104	57.066932	0.000446	4.458888	1.510712	-0.000179
 754	7.4924e+01	9.9751	56.885261	0.000456	4.560226	1.545046	-0.000183
 755	7.5023e+01	9.9382	56.731850	0.000385	3.850857	1.304706	-0.000154
 756	7.5123e+01	9.8901	56.546142	0.000466	4.661564	1.579381	-0.000187
 757	7.5222e+01	9.8564	56.356396	0.000476	4.762903	1.613715	-0.000191
 758	7.5322e+01	9.8227	56.182799	0.000436	4.357549	1.476378	-0.000174
 759	7.5421e+01	9.7794	55.997091	0.000466	4.661564	1.579381	-0.000187
 760	7.5520e+01	9.7361	55.819457	0.000446	4.458888	1.510712	-0.000179
 761	7.5620e+01	9.6976	55.662009	0.000395	3.952196	1.339040	-0.000158
 762	7.5719e+01	9.6511	55.456115	0.000517	5.168256	1.751053	-0.000207
 763	7.5819e+01	9.6190	55.258295	0.000497	4.965579	1.682384	-0.000199
 764	7.5918e+01	9.5660	55.096810	0.000405	4.053534	1.373375	-0.000162
 765	7.6018e+01	9.5291	54.975696	0.000304	3.040151	1.030031	-0.000122
 766	7.6118e+01	9.5003	54.741542	0.000588	5.877625	1.991393	-0.000235
 767	7.6217e+01	9.4537	54.539685	0.000507	5.066918	1.716718	-0.000203
 768	7.6317e+01	9.4120	54.366088	0.000436	4.357549	1.476378	-0.000174
 769	7.6416e+01	9.3687	54.180380	0.000466	4.661564	1.579381	-0.000187
 770	7.6516e+01	9.3350	53.994672	0.000466	4.661564	1.579381	-0.000187
 771	7.6615e+01	9.2949	53.821075	0.000436	4.357549	1.476378	-0.000174
 772	7.6715e+01	9.2580	53.623255	0.000497	4.965579	1.682384	-0.000199
 773	7.6814e+01	9.2227	53.445621	0.000446	4.458888	1.510712	-0.000179
 774	7.6913e+01	9.1730	53.304322	0.000355	3.546842	1.201703	-0.000142
 775	7.7013e+01	9.1345	53.045945	0.000649	6.485655	2.197399	-0.000260
 776	7.7112e+01	9.0912	52.908682	0.000345	3.445504	1.167368	-0.000138
 777	7.7212e+01	9.0559	52.751234	0.000395	3.952196	1.339040	-0.000158
 778	7.7311e+01	9.0142	52.537266	0.000537	5.370933	1.819721	-0.000215
 779	7.7411e+01	8.9741	52.355595	0.000456	4.560226	1.545046	-0.000183
 780	7.7510e+01	8.9388	52.190072	0.000415	4.154873	1.407709	-0.000166
 781	7.7610e+01	8.8987	51.988215	0.000507	5.066918	1.716718	-0.000203
 782	7.7710e+01	8.8570	51.810581	0.000446	4.458888	1.510712	-0.000179
 783	7.7809e+01	8.8137	51.632948	0.000446	4.458888	1.510712	-0.000179
 784	7.7909e+01	8.7896	51.447239	0.000466	4.661564	1.579381	-0.000187
 785	7.8008e+01	8.7350	51.253457	0.000486	4.864241	1.648049	-0.000195
 786	7.8108e+01	8.7030	51.083897	0.000426	4.256211	1.442043	-0.000170
 787	7.8207e+01	8.6580	50.906263	0.000446	4.458888	1.510712	-0.000179
 788	7.8306e+01	8.6131	50.692295	0.000537	5.370933	1.819721	-0.000215
 789	7.8406e+01	8.5730	50.502550	0.000476	4.762903	1.613715	-0.000191
 790	7.8505e+01	8.5393	50.320878	0.000456	4.560226	1.545046	-0.000183
 791	7.8605e+01	8.5040	50.106910	0.000537	5.370933	1.819721	-0.000215
 792	7.8704e+01	8.4495	49.977722	0.000324	3.242827	1.098700	-0.000130
 793	7.8804e+01	8.4142	49.783939	0.000486	4.864241	1.648049	-0.000195
 794	7.8903e+01	8.3805	49.578045	0.000517	5.168256	1.751053	-0.000207
 795	7.9003e+01	8.3452	49.412523	0.000415	4.154873	1.407709	-0.000166
 796	7.9103e+01	8.3003	49.166258	0.000618	6.181640	2.094396	-0.000248
 797	7.9202e+01	8.2570	49.028995	0.000345	3.445504	1.167368	-0.000138
 798	7.9302e+01	8.2185	48.839250	0.000476	4.762903	1.613715	-0.000191
 799	7.9401e+01	8.1752	48.649504	0.000476	4.762903	1.613715	-0.000191
 800	7.9501e+01	8.1431	48.459759	0.000476	4.762903	1.613715	-0.000191
 801	7.9600e+01	8.0998	48.302311	0.000395	3.952196	1.339040	-0.000158
 802	7.9700e+01	8.0613	48.064120	0.000598	5.978963	2.025727	-0.000239
 803	7.9799e+01	8.0356	47.862263	0.000507	5.066918	1.716718	-0.000203
 804	7.9898e+01	7.9762	47.708852	0.000385	3.850857	1.304706	-0.000154
 805	7.9998e+01	7.9361	47.527180	0.000456	4.560226	1.545046	-0.000183
 806	8.0097e+01	7.8960	47.313212	0.000537	5.370933	1.819721	-0.000215
 807	8.0197e+01	7.8639	47.139615	0.000436	4.357549	1.476378	-0.000174
 808	8.0296e+01	7.8271	46.945833	0.000486	4.864241	1.648049	-0.000195
 809	8.0396e+01	7.7805	46.760125	0.000466	4.661564	1.579381	-0.000187
 810	8.0496e+01	7.7468	46.610751	0.000375	3.749519	1.270371	-0.000150
 811	8.0595e+01	7.7067	46.380634	0.000578	5.776286	1.957059	-0.000231
 812	8.0695e+01	7.6586	46.219148	0.000405	4.053534	1.373375	-0.000162
 813	8.0794e+01	7.6233	46.025366	0.000486	4.864241	1.648049	-0.000195
 814	8.0894e+01	7.5816	45.807361	0.000547	5.472271	1.854056	-0.000219
 815	8.0993e+01	7.5367	45.657987	0.000375	3.749519	1.270371	-0.000150
 816	8.1093e+01	7.5014	45.456130	0.000507	5.066918	1.716718	-0.000203
 817	8.1192e+01	7.4565	45.258310	0.000497	4.965579	1.682384	-0.000199
 818	8.1291e+01	7.4132	45.096825	0.000405	4.053534	1.373375	-0.000162
 819	8.1391e+01	7.3827	44.907079	0.000476	4.762903	1.613715	-0.000191
 820	8.1490e+01	7.3410	44.693111	0.000537	5.370933	1.819721	-0.000215
 821	8.1590e+01	7.3041	44.491254	0.000507	5.066918	1.716718	-0.000203
 822	8.1689e+01	7.2608	44.366103	0.000314	3.141489	1.064365	-0.000126
 823	8.1789e+01	7.2255	44.119838	0.000618	6.181640	2.094396	-0.000248
 824	8.1888e+01	7.1854	43.966427	0.000385	3.850857	1.304706	-0.000154
 825	8.1988e+01	7.1324	43.736310	0.000578	5.776286	1.957059	-0.000231
 826	8.2088e+01	7.1100	43.590973	0.000365	3.648181	1.236037	-0.000146
 827	8.2187e+01	7.0715	43.405265	0.000466	4.661564	1.579381	-0.000187
 828	8.2287e+01	7.0249	43.215520	0.000476	4.762903	1.613715	-0.000191
 829	8.2386e+01	6.9880	43.017700	0.000497	4.965579	1.682384	-0.000199
 830	8.2486e+01	6.9383	42.807769	0.000527	5.269594	1.785387	-0.000211
 831	8.2585e+01	6.9078	42.638209	0.000426	4.256211	1.442043	-0.000170
 832	8.2684e+01	6.8661	42.436352	0.000507	5.066918	1.716718	-0.000203
 833	8.2784e+01	6.8228	42.238533	0.000497	4.965579	1.682384	-0.000199
 834	8.2883e+01	6.7859	42.089159	0.000375	3.749519	1.270371	-0.000150
 835	8.2983e+01	6.7474	41.863079	0.000567	5.674948	1.922724	-0.000227
 836	8.3082e+01	6.6945	41.681408	0.000456	4.560226	1.545046	-0.000183
 837	8.3182e+01	6.6704	41.435143	0.000618	6.181640	2.094396	-0.000248
 838	8.3281e+01	6.6287	41.297880	0.000345	3.445504	1.167368	-0.000138
 839	8.3381e+01	6.5806	41.067763	0.000578	5.776286	1.957059	-0.000231
 840	8.3481e+01	6.5485	40.918389	0.000375	3.749519	1.270371	-0.000150
 841	8.3580e+01	6.5084	40.700384	0.000547	5.472271	1.854056	-0.000219
 842	8.3680e+01	6.4635	40.526787	0.000436	4.357549	1.476378	-0.000174
 843	8.3779e+01	6.4266	40.349153	0.000446	4.458888	1.510712	-0.000179
 844	8.3879e+01	6.3848	40.171519	0.000446	4.458888	1.510712	-0.000179
 845	8.3978e+01	6.3512	39.973700	0.000497	4.965579	1.682384	-0.000199
 846	8.4078e+01	6.3014	39.739546	0.000588	5.877625	1.991393	-0.000235
 847	8.4177e+01	6.2742	39.586134	0.000385	3.850857	1.304706	-0.000154
 848	8.4276e+01	6.2292	39.420612	0.000415	4.154873	1.407709	-0.000166
 849	8.4376e+01	6.1923	39.198569	0.000557	5.573610	1.888390	-0.000223
 850	8.4475e+01	6.1474	39.000750	0.000497	4.965579	1.682384	-0.000199
 851	8.4575e+01	6.1137	38.806967	0.000486	4.864241	1.648049	-0.000195
 852	8.4674e+01	6.0688	38.649519	0.000395	3.952196	1.339040	-0.000158
 853	8.4774e+01	6.0223	38.427477	0.000557	5.573610	1.888390	-0.000223
 854	8.4874e+01	5.9838	38.237731	0.000476	4.762903	1.613715	-0.000191
 855	8.4973e+01	5.9421	38.088357	0.000375	3.749519	1.270371	-0.000150
 856	8.5073e+01	5.9100	37.874389	0.000537	5.370933	1.819721	-0.000215
 857	8.5172e+01	5.8683	37.664458	0.000527	5.269594	1.785387	-0.000211
 858	8.5272e+01	5.8282	37.486824	0.000446	4.458888	1.510712	-0.000179
 859	8.5371e+01	5.7881	37.272856	0.000537	5.370933	1.819721	-0.000215
 860	8.5471e+01	5.7480	37.091185	0.000456	4.560226	1.545046	-0.000183
 861	8.5570e+01	5.7111	36.909513	0.000456	4.560226	1.545046	-0.000183
 862	8.5669e+01	5.6629	36.699582	0.000527	5.269594	1.785387	-0.000211
 863	8.5769e+01	5.6212	36.477540	0.000557	5.573610	1.888390	-0.000223
 864	8.5868e+01	5.5908	36.279720	0.000497	4.965579	1.682384	-0.000199
 865	8.5968e+01	5.5490	36.089975	0.000476	4.762903	1.613715	-0.000191
 866	8.6067e+01	5.5137	35.912341	0.000446	4.458888	1.510712	-0.000179
 867	8.6167e+01	5.4785	35.682224	0.000578	5.776286	1.957059	-0.000231
 868	8.6266e+01	5.4400	35.476330	0.000517	5.168256	1.751053	-0.000207
 869	8.6366e+01	5.3966	35.282548	0.000486	4.864241	1.648049	-0.000195
 870	8.6466e+01	5.3501	35.117025	0.000415	4.154873	1.407709	-0.000166
 871	8.6565e+01	5.3196	34.899020	0.000547	5.472271	1.854056	-0.000219
 872	8.6665e+01	5.2699	34.741572	0.000395	3.952196	1.339040	-0.000158
 873	8.6764e+01	5.2314	34.535678	0.000517	5.168256	1.751053	-0.000207
 874	8.6864e+01	5.1913	34.325747	0.000527	5.269594	1.785387	-0.000211
 875	8.6963e+01	5.1512	34.119853	0.000517	5.168256	1.751053	-0.000207
 876	8.7063e+01	5.1207	33.922033	0.000497	4.965579	1.682384	-0.000199
 877	8.7162e+01	5.0710	33.740362	0.000456	4.560226	1.545046	-0.000183
 878	8.7261e+01	5.0357	33.506208	0.000588	5.877625	1.991393	-0.000235
 879	8.7361e+01	4.9908	33.312426	0.000486	4.864241	1.648049	-0.000195
 880	8.7460e+01	4.9603	33.138829	0.000436	4.357549	1.476378	-0.000174
 881	8.7560e+01	4.9106	32.896601	0.000608	6.080301	2.060062	-0.000243
 882	8.7659e+01	4.8785	32.751264	0.000365	3.648181	1.236037	-0.000146
 883	8.7759e+01	4.8400	32.561518	0.000476	4.762903	1.613715	-0.000191
 884	8.7859e+01	4.7902	32.319290	0.000608	6.080301	2.060062	-0.000243
 885	8.7958e+01	4.7485	32.117433	0.000507	5.066918	1.716718	-0.000203
 886	8.8058e+01	4.7164	31.927688	0.000476	4.762903	1.613715	-0.000191
 887	8.8157e+01	4.6667	31.709683	0.000547	5.472271	1.854056	-0.000219
 888	8.8257e+01	4.6282	31.552234	0.000395	3.952196	1.339040	-0.000158
 889	8.8356e+01	4.5961	31.346340	0.000517	5.168256	1.751053	-0.000207
 890	8.8456e+01	4.5544	31.104112	0.000608	6.080301	2.060062	-0.000243
 891	8.8555e+01	4.5079	30.958775	0.000365	3.648181	1.236037	-0.000146
 892	8.8654e+01	4.4806	30.736733	0.000557	5.573610	1.888390	-0.000223
 893	8.8754e+01	4.4309	30.498542	0.000598	5.978963	2.025727	-0.000239
 894	8.8853e+01	4.3972	30.324945	0.000436	4.357549	1.476378	-0.000174
 895	8.8953e+01	4.3555	30.110977	0.000537	5.370933	1.819721	-0.000215
 896	8.9052e+01	4.3074	29.897009	0.000537	5.370933	1.819721	-0.000215
 897	8.9152e+01	4.2817	29.763783	0.000334	3.344166	1.133034	-0.000134
 898	8.9251e+01	4.2352	29.477147	0.000720	7.195023	2.437740	-0.000288
 899	8.9351e+01	4.1967	29.267216	0.000527	5.269594	1.785387	-0.000211
 900	8.9451e+01	4.1614	29.081507	0.000466	4.661564	1.579381	-0.000187
 901	8.9550e+01	4.1165	28.871576	0.000527	5.269594	1.785387	-0.000211
 902	8.9650e+01	4.0667	28.653571	0.000547	5.472271	1.854056	-0.000219
 903	8.9749e+01	4.0282	28.463826	0.000476	4.762903	1.613715	-0.000191
 904	8.9849e+01	3.9977	28.249857	0.000537	5.370933	1.819721	-0.000215
 905	8.9948e+01	3.9625	28.052038	0.000497	4.965579	1.682384	-0.000199
 906	9.0047e+01	3.9159	27.842107	0.000527	5.269594	1.785387	-0.000211
 907	9.0147e+01	3.8806	27.640250	0.000507	5.066918	1.716718	-0.000203
 908	9.0246e+01	3.8373	27.398022	0.000608	6.080301	2.060062	-0.000243
 909	9.0346e+01	3.7924	27.228462	0.000426	4.256211	1.442043	-0.000170
 910	9.0445e+01	3.7491	27.006420	0.000557	5.573610	1.888390	-0.000223
 911	9.0545e+01	3.7042	26.816674	0.000476	4.762903	1.613715	-0.000191
 912	9.0644e+01	3.6785	26.554260	0.000659	6.586993	2.231734	-0.000264
 913	9.0744e+01	3.6320	26.396812	0.000395	3.952196	1.339040	-0.000158
 914	9.0844e+01	3.6015	26.162658	0.000588	5.877625	1.991393	-0.000235
 915	9.0943e+01	3.5566	25.980987	0.000456	4.560226	1.545046	-0.000183
 916	9.1043e+01	3.5245	25.795279	0.000466	4.661564	1.579381	-0.000187
 917	9.1142e+01	3.4812	25.573236	0.000557	5.573610	1.888390	-0.000223
 918	9.1242e+01	3.4411	25.335045	0.000598	5.978963	2.025727	-0.000239
 919	9.1341e+01	3.3865	25.153374	0.000456	4.560226	1.545046	-0.000183
 920	9.1441e+01	3.3528	24.899035	0.000638	6.384316	2.163065	-0.000256
 921	9.1540e+01	3.3176	24.725438	0.000436	4.357549	1.476378	-0.000174
 922	9.1639e+01	3.2726	24.479173	0.000618	6.181640	2.094396	-0.000248
 923	9.1739e+01	3.2357	24.281353	0.000497	4.965579	1.682384	-0.000199
 924	9.1838e+01	3.2020	24.087570	0.000486	4.864241	1.648049	-0.000195
 925	9.1938e+01	3.1603	23.841305	0.000618	6.181640	2.094396	-0.000248
 926	9.2037e+01	3.1266	23.643485	0.000497	4.965579	1.682384	-0.000199
 927	9.2137e+01	3.0785	23.429517	0.000537	5.370933	1.819721	-0.000215
 928	9.2237e+01	3.0400	23.243809	0.000466	4.661564	1.579381	-0.000187
 929	9.2336e+01	2.9967	22.997544	0.000618	6.181640	2.094396	-0.000248
 930	9.2436e+01	2.9614	22.807798	0.000476	4.762903	1.613715	-0.000191
 931	9.2535e+01	2.9117	22.597867	0.000527	5.269594	1.785387	-0.000211
 932	9.2635e+01	2.8780	22.371788	0.000567	5.674948	1.922724	-0.000227
 933	9.2734e+01	2.8363	22.137634	0.000588	5.877625	1.991393	-0.000235
 934	9.2834e+01	2.8026	21.907517	0.000578	5.776286	1.957059	-0.000231
 935	9.2933e+01	2.7593	21.693549	0.000537	5.370933	1.819721	-0.000215
 936	9.3032e+01	2.7240	21.507841	0.000466	4.661564	1.579381	-0.000187
 937	9.3132e+01	2.6807	21.269650	0.000598	5.978963	2.025727	-0.000239
 938	9.3231e+01	2.6422	21.067793	0.000507	5.066918	1.716718	-0.000203
 939	9.3331e+01	2.6117	20.845750	0.000557	5.573610	1.888390	-0.000223
 940	9.3430e+01	2.5620	20.631782	0.000537	5.370933	1.819721	-0.000215
 941	9.3530e+01	2.5347	20.421851	0.000527	5.269594	1.785387	-0.000211
 942	9.3629e+01	2.4769	20.224031	0.000497	4.965579	1.682384	-0.000199
 943	9.3729e+01	2.4400	19.989878	0.000588	5.877625	1.991393	-0.000235
 944	9.3829e+01	2.4047	19.804169	0.000466	4.661564	1.579381	-0.000187
 945	9.3928e+01	2.3566	19.565978	0.000598	5.978963	2.025727	-0.000239
 946	9.4028e+01	2.3213	19.347973	0.000547	5.472271	1.854056	-0.000219
 947	9.4127e+01	2.2908	19.134005	0.000537	5.370933	1.819721	-0.000215
 948	9.4227e+01	2.2379	18.899851	0.000588	5.877625	1.991393	-0.000235
 949	9.4326e+01	2.2010	18.702031	0.000497	4.965579	1.682384	-0.000199
 950	9.4425e+01	2.1625	18.512286	0.000476	4.762903	1.613715	-0.000191
 951	9.4525e+01	2.1208	18.278132	0.000588	5.877625	1.991393	-0.000235
 952	9.4624e+01	2.0823	18.015718	0.000659	6.586993	2.231734	-0.000264
 953	9.4724e+01	2.0406	17.846159	0.000426	4.256211	1.442043	-0.000170
 954	9.4823e+01	2.0005	17.579708	0.000669	6.688331	2.266068	-0.000268
 955	9.4923e+01	1.9588	17.369777	0.000527	5.269594	1.785387	-0.000211
 956	9.5022e+01	1.9219	17.167920	0.000507	5.066918	1.716718	-0.000203
 957	9.5122e+01	1.8850	16.953952	0.000537	5.370933	1.819721	-0.000215
 958	9.5222e+01	1.8449	16.756132	0.000497	4.965579	1.682384	-0.000199
 959	9.5321e+01	1.8016	16.530052	0.000567	5.674948	1.922724	-0.000227
 960	9.5421e+01	1.7663	16.336270	0.000486	4.864241	1.648049	-0.000195
 961	9.5520e+01	1.7278	16.090004	0.000618	6.181640	2.094396	-0.000248
 962	9.5620e+01	1.6957	15.851813	0.000598	5.978963	2.025727	-0.000239
 963	9.5719e+01	1.6540	15.674180	0.000446	4.458888	1.510712	-0.000179
 964	9.5819e+01	1.5994	15.419840	0.000638	6.384316	2.163065	-0.000256
 965	9.5918e+01	1.5673	15.197797	0.000557	5.573610	1.888390	-0.000223
 966	9.6017e+01	1.5176	14.987866	0.000527	5.269594	1.785387	-0.000211
 967	9.6117e+01	1.4871	14.757750	0.000578	5.776286	1.957059	-0.000231
 968	9.6216e+01	1.4470	14.531670	0.000567	5.674948	1.922724	-0.000227
 969	9.6316e+01	1.4037	14.333850	0.000497	4.965579	1.682384	-0.000199
 970	9.6415e+01	1.3652	14.111808	0.000557	5.573610	1.888390	-0.000223
 971	9.6515e+01	1.3235	13.913988	0.000497	4.965579	1.682384	-0.000199
 972	9.6615e+01	1.2882	13.667723	0.000618	6.181640	2.094396	-0.000248
 973	9.6714e+01	1.2433	13.437606	0.000578	5.776286	1.957059	-0.000231
 974	9.6814e+01	1.2032	13.272084	0.000415	4.154873	1.407709	-0.000166
 975	9.6913e+01	1.1727	13.037930	0.000588	5.877625	1.991393	-0.000235
 976	9.7013e+01	1.1214	12.791665	0.000618	6.181640	2.094396	-0.000248
 977	9.7112e+01	1.0925	12.545399	0.000618	6.181640	2.094396	-0.000248
 978	9.7212e+01	1.0556	12.331431	0.000537	5.370933	1.819721	-0.000215
 979	9.7311e+01	0.9994	12.186094	0.000365	3.648181	1.236037	-0.000146
 980	9.7410e+01	0.9641	11.960015	0.000567	5.674948	1.922724	-0.000227
 981	9.7510e+01	0.9305	11.673378	0.000720	7.195023	2.437740	-0.000288
 982	9.7609e+01	0.8887	11.491707	0.000456	4.560226	1.545046	-0.000183
 983	9.7709e+01	0.8326	11.277739	0.000537	5.370933	1.819721	-0.000215
 984	9.7808e+01	0.8069	11.063770	0.000537	5.370933	1.819721	-0.000215
 985	9.7908e+01	0.7636	10.817505	0.000618	6.181640	2.094396	-0.000248
 986	9.8007e+01	0.7379	10.587388	0.000578	5.776286	1.957059	-0.000231
 987	9.8107e+01	0.6946	10.377457	0.000527	5.269594	1.785387	-0.000211
 988	9.8207e+01	0.6481	10.179638	0.000497	4.965579	1.682384	-0.000199
 989	9.8306e+01	0.5936	9.953558	0.000567	5.674948	1.922724	-0.000227
 990	9.8406e+01	0.5727	9.719404	0.000588	5.877625	1.991393	-0.000235
 991	9.8505e+01	0.5262	9.489288	0.000578	5.776286	1.957059	-0.000231
 992	9.8605e+01	0.4893	9.283394	0.000517	5.168256	1.751053	-0.000207
 993	9.8704e+01	0.4492	9.097685	0.000466	4.661564	1.579381	-0.000187
 994	9.8803e+01	0.4139	8.875643	0.000557	5.573610	1.888390	-0.000223
 995	9.8903e+01	0.3722	8.645526	0.000578	5.776286	1.957059	-0.000231
 996	9.9002e+01	0.3273	8.411372	0.000588	5.877625	1.991393	-0.000235
 997	9.9102e+01	0.2920	8.173181	0.000598	5.978963	2.025727	-0.000239
 998	9.9201e+01	0.2567	7.959213	0.000537	5.370933	1.819721	-0.000215
 999	9.9301e+01	0.2086	7.737171	0.000557	5.573610	1.888390	-0.000223
1000	9.9400e+01	0.1765	7.539351	0.000497	4.965579	1.682384	-0.000199
1001	9.9500e+01	0.1332	7.313271	0.000567	5.674948	1.922724	-0.000227
1002	9.9600e+01	0.0882	7.079118	0.000588	5.877625	1.991393	-0.000235
1003	9.9699e+01	0.0449	6.840927	0.000598	5.978963	2.025727	-0.000239
1004	9.9799e+01	0.0144	6.635033	0.000517	5.168256	1.751053	-0.000207
1005	9.9898e+01	-0.0128	6.497770	0.000345	3.445504	1.167368	-0.000138
1006	9.9998e+01	-0.0658	6.247468	0.000628	6.282978	2.128731	-0.000252
1007	1.0010e+02	-0.0995	6.025425	0.000557	5.573610	1.888390	-0.000223
1008	1.0020e+02	-0.1524	5.839717	0.000466	4.661564	1.579381	-0.000187
1009	1.0030e+02	-0.1829	5.613637	0.000567	5.674948	1.922724	-0.000227
1010	1.0040e+02	-0.2230	5.355261	0.000649	6.485655	2.197399	-0.000260
1011	1.0050e+02	-0.2519	5.185701	0.000426	4.256211	1.442043	-0.000170
1012	1.0059e+02	-0.3080	4.979807	0.000517	5.168256	1.751053	-0.000207
1013	1.0069e+02	-0.3353	4.733542	0.000618	6.181640	2.094396	-0.000248
1014	1.0079e+02	-0.3866	4.507462	0.000567	5.674948	1.922724	-0.000227
1015	1.0089e+02	-0.4123	4.281382	0.000567	5.674948	1.922724	-0.000227
1016	1.0099e+02	-0.4588	4.091637	0.000476	4.762903	1.613715	-0.000191
1017	1.0109e+02	-0.5069	3.889780	0.000507	5.066918	1.716718	-0.000203
1018	1.0119e+02	-0.5438	3.619292	0.000679	6.789670	2.300402	-0.000272
1019	1.0129e+02	-0.5823	3.449732	0.000426	4.256211	1.442043	-0.000170
1020	1.0139e+02	-0.6112	3.231727	0.000547	5.472271	1.854056	-0.000219
1021	1.0149e+02	-0.6609	2.977388	0.000638	6.384316	2.163065	-0.000256
1022	1.0159e+02	-0.6962	2.743234	0.000588	5.877625	1.991393	-0.000235
1023	1.0169e+02	-0.7363	2.521191	0.000557	5.573610	1.888390	-0.000223
1024	1.0179e+02	-0.7716	2.339520	0.000456	4.560226	1.545046	-0.000183
1025	1.0189e+02	-0.8230	2.097292	0.000608	6.080301	2.060062	-0.000243
1026	1.0199e+02	-0.8583	1.911584	0.000466	4.661564	1.579381	-0.000187
1027	1.0209e+02	-0.8952	1.697616	0.000537	5.370933	1.819721	-0.000215
1028	1.0219e+02	-0.9417	1.451350	0.000618	6.181640	2.094396	-0.000248
1029	1.0229e+02	-0.9802	1.209122	0.000608	6.080301	2.060062	-0.000243
1030	1.0239e+02	-1.0219	0.962857	0.000618	6.181640	2.094396	-0.000248
1031	1.0248e+02	-1.0652	0.769074	0.000486	4.864241	1.648049	-0.000195
1032	1.0258e+02	-1.0893	0.559143	0.000527	5.269594	1.785387	-0.000211
1033	1.0268e+02	-1.1390	0.337101	0.000557	5.573610	1.888390	-0.000223
1034	1.0278e+02	-1.1791	0.119096	0.000547	5.472271	1.854056	-0.000219
1035	1.0288e+02	-1.2208	-0.106984	0.000567	5.674948	1.922724	-0.000227
1036	1.0298e+02	-1.2529	-0.280581	0.000436	4.357549	1.476378	-0.000174
1037	1.0308e+02	-1.3010	-0.534920	0.000638	6.384316	2.163065	-0.000256
1038	1.0318e+02	-1.3315	-0.756963	0.000557	5.573610	1.888390	-0.000223
1039	1.0328e+02	-1.3732	-0.970931	0.000537	5.370933	1.819721	-0.000215
1040	1.0338e+02	-1.4069	-1.176825	0.000517	5.168256	1.751053	-0.000207
1041	1.0348e+02	-1.4566	-1.394830	0.000547	5.472271	1.854056	-0.000219
1042	1.0358e+02	-1.5000	-1.637059	0.000608	6.080301	2.060062	-0.000243
1043	1.0368e+02	-1.5369	-1.879287	0.000608	6.080301	2.060062	-0.000243
1044	1.0378e+02	-1.5818	-2.101329	0.000557	5.573610	1.888390	-0.000223
1045	1.0388e+02	-1.6090	-2.311260	0.000527	5.269594	1.785387	-0.000211
1046	1.0398e+02	-1.6524	-2.492931	0.000456	4.560226	1.545046	-0.000183
1047	1.0408e+02	-1.6941	-2.735159	0.000608	6.080301	2.060062	-0.000243
1048	1.0418e+02	-1.7422	-2.945091	0.000527	5.269594	1.785387	-0.000211
1049	1.0428e+02	-1.7759	-3.150984	0.000517	5.168256	1.751053	-0.000207
1050	1.0438e+02	-1.8144	-3.364953	0.000537	5.370933	1.819721	-0.000215
1051	1.0447e+02	-1.8481	-3.615255	0.000628	6.282978	2.128731	-0.000252
1052	1.0457e+02	-1.8978	-3.796926	0.000456	4.560226	1.545046	-0.000183
1053	1.0467e+02	-1.9315	-4.067414	0.000679	6.789670	2.300402	-0.000272
1054	1.0477e+02	-1.9716	-4.220825	0.000385	3.850857	1.304706	-0.000154
1055	1.0487e+02	-2.0165	-4.471128	0.000628	6.282978	2.128731	-0.000252
1056	1.0497e+02	-2.0630	-4.681059	0.000527	5.269594	1.785387	-0.000211
1057	1.0507e+02	-2.1064	-4.903101	0.000557	5.573610	1.888390	-0.000223
1058	1.0517e+02	-2.1352	-5.137255	0.000588	5.877625	1.991393	-0.000235
1059	1.0527e+02	-2.1850	-5.294704	0.000395	3.952196	1.339040	-0.000158
1060	1.0537e+02	-2.2154	-5.549043	0.000638	6.384316	2.163065	-0.000256
1061	1.0547e+02	-2.2523	-5.787234	0.000598	5.978963	2.025727	-0.000239
1062	1.0557e+02	-2.3005	-6.017351	0.000578	5.776286	1.957059	-0.000231
1063	1.0567e+02	-2.3261	-6.190948	0.000436	4.357549	1.476378	-0.000174
1064	1.0577e+02	-2.3775	-6.473547	0.000709	7.093685	2.403405	-0.000284
1065	1.0587e+02	-2.4063	-6.655218	0.000456	4.560226	1.545046	-0.000183
1066	1.0597e+02	-2.4529	-6.889372	0.000588	5.877625	1.991393	-0.000235
1067	1.0607e+02	-2.4882	-7.079118	0.000476	4.762903	1.613715	-0.000191
1068	1.0617e+02	-2.5251	-7.297123	0.000547	5.472271	1.854056	-0.000219
1069	1.0627e+02	-2.5716	-7.551462	0.000638	6.384316	2.163065	-0.000256
1070	1.0637e+02	-2.6117	-7.688725	0.000345	3.445504	1.167368	-0.000138
1071	1.0647e+02	-2.6470	-7.955176	0.000669	6.688331	2.266068	-0.000268
1072	1.0656e+02	-2.6871	-8.205478	0.000628	6.282978	2.128731	-0.000252
1073	1.0666e+02	-2.7320	-8.395224	0.000476	4.762903	1.613715	-0.000191
1074	1.0676e+02	-2.7705	-8.637452	0.000608	6.080301	2.060062	-0.000243
1075	1.0686e+02	-2.8170	-8.807012	0.000426	4.256211	1.442043	-0.000170
1076	1.0696e+02	-2.8443	-9.093648	0.000720	7.195023	2.437740	-0.000288
1077	1.0706e+02	-2.8844	-9.243022	0.000375	3.749519	1.270371	-0.000150
1078	1.0716e+02	-2.9261	-9.489288	0.000618	6.181640	2.094396	-0.000248
1079	1.0726e+02	-2.9726	-9.666922	0.000446	4.458888	1.510712	-0.000179
1080	1.0736e+02	-2.9999	-9.901075	0.000588	5.877625	1.991393	-0.000235
1081	1.0746e+02	-3.0513	-10.094858	0.000486	4.864241	1.648049	-0.000195
1082	1.0756e+02	-3.0817	-10.341123	0.000618	6.181640	2.094396	-0.000248
1083	1.0766e+02	-3.1395	-10.542980	0.000507	5.066918	1.716718	-0.000203
1084	1.0776e+02	-3.1716	-10.773097	0.000578	5.776286	1.957059	-0.000231
1085	1.0786e+02	-3.2165	-11.007251	0.000588	5.877625	1.991393	-0.000235
1086	1.0796e+02	-3.2486	-11.180847	0.000436	4.357549	1.476378	-0.000174
1087	1.0806e+02	-3.2871	-11.415001	0.000588	5.877625	1.991393	-0.000235
1088	1.0816e+02	-3.3240	-11.633007	0.000547	5.472271	1.854056	-0.000219
1089	1.0826e+02	-3.3721	-11.838901	0.000517	5.168256	1.751053	-0.000207
1090	1.0836e+02	-3.4090	-12.044794	0.000517	5.168256	1.751053	-0.000207
1091	1.0845e+02	-3.4475	-12.266837	0.000557	5.573610	1.888390	-0.000223
1092	1.0855e+02	-3.4956	-12.500991	0.000588	5.877625	1.991393	-0.000235
1093	1.0865e+02	-3.5309	-12.698810	0.000497	4.965579	1.682384	-0.000199
1094	1.0875e+02	-3.5774	-12.945076	0.000618	6.181640	2.094396	-0.000248
1095	1.0885e+02	-3.6143	-13.171155	0.000567	5.674948	1.922724	-0.000227
1096	1.0895e+02	-3.6448	-13.328604	0.000395	3.952196	1.339040	-0.000158
1097	1.0905e+02	-3.6897	-13.570832	0.000608	6.080301	2.060062	-0.000243
1098	1.0915e+02	-3.7298	-13.784800	0.000537	5.370933	1.819721	-0.000215
1099	1.0925e+02	-3.7716	-13.998768	0.000537	5.370933	1.819721	-0.000215
1100	1.0935e+02	-3.8068	-14.245033	0.000618	6.181640	2.094396	-0.000248
1101	1.0945e+02	-3.8373	-14.414593	0.000426	4.256211	1.442043	-0.000170
1102	1.0955e+02	-3.8822	-14.648747	0.000588	5.877625	1.991393	-0.000235
1103	1.0965e+02	-3.9272	-14.802158	0.000385	3.850857	1.304706	-0.000154
1104	1.0975e+02	-3.9657	-15.072646	0.000679	6.789670	2.300402	-0.000272
1105	1.0985e+02	-4.0106	-15.310837	0.000598	5.978963	2.025727	-0.000239
1106	1.0995e+02	-4.0523	-15.496546	0.000466	4.661564	1.579381	-0.000187
1107	1.1005e+02	-4.0844	-15.738774	0.000608	6.080301	2.060062	-0.000243
1108	1.1015e+02	-4.1309	-15.884111	0.000365	3.648181	1.236037	-0.000146
1109	1.1025e+02	-4.1598	-16.126339	0.000608	6.080301	2.060062	-0.000243
1110	1.1035e+02	-4.2127	-16.328195	0.000507	5.066918	1.716718	-0.000203
1111	1.1044e+02	-4.2416	-16.546201	0.000547	5.472271	1.854056	-0.000219
1112	1.1054e+02	-4.2913	-16.739983	0.000486	4.864241	1.648049	-0.000195
1113	1.1064e+02	-4.3266	-16.966063	0.000567	5.674948	1.922724	-0.000227
1114	1.1074e+02	-4.3747	-17.220402	0.000638	6.384316	2.163065	-0.000256
1115	1.1084e+02	-4.4116	-17.377851	0.000395	3.952196	1.339040	-0.000158
1116	1.1094e+02	-4.4437	-17.563559	0.000466	4.661564	1.579381	-0.000187
1117	1.1104e+02	-4.4838	-17.781564	0.000547	5.472271	1.854056	-0.000219
1118	1.1114e+02	-4.5271	-18.011681	0.000578	5.776286	1.957059	-0.000231
1119	1.1124e+02	-4.5689	-18.205464	0.000486	4.864241	1.648049	-0.000195
1120	1.1134e+02	-4.6074	-18.411358	0.000517	5.168256	1.751053	-0.000207
1121	1.1144e+02	-4.6378	-18.645511	0.000588	5.877625	1.991393	-0.000235
1122	1.1154e+02	-4.6844	-18.835257	0.000476	4.762903	1.613715	-0.000191
1123	1.1164e+02	-4.7197	-19.033076	0.000497	4.965579	1.682384	-0.000199
1124	1.1174e+02	-4.7678	-19.263193	0.000578	5.776286	1.957059	-0.000231
1125	1.1184e+02	-4.8095	-19.448901	0.000466	4.661564	1.579381	-0.000187
1126	1.1194e+02	-4.8464	-19.670944	0.000557	5.573610	1.888390	-0.000223
1127	1.1204e+02	-4.8785	-19.856652	0.000466	4.661564	1.579381	-0.000187
1128	1.1214e+02	-4.9394	-20.086769	0.000578	5.776286	1.957059	-0.000231
1129	1.1224e+02	-4.9651	-20.288626	0.000507	5.066918	1.716718	-0.000203
1130	1.1234e+02	-5.0004	-20.494520	0.000517	5.168256	1.751053	-0.000207
1131	1.1244e+02	-5.0485	-20.680228	0.000466	4.661564	1.579381	-0.000187
1132	1.1253e+02	-5.0838	-20.890159	0.000527	5.269594	1.785387	-0.000211
1133	1.1263e+02	-5.1223	-21.108164	0.000547	5.472271	1.854056	-0.000219
1134	1.1273e+02	-5.1592	-21.289835	0.000456	4.560226	1.545046	-0.000183
1135	1.1283e+02	-5.2025	-21.540138	0.000628	6.282978	2.128731	-0.000252
1136	1.1293e+02	-5.2442	-21.693549	0.000385	3.850857	1.304706	-0.000154
1137	1.1303e+02	-5.2827	-21.911554	0.000547	5.472271	1.854056	-0.000219
1138	1.1313e+02	-5.3212	-22.129560	0.000547	5.472271	1.854056	-0.000219
1139	1.1323e+02	-5.3581	-22.363713	0.000588	5.877625	1.991393	-0.000235
1140	1.1333e+02	-5.3998	-22.521162	0.000395	3.952196	1.339040	-0.000158
1141	1.1343e+02	-5.4496	-22.739167	0.000547	5.472271	1.854056	-0.000219
1142	1.1353e+02	-5.4833	-22.941024	0.000507	5.066918	1.716718	-0.000203
1143	1.1363e+02	-5.5186	-23.138843	0.000497	4.965579	1.682384	-0.000199
1144	1.1373e+02	-5.5619	-23.316477	0.000446	4.458888	1.510712	-0.000179
1145	1.1383e+02	-5.6084	-23.510260	0.000486	4.864241	1.648049	-0.000195
1146	1.1393e+02	-5.6437	-23.772674	0.000659	6.586993	2.231734	-0.000264
1147	1.1403e+02	-5.6774	-23.926085	0.000385	3.850857	1.304706	-0.000154
1148	1.1413e+02	-5.7191	-24.160239	0.000588	5.877625	1.991393	-0.000235
1149	1.1423e+02	-5.7624	-24.354021	0.000486	4.864241	1.648049	-0.000195
1150	1.1433e+02	-5.8009	-24.535692	0.000456	4.560226	1.545046	-0.000183
1151	1.1442e+02	-5.8410	-24.749661	0.000537	5.370933	1.819721	-0.000215
1152	1.1452e+02	-5.8827	-24.890960	0.000355	3.546842	1.201703	-0.000142
1153	1.1462e+02	-5.9244	-25.141263	0.000628	6.282978	2.128731	-0.000252
1154	1.1472e+02	-5.9597	-25.306785	0.000415	4.154873	1.407709	-0.000166
1155	1.1482e+02	-5.9966	-25.480382	0.000436	4.357549	1.476378	-0.000174
1156	1.1492e+02	-6.0351	-25.718573	0.000598	5.978963	2.025727	-0.000239
1157	1.1502e+02	-6.0768	-25.900244	0.000456	4.560226	1.545046	-0.000183
1158	1.1512e+02	-6.1218	-26.089990	0.000476	4.762903	1.613715	-0.000191
1159	1.1522e+02	-6.1683	-26.344329	0.000638	6.384316	2.163065	-0.000256
1160	1.1532e+02	-6.1988	-26.521963	0.000446	4.458888	1.510712	-0.000179
1161	1.1542e+02	-6.2389	-26.715746	0.000486	4.864241	1.648049	-0.000195
1162	1.1552e+02	-6.2854	-26.925677	0.000527	5.269594	1.785387	-0.000211
1163	1.1562e+02	-6.3223	-27.083125	0.000395	3.952196	1.339040	-0.000158
1164	1.1572e+02	-6.3560	-27.293056	0.000527	5.269594	1.785387	-0.000211
1165	1.1582e+02	-6.4025	-27.474727	0.000456	4.560226	1.545046	-0.000183
1166	1.1592e+02	-6.4378	-27.704844	0.000578	5.776286	1.957059	-0.000231
1167	1.1602e+02	-6.4763	-27.838069	0.000334	3.344166	1.133034	-0.000134
1168	1.1612e+02	-6.5084	-28.068186	0.000578	5.776286	1.957059	-0.000231
1169	1.1622e+02	-6.5485	-28.257932	0.000476	4.762903	1.613715	-0.000191
1170	1.1632e+02	-6.6030	-28.459788	0.000507	5.066918	1.716718	-0.000203
1171	1.1642e+02	-6.6351	-28.633385	0.000436	4.357549	1.476378	-0.000174
1172	1.1651e+02	-6.6768	-28.831205	0.000497	4.965579	1.682384	-0.000199
1173	1.1661e+02	-6.7169	-29.045173	0.000537	5.370933	1.819721	-0.000215
1174	1.1671e+02	-6.7570	-29.206658	0.000405	4.053534	1.373375	-0.000162
1175	1.1681e+02	-6.7971	-29.400441	0.000486	4.864241	1.648049	-0.000195
1176	1.1691e+02	-6.8388	-29.598261	0.000497	4.965579	1.682384	-0.000199
1177	1.1701e+02	-6.8645	-29.771858	0.000436	4.357549	1.476378	-0.000174
1178	1.1711e+02	-6.9158	-29.981789	0.000527	5.269594	1.785387	-0.000211
1179	1.1721e+02	-6.9527	-30.228054	0.000618	6.181640	2.094396	-0.000248
1180	1.1731e+02	-6.9864	-30.345131	0.000294	2.938812	0.995697	-0.000118
1181	1.1741e+02	-7.0442	-30.571210	0.000567	5.674948	1.922724	-0.000227
1182	1.1751e+02	-7.0682	-30.740770	0.000426	4.256211	1.442043	-0.000170
1183	1.1761e+02	-7.1196	-30.918404	0.000446	4.458888	1.510712	-0.000179
1184	1.1771e+02	-7.1501	-31.124298	0.000517	5.168256	1.751053	-0.000207
1185	1.1781e+02	-7.1934	-31.277709	0.000385	3.850857	1.304706	-0.000154
1186	1.1791e+02	-7.2383	-31.475529	0.000497	4.965579	1.682384	-0.000199
1187	1.1801e+02	-7.2688	-31.657200	0.000456	4.560226	1.545046	-0.000183
1188	1.1811e+02	-7.3089	-31.895391	0.000598	5.978963	2.025727	-0.000239
1189	1.1821e+02	-7.3506	-32.064951	0.000426	4.256211	1.442043	-0.000170
1190	1.1831e+02	-7.3843	-32.282956	0.000547	5.472271	1.854056	-0.000219
1191	1.1841e+02	-7.4276	-32.444441	0.000405	4.053534	1.373375	-0.000162
1192	1.1850e+02	-7.4773	-32.642261	0.000497	4.965579	1.682384	-0.000199
1193	1.1860e+02	-7.5062	-32.832006	0.000476	4.762903	1.613715	-0.000191
1194	1.1870e+02	-7.5607	-32.989455	0.000395	3.952196	1.339040	-0.000158
1195	1.1880e+02	-7.5848	-33.207460	0.000547	5.472271	1.854056	-0.000219
1196	1.1890e+02	-7.6265	-33.397205	0.000476	4.762903	1.613715	-0.000191
1197	1.1900e+02	-7.6682	-33.586951	0.000476	4.762903	1.613715	-0.000191
1198	1.1910e+02	-7.7148	-33.760548	0.000436	4.357549	1.476378	-0.000174
1199	1.1920e+02	-7.7533	-33.974516	0.000537	5.370933	1.819721	-0.000215
1200	1.1930e+02	-7.7918	-34.123890	0.000375	3.749519	1.270371	-0.000150
1201	1.1940e+02	-7.8351	-34.354007	0.000578	5.776286	1.957059	-0.000231
1202	1.1950e+02	-7.8752	-34.523566	0.000426	4.256211	1.442043	-0.000170
1203	1.1960e+02	-7.9041	-34.725423	0.000507	5.066918	1.716718	-0.000203
1204	1.1970e+02	-7.9490	-34.911131	0.000466	4.661564	1.579381	-0.000187
1205	1.1980e+02	-7.9939	-35.056468	0.000365	3.648181	1.236037	-0.000146
1206	1.1990e+02	-8.0324	-35.262362	0.000517	5.168256	1.751053	-0.000207
1207	1.2000e+02	-8.0645	-35.435959	0.000436	4.357549	1.476378	-0.000174
1208	1.2010e+02	-8.1158	-35.641853	0.000517	5.168256	1.751053	-0.000207
1209	1.2020e+02	-8.1559	-35.811413	0.000426	4.256211	1.442043	-0.000170
1210	1.2030e+02	-8.1944	-35.985009	0.000436	4.357549	1.476378	-0.000174
1211	1.2039e+02	-8.2185	-36.198978	0.000537	5.370933	1.819721	-0.000215
1212	1.2049e+02	-8.2666	-36.376612	0.000446	4.458888	1.510712	-0.000179
1213	1.2059e+02	-8.3083	-36.598654	0.000557	5.573610	1.888390	-0.000223
1214	1.2069e+02	-8.3484	-36.768214	0.000426	4.256211	1.442043	-0.000170
1215	1.2079e+02	-8.3917	-36.913551	0.000365	3.648181	1.236037	-0.000146
1216	1.2089e+02	-8.4302	-37.135593	0.000557	5.573610	1.888390	-0.000223
1217	1.2099e+02	-8.4623	-37.321301	0.000466	4.661564	1.579381	-0.000187
1218	1.2109e+02	-8.5056	-37.511047	0.000476	4.762903	1.613715	-0.000191
1219	1.2119e+02	-8.5457	-37.668495	0.000395	3.952196	1.339040	-0.000158
1220	1.2129e+02	-8.5891	-37.805758	0.000345	3.445504	1.167368	-0.000138
1221	1.2139e+02	-8.6244	-38.035874	0.000578	5.776286	1.957059	-0.000231
1222	1.2149e+02	-8.6725	-38.257917	0.000557	5.573610	1.888390	-0.000223
1223	1.2159e+02	-8.6982	-38.419402	0.000405	4.053534	1.373375	-0.000162
1224	1.2169e+02	-8.7463	-38.625296	0.000517	5.168256	1.751053	-0.000207
1225	1.2179e+02	-8.7800	-38.811004	0.000466	4.661564	1.579381	-0.000187
1226	1.2189e+02	-8.8281	-39.012861	0.000507	5.066918	1.716718	-0.000203
1227	1.2199e+02	-8.8714	-39.174347	0.000405	4.053534	1.373375	-0.000162
1228	1.2209e+02	-8.9083	-39.356018	0.000456	4.560226	1.545046	-0.000183
1229	1.2219e+02	-8.9500	-39.529615	0.000436	4.357549	1.476378	-0.000174
1230	1.2229e+02	-8.9885	-39.739546	0.000527	5.269594	1.785387	-0.000211
1231	1.2239e+02	-9.0286	-39.901031	0.000405	4.053534	1.373375	-0.000162
1232	1.2248e+02	-9.0623	-40.086739	0.000466	4.661564	1.579381	-0.000187
1233	1.2258e+02	-9.1088	-40.268410	0.000456	4.560226	1.545046	-0.000183
1234	1.2268e+02	-9.1425	-40.478341	0.000527	5.269594	1.785387	-0.000211
1235	1.2278e+02	-9.1826	-40.688273	0.000527	5.269594	1.785387	-0.000211
1236	1.2288e+02	-9.2340	-40.849758	0.000405	4.053534	1.373375	-0.000162
1237	1.2298e+02	-9.2660	-41.039503	0.000476	4.762903	1.613715	-0.000191
1238	1.2308e+02	-9.3062	-41.237323	0.000497	4.965579	1.682384	-0.000199
1239	1.2318e+02	-9.3527	-41.431106	0.000486	4.864241	1.648049	-0.000195
1240	1.2328e+02	-9.3799	-41.608739	0.000446	4.458888	1.510712	-0.000179
1241	1.2338e+02	-9.4249	-41.774262	0.000415	4.154873	1.407709	-0.000166
1242	1.2348e+02	-9.4618	-41.935747	0.000405	4.053534	1.373375	-0.000162
1243	1.2358e+02	-9.4938	-42.141641	0.000517	5.168256	1.751053	-0.000207
1244	1.2368e+02	-9.5420	-42.299090	0.000395	3.952196	1.339040	-0.000158
1245	1.2378e+02	-9.5869	-42.533244	0.000588	5.877625	1.991393	-0.000235
1246	1.2388e+02	-9.6286	-42.731063	0.000497	4.965579	1.682384	-0.000199
1247	1.2398e+02	-9.6671	-42.900623	0.000426	4.256211	1.442043	-0.000170
1248	1.2408e+02	-9.7024	-43.037886	0.000345	3.445504	1.167368	-0.000138
1249	1.2418e+02	-9.7473	-43.263965	0.000567	5.674948	1.922724	-0.000227
1250	1.2428e+02	-9.7794	-43.461785	0.000497	4.965579	1.682384	-0.000199
1251	1.2438e+02	-9.8291	-43.595010	0.000334	3.344166	1.133034	-0.000134
1252	1.2447e+02	-9.8660	-43.808978	0.000537	5.370933	1.819721	-0.000215
1253	1.2457e+02	-9.8917	-43.998724	0.000476	4.762903	1.613715	-0.000191
1254	1.2467e+02	-9.9430	-44.164246	0.000415	4.154873	1.407709	-0.000166
1255	1.2477e+02	-9.9831	-44.414549	0.000628	6.282978	2.128731	-0.000252
1256	1.2487e+02	-10.0216	-44.499329	0.000213	2.128105	0.721022	-0.000085
1257	1.2497e+02	-10.0585	-44.709260	0.000527	5.269594	1.785387	-0.000211
1258	1.2507e+02	-10.1019	-44.935339	0.000567	5.674948	1.922724	-0.000227
1259	1.2517e+02	-10.1388	-45.084713	0.000375	3.749519	1.270371	-0.000150
1260	1.2527e+02	-10.1853	-45.250236	0.000415	4.154873	1.407709	-0.000166
1261	1.2537e+02	-10.2206	-45.476316	0.000567	5.674948	1.922724	-0.000227
1262	1.2547e+02	-10.2575	-45.637801	0.000405	4.053534	1.373375	-0.000162
1263	1.2557e+02	-10.3008	-45.835621	0.000497	4.965579	1.682384	-0.000199
1264	1.2567e+02	-10.3393	-46.021329	0.000466	4.661564	1.579381	-0.000187
1265	1.2577e+02	-10.3778	-46.194926	0.000436	4.357549	1.476378	-0.000174
1266	1.2587e+02	-10.4227	-46.344300	0.000375	3.749519	1.270371	-0.000150
1267	1.2597e+02	-10.4500	-46.574416	0.000578	5.776286	1.957059	-0.000231
1268	1.2607e+02	-10.4965	-46.776273	0.000507	5.066918	1.716718	-0.000203
1269	1.2617e+02	-10.5334	-46.937759	0.000405	4.053534	1.373375	-0.000162
1270	1.2627e+02	-10.5831	-47.135578	0.000497	4.965579	1.682384	-0.000199
1271	1.2636e+02	-10.6264	-47.337435	0.000507	5.066918	1.716718	-0.000203
1272	1.2646e+02	-10.6601	-47.519106	0.000456	4.560226	1.545046	-0.000183
1273	1.2656e+02	-10.6970	-47.700777	0.000456	4.560226	1.545046	-0.000183
1274	1.2666e+02	-10.7323	-47.890523	0.000476	4.762903	1.613715	-0.000191
1275	1.2676e+02	-10.7820	-48.023748	0.000334	3.344166	1.133034	-0.000134
1276	1.2686e+02	-10.8302	-48.209456	0.000466	4.661564	1.579381	-0.000187
1277	1.2696e+02	-10.8526	-48.419387	0.000527	5.269594	1.785387	-0.000211
1278	1.2706e+02	-10.8976	-48.572799	0.000385	3.850857	1.304706	-0.000154
1279	1.2716e+02	-10.9345	-48.778693	0.000517	5.168256	1.751053	-0.000207
1280	1.2726e+02	-10.9778	-48.903844	0.000314	3.141489	1.064365	-0.000126
1281	1.2736e+02	-11.0179	-49.117812	0.000537	5.370933	1.819721	-0.000215
1282	1.2746e+02	-11.0612	-49.331780	0.000537	5.370933	1.819721	-0.000215
1283	1.2756e+02	-11.0981	-49.505377	0.000436	4.357549	1.476378	-0.000174
1284	1.2766e+02	-11.1494	-49.678974	0.000436	4.357549	1.476378	-0.000174
1285	1.2776e+02	-11.1735	-49.844496	0.000415	4.154873	1.407709	-0.000166
1286	1.2786e+02	-11.2152	-50.026167	0.000456	4.560226	1.545046	-0.000183
1287	1.2796e+02	-11.2729	-50.187653	0.000405	4.053534	1.373375	-0.000162
1288	1.2806e+02	-11.3018	-50.361250	0.000436	4.357549	1.476378	-0.000174
1289	1.2816e+02	-11.3371	-50.583292	0.000557	5.573610	1.888390	-0.000223
1290	1.2826e+02	-11.3788	-50.756889	0.000436	4.357549	1.476378	-0.000174
1291	1.2835e+02	-11.4253	-50.918374	0.000405	4.053534	1.373375	-0.000162
1292	1.2845e+02	-11.4558	-51.120231	0.000507	5.066918	1.716718	-0.000203
1293	1.2855e+02	-11.4991	-51.273642	0.000385	3.850857	1.304706	-0.000154
1294	1.2865e+02	-11.5473	-51.487611	0.000537	5.370933	1.819721	-0.000215
1295	1.2875e+02	-11.5794	-51.632948	0.000365	3.648181	1.236037	-0.000146
1296	1.2885e+02	-11.6050	-51.794433	0.000405	4.053534	1.373375	-0.000162
1297	1.2895e+02	-11.6548	-52.024550	0.000578	5.776286	1.957059	-0.000231
1298	1.2905e+02	-11.6981	-52.177961	0.000385	3.850857	1.304706	-0.000154
1299	1.2915e+02	-11.7334	-52.351558	0.000436	4.357549	1.476378	-0.000174
1300	1.2925e+02	-11.7783	-52.569563	0.000547	5.472271	1.854056	-0.000219
1301	1.2935e+02	-11.8104	-52.731048	0.000405	4.053534	1.373375	-0.000162
1302	1.2945e+02	-11.8457	-52.868311	0.000345	3.445504	1.167368	-0.000138
1303	1.2955e+02	-11.8938	-53.025759	0.000395	3.952196	1.339040	-0.000158
1304	1.2965e+02	-11.9339	-53.259913	0.000588	5.877625	1.991393	-0.000235
1305	1.2975e+02	-11.9724	-53.405250	0.000365	3.648181	1.236037	-0.000146
1306	1.2985e+02	-12.0189	-53.599033	0.000486	4.864241	1.648049	-0.000195
1307	1.2995e+02	-12.0510	-53.772629	0.000436	4.357549	1.476378	-0.000174
1308	1.3005e+02	-12.0991	-53.942189	0.000426	4.256211	1.442043	-0.000170
1309	1.3015e+02	-12.1408	-54.127897	0.000466	4.661564	1.579381	-0.000187
1310	1.3025e+02	-12.1858	-54.317643	0.000476	4.762903	1.613715	-0.000191
1311	1.3034e+02	-12.2066	-54.483165	0.000415	4.154873	1.407709	-0.000166
1312	1.3044e+02	-12.2531	-54.652725	0.000426	4.256211	1.442043	-0.000170
1313	1.3054e+02	-12.2932	-54.838433	0.000466	4.661564	1.579381	-0.000187
1314	1.3064e+02	-12.3301	-54.975696	0.000345	3.445504	1.167368	-0.000138
1315	1.3074e+02	-12.3702	-55.193701	0.000547	5.472271	1.854056	-0.000219
1316	1.3084e+02	-12.4152	-55.359224	0.000415	4.154873	1.407709	-0.000166
1317	1.3094e+02	-12.4569	-55.504561	0.000365	3.648181	1.236037	-0.000146
1318	1.3104e+02	-12.4922	-55.653935	0.000375	3.749519	1.270371	-0.000150
1319	1.3114e+02	-12.5307	-55.896163	0.000608	6.080301	2.060062	-0.000243
1320	1.3124e+02	-12.5660	-56.037463	0.000355	3.546842	1.201703	-0.000142
1321	1.3134e+02	-12.6109	-56.223171	0.000466	4.661564	1.579381	-0.000187
1322	1.3144e+02	-12.6510	-56.348322	0.000314	3.141489	1.064365	-0.000126
1323	1.3154e+02	-12.6943	-56.546142	0.000497	4.965579	1.682384	-0.000199
1324	1.3164e+02	-12.7328	-56.707627	0.000405	4.053534	1.373375	-0.000162
1325	1.3174e+02	-12.7713	-56.961967	0.000638	6.384316	2.163065	-0.000256
1326	1.3184e+02	-12.8114	-57.058858	0.000243	2.432121	0.824025	-0.000097
1327	1.3194e+02	-12.8547	-57.244566	0.000466	4.661564	1.579381	-0.000187
1328	1.3204e+02	-12.8900	-57.406052	0.000405	4.053534	1.373375	-0.000162
1329	1.3214e+02	-12.9301	-57.531203	0.000314	3.141489	1.064365	-0.000126
1330	1.3224e+02	-12.9718	-57.741134	0.000527	5.269594	1.785387	-0.000211
1331	1.3234e+02	-13.0135	-57.906656	0.000415	4.154873	1.407709	-0.000166
1332	1.3243e+02	-13.0536	-58.072179	0.000415	4.154873	1.407709	-0.000166
1333	1.3253e+02	-13.0873	-58.261924	0.000476	4.762903	1.613715	-0.000191
1334	1.3263e+02	-13.1258	-58.431484	0.000426	4.256211	1.442043	-0.000170
1335	1.3273e+02	-13.1659	-58.613155	0.000456	4.560226	1.545046	-0.000183
1336	1.3283e+02	-13.2012	-58.802901	0.000476	4.762903	1.613715	-0.000191
1337	1.3293e+02	-13.2478	-58.960349	0.000395	3.952196	1.339040	-0.000158
1338	1.3303e+02	-13.2911	-59.089537	0.000324	3.242827	1.098700	-0.000130
1339	1.3313e+02	-13.3248	-59.283320	0.000486	4.864241	1.648049	-0.000195
1340	1.3323e+02	-13.3649	-59.416545	0.000334	3.344166	1.133034	-0.000134
1341	1.3333e+02	-13.4178	-59.573994	0.000395	3.952196	1.339040	-0.000158
1342	1.3343e+02	-13.4451	-59.836407	0.000659	6.586993	2.231734	-0.000264
1343	1.3353e+02	-13.4804	-59.945410	0.000274	2.736136	0.927028	-0.000110
1344	1.3363e+02	-13.5189	-60.127081	0.000456	4.560226	1.545046	-0.000183
1345	1.3373e+02	-13.5654	-60.284529	0.000395	3.952196	1.339040	-0.000158
1346	1.3383e+02	-13.6071	-60.429866	0.000365	3.648181	1.236037	-0.000146
1347	1.3393e+02	-13.6488	-60.635760	0.000517	5.168256	1.751053	-0.000207
1348	1.3403e+02	-13.6873	-60.768986	0.000334	3.344166	1.133034	-0.000134
1349	1.3413e+02	-13.7242	-60.938545	0.000426	4.256211	1.442043	-0.000170
1350	1.3423e+02	-13.7627	-61.091957	0.000385	3.850857	1.304706	-0.000154
1351	1.3432e+02	-13.8060	-61.305925	0.000537	5.370933	1.819721	-0.000215
1352	1.3442e+02	-13.8413	-61.427039	0.000304	3.040151	1.030031	-0.000122
1353	1.3452e+02	-13.8814	-61.596599	0.000426	4.256211	1.442043	-0.000170
1354	1.3462e+02	-13.9215	-61.750010	0.000385	3.850857	1.304706	-0.000154
1355	1.3472e+02	-13.9713	-61.943792	0.000486	4.864241	1.648049	-0.000195
1356	1.3482e+02	-14.0033	-62.101240	0.000395	3.952196	1.339040	-0.000158
1357	1.3492e+02	-14.0386	-62.258689	0.000395	3.952196	1.339040	-0.000158
1358	1.3502e+02	-14.0932	-62.448434	0.000476	4.762903	1.613715	-0.000191
1359	1.3512e+02	-14.1189	-62.642217	0.000486	4.864241	1.648049	-0.000195
1360	1.3522e+02	-14.1622	-62.783516	0.000355	3.546842	1.201703	-0.000142
1361	1.3532e+02	-14.2103	-62.920779	0.000345	3.445504	1.167368	-0.000138
1362	1.3542e+02	-14.2456	-63.126673	0.000517	5.168256	1.751053	-0.000207
1363	1.3552e+02	-14.2809	-63.284121	0.000395	3.952196	1.339040	-0.000158
1364	1.3562e+02	-14.3242	-63.457718	0.000436	4.357549	1.476378	-0.000174
1365	1.3572e+02	-14.3595	-63.631315	0.000436	4.357549	1.476378	-0.000174
1366	1.3582e+02	-14.4044	-63.792800	0.000405	4.053534	1.373375	-0.000162
1367	1.3592e+02	-14.4317	-63.942174	0.000375	3.749519	1.270371	-0.000150
1368	1.3602e+02	-14.4814	-64.087511	0.000365	3.648181	1.236037	-0.000146
1369	1.3612e+02	-14.5231	-64.273220	0.000466	4.661564	1.579381	-0.000187
1370	1.3622e+02	-14.5584	-64.475076	0.000507	5.066918	1.716718	-0.000203
1371	1.3631e+02	-14.6065	-64.563893	0.000223	2.229444	0.755356	-0.000089
1372	1.3641e+02	-14.6482	-64.765750	0.000507	5.066918	1.716718	-0.000203
1373	1.3651e+02	-14.6868	-64.935310	0.000426	4.256211	1.442043	-0.000170
1374	1.3661e+02	-14.7220	-65.137167	0.000507	5.066918	1.716718	-0.000203
1375	1.3671e+02	-14.7605	-65.282503	0.000365	3.648181	1.236037	-0.000146
1376	1.3681e+02	-14.7958	-65.448026	0.000415	4.154873	1.407709	-0.000166
1377	1.3691e+02	-14.8504	-65.593363	0.000365	3.648181	1.236037	-0.000146
1378	1.3701e+02	-14.8793	-65.738700	0.000365	3.648181	1.236037	-0.000146
1379	1.3711e+02	-14.9162	-65.948631	0.000527	5.269594	1.785387	-0.000211
1380	1.3721e+02	-14.9547	-66.110116	0.000405	4.053534	1.373375	-0.000162
1381	1.3731e+02	-14.9980	-66.231230	0.000304	3.040151	1.030031	-0.000122
1382	1.3741e+02	-15.0381	-66.457310	0.000567	5.674948	1.922724	-0.000227
1383	1.3751e+02	-15.0814	-66.602647	0.000365	3.648181	1.236037	-0.000146
1384	1.3761e+02	-15.1263	-66.780281	0.000446	4.458888	1.510712	-0.000179
1385	1.3771e+02	-15.1712	-66.937729	0.000395	3.952196	1.339040	-0.000158
1386	1.3781e+02	-15.1985	-67.143623	0.000517	5.168256	1.751053	-0.000207
1387	1.3791e+02	-15.2450	-67.280886	0.000345	3.445504	1.167368	-0.000138
1388	1.3801e+02	-15.2787	-67.446408	0.000415	4.154873	1.407709	-0.000166
1389	1.3811e+02	-15.3284	-67.603857	0.000395	3.952196	1.339040	-0.000158
1390	1.3821e+02	-15.3637	-67.793602	0.000476	4.762903	1.613715	-0.000191
1391	1.3831e+02	-15.4038	-67.938939	0.000365	3.648181	1.236037	-0.000146
1392	1.3840e+02	-15.4407	-68.136758	0.000497	4.965579	1.682384	-0.000199
1393	1.3850e+02	-15.4712	-68.302281	0.000415	4.154873	1.407709	-0.000166
1394	1.3860e+02	-15.5177	-68.455692	0.000385	3.850857	1.304706	-0.000154
1395	1.3870e+02	-15.5627	-68.596992	0.000355	3.546842	1.201703	-0.000142
1396	1.3880e+02	-15.5964	-68.827109	0.000578	5.776286	1.957059	-0.000231
1397	1.3890e+02	-15.6365	-68.984557	0.000395	3.952196	1.339040	-0.000158
1398	1.3900e+02	-15.6766	-69.121820	0.000345	3.445504	1.167368	-0.000138
1399	1.3910e+02	-15.7167	-69.319639	0.000497	4.965579	1.682384	-0.000199
1400	1.3920e+02	-15.7648	-69.501310	0.000456	4.560226	1.545046	-0.000183
1401	1.3930e+02	-15.8001	-69.638573	0.000345	3.445504	1.167368	-0.000138
1402	1.3940e+02	-15.8306	-69.824281	0.000466	4.661564	1.579381	-0.000187
1403	1.3950e+02	-15.8787	-70.030175	0.000517	5.168256	1.751053	-0.000207
1404	1.3960e+02	-15.9156	-70.167438	0.000345	3.445504	1.167368	-0.000138
1405	1.3970e+02	-15.9637	-70.377369	0.000527	5.269594	1.785387	-0.000211
1406	1.3980e+02	-16.0006	-70.534817	0.000395	3.952196	1.339040	-0.000158
1407	1.3990e+02	-16.0391	-70.688228	0.000385	3.850857	1.304706	-0.000154
1408	1.4000e+02	-16.0776	-70.873936	0.000466	4.661564	1.579381	-0.000187
1409	1.4010e+02	-16.1257	-71.075793	0.000507	5.066918	1.716718	-0.000203
1410	1.4020e+02	-16.1626	-71.233242	0.000395	3.952196	1.339040	-0.000158
1411	1.4029e+02	-16.1995	-71.390690	0.000395	3.952196	1.339040	-0.000158
1412	1.4039e+02	-16.2348	-71.576398	0.000466	4.661564	1.579381	-0.000187
1413	1.4049e+02	-16.2733	-71.705586	0.000324	3.242827	1.098700	-0.000130
1414	1.4059e+02	-16.3167	-71.943777	0.000598	5.978963	2.025727	-0.000239
1415	1.4069e+02	-16.3648	-72.117374	0.000436	4.357549	1.476378	-0.000174
1416	1.4079e+02	-16.3953	-72.286934	0.000426	4.256211	1.442043	-0.000170
1417	1.4089e+02	-16.4418	-72.416122	0.000324	3.242827	1.098700	-0.000130
1418	1.4099e+02	-16.4691	-72.634128	0.000547	5.472271	1.854056	-0.000219
1419	1.4109e+02	-16.5188	-72.815799	0.000456	4.560226	1.545046	-0.000183
1420	1.4119e+02	-16.5525	-72.985358	0.000426	4.256211	1.442043	-0.000170
1421	1.4129e+02	-16.5958	-73.207401	0.000557	5.573610	1.888390	-0.000223
1422	1.4139e+02	-16.6311	-73.332552	0.000314	3.141489	1.064365	-0.000126
1423	1.4149e+02	-16.6824	-73.498075	0.000415	4.154873	1.407709	-0.000166
1424	1.4159e+02	-16.7209	-73.720117	0.000557	5.573610	1.888390	-0.000223
1425	1.4169e+02	-16.7578	-73.853343	0.000334	3.344166	1.133034	-0.000134
1426	1.4179e+02	-16.7931	-74.091534	0.000598	5.978963	2.025727	-0.000239
1427	1.4189e+02	-16.8316	-74.257056	0.000415	4.154873	1.407709	-0.000166
1428	1.4199e+02	-16.8781	-74.442764	0.000466	4.661564	1.579381	-0.000187
1429	1.4209e+02	-16.9231	-74.632510	0.000476	4.762903	1.613715	-0.000191
1430	1.4219e+02	-16.9567	-74.810144	0.000446	4.458888	1.510712	-0.000179
1431	1.4228e+02	-16.9840	-74.979703	0.000426	4.256211	1.442043	-0.000170
1432	1.4238e+02	-17.0402	-75.177523	0.000497	4.965579	1.682384	-0.000199
1433	1.4248e+02	-17.0706	-75.363231	0.000466	4.661564	1.579381	-0.000187
1434	1.4258e+02	-17.1156	-75.548940	0.000466	4.661564	1.579381	-0.000187
1435	1.4268e+02	-17.1525	-75.682165	0.000334	3.344166	1.133034	-0.000134
1436	1.4278e+02	-17.1910	-75.924393	0.000608	6.080301	2.060062	-0.000243
1437	1.4288e+02	-17.2246	-76.065693	0.000355	3.546842	1.201703	-0.000142
1438	1.4298e+02	-17.2744	-76.271587	0.000517	5.168256	1.751053	-0.000207
1439	1.4308e+02	-17.3241	-76.485555	0.000537	5.370933	1.819721	-0.000215
1440	1.4318e+02	-17.3514	-76.659152	0.000436	4.357549	1.476378	-0.000174
1441	1.4328e+02	-17.3963	-76.873120	0.000537	5.370933	1.819721	-0.000215
1442	1.4338e+02	-17.4364	-77.018457	0.000365	3.648181	1.236037	-0.000146
1443	1.4348e+02	-17.4717	-77.216277	0.000497	4.965579	1.682384	-0.000199
1444	1.4358e+02	-17.5134	-77.385836	0.000426	4.256211	1.442043	-0.000170
1445	1.4368e+02	-17.5535	-77.599805	0.000537	5.370933	1.819721	-0.000215
1446	1.4378e+02	-17.5920	-77.765327	0.000415	4.154873	1.407709	-0.000166
1447	1.4388e+02	-17.6241	-77.963147	0.000497	4.965579	1.682384	-0.000199
1448	1.4398e+02	-17.6706	-78.152892	0.000476	4.762903	1.613715	-0.000191
1449	1.4408e+02	-17.7059	-78.374935	0.000557	5.573610	1.888390	-0.000223
1450	1.4418e+02	-17.7492	-78.536420	0.000405	4.053534	1.373375	-0.000162
1451	1.4428e+02	-17.7958	-78.693868	0.000395	3.952196	1.339040	-0.000158
1452	1.4437e+02	-17.8230	-78.895725	0.000507	5.066918	1.716718	-0.000203
1453	1.4447e+02	-17.8679	-79.101619	0.000517	5.168256	1.751053	-0.000207
1454	1.4457e+02	-17.9113	-79.315587	0.000537	5.370933	1.819721	-0.000215
1455	1.4467e+02	-17.9530	-79.485147	0.000426	4.256211	1.442043	-0.000170
1456	1.4477e+02	-17.9899	-79.715264	0.000578	5.776286	1.957059	-0.000231
1457	1.4487e+02	-18.0348	-79.880786	0.000415	4.154873	1.407709	-0.000166
1458	1.4497e+02	-18.0733	-80.058420	0.000446	4.458888	1.510712	-0.000179
1459	1.4507e+02	-18.1182	-80.304686	0.000618	6.181640	2.094396	-0.000248
1460	1.4517e+02	-18.1471	-80.445985	0.000355	3.546842	1.201703	-0.000142
1461	1.4527e+02	-18.1904	-80.651879	0.000517	5.168256	1.751053	-0.000207
1462	1.4537e+02	-18.2353	-80.829513	0.000446	4.458888	1.510712	-0.000179
1463	1.4547e+02	-18.2706	-81.079816	0.000628	6.282978	2.128731	-0.000252
1464	1.4557e+02	-18.3171	-81.229190	0.000375	3.749519	1.270371	-0.000150
1465	1.4567e+02	-18.3460	-81.439121	0.000527	5.269594	1.785387	-0.000211
1466	1.4577e+02	-18.3941	-81.669237	0.000578	5.776286	1.957059	-0.000231
1467	1.4587e+02	-18.4326	-81.830723	0.000405	4.053534	1.373375	-0.000162
1468	1.4597e+02	-18.4711	-82.048728	0.000547	5.472271	1.854056	-0.000219
1469	1.4607e+02	-18.5128	-82.214251	0.000415	4.154873	1.407709	-0.000166
1470	1.4617e+02	-18.5578	-82.428219	0.000537	5.370933	1.819721	-0.000215
1471	1.4626e+02	-18.5898	-82.678521	0.000628	6.282978	2.128731	-0.000252
1472	1.4636e+02	-18.6332	-82.848081	0.000426	4.256211	1.442043	-0.000170
1473	1.4646e+02	-18.6765	-83.029752	0.000456	4.560226	1.545046	-0.000183
1474	1.4656e+02	-18.7102	-83.251795	0.000557	5.573610	1.888390	-0.000223
1475	1.4666e+02	-18.7439	-83.477874	0.000567	5.674948	1.922724	-0.000227
1476	1.4676e+02	-18.7840	-83.655508	0.000446	4.458888	1.510712	-0.000179
1477	1.4686e+02	-18.8321	-83.849291	0.000486	4.864241	1.648049	-0.000195
1478	1.4696e+02	-18.8802	-84.051147	0.000507	5.066918	1.716718	-0.000203
1479	1.4706e+02	-18.9107	-84.236856	0.000466	4.661564	1.579381	-0.000187
1480	1.4716e+02	-18.9508	-84.475047	0.000598	5.978963	2.025727	-0.000239
1481	1.4726e+02	-18.9909	-84.660755	0.000466	4.661564	1.579381	-0.000187
1482	1.4736e+02	-19.0326	-84.850500	0.000476	4.762903	1.613715	-0.000191
1483	1.4746e+02	-19.0711	-85.116951	0.000669	6.688331	2.266068	-0.000268
1484	1.4756e+02	-19.1080	-85.246140	0.000324	3.242827	1.098700	-0.000130
1485	1.4766e+02	-19.1385	-85.484331	0.000598	5.978963	2.025727	-0.000239
1486	1.4776e+02	-19.1850	-85.674076	0.000476	4.762903	1.613715	-0.000191
1487	1.4786e+02	-19.2364	-85.952638	0.000699	6.992346	2.369071	-0.000280
1488	1.4796e+02	-19.2684	-86.106050	0.000385	3.850857	1.304706	-0.000154
1489	1.4806e+02	-19.3037	-86.324055	0.000547	5.472271	1.854056	-0.000219
1490	1.4816e+02	-19.3438	-86.505726	0.000456	4.560226	1.545046	-0.000183
1491	1.4825e+02	-19.3807	-86.711620	0.000517	5.168256	1.751053	-0.000207
1492	1.4835e+02	-19.4257	-86.957885	0.000618	6.181640	2.094396	-0.000248
1493	1.4845e+02	-19.4690	-87.155705	0.000497	4.965579	1.682384	-0.000199
1494	1.4855e+02	-19.5027	-87.349487	0.000486	4.864241	1.648049	-0.000195
1495	1.4865e+02	-19.5460	-87.563456	0.000537	5.370933	1.819721	-0.000215
1496	1.4875e+02	-19.5781	-87.793572	0.000578	5.776286	1.957059	-0.000231
1497	1.4885e+02	-19.6326	-87.979281	0.000466	4.661564	1.579381	-0.000187
1498	1.4895e+02	-19.6615	-88.233620	0.000638	6.384316	2.163065	-0.000256
1499	1.4905e+02	-19.6984	-88.443551	0.000527	5.269594	1.785387	-0.000211
1500	1.4915e+02	-19.7433	-88.641371	0.000497	4.965579	1.682384	-0.000199
1501	1.4925e+02	-19.7770	-88.875525	0.000588	5.877625	1.991393	-0.000235
1502	1.4935e+02	-19.8251	-89.069307	0.000486	4.864241	1.648049	-0.000195
1503	1.4945e+02	-19.8604	-89.335758	0.000669	6.688331	2.266068	-0.000268
1504	1.4955e+02	-19.9021	-89.521466	0.000466	4.661564	1.579381	-0.000187
1505	1.4965e+02	-19.9422	-89.715249	0.000486	4.864241	1.648049	-0.000195
1506	1.4975e+02	-19.9775	-89.953440	0.000598	5.978963	2.025727	-0.000239
1507	1.4985e+02	-20.0240	-90.175482	0.000557	5.573610	1.888390	-0.000223
1508	1.4995e+02	-19.9791	-90.118963	0.000142	1.418737	0.480681	0.000057
1509	1.5005e+02	-19.9422	-90.062443	0.000142	1.418737	0.480681	0.000057
1510	1.5015e+02	-19.8973	-90.030146	0.000081	0.810707	0.274675	0.000032
1511	1.5025e+02	-19.8668	-89.945366	0.000213	2.128105	0.721022	0.000085
1512	1.5034e+02	-19.8235	-89.892883	0.000132	1.317399	0.446347	0.000053
1513	1.5044e+02	-19.7818	-89.808103	0.000213	2.128105	0.721022	0.000085
1514	1.5054e+02	-19.7433	-89.755620	0.000132	1.317399	0.446347	0.000053
1515	1.5064e+02	-19.6984	-89.662766	0.000233	2.330782	0.789690	0.000093
1516	1.5074e+02	-19.6647	-89.565875	0.000243	2.432121	0.824025	0.000097
1517	1.5084e+02	-19.6246	-89.497244	0.000172	1.722752	0.583684	0.000069
1518	1.5094e+02	-19.5829	-89.400352	0.000243	2.432121	0.824025	0.000097
1519	1.5104e+02	-19.5412	-89.327684	0.000182	1.824090	0.618019	0.000073
1520	1.5114e+02	-19.5011	-89.230793	0.000243	2.432121	0.824025	0.000097
1521	1.5124e+02	-19.4786	-89.150050	0.000203	2.026767	0.686687	0.000081
1522	1.5134e+02	-19.4192	-89.028936	0.000304	3.040151	1.030031	0.000122
1523	1.5144e+02	-19.3791	-88.984527	0.000111	1.114722	0.377678	0.000045
1524	1.5154e+02	-19.3406	-88.867450	0.000294	2.938812	0.995697	0.000118
1525	1.5164e+02	-19.3102	-88.766522	0.000253	2.533459	0.858359	0.000101
1526	1.5174e+02	-19.2652	-88.710002	0.000142	1.418737	0.480681	0.000057
1527	1.5184e+02	-19.2283	-88.560628	0.000375	3.749519	1.270371	0.000150
1528	1.5194e+02	-19.1962	-88.459700	0.000253	2.533459	0.858359	0.000101
1529	1.5204e+02	-19.1465	-88.374920	0.000213	2.128105	0.721022	0.000085
1530	1.5214e+02	-19.1128	-88.282066	0.000233	2.330782	0.789690	0.000093
1531	1.5224e+02	-19.0663	-88.148840	0.000334	3.344166	1.133034	0.000134
1532	1.5233e+02	-19.0278	-88.011578	0.000345	3.445504	1.167368	0.000138
1533	1.5243e+02	-18.9861	-87.942946	0.000172	1.722752	0.583684	0.000069
1534	1.5253e+02	-18.9556	-87.862204	0.000203	2.026767	0.686687	0.000081
1535	1.5263e+02	-18.9107	-87.720904	0.000355	3.546842	1.201703	0.000142
1536	1.5273e+02	-18.8706	-87.591716	0.000324	3.242827	1.098700	0.000130
1537	1.5283e+02	-18.8321	-87.502899	0.000223	2.229444	0.755356	0.000089
1538	1.5293e+02	-18.7856	-87.377747	0.000314	3.141489	1.064365	0.000126
1539	1.5303e+02	-18.7487	-87.256633	0.000304	3.040151	1.030031	0.000122
1540	1.5313e+02	-18.7086	-87.171853	0.000213	2.128105	0.721022	0.000085
1541	1.5323e+02	-18.6652	-87.022479	0.000375	3.749519	1.270371	0.000150
1542	1.5333e+02	-18.6348	-86.925588	0.000243	2.432121	0.824025	0.000097
1543	1.5343e+02	-18.5915	-86.812548	0.000284	2.837474	0.961362	0.000114
1544	1.5353e+02	-18.5513	-86.683360	0.000324	3.242827	1.098700	0.000130
1545	1.5363e+02	-18.5145	-86.542060	0.000355	3.546842	1.201703	0.000142
1546	1.5373e+02	-18.4759	-86.469392	0.000182	1.824090	0.618019	0.000073
1547	1.5383e+02	-18.4278	-86.336166	0.000334	3.344166	1.133034	0.000134
1548	1.5393e+02	-18.3909	-86.215052	0.000304	3.040151	1.030031	0.000122
1549	1.5403e+02	-18.3508	-86.114124	0.000253	2.533459	0.858359	0.000101
1550	1.5413e+02	-18.3091	-85.972824	0.000355	3.546842	1.201703	0.000142
1551	1.5422e+02	-18.2706	-85.863821	0.000274	2.736136	0.927028	0.000110
1552	1.5432e+02	-18.2321	-85.734633	0.000324	3.242827	1.098700	0.000130
1553	1.5442e+02	-18.1984	-85.613519	0.000304	3.040151	1.030031	0.000122
1554	1.5452e+02	-18.1455	-85.443959	0.000426	4.256211	1.442043	0.000170
1555	1.5462e+02	-18.1022	-85.371291	0.000182	1.824090	0.618019	0.000073
1556	1.5472e+02	-18.0717	-85.286511	0.000213	2.128105	0.721022	0.000085
1557	1.5482e+02	-18.0332	-85.137137	0.000375	3.749519	1.270371	0.000150
1558	1.5492e+02	-17.9947	-85.003912	0.000334	3.344166	1.133034	0.000134
1559	1.5502e+02	-17.9530	-84.911057	0.000233	2.330782	0.789690	0.000093
1560	1.5512e+02	-17.9081	-84.749572	0.000405	4.053534	1.373375	0.000162
1561	1.5522e+02	-17.8760	-84.672866	0.000193	1.925429	0.652353	0.000077
1562	1.5532e+02	-17.8246	-84.567901	0.000263	2.634797	0.892693	0.000105
1563	1.5542e+02	-17.7974	-84.438713	0.000324	3.242827	1.098700	0.000130
1564	1.5552e+02	-17.7524	-84.277227	0.000405	4.053534	1.373375	0.000162
1565	1.5562e+02	-17.7123	-84.172262	0.000263	2.634797	0.892693	0.000105
1566	1.5572e+02	-17.6690	-84.055185	0.000294	2.938812	0.995697	0.000118
1567	1.5582e+02	-17.6305	-83.917922	0.000345	3.445504	1.167368	0.000138
1568	1.5592e+02	-17.5936	-83.776622	0.000355	3.546842	1.201703	0.000142
1569	1.5602e+02	-17.5455	-83.671657	0.000263	2.634797	0.892693	0.000105
1570	1.5612e+02	-17.5150	-83.530357	0.000355	3.546842	1.201703	0.000142
1571	1.5622e+02	-17.4749	-83.429429	0.000253	2.533459	0.858359	0.000101
1572	1.5631e+02	-17.4300	-83.247757	0.000456	4.560226	1.545046	0.000183
1573	1.5641e+02	-17.3899	-83.134718	0.000284	2.837474	0.961362	0.000114
1574	1.5651e+02	-17.3562	-83.033789	0.000253	2.533459	0.858359	0.000101
1575	1.5661e+02	-17.3193	-82.920749	0.000284	2.837474	0.961362	0.000114
1576	1.5671e+02	-17.2696	-82.771375	0.000375	3.749519	1.270371	0.000150
1577	1.5681e+02	-17.2311	-82.678521	0.000233	2.330782	0.789690	0.000093
1578	1.5691e+02	-17.1942	-82.573556	0.000263	2.634797	0.892693	0.000105
1579	1.5701e+02	-17.1605	-82.412070	0.000405	4.053534	1.373375	0.000162
1580	1.5711e+02	-17.1075	-82.274808	0.000345	3.445504	1.167368	0.000138
1581	1.5721e+02	-17.0787	-82.125434	0.000375	3.749519	1.270371	0.000150
1582	1.5731e+02	-17.0241	-82.044691	0.000203	2.026767	0.686687	0.000081
1583	1.5741e+02	-16.9985	-81.927614	0.000294	2.938812	0.995697	0.000118
1584	1.5751e+02	-16.9551	-81.794389	0.000334	3.344166	1.133034	0.000134
1585	1.5761e+02	-16.9070	-81.640977	0.000385	3.850857	1.304706	0.000154
1586	1.5771e+02	-16.8701	-81.511789	0.000324	3.242827	1.098700	0.000130
1587	1.5781e+02	-16.8220	-81.390675	0.000304	3.040151	1.030031	0.000122
1588	1.5791e+02	-16.7931	-81.209004	0.000456	4.560226	1.545046	0.000183
1589	1.5801e+02	-16.7546	-81.132298	0.000193	1.925429	0.652353	0.000077
1590	1.5811e+02	-16.7049	-81.019259	0.000284	2.837474	0.961362	0.000114
1591	1.5821e+02	-16.6824	-80.853736	0.000415	4.154873	1.407709	0.000166
1592	1.5830e+02	-16.6295	-80.760882	0.000233	2.330782	0.789690	0.000093
1593	1.5840e+02	-16.5958	-80.635731	0.000314	3.141489	1.064365	0.000126
1594	1.5850e+02	-16.5461	-80.526728	0.000274	2.736136	0.927028	0.000110
1595	1.5860e+02	-16.5140	-80.349094	0.000446	4.458888	1.510712	0.000179
1596	1.5870e+02	-16.4787	-80.276426	0.000182	1.824090	0.618019	0.000073
1597	1.5880e+02	-16.4322	-80.123014	0.000385	3.850857	1.304706	0.000154
1598	1.5890e+02	-16.3904	-79.989789	0.000334	3.344166	1.133034	0.000134
1599	1.5900e+02	-16.3535	-79.868675	0.000304	3.040151	1.030031	0.000122
1600	1.5910e+02	-16.3247	-79.703152	0.000415	4.154873	1.407709	0.000166
1601	1.5920e+02	-16.2830	-79.590113	0.000284	2.837474	0.961362	0.000114
1602	1.5930e+02	-16.2380	-79.477073	0.000284	2.837474	0.961362	0.000114
1603	1.5940e+02	-16.2011	-79.311550	0.000415	4.154873	1.407709	0.000166
1604	1.5950e+02	-16.1594	-79.238882	0.000182	1.824090	0.618019	0.000073
1605	1.5960e+02	-16.1177	-79.109693	0.000324	3.242827	1.098700	0.000130
1606	1.5970e+02	-16.0760	-78.948208	0.000405	4.053534	1.373375	0.000162
1607	1.5980e+02	-16.0407	-78.831131	0.000294	2.938812	0.995697	0.000118
1608	1.5990e+02	-16.0038	-78.701943	0.000324	3.242827	1.098700	0.000130
1609	1.6000e+02	-15.9669	-78.584866	0.000294	2.938812	0.995697	0.000118
1610	1.6010e+02	-15.9188	-78.435492	0.000375	3.749519	1.270371	0.000150
1611	1.6019e+02	-15.8819	-78.274006	0.000405	4.053534	1.373375	0.000162
1612	1.6029e+02	-15.8290	-78.144818	0.000324	3.242827	1.098700	0.000130
1613	1.6039e+02	-15.7969	-77.999481	0.000365	3.648181	1.236037	0.000146
1614	1.6049e+02	-15.7552	-77.894515	0.000263	2.634797	0.892693	0.000105
1615	1.6059e+02	-15.7086	-77.745141	0.000375	3.749519	1.270371	0.000150
1616	1.6069e+02	-15.6910	-77.587693	0.000395	3.952196	1.339040	0.000158
1617	1.6079e+02	-15.6429	-77.462542	0.000314	3.141489	1.064365	0.000126
1618	1.6089e+02	-15.5915	-77.345465	0.000294	2.938812	0.995697	0.000118
1619	1.6099e+02	-15.5627	-77.200128	0.000365	3.648181	1.236037	0.000146
1620	1.6109e+02	-15.5242	-77.087088	0.000284	2.837474	0.961362	0.000114
1621	1.6119e+02	-15.4825	-76.929640	0.000395	3.952196	1.339040	0.000158
1622	1.6129e+02	-15.4407	-76.812563	0.000294	2.938812	0.995697	0.000118
1623	1.6139e+02	-15.3974	-76.655115	0.000395	3.952196	1.339040	0.000158
1624	1.6149e+02	-15.3573	-76.570335	0.000213	2.128105	0.721022	0.000085
1625	1.6159e+02	-15.3284	-76.408850	0.000405	4.053534	1.373375	0.000162
1626	1.6169e+02	-15.2867	-76.263513	0.000365	3.648181	1.236037	0.000146
1627	1.6179e+02	-15.2386	-76.097990	0.000415	4.154873	1.407709	0.000166
1628	1.6189e+02	-15.2017	-76.033396	0.000162	1.621414	0.549350	0.000065
1629	1.6199e+02	-15.1600	-75.884022	0.000375	3.749519	1.270371	0.000150
1630	1.6209e+02	-15.1215	-75.742722	0.000355	3.546842	1.201703	0.000142
1631	1.6219e+02	-15.0814	-75.569125	0.000436	4.357549	1.476378	0.000174
1632	1.6228e+02	-15.0445	-75.480308	0.000223	2.229444	0.755356	0.000089
1633	1.6238e+02	-15.0044	-75.286526	0.000486	4.864241	1.648049	0.000195
1634	1.6248e+02	-14.9675	-75.137152	0.000375	3.749519	1.270371	0.000150
1635	1.6258e+02	-14.9178	-74.999889	0.000345	3.445504	1.167368	0.000138
1636	1.6268e+02	-14.8873	-74.882812	0.000294	2.938812	0.995697	0.000118
1637	1.6278e+02	-14.8408	-74.737475	0.000365	3.648181	1.236037	0.000146
1638	1.6288e+02	-14.8023	-74.608287	0.000324	3.242827	1.098700	0.000130
1639	1.6298e+02	-14.7654	-74.471024	0.000345	3.445504	1.167368	0.000138
1640	1.6308e+02	-14.7204	-74.345873	0.000314	3.141489	1.064365	0.000126
1641	1.6318e+02	-14.6803	-74.184388	0.000405	4.053534	1.373375	0.000162
1642	1.6328e+02	-14.6370	-74.043088	0.000355	3.546842	1.201703	0.000142
1643	1.6338e+02	-14.5873	-73.917937	0.000314	3.141489	1.064365	0.000126
1644	1.6348e+02	-14.5616	-73.748377	0.000426	4.256211	1.442043	0.000170
1645	1.6358e+02	-14.5343	-73.639374	0.000274	2.736136	0.927028	0.000110
1646	1.6368e+02	-14.4878	-73.477889	0.000405	4.053534	1.373375	0.000162
1647	1.6378e+02	-14.4461	-73.352738	0.000314	3.141489	1.064365	0.000126
1648	1.6388e+02	-14.3932	-73.191252	0.000405	4.053534	1.373375	0.000162
1649	1.6398e+02	-14.3675	-73.045915	0.000365	3.648181	1.236037	0.000146
1650	1.6408e+02	-14.3146	-72.928839	0.000294	2.938812	0.995697	0.000118
1651	1.6418e+02	-14.2937	-72.755242	0.000436	4.357549	1.476378	0.000174
1652	1.6427e+02	-14.2392	-72.638165	0.000294	2.938812	0.995697	0.000118
1653	1.6437e+02	-14.1943	-72.460531	0.000446	4.458888	1.510712	0.000179
1654	1.6447e+02	-14.1686	-72.355565	0.000263	2.634797	0.892693	0.000105
1655	1.6457e+02	-14.1253	-72.190043	0.000415	4.154873	1.407709	0.000166
1656	1.6467e+02	-14.0868	-72.036632	0.000385	3.850857	1.304706	0.000154
1657	1.6477e+02	-14.0338	-71.895332	0.000355	3.546842	1.201703	0.000142
1658	1.6487e+02	-14.0098	-71.741921	0.000385	3.850857	1.304706	0.000154
1659	1.6497e+02	-13.9713	-71.592547	0.000375	3.749519	1.270371	0.000150
1660	1.6507e+02	-13.9247	-71.455284	0.000345	3.445504	1.167368	0.000138
1661	1.6517e+02	-13.8927	-71.297836	0.000395	3.952196	1.339040	0.000158
1662	1.6527e+02	-13.8574	-71.156536	0.000355	3.546842	1.201703	0.000142
1663	1.6537e+02	-13.8108	-70.995051	0.000405	4.053534	1.373375	0.000162
1664	1.6547e+02	-13.7659	-70.837602	0.000395	3.952196	1.339040	0.000158
1665	1.6557e+02	-13.7178	-70.688228	0.000375	3.749519	1.270371	0.000150
1666	1.6567e+02	-13.6921	-70.542891	0.000365	3.648181	1.236037	0.000146
1667	1.6577e+02	-13.6440	-70.441963	0.000253	2.533459	0.858359	0.000101
1668	1.6587e+02	-13.6167	-70.276440	0.000415	4.154873	1.407709	0.000166
1669	1.6597e+02	-13.5654	-70.114955	0.000405	4.053534	1.373375	0.000162
1670	1.6607e+02	-13.5269	-69.977692	0.000345	3.445504	1.167368	0.000138
1671	1.6616e+02	-13.4980	-69.816207	0.000405	4.053534	1.373375	0.000162
1672	1.6626e+02	-13.4467	-69.682981	0.000334	3.344166	1.133034	0.000134
1673	1.6636e+02	-13.4178	-69.529570	0.000385	3.850857	1.304706	0.000154
1674	1.6646e+02	-13.3617	-69.392308	0.000345	3.445504	1.167368	0.000138
1675	1.6656e+02	-13.3328	-69.234859	0.000395	3.952196	1.339040	0.000158
1676	1.6666e+02	-13.2879	-69.073374	0.000405	4.053534	1.373375	0.000162
1677	1.6676e+02	-13.2478	-68.928037	0.000365	3.648181	1.236037	0.000146
1678	1.6686e+02	-13.2093	-68.778663	0.000375	3.749519	1.270371	0.000150
1679	1.6696e+02	-13.1788	-68.621215	0.000395	3.952196	1.339040	0.000158
1680	1.6706e+02	-13.1306	-68.451655	0.000426	4.256211	1.442043	0.000170
1681	1.6716e+02	-13.0937	-68.346689	0.000263	2.634797	0.892693	0.000105
1682	1.6726e+02	-13.0536	-68.112536	0.000588	5.877625	1.991393	0.000235
1683	1.6736e+02	-13.0103	-68.015644	0.000243	2.432121	0.824025	0.000097
1684	1.6746e+02	-12.9782	-67.842048	0.000436	4.357549	1.476378	0.000174
1685	1.6756e+02	-12.9285	-67.700748	0.000355	3.546842	1.201703	0.000142
1686	1.6766e+02	-12.8948	-67.547337	0.000385	3.850857	1.304706	0.000154
1687	1.6776e+02	-12.8595	-67.385851	0.000405	4.053534	1.373375	0.000162
1688	1.6786e+02	-12.8098	-67.236477	0.000375	3.749519	1.270371	0.000150
1689	1.6796e+02	-12.7681	-67.042695	0.000486	4.864241	1.648049	0.000195
1690	1.6806e+02	-12.7184	-66.929655	0.000284	2.837474	0.961362	0.000114
1691	1.6816e+02	-12.6943	-66.760095	0.000426	4.256211	1.442043	0.000170
1692	1.6825e+02	-12.6574	-66.598610	0.000405	4.053534	1.373375	0.000162
1693	1.6835e+02	-12.6189	-66.457310	0.000355	3.546842	1.201703	0.000142
1694	1.6845e+02	-12.5788	-66.307936	0.000375	3.749519	1.270371	0.000150
1695	1.6855e+02	-12.5403	-66.142413	0.000415	4.154873	1.407709	0.000166
1696	1.6865e+02	-12.5002	-65.972854	0.000426	4.256211	1.442043	0.000170
1697	1.6875e+02	-12.4505	-65.819443	0.000385	3.850857	1.304706	0.000154
1698	1.6885e+02	-12.4119	-65.694291	0.000314	3.141489	1.064365	0.000126
1699	1.6895e+02	-12.3751	-65.504546	0.000476	4.762903	1.613715	0.000191
1700	1.6905e+02	-12.3333	-65.395543	0.000274	2.736136	0.927028	0.000110
1701	1.6915e+02	-12.2820	-65.234058	0.000405	4.053534	1.373375	0.000162
1702	1.6925e+02	-12.2595	-65.072572	0.000405	4.053534	1.373375	0.000162
1703	1.6935e+02	-12.2146	-64.907050	0.000415	4.154873	1.407709	0.000166
1704	1.6945e+02	-12.1809	-64.733453	0.000436	4.357549	1.476378	0.000174
1705	1.6955e+02	-12.1440	-64.600228	0.000334	3.344166	1.133034	0.000134
1706	1.6965e+02	-12.1007	-64.442779	0.000395	3.952196	1.339040	0.000158
1707	1.6975e+02	-12.0590	-64.261108	0.000456	4.560226	1.545046	0.000183
1708	1.6985e+02	-12.0077	-64.103660	0.000395	3.952196	1.339040	0.000158
1709	1.6995e+02	-11.9724	-63.974471	0.000324	3.242827	1.098700	0.000130
1710	1.7005e+02	-11.9307	-63.788763	0.000466	4.661564	1.579381	0.000187
1711	1.7015e+02	-11.8922	-63.647463	0.000355	3.546842	1.201703	0.000142
1712	1.7024e+02	-11.8553	-63.506164	0.000355	3.546842	1.201703	0.000142
1713	1.7034e+02	-11.8136	-63.340641	0.000415	4.154873	1.407709	0.000166
1714	1.7044e+02	-11.7783	-63.175119	0.000415	4.154873	1.407709	0.000166
1715	1.7054e+02	-11.7414	-63.033819	0.000355	3.546842	1.201703	0.000142
1716	1.7064e+02	-11.6981	-62.868296	0.000415	4.154873	1.407709	0.000166
1717	1.7074e+02	-11.6564	-62.706811	0.000405	4.053534	1.373375	0.000162
1718	1.7084e+02	-11.6130	-62.529177	0.000446	4.458888	1.510712	0.000179
1719	1.7094e+02	-11.5729	-62.391914	0.000345	3.445504	1.167368	0.000138
1720	1.7104e+02	-11.5409	-62.186020	0.000517	5.168256	1.751053	0.000207
1721	1.7114e+02	-11.4991	-62.032609	0.000385	3.850857	1.304706	0.000154
1722	1.7124e+02	-11.4606	-61.923607	0.000274	2.736136	0.927028	0.000110
1723	1.7134e+02	-11.4189	-61.733861	0.000476	4.762903	1.613715	0.000191
1724	1.7144e+02	-11.3724	-61.596599	0.000345	3.445504	1.167368	0.000138
1725	1.7154e+02	-11.3371	-61.402816	0.000486	4.864241	1.648049	0.000195
1726	1.7164e+02	-11.2970	-61.261516	0.000355	3.546842	1.201703	0.000142
1727	1.7174e+02	-11.2569	-61.083882	0.000446	4.458888	1.510712	0.000179
1728	1.7184e+02	-11.2216	-60.954694	0.000324	3.242827	1.098700	0.000130
1729	1.7194e+02	-11.1863	-60.801283	0.000385	3.850857	1.304706	0.000154
1730	1.7204e+02	-11.1318	-60.579240	0.000557	5.573610	1.888390	0.000223
1731	1.7213e+02	-11.1029	-60.413718	0.000415	4.154873	1.407709	0.000166
1732	1.7223e+02	-11.0628	-60.353161	0.000152	1.520075	0.515015	0.000061
1733	1.7233e+02	-11.0275	-60.171490	0.000456	4.560226	1.545046	0.000183
1734	1.7243e+02	-10.9730	-60.005967	0.000415	4.154873	1.407709	0.000166
1735	1.7253e+02	-10.9377	-59.804110	0.000507	5.066918	1.716718	0.000203
1736	1.7263e+02	-10.8959	-59.642625	0.000405	4.053534	1.373375	0.000162
1737	1.7273e+02	-10.8607	-59.517474	0.000314	3.141489	1.064365	0.000126
1738	1.7283e+02	-10.8206	-59.388285	0.000324	3.242827	1.098700	0.000130
1739	1.7293e+02	-10.7837	-59.222763	0.000415	4.154873	1.407709	0.000166
1740	1.7303e+02	-10.7275	-59.041092	0.000456	4.560226	1.545046	0.000183
1741	1.7313e+02	-10.6922	-58.855383	0.000466	4.661564	1.579381	0.000187
1742	1.7323e+02	-10.6537	-58.710046	0.000365	3.648181	1.236037	0.000146
1743	1.7333e+02	-10.6200	-58.556635	0.000385	3.850857	1.304706	0.000154
1744	1.7343e+02	-10.5895	-58.435521	0.000304	3.040151	1.030031	0.000122
1745	1.7353e+02	-10.5382	-58.233664	0.000507	5.066918	1.716718	0.000203
1746	1.7363e+02	-10.4965	-58.100439	0.000334	3.344166	1.133034	0.000134
1747	1.7373e+02	-10.4580	-57.914731	0.000466	4.661564	1.579381	0.000187
1748	1.7383e+02	-10.4131	-57.757282	0.000395	3.952196	1.339040	0.000158
1749	1.7393e+02	-10.3858	-57.591760	0.000415	4.154873	1.407709	0.000166
1750	1.7403e+02	-10.3457	-57.438349	0.000385	3.850857	1.304706	0.000154
1751	1.7413e+02	-10.3088	-57.276863	0.000405	4.053534	1.373375	0.000162
1752	1.7422e+02	-10.2607	-57.111341	0.000415	4.154873	1.407709	0.000166
1753	1.7432e+02	-10.2222	-56.929670	0.000456	4.560226	1.545046	0.000183
1754	1.7442e+02	-10.1869	-56.776258	0.000385	3.850857	1.304706	0.000154
1755	1.7452e+02	-10.1436	-56.610736	0.000415	4.154873	1.407709	0.000166
1756	1.7462e+02	-10.1035	-56.449250	0.000405	4.053534	1.373375	0.000162
1757	1.7472e+02	-10.0585	-56.291802	0.000395	3.952196	1.339040	0.000158
1758	1.7482e+02	-10.0136	-56.122242	0.000426	4.256211	1.442043	0.000170
1759	1.7492e+02	-9.9767	-55.952683	0.000426	4.256211	1.442043	0.000170
1760	1.7502e+02	-9.9382	-55.827532	0.000314	3.141489	1.064365	0.000126
1761	1.7512e+02	-9.9093	-55.649898	0.000446	4.458888	1.510712	0.000179
1762	1.7522e+02	-9.8564	-55.472264	0.000446	4.458888	1.510712	0.000179
1763	1.7532e+02	-9.8243	-55.330964	0.000355	3.546842	1.201703	0.000142
1764	1.7542e+02	-9.7762	-55.153330	0.000446	4.458888	1.510712	0.000179
1765	1.7552e+02	-9.7489	-55.003956	0.000375	3.749519	1.270371	0.000150
1766	1.7562e+02	-9.6992	-54.806136	0.000497	4.965579	1.682384	0.000199
1767	1.7572e+02	-9.6687	-54.676948	0.000324	3.242827	1.098700	0.000130
1768	1.7582e+02	-9.6286	-54.495277	0.000456	4.560226	1.545046	0.000183
1769	1.7592e+02	-9.5853	-54.353977	0.000355	3.546842	1.201703	0.000142
1770	1.7602e+02	-9.5388	-54.220752	0.000334	3.344166	1.133034	0.000134
1771	1.7612e+02	-9.5035	-54.035043	0.000466	4.661564	1.579381	0.000187
1772	1.7621e+02	-9.4618	-53.889706	0.000365	3.648181	1.236037	0.000146
1773	1.7631e+02	-9.4281	-53.687850	0.000507	5.066918	1.716718	0.000203
1774	1.7641e+02	-9.3816	-53.550587	0.000345	3.445504	1.167368	0.000138
1775	1.7651e+02	-9.3398	-53.401213	0.000375	3.749519	1.270371	0.000150
1776	1.7661e+02	-9.2997	-53.223579	0.000446	4.458888	1.510712	0.000179
1777	1.7671e+02	-9.2660	-53.037871	0.000466	4.661564	1.579381	0.000187
1778	1.7681e+02	-9.2275	-52.904645	0.000334	3.344166	1.133034	0.000134
1779	1.7691e+02	-9.1955	-52.706826	0.000497	4.965579	1.682384	0.000199
1780	1.7701e+02	-9.1425	-52.509006	0.000497	4.965579	1.682384	0.000199
1781	1.7711e+02	-9.1040	-52.416152	0.000233	2.330782	0.789690	0.000093
1782	1.7721e+02	-9.0655	-52.238518	0.000446	4.458888	1.510712	0.000179
1783	1.7731e+02	-9.0222	-52.016475	0.000557	5.573610	1.888390	0.000223
1784	1.7741e+02	-8.9805	-51.854990	0.000405	4.053534	1.373375	0.000162
1785	1.7751e+02	-8.9468	-51.701579	0.000385	3.850857	1.304706	0.000154
1786	1.7761e+02	-8.8987	-51.536056	0.000415	4.154873	1.407709	0.000166
1787	1.7771e+02	-8.8666	-51.410905	0.000314	3.141489	1.064365	0.000126
1788	1.7781e+02	-8.8201	-51.233271	0.000446	4.458888	1.510712	0.000179
1789	1.7791e+02	-8.7752	-51.035451	0.000497	4.965579	1.682384	0.000199
1790	1.7801e+02	-8.7575	-50.837632	0.000497	4.965579	1.682384	0.000199
1791	1.7810e+02	-8.7046	-50.680183	0.000395	3.952196	1.339040	0.000158
1792	1.7820e+02	-8.6709	-50.534847	0.000365	3.648181	1.236037	0.000146
1793	1.7830e+02	-8.6292	-50.361250	0.000436	4.357549	1.476378	0.000174
1794	1.7840e+02	-8.5778	-50.223987	0.000345	3.445504	1.167368	0.000138
1795	1.7850e+02	-8.5490	-50.026167	0.000497	4.965579	1.682384	0.000199
1796	1.7860e+02	-8.4976	-49.860645	0.000415	4.154873	1.407709	0.000166
1797	1.7870e+02	-8.4736	-49.687048	0.000436	4.357549	1.476378	0.000174
1798	1.7880e+02	-8.4270	-49.561897	0.000314	3.141489	1.064365	0.000126
1799	1.7890e+02	-8.3933	-49.331780	0.000578	5.776286	1.957059	0.000231
1800	1.7900e+02	-8.3564	-49.158183	0.000436	4.357549	1.476378	0.000174
1801	1.7910e+02	-8.3115	-48.996698	0.000405	4.053534	1.373375	0.000162
1802	1.7920e+02	-8.2794	-48.827138	0.000426	4.256211	1.442043	0.000170
1803	1.7930e+02	-8.2281	-48.685838	0.000355	3.546842	1.201703	0.000142
1804	1.7940e+02	-8.1928	-48.488019	0.000497	4.965579	1.682384	0.000199
1805	1.7950e+02	-8.1479	-48.310385	0.000446	4.458888	1.510712	0.000179
1806	1.7960e+02	-8.1094	-48.181196	0.000324	3.242827	1.098700	0.000130
1807	1.7970e+02	-8.0677	-48.007600	0.000436	4.357549	1.476378	0.000174
1808	1.7980e+02	-8.0260	-47.825929	0.000456	4.560226	1.545046	0.000183
1809	1.7990e+02	-7.9923	-47.640220	0.000466	4.661564	1.579381	0.000187
1810	1.8000e+02	-7.9410	-47.406066	0.000588	5.877625	1.991393	0.000235
1811	1.8009e+02	-7.9073	-47.297064	0.000274	2.736136	0.927028	0.000110
1812	1.8019e+02	-7.8720	-47.111355	0.000466	4.661564	1.579381	0.000187
1813	1.8029e+02	-7.8415	-46.917573	0.000486	4.864241	1.648049	0.000195
1814	1.8039e+02	-7.7934	-46.748013	0.000426	4.256211	1.442043	0.000170
1815	1.8049e+02	-7.7533	-46.630936	0.000294	2.938812	0.995697	0.000118
1816	1.8059e+02	-7.7083	-46.364485	0.000669	6.688331	2.266068	0.000268
1817	1.8069e+02	-7.6650	-46.207037	0.000395	3.952196	1.339040	0.000158
1818	1.8079e+02	-7.6378	-46.041515	0.000415	4.154873	1.407709	0.000166
1819	1.8089e+02	-7.5944	-45.859843	0.000456	4.560226	1.545046	0.000183
1820	1.8099e+02	-7.5431	-45.706432	0.000385	3.850857	1.304706	0.000154
1821	1.8109e+02	-7.5078	-45.520724	0.000466	4.661564	1.579381	0.000187
1822	1.8119e+02	-7.4629	-45.387499	0.000334	3.344166	1.133034	0.000134
1823	1.8129e+02	-7.4356	-45.125085	0.000659	6.586993	2.231734	0.000264
1824	1.8139e+02	-7.3875	-44.963599	0.000405	4.053534	1.373375	0.000162
1825	1.8149e+02	-7.3490	-44.822300	0.000355	3.546842	1.201703	0.000142
1826	1.8159e+02	-7.3105	-44.604294	0.000547	5.472271	1.854056	0.000219
1827	1.8169e+02	-7.2640	-44.471069	0.000334	3.344166	1.133034	0.000134
1828	1.8179e+02	-7.2303	-44.265175	0.000517	5.168256	1.751053	0.000207
1829	1.8189e+02	-7.1854	-44.067355	0.000497	4.965579	1.682384	0.000199
1830	1.8199e+02	-7.1501	-43.926055	0.000355	3.546842	1.201703	0.000142
1831	1.8209e+02	-7.1100	-43.728236	0.000497	4.965579	1.682384	0.000199
1832	1.8218e+02	-7.0811	-43.534453	0.000486	4.864241	1.648049	0.000195
1833	1.8228e+02	-7.0474	-43.401228	0.000334	3.344166	1.133034	0.000134
1834	1.8238e+02	-6.9929	-43.171111	0.000578	5.776286	1.957059	0.000231
1835	1.8248e+02	-6.9543	-43.029811	0.000355	3.546842	1.201703	0.000142
1836	1.8258e+02	-6.9126	-42.844103	0.000466	4.661564	1.579381	0.000187
1837	1.8268e+02	-6.8725	-42.650321	0.000486	4.864241	1.648049	0.000195
1838	1.8278e+02	-6.8324	-42.444427	0.000517	5.168256	1.751053	0.000207
1839	1.8288e+02	-6.8036	-42.274867	0.000426	4.256211	1.442043	0.000170
1840	1.8298e+02	-6.7538	-42.101270	0.000436	4.357549	1.476378	0.000174
1841	1.8308e+02	-6.7089	-41.907488	0.000486	4.864241	1.648049	0.000195
1842	1.8318e+02	-6.6800	-41.741965	0.000415	4.154873	1.407709	0.000166
1843	1.8328e+02	-6.6287	-41.556257	0.000466	4.661564	1.579381	0.000187
1844	1.8338e+02	-6.5982	-41.350363	0.000517	5.168256	1.751053	0.000207
1845	1.8348e+02	-6.5405	-41.168692	0.000456	4.560226	1.545046	0.000183
1846	1.8358e+02	-6.5100	-40.974909	0.000486	4.864241	1.648049	0.000195
1847	1.8368e+02	-6.4715	-40.789201	0.000466	4.661564	1.579381	0.000187
1848	1.8378e+02	-6.4346	-40.607530	0.000456	4.560226	1.545046	0.000183
1849	1.8388e+02	-6.3913	-40.429896	0.000446	4.458888	1.510712	0.000179
1850	1.8398e+02	-6.3528	-40.268410	0.000405	4.053534	1.373375	0.000162
1851	1.8407e+02	-6.3191	-40.066554	0.000507	5.066918	1.716718	0.000203
1852	1.8417e+02	-6.2838	-39.888920	0.000446	4.458888	1.510712	0.000179
1853	1.8427e+02	-6.2405	-39.699174	0.000476	4.762903	1.613715	0.000191
1854	1.8437e+02	-6.2004	-39.501355	0.000497	4.965579	1.682384	0.000199
1855	1.8447e+02	-6.1586	-39.303535	0.000497	4.965579	1.682384	0.000199
1856	1.8457e+02	-6.1250	-39.109752	0.000486	4.864241	1.648049	0.000195
1857	1.8467e+02	-6.0833	-38.915970	0.000486	4.864241	1.648049	0.000195
1858	1.8477e+02	-6.0431	-38.738336	0.000446	4.458888	1.510712	0.000179
1859	1.8487e+02	-5.9934	-38.556665	0.000456	4.560226	1.545046	0.000183
1860	1.8497e+02	-5.9565	-38.362882	0.000486	4.864241	1.648049	0.000195
1861	1.8507e+02	-5.9212	-38.173137	0.000476	4.762903	1.613715	0.000191
1862	1.8517e+02	-5.8827	-37.999540	0.000436	4.357549	1.476378	0.000174
1863	1.8527e+02	-5.8458	-37.817869	0.000456	4.560226	1.545046	0.000183
1864	1.8537e+02	-5.7993	-37.599864	0.000547	5.472271	1.854056	0.000219
1865	1.8547e+02	-5.7704	-37.422230	0.000446	4.458888	1.510712	0.000179
1866	1.8557e+02	-5.7191	-37.248633	0.000436	4.357549	1.476378	0.000174
1867	1.8567e+02	-5.6758	-37.066962	0.000456	4.560226	1.545046	0.000183
1868	1.8577e+02	-5.6341	-36.836845	0.000578	5.776286	1.957059	0.000231
1869	1.8587e+02	-5.6100	-36.667285	0.000426	4.256211	1.442043	0.000170
1870	1.8597e+02	-5.5619	-36.497726	0.000426	4.256211	1.442043	0.000170
1871	1.8606e+02	-5.5170	-36.255497	0.000608	6.080301	2.060062	0.000243
1872	1.8616e+02	-5.4881	-36.098049	0.000395	3.952196	1.339040	0.000158
1873	1.8626e+02	-5.4464	-35.916378	0.000456	4.560226	1.545046	0.000183
1874	1.8636e+02	-5.3902	-35.706447	0.000527	5.269594	1.785387	0.000211
1875	1.8646e+02	-5.3646	-35.536887	0.000426	4.256211	1.442043	0.000170
1876	1.8656e+02	-5.3164	-35.343105	0.000486	4.864241	1.648049	0.000195
1877	1.8666e+02	-5.2779	-35.157397	0.000466	4.661564	1.579381	0.000187
1878	1.8676e+02	-5.2442	-34.947466	0.000527	5.269594	1.785387	0.000211
1879	1.8686e+02	-5.2041	-34.757720	0.000476	4.762903	1.613715	0.000191
1880	1.8696e+02	-5.1576	-34.551826	0.000517	5.168256	1.751053	0.000207
1881	1.8706e+02	-5.1207	-34.378229	0.000436	4.357549	1.476378	0.000174
1882	1.8716e+02	-5.0902	-34.180410	0.000497	4.965579	1.682384	0.000199
1883	1.8726e+02	-5.0469	-33.982590	0.000497	4.965579	1.682384	0.000199
1884	1.8736e+02	-5.0004	-33.813030	0.000426	4.256211	1.442043	0.000170
1885	1.8746e+02	-4.9683	-33.599062	0.000537	5.370933	1.819721	0.000215
1886	1.8756e+02	-4.9234	-33.397205	0.000507	5.066918	1.716718	0.000203
1887	1.8766e+02	-4.8897	-33.207460	0.000476	4.762903	1.613715	0.000191
1888	1.8776e+02	-4.8448	-33.009640	0.000497	4.965579	1.682384	0.000199
1889	1.8786e+02	-4.8015	-32.852192	0.000395	3.952196	1.339040	0.000158
1890	1.8796e+02	-4.7646	-32.670521	0.000456	4.560226	1.545046	0.000183
1891	1.8806e+02	-4.7261	-32.456553	0.000537	5.370933	1.819721	0.000215
1892	1.8815e+02	-4.6860	-32.246622	0.000527	5.269594	1.785387	0.000211
1893	1.8825e+02	-4.6443	-32.032654	0.000537	5.370933	1.819721	0.000215
1894	1.8835e+02	-4.6025	-31.867131	0.000415	4.154873	1.407709	0.000166
1895	1.8845e+02	-4.5705	-31.641051	0.000567	5.674948	1.922724	0.000227
1896	1.8855e+02	-4.5159	-31.467455	0.000436	4.357549	1.476378	0.000174
1897	1.8865e+02	-4.4870	-31.285783	0.000456	4.560226	1.545046	0.000183
1898	1.8875e+02	-4.4501	-31.051630	0.000588	5.877625	1.991393	0.000235
1899	1.8885e+02	-4.4036	-30.886107	0.000415	4.154873	1.407709	0.000166
1900	1.8895e+02	-4.3780	-30.708473	0.000446	4.458888	1.510712	0.000179
1901	1.8905e+02	-4.3218	-30.510653	0.000497	4.965579	1.682384	0.000199
1902	1.8915e+02	-4.2801	-30.312834	0.000497	4.965579	1.682384	0.000199
1903	1.8925e+02	-4.2528	-30.119051	0.000486	4.864241	1.648049	0.000195
1904	1.8935e+02	-4.2015	-29.941417	0.000446	4.458888	1.510712	0.000179
1905	1.8945e+02	-4.1678	-29.711300	0.000578	5.776286	1.957059	0.000231
1906	1.8955e+02	-4.1245	-29.561926	0.000375	3.749519	1.270371	0.000150
1907	1.8965e+02	-4.0876	-29.351995	0.000527	5.269594	1.785387	0.000211
1908	1.8975e+02	-4.0507	-29.154176	0.000497	4.965579	1.682384	0.000199
1909	1.8985e+02	-4.0026	-28.932133	0.000557	5.573610	1.888390	0.000223
1910	1.8995e+02	-3.9673	-28.750462	0.000456	4.560226	1.545046	0.000183
1911	1.9004e+02	-3.9127	-28.552643	0.000497	4.965579	1.682384	0.000199
1912	1.9014e+02	-3.8822	-28.342711	0.000527	5.269594	1.785387	0.000211
1913	1.9024e+02	-3.8421	-28.140855	0.000507	5.066918	1.716718	0.000203
1914	1.9034e+02	-3.8101	-27.926886	0.000537	5.370933	1.819721	0.000215
1915	1.9044e+02	-3.7699	-27.757327	0.000426	4.256211	1.442043	0.000170
1916	1.9054e+02	-3.7282	-27.571619	0.000466	4.661564	1.579381	0.000187
1917	1.9064e+02	-3.6897	-27.373799	0.000497	4.965579	1.682384	0.000199
1918	1.9074e+02	-3.6384	-27.155794	0.000547	5.472271	1.854056	0.000219
1919	1.9084e+02	-3.6111	-26.945862	0.000527	5.269594	1.785387	0.000211
1920	1.9094e+02	-3.5678	-26.744006	0.000507	5.066918	1.716718	0.000203
1921	1.9104e+02	-3.5229	-26.578483	0.000415	4.154873	1.407709	0.000166
1922	1.9114e+02	-3.4876	-26.324144	0.000638	6.384316	2.163065	0.000256
1923	1.9124e+02	-3.4443	-26.182844	0.000355	3.546842	1.201703	0.000142
1924	1.9134e+02	-3.4106	-25.989061	0.000486	4.864241	1.648049	0.000195
1925	1.9144e+02	-3.3673	-25.799316	0.000476	4.762903	1.613715	0.000191
1926	1.9154e+02	-3.3256	-25.569199	0.000578	5.776286	1.957059	0.000231
1927	1.9164e+02	-3.2967	-25.387528	0.000456	4.560226	1.545046	0.000183
1928	1.9174e+02	-3.2486	-25.213931	0.000436	4.357549	1.476378	0.000174
1929	1.9184e+02	-3.2085	-24.987852	0.000567	5.674948	1.922724	0.000227
1930	1.9194e+02	-3.1603	-24.798106	0.000476	4.762903	1.613715	0.000191
1931	1.9203e+02	-3.1283	-24.632584	0.000415	4.154873	1.407709	0.000166
1932	1.9213e+02	-3.0914	-24.378244	0.000638	6.384316	2.163065	0.000256
1933	1.9223e+02	-3.0529	-24.192536	0.000466	4.661564	1.579381	0.000187
1934	1.9233e+02	-3.0144	-23.986642	0.000517	5.168256	1.751053	0.000207
1935	1.9243e+02	-2.9791	-23.800934	0.000466	4.661564	1.579381	0.000187
1936	1.9253e+02	-2.9229	-23.611188	0.000476	4.762903	1.613715	0.000191
1937	1.9263e+02	-2.8956	-23.385109	0.000567	5.674948	1.922724	0.000227
1938	1.9273e+02	-2.8571	-23.207475	0.000446	4.458888	1.510712	0.000179
1939	1.9283e+02	-2.8106	-23.033878	0.000436	4.357549	1.476378	0.000174
1940	1.9293e+02	-2.7705	-22.783576	0.000628	6.282978	2.128731	0.000252
1941	1.9303e+02	-2.7320	-22.601904	0.000456	4.560226	1.545046	0.000183
1942	1.9313e+02	-2.6935	-22.420233	0.000456	4.560226	1.545046	0.000183
1943	1.9323e+02	-2.6518	-22.182042	0.000598	5.978963	2.025727	0.000239
1944	1.9333e+02	-2.6133	-22.012483	0.000426	4.256211	1.442043	0.000170
1945	1.9343e+02	-2.5764	-21.762180	0.000628	6.282978	2.128731	0.000252
1946	1.9353e+02	-2.5283	-21.564361	0.000497	4.965579	1.682384	0.000199
1947	1.9363e+02	-2.4946	-21.350392	0.000537	5.370933	1.819721	0.000215
1948	1.9373e+02	-2.4481	-21.164684	0.000466	4.661564	1.579381	0.000187
1949	1.9383e+02	-2.4160	-20.962827	0.000507	5.066918	1.716718	0.000203
1950	1.9393e+02	-2.3759	-20.765008	0.000497	4.965579	1.682384	0.000199
1951	1.9403e+02	-2.3310	-20.571225	0.000486	4.864241	1.648049	0.000195
1952	1.9412e+02	-2.2973	-20.341108	0.000578	5.776286	1.957059	0.000231
1953	1.9422e+02	-2.2556	-20.147326	0.000486	4.864241	1.648049	0.000195
1954	1.9432e+02	-2.2058	-19.913172	0.000588	5.877625	1.991393	0.000235
1955	1.9442e+02	-2.1721	-19.743612	0.000426	4.256211	1.442043	0.000170
1956	1.9452e+02	-2.1304	-19.513496	0.000578	5.776286	1.957059	0.000231
1957	1.9462e+02	-2.0887	-19.331824	0.000456	4.560226	1.545046	0.000183
1958	1.9472e+02	-2.0566	-19.117856	0.000537	5.370933	1.819721	0.000215
1959	1.9482e+02	-2.0149	-18.887740	0.000578	5.776286	1.957059	0.000231
1960	1.9492e+02	-1.9716	-18.726254	0.000405	4.053534	1.373375	0.000162
1961	1.9502e+02	-1.9443	-18.516323	0.000527	5.269594	1.785387	0.000211
1962	1.9512e+02	-1.8994	-18.257946	0.000649	6.485655	2.197399	0.000260
1963	1.9522e+02	-1.8561	-18.060127	0.000497	4.965579	1.682384	0.000199
1964	1.9532e+02	-1.8160	-17.886530	0.000436	4.357549	1.476378	0.000174
1965	1.9542e+02	-1.7663	-17.644302	0.000608	6.080301	2.060062	0.000243
1966	1.9552e+02	-1.7278	-17.434371	0.000527	5.269594	1.785387	0.000211
1967	1.9562e+02	-1.6893	-17.224440	0.000527	5.269594	1.785387	0.000211
1968	1.9572e+02	-1.6524	-17.071028	0.000385	3.850857	1.304706	0.000154
1969	1.9582e+02	-1.6139	-16.857060	0.000537	5.370933	1.819721	0.000215
1970	1.9592e+02	-1.5770	-16.618869	0.000598	5.978963	2.025727	0.000239
1971	1.9601e+02	-1.5353	-16.421050	0.000497	4.965579	1.682384	0.000199
1972	1.9611e+02	-1.4984	-16.215156	0.000517	5.168256	1.751053	0.000207
1973	1.9621e+02	-1.4566	-15.964853	0.000628	6.282978	2.128731	0.000252
1974	1.9631e+02	-1.4197	-15.754922	0.000527	5.269594	1.785387	0.000211
1975	1.9641e+02	-1.3845	-15.528843	0.000567	5.674948	1.922724	0.000227
1976	1.9651e+02	-1.3363	-15.359283	0.000426	4.256211	1.442043	0.000170
1977	1.9661e+02	-1.3074	-15.108980	0.000628	6.282978	2.128731	0.000252
1978	1.9671e+02	-1.2465	-14.907124	0.000507	5.066918	1.716718	0.000203
1979	1.9681e+02	-1.2128	-14.677007	0.000578	5.776286	1.957059	0.000231
1980	1.9691e+02	-1.1791	-14.487262	0.000476	4.762903	1.613715	0.000191
1981	1.9701e+02	-1.1454	-14.285405	0.000507	5.066918	1.716718	0.000203
1982	1.9711e+02	-1.0893	-14.059325	0.000567	5.674948	1.922724	0.000227
1983	1.9721e+02	-1.0652	-13.817097	0.000608	6.080301	2.060062	0.000243
1984	1.9731e+02	-1.0251	-13.599092	0.000547	5.472271	1.854056	0.000219
1985	1.9741e+02	-0.9802	-13.409346	0.000476	4.762903	1.613715	0.000191
1986	1.9751e+02	-0.9417	-13.183267	0.000567	5.674948	1.922724	0.000227
1987	1.9761e+02	-0.8903	-12.924890	0.000649	6.485655	2.197399	0.000260
1988	1.9771e+02	-0.8583	-12.755330	0.000426	4.256211	1.442043	0.000170
1989	1.9781e+02	-0.8198	-12.529251	0.000567	5.674948	1.922724	0.000227
1990	1.9791e+02	-0.7764	-12.311245	0.000547	5.472271	1.854056	0.000219
1991	1.9800e+02	-0.7363	-12.089203	0.000557	5.573610	1.888390	0.000223
1992	1.9810e+02	-0.6962	-11.863123	0.000567	5.674948	1.922724	0.000227
1993	1.9820e+02	-0.6577	-11.628969	0.000588	5.877625	1.991393	0.000235
1994	1.9830e+02	-0.6176	-11.415001	0.000537	5.370933	1.819721	0.000215
1995	1.9840e+02	-0.5759	-11.164699	0.000628	6.282978	2.128731	0.000252
1996	1.9850e+02	-0.5454	-10.983028	0.000456	4.560226	1.545046	0.000183
1997	1.9860e+02	-0.5118	-10.765022	0.000547	5.472271	1.854056	0.000219
1998	1.9870e+02	-0.4636	-10.534906	0.000578	5.776286	1.957059	0.000231
1999	1.9880e+02	-0.4123	-10.320938	0.000537	5.370933	1.819721	0.000215
2000	1.9890e+02	-0.3802	-10.066598	0.000638	6.384316	2.163065	0.000256
2001	1.9900e+02	-0.3305	-9.876853	0.000476	4.762903	1.613715	0.000191
2002	1.9910e+02	-0.3000	-9.606364	0.000679	6.789670	2.300402	0.000272
2003	1.9920e+02	-0.2551	-9.388359	0.000547	5.472271	1.854056	0.000219
2004	1.9930e+02	-0.2198	-9.210725	0.000446	4.458888	1.510712	0.000179
2005	1.9940e+02	-0.1845	-8.984646	0.000567	5.674948	1.922724	0.000227
2006	1.9950e+02	-0.1428	-8.758566	0.000567	5.674948	1.922724	0.000227
2007	1.9960e+02	-0.0930	-8.540561	0.000547	5.472271	1.854056	0.000219
2008	1.9970e+02	-0.0626	-8.318518	0.000557	5.573610	1.888390	0.000223
2009	1.9980e+02	-0.0144	-8.084364	0.000557	5.573610	1.888390	0.000235

Center data before PMax,+/-Pr and +/-Vc Calc.

PMax (uC/cm2):	9.02e+01
Pr (uC/cm2):	6.56e+00
-Pr (uC/cm2):	-8.08e+00
PLoss (uC/cm2):	-3.88e-01
Vc:	1.45e+00
-Vc:	-1.20e+00
C (Max-Eff) (nF):	4.51e-01
K (Eff):	1.53e+03
Vert. (+/-Pr) Shift (uC/cm2):	-7.61e-01
Horiz. Shift (+/-Vc):	1.26e-01
Offset (uC/cm2):	7.71e+00

A (Loop Area - uC/cm2·Volts):	5.66e-03



Hysteresis Version: 5.48.1 - Radiant Technologies, Inc., 1999 - 9/12/24

