»»»»»»»»»»»»»»»»»»»»»»»»»»»»»»»»»»»» Hysteresis ««««««««««««««««««««««««««««««««««««
»»»  Executed Version:	5.48.1
»»»  Vision Version:	5.48.4 (R)
»»»  Vision Compiled:	9/18/24
»»»  Driver Version:	5.47.0
»»»  Windows Version:	Windows 8 or 8.1
»»»  Processor Information:	x86 (AMD or Intel) - 32 Processors
»»»  Tester Name:	PMF21124-494 (100V)
»»»  Tester S/N:	PMF21124-494
»»»  Internal Amp Type:	100V RevK 270k
»»»  Internal Amp S/N:	iAB2-596/K     
»»»  Execution Count:	1
»»»»»»»»»»»»»»»»»»»»»»»»»»»»»»»»»»»»»»»»»»««««««««««««««««««««««««««««««««««««««««««

Stored:	6/4/2025 - 16:54:16
Configured:	06/04/25 04:39:58 PM
Executed:	06/04/25 04:53:44 PM

»»»»»»»»»»»»»»»»»»»»»»»»»»»»»»»»»»» Sample Info ««««««««««««««««««««««««««««««««««««
Sample Name:	
Lot Name:	
Wafer Name:	
Die Row/Column:	0/0
Capacitor Number:	0
Sample Area (cm2):	1.00e-04
Sample Thickness (microns):	3.00e-01

Amplifier:	Internal

»»»»»»»»»»»»»»»»»»»»»»»»»»»»»»»»»»» Tester Info «««««««««««««««««««««««««««««««««««
Tester Name:	PMF21124-494 (100V)
Tester Serial Number:	PMF21124-494
Return Signal Amp. Level:	0.19 [Index: 3]

»»»»»»»»»»»»»»»»»»»»»»»»»»»»»»»» Hysteresis Info ««««««««««««««««««««««««««««««««««
Task Name:	Hyst-147
Volts:	20.00
Field:	666.67 (kV/cm)
DCBias:	0.00
DCField:	0.00 (kV/cm)
Hysteresis Period (ms):	1.00e+00
Preset:	Enabled
Preset Delay (ms):	1.00e+03
Profile:	Standard Bipolar

»»»»»»»»»»»»»»»»»»»»»»»»»»»»»»»»»»»»»» Data «««««««««««««««««««««««««««««««««««««««
Points:	2001

Valid Data

Point	Time (ms)	Drive Voltage	Measured Polarization (uC/cm2)	Capacitance (uF)	Normalized Capacitance (uF/cm2)	Dielectric Constant	Instantaneous Current (mA)
   1	0.0000e+00	0.0064	-3.208330	0.000202	2.020807	0.684668	0.016132
   2	5.0000e-04	0.0128	-3.127668	0.000202	2.020807	0.684668	0.016132
   3	1.0000e-03	0.0513	-2.893748	0.000586	5.860341	1.985537	0.046784
   4	1.5000e-03	0.0738	-2.837285	0.000141	1.414565	0.479268	0.011293
   5	2.0000e-03	0.1027	-2.554968	0.000707	7.072825	2.396338	0.056463
   6	2.5000e-03	0.1492	-2.429942	0.000313	3.132251	1.061235	0.025005
   7	3.0000e-03	0.1973	-2.191989	0.000596	5.961381	2.019771	0.047591
   8	3.5000e-03	0.2406	-1.950003	0.000606	6.062422	2.054004	0.048397
   9	4.0000e-03	0.2679	-1.655587	0.000738	7.375946	2.499038	0.058883
  10	4.5000e-03	0.3176	-1.413601	0.000606	6.062422	2.054004	0.048397
  11	5.0000e-03	0.3593	-1.203880	0.000525	5.254099	1.780137	0.041944
  12	5.5000e-03	0.3962	-0.941729	0.000657	6.567624	2.225171	0.052430
  13	6.0000e-03	0.4347	-0.711842	0.000576	5.759301	1.951304	0.045977
  14	6.5000e-03	0.4797	-0.550518	0.000404	4.041614	1.369336	0.032265
  15	7.0000e-03	0.5085	-0.324664	0.000566	5.658260	1.917070	0.045171
  16	7.5000e-03	0.5503	-0.054447	0.000677	6.769704	2.293638	0.054044
  17	8.0000e-03	0.5936	0.244002	0.000748	7.476987	2.533272	0.059690
  18	8.5000e-03	0.6449	0.413393	0.000424	4.243695	1.437803	0.033878
  19	9.0000e-03	0.6722	0.679577	0.000667	6.668664	2.259404	0.053237
  20	9.5000e-03	0.7155	0.861067	0.000455	4.546816	1.540503	0.036298
  21	1.0000e-02	0.7524	1.155483	0.000738	7.375946	2.499038	0.058883
  22	1.0500e-02	0.7973	1.381336	0.000566	5.658260	1.917070	0.045171
  23	1.1000e-02	0.8342	1.663653	0.000707	7.072825	2.396338	0.056463
  24	1.1500e-02	0.8743	1.950003	0.000717	7.173866	2.430571	0.057270
  25	1.2000e-02	0.9096	2.095195	0.000364	3.637453	1.232402	0.029038
  26	1.2500e-02	0.9545	2.361379	0.000667	6.668664	2.259404	0.053237
  27	1.3000e-02	0.9930	2.659829	0.000748	7.476987	2.533272	0.059690
  28	1.3500e-02	1.0331	2.901814	0.000606	6.062422	2.054004	0.048397
  29	1.4000e-02	1.0748	3.087337	0.000465	4.647857	1.574736	0.037105
  30	1.4500e-02	1.1133	3.220429	0.000333	3.334332	1.129702	0.026618
  31	1.5000e-02	1.1567	3.547110	0.000818	8.184269	2.772906	0.065336
  32	1.5500e-02	1.1903	3.861692	0.000788	7.881148	2.670205	0.062916
  33	1.6000e-02	1.2433	4.099645	0.000596	5.961381	2.019771	0.047591
  34	1.6500e-02	1.2689	4.402127	0.000758	7.578027	2.567505	0.060496
  35	1.7000e-02	1.3155	4.587650	0.000465	4.647857	1.574736	0.037105
  36	1.7500e-02	1.3588	4.918364	0.000829	8.285310	2.807139	0.066143
  37	1.8000e-02	1.3989	5.160350	0.000606	6.062422	2.054004	0.048397
  38	1.8500e-02	1.4390	5.313607	0.000384	3.839534	1.300869	0.030652
  39	1.9000e-02	1.4775	5.624156	0.000778	7.780108	2.635972	0.062110
  40	1.9500e-02	1.5176	5.858076	0.000586	5.860341	1.985537	0.046784
  41	2.0000e-02	1.5561	6.079896	0.000556	5.557220	1.882837	0.044364
  42	2.0500e-02	1.5898	6.253319	0.000434	4.344736	1.472036	0.034685
  43	2.1000e-02	1.6283	6.551769	0.000748	7.476987	2.533272	0.059690
  44	2.1500e-02	1.6748	6.773589	0.000556	5.557220	1.882837	0.044364
  45	2.2000e-02	1.7181	7.148667	0.000940	9.396754	3.183706	0.075016
  46	2.2500e-02	1.7534	7.390653	0.000606	6.062422	2.054004	0.048397
  47	2.3000e-02	1.8016	7.543911	0.000384	3.839534	1.300869	0.030652
  48	2.3500e-02	1.8320	7.818162	0.000687	6.870745	2.327871	0.054850
  49	2.4000e-02	1.8786	8.052081	0.000586	5.860341	1.985537	0.046784
  50	2.4500e-02	1.9138	8.281968	0.000576	5.759301	1.951304	0.045977
  51	2.5000e-02	1.9668	8.544119	0.000657	6.567624	2.225171	0.052430
  52	2.5500e-02	1.9941	8.798205	0.000637	6.365543	2.156704	0.050817
  53	2.6000e-02	2.0406	9.020025	0.000556	5.557220	1.882837	0.044364
  54	2.6500e-02	2.0807	9.262011	0.000606	6.062422	2.054004	0.048397
  55	2.7000e-02	2.1176	9.508030	0.000616	6.163462	2.088237	0.049204
  56	2.7500e-02	2.1625	9.745983	0.000596	5.961381	2.019771	0.047591
  57	2.8000e-02	2.1930	9.979902	0.000586	5.860341	1.985537	0.046784
  58	2.8500e-02	2.2427	10.250120	0.000677	6.769704	2.293638	0.054044
  59	2.9000e-02	2.2812	10.480007	0.000576	5.759301	1.951304	0.045977
  60	2.9500e-02	2.3101	10.681662	0.000505	5.052018	1.711670	0.040331
  61	3.0000e-02	2.3422	11.012376	0.000829	8.285310	2.807139	0.066143
  62	3.0500e-02	2.3887	11.347123	0.000839	8.386350	2.841372	0.066949
  63	3.1000e-02	2.4368	11.488281	0.000354	3.536413	1.198169	0.028232
  64	3.1500e-02	2.4817	11.706069	0.000546	5.456180	1.848604	0.043557
  65	3.2000e-02	2.5219	11.919823	0.000536	5.355139	1.814370	0.042751
  66	3.2500e-02	2.5636	12.210206	0.000727	7.274906	2.464805	0.058077
  67	3.3000e-02	2.5956	12.504622	0.000738	7.375946	2.499038	0.058883
  68	3.3500e-02	2.6358	12.774840	0.000677	6.769704	2.293638	0.054044
  69	3.4000e-02	2.6807	12.992627	0.000546	5.456180	1.848604	0.043557
  70	3.4500e-02	2.7144	13.174117	0.000455	4.546816	1.540503	0.036298
  71	3.5000e-02	2.7577	13.452400	0.000697	6.971785	2.362105	0.055657
  72	3.5500e-02	2.8026	13.742783	0.000727	7.274906	2.464805	0.058077
  73	3.6000e-02	2.8443	13.968637	0.000566	5.658260	1.917070	0.045171
  74	3.6500e-02	2.8796	14.246921	0.000697	6.971785	2.362105	0.055657
  75	3.7000e-02	2.9165	14.351781	0.000263	2.627049	0.890068	0.020972
  76	3.7500e-02	2.9614	14.621999	0.000677	6.769704	2.293638	0.054044
  77	3.8000e-02	3.0031	14.940614	0.000798	7.982189	2.704439	0.063723
  78	3.8500e-02	3.0320	15.174533	0.000586	5.860341	1.985537	0.046784
  79	3.9000e-02	3.0657	15.452817	0.000697	6.971785	2.362105	0.055657
  80	3.9500e-02	3.1154	15.714969	0.000657	6.567624	2.225171	0.052430
  81	4.0000e-02	3.1539	15.860160	0.000364	3.637453	1.232402	0.029038
  82	4.0500e-02	3.1876	16.174742	0.000788	7.881148	2.670205	0.062916
  83	4.1000e-02	3.2389	16.432860	0.000647	6.466583	2.190938	0.051624
  84	4.1500e-02	3.2726	16.674846	0.000606	6.062422	2.054004	0.048397
  85	4.2000e-02	3.3192	16.880534	0.000515	5.153058	1.745903	0.041138
  86	4.2500e-02	3.3464	17.086222	0.000515	5.153058	1.745903	0.041138
  87	4.3000e-02	3.3946	17.263679	0.000445	4.445776	1.506270	0.035491
  88	4.3500e-02	3.4347	17.586326	0.000808	8.083229	2.738672	0.064530
  89	4.4000e-02	3.4732	17.820246	0.000586	5.860341	1.985537	0.046784
  90	4.4500e-02	3.5181	18.118695	0.000748	7.476987	2.533272	0.059690
  91	4.5000e-02	3.5470	18.384880	0.000667	6.668664	2.259404	0.053237
  92	4.5500e-02	3.5967	18.711561	0.000818	8.184269	2.772906	0.065336
  93	4.6000e-02	3.6416	18.800289	0.000222	2.222888	0.753135	0.017746
  94	4.6500e-02	3.6881	19.090672	0.000727	7.274906	2.464805	0.058077
  95	4.7000e-02	3.7170	19.336691	0.000616	6.163462	2.088237	0.049204
  96	4.7500e-02	3.7539	19.619008	0.000707	7.072825	2.396338	0.056463
  97	4.8000e-02	3.7924	19.772266	0.000384	3.839534	1.300869	0.030652
  98	4.8500e-02	3.8341	20.050550	0.000697	6.971785	2.362105	0.055657
  99	4.9000e-02	3.8742	20.344966	0.000738	7.375946	2.499038	0.058883
 100	4.9500e-02	3.9207	20.586952	0.000606	6.062422	2.054004	0.048397
 101	5.0000e-02	3.9592	20.828938	0.000606	6.062422	2.054004	0.048397
 102	5.0500e-02	3.9945	21.002361	0.000434	4.344736	1.472036	0.034685
 103	5.1000e-02	4.0362	21.252413	0.000626	6.264502	2.122471	0.050010
 104	5.1500e-02	4.0748	21.502465	0.000626	6.264502	2.122471	0.050010
 105	5.2000e-02	4.1149	21.740418	0.000596	5.961381	2.019771	0.047591
 106	5.2500e-02	4.1598	21.986437	0.000616	6.163462	2.088237	0.049204
 107	5.3000e-02	4.2015	22.228423	0.000606	6.062422	2.054004	0.048397
 108	5.3500e-02	4.2336	22.619634	0.000980	9.800915	3.320640	0.078242
 109	5.4000e-02	4.2769	22.732560	0.000283	2.829130	0.958535	0.022585
 110	5.4500e-02	4.3154	22.885818	0.000384	3.839534	1.300869	0.030652
 111	5.5000e-02	4.3571	23.240731	0.000889	8.891552	3.012539	0.070983
 112	5.5500e-02	4.3988	23.478684	0.000596	5.961381	2.019771	0.047591
 113	5.6000e-02	4.4373	23.676305	0.000495	4.950978	1.677437	0.039524
 114	5.6500e-02	4.4822	23.950556	0.000687	6.870745	2.327871	0.054850
 115	5.7000e-02	4.5159	24.212707	0.000657	6.567624	2.225171	0.052430
 116	5.7500e-02	4.5544	24.365965	0.000384	3.839534	1.300869	0.030652
 117	5.8000e-02	4.5961	24.620050	0.000637	6.365543	2.156704	0.050817
 118	5.8500e-02	4.6426	24.898334	0.000697	6.971785	2.362105	0.055657
 119	5.9000e-02	4.6763	25.132254	0.000586	5.860341	1.985537	0.046784
 120	5.9500e-02	4.7197	25.374240	0.000606	6.062422	2.054004	0.048397
 121	6.0000e-02	4.7533	25.648491	0.000687	6.870745	2.327871	0.054850
 122	6.0500e-02	4.8047	25.914675	0.000667	6.668664	2.259404	0.053237
 123	6.1000e-02	4.8512	26.043734	0.000323	3.233292	1.095469	0.025812
 124	6.1500e-02	4.8833	26.350250	0.000768	7.679068	2.601738	0.061303
 125	6.2000e-02	4.9138	26.640633	0.000727	7.274906	2.464805	0.058077
 126	6.2500e-02	4.9619	26.874553	0.000586	5.860341	1.985537	0.046784
 127	6.3000e-02	5.0020	27.043943	0.000424	4.243695	1.437803	0.033878
 128	6.3500e-02	5.0293	27.346425	0.000758	7.578027	2.567505	0.060496
 129	6.4000e-02	5.0806	27.560179	0.000536	5.355139	1.814370	0.042751
 130	6.4500e-02	5.1191	27.802165	0.000606	6.062422	2.054004	0.048397
 131	6.5000e-02	5.1560	28.032052	0.000576	5.759301	1.951304	0.045977
 132	6.5500e-02	5.1961	28.209508	0.000445	4.445776	1.506270	0.035491
 133	6.6000e-02	5.2394	28.455527	0.000616	6.163462	2.088237	0.049204
 134	6.6500e-02	5.2779	28.770109	0.000788	7.881148	2.670205	0.062916
 135	6.7000e-02	5.3196	29.028227	0.000647	6.466583	2.190938	0.051624
 136	6.7500e-02	5.3549	29.181485	0.000384	3.839534	1.300869	0.030652
 137	6.8000e-02	5.3998	29.504133	0.000808	8.083229	2.738672	0.064530
 138	6.8500e-02	5.4383	29.790483	0.000717	7.173866	2.430571	0.057270
 139	6.9000e-02	5.4704	29.923575	0.000333	3.334332	1.129702	0.026618
 140	6.9500e-02	5.5170	30.185726	0.000657	6.567624	2.225171	0.052430
 141	7.0000e-02	5.5571	30.480143	0.000738	7.375946	2.499038	0.058883
 142	7.0500e-02	5.6004	30.697930	0.000546	5.456180	1.848604	0.043557
 143	7.1000e-02	5.6309	30.923784	0.000566	5.658260	1.917070	0.045171
 144	7.1500e-02	5.6838	31.044776	0.000303	3.031211	1.027002	0.024199
 145	7.2000e-02	5.7319	31.355325	0.000778	7.780108	2.635972	0.062110
 146	7.2500e-02	5.7560	31.504550	0.000374	3.738493	1.266636	0.029845
 147	7.3000e-02	5.7993	31.895760	0.000980	9.800915	3.320640	0.078242
 148	7.3500e-02	5.8330	32.032886	0.000344	3.435372	1.163936	0.027425
 149	7.4000e-02	5.8779	32.278905	0.000616	6.163462	2.088237	0.049204
 150	7.4500e-02	5.9100	32.613652	0.000839	8.386350	2.841372	0.066949
 151	7.5000e-02	5.9501	32.718512	0.000263	2.627049	0.890068	0.020972
 152	7.5500e-02	5.9966	32.984697	0.000667	6.668664	2.259404	0.053237
 153	7.6000e-02	6.0415	33.291212	0.000768	7.679068	2.601738	0.061303
 154	7.6500e-02	6.0881	33.513033	0.000556	5.557220	1.882837	0.044364
 155	7.7000e-02	6.1185	33.755019	0.000606	6.062422	2.054004	0.048397
 156	7.7500e-02	6.1538	34.029269	0.000687	6.870745	2.327871	0.054850
 157	7.8000e-02	6.2068	34.170428	0.000354	3.536413	1.198169	0.028232
 158	7.8500e-02	6.2437	34.408381	0.000596	5.961381	2.019771	0.047591
 159	7.9000e-02	6.2758	34.646334	0.000596	5.961381	2.019771	0.047591
 160	7.9500e-02	6.3239	34.932684	0.000717	7.173866	2.430571	0.057270
 161	8.0000e-02	6.3512	35.138372	0.000515	5.153058	1.745903	0.041138
 162	8.0500e-02	6.3993	35.356159	0.000546	5.456180	1.848604	0.043557
 163	8.1000e-02	6.4426	35.686873	0.000829	8.285310	2.807139	0.066143
 164	8.1500e-02	6.4795	35.900627	0.000536	5.355139	1.814370	0.042751
 165	8.2000e-02	6.5212	36.061951	0.000404	4.041614	1.369336	0.032265
 166	8.2500e-02	6.5533	36.291838	0.000576	5.759301	1.951304	0.045977
 167	8.3000e-02	6.5950	36.562055	0.000677	6.769704	2.293638	0.054044
 168	8.3500e-02	6.6335	36.723379	0.000404	4.041614	1.369336	0.032265
 169	8.4000e-02	6.6848	36.945200	0.000556	5.557220	1.882837	0.044364
 170	8.4500e-02	6.7121	37.215417	0.000677	6.769704	2.293638	0.054044
 171	8.5000e-02	6.7683	37.441271	0.000566	5.658260	1.917070	0.045171
 172	8.5500e-02	6.8003	37.679224	0.000596	5.961381	2.019771	0.047591
 173	8.6000e-02	6.8404	37.856680	0.000445	4.445776	1.506270	0.035491
 174	8.6500e-02	6.8725	38.022037	0.000414	4.142655	1.403569	0.033071
 175	8.7000e-02	6.9175	38.300321	0.000697	6.971785	2.362105	0.055657
 176	8.7500e-02	6.9576	38.566505	0.000667	6.668664	2.259404	0.053237
 177	8.8000e-02	6.9896	38.760094	0.000485	4.849937	1.643203	0.038718
 178	8.8500e-02	7.0426	39.006113	0.000616	6.163462	2.088237	0.049204
 179	8.9000e-02	7.0843	39.195669	0.000475	4.748897	1.608970	0.037911
 180	8.9500e-02	7.1164	39.486052	0.000727	7.274906	2.464805	0.058077
 181	9.0000e-02	7.1453	39.699806	0.000536	5.355139	1.814370	0.042751
 182	9.0500e-02	7.2030	39.961958	0.000657	6.567624	2.225171	0.052430
 183	9.1000e-02	7.2319	40.151513	0.000475	4.748897	1.608970	0.037911
 184	9.1500e-02	7.2784	40.413665	0.000657	6.567624	2.225171	0.052430
 185	9.2000e-02	7.3217	40.615319	0.000505	5.052018	1.711670	0.040331
 186	9.2500e-02	7.3474	40.829074	0.000536	5.355139	1.814370	0.042751
 187	9.3000e-02	7.4003	40.998464	0.000424	4.243695	1.437803	0.033878
 188	9.3500e-02	7.4452	41.292880	0.000738	7.375946	2.499038	0.058883
 189	9.4000e-02	7.4854	41.466303	0.000434	4.344736	1.472036	0.034685
 190	9.4500e-02	7.5094	41.676024	0.000525	5.254099	1.780137	0.041944
 191	9.5000e-02	7.5624	41.922043	0.000616	6.163462	2.088237	0.049204
 192	9.5500e-02	7.5976	42.196294	0.000687	6.870745	2.327871	0.054850
 193	9.6000e-02	7.6426	42.458446	0.000657	6.567624	2.225171	0.052430
 194	9.6500e-02	7.6811	42.611703	0.000384	3.839534	1.300869	0.030652
 195	9.7000e-02	7.7164	42.910153	0.000748	7.476987	2.533272	0.059690
 196	9.7500e-02	7.7613	43.103741	0.000485	4.849937	1.643203	0.038718
 197	9.8000e-02	7.8014	43.377992	0.000687	6.870745	2.327871	0.054850
 198	9.8500e-02	7.8431	43.583680	0.000515	5.153058	1.745903	0.041138
 199	9.9000e-02	7.8768	43.712739	0.000323	3.233292	1.095469	0.025812
 200	9.9500e-02	7.9185	44.031354	0.000798	7.982189	2.704439	0.063723
 201	1.0000e-01	7.9618	44.176546	0.000364	3.637453	1.232402	0.029038
 202	1.0050e-01	7.9987	44.394333	0.000546	5.456180	1.848604	0.043557
 203	1.0100e-01	8.0436	44.672617	0.000697	6.971785	2.362105	0.055657
 204	1.0150e-01	8.0773	44.866205	0.000485	4.849937	1.643203	0.038718
 205	1.0200e-01	8.1206	45.071893	0.000515	5.153058	1.745903	0.041138
 206	1.0250e-01	8.1559	45.309846	0.000596	5.961381	2.019771	0.047591
 207	1.0300e-01	8.2024	45.551832	0.000606	6.062422	2.054004	0.048397
 208	1.0350e-01	8.2345	45.741388	0.000475	4.748897	1.608970	0.037911
 209	1.0400e-01	8.2730	45.995473	0.000637	6.365543	2.156704	0.050817
 210	1.0450e-01	8.3196	46.221327	0.000566	5.658260	1.917070	0.045171
 211	1.0500e-01	8.3613	46.463312	0.000606	6.062422	2.054004	0.048397
 212	1.0550e-01	8.4062	46.681100	0.000546	5.456180	1.848604	0.043557
 213	1.0600e-01	8.4383	46.874689	0.000485	4.849937	1.643203	0.038718
 214	1.0650e-01	8.4720	47.148939	0.000687	6.870745	2.327871	0.054850
 215	1.0700e-01	8.5153	47.290098	0.000354	3.536413	1.198169	0.028232
 216	1.0750e-01	8.5618	47.584514	0.000738	7.375946	2.499038	0.058883
 217	1.0800e-01	8.6035	47.701474	0.000293	2.930170	0.992769	0.023392
 218	1.0850e-01	8.6436	47.927327	0.000566	5.658260	1.917070	0.045171
 219	1.0900e-01	8.6789	48.229810	0.000758	7.578027	2.567505	0.060496
 220	1.0950e-01	8.7126	48.443564	0.000536	5.355139	1.814370	0.042751
 221	1.1000e-01	8.7479	48.633119	0.000475	4.748897	1.608970	0.037911
 222	1.1050e-01	8.7928	48.814609	0.000455	4.546816	1.540503	0.036298
 223	1.1100e-01	8.8393	49.068694	0.000637	6.365543	2.156704	0.050817
 224	1.1150e-01	8.8746	49.322779	0.000637	6.365543	2.156704	0.050817
 225	1.1200e-01	8.9147	49.480070	0.000394	3.940574	1.335103	0.031458
 226	1.1250e-01	8.9628	49.653493	0.000434	4.344736	1.472036	0.034685
 227	1.1300e-01	8.9965	49.847082	0.000485	4.849937	1.643203	0.038718
 228	1.1350e-01	9.0350	50.085035	0.000596	5.961381	2.019771	0.047591
 229	1.1400e-01	9.0751	50.355253	0.000677	6.769704	2.293638	0.054044
 230	1.1450e-01	9.1185	50.605305	0.000626	6.264502	2.122471	0.050010
 231	1.1500e-01	9.1602	50.810993	0.000515	5.153058	1.745903	0.041138
 232	1.1550e-01	9.1955	51.016681	0.000515	5.153058	1.745903	0.041138
 233	1.1600e-01	9.2404	51.307064	0.000727	7.274906	2.464805	0.058077
 234	1.1650e-01	9.2853	51.488553	0.000455	4.546816	1.540503	0.036298
 235	1.1700e-01	9.3142	51.674076	0.000465	4.647857	1.574736	0.037105
 236	1.1750e-01	9.3607	51.895896	0.000556	5.557220	1.882837	0.044364
 237	1.1800e-01	9.3928	52.101584	0.000515	5.153058	1.745903	0.041138
 238	1.1850e-01	9.4393	52.254842	0.000384	3.839534	1.300869	0.030652
 239	1.1900e-01	9.4826	52.428265	0.000434	4.344736	1.472036	0.034685
 240	1.1950e-01	9.5195	52.682350	0.000637	6.365543	2.156704	0.050817
 241	1.2000e-01	9.5532	52.879972	0.000495	4.950978	1.677437	0.039524
 242	1.2050e-01	9.6013	53.134058	0.000637	6.365543	2.156704	0.050817
 243	1.2100e-01	9.6446	53.380077	0.000616	6.163462	2.088237	0.049204
 244	1.2150e-01	9.6799	53.618029	0.000596	5.961381	2.019771	0.047591
 245	1.2200e-01	9.7249	53.799519	0.000455	4.546816	1.540503	0.036298
 246	1.2250e-01	9.7585	54.057637	0.000647	6.466583	2.190938	0.051624
 247	1.2300e-01	9.8003	54.174597	0.000293	2.930170	0.992769	0.023392
 248	1.2350e-01	9.8323	54.307689	0.000333	3.334332	1.129702	0.026618
 249	1.2400e-01	9.8773	54.594039	0.000717	7.173866	2.430571	0.057270
 250	1.2450e-01	9.9238	54.852158	0.000647	6.466583	2.190938	0.051624
 251	1.2500e-01	9.9543	55.078011	0.000566	5.658260	1.917070	0.045171
 252	1.2550e-01	9.9992	55.283699	0.000515	5.153058	1.745903	0.041138
 253	1.2600e-01	10.0345	55.324030	0.000101	1.010404	0.342334	0.008066
 254	1.2650e-01	10.0714	55.602314	0.000697	6.971785	2.362105	0.055657
 255	1.2700e-01	10.1211	55.779770	0.000445	4.445776	1.506270	0.035491
 256	1.2750e-01	10.1532	56.122584	0.000859	8.588431	2.909839	0.068563
 257	1.2800e-01	10.1949	56.336338	0.000536	5.355139	1.814370	0.042751
 258	1.2850e-01	10.2398	56.493629	0.000394	3.940574	1.335103	0.031458
 259	1.2900e-01	10.2767	56.860641	0.000919	9.194673	3.115240	0.073402
 260	1.2950e-01	10.3184	56.913071	0.000131	1.313525	0.445034	0.010486
 261	1.3000e-01	10.3617	57.215553	0.000758	7.578027	2.567505	0.060496
 262	1.3050e-01	10.4018	57.405109	0.000475	4.748897	1.608970	0.037911
 263	1.3100e-01	10.4339	57.550301	0.000364	3.637453	1.232402	0.029038
 264	1.3150e-01	10.4740	57.739856	0.000475	4.748897	1.608970	0.037911
 265	1.3200e-01	10.5206	57.985875	0.000616	6.163462	2.088237	0.049204
 266	1.3250e-01	10.5542	58.110901	0.000313	3.132251	1.061235	0.025005
 267	1.3300e-01	10.6040	58.393218	0.000707	7.072825	2.396338	0.056463
 268	1.3350e-01	10.6361	58.518244	0.000313	3.132251	1.061235	0.025005
 269	1.3400e-01	10.6730	58.768296	0.000626	6.264502	2.122471	0.050010
 270	1.3450e-01	10.7131	59.002216	0.000586	5.860341	1.985537	0.046784
 271	1.3500e-01	10.7564	59.187739	0.000465	4.647857	1.574736	0.037105
 272	1.3550e-01	10.8029	59.369228	0.000455	4.546816	1.540503	0.036298
 273	1.3600e-01	10.8318	59.558784	0.000475	4.748897	1.608970	0.037911
 274	1.3650e-01	10.8767	59.804803	0.000616	6.163462	2.088237	0.049204
 275	1.3700e-01	10.9216	60.066954	0.000657	6.567624	2.225171	0.052430
 276	1.3750e-01	10.9665	60.296841	0.000576	5.759301	1.951304	0.045977
 277	1.3800e-01	10.9970	60.458165	0.000404	4.041614	1.369336	0.032265
 278	1.3850e-01	11.0387	60.639654	0.000455	4.546816	1.540503	0.036298
 279	1.3900e-01	11.0724	60.942136	0.000758	7.578027	2.567505	0.060496
 280	1.3950e-01	11.1157	61.135725	0.000485	4.849937	1.643203	0.038718
 281	1.4000e-01	11.1606	61.284950	0.000374	3.738493	1.266636	0.029845
 282	1.4050e-01	11.2056	61.498704	0.000536	5.355139	1.814370	0.042751
 283	1.4100e-01	11.2360	61.668094	0.000424	4.243695	1.437803	0.033878
 284	1.4150e-01	11.2745	61.857650	0.000475	4.748897	1.608970	0.037911
 285	1.4200e-01	11.3243	62.127867	0.000677	6.769704	2.293638	0.054044
 286	1.4250e-01	11.3580	62.285158	0.000394	3.940574	1.335103	0.031458
 287	1.4300e-01	11.3997	62.535210	0.000626	6.264502	2.122471	0.050010
 288	1.4350e-01	11.4350	62.700567	0.000414	4.142655	1.403569	0.033071
 289	1.4400e-01	11.4735	62.886090	0.000465	4.647857	1.574736	0.037105
 290	1.4450e-01	11.5168	63.071612	0.000465	4.647857	1.574736	0.037105
 291	1.4500e-01	11.5601	63.261168	0.000475	4.748897	1.608970	0.037911
 292	1.4550e-01	11.5986	63.470889	0.000525	5.254099	1.780137	0.041944
 293	1.4600e-01	11.6451	63.704809	0.000586	5.860341	1.985537	0.046784
 294	1.4650e-01	11.6836	63.894365	0.000475	4.748897	1.608970	0.037911
 295	1.4700e-01	11.7157	64.108119	0.000536	5.355139	1.814370	0.042751
 296	1.4750e-01	11.7606	64.370270	0.000657	6.567624	2.225171	0.052430
 297	1.4800e-01	11.7927	64.604190	0.000586	5.860341	1.985537	0.046784
 298	1.4850e-01	11.8392	64.777613	0.000434	4.344736	1.472036	0.034685
 299	1.4900e-01	11.8777	65.007500	0.000576	5.759301	1.951304	0.045977
 300	1.4950e-01	11.9194	65.160758	0.000384	3.839534	1.300869	0.030652
 301	1.5000e-01	11.9580	65.285784	0.000313	3.132251	1.061235	0.025005
 302	1.5050e-01	11.9965	65.547935	0.000657	6.567624	2.225171	0.052430
 303	1.5100e-01	12.0414	65.685060	0.000344	3.435372	1.163936	0.027425
 304	1.5150e-01	12.0719	65.866550	0.000455	4.546816	1.540503	0.036298
 305	1.5200e-01	12.1152	66.080304	0.000536	5.355139	1.814370	0.042751
 306	1.5250e-01	12.1649	66.342455	0.000657	6.567624	2.225171	0.052430
 307	1.5300e-01	12.1970	66.515879	0.000434	4.344736	1.472036	0.034685
 308	1.5350e-01	12.2323	66.753832	0.000596	5.961381	2.019771	0.047591
 309	1.5400e-01	12.2772	66.923222	0.000424	4.243695	1.437803	0.033878
 310	1.5450e-01	12.3157	67.068413	0.000364	3.637453	1.232402	0.029038
 311	1.5500e-01	12.3670	67.298300	0.000576	5.759301	1.951304	0.045977
 312	1.5550e-01	12.4087	67.483822	0.000465	4.647857	1.574736	0.037105
 313	1.5600e-01	12.4392	67.637080	0.000384	3.839534	1.300869	0.030652
 314	1.5650e-01	12.4777	67.745974	0.000273	2.728090	0.924302	0.021779
 315	1.5700e-01	12.5114	67.975860	0.000576	5.759301	1.951304	0.045977
 316	1.5750e-01	12.5772	68.173482	0.000495	4.950978	1.677437	0.039524
 317	1.5800e-01	12.6012	68.419501	0.000616	6.163462	2.088237	0.049204
 318	1.5850e-01	12.6349	68.621156	0.000505	5.052018	1.711670	0.040331
 319	1.5900e-01	12.6783	68.867175	0.000616	6.163462	2.088237	0.049204
 320	1.5950e-01	12.7248	68.980102	0.000283	2.829130	0.958535	0.022585
 321	1.6000e-01	12.7601	69.165624	0.000465	4.647857	1.574736	0.037105
 322	1.6050e-01	12.7938	69.330982	0.000414	4.142655	1.403569	0.033071
 323	1.6100e-01	12.8451	69.540703	0.000525	5.254099	1.780137	0.041944
 324	1.6150e-01	12.8836	69.818986	0.000697	6.971785	2.362105	0.055657
 325	1.6200e-01	12.9205	69.988377	0.000424	4.243695	1.437803	0.033878
 326	1.6250e-01	12.9622	70.194065	0.000515	5.153058	1.745903	0.041138
 327	1.6300e-01	13.0039	70.315058	0.000303	3.031211	1.027002	0.024199
 328	1.6350e-01	13.0280	70.524779	0.000525	5.254099	1.780137	0.041944
 329	1.6400e-01	13.0729	70.770798	0.000616	6.163462	2.088237	0.049204
 330	1.6450e-01	13.1162	70.924055	0.000384	3.839534	1.300869	0.030652
 331	1.6500e-01	13.1563	71.093446	0.000424	4.243695	1.437803	0.033878
 332	1.6550e-01	13.1964	71.307200	0.000536	5.355139	1.814370	0.042751
 333	1.6600e-01	13.2349	71.399961	0.000232	2.323928	0.787368	0.018552
 334	1.6650e-01	13.2766	71.641947	0.000606	6.062422	2.054004	0.048397
 335	1.6700e-01	13.3215	71.851668	0.000525	5.254099	1.780137	0.041944
 336	1.6750e-01	13.3568	72.113820	0.000657	6.567624	2.225171	0.052430
 337	1.6800e-01	13.3905	72.303375	0.000475	4.748897	1.608970	0.037911
 338	1.6850e-01	13.4419	72.448567	0.000364	3.637453	1.232402	0.029038
 339	1.6900e-01	13.4788	72.589725	0.000354	3.536413	1.198169	0.028232
 340	1.6950e-01	13.5141	72.827678	0.000596	5.961381	2.019771	0.047591
 341	1.7000e-01	13.5526	73.033366	0.000515	5.153058	1.745903	0.041138
 342	1.7050e-01	13.5862	73.251153	0.000546	5.456180	1.848604	0.043557
 343	1.7100e-01	13.6280	73.472974	0.000556	5.557220	1.882837	0.044364
 344	1.7150e-01	13.6809	73.606066	0.000333	3.334332	1.129702	0.026618
 345	1.7200e-01	13.7178	73.795622	0.000475	4.748897	1.608970	0.037911
 346	1.7250e-01	13.7659	73.997277	0.000505	5.052018	1.711670	0.040331
 347	1.7300e-01	13.7948	74.198932	0.000505	5.052018	1.711670	0.040331
 348	1.7350e-01	13.8429	74.348156	0.000374	3.738493	1.266636	0.029845
 349	1.7400e-01	13.8734	74.533679	0.000465	4.647857	1.574736	0.037105
 350	1.7450e-01	13.9167	74.779698	0.000616	6.163462	2.088237	0.049204
 351	1.7500e-01	13.9536	74.916823	0.000344	3.435372	1.163936	0.027425
 352	1.7550e-01	14.0001	75.150743	0.000586	5.860341	1.985537	0.046784
 353	1.7600e-01	14.0306	75.372563	0.000556	5.557220	1.882837	0.044364
 354	1.7650e-01	14.0804	75.566152	0.000485	4.849937	1.643203	0.038718
 355	1.7700e-01	14.1076	75.711344	0.000364	3.637453	1.232402	0.029038
 356	1.7750e-01	14.1622	75.860568	0.000374	3.738493	1.266636	0.029845
 357	1.7800e-01	14.1959	76.046091	0.000465	4.647857	1.574736	0.037105
 358	1.7850e-01	14.2344	76.231613	0.000465	4.647857	1.574736	0.037105
 359	1.7900e-01	14.2761	76.413103	0.000455	4.546816	1.540503	0.036298
 360	1.7950e-01	14.3082	76.626857	0.000536	5.355139	1.814370	0.042751
 361	1.8000e-01	14.3547	76.836578	0.000525	5.254099	1.780137	0.041944
 362	1.8050e-01	14.3996	77.090663	0.000637	6.365543	2.156704	0.050817
 363	1.8100e-01	14.4381	77.256020	0.000414	4.142655	1.403569	0.033071
 364	1.8150e-01	14.4814	77.441543	0.000465	4.647857	1.574736	0.037105
 365	1.8200e-01	14.5183	77.473808	0.000081	0.808323	0.273867	0.006453
 366	1.8250e-01	14.5616	77.655297	0.000455	4.546816	1.540503	0.036298
 367	1.8300e-01	14.6033	77.844853	0.000475	4.748897	1.608970	0.037911
 368	1.8350e-01	14.6402	78.086839	0.000606	6.062422	2.054004	0.048397
 369	1.8400e-01	14.6707	78.175567	0.000222	2.222888	0.753135	0.017746
 370	1.8450e-01	14.7172	78.421586	0.000616	6.163462	2.088237	0.049204
 371	1.8500e-01	14.7541	78.599042	0.000445	4.445776	1.506270	0.035491
 372	1.8550e-01	14.7942	78.784565	0.000465	4.647857	1.574736	0.037105
 373	1.8600e-01	14.8359	79.038650	0.000637	6.365543	2.156704	0.050817
 374	1.8650e-01	14.8777	79.191908	0.000384	3.839534	1.300869	0.030652
 375	1.8700e-01	14.9129	79.357265	0.000414	4.142655	1.403569	0.033071
 376	1.8750e-01	14.9547	79.542787	0.000465	4.647857	1.574736	0.037105
 377	1.8800e-01	14.9980	79.817038	0.000687	6.870745	2.327871	0.054850
 378	1.8850e-01	15.0317	79.954163	0.000344	3.435372	1.163936	0.027425
 379	1.8900e-01	15.0702	80.139686	0.000465	4.647857	1.574736	0.037105
 380	1.8950e-01	15.1231	80.333275	0.000485	4.849937	1.643203	0.038718
 381	1.9000e-01	15.1616	80.450234	0.000293	2.930170	0.992769	0.023392
 382	1.9050e-01	15.1953	80.651889	0.000505	5.052018	1.711670	0.040331
 383	1.9100e-01	15.2338	80.849511	0.000495	4.950978	1.677437	0.039524
 384	1.9150e-01	15.2723	81.051166	0.000505	5.052018	1.711670	0.040331
 385	1.9200e-01	15.3156	81.200391	0.000374	3.738493	1.266636	0.029845
 386	1.9250e-01	15.3589	81.365748	0.000414	4.142655	1.403569	0.033071
 387	1.9300e-01	15.4022	81.583535	0.000546	5.456180	1.848604	0.043557
 388	1.9350e-01	15.4407	81.793256	0.000525	5.254099	1.780137	0.041944
 389	1.9400e-01	15.4792	82.011044	0.000546	5.456180	1.848604	0.043557
 390	1.9450e-01	15.5145	82.132036	0.000303	3.031211	1.027002	0.024199
 391	1.9500e-01	15.5595	82.313526	0.000455	4.546816	1.540503	0.036298
 392	1.9550e-01	15.5915	82.446618	0.000333	3.334332	1.129702	0.026618
 393	1.9600e-01	15.6365	82.583744	0.000344	3.435372	1.163936	0.027425
 394	1.9650e-01	15.6814	82.809597	0.000566	5.658260	1.917070	0.045171
 395	1.9700e-01	15.7199	83.043517	0.000586	5.860341	1.985537	0.046784
 396	1.9750e-01	15.7584	83.241139	0.000495	4.950978	1.677437	0.039524
 397	1.9800e-01	15.7985	83.374231	0.000333	3.334332	1.129702	0.026618
 398	1.9850e-01	15.8434	83.237106	-0.000344	-3.435372	-1.163936	-0.027425
 399	1.9900e-01	15.8803	83.717044	0.001202	12.023803	4.073775	0.095988
 400	1.9950e-01	15.9252	83.910633	0.000485	4.849937	1.643203	0.038718
 401	2.0000e-01	15.9509	84.071957	0.000404	4.041614	1.369336	0.032265
 402	2.0050e-01	15.9990	84.273612	0.000505	5.052018	1.711670	0.040331
 403	2.0100e-01	16.0391	84.438969	0.000414	4.142655	1.403569	0.033071
 404	2.0150e-01	16.0776	84.697087	0.000647	6.466583	2.190938	0.051624
 405	2.0200e-01	16.1145	84.858411	0.000404	4.041614	1.369336	0.032265
 406	2.0250e-01	16.1594	85.003603	0.000364	3.637453	1.232402	0.029038
 407	2.0300e-01	16.1963	85.144761	0.000354	3.536413	1.198169	0.028232
 408	2.0350e-01	16.2509	85.306085	0.000404	4.041614	1.369336	0.032265
 409	2.0400e-01	16.2749	85.455310	0.000374	3.738493	1.266636	0.029845
 410	2.0450e-01	16.3150	85.689229	0.000586	5.860341	1.985537	0.046784
 411	2.0500e-01	16.3584	85.846520	0.000394	3.940574	1.335103	0.031458
 412	2.0550e-01	16.3937	86.036076	0.000475	4.748897	1.608970	0.037911
 413	2.0600e-01	16.4322	86.233698	0.000495	4.950978	1.677437	0.039524
 414	2.0650e-01	16.4867	86.346625	0.000283	2.829130	0.958535	0.022585
 415	2.0700e-01	16.5204	86.511982	0.000414	4.142655	1.403569	0.033071
 416	2.0750e-01	16.5557	86.576511	0.000162	1.616646	0.547734	0.012906
 417	2.0800e-01	16.5926	86.794298	0.000546	5.456180	1.848604	0.043557
 418	2.0850e-01	16.6343	87.129046	0.000839	8.386350	2.841372	0.066949
 419	2.0900e-01	16.6840	87.213741	0.000212	2.121848	0.718901	0.016939
 420	2.0950e-01	16.7097	87.459760	0.000616	6.163462	2.088237	0.049204
 421	2.1000e-01	16.7658	87.685613	0.000566	5.658260	1.917070	0.045171
 422	2.1050e-01	16.8043	87.826772	0.000354	3.536413	1.198169	0.028232
 423	2.1100e-01	16.8364	88.036493	0.000525	5.254099	1.780137	0.041944
 424	2.1150e-01	16.8701	88.145387	0.000273	2.728090	0.924302	0.021779
 425	2.1200e-01	16.9231	88.387372	0.000606	6.062422	2.054004	0.048397
 426	2.1250e-01	16.9648	88.488200	0.000253	2.526009	0.855835	0.020165
 427	2.1300e-01	17.0001	88.637425	0.000374	3.738493	1.266636	0.029845
 428	2.1350e-01	17.0418	88.734219	0.000242	2.424969	0.821602	0.019359
 429	2.1400e-01	17.0851	88.943940	0.000525	5.254099	1.780137	0.041944
 430	2.1450e-01	17.1220	89.145595	0.000505	5.052018	1.711670	0.040331
 431	2.1500e-01	17.1541	89.250456	0.000263	2.627049	0.890068	0.020972
 432	2.1550e-01	17.1942	89.452110	0.000505	5.052018	1.711670	0.040331
 433	2.1600e-01	17.2295	89.770725	0.000798	7.982189	2.704439	0.063723
 434	2.1650e-01	17.2776	89.928016	0.000394	3.940574	1.335103	0.031458
 435	2.1700e-01	17.3113	90.000612	0.000182	1.818727	0.616201	0.014519
 436	2.1750e-01	17.3578	90.153870	0.000384	3.839534	1.300869	0.030652
 437	2.1800e-01	17.3979	90.351491	0.000495	4.950978	1.677437	0.039524
 438	2.1850e-01	17.4412	90.597510	0.000616	6.163462	2.088237	0.049204
 439	2.1900e-01	17.4765	90.795132	0.000495	4.950978	1.677437	0.039524
 440	2.1950e-01	17.5230	90.940324	0.000364	3.637453	1.232402	0.029038
 441	2.2000e-01	17.5519	91.081482	0.000354	3.536413	1.198169	0.028232
 442	2.2050e-01	17.5968	91.267005	0.000465	4.647857	1.574736	0.037105
 443	2.2100e-01	17.6369	91.436395	0.000424	4.243695	1.437803	0.033878
 444	2.2150e-01	17.6754	91.585620	0.000374	3.738493	1.266636	0.029845
 445	2.2200e-01	17.7155	91.767109	0.000455	4.546816	1.540503	0.036298
 446	2.2250e-01	17.7524	91.920367	0.000384	3.839534	1.300869	0.030652
 447	2.2300e-01	17.7990	92.154287	0.000586	5.860341	1.985537	0.046784
 448	2.2350e-01	17.8327	92.331743	0.000445	4.445776	1.506270	0.035491
 449	2.2400e-01	17.8712	92.464835	0.000333	3.334332	1.129702	0.026618
 450	2.2450e-01	17.9097	92.597927	0.000333	3.334332	1.129702	0.026618
 451	2.2500e-01	17.9578	92.835880	0.000596	5.961381	2.019771	0.047591
 452	2.2550e-01	18.0075	92.928641	0.000232	2.323928	0.787368	0.018552
 453	2.2600e-01	18.0332	93.114164	0.000465	4.647857	1.574736	0.037105
 454	2.2650e-01	18.0909	93.259356	0.000364	3.637453	1.232402	0.029038
 455	2.2700e-01	18.1198	93.440845	0.000455	4.546816	1.540503	0.036298
 456	2.2750e-01	18.1679	93.590070	0.000374	3.738493	1.266636	0.029845
 457	2.2800e-01	18.2048	93.711063	0.000303	3.031211	1.027002	0.024199
 458	2.2850e-01	18.2417	93.932883	0.000556	5.557220	1.882837	0.044364
 459	2.2900e-01	18.2802	94.138571	0.000515	5.153058	1.745903	0.041138
 460	2.2950e-01	18.3171	94.311994	0.000434	4.344736	1.472036	0.034685
 461	2.3000e-01	18.3653	94.461219	0.000374	3.738493	1.266636	0.029845
 462	2.3050e-01	18.4006	94.586245	0.000313	3.132251	1.061235	0.025005
 463	2.3100e-01	18.4342	94.767734	0.000455	4.546816	1.540503	0.036298
 464	2.3150e-01	18.4808	95.013753	0.000616	6.163462	2.088237	0.049204
 465	2.3200e-01	18.5257	95.150879	0.000344	3.435372	1.163936	0.027425
 466	2.3250e-01	18.5706	95.300103	0.000374	3.738493	1.266636	0.029845
 467	2.3300e-01	18.6027	95.550156	0.000626	6.264502	2.122471	0.050010
 468	2.3350e-01	18.6444	95.663082	0.000283	2.829130	0.958535	0.022585
 469	2.3400e-01	18.6781	95.884903	0.000556	5.557220	1.882837	0.044364
 470	2.3450e-01	18.7118	96.046227	0.000404	4.041614	1.369336	0.032265
 471	2.3500e-01	18.7599	96.171253	0.000313	3.132251	1.061235	0.025005
 472	2.3550e-01	18.7920	96.304345	0.000333	3.334332	1.129702	0.026618
 473	2.3600e-01	18.8401	96.501967	0.000495	4.950978	1.677437	0.039524
 474	2.3650e-01	18.8834	96.739920	0.000596	5.961381	2.019771	0.047591
 475	2.3700e-01	18.9219	96.836714	0.000242	2.424969	0.821602	0.019359
 476	2.3750e-01	18.9572	97.030303	0.000485	4.849937	1.643203	0.038718
 477	2.3800e-01	18.9973	97.235991	0.000515	5.153058	1.745903	0.041138
 478	2.3850e-01	19.0358	97.421513	0.000465	4.647857	1.574736	0.037105
 479	2.3900e-01	19.0743	97.522341	0.000253	2.526009	0.855835	0.020165
 480	2.3950e-01	19.1192	97.647367	0.000313	3.132251	1.061235	0.025005
 481	2.4000e-01	19.1594	97.728029	0.000202	2.020807	0.684668	0.016132
 482	2.4050e-01	19.1930	97.961949	0.000586	5.860341	1.985537	0.046784
 483	2.4100e-01	19.2348	98.111173	0.000374	3.738493	1.266636	0.029845
 484	2.4150e-01	19.2877	98.345093	0.000586	5.860341	1.985537	0.046784
 485	2.4200e-01	19.3230	98.566913	0.000556	5.557220	1.882837	0.044364
 486	2.4250e-01	19.3599	98.708072	0.000354	3.536413	1.198169	0.028232
 487	2.4300e-01	19.3984	98.837131	0.000323	3.233292	1.095469	0.025812
 488	2.4350e-01	19.4417	99.054918	0.000546	5.456180	1.848604	0.043557
 489	2.4400e-01	19.4818	99.200110	0.000364	3.637453	1.232402	0.029038
 490	2.4450e-01	19.5059	99.321103	0.000303	3.031211	1.027002	0.024199
 491	2.4500e-01	19.5556	99.429996	0.000273	2.728090	0.924302	0.021779
 492	2.4550e-01	19.6037	99.555022	0.000313	3.132251	1.061235	0.025005
 493	2.4600e-01	19.6422	99.667949	0.000283	2.829130	0.958535	0.022585
 494	2.4650e-01	19.6743	99.885737	0.000546	5.456180	1.848604	0.043557
 495	2.4700e-01	19.7224	100.063193	0.000445	4.445776	1.506270	0.035491
 496	2.4750e-01	19.7625	100.341477	0.000697	6.971785	2.362105	0.055657
 497	2.4800e-01	19.8059	100.381808	0.000101	1.010404	0.342334	0.008066
 498	2.4850e-01	19.8395	100.555231	0.000434	4.344736	1.472036	0.034685
 499	2.4900e-01	19.8797	100.748820	0.000485	4.849937	1.643203	0.038718
 500	2.4950e-01	19.9246	100.994839	0.000616	6.163462	2.088237	0.049204
 501	2.5000e-01	19.9599	101.273122	0.000697	6.971785	2.362105	0.055657
 502	2.5050e-01	19.9567	101.176328	0.000242	2.424969	0.821602	-0.019359
 503	2.5100e-01	19.9358	101.180361	-0.000010	-0.101040	-0.034233	0.000807
 504	2.5150e-01	19.8989	101.002905	0.000445	4.445776	1.506270	-0.035491
 505	2.5200e-01	19.8556	100.974673	0.000071	0.707283	0.239634	-0.005646
 506	2.5250e-01	19.8139	100.813349	0.000404	4.041614	1.369336	-0.032265
 507	2.5300e-01	19.7802	100.680257	0.000333	3.334332	1.129702	-0.026618
 508	2.5350e-01	19.7417	100.575396	0.000263	2.627049	0.890068	-0.020972
 509	2.5400e-01	19.6984	100.426172	0.000374	3.738493	1.266636	-0.029845
 510	2.5450e-01	19.6615	100.236616	0.000475	4.748897	1.608970	-0.037911
 511	2.5500e-01	19.6198	100.139822	0.000242	2.424969	0.821602	-0.019359
 512	2.5550e-01	19.5861	100.055127	0.000212	2.121848	0.718901	-0.016939
 513	2.5600e-01	19.5396	99.954299	0.000253	2.526009	0.855835	-0.020165
 514	2.5650e-01	19.4962	99.809108	0.000364	3.637453	1.232402	-0.029038
 515	2.5700e-01	19.4690	99.696181	0.000283	2.829130	0.958535	-0.022585
 516	2.5750e-01	19.4128	99.579221	0.000293	2.930170	0.992769	-0.023392
 517	2.5800e-01	19.3775	99.321103	0.000647	6.466583	2.190938	-0.051624
 518	2.5850e-01	19.3438	99.188010	0.000333	3.334332	1.129702	-0.026618
 519	2.5900e-01	19.2941	99.067018	0.000303	3.031211	1.027002	-0.024199
 520	2.5950e-01	19.2636	98.925859	0.000354	3.536413	1.198169	-0.028232
 521	2.6000e-01	19.2219	98.788734	0.000344	3.435372	1.163936	-0.027425
 522	2.6050e-01	19.1882	98.687906	0.000253	2.526009	0.855835	-0.020165
 523	2.6100e-01	19.1337	98.534649	0.000384	3.839534	1.300869	-0.030652
 524	2.6150e-01	19.1016	98.288629	0.000616	6.163462	2.088237	-0.049204
 525	2.6200e-01	19.0615	98.123272	0.000414	4.142655	1.403569	-0.033071
 526	2.6250e-01	19.0294	98.026478	0.000242	2.424969	0.821602	-0.019359
 527	2.6300e-01	18.9893	97.957915	0.000172	1.717686	0.581968	-0.013713
 528	2.6350e-01	18.9364	97.780459	0.000445	4.445776	1.506270	-0.035491
 529	2.6400e-01	18.9011	97.675598	0.000263	2.627049	0.890068	-0.020972
 530	2.6450e-01	18.8674	97.534440	0.000354	3.536413	1.198169	-0.028232
 531	2.6500e-01	18.8305	97.417480	0.000293	2.930170	0.992769	-0.023392
 532	2.6550e-01	18.7791	97.248090	0.000424	4.243695	1.437803	-0.033878
 533	2.6600e-01	18.7439	97.167428	0.000202	2.020807	0.684668	-0.016132
 534	2.6650e-01	18.7054	96.953674	0.000536	5.355139	1.814370	-0.042751
 535	2.6700e-01	18.6604	96.844780	0.000273	2.728090	0.924302	-0.021779
 536	2.6750e-01	18.6155	96.691522	0.000384	3.839534	1.300869	-0.030652
 537	2.6800e-01	18.5818	96.651191	0.000101	1.010404	0.342334	-0.008066
 538	2.6850e-01	18.5433	96.445503	0.000515	5.153058	1.745903	-0.041138
 539	2.6900e-01	18.4984	96.259981	0.000465	4.647857	1.574736	-0.037105
 540	2.6950e-01	18.4631	96.102690	0.000394	3.940574	1.335103	-0.031458
 541	2.7000e-01	18.4182	95.949432	0.000384	3.839534	1.300869	-0.030652
 542	2.7050e-01	18.3829	95.808274	0.000354	3.536413	1.198169	-0.028232
 543	2.7100e-01	18.3428	95.465460	0.000859	8.588431	2.909839	-0.068563
 544	2.7150e-01	18.2979	95.453361	0.000030	0.303121	0.102700	-0.002420
 545	2.7200e-01	18.2674	95.320269	0.000333	3.334332	1.129702	-0.026618
 546	2.7250e-01	18.2225	95.223475	0.000242	2.424969	0.821602	-0.019359
 547	2.7300e-01	18.1792	95.142813	0.000202	2.020807	0.684668	-0.016132
 548	2.7350e-01	18.1471	94.965356	0.000445	4.445776	1.506270	-0.035491
 549	2.7400e-01	18.1006	94.787900	0.000445	4.445776	1.506270	-0.035491
 550	2.7450e-01	18.0540	94.747569	0.000101	1.010404	0.342334	-0.008066
 551	2.7500e-01	18.0236	94.505583	0.000606	6.062422	2.054004	-0.048397
 552	2.7550e-01	17.9851	94.324094	0.000455	4.546816	1.540503	-0.036298
 553	2.7600e-01	17.9401	94.162770	0.000404	4.041614	1.369336	-0.032265
 554	2.7650e-01	17.9032	94.053876	0.000273	2.728090	0.924302	-0.021779
 555	2.7700e-01	17.8567	93.904651	0.000374	3.738493	1.266636	-0.029845
 556	2.7750e-01	17.8294	93.723162	0.000455	4.546816	1.540503	-0.036298
 557	2.7800e-01	17.7813	93.565871	0.000394	3.940574	1.335103	-0.031458
 558	2.7850e-01	17.7348	93.384382	0.000455	4.546816	1.540503	-0.036298
 559	2.7900e-01	17.7075	93.279521	0.000263	2.627049	0.890068	-0.020972
 560	2.7950e-01	17.6722	93.114164	0.000414	4.142655	1.403569	-0.033071
 561	2.8000e-01	17.6129	92.924608	0.000475	4.748897	1.608970	-0.037911
 562	2.8050e-01	17.5872	92.803615	0.000303	3.031211	1.027002	-0.024199
 563	2.8100e-01	17.5359	92.618093	0.000465	4.647857	1.574736	-0.037105
 564	2.8150e-01	17.4942	92.549530	0.000172	1.717686	0.581968	-0.013713
 565	2.8200e-01	17.4605	92.372074	0.000445	4.445776	1.506270	-0.035491
 566	2.8250e-01	17.4220	92.146220	0.000566	5.658260	1.917070	-0.045171
 567	2.8300e-01	17.3835	92.081691	0.000162	1.616646	0.547734	-0.012906
 568	2.8350e-01	17.3385	91.908267	0.000434	4.344736	1.472036	-0.034685
 569	2.8400e-01	17.3033	91.730811	0.000445	4.445776	1.506270	-0.035491
 570	2.8450e-01	17.2583	91.617884	0.000283	2.829130	0.958535	-0.022585
 571	2.8500e-01	17.2198	91.396064	0.000556	5.557220	1.882837	-0.044364
 572	2.8550e-01	17.1765	91.222641	0.000434	4.344736	1.472036	-0.034685
 573	2.8600e-01	17.1364	91.287170	-0.000162	-1.616646	-0.547734	0.012906
 574	2.8650e-01	17.0947	91.049217	0.000596	5.961381	2.019771	-0.047591
 575	2.8700e-01	17.0546	91.020986	0.000071	0.707283	0.239634	-0.005646
 576	2.8750e-01	17.0161	90.787066	0.000586	5.860341	1.985537	-0.046784
 577	2.8800e-01	16.9792	90.593477	0.000485	4.849937	1.643203	-0.038718
 578	2.8850e-01	16.9327	90.331326	0.000657	6.567624	2.225171	-0.052430
 579	2.8900e-01	16.8958	90.282929	0.000121	1.212484	0.410801	-0.009679
 580	2.8950e-01	16.8637	90.069175	0.000536	5.355139	1.814370	-0.042751
 581	2.9000e-01	16.8204	89.879619	0.000475	4.748897	1.608970	-0.037911
 582	2.9050e-01	16.7867	89.706196	0.000434	4.344736	1.472036	-0.034685
 583	2.9100e-01	16.7338	89.601335	0.000263	2.627049	0.890068	-0.020972
 584	2.9150e-01	16.6953	89.415813	0.000465	4.647857	1.574736	-0.037105
 585	2.9200e-01	16.6567	89.250456	0.000414	4.142655	1.403569	-0.033071
 586	2.9250e-01	16.6295	89.085098	0.000414	4.142655	1.403569	-0.033071
 587	2.9300e-01	16.5733	88.972172	0.000283	2.829130	0.958535	-0.022585
 588	2.9350e-01	16.5332	88.822947	0.000374	3.738493	1.266636	-0.029845
 589	2.9400e-01	16.5076	88.754384	0.000172	1.717686	0.581968	-0.013713
 590	2.9450e-01	16.4562	88.524498	0.000576	5.759301	1.951304	-0.045977
 591	2.9500e-01	16.4145	88.351075	0.000434	4.344736	1.472036	-0.034685
 592	2.9550e-01	16.3856	88.169585	0.000455	4.546816	1.540503	-0.036298
 593	2.9600e-01	16.3455	87.971963	0.000495	4.950978	1.677437	-0.039524
 594	2.9650e-01	16.2974	87.826772	0.000364	3.637453	1.232402	-0.029038
 595	2.9700e-01	16.2557	87.725944	0.000253	2.526009	0.855835	-0.020165
 596	2.9750e-01	16.2252	87.596885	0.000323	3.233292	1.095469	-0.025812
 597	2.9800e-01	16.1723	87.399263	0.000495	4.950978	1.677437	-0.039524
 598	2.9850e-01	16.1418	87.266171	0.000333	3.334332	1.129702	-0.026618
 599	2.9900e-01	16.1001	87.100814	0.000414	4.142655	1.403569	-0.033071
 600	2.9950e-01	16.0455	86.943523	0.000394	3.940574	1.335103	-0.031458
 601	3.0000e-01	16.0295	86.741868	0.000505	5.052018	1.711670	-0.040331
 602	3.0050e-01	15.9910	86.560379	0.000455	4.546816	1.540503	-0.036298
 603	3.0100e-01	15.9381	86.435353	0.000313	3.132251	1.061235	-0.025005
 604	3.0150e-01	15.8979	86.310327	0.000313	3.132251	1.061235	-0.025005
 605	3.0200e-01	15.8562	86.181267	0.000323	3.233292	1.095469	-0.025812
 606	3.0250e-01	15.8225	85.971546	0.000525	5.254099	1.780137	-0.041944
 607	3.0300e-01	15.7824	85.814256	0.000394	3.940574	1.335103	-0.031458
 608	3.0350e-01	15.7407	85.689229	0.000313	3.132251	1.061235	-0.025005
 609	3.0400e-01	15.6942	85.471442	0.000546	5.456180	1.848604	-0.043557
 610	3.0450e-01	15.6525	85.374648	0.000242	2.424969	0.821602	-0.019359
 611	3.0500e-01	15.6092	85.253655	0.000303	3.031211	1.027002	-0.024199
 612	3.0550e-01	15.5835	85.076198	0.000445	4.445776	1.506270	-0.035491
 613	3.0600e-01	15.5338	84.898742	0.000445	4.445776	1.506270	-0.035491
 614	3.0650e-01	15.5113	84.737418	0.000404	4.041614	1.369336	-0.032265
 615	3.0700e-01	15.4568	84.624491	0.000283	2.829130	0.958535	-0.022585
 616	3.0750e-01	15.4231	84.495432	0.000323	3.233292	1.095469	-0.025812
 617	3.0800e-01	15.3766	84.172784	0.000808	8.083229	2.738672	-0.064530
 618	3.0850e-01	15.3317	84.067924	0.000263	2.627049	0.890068	-0.020972
 619	3.0900e-01	15.3076	83.942898	0.000313	3.132251	1.061235	-0.025005
 620	3.0950e-01	15.2546	83.769475	0.000434	4.344736	1.472036	-0.034685
 621	3.1000e-01	15.2210	83.523456	0.000616	6.163462	2.088237	-0.049204
 622	3.1050e-01	15.1793	83.442794	0.000202	2.020807	0.684668	-0.016132
 623	3.1100e-01	15.1424	83.225006	0.000546	5.456180	1.848604	-0.043557
 624	3.1150e-01	15.1022	83.043517	0.000455	4.546816	1.540503	-0.036298
 625	3.1200e-01	15.0525	82.906391	0.000344	3.435372	1.163936	-0.027425
 626	3.1250e-01	15.0317	82.741034	0.000414	4.142655	1.403569	-0.033071
 627	3.1300e-01	14.9707	82.499048	0.000606	6.062422	2.054004	-0.048397
 628	3.1350e-01	14.9354	82.305460	0.000485	4.849937	1.643203	-0.038718
 629	3.1400e-01	14.9033	82.277228	0.000071	0.707283	0.239634	-0.005646
 630	3.1450e-01	14.8568	82.007010	0.000677	6.769704	2.293638	-0.054044
 631	3.1500e-01	14.8183	81.906183	0.000253	2.526009	0.855835	-0.020165
 632	3.1550e-01	14.7766	81.631932	0.000687	6.870745	2.327871	-0.054850
 633	3.1600e-01	14.7381	81.579502	0.000131	1.313525	0.445034	-0.010486
 634	3.1650e-01	14.6980	81.418178	0.000404	4.041614	1.369336	-0.032265
 635	3.1700e-01	14.6627	81.293152	0.000313	3.132251	1.061235	-0.025005
 636	3.1750e-01	14.6210	81.087464	0.000515	5.153058	1.745903	-0.041138
 637	3.1800e-01	14.5809	80.893875	0.000485	4.849937	1.643203	-0.038718
 638	3.1850e-01	14.5424	80.635757	0.000647	6.466583	2.190938	-0.051624
 639	3.1900e-01	14.5023	80.498632	0.000344	3.435372	1.163936	-0.027425
 640	3.1950e-01	14.4525	80.369572	0.000323	3.233292	1.095469	-0.025812
 641	3.2000e-01	14.4172	80.204215	0.000414	4.142655	1.403569	-0.033071
 642	3.2050e-01	14.3836	80.099355	0.000263	2.627049	0.890068	-0.020972
 643	3.2100e-01	14.3370	79.909799	0.000475	4.748897	1.608970	-0.037911
 644	3.2150e-01	14.3001	79.744442	0.000414	4.142655	1.403569	-0.033071
 645	3.2200e-01	14.2520	79.607317	0.000344	3.435372	1.163936	-0.027425
 646	3.2250e-01	14.2199	79.373397	0.000586	5.860341	1.985537	-0.046784
 647	3.2300e-01	14.1734	79.280636	0.000232	2.323928	0.787368	-0.018552
 648	3.2350e-01	14.1381	79.070915	0.000525	5.254099	1.780137	-0.041944
 649	3.2400e-01	14.0980	78.828929	0.000606	6.062422	2.054004	-0.048397
 650	3.2450e-01	14.0643	78.627274	0.000505	5.052018	1.711670	-0.040331
 651	3.2500e-01	14.0242	78.514347	0.000283	2.829130	0.958535	-0.022585
 652	3.2550e-01	13.9825	78.433685	0.000202	2.020807	0.684668	-0.016132
 653	3.2600e-01	13.9376	78.183633	0.000626	6.264502	2.122471	-0.050010
 654	3.2650e-01	13.8911	78.074739	0.000273	2.728090	0.924302	-0.021779
 655	3.2700e-01	13.8509	77.860985	0.000536	5.355139	1.814370	-0.042751
 656	3.2750e-01	13.8189	77.764191	0.000242	2.424969	0.821602	-0.019359
 657	3.2800e-01	13.7772	77.566569	0.000495	4.950978	1.677437	-0.039524
 658	3.2850e-01	13.7386	77.352815	0.000536	5.355139	1.814370	-0.042751
 659	3.2900e-01	13.7034	77.139060	0.000536	5.355139	1.814370	-0.042751
 660	3.2950e-01	13.6584	76.993869	0.000364	3.637453	1.232402	-0.029038
 661	3.3000e-01	13.6183	76.832545	0.000404	4.041614	1.369336	-0.032265
 662	3.3050e-01	13.5830	76.679287	0.000384	3.839534	1.300869	-0.030652
 663	3.3100e-01	13.5365	76.441334	0.000596	5.961381	2.019771	-0.047591
 664	3.3150e-01	13.5012	76.348573	0.000232	2.323928	0.787368	-0.018552
 665	3.3200e-01	13.4627	76.163051	0.000465	4.647857	1.574736	-0.037105
 666	3.3250e-01	13.4226	75.929131	0.000586	5.860341	1.985537	-0.046784
 667	3.3300e-01	13.3729	75.864601	0.000162	1.616646	0.547734	-0.012906
 668	3.3350e-01	13.3264	75.650847	0.000536	5.355139	1.814370	-0.042751
 669	3.3400e-01	13.2927	75.501622	0.000374	3.738493	1.266636	-0.029845
 670	3.3450e-01	13.2590	75.356431	0.000364	3.637453	1.232402	-0.029038
 671	3.3500e-01	13.2205	75.158809	0.000495	4.950978	1.677437	-0.039524
 672	3.3550e-01	13.1724	75.009584	0.000374	3.738493	1.266636	-0.029845
 673	3.3600e-01	13.1403	74.860360	0.000374	3.738493	1.266636	-0.029845
 674	3.3650e-01	13.0986	74.666771	0.000485	4.849937	1.643203	-0.038718
 675	3.3700e-01	13.0536	74.444951	0.000556	5.557220	1.882837	-0.044364
 676	3.3750e-01	13.0216	74.279594	0.000414	4.142655	1.403569	-0.033071
 677	3.3800e-01	12.9782	74.081972	0.000495	4.950978	1.677437	-0.039524
 678	3.3850e-01	12.9349	73.936780	0.000364	3.637453	1.232402	-0.029038
 679	3.3900e-01	12.8980	73.763357	0.000434	4.344736	1.472036	-0.034685
 680	3.3950e-01	12.8595	73.565735	0.000495	4.950978	1.677437	-0.039524
 681	3.4000e-01	12.8162	73.432643	0.000333	3.334332	1.129702	-0.026618
 682	3.4050e-01	12.7793	73.259220	0.000434	4.344736	1.472036	-0.034685
 683	3.4100e-01	12.7440	73.037399	0.000556	5.557220	1.882837	-0.044364
 684	3.4150e-01	12.6991	72.863976	0.000434	4.344736	1.472036	-0.034685
 685	3.4200e-01	12.6606	72.710718	0.000384	3.839534	1.300869	-0.030652
 686	3.4250e-01	12.6221	72.609891	0.000253	2.526009	0.855835	-0.020165
 687	3.4300e-01	12.5788	72.319508	0.000727	7.274906	2.464805	-0.058077
 688	3.4350e-01	12.5339	72.097687	0.000556	5.557220	1.882837	-0.044364
 689	3.4400e-01	12.5066	71.964595	0.000333	3.334332	1.129702	-0.026618
 690	3.4450e-01	12.4585	71.722609	0.000606	6.062422	2.054004	-0.048397
 691	3.4500e-01	12.4152	71.561285	0.000404	4.041614	1.369336	-0.032265
 692	3.4550e-01	12.3815	71.464491	0.000242	2.424969	0.821602	-0.019359
 693	3.4600e-01	12.3366	71.331398	0.000333	3.334332	1.129702	-0.026618
 694	3.4650e-01	12.2997	71.057148	0.000687	6.870745	2.327871	-0.054850
 695	3.4700e-01	12.2612	70.851460	0.000515	5.153058	1.745903	-0.041138
 696	3.4750e-01	12.2226	70.738533	0.000283	2.829130	0.958535	-0.022585
 697	3.4800e-01	12.1713	70.524779	0.000536	5.355139	1.814370	-0.042751
 698	3.4850e-01	12.1392	70.355389	0.000424	4.243695	1.437803	-0.033878
 699	3.4900e-01	12.1104	70.173899	0.000455	4.546816	1.540503	-0.036298
 700	3.4950e-01	12.0654	70.109370	0.000162	1.616646	0.547734	-0.012906
 701	3.5000e-01	12.0125	69.758490	0.000879	8.790511	2.978306	-0.070176
 702	3.5050e-01	11.9852	69.585067	0.000434	4.344736	1.472036	-0.034685
 703	3.5100e-01	11.9483	69.456008	0.000323	3.233292	1.095469	-0.025812
 704	3.5150e-01	11.8970	69.262419	0.000485	4.849937	1.643203	-0.038718
 705	3.5200e-01	11.8521	69.137393	0.000313	3.132251	1.061235	-0.025005
 706	3.5250e-01	11.8232	68.923639	0.000536	5.355139	1.814370	-0.042751
 707	3.5300e-01	11.7799	68.721984	0.000505	5.052018	1.711670	-0.040331
 708	3.5350e-01	11.7366	68.625189	0.000242	2.424969	0.821602	-0.019359
 709	3.5400e-01	11.6997	68.379170	0.000616	6.163462	2.088237	-0.049204
 710	3.5450e-01	11.6628	68.201714	0.000445	4.445776	1.506270	-0.035491
 711	3.5500e-01	11.6162	68.016191	0.000465	4.647857	1.574736	-0.037105
 712	3.5550e-01	11.5794	67.846801	0.000424	4.243695	1.437803	-0.033878
 713	3.5600e-01	11.5328	67.685477	0.000404	4.041614	1.369336	-0.032265
 714	3.5650e-01	11.4943	67.532220	0.000384	3.839534	1.300869	-0.030652
 715	3.5700e-01	11.4638	67.330565	0.000505	5.052018	1.711670	-0.040331
 716	3.5750e-01	11.4157	67.048248	0.000707	7.072825	2.396338	-0.056463
 717	3.5800e-01	11.3756	66.858692	0.000475	4.748897	1.608970	-0.037911
 718	3.5850e-01	11.3451	66.786096	0.000182	1.818727	0.616201	-0.014519
 719	3.5900e-01	11.3002	66.419084	0.000919	9.194673	3.115240	-0.073402
 720	3.5950e-01	11.2569	66.290025	0.000323	3.233292	1.095469	-0.025812
 721	3.6000e-01	11.2184	66.120635	0.000424	4.243695	1.437803	-0.033878
 722	3.6050e-01	11.1831	65.999642	0.000303	3.031211	1.027002	-0.024199
 723	3.6100e-01	11.1318	65.806053	0.000485	4.849937	1.643203	-0.038718
 724	3.6150e-01	11.0965	65.737491	0.000172	1.717686	0.581968	-0.013713
 725	3.6200e-01	11.0564	65.499538	0.000596	5.961381	2.019771	-0.047591
 726	3.6250e-01	11.0243	65.221254	0.000697	6.971785	2.362105	-0.055657
 727	3.6300e-01	10.9713	64.959103	0.000657	6.567624	2.225171	-0.052430
 728	3.6350e-01	10.9409	64.850209	0.000273	2.728090	0.924302	-0.021779
 729	3.6400e-01	10.9024	64.644521	0.000515	5.153058	1.745903	-0.041138
 730	3.6450e-01	10.8558	64.515462	0.000323	3.233292	1.095469	-0.025812
 731	3.6500e-01	10.8173	64.305741	0.000525	5.254099	1.780137	-0.041944
 732	3.6550e-01	10.7788	64.067788	0.000596	5.961381	2.019771	-0.047591
 733	3.6600e-01	10.7355	63.866133	0.000505	5.052018	1.711670	-0.040331
 734	3.6650e-01	10.6986	63.599948	0.000667	6.668664	2.259404	-0.053237
 735	3.6700e-01	10.6505	63.470889	0.000323	3.233292	1.095469	-0.025812
 736	3.6750e-01	10.6313	63.325698	0.000364	3.637453	1.232402	-0.029038
 737	3.6800e-01	10.5799	63.164374	0.000404	4.041614	1.369336	-0.032265
 738	3.6850e-01	10.5430	62.845759	0.000798	7.982189	2.704439	-0.063723
 739	3.6900e-01	10.4965	62.752998	0.000232	2.323928	0.787368	-0.018552
 740	3.6950e-01	10.4628	62.607806	0.000364	3.637453	1.232402	-0.029038
 741	3.7000e-01	10.4131	62.438416	0.000424	4.243695	1.437803	-0.033878
 742	3.7050e-01	10.3842	62.208529	0.000576	5.759301	1.951304	-0.045977
 743	3.7100e-01	10.3377	62.095603	0.000283	2.829130	0.958535	-0.022585
 744	3.7150e-01	10.3024	61.797153	0.000748	7.476987	2.533272	-0.059690
 745	3.7200e-01	10.2607	61.631796	0.000414	4.142655	1.403569	-0.033071
 746	3.7250e-01	10.2206	61.401910	0.000576	5.759301	1.951304	-0.045977
 747	3.7300e-01	10.1740	61.256718	0.000364	3.637453	1.232402	-0.029038
 748	3.7350e-01	10.1388	60.998600	0.000647	6.466583	2.190938	-0.051624
 749	3.7400e-01	10.0986	60.756614	0.000606	6.062422	2.054004	-0.048397
 750	3.7450e-01	10.0569	60.587224	0.000424	4.243695	1.437803	-0.033878
 751	3.7500e-01	10.0152	60.462198	0.000313	3.132251	1.061235	-0.025005
 752	3.7550e-01	9.9847	60.321039	0.000354	3.536413	1.198169	-0.028232
 753	3.7600e-01	9.9414	60.038722	0.000707	7.072825	2.396338	-0.056463
 754	3.7650e-01	9.8933	59.820935	0.000546	5.456180	1.848604	-0.043557
 755	3.7700e-01	9.8628	59.655578	0.000414	4.142655	1.403569	-0.033071
 756	3.7750e-01	9.8195	59.574916	0.000202	2.020807	0.684668	-0.016132
 757	3.7800e-01	9.7794	59.381327	0.000485	4.849937	1.643203	-0.038718
 758	3.7850e-01	9.7345	59.131275	0.000626	6.264502	2.122471	-0.050010
 759	3.7900e-01	9.6928	58.941720	0.000475	4.748897	1.608970	-0.037911
 760	3.7950e-01	9.6735	58.913488	0.000071	0.707283	0.239634	-0.005646
 761	3.8000e-01	9.6222	58.490012	0.001061	10.609238	3.594507	-0.084695
 762	3.8050e-01	9.5789	58.284324	0.000515	5.153058	1.745903	-0.041138
 763	3.8100e-01	9.5404	58.086703	0.000495	4.950978	1.677437	-0.039524
 764	3.8150e-01	9.5067	57.885048	0.000505	5.052018	1.711670	-0.040331
 765	3.8200e-01	9.4650	57.727757	0.000394	3.940574	1.335103	-0.031458
 766	3.8250e-01	9.4249	57.505936	0.000556	5.557220	1.882837	-0.044364
 767	3.8300e-01	9.3783	57.259917	0.000616	6.163462	2.088237	-0.049204
 768	3.8350e-01	9.3350	57.130858	0.000323	3.233292	1.095469	-0.025812
 769	3.8400e-01	9.2997	56.989700	0.000354	3.536413	1.198169	-0.028232
 770	3.8450e-01	9.2644	56.771912	0.000546	5.456180	1.848604	-0.043557
 771	3.8500e-01	9.2211	56.533960	0.000596	5.961381	2.019771	-0.047591
 772	3.8550e-01	9.1778	56.336338	0.000495	4.950978	1.677437	-0.039524
 773	3.8600e-01	9.1377	56.255676	0.000202	2.020807	0.684668	-0.016132
 774	3.8650e-01	9.1024	55.981425	0.000687	6.870745	2.327871	-0.054850
 775	3.8700e-01	9.0575	55.795903	0.000465	4.647857	1.574736	-0.037105
 776	3.8750e-01	9.0190	55.658777	0.000344	3.435372	1.163936	-0.027425
 777	3.8800e-01	8.9789	55.412758	0.000616	6.163462	2.088237	-0.049204
 778	3.8850e-01	8.9420	55.239335	0.000434	4.344736	1.472036	-0.034685
 779	3.8900e-01	8.8955	55.013481	0.000566	5.658260	1.917070	-0.045171
 780	3.8950e-01	8.8650	54.723098	0.000727	7.274906	2.464805	-0.058077
 781	3.9000e-01	8.8249	54.481112	0.000606	6.062422	2.054004	-0.048397
 782	3.9050e-01	8.7719	54.279458	0.000505	5.052018	1.711670	-0.040331
 783	3.9100e-01	8.7383	54.202829	0.000192	1.919767	0.650435	-0.015326
 784	3.9150e-01	8.7046	54.001174	0.000505	5.052018	1.711670	-0.040331
 785	3.9200e-01	8.6613	53.787420	0.000536	5.355139	1.814370	-0.042751
 786	3.9250e-01	8.6099	53.581731	0.000515	5.153058	1.745903	-0.041138
 787	3.9300e-01	8.5730	53.404275	0.000445	4.445776	1.506270	-0.035491
 788	3.9350e-01	8.5393	53.186488	0.000546	5.456180	1.848604	-0.043557
 789	3.9400e-01	8.4992	52.972734	0.000536	5.355139	1.814370	-0.042751
 790	3.9450e-01	8.4607	52.718648	0.000637	6.365543	2.156704	-0.050817
 791	3.9500e-01	8.4222	52.391967	0.000818	8.184269	2.772906	-0.065336
 792	3.9550e-01	8.3789	52.279041	0.000283	2.829130	0.958535	-0.022585
 793	3.9600e-01	8.3324	52.145948	0.000333	3.334332	1.129702	-0.026618
 794	3.9650e-01	8.3099	51.912029	0.000586	5.860341	1.985537	-0.046784
 795	3.9700e-01	8.2618	51.738605	0.000434	4.344736	1.472036	-0.034685
 796	3.9750e-01	8.2201	51.520818	0.000546	5.456180	1.848604	-0.043557
 797	3.9800e-01	8.1752	51.270766	0.000626	6.264502	2.122471	-0.050010
 798	3.9850e-01	8.1415	51.028780	0.000606	6.062422	2.054004	-0.048397
 799	3.9900e-01	8.0950	50.867456	0.000404	4.041614	1.369336	-0.032265
 800	3.9950e-01	8.0516	50.746463	0.000303	3.031211	1.027002	-0.024199
 801	4.0000e-01	8.0067	50.452047	0.000738	7.375946	2.499038	-0.058883
 802	4.0050e-01	7.9778	50.294756	0.000394	3.940574	1.335103	-0.031458
 803	4.0100e-01	7.9393	50.109234	0.000465	4.647857	1.574736	-0.037105
 804	4.0150e-01	7.8976	49.883380	0.000566	5.658260	1.917070	-0.045171
 805	4.0200e-01	7.8591	49.625262	0.000647	6.466583	2.190938	-0.051624
 806	4.0250e-01	7.8174	49.431673	0.000485	4.849937	1.643203	-0.038718
 807	4.0300e-01	7.7821	49.161455	0.000677	6.769704	2.293638	-0.054044
 808	4.0350e-01	7.7420	49.016264	0.000364	3.637453	1.232402	-0.029038
 809	4.0400e-01	7.6971	48.867039	0.000374	3.738493	1.266636	-0.029845
 810	4.0450e-01	7.6586	48.681517	0.000465	4.647857	1.574736	-0.037105
 811	4.0500e-01	7.6185	48.423398	0.000647	6.466583	2.190938	-0.051624
 812	4.0550e-01	7.5880	48.185446	0.000596	5.961381	2.019771	-0.047591
 813	4.0600e-01	7.5399	48.056386	0.000323	3.233292	1.095469	-0.025812
 814	4.0650e-01	7.5046	47.854731	0.000505	5.052018	1.711670	-0.040331
 815	4.0700e-01	7.4565	47.612746	0.000606	6.062422	2.054004	-0.048397
 816	4.0750e-01	7.4196	47.374793	0.000596	5.961381	2.019771	-0.047591
 817	4.0800e-01	7.3747	47.189270	0.000465	4.647857	1.574736	-0.037105
 818	4.0850e-01	7.3394	46.975516	0.000536	5.355139	1.814370	-0.042751
 819	4.0900e-01	7.2961	46.765795	0.000525	5.254099	1.780137	-0.041944
 820	4.0950e-01	7.2575	46.572206	0.000485	4.849937	1.643203	-0.038718
 821	4.1000e-01	7.2174	46.374584	0.000495	4.950978	1.677437	-0.039524
 822	4.1050e-01	7.1805	46.076135	0.000748	7.476987	2.533272	-0.059690
 823	4.1100e-01	7.1372	45.850281	0.000566	5.658260	1.917070	-0.045171
 824	4.1150e-01	7.0971	45.684924	0.000414	4.142655	1.403569	-0.033071
 825	4.1200e-01	7.0570	45.434872	0.000626	6.264502	2.122471	-0.050010
 826	4.1250e-01	7.0217	45.313879	0.000303	3.031211	1.027002	-0.024199
 827	4.1300e-01	6.9752	45.120291	0.000485	4.849937	1.643203	-0.038718
 828	4.1350e-01	6.9431	44.846040	0.000687	6.870745	2.327871	-0.054850
 829	4.1400e-01	6.8950	44.680683	0.000414	4.142655	1.403569	-0.033071
 830	4.1450e-01	6.8581	44.446763	0.000586	5.860341	1.985537	-0.046784
 831	4.1500e-01	6.8180	44.273340	0.000434	4.344736	1.472036	-0.034685
 832	4.1550e-01	6.7779	44.015222	0.000647	6.466583	2.190938	-0.051624
 833	4.1600e-01	6.7346	43.853898	0.000404	4.041614	1.369336	-0.032265
 834	4.1650e-01	6.6993	43.531250	0.000808	8.083229	2.738672	-0.064530
 835	4.1700e-01	6.6576	43.394124	0.000344	3.435372	1.163936	-0.027425
 836	4.1750e-01	6.6223	43.196503	0.000495	4.950978	1.677437	-0.039524
 837	4.1800e-01	6.5725	42.914186	0.000707	7.072825	2.396338	-0.056463
 838	4.1850e-01	6.5485	42.736729	0.000445	4.445776	1.506270	-0.035491
 839	4.1900e-01	6.4843	42.527008	0.000525	5.254099	1.780137	-0.041944
 840	4.1950e-01	6.4635	42.256791	0.000677	6.769704	2.293638	-0.054044
 841	4.2000e-01	6.4169	41.994639	0.000657	6.567624	2.225171	-0.052430
 842	4.2050e-01	6.3768	41.825249	0.000424	4.243695	1.437803	-0.033878
 843	4.2100e-01	6.3399	41.667958	0.000394	3.940574	1.335103	-0.031458
 844	4.2150e-01	6.3030	41.409840	0.000647	6.466583	2.190938	-0.051624
 845	4.2200e-01	6.2581	41.188019	0.000556	5.557220	1.882837	-0.044364
 846	4.2250e-01	6.2244	40.994431	0.000485	4.849937	1.643203	-0.038718
 847	4.2300e-01	6.1843	40.720180	0.000687	6.870745	2.327871	-0.054850
 848	4.2350e-01	6.1394	40.510459	0.000525	5.254099	1.780137	-0.041944
 849	4.2400e-01	6.0961	40.308804	0.000505	5.052018	1.711670	-0.040331
 850	4.2450e-01	6.0704	40.078917	0.000576	5.759301	1.951304	-0.045977
 851	4.2500e-01	6.0223	39.873229	0.000515	5.153058	1.745903	-0.041138
 852	4.2550e-01	5.9790	39.647376	0.000566	5.658260	1.917070	-0.045171
 853	4.2600e-01	5.9405	39.482019	0.000414	4.142655	1.403569	-0.033071
 854	4.2650e-01	5.9020	39.304562	0.000445	4.445776	1.506270	-0.035491
 855	4.2700e-01	5.8619	39.086775	0.000546	5.456180	1.848604	-0.043557
 856	4.2750e-01	5.8234	38.796392	0.000727	7.274906	2.464805	-0.058077
 857	4.2800e-01	5.7801	38.562472	0.000586	5.860341	1.985537	-0.046784
 858	4.2850e-01	5.7351	38.284188	0.000697	6.971785	2.362105	-0.055657
 859	4.2900e-01	5.6998	38.066401	0.000546	5.456180	1.848604	-0.043557
 860	4.2950e-01	5.6597	37.909110	0.000394	3.940574	1.335103	-0.031458
 861	4.3000e-01	5.6164	37.707455	0.000505	5.052018	1.711670	-0.040331
 862	4.3050e-01	5.5891	37.336410	0.000930	9.295713	3.149473	-0.074209
 863	4.3100e-01	5.5378	37.372708	-0.000091	-0.909363	-0.308101	0.007260
 864	4.3150e-01	5.4929	36.904869	0.001172	11.720682	3.971075	-0.093568
 865	4.3200e-01	5.4576	36.779843	0.000313	3.132251	1.061235	-0.025005
 866	4.3250e-01	5.4079	36.541890	0.000596	5.961381	2.019771	-0.047591
 867	4.3300e-01	5.3822	36.332169	0.000525	5.254099	1.780137	-0.041944
 868	4.3350e-01	5.3373	36.098249	0.000586	5.860341	1.985537	-0.046784
 869	4.3400e-01	5.2908	35.888528	0.000525	5.254099	1.780137	-0.041944
 870	4.3450e-01	5.2667	35.618310	0.000677	6.769704	2.293638	-0.054044
 871	4.3500e-01	5.2250	35.420688	0.000495	4.950978	1.677437	-0.039524
 872	4.3550e-01	5.1833	35.186769	0.000586	5.860341	1.985537	-0.046784
 873	4.3600e-01	5.1384	34.936717	0.000626	6.264502	2.122471	-0.050010
 874	4.3650e-01	5.1015	34.694731	0.000606	6.062422	2.054004	-0.048397
 875	4.3700e-01	5.0662	34.529374	0.000414	4.142655	1.403569	-0.033071
 876	4.3750e-01	5.0100	34.347884	0.000455	4.546816	1.540503	-0.036298
 877	4.3800e-01	4.9763	34.033303	0.000788	7.881148	2.670205	-0.062916
 878	4.3850e-01	4.9410	33.823581	0.000525	5.254099	1.780137	-0.041944
 879	4.3900e-01	4.9041	33.581596	0.000606	6.062422	2.054004	-0.048397
 880	4.3950e-01	4.8608	33.226683	0.000889	8.891552	3.012539	-0.070983
 881	4.4000e-01	4.8255	33.061326	0.000414	4.142655	1.403569	-0.033071
 882	4.4050e-01	4.7806	32.875803	0.000465	4.647857	1.574736	-0.037105
 883	4.4100e-01	4.7373	32.613652	0.000657	6.567624	2.225171	-0.052430
 884	4.4150e-01	4.6860	32.420063	0.000485	4.849937	1.643203	-0.038718
 885	4.4200e-01	4.6571	32.206309	0.000536	5.355139	1.814370	-0.042751
 886	4.4250e-01	4.6170	32.024819	0.000455	4.546816	1.540503	-0.036298
 887	4.4300e-01	4.5753	31.690072	0.000839	8.386350	2.841372	-0.066949
 888	4.4350e-01	4.5384	31.480351	0.000525	5.254099	1.780137	-0.041944
 889	4.4400e-01	4.5063	31.306928	0.000434	4.344736	1.472036	-0.034685
 890	4.4450e-01	4.4550	31.040743	0.000667	6.668664	2.259404	-0.053237
 891	4.4500e-01	4.4132	30.810857	0.000576	5.759301	1.951304	-0.045977
 892	4.4550e-01	4.3780	30.572904	0.000596	5.961381	2.019771	-0.047591
 893	4.4600e-01	4.3394	30.306719	0.000667	6.668664	2.259404	-0.053237
 894	4.4650e-01	4.2961	30.105065	0.000505	5.052018	1.711670	-0.040331
 895	4.4700e-01	4.2448	29.931641	0.000434	4.344736	1.472036	-0.034685
 896	4.4750e-01	4.2111	29.738053	0.000485	4.849937	1.643203	-0.038718
 897	4.4800e-01	4.1774	29.443636	0.000738	7.375946	2.499038	-0.058883
 898	4.4850e-01	4.1437	29.246015	0.000495	4.950978	1.677437	-0.039524
 899	4.4900e-01	4.0972	28.955631	0.000727	7.274906	2.464805	-0.058077
 900	4.4950e-01	4.0443	28.685414	0.000677	6.769704	2.293638	-0.054044
 901	4.5000e-01	4.0138	28.463593	0.000556	5.557220	1.882837	-0.044364
 902	4.5050e-01	3.9737	28.213541	0.000626	6.264502	2.122471	-0.050010
 903	4.5100e-01	3.9336	27.979622	0.000586	5.860341	1.985537	-0.046784
 904	4.5150e-01	3.9127	27.822331	0.000394	3.940574	1.335103	-0.031458
 905	4.5200e-01	3.8550	27.471451	0.000879	8.790511	2.978306	-0.070176
 906	4.5250e-01	3.8133	27.080241	0.000980	9.800915	3.320640	-0.078242
 907	4.5300e-01	3.7764	26.979413	0.000253	2.526009	0.855835	-0.020165
 908	4.5350e-01	3.7427	26.777758	0.000505	5.052018	1.711670	-0.040331
 909	4.5400e-01	3.7010	26.467210	0.000778	7.780108	2.635972	-0.062110
 910	4.5450e-01	3.6560	26.309919	0.000394	3.940574	1.335103	-0.031458
 911	4.5500e-01	3.6191	26.043734	0.000667	6.668664	2.259404	-0.053237
 912	4.5550e-01	3.5742	25.854179	0.000475	4.748897	1.608970	-0.037911
 913	4.5600e-01	3.5373	25.555729	0.000748	7.476987	2.533272	-0.059690
 914	4.5650e-01	3.4876	25.313743	0.000606	6.062422	2.054004	-0.048397
 915	4.5700e-01	3.4539	25.067724	0.000616	6.163462	2.088237	-0.049204
 916	4.5750e-01	3.4154	24.898334	0.000424	4.243695	1.437803	-0.033878
 917	4.5800e-01	3.3753	24.611984	0.000717	7.173866	2.430571	-0.057270
 918	4.5850e-01	3.3432	24.317568	0.000738	7.375946	2.499038	-0.058883
 919	4.5900e-01	3.3015	24.160277	0.000394	3.940574	1.335103	-0.031458
 920	4.5950e-01	3.2614	23.926357	0.000586	5.860341	1.985537	-0.046784
 921	4.6000e-01	3.2181	23.656140	0.000677	6.769704	2.293638	-0.054044
 922	4.6050e-01	3.1812	23.410121	0.000616	6.163462	2.088237	-0.049204
 923	4.6100e-01	3.1363	23.123771	0.000717	7.173866	2.430571	-0.057270
 924	4.6150e-01	3.0962	22.910017	0.000536	5.355139	1.814370	-0.042751
 925	4.6200e-01	3.0545	22.639799	0.000677	6.769704	2.293638	-0.054044
 926	4.6250e-01	3.0144	22.442177	0.000495	4.950978	1.677437	-0.039524
 927	4.6300e-01	2.9791	22.131629	0.000778	7.780108	2.635972	-0.062110
 928	4.6350e-01	2.9357	21.825113	0.000768	7.679068	2.601738	-0.061303
 929	4.6400e-01	2.8924	21.643624	0.000455	4.546816	1.540503	-0.036298
 930	4.6450e-01	2.8603	21.437936	0.000515	5.153058	1.745903	-0.041138
 931	4.6500e-01	2.8218	21.143519	0.000738	7.375946	2.499038	-0.058883
 932	4.6550e-01	2.7753	20.861203	0.000707	7.072825	2.396338	-0.056463
 933	4.6600e-01	2.7400	20.816838	0.000111	1.111444	0.376567	-0.008873
 934	4.6650e-01	2.6999	20.413529	0.001010	10.104036	3.423340	-0.080662
 935	4.6700e-01	2.6614	20.098947	0.000788	7.881148	2.670205	-0.062916
 936	4.6750e-01	2.6245	19.981987	0.000293	2.930170	0.992769	-0.023392
 937	4.6800e-01	2.5748	19.756134	0.000566	5.658260	1.917070	-0.045171
 938	4.6850e-01	2.5331	19.481883	0.000687	6.870745	2.327871	-0.054850
 939	4.6900e-01	2.4930	19.155202	0.000818	8.184269	2.772906	-0.065336
 940	4.6950e-01	2.4561	18.981779	0.000434	4.344736	1.472036	-0.034685
 941	4.7000e-01	2.4176	18.816422	0.000414	4.142655	1.403569	-0.033071
 942	4.7050e-01	2.3855	18.481674	0.000839	8.386350	2.841372	-0.066949
 943	4.7100e-01	2.3342	18.231622	0.000626	6.264502	2.122471	-0.050010
 944	4.7150e-01	2.2941	17.969471	0.000657	6.567624	2.225171	-0.052430
 945	4.7200e-01	2.2539	17.707319	0.000657	6.567624	2.225171	-0.052430
 946	4.7250e-01	2.2219	17.400804	0.000768	7.679068	2.601738	-0.061303
 947	4.7300e-01	2.1721	17.142686	0.000647	6.466583	2.190938	-0.051624
 948	4.7350e-01	2.1417	16.916832	0.000566	5.658260	1.917070	-0.045171
 949	4.7400e-01	2.1015	16.682912	0.000586	5.860341	1.985537	-0.046784
 950	4.7450e-01	2.0630	16.340099	0.000859	8.588431	2.909839	-0.068563
 951	4.7500e-01	2.0117	16.138444	0.000505	5.052018	1.711670	-0.040331
 952	4.7550e-01	1.9764	15.900491	0.000596	5.961381	2.019771	-0.047591
 953	4.7600e-01	1.9443	15.719002	0.000455	4.546816	1.540503	-0.036298
 954	4.7650e-01	1.9026	15.452817	0.000667	6.668664	2.259404	-0.053237
 955	4.7700e-01	1.8577	15.198732	0.000637	6.365543	2.156704	-0.050817
 956	4.7750e-01	1.8128	14.980945	0.000546	5.456180	1.848604	-0.043557
 957	4.7800e-01	1.7598	14.690562	0.000727	7.274906	2.464805	-0.058077
 958	4.7850e-01	1.7422	14.460675	0.000576	5.759301	1.951304	-0.045977
 959	4.7900e-01	1.7053	14.202557	0.000647	6.466583	2.190938	-0.051624
 960	4.7950e-01	1.6572	13.896041	0.000768	7.679068	2.601738	-0.061303
 961	4.8000e-01	1.6155	13.597592	0.000748	7.476987	2.533272	-0.059690
 962	4.8050e-01	1.5754	13.383838	0.000536	5.355139	1.814370	-0.042751
 963	4.8100e-01	1.5320	13.174117	0.000525	5.254099	1.780137	-0.041944
 964	4.8150e-01	1.4967	12.915998	0.000647	6.466583	2.190938	-0.051624
 965	4.8200e-01	1.4663	12.569152	0.000869	8.689471	2.944073	-0.069369
 966	4.8250e-01	1.4230	12.355398	0.000536	5.355139	1.814370	-0.042751
 967	4.8300e-01	1.3861	12.093246	0.000657	6.567624	2.225171	-0.052430
 968	4.8350e-01	1.3427	11.855293	0.000596	5.961381	2.019771	-0.047591
 969	4.8400e-01	1.2898	11.556844	0.000748	7.476987	2.533272	-0.059690
 970	4.8450e-01	1.2529	11.294693	0.000657	6.567624	2.225171	-0.052430
 971	4.8500e-01	1.2224	11.020442	0.000687	6.870745	2.327871	-0.054850
 972	4.8550e-01	1.1807	10.762324	0.000647	6.466583	2.190938	-0.051624
 973	4.8600e-01	1.1374	10.548569	0.000536	5.355139	1.814370	-0.042751
 974	4.8650e-01	1.0973	10.213822	0.000839	8.386350	2.841372	-0.066949
 975	4.8700e-01	1.0604	9.943605	0.000677	6.769704	2.293638	-0.054044
 976	4.8750e-01	1.0251	9.681453	0.000657	6.567624	2.225171	-0.052430
 977	4.8800e-01	0.9706	9.475765	0.000515	5.153058	1.745903	-0.041138
 978	4.8850e-01	0.9385	9.189415	0.000717	7.173866	2.430571	-0.057270
 979	4.8900e-01	0.8968	8.951462	0.000596	5.961381	2.019771	-0.047591
 980	4.8950e-01	0.8518	8.725609	0.000566	5.658260	1.917070	-0.045171
 981	4.9000e-01	0.8214	8.451358	0.000687	6.870745	2.327871	-0.054850
 982	4.9050e-01	0.7781	8.160975	0.000727	7.274906	2.464805	-0.058077
 983	4.9100e-01	0.7315	7.842360	0.000798	7.982189	2.704439	-0.063723
 984	4.9150e-01	0.6914	7.531812	0.000778	7.780108	2.635972	-0.062110
 985	4.9200e-01	0.6513	7.309991	0.000556	5.557220	1.882837	-0.044364
 986	4.9250e-01	0.6144	7.084138	0.000566	5.658260	1.917070	-0.045171
 987	4.9300e-01	0.5695	6.821986	0.000657	6.567624	2.225171	-0.052430
 988	4.9350e-01	0.5214	6.640497	0.000455	4.546816	1.540503	-0.036298
 989	4.9400e-01	0.4877	6.325915	0.000788	7.881148	2.670205	-0.062916
 990	4.9450e-01	0.4572	6.071830	0.000637	6.365543	2.156704	-0.050817
 991	4.9500e-01	0.4107	5.809679	0.000657	6.567624	2.225171	-0.052430
 992	4.9550e-01	0.3706	5.551560	0.000647	6.466583	2.190938	-0.051624
 993	4.9600e-01	0.3449	5.245045	0.000768	7.679068	2.601738	-0.061303
 994	4.9650e-01	0.3000	4.902231	0.000859	8.588431	2.909839	-0.068563
 995	4.9700e-01	0.2631	4.676378	0.000566	5.658260	1.917070	-0.045171
 996	4.9750e-01	0.2150	4.309366	0.000919	9.194673	3.115240	-0.073402
 997	4.9800e-01	0.1717	4.087545	0.000556	5.557220	1.882837	-0.044364
 998	4.9850e-01	0.1315	3.861692	0.000566	5.658260	1.917070	-0.045171
 999	4.9900e-01	0.0930	3.522912	0.000849	8.487390	2.875606	-0.067756
1000	4.9950e-01	0.0610	3.288992	0.000586	5.860341	1.985537	-0.046784
1001	5.0000e-01	0.0321	2.921980	0.000919	9.194673	3.115240	-0.073402
1002	5.0050e-01	-0.0128	2.752590	0.000424	4.243695	1.437803	-0.033878
1003	5.0100e-01	-0.0561	2.567067	0.000465	4.647857	1.574736	-0.037105
1004	5.0150e-01	-0.1011	2.127460	0.001101	11.013399	3.731441	-0.087922
1005	5.0200e-01	-0.1364	2.075029	0.000131	1.313525	0.445034	-0.010486
1006	5.0250e-01	-0.1797	1.901606	0.000434	4.344736	1.472036	-0.034685
1007	5.0300e-01	-0.2166	1.494263	0.001021	10.205077	3.457574	-0.081469
1008	5.0350e-01	-0.2503	1.228079	0.000667	6.668664	2.259404	-0.053237
1009	5.0400e-01	-0.2936	0.913497	0.000788	7.881148	2.670205	-0.062916
1010	5.0450e-01	-0.3369	0.711842	0.000505	5.052018	1.711670	-0.040331
1011	5.0500e-01	-0.3754	0.441624	0.000677	6.769704	2.293638	-0.054044
1012	5.0550e-01	-0.4107	0.123010	0.000798	7.982189	2.704439	-0.063723
1013	5.0600e-01	-0.4540	-0.155274	0.000697	6.971785	2.362105	-0.055657
1014	5.0650e-01	-0.5021	-0.348863	0.000485	4.849937	1.643203	-0.038718
1015	5.0700e-01	-0.5374	-0.651345	0.000758	7.578027	2.567505	-0.060496
1016	5.0750e-01	-0.5775	-0.933662	0.000707	7.072825	2.396338	-0.056463
1017	5.0800e-01	-0.6192	-1.260343	0.000818	8.184269	2.772906	-0.065336
1018	5.0850e-01	-0.6642	-1.397469	0.000344	3.435372	1.163936	-0.027425
1019	5.0900e-01	-0.7075	-1.691885	0.000738	7.375946	2.499038	-0.058883
1020	5.0950e-01	-0.7412	-1.970169	0.000697	6.971785	2.362105	-0.055657
1021	5.1000e-01	-0.7748	-2.292817	0.000808	8.083229	2.738672	-0.064530
1022	5.1050e-01	-0.8117	-2.567067	0.000687	6.870745	2.327871	-0.054850
1023	5.1100e-01	-0.8599	-2.869550	0.000758	7.578027	2.567505	-0.060496
1024	5.1150e-01	-0.8952	-3.159933	0.000727	7.274906	2.464805	-0.058077
1025	5.1200e-01	-0.9369	-3.426117	0.000667	6.668664	2.259404	-0.053237
1026	5.1250e-01	-0.9754	-3.688269	0.000657	6.567624	2.225171	-0.052430
1027	5.1300e-01	-1.0251	-3.986718	0.000748	7.476987	2.533272	-0.059690
1028	5.1350e-01	-1.0524	-4.212571	0.000566	5.658260	1.917070	-0.045171
1029	5.1400e-01	-1.0957	-4.498921	0.000717	7.173866	2.430571	-0.057270
1030	5.1450e-01	-1.1342	-4.773172	0.000687	6.870745	2.327871	-0.054850
1031	5.1500e-01	-1.1759	-4.986926	0.000536	5.355139	1.814370	-0.042751
1032	5.1550e-01	-1.2208	-5.285376	0.000748	7.476987	2.533272	-0.059690
1033	5.1600e-01	-1.2513	-5.571726	0.000717	7.173866	2.430571	-0.057270
1034	5.1650e-01	-1.2994	-5.813712	0.000606	6.062422	2.054004	-0.048397
1035	5.1700e-01	-1.3379	-6.083929	0.000677	6.769704	2.293638	-0.054044
1036	5.1750e-01	-1.3780	-6.398511	0.000788	7.881148	2.670205	-0.062916
1037	5.1800e-01	-1.4214	-6.648563	0.000626	6.264502	2.122471	-0.050010
1038	5.1850e-01	-1.4550	-6.846185	0.000495	4.950978	1.677437	-0.039524
1039	5.1900e-01	-1.4967	-7.100270	0.000637	6.365543	2.156704	-0.050817
1040	5.1950e-01	-1.5417	-7.443083	0.000859	8.588431	2.909839	-0.068563
1041	5.2000e-01	-1.5705	-7.677003	0.000586	5.860341	1.985537	-0.046784
1042	5.2050e-01	-1.6155	-8.015783	0.000849	8.487390	2.875606	-0.067756
1043	5.2100e-01	-1.6620	-8.245670	0.000576	5.759301	1.951304	-0.045977
1044	5.2150e-01	-1.6973	-8.527987	0.000707	7.072825	2.396338	-0.056463
1045	5.2200e-01	-1.7326	-8.830469	0.000758	7.578027	2.567505	-0.060496
1046	5.2250e-01	-1.7791	-9.060356	0.000576	5.759301	1.951304	-0.045977
1047	5.2300e-01	-1.8192	-9.330574	0.000677	6.769704	2.293638	-0.054044
1048	5.2350e-01	-1.8577	-9.580626	0.000626	6.264502	2.122471	-0.050010
1049	5.2400e-01	-1.8914	-9.883108	0.000758	7.578027	2.567505	-0.060496
1050	5.2450e-01	-1.9331	-10.149293	0.000667	6.668664	2.259404	-0.053237
1051	5.2500e-01	-1.9716	-10.391279	0.000606	6.062422	2.054004	-0.048397
1052	5.2550e-01	-2.0101	-10.653430	0.000657	6.567624	2.225171	-0.052430
1053	5.2600e-01	-2.0534	-10.943813	0.000727	7.274906	2.464805	-0.058077
1054	5.2650e-01	-2.0919	-11.222097	0.000697	6.971785	2.362105	-0.055657
1055	5.2700e-01	-2.1449	-11.464083	0.000606	6.062422	2.054004	-0.048397
1056	5.2750e-01	-2.1769	-11.677837	0.000536	5.355139	1.814370	-0.042751
1057	5.2800e-01	-2.2170	-11.984352	0.000768	7.679068	2.601738	-0.061303
1058	5.2850e-01	-2.2652	-12.242471	0.000647	6.466583	2.190938	-0.051624
1059	5.2900e-01	-2.3021	-12.411861	0.000424	4.243695	1.437803	-0.033878
1060	5.2950e-01	-2.3310	-12.742575	0.000829	8.285310	2.807139	-0.066143
1061	5.3000e-01	-2.3759	-13.032958	0.000727	7.274906	2.464805	-0.058077
1062	5.3050e-01	-2.4240	-13.335441	0.000758	7.578027	2.567505	-0.060496
1063	5.3100e-01	-2.4593	-13.569360	0.000586	5.860341	1.985537	-0.046784
1064	5.3150e-01	-2.4994	-13.795214	0.000566	5.658260	1.917070	-0.045171
1065	5.3200e-01	-2.5379	-14.073498	0.000697	6.971785	2.362105	-0.055657
1066	5.3250e-01	-2.5748	-14.408245	0.000839	8.386350	2.841372	-0.066949
1067	5.3300e-01	-2.6229	-14.650231	0.000606	6.062422	2.054004	-0.048397
1068	5.3350e-01	-2.6598	-14.859952	0.000525	5.254099	1.780137	-0.041944
1069	5.3400e-01	-2.7015	-15.146302	0.000717	7.173866	2.430571	-0.057270
1070	5.3450e-01	-2.7432	-15.343924	0.000495	4.950978	1.677437	-0.039524
1071	5.3500e-01	-2.7817	-15.610108	0.000667	6.668664	2.259404	-0.053237
1072	5.3550e-01	-2.8122	-15.876293	0.000667	6.668664	2.259404	-0.053237
1073	5.3600e-01	-2.8571	-16.186841	0.000778	7.780108	2.635972	-0.062110
1074	5.3650e-01	-2.9021	-16.473191	0.000717	7.173866	2.430571	-0.057270
1075	5.3700e-01	-2.9357	-16.719210	0.000616	6.163462	2.088237	-0.049204
1076	5.3750e-01	-2.9855	-16.957163	0.000596	5.961381	2.019771	-0.047591
1077	5.3800e-01	-3.0127	-17.037825	0.000202	2.020807	0.684668	-0.016132
1078	5.3850e-01	-3.0545	-17.461300	0.001061	10.609238	3.594507	-0.084695
1079	5.3900e-01	-3.1010	-17.767816	0.000768	7.679068	2.601738	-0.061303
1080	5.3950e-01	-3.1347	-17.993669	0.000566	5.658260	1.917070	-0.045171
1081	5.4000e-01	-3.1796	-18.255821	0.000657	6.567624	2.225171	-0.052430
1082	5.4050e-01	-3.2117	-18.372781	0.000293	2.930170	0.992769	-0.023392
1083	5.4100e-01	-3.2518	-18.703495	0.000829	8.285310	2.807139	-0.066143
1084	5.4150e-01	-3.2935	-19.042275	0.000849	8.487390	2.875606	-0.067756
1085	5.4200e-01	-3.3400	-19.163268	0.000303	3.031211	1.027002	-0.024199
1086	5.4250e-01	-3.3737	-19.498015	0.000839	8.386350	2.841372	-0.066949
1087	5.4300e-01	-3.4186	-19.735968	0.000596	5.961381	2.019771	-0.047591
1088	5.4350e-01	-3.4555	-19.961822	0.000566	5.658260	1.917070	-0.045171
1089	5.4400e-01	-3.5052	-20.179609	0.000546	5.456180	1.848604	-0.043557
1090	5.4450e-01	-3.5389	-20.461926	0.000707	7.072825	2.396338	-0.056463
1091	5.4500e-01	-3.5839	-20.679713	0.000546	5.456180	1.848604	-0.043557
1092	5.4550e-01	-3.6111	-20.941864	0.000657	6.567624	2.225171	-0.052430
1093	5.4600e-01	-3.6577	-21.195950	0.000637	6.365543	2.156704	-0.050817
1094	5.4650e-01	-3.6945	-21.381472	0.000465	4.647857	1.574736	-0.037105
1095	5.4700e-01	-3.7363	-21.683955	0.000758	7.578027	2.567505	-0.060496
1096	5.4750e-01	-3.7812	-22.026768	0.000859	8.588431	2.909839	-0.068563
1097	5.4800e-01	-3.8133	-22.228423	0.000505	5.052018	1.711670	-0.040331
1098	5.4850e-01	-3.8518	-22.409912	0.000455	4.546816	1.540503	-0.036298
1099	5.4900e-01	-3.9015	-22.668031	0.000647	6.466583	2.190938	-0.051624
1100	5.4950e-01	-3.9368	-22.938248	0.000677	6.769704	2.293638	-0.054044
1101	5.5000e-01	-3.9721	-23.147969	0.000525	5.254099	1.780137	-0.041944
1102	5.5050e-01	-4.0186	-23.410121	0.000657	6.567624	2.225171	-0.052430
1103	5.5100e-01	-4.0587	-23.619842	0.000525	5.254099	1.780137	-0.041944
1104	5.5150e-01	-4.0972	-23.877960	0.000647	6.466583	2.190938	-0.051624
1105	5.5200e-01	-4.1389	-24.136079	0.000647	6.466583	2.190938	-0.051624
1106	5.5250e-01	-4.1854	-24.378065	0.000606	6.062422	2.054004	-0.048397
1107	5.5300e-01	-4.2095	-24.591819	0.000536	5.355139	1.814370	-0.042751
1108	5.5350e-01	-4.2624	-24.801540	0.000525	5.254099	1.780137	-0.041944
1109	5.5400e-01	-4.2993	-25.047559	0.000616	6.163462	2.088237	-0.049204
1110	5.5450e-01	-4.3314	-25.390372	0.000859	8.588431	2.909839	-0.068563
1111	5.5500e-01	-4.3812	-25.575895	0.000465	4.647857	1.574736	-0.037105
1112	5.5550e-01	-4.4148	-25.809815	0.000586	5.860341	1.985537	-0.046784
1113	5.5600e-01	-4.4582	-26.035668	0.000566	5.658260	1.917070	-0.045171
1114	5.5650e-01	-4.4902	-26.309919	0.000687	6.870745	2.327871	-0.054850
1115	5.5700e-01	-4.5336	-26.495441	0.000465	4.647857	1.574736	-0.037105
1116	5.5750e-01	-4.5785	-26.769692	0.000687	6.870745	2.327871	-0.054850
1117	5.5800e-01	-4.6170	-26.987479	0.000546	5.456180	1.848604	-0.043557
1118	5.5850e-01	-4.6587	-27.298028	0.000778	7.780108	2.635972	-0.062110
1119	5.5900e-01	-4.7068	-27.459352	0.000404	4.041614	1.369336	-0.032265
1120	5.5950e-01	-4.7277	-27.697305	0.000596	5.961381	2.019771	-0.047591
1121	5.6000e-01	-4.7742	-27.987688	0.000727	7.274906	2.464805	-0.058077
1122	5.6050e-01	-4.8127	-28.237740	0.000626	6.264502	2.122471	-0.050010
1123	5.6100e-01	-4.8656	-28.467626	0.000576	5.759301	1.951304	-0.045977
1124	5.6150e-01	-4.8977	-28.576520	0.000273	2.728090	0.924302	-0.021779
1125	5.6200e-01	-4.9458	-28.899168	0.000808	8.083229	2.738672	-0.064530
1126	5.6250e-01	-4.9811	-29.076624	0.000445	4.445776	1.506270	-0.035491
1127	5.6300e-01	-5.0196	-29.330710	0.000637	6.365543	2.156704	-0.050817
1128	5.6350e-01	-5.0549	-29.524298	0.000485	4.849937	1.643203	-0.038718
1129	5.6400e-01	-5.0886	-29.855012	0.000829	8.285310	2.807139	-0.066143
1130	5.6450e-01	-5.1384	-30.072800	0.000546	5.456180	1.848604	-0.043557
1131	5.6500e-01	-5.1720	-30.242190	0.000424	4.243695	1.437803	-0.033878
1132	5.6550e-01	-5.2218	-30.544672	0.000758	7.578027	2.567505	-0.060496
1133	5.6600e-01	-5.2603	-30.778592	0.000586	5.860341	1.985537	-0.046784
1134	5.6650e-01	-5.2988	-31.020578	0.000606	6.062422	2.054004	-0.048397
1135	5.6700e-01	-5.3469	-31.157703	0.000344	3.435372	1.163936	-0.027425
1136	5.6750e-01	-5.3774	-31.431954	0.000687	6.870745	2.327871	-0.054850
1137	5.6800e-01	-5.4175	-31.686039	0.000637	6.365543	2.156704	-0.050817
1138	5.6850e-01	-5.4688	-31.847363	0.000404	4.041614	1.369336	-0.032265
1139	5.6900e-01	-5.5105	-32.032886	0.000465	4.647857	1.574736	-0.037105
1140	5.6950e-01	-5.5410	-32.210342	0.000445	4.445776	1.506270	-0.035491
1141	5.7000e-01	-5.5843	-32.504758	0.000738	7.375946	2.499038	-0.058883
1142	5.7050e-01	-5.6164	-32.871770	0.000919	9.194673	3.115240	-0.073402
1143	5.7100e-01	-5.6597	-33.061326	0.000475	4.748897	1.608970	-0.037911
1144	5.7150e-01	-5.6982	-33.109723	0.000121	1.212484	0.410801	-0.009679
1145	5.7200e-01	-5.7383	-33.379941	0.000677	6.769704	2.293638	-0.054044
1146	5.7250e-01	-5.7704	-33.674357	0.000738	7.375946	2.499038	-0.058883
1147	5.7300e-01	-5.8266	-33.896177	0.000556	5.557220	1.882837	-0.044364
1148	5.7350e-01	-5.8571	-34.230924	0.000839	8.386350	2.841372	-0.066949
1149	5.7400e-01	-5.9004	-34.392248	0.000404	4.041614	1.369336	-0.032265
1150	5.7450e-01	-5.9421	-34.593903	0.000505	5.052018	1.711670	-0.040331
1151	5.7500e-01	-5.9694	-34.864121	0.000677	6.769704	2.293638	-0.054044
1152	5.7550e-01	-6.0239	-35.041577	0.000445	4.445776	1.506270	-0.035491
1153	5.7600e-01	-6.0608	-35.235166	0.000485	4.849937	1.643203	-0.038718
1154	5.7650e-01	-6.0993	-35.376324	0.000354	3.536413	1.198169	-0.028232
1155	5.7700e-01	-6.1346	-35.771568	0.000990	9.901955	3.354873	-0.079049
1156	5.7750e-01	-6.1779	-35.965157	0.000485	4.849937	1.643203	-0.038718
1157	5.7800e-01	-6.2212	-36.231341	0.000667	6.668664	2.259404	-0.053237
1158	5.7850e-01	-6.2549	-36.352334	0.000303	3.031211	1.027002	-0.024199
1159	5.7900e-01	-6.2966	-36.602386	0.000626	6.264502	2.122471	-0.050010
1160	5.7950e-01	-6.3367	-36.812107	0.000525	5.254099	1.780137	-0.041944
1161	5.8000e-01	-6.3752	-37.001663	0.000475	4.748897	1.608970	-0.037911
1162	5.8050e-01	-6.4153	-37.231550	0.000576	5.759301	1.951304	-0.045977
1163	5.8100e-01	-6.4683	-37.546131	0.000788	7.881148	2.670205	-0.062916
1164	5.8150e-01	-6.5020	-37.687290	0.000354	3.536413	1.198169	-0.028232
1165	5.8200e-01	-6.5340	-37.852647	0.000414	4.142655	1.403569	-0.033071
1166	5.8250e-01	-6.5774	-38.151096	0.000748	7.476987	2.533272	-0.059690
1167	5.8300e-01	-6.6110	-38.348718	0.000495	4.950978	1.677437	-0.039524
1168	5.8350e-01	-6.6544	-38.598770	0.000626	6.264502	2.122471	-0.050010
1169	5.8400e-01	-6.6961	-38.776227	0.000445	4.445776	1.506270	-0.035491
1170	5.8450e-01	-6.7394	-38.994014	0.000546	5.456180	1.848604	-0.043557
1171	5.8500e-01	-6.7811	-39.187603	0.000485	4.849937	1.643203	-0.038718
1172	5.8550e-01	-6.8196	-39.361026	0.000434	4.344736	1.472036	-0.034685
1173	5.8600e-01	-6.8565	-39.590912	0.000576	5.759301	1.951304	-0.045977
1174	5.8650e-01	-6.8934	-39.861130	0.000677	6.769704	2.293638	-0.054044
1175	5.8700e-01	-6.9399	-40.078917	0.000546	5.456180	1.848604	-0.043557
1176	5.8750e-01	-6.9800	-40.296705	0.000546	5.456180	1.848604	-0.043557
1177	5.8800e-01	-7.0153	-40.514492	0.000546	5.456180	1.848604	-0.043557
1178	5.8850e-01	-7.0522	-40.659684	0.000364	3.637453	1.232402	-0.029038
1179	5.8900e-01	-7.0939	-40.986365	0.000818	8.184269	2.772906	-0.065336
1180	5.8950e-01	-7.1372	-41.236417	0.000626	6.264502	2.122471	-0.050010
1181	5.9000e-01	-7.1741	-41.365476	0.000323	3.233292	1.095469	-0.025812
1182	5.9050e-01	-7.2142	-41.546965	0.000455	4.546816	1.540503	-0.036298
1183	5.9100e-01	-7.2559	-41.760719	0.000536	5.355139	1.814370	-0.042751
1184	5.9150e-01	-7.2961	-42.034970	0.000687	6.870745	2.327871	-0.054850
1185	5.9200e-01	-7.3378	-42.168062	0.000333	3.334332	1.129702	-0.026618
1186	5.9250e-01	-7.3779	-42.401982	0.000586	5.860341	1.985537	-0.046784
1187	5.9300e-01	-7.4164	-42.688332	0.000717	7.173866	2.430571	-0.057270
1188	5.9350e-01	-7.4533	-42.813358	0.000313	3.132251	1.061235	-0.025005
1189	5.9400e-01	-7.4934	-43.010980	0.000495	4.950978	1.677437	-0.039524
1190	5.9450e-01	-7.5367	-43.309429	0.000748	7.476987	2.533272	-0.059690
1191	5.9500e-01	-7.5784	-43.527217	0.000546	5.456180	1.848604	-0.043557
1192	5.9550e-01	-7.6169	-43.676441	0.000374	3.738493	1.266636	-0.029845
1193	5.9600e-01	-7.6586	-43.886162	0.000525	5.254099	1.780137	-0.041944
1194	5.9650e-01	-7.7019	-44.128148	0.000606	6.062422	2.054004	-0.048397
1195	5.9700e-01	-7.7308	-44.398366	0.000677	6.769704	2.293638	-0.054044
1196	5.9750e-01	-7.7853	-44.591955	0.000485	4.849937	1.643203	-0.038718
1197	5.9800e-01	-7.8190	-45.059794	0.001172	11.720682	3.971075	-0.093568
1198	5.9850e-01	-7.8591	-44.963000	-0.000242	-2.424969	-0.821602	0.019359
1199	5.9900e-01	-7.9025	-45.152555	0.000475	4.748897	1.608970	-0.037911
1200	5.9950e-01	-7.9297	-45.374376	0.000556	5.557220	1.882837	-0.044364
1201	6.0000e-01	-7.9762	-45.668792	0.000738	7.375946	2.499038	-0.058883
1202	6.0050e-01	-8.0131	-45.886579	0.000546	5.456180	1.848604	-0.043557
1203	6.0100e-01	-8.0565	-46.140665	0.000637	6.365543	2.156704	-0.050817
1204	6.0150e-01	-8.0998	-46.156797	0.000040	0.404161	0.136934	-0.003226
1205	6.0200e-01	-8.1415	-46.435081	0.000697	6.971785	2.362105	-0.055657
1206	6.0250e-01	-8.1816	-46.624636	0.000475	4.748897	1.608970	-0.037911
1207	6.0300e-01	-8.2153	-46.826291	0.000505	5.052018	1.711670	-0.040331
1208	6.0350e-01	-8.2666	-47.072310	0.000616	6.163462	2.088237	-0.049204
1209	6.0400e-01	-8.2987	-47.273965	0.000505	5.052018	1.711670	-0.040331
1210	6.0450e-01	-8.3308	-47.386892	0.000283	2.829130	0.958535	-0.022585
1211	6.0500e-01	-8.3821	-47.608712	0.000556	5.557220	1.882837	-0.044364
1212	6.0550e-01	-8.4094	-47.834566	0.000566	5.658260	1.917070	-0.045171
1213	6.0600e-01	-8.4607	-48.060419	0.000566	5.658260	1.917070	-0.045171
1214	6.0650e-01	-8.4960	-48.306439	0.000616	6.163462	2.088237	-0.049204
1215	6.0700e-01	-8.5281	-48.391134	0.000212	2.121848	0.718901	-0.016939
1216	6.0750e-01	-8.5682	-48.713781	0.000808	8.083229	2.738672	-0.064530
1217	6.0800e-01	-8.6195	-48.879139	0.000414	4.142655	1.403569	-0.033071
1218	6.0850e-01	-8.6580	-49.072727	0.000485	4.849937	1.643203	-0.038718
1219	6.0900e-01	-8.6885	-49.242117	0.000424	4.243695	1.437803	-0.033878
1220	6.0950e-01	-8.7367	-49.605096	0.000909	9.093633	3.081006	-0.072596
1221	6.1000e-01	-8.7816	-49.802718	0.000495	4.950978	1.677437	-0.039524
1222	6.1050e-01	-8.8233	-49.839016	0.000091	0.909363	0.308101	-0.007260
1223	6.1100e-01	-8.8602	-50.052770	0.000536	5.355139	1.814370	-0.042751
1224	6.1150e-01	-8.8987	-50.395584	0.000859	8.588431	2.909839	-0.068563
1225	6.1200e-01	-8.9388	-50.564974	0.000424	4.243695	1.437803	-0.033878
1226	6.1250e-01	-8.9789	-50.802927	0.000596	5.961381	2.019771	-0.047591
1227	6.1300e-01	-9.0190	-50.972317	0.000424	4.243695	1.437803	-0.033878
1228	6.1350e-01	-9.0559	-51.169939	0.000495	4.950978	1.677437	-0.039524
1229	6.1400e-01	-9.0976	-51.335296	0.000414	4.142655	1.403569	-0.033071
1230	6.1450e-01	-9.1329	-51.589381	0.000637	6.365543	2.156704	-0.050817
1231	6.1500e-01	-9.1810	-51.795069	0.000515	5.153058	1.745903	-0.041138
1232	6.1550e-01	-9.2179	-52.020922	0.000566	5.658260	1.917070	-0.045171
1233	6.1600e-01	-9.2644	-52.186279	0.000414	4.142655	1.403569	-0.033071
1234	6.1650e-01	-9.2949	-52.335504	0.000374	3.738493	1.266636	-0.029845
1235	6.1700e-01	-9.3414	-52.500861	0.000414	4.142655	1.403569	-0.033071
1236	6.1750e-01	-9.3816	-52.750913	0.000626	6.264502	2.122471	-0.050010
1237	6.1800e-01	-9.4152	-52.936436	0.000465	4.647857	1.574736	-0.037105
1238	6.1850e-01	-9.4553	-53.198587	0.000657	6.567624	2.225171	-0.052430
1239	6.1900e-01	-9.4971	-53.400242	0.000505	5.052018	1.711670	-0.040331
1240	6.1950e-01	-9.5307	-53.529301	0.000323	3.233292	1.095469	-0.025812
1241	6.2000e-01	-9.5773	-53.751122	0.000556	5.557220	1.882837	-0.044364
1242	6.2050e-01	-9.6110	-53.904379	0.000384	3.839534	1.300869	-0.030652
1243	6.2100e-01	-9.6559	-54.186696	0.000707	7.072825	2.396338	-0.056463
1244	6.2150e-01	-9.6880	-54.428682	0.000606	6.062422	2.054004	-0.048397
1245	6.2200e-01	-9.7265	-54.590006	0.000404	4.041614	1.369336	-0.032265
1246	6.2250e-01	-9.7826	-54.767462	0.000445	4.445776	1.506270	-0.035491
1247	6.2300e-01	-9.8163	-54.912654	0.000364	3.637453	1.232402	-0.029038
1248	6.2350e-01	-9.8612	-55.122375	0.000525	5.254099	1.780137	-0.041944
1249	6.2400e-01	-9.8901	-55.336129	0.000536	5.355139	1.814370	-0.042751
1250	6.2450e-01	-9.9334	-55.557950	0.000556	5.557220	1.882837	-0.044364
1251	6.2500e-01	-9.9735	-55.763638	0.000515	5.153058	1.745903	-0.041138
1252	6.2550e-01	-10.0136	-55.933028	0.000424	4.243695	1.437803	-0.033878
1253	6.2600e-01	-10.0585	-56.146782	0.000536	5.355139	1.814370	-0.042751
1254	6.2650e-01	-10.0970	-56.356503	0.000525	5.254099	1.780137	-0.041944
1255	6.2700e-01	-10.1355	-56.505728	0.000374	3.738493	1.266636	-0.029845
1256	6.2750e-01	-10.1789	-56.679151	0.000434	4.344736	1.472036	-0.034685
1257	6.2800e-01	-10.2093	-56.880806	0.000505	5.052018	1.711670	-0.040331
1258	6.2850e-01	-10.2591	-57.078428	0.000495	4.950978	1.677437	-0.039524
1259	6.2900e-01	-10.2992	-57.348646	0.000677	6.769704	2.293638	-0.054044
1260	6.2950e-01	-10.3248	-57.509970	0.000404	4.041614	1.369336	-0.032265
1261	6.3000e-01	-10.3698	-57.739856	0.000576	5.759301	1.951304	-0.045977
1262	6.3050e-01	-10.4147	-57.876981	0.000344	3.435372	1.163936	-0.027425
1263	6.3100e-01	-10.4596	-58.022173	0.000364	3.637453	1.232402	-0.029038
1264	6.3150e-01	-10.4917	-58.243993	0.000556	5.557220	1.882837	-0.044364
1265	6.3200e-01	-10.5414	-58.502112	0.000647	6.466583	2.190938	-0.051624
1266	6.3250e-01	-10.5719	-58.627138	0.000313	3.132251	1.061235	-0.025005
1267	6.3300e-01	-10.6184	-58.808627	0.000455	4.546816	1.540503	-0.036298
1268	6.3350e-01	-10.6409	-59.119176	0.000778	7.780108	2.635972	-0.062110
1269	6.3400e-01	-10.6954	-59.236136	0.000293	2.930170	0.992769	-0.023392
1270	6.3450e-01	-10.7355	-59.643479	0.001021	10.205077	3.457574	-0.081469
1271	6.3500e-01	-10.7772	-59.659611	0.000040	0.404161	0.136934	-0.003226
1272	6.3550e-01	-10.8173	-59.728174	0.000172	1.717686	0.581968	-0.013713
1273	6.3600e-01	-10.8574	-60.054855	0.000818	8.184269	2.772906	-0.065336
1274	6.3650e-01	-10.8976	-60.325072	0.000677	6.769704	2.293638	-0.054044
1275	6.3700e-01	-10.9328	-60.462198	0.000344	3.435372	1.163936	-0.027425
1276	6.3750e-01	-10.9730	-60.510595	0.000121	1.212484	0.410801	-0.009679
1277	6.3800e-01	-11.0259	-60.740481	0.000576	5.759301	1.951304	-0.045977
1278	6.3850e-01	-11.0548	-60.926004	0.000465	4.647857	1.574736	-0.037105
1279	6.3900e-01	-11.0981	-61.155891	0.000576	5.759301	1.951304	-0.045977
1280	6.3950e-01	-11.1398	-61.393843	0.000596	5.961381	2.019771	-0.047591
1281	6.4000e-01	-11.1783	-61.526936	0.000333	3.334332	1.129702	-0.026618
1282	6.4050e-01	-11.2184	-61.724558	0.000495	4.950978	1.677437	-0.039524
1283	6.4100e-01	-11.2505	-61.877815	0.000384	3.839534	1.300869	-0.030652
1284	6.4150e-01	-11.2986	-62.184331	0.000768	7.679068	2.601738	-0.061303
1285	6.4200e-01	-11.3371	-62.325489	0.000354	3.536413	1.198169	-0.028232
1286	6.4250e-01	-11.3820	-62.535210	0.000525	5.254099	1.780137	-0.041944
1287	6.4300e-01	-11.4173	-62.672336	0.000344	3.435372	1.163936	-0.027425
1288	6.4350e-01	-11.4606	-62.890123	0.000546	5.456180	1.848604	-0.043557
1289	6.4400e-01	-11.4911	-63.027248	0.000344	3.435372	1.163936	-0.027425
1290	6.4450e-01	-11.5344	-63.245036	0.000546	5.456180	1.848604	-0.043557
1291	6.4500e-01	-11.5745	-63.442658	0.000495	4.950978	1.677437	-0.039524
1292	6.4550e-01	-11.6114	-63.499121	0.000141	1.414565	0.479268	-0.011293
1293	6.4600e-01	-11.6596	-63.761272	0.000657	6.567624	2.225171	-0.052430
1294	6.4650e-01	-11.6949	-64.003258	0.000606	6.062422	2.054004	-0.048397
1295	6.4700e-01	-11.7302	-64.261377	0.000647	6.466583	2.190938	-0.051624
1296	6.4750e-01	-11.7735	-64.426734	0.000414	4.142655	1.403569	-0.033071
1297	6.4800e-01	-11.8072	-64.640488	0.000536	5.355139	1.814370	-0.042751
1298	6.4850e-01	-11.8505	-64.838110	0.000495	4.950978	1.677437	-0.039524
1299	6.4900e-01	-11.8986	-64.834077	-0.000010	-0.101040	-0.034233	0.000807
1300	6.4950e-01	-11.9339	-65.136559	0.000758	7.578027	2.567505	-0.060496
1301	6.5000e-01	-11.9756	-65.322082	0.000465	4.647857	1.574736	-0.037105
1302	6.5050e-01	-12.0253	-65.463240	0.000354	3.536413	1.198169	-0.028232
1303	6.5100e-01	-12.0590	-65.608432	0.000364	3.637453	1.232402	-0.029038
1304	6.5150e-01	-12.0911	-65.846384	0.000596	5.961381	2.019771	-0.047591
1305	6.5200e-01	-12.1360	-66.027874	0.000455	4.546816	1.540503	-0.036298
1306	6.5250e-01	-12.1809	-66.233562	0.000515	5.153058	1.745903	-0.041138
1307	6.5300e-01	-12.2194	-66.487647	0.000637	6.365543	2.156704	-0.050817
1308	6.5350e-01	-12.2579	-66.584441	0.000242	2.424969	0.821602	-0.019359
1309	6.5400e-01	-12.2997	-66.705434	0.000303	3.031211	1.027002	-0.024199
1310	6.5450e-01	-12.3382	-66.890957	0.000465	4.647857	1.574736	-0.037105
1311	6.5500e-01	-12.3847	-67.149075	0.000647	6.466583	2.190938	-0.051624
1312	6.5550e-01	-12.4152	-67.330565	0.000455	4.546816	1.540503	-0.036298
1313	6.5600e-01	-12.4569	-67.596749	0.000667	6.668664	2.259404	-0.053237
1314	6.5650e-01	-12.4970	-67.685477	0.000222	2.222888	0.753135	-0.017746
1315	6.5700e-01	-12.5403	-67.866967	0.000455	4.546816	1.540503	-0.036298
1316	6.5750e-01	-12.5836	-68.072655	0.000515	5.153058	1.745903	-0.041138
1317	6.5800e-01	-12.6221	-68.201714	0.000323	3.233292	1.095469	-0.025812
1318	6.5850e-01	-12.6574	-68.403369	0.000505	5.052018	1.711670	-0.040331
1319	6.5900e-01	-12.6991	-68.605024	0.000505	5.052018	1.711670	-0.040331
1320	6.5950e-01	-12.7312	-68.778447	0.000434	4.344736	1.472036	-0.034685
1321	6.6000e-01	-12.7841	-68.996234	0.000546	5.456180	1.848604	-0.043557
1322	6.6050e-01	-12.8194	-69.197889	0.000505	5.052018	1.711670	-0.040331
1323	6.6100e-01	-12.8627	-69.343081	0.000364	3.637453	1.232402	-0.029038
1324	6.6150e-01	-12.8868	-69.601199	0.000647	6.466583	2.190938	-0.051624
1325	6.6200e-01	-12.9381	-69.750424	0.000374	3.738493	1.266636	-0.029845
1326	6.6250e-01	-12.9750	-69.919814	0.000424	4.243695	1.437803	-0.033878
1327	6.6300e-01	-13.0135	-70.040807	0.000303	3.031211	1.027002	-0.024199
1328	6.6350e-01	-13.0536	-70.339256	0.000748	7.476987	2.533272	-0.059690
1329	6.6400e-01	-13.0937	-70.448150	0.000273	2.728090	0.924302	-0.021779
1330	6.6450e-01	-13.1274	-70.605441	0.000394	3.940574	1.335103	-0.031458
1331	6.6500e-01	-13.1708	-70.803063	0.000495	4.950978	1.677437	-0.039524
1332	6.6550e-01	-13.2125	-70.944221	0.000354	3.536413	1.198169	-0.028232
1333	6.6600e-01	-13.2590	-71.153942	0.000525	5.254099	1.780137	-0.041944
1334	6.6650e-01	-13.2943	-71.395928	0.000606	6.062422	2.054004	-0.048397
1335	6.6700e-01	-13.3328	-71.533053	0.000344	3.435372	1.163936	-0.027425
1336	6.6750e-01	-13.3809	-71.641947	0.000273	2.728090	0.924302	-0.021779
1337	6.6800e-01	-13.4226	-71.815370	0.000434	4.344736	1.472036	-0.034685
1338	6.6850e-01	-13.4499	-72.029124	0.000536	5.355139	1.814370	-0.042751
1339	6.6900e-01	-13.4868	-72.174316	0.000364	3.637453	1.232402	-0.029038
1340	6.6950e-01	-13.5445	-72.460666	0.000717	7.173866	2.430571	-0.057270
1341	6.7000e-01	-13.5814	-72.573593	0.000283	2.829130	0.958535	-0.022585
1342	6.7050e-01	-13.6183	-72.678453	0.000263	2.627049	0.890068	-0.020972
1343	6.7100e-01	-13.6568	-73.162425	0.001212	12.124843	4.108008	-0.096794
1344	6.7150e-01	-13.6953	-73.101929	-0.000152	-1.515605	-0.513501	0.012099
1345	6.7200e-01	-13.7403	-73.311650	0.000525	5.254099	1.780137	-0.041944
1346	6.7250e-01	-13.7820	-73.525404	0.000536	5.355139	1.814370	-0.042751
1347	6.7300e-01	-13.8157	-73.751258	0.000566	5.658260	1.917070	-0.045171
1348	6.7350e-01	-13.8542	-73.852085	0.000253	2.526009	0.855835	-0.020165
1349	6.7400e-01	-13.8943	-73.969045	0.000293	2.930170	0.992769	-0.023392
1350	6.7450e-01	-13.9312	-74.215064	0.000616	6.163462	2.088237	-0.049204
1351	6.7500e-01	-13.9713	-74.384454	0.000424	4.243695	1.437803	-0.033878
1352	6.7550e-01	-14.0178	-74.549811	0.000414	4.142655	1.403569	-0.033071
1353	6.7600e-01	-14.0563	-74.674837	0.000313	3.132251	1.061235	-0.025005
1354	6.7650e-01	-14.1044	-74.824062	0.000374	3.738493	1.266636	-0.029845
1355	6.7700e-01	-14.1397	-75.045882	0.000556	5.557220	1.882837	-0.044364
1356	6.7750e-01	-14.1702	-75.271736	0.000566	5.658260	1.917070	-0.045171
1357	6.7800e-01	-14.2231	-75.445159	0.000434	4.344736	1.472036	-0.034685
1358	6.7850e-01	-14.2584	-75.610516	0.000414	4.142655	1.403569	-0.033071
1359	6.7900e-01	-14.3033	-75.767807	0.000394	3.940574	1.335103	-0.031458
1360	6.7950e-01	-14.3450	-75.933164	0.000414	4.142655	1.403569	-0.033071
1361	6.8000e-01	-14.3707	-76.154984	0.000556	5.557220	1.882837	-0.044364
1362	6.8050e-01	-14.4221	-76.356639	0.000505	5.052018	1.711670	-0.040331
1363	6.8100e-01	-14.4525	-76.473599	0.000293	2.930170	0.992769	-0.023392
1364	6.8150e-01	-14.4991	-76.719618	0.000616	6.163462	2.088237	-0.049204
1365	6.8200e-01	-14.5343	-76.856744	0.000344	3.435372	1.163936	-0.027425
1366	6.8250e-01	-14.5729	-77.022101	0.000414	4.142655	1.403569	-0.033071
1367	6.8300e-01	-14.6226	-77.130994	0.000273	2.728090	0.924302	-0.021779
1368	6.8350e-01	-14.6627	-77.296351	0.000414	4.142655	1.403569	-0.033071
1369	6.8400e-01	-14.6980	-77.554470	0.000647	6.466583	2.190938	-0.051624
1370	6.8450e-01	-14.7301	-77.796455	0.000606	6.062422	2.054004	-0.048397
1371	6.8500e-01	-14.7782	-77.953746	0.000394	3.940574	1.335103	-0.031458
1372	6.8550e-01	-14.8135	-78.086839	0.000333	3.334332	1.129702	-0.026618
1373	6.8600e-01	-14.8568	-78.256229	0.000424	4.243695	1.437803	-0.033878
1374	6.8650e-01	-14.9001	-78.461917	0.000515	5.153058	1.745903	-0.041138
1375	6.8700e-01	-14.9402	-78.599042	0.000344	3.435372	1.163936	-0.027425
1376	6.8750e-01	-14.9835	-78.740201	0.000354	3.536413	1.198169	-0.028232
1377	6.8800e-01	-15.0220	-78.861194	0.000303	3.031211	1.027002	-0.024199
1378	6.8850e-01	-15.0573	-79.066882	0.000515	5.153058	1.745903	-0.041138
1379	6.8900e-01	-15.0958	-79.292735	0.000566	5.658260	1.917070	-0.045171
1380	6.8950e-01	-15.1488	-79.409695	0.000293	2.930170	0.992769	-0.023392
1381	6.9000e-01	-15.1825	-79.599251	0.000475	4.748897	1.608970	-0.037911
1382	6.9050e-01	-15.2178	-79.760575	0.000404	4.041614	1.369336	-0.032265
1383	6.9100e-01	-15.2579	-80.042891	0.000707	7.072825	2.396338	-0.056463
1384	6.9150e-01	-15.2948	-80.212282	0.000424	4.243695	1.437803	-0.033878
1385	6.9200e-01	-15.3365	-80.373605	0.000404	4.041614	1.369336	-0.032265
1386	6.9250e-01	-15.3814	-80.510731	0.000344	3.435372	1.163936	-0.027425
1387	6.9300e-01	-15.4199	-80.704320	0.000485	4.849937	1.643203	-0.038718
1388	6.9350e-01	-15.4664	-80.885809	0.000455	4.546816	1.540503	-0.036298
1389	6.9400e-01	-15.4953	-81.006802	0.000303	3.031211	1.027002	-0.024199
1390	6.9450e-01	-15.5370	-81.216523	0.000525	5.254099	1.780137	-0.041944
1391	6.9500e-01	-15.5835	-81.361715	0.000364	3.637453	1.232402	-0.029038
1392	6.9550e-01	-15.6220	-81.466575	0.000263	2.627049	0.890068	-0.020972
1393	6.9600e-01	-15.6605	-81.656131	0.000475	4.748897	1.608970	-0.037911
1394	6.9650e-01	-15.6894	-81.890051	0.000586	5.860341	1.985537	-0.046784
1395	6.9700e-01	-15.7343	-82.035242	0.000364	3.637453	1.232402	-0.029038
1396	6.9750e-01	-15.7840	-82.188500	0.000384	3.839534	1.300869	-0.030652
1397	6.9800e-01	-15.8161	-82.418386	0.000576	5.759301	1.951304	-0.045977
1398	6.9850e-01	-15.8578	-82.583744	0.000414	4.142655	1.403569	-0.033071
1399	6.9900e-01	-15.9012	-82.741034	0.000394	3.940574	1.335103	-0.031458
1400	6.9950e-01	-15.9477	-82.942689	0.000505	5.052018	1.711670	-0.040331
1401	7.0000e-01	-15.9814	-83.196775	0.000637	6.365543	2.156704	-0.050817
1402	7.0050e-01	-16.0183	-83.350032	0.000384	3.839534	1.300869	-0.030652
1403	7.0100e-01	-16.0584	-83.414562	0.000162	1.616646	0.547734	-0.012906
1404	7.0150e-01	-16.0985	-83.648482	0.000586	5.860341	1.985537	-0.046784
1405	7.0200e-01	-16.1370	-83.825938	0.000445	4.445776	1.506270	-0.035491
1406	7.0250e-01	-16.1899	-83.898534	0.000182	1.818727	0.616201	-0.014519
1407	7.0300e-01	-16.2124	-84.080023	0.000455	4.546816	1.540503	-0.036298
1408	7.0350e-01	-16.2525	-84.317976	0.000596	5.961381	2.019771	-0.047591
1409	7.0400e-01	-16.3006	-84.479300	0.000404	4.041614	1.369336	-0.032265
1410	7.0450e-01	-16.3359	-84.632558	0.000384	3.839534	1.300869	-0.030652
1411	7.0500e-01	-16.3840	-84.765650	0.000333	3.334332	1.129702	-0.026618
1412	7.0550e-01	-16.4081	-85.035867	0.000677	6.769704	2.293638	-0.054044
1413	7.0600e-01	-16.4642	-85.152827	0.000293	2.930170	0.992769	-0.023392
1414	7.0650e-01	-16.5027	-85.374648	0.000556	5.557220	1.882837	-0.044364
1415	7.0700e-01	-16.5445	-85.523872	0.000374	3.738493	1.266636	-0.029845
1416	7.0750e-01	-16.5765	-85.427078	-0.000242	-2.424969	-0.821602	0.019359
1417	7.0800e-01	-16.6247	-85.947348	0.001303	13.034207	4.416109	-0.104054
1418	7.0850e-01	-16.6664	-85.983646	0.000091	0.909363	0.308101	-0.007260
1419	7.0900e-01	-16.6936	-86.257896	0.000687	6.870745	2.327871	-0.054850
1420	7.0950e-01	-16.7434	-86.431320	0.000434	4.344736	1.472036	-0.034685
1421	7.1000e-01	-16.7771	-86.677339	0.000616	6.163462	2.088237	-0.049204
1422	7.1050e-01	-16.8204	-86.959656	0.000707	7.072825	2.396338	-0.056463
1423	7.1100e-01	-16.8557	-86.963689	0.000010	0.101040	0.034233	-0.000807
1424	7.1150e-01	-16.8942	-87.157277	0.000485	4.849937	1.643203	-0.038718
1425	7.1200e-01	-16.9423	-87.322634	0.000414	4.142655	1.403569	-0.033071
1426	7.1250e-01	-16.9760	-87.483958	0.000404	4.041614	1.369336	-0.032265
1427	7.1300e-01	-17.0161	-87.649315	0.000414	4.142655	1.403569	-0.033071
1428	7.1350e-01	-17.0546	-87.746110	0.000242	2.424969	0.821602	-0.019359
1429	7.1400e-01	-17.0963	-87.963897	0.000546	5.456180	1.848604	-0.043557
1430	7.1450e-01	-17.1348	-88.157486	0.000485	4.849937	1.643203	-0.038718
1431	7.1500e-01	-17.1781	-88.347041	0.000475	4.748897	1.608970	-0.037911
1432	7.1550e-01	-17.2134	-88.516432	0.000424	4.243695	1.437803	-0.033878
1433	7.1600e-01	-17.2551	-88.528531	0.000030	0.303121	0.102700	-0.002420
1434	7.1650e-01	-17.3017	-88.826980	0.000748	7.476987	2.533272	-0.059690
1435	7.1700e-01	-17.3466	-88.976205	0.000374	3.738493	1.266636	-0.029845
1436	7.1750e-01	-17.3770	-89.198025	0.000556	5.557220	1.882837	-0.044364
1437	7.1800e-01	-17.4204	-89.452110	0.000637	6.365543	2.156704	-0.050817
1438	7.1850e-01	-17.4573	-89.581170	0.000323	3.233292	1.095469	-0.025812
1439	7.1900e-01	-17.4942	-89.754593	0.000434	4.344736	1.472036	-0.034685
1440	7.1950e-01	-17.5327	-89.863487	0.000273	2.728090	0.924302	-0.021779
1441	7.2000e-01	-17.5776	-90.097406	0.000586	5.860341	1.985537	-0.046784
1442	7.2050e-01	-17.6209	-90.274863	0.000445	4.445776	1.506270	-0.035491
1443	7.2100e-01	-17.6546	-90.492650	0.000546	5.456180	1.848604	-0.043557
1444	7.2150e-01	-17.6979	-90.649941	0.000394	3.940574	1.335103	-0.031458
1445	7.2200e-01	-17.7444	-90.823364	0.000434	4.344736	1.472036	-0.034685
1446	7.2250e-01	-17.7685	-90.968556	0.000364	3.637453	1.232402	-0.029038
1447	7.2300e-01	-17.8214	-91.109714	0.000354	3.536413	1.198169	-0.028232
1448	7.2350e-01	-17.8583	-91.436395	0.000818	8.184269	2.772906	-0.065336
1449	7.2400e-01	-17.8920	-91.553355	0.000293	2.930170	0.992769	-0.023392
1450	7.2450e-01	-17.9337	-91.694513	0.000354	3.536413	1.198169	-0.028232
1451	7.2500e-01	-17.9834	-91.835672	0.000354	3.536413	1.198169	-0.028232
1452	7.2550e-01	-18.0220	-92.001029	0.000414	4.142655	1.403569	-0.033071
1453	7.2600e-01	-18.0556	-92.234948	0.000586	5.860341	1.985537	-0.046784
1454	7.2650e-01	-18.0925	-92.400306	0.000414	4.142655	1.403569	-0.033071
1455	7.2700e-01	-18.1342	-92.541464	0.000354	3.536413	1.198169	-0.028232
1456	7.2750e-01	-18.1776	-92.876211	0.000839	8.386350	2.841372	-0.066949
1457	7.2800e-01	-18.2129	-92.985105	0.000273	2.728090	0.924302	-0.021779
1458	7.2850e-01	-18.2546	-93.106098	0.000303	3.031211	1.027002	-0.024199
1459	7.2900e-01	-18.3043	-93.299687	0.000485	4.849937	1.643203	-0.038718
1460	7.2950e-01	-18.3316	-93.513441	0.000536	5.355139	1.814370	-0.042751
1461	7.3000e-01	-18.3685	-93.642500	0.000323	3.233292	1.095469	-0.025812
1462	7.3050e-01	-18.4214	-93.751394	0.000273	2.728090	0.924302	-0.021779
1463	7.3100e-01	-18.4631	-94.001446	0.000626	6.264502	2.122471	-0.050010
1464	7.3150e-01	-18.4904	-94.215200	0.000536	5.355139	1.814370	-0.042751
1465	7.3200e-01	-18.5369	-94.449120	0.000586	5.860341	1.985537	-0.046784
1466	7.3250e-01	-18.5786	-94.578179	0.000323	3.233292	1.095469	-0.025812
1467	7.3300e-01	-18.6251	-94.779834	0.000505	5.052018	1.711670	-0.040331
1468	7.3350e-01	-18.6572	-94.957290	0.000445	4.445776	1.506270	-0.035491
1469	7.3400e-01	-18.6989	-95.126680	0.000424	4.243695	1.437803	-0.033878
1470	7.3450e-01	-18.7374	-95.316236	0.000475	4.748897	1.608970	-0.037911
1471	7.3500e-01	-18.7727	-95.513858	0.000495	4.950978	1.677437	-0.039524
1472	7.3550e-01	-18.8112	-95.715513	0.000505	5.052018	1.711670	-0.040331
1473	7.3600e-01	-18.8594	-95.836506	0.000303	3.031211	1.027002	-0.024199
1474	7.3650e-01	-18.8963	-96.042194	0.000515	5.153058	1.745903	-0.041138
1475	7.3700e-01	-18.9364	-96.219650	0.000445	4.445776	1.506270	-0.035491
1476	7.3750e-01	-18.9765	-96.421305	0.000505	5.052018	1.711670	-0.040331
1477	7.3800e-01	-19.0134	-96.578596	0.000394	3.940574	1.335103	-0.031458
1478	7.3850e-01	-19.0583	-96.877045	0.000748	7.476987	2.533272	-0.059690
1479	7.3900e-01	-19.0952	-97.042402	0.000414	4.142655	1.403569	-0.033071
1480	7.3950e-01	-19.1369	-97.163395	0.000303	3.031211	1.027002	-0.024199
1481	7.4000e-01	-19.1770	-97.312620	0.000374	3.738493	1.266636	-0.029845
1482	7.4050e-01	-19.2171	-97.594937	0.000707	7.072825	2.396338	-0.056463
1483	7.4100e-01	-19.2508	-97.748194	0.000384	3.839534	1.300869	-0.030652
1484	7.4150e-01	-19.2973	-97.925651	0.000445	4.445776	1.506270	-0.035491
1485	7.4200e-01	-19.3374	-98.127306	0.000505	5.052018	1.711670	-0.040331
1486	7.4250e-01	-19.3727	-98.349126	0.000556	5.557220	1.882837	-0.044364
1487	7.4300e-01	-19.4208	-98.522549	0.000434	4.344736	1.472036	-0.034685
1488	7.4350e-01	-19.4593	-98.647575	0.000313	3.132251	1.061235	-0.025005
1489	7.4400e-01	-19.4962	-98.740337	0.000232	2.323928	0.787368	-0.018552
1490	7.4450e-01	-19.5380	-98.913760	0.000434	4.344736	1.472036	-0.034685
1491	7.4500e-01	-19.5716	-99.288838	0.000940	9.396754	3.183706	-0.075016
1492	7.4550e-01	-19.6150	-99.413864	0.000313	3.132251	1.061235	-0.025005
1493	7.4600e-01	-19.6551	-99.615519	0.000505	5.052018	1.711670	-0.040331
1494	7.4650e-01	-19.7000	-99.829273	0.000536	5.355139	1.814370	-0.042751
1495	7.4700e-01	-19.7401	-99.974465	0.000364	3.637453	1.232402	-0.029038
1496	7.4750e-01	-19.7802	-100.196285	0.000556	5.557220	1.882837	-0.044364
1497	7.4800e-01	-19.8187	-100.289046	0.000232	2.323928	0.787368	-0.018552
1498	7.4850e-01	-19.8540	-100.583463	0.000738	7.375946	2.499038	-0.058883
1499	7.4900e-01	-19.8941	-100.793184	0.000525	5.254099	1.780137	-0.041944
1500	7.4950e-01	-19.9342	-100.994839	0.000505	5.052018	1.711670	-0.040331
1501	7.5000e-01	-19.9711	-101.188427	0.000485	4.849937	1.643203	-0.038718
1502	7.5050e-01	-19.9775	-101.273122	0.000212	2.121848	0.718901	-0.016939
1503	7.5100e-01	-19.9438	-101.192460	0.000202	2.020807	0.684668	0.016132
1504	7.5150e-01	-19.9182	-101.127931	0.000162	1.616646	0.547734	0.012906
1505	7.5200e-01	-19.8748	-100.885945	0.000606	6.062422	2.054004	0.048397
1506	7.5250e-01	-19.8412	-101.067434	-0.000455	-4.546816	-1.540503	-0.036298
1507	7.5300e-01	-19.7962	-100.974673	0.000232	2.323928	0.787368	0.018552
1508	7.5350e-01	-19.7577	-100.906110	0.000172	1.717686	0.581968	0.013713
1509	7.5400e-01	-19.7176	-100.805283	0.000253	2.526009	0.855835	0.020165
1510	7.5450e-01	-19.6823	-100.660091	0.000364	3.637453	1.232402	0.029038
1511	7.5500e-01	-19.6470	-100.575396	0.000212	2.121848	0.718901	0.016939
1512	7.5550e-01	-19.6005	-100.442304	0.000333	3.334332	1.129702	0.026618
1513	7.5600e-01	-19.5620	-100.401973	0.000101	1.010404	0.342334	0.008066
1514	7.5650e-01	-19.5203	-100.220484	0.000455	4.546816	1.540503	0.036298
1515	7.5700e-01	-19.4722	-100.055127	0.000414	4.142655	1.403569	0.033071
1516	7.5750e-01	-19.4433	-100.010763	0.000111	1.111444	0.376567	0.008873
1517	7.5800e-01	-19.3968	-99.845406	0.000414	4.142655	1.403569	0.033071
1518	7.5850e-01	-19.3567	-99.696181	0.000374	3.738493	1.266636	0.029845
1519	7.5900e-01	-19.3262	-99.623585	0.000182	1.818727	0.616201	0.014519
1520	7.5950e-01	-19.2797	-99.571155	0.000131	1.313525	0.445034	0.010486
1521	7.6000e-01	-19.2428	-99.458228	0.000283	2.829130	0.958535	0.022585
1522	7.6050e-01	-19.1979	-99.313037	0.000364	3.637453	1.232402	0.029038
1523	7.6100e-01	-19.1642	-99.232375	0.000202	2.020807	0.684668	0.016132
1524	7.6150e-01	-19.1225	-99.095249	0.000344	3.435372	1.163936	0.027425
1525	7.6200e-01	-19.0856	-98.958124	0.000344	3.435372	1.163936	0.027425
1526	7.6250e-01	-19.0326	-98.792767	0.000414	4.142655	1.403569	0.033071
1527	7.6300e-01	-18.9893	-98.772601	0.000051	0.505202	0.171167	0.004033
1528	7.6350e-01	-18.9572	-98.562880	0.000525	5.254099	1.780137	0.041944
1529	7.6400e-01	-18.9187	-98.502384	0.000152	1.515605	0.513501	0.012099
1530	7.6450e-01	-18.8834	-98.381391	0.000303	3.031211	1.027002	0.024199
1531	7.6500e-01	-18.8433	-98.260398	0.000303	3.031211	1.027002	0.024199
1532	7.6550e-01	-18.8080	-98.135372	0.000313	3.132251	1.061235	0.025005
1533	7.6600e-01	-18.7567	-97.941783	0.000485	4.849937	1.643203	0.038718
1534	7.6650e-01	-18.7134	-97.744161	0.000495	4.950978	1.677437	0.039524
1535	7.6700e-01	-18.6829	-97.655433	0.000222	2.222888	0.753135	0.017746
1536	7.6750e-01	-18.6444	-97.526374	0.000323	3.233292	1.095469	0.025812
1537	7.6800e-01	-18.5931	-97.417480	0.000273	2.728090	0.924302	0.021779
1538	7.6850e-01	-18.5626	-97.352951	0.000162	1.616646	0.547734	0.012906
1539	7.6900e-01	-18.5193	-97.171461	0.000455	4.546816	1.540503	0.036298
1540	7.6950e-01	-18.4759	-97.038369	0.000333	3.334332	1.129702	0.026618
1541	7.7000e-01	-18.4423	-96.953674	0.000212	2.121848	0.718901	0.016939
1542	7.7050e-01	-18.4006	-96.792350	0.000404	4.041614	1.369336	0.032265
1543	7.7100e-01	-18.3685	-96.598761	0.000485	4.849937	1.643203	0.038718
1544	7.7150e-01	-18.3284	-96.425338	0.000434	4.344736	1.472036	0.034685
1545	7.7200e-01	-18.2786	-96.255948	0.000424	4.243695	1.437803	0.033878
1546	7.7250e-01	-18.2401	-96.264014	-0.000020	-0.202081	-0.068467	-0.001613
1547	7.7300e-01	-18.2000	-96.086558	0.000445	4.445776	1.506270	0.035491
1548	7.7350e-01	-18.1567	-95.965565	0.000303	3.031211	1.027002	0.024199
1549	7.7400e-01	-18.1230	-95.876837	0.000222	2.222888	0.753135	0.017746
1550	7.7450e-01	-18.0861	-95.646950	0.000576	5.759301	1.951304	0.045977
1551	7.7500e-01	-18.0412	-95.574354	0.000182	1.818727	0.616201	0.014519
1552	7.7550e-01	-17.9963	-95.449328	0.000313	3.132251	1.061235	0.025005
1553	7.7600e-01	-17.9626	-95.308170	0.000354	3.536413	1.198169	0.028232
1554	7.7650e-01	-17.9129	-95.199276	0.000273	2.728090	0.924302	0.021779
1555	7.7700e-01	-17.8792	-95.058118	0.000354	3.536413	1.198169	0.028232
1556	7.7750e-01	-17.8407	-94.892760	0.000414	4.142655	1.403569	0.033071
1557	7.7800e-01	-17.8022	-94.711271	0.000455	4.546816	1.540503	0.036298
1558	7.7850e-01	-17.7621	-94.549947	0.000404	4.041614	1.369336	0.032265
1559	7.7900e-01	-17.7220	-94.505583	0.000111	1.111444	0.376567	0.008873
1560	7.7950e-01	-17.6802	-94.328127	0.000445	4.445776	1.506270	0.035491
1561	7.8000e-01	-17.6450	-94.166803	0.000404	4.041614	1.369336	0.032265
1562	7.8050e-01	-17.6065	-93.840122	0.000818	8.184269	2.772906	0.065336
1563	7.8100e-01	-17.5615	-93.860287	-0.000051	-0.505202	-0.171167	-0.004033
1564	7.8150e-01	-17.5166	-93.707029	0.000384	3.839534	1.300869	0.030652
1565	7.8200e-01	-17.4797	-93.565871	0.000354	3.536413	1.198169	0.028232
1566	7.8250e-01	-17.4428	-93.493275	0.000182	1.818727	0.616201	0.014519
1567	7.8300e-01	-17.3979	-93.400514	0.000232	2.323928	0.787368	0.018552
1568	7.8350e-01	-17.3626	-93.287587	0.000283	2.829130	0.958535	0.022585
1569	7.8400e-01	-17.3177	-93.093998	0.000485	4.849937	1.643203	0.038718
1570	7.8450e-01	-17.2824	-92.952840	0.000354	3.536413	1.198169	0.028232
1571	7.8500e-01	-17.2375	-92.803615	0.000374	3.738493	1.266636	0.029845
1572	7.8550e-01	-17.1990	-92.706821	0.000242	2.424969	0.821602	0.019359
1573	7.8600e-01	-17.1605	-92.497100	0.000525	5.254099	1.780137	0.041944
1574	7.8650e-01	-17.1124	-92.412405	0.000212	2.121848	0.718901	0.016939
1575	7.8700e-01	-17.0787	-92.243015	0.000424	4.243695	1.437803	0.033878
1576	7.8750e-01	-17.0434	-92.101856	0.000354	3.536413	1.198169	0.028232
1577	7.8800e-01	-17.0081	-91.996996	0.000263	2.627049	0.890068	0.020972
1578	7.8850e-01	-16.9503	-91.722745	0.000687	6.870745	2.327871	0.054850
1579	7.8900e-01	-16.9182	-91.593686	0.000323	3.233292	1.095469	0.025812
1580	7.8950e-01	-16.8813	-91.424296	0.000424	4.243695	1.437803	0.033878
1581	7.9000e-01	-16.8460	-91.367832	0.000141	1.414565	0.479268	0.011293
1582	7.9050e-01	-16.7979	-91.182310	0.000465	4.647857	1.574736	0.037105
1583	7.9100e-01	-16.7642	-91.105681	0.000192	1.919767	0.650435	0.015326
1584	7.9150e-01	-16.7193	-90.920158	0.000465	4.647857	1.574736	0.037105
1585	7.9200e-01	-16.6728	-90.722537	0.000495	4.950978	1.677437	0.039524
1586	7.9250e-01	-16.6311	-90.649941	0.000182	1.818727	0.616201	0.014519
1587	7.9300e-01	-16.5974	-90.492650	0.000394	3.940574	1.335103	0.031458
1588	7.9350e-01	-16.5573	-90.331326	0.000404	4.041614	1.369336	0.032265
1589	7.9400e-01	-16.5076	-90.157903	0.000434	4.344736	1.472036	0.034685
1590	7.9450e-01	-16.4803	-90.057075	0.000253	2.526009	0.855835	0.020165
1591	7.9500e-01	-16.4418	-89.875586	0.000455	4.546816	1.540503	0.036298
1592	7.9550e-01	-16.3985	-89.823156	0.000131	1.313525	0.445034	0.010486
1593	7.9600e-01	-16.3552	-89.661832	0.000404	4.041614	1.369336	0.032265
1594	7.9650e-01	-16.3247	-89.427912	0.000586	5.860341	1.985537	0.046784
1595	7.9700e-01	-16.2782	-89.254489	0.000434	4.344736	1.472036	0.034685
1596	7.9750e-01	-16.2380	-89.145595	0.000273	2.728090	0.924302	0.021779
1597	7.9800e-01	-16.1979	-89.000403	0.000364	3.637453	1.232402	0.029038
1598	7.9850e-01	-16.1642	-88.818914	0.000455	4.546816	1.540503	0.036298
1599	7.9900e-01	-16.1241	-88.714053	0.000263	2.627049	0.890068	0.020972
1600	7.9950e-01	-16.0840	-88.609193	0.000263	2.627049	0.890068	0.020972
1601	8.0000e-01	-16.0375	-88.359141	0.000626	6.264502	2.122471	0.050010
1602	8.0050e-01	-16.0054	-88.286545	0.000182	1.818727	0.616201	0.014519
1603	8.0100e-01	-15.9557	-88.141353	0.000364	3.637453	1.232402	0.029038
1604	8.0150e-01	-15.9124	-87.996162	0.000364	3.637453	1.232402	0.029038
1605	8.0200e-01	-15.8787	-87.814672	0.000455	4.546816	1.540503	0.036298
1606	8.0250e-01	-15.8466	-87.665448	0.000374	3.738493	1.266636	0.029845
1607	8.0300e-01	-15.8081	-87.423462	0.000606	6.062422	2.054004	0.048397
1608	8.0350e-01	-15.7552	-87.342800	0.000202	2.020807	0.684668	0.016132
1609	8.0400e-01	-15.7231	-87.181476	0.000404	4.041614	1.369336	0.032265
1610	8.0450e-01	-15.6734	-87.044351	0.000344	3.435372	1.163936	0.027425
1611	8.0500e-01	-15.6316	-86.939490	0.000263	2.627049	0.890068	0.020972
1612	8.0550e-01	-15.5931	-86.818497	0.000303	3.031211	1.027002	0.024199
1613	8.0600e-01	-15.5546	-86.737835	0.000202	2.020807	0.684668	0.016132
1614	8.0650e-01	-15.5177	-86.532147	0.000515	5.153058	1.745903	0.041138
1615	8.0700e-01	-15.4712	-86.407121	0.000313	3.132251	1.061235	0.025005
1616	8.0750e-01	-15.4279	-86.193367	0.000536	5.355139	1.814370	0.042751
1617	8.0800e-01	-15.4038	-86.060275	0.000333	3.334332	1.129702	0.026618
1618	8.0850e-01	-15.3653	-85.911050	0.000374	3.738493	1.266636	0.029845
1619	8.0900e-01	-15.3172	-85.681163	0.000576	5.759301	1.951304	0.045977
1620	8.0950e-01	-15.2787	-85.519839	0.000404	4.041614	1.369336	0.032265
1621	8.1000e-01	-15.2370	-85.447244	0.000182	1.818727	0.616201	0.014519
1622	8.1050e-01	-15.1921	-85.310118	0.000344	3.435372	1.163936	0.027425
1623	8.1100e-01	-15.1520	-85.160894	0.000374	3.738493	1.266636	0.029845
1624	8.1150e-01	-15.1263	-84.939073	0.000556	5.557220	1.882837	0.044364
1625	8.1200e-01	-15.0878	-84.801948	0.000344	3.435372	1.163936	0.027425
1626	8.1250e-01	-15.0429	-84.620458	0.000455	4.546816	1.540503	0.036298
1627	8.1300e-01	-14.9980	-84.455101	0.000414	4.142655	1.403569	0.033071
1628	8.1350e-01	-14.9579	-84.342175	0.000283	2.829130	0.958535	0.022585
1629	8.1400e-01	-14.9226	-84.180851	0.000404	4.041614	1.369336	0.032265
1630	8.1450e-01	-14.8744	-84.035659	0.000364	3.637453	1.232402	0.029038
1631	8.1500e-01	-14.8456	-83.866269	0.000424	4.243695	1.437803	0.033878
1632	8.1550e-01	-14.7974	-83.672680	0.000485	4.849937	1.643203	0.038718
1633	8.1600e-01	-14.7622	-83.592018	0.000202	2.020807	0.684668	0.016132
1634	8.1650e-01	-14.7253	-83.261304	0.000829	8.285310	2.807139	0.066143
1635	8.1700e-01	-14.6803	-83.116113	0.000364	3.637453	1.232402	0.029038
1636	8.1750e-01	-14.6354	-83.055616	0.000152	1.515605	0.513501	0.012099
1637	8.1800e-01	-14.5985	-82.934623	0.000303	3.031211	1.027002	0.024199
1638	8.1850e-01	-14.5568	-82.809597	0.000313	3.132251	1.061235	0.025005
1639	8.1900e-01	-14.5199	-82.648273	0.000404	4.041614	1.369336	0.032265
1640	8.1950e-01	-14.4734	-82.482916	0.000414	4.142655	1.403569	0.033071
1641	8.2000e-01	-14.4445	-82.313526	0.000424	4.243695	1.437803	0.033878
1642	8.2050e-01	-14.3980	-82.224798	0.000222	2.222888	0.753135	0.017746
1643	8.2100e-01	-14.3563	-82.019110	0.000515	5.153058	1.745903	0.041138
1644	8.2150e-01	-14.3162	-81.890051	0.000323	3.233292	1.095469	0.025812
1645	8.2200e-01	-14.2729	-81.688396	0.000505	5.052018	1.711670	0.040331
1646	8.2250e-01	-14.2392	-81.571436	0.000293	2.930170	0.992769	0.023392
1647	8.2300e-01	-14.2055	-81.406079	0.000414	4.142655	1.403569	0.033071
1648	8.2350e-01	-14.1590	-81.220556	0.000465	4.647857	1.574736	0.037105
1649	8.2400e-01	-14.1108	-81.224589	-0.000010	-0.101040	-0.034233	-0.000807
1650	8.2450e-01	-14.0707	-80.962438	0.000657	6.567624	2.225171	0.052430
1651	8.2500e-01	-14.0435	-80.837412	0.000313	3.132251	1.061235	0.025005
1652	8.2550e-01	-14.0017	-80.611558	0.000566	5.658260	1.917070	0.045171
1653	8.2600e-01	-13.9520	-80.486532	0.000313	3.132251	1.061235	0.025005
1654	8.2650e-01	-13.9263	-80.317142	0.000424	4.243695	1.437803	0.033878
1655	8.2700e-01	-13.8814	-80.059024	0.000647	6.466583	2.190938	0.051624
1656	8.2750e-01	-13.8397	-79.954163	0.000263	2.627049	0.890068	0.020972
1657	8.2800e-01	-13.7916	-79.796872	0.000394	3.940574	1.335103	0.031458
1658	8.2850e-01	-13.7515	-79.687979	0.000273	2.728090	0.924302	0.021779
1659	8.2900e-01	-13.7242	-79.466158	0.000556	5.557220	1.882837	0.044364
1660	8.2950e-01	-13.6793	-79.377430	0.000222	2.222888	0.753135	0.017746
1661	8.3000e-01	-13.6328	-79.236272	0.000354	3.536413	1.198169	0.028232
1662	8.3050e-01	-13.5895	-79.050749	0.000465	4.647857	1.574736	0.037105
1663	8.3100e-01	-13.5558	-78.881359	0.000424	4.243695	1.437803	0.033878
1664	8.3150e-01	-13.5141	-78.679704	0.000505	5.052018	1.711670	0.040331
1665	8.3200e-01	-13.4707	-78.542579	0.000344	3.435372	1.163936	0.027425
1666	8.3250e-01	-13.4354	-78.381255	0.000404	4.041614	1.369336	0.032265
1667	8.3300e-01	-13.3921	-78.288494	0.000232	2.323928	0.787368	0.018552
1668	8.3350e-01	-13.3520	-78.143302	0.000364	3.637453	1.232402	0.029038
1669	8.3400e-01	-13.3199	-77.917448	0.000566	5.658260	1.917070	0.045171
1670	8.3450e-01	-13.2782	-77.776290	0.000354	3.536413	1.198169	0.028232
1671	8.3500e-01	-13.2253	-77.602867	0.000434	4.344736	1.472036	0.034685
1672	8.3550e-01	-13.1948	-77.425410	0.000445	4.445776	1.506270	0.035491
1673	8.3600e-01	-13.1579	-77.296351	0.000323	3.233292	1.095469	0.025812
1674	8.3650e-01	-13.1178	-77.022101	0.000687	6.870745	2.327871	0.054850
1675	8.3700e-01	-13.0793	-76.913207	0.000273	2.728090	0.924302	0.021779
1676	8.3750e-01	-13.0296	-76.796247	0.000293	2.930170	0.992769	0.023392
1677	8.3800e-01	-13.0071	-76.642989	0.000384	3.839534	1.300869	0.030652
1678	8.3850e-01	-12.9590	-76.489732	0.000384	3.839534	1.300869	0.030652
1679	8.3900e-01	-12.9125	-76.235646	0.000637	6.365543	2.156704	0.050817
1680	8.3950e-01	-12.8708	-76.114653	0.000303	3.031211	1.027002	0.024199
1681	8.4000e-01	-12.8451	-75.896866	0.000546	5.456180	1.848604	0.043557
1682	8.4050e-01	-12.7938	-75.816204	0.000202	2.020807	0.684668	0.016132
1683	8.4100e-01	-12.7553	-75.650847	0.000414	4.142655	1.403569	0.033071
1684	8.4150e-01	-12.7280	-75.473391	0.000445	4.445776	1.506270	0.035491
1685	8.4200e-01	-12.6847	-75.320133	0.000384	3.839534	1.300869	0.030652
1686	8.4250e-01	-12.6446	-75.098313	0.000556	5.557220	1.882837	0.044364
1687	8.4300e-01	-12.5980	-74.993452	0.000263	2.627049	0.890068	0.020972
1688	8.4350e-01	-12.5595	-74.820029	0.000434	4.344736	1.472036	0.034685
1689	8.4400e-01	-12.5242	-74.634506	0.000465	4.647857	1.574736	0.037105
1690	8.4450e-01	-12.4745	-74.436884	0.000495	4.950978	1.677437	0.039524
1691	8.4500e-01	-12.4376	-74.352189	0.000212	2.121848	0.718901	0.016939
1692	8.4550e-01	-12.3927	-74.146501	0.000515	5.153058	1.745903	0.041138
1693	8.4600e-01	-12.3558	-73.952913	0.000485	4.849937	1.643203	0.038718
1694	8.4650e-01	-12.3157	-73.795622	0.000394	3.940574	1.335103	0.031458
1695	8.4700e-01	-12.2756	-73.598000	0.000495	4.950978	1.677437	0.039524
1696	8.4750e-01	-12.2419	-73.468941	0.000323	3.233292	1.095469	0.025812
1697	8.4800e-01	-12.1970	-73.259220	0.000525	5.254099	1.780137	0.041944
1698	8.4850e-01	-12.1601	-73.138227	0.000303	3.031211	1.027002	0.024199
1699	8.4900e-01	-12.1216	-72.924472	0.000536	5.355139	1.814370	0.042751
1700	8.4950e-01	-12.0670	-72.791380	0.000333	3.334332	1.129702	0.026618
1701	8.5000e-01	-12.0478	-72.589725	0.000505	5.052018	1.711670	0.040331
1702	8.5050e-01	-11.9965	-72.375971	0.000536	5.355139	1.814370	0.042751
1703	8.5100e-01	-11.9580	-72.242879	0.000333	3.334332	1.129702	0.026618
1704	8.5150e-01	-11.9098	-72.129952	0.000283	2.829130	0.958535	0.022585
1705	8.5200e-01	-11.8842	-71.928297	0.000505	5.052018	1.711670	0.040331
1706	8.5250e-01	-11.8296	-71.750841	0.000445	4.445776	1.506270	0.035491
1707	8.5300e-01	-11.7975	-71.537086	0.000536	5.355139	1.814370	0.042751
1708	8.5350e-01	-11.7703	-71.460458	0.000192	1.919767	0.650435	0.015326
1709	8.5400e-01	-11.7173	-71.250736	0.000525	5.254099	1.780137	0.041944
1710	8.5450e-01	-11.6836	-71.020850	0.000576	5.759301	1.951304	0.045977
1711	8.5500e-01	-11.6435	-70.891791	0.000323	3.233292	1.095469	0.025812
1712	8.5550e-01	-11.5938	-70.750632	0.000354	3.536413	1.198169	0.028232
1713	8.5600e-01	-11.5457	-70.645772	0.000263	2.627049	0.890068	0.020972
1714	8.5650e-01	-11.5152	-70.415885	0.000576	5.759301	1.951304	0.045977
1715	8.5700e-01	-11.4783	-70.185998	0.000576	5.759301	1.951304	0.045977
1716	8.5750e-01	-11.4334	-70.016608	0.000424	4.243695	1.437803	0.033878
1717	8.5800e-01	-11.3901	-69.867384	0.000374	3.738493	1.266636	0.029845
1718	8.5850e-01	-11.3644	-69.770589	0.000242	2.424969	0.821602	0.019359
1719	8.5900e-01	-11.3147	-69.540703	0.000576	5.759301	1.951304	0.045977
1720	8.5950e-01	-11.2729	-69.484239	0.000141	1.414565	0.479268	0.011293
1721	8.6000e-01	-11.2344	-69.173691	0.000778	7.780108	2.635972	0.062110
1722	8.6050e-01	-11.1927	-69.012367	0.000404	4.041614	1.369336	0.032265
1723	8.6100e-01	-11.1606	-68.875241	0.000344	3.435372	1.163936	0.027425
1724	8.6150e-01	-11.1221	-68.734083	0.000354	3.536413	1.198169	0.028232
1725	8.6200e-01	-11.0772	-68.512263	0.000556	5.557220	1.882837	0.044364
1726	8.6250e-01	-11.0307	-68.407402	0.000263	2.627049	0.890068	0.020972
1727	8.6300e-01	-10.9938	-68.137184	0.000677	6.769704	2.293638	0.054044
1728	8.6350e-01	-10.9521	-67.947629	0.000475	4.748897	1.608970	0.037911
1729	8.6400e-01	-10.9248	-67.834702	0.000283	2.829130	0.958535	0.022585
1730	8.6450e-01	-10.8735	-67.717742	0.000293	2.930170	0.992769	0.023392
1731	8.6500e-01	-10.8414	-67.443491	0.000687	6.870745	2.327871	0.054850
1732	8.6550e-01	-10.7981	-67.330565	0.000283	2.829130	0.958535	0.022585
1733	8.6600e-01	-10.7532	-67.141009	0.000475	4.748897	1.608970	0.037911
1734	8.6650e-01	-10.7211	-66.947420	0.000485	4.849937	1.643203	0.038718
1735	8.6700e-01	-10.6826	-66.749798	0.000495	4.950978	1.677437	0.039524
1736	8.6750e-01	-10.6505	-66.640905	0.000273	2.728090	0.924302	0.021779
1737	8.6800e-01	-10.5992	-66.483614	0.000394	3.940574	1.335103	0.031458
1738	8.6850e-01	-10.5559	-66.193231	0.000727	7.274906	2.464805	0.058077
1739	8.6900e-01	-10.5174	-66.048039	0.000364	3.637453	1.232402	0.029038
1740	8.6950e-01	-10.4772	-65.918980	0.000323	3.233292	1.095469	0.025812
1741	8.7000e-01	-10.4403	-65.757656	0.000404	4.041614	1.369336	0.032265
1742	8.7050e-01	-10.3970	-65.515670	0.000606	6.062422	2.054004	0.048397
1743	8.7100e-01	-10.3633	-65.398710	0.000293	2.930170	0.992769	0.023392
1744	8.7150e-01	-10.3232	-65.193022	0.000515	5.153058	1.745903	0.041138
1745	8.7200e-01	-10.2687	-65.031698	0.000404	4.041614	1.369336	0.032265
1746	8.7250e-01	-10.2302	-64.894573	0.000344	3.435372	1.163936	0.027425
1747	8.7300e-01	-10.1917	-64.700984	0.000485	4.849937	1.643203	0.038718
1748	8.7350e-01	-10.1660	-64.559826	0.000354	3.536413	1.198169	0.028232
1749	8.7400e-01	-10.1243	-64.350105	0.000525	5.254099	1.780137	0.041944
1750	8.7450e-01	-10.0762	-64.140384	0.000525	5.254099	1.780137	0.041944
1751	8.7500e-01	-10.0441	-63.874199	0.000667	6.668664	2.259404	0.053237
1752	8.7550e-01	-9.9912	-63.749173	0.000313	3.132251	1.061235	0.025005
1753	8.7600e-01	-9.9575	-63.608015	0.000354	3.536413	1.198169	0.028232
1754	8.7650e-01	-9.9093	-63.418459	0.000475	4.748897	1.608970	0.037911
1755	8.7700e-01	-9.8724	-63.241003	0.000445	4.445776	1.506270	0.035491
1756	8.7750e-01	-9.8404	-63.075646	0.000414	4.142655	1.403569	0.033071
1757	8.7800e-01	-9.7938	-62.845759	0.000576	5.759301	1.951304	0.045977
1758	8.7850e-01	-9.7553	-62.708634	0.000344	3.435372	1.163936	0.027425
1759	8.7900e-01	-9.7104	-62.442449	0.000667	6.668664	2.259404	0.053237
1760	8.7950e-01	-9.6639	-62.277092	0.000414	4.142655	1.403569	0.033071
1761	8.8000e-01	-9.6334	-62.168198	0.000273	2.728090	0.924302	0.021779
1762	8.8050e-01	-9.6045	-61.942345	0.000566	5.658260	1.917070	0.045171
1763	8.8100e-01	-9.5660	-61.744723	0.000495	4.950978	1.677437	0.039524
1764	8.8150e-01	-9.5195	-61.599532	0.000364	3.637453	1.232402	0.029038
1765	8.8200e-01	-9.4794	-61.401910	0.000495	4.950978	1.677437	0.039524
1766	8.8250e-01	-9.4313	-61.228486	0.000434	4.344736	1.472036	0.034685
1767	8.8300e-01	-9.3976	-61.075229	0.000384	3.839534	1.300869	0.030652
1768	8.8350e-01	-9.3623	-60.877607	0.000495	4.950978	1.677437	0.039524
1769	8.8400e-01	-9.3126	-60.712250	0.000414	4.142655	1.403569	0.033071
1770	8.8450e-01	-9.2741	-60.587224	0.000313	3.132251	1.061235	0.025005
1771	8.8500e-01	-9.2420	-60.365403	0.000556	5.557220	1.882837	0.044364
1772	8.8550e-01	-9.1923	-60.187947	0.000445	4.445776	1.506270	0.035491
1773	8.8600e-01	-9.1618	-59.921762	0.000667	6.668664	2.259404	0.053237
1774	8.8650e-01	-9.1185	-59.712041	0.000525	5.254099	1.780137	0.041944
1775	8.8700e-01	-9.0832	-59.587015	0.000313	3.132251	1.061235	0.025005
1776	8.8750e-01	-9.0350	-59.421658	0.000414	4.142655	1.403569	0.033071
1777	8.8800e-01	-9.0062	-59.215970	0.000515	5.153058	1.745903	0.041138
1778	8.8850e-01	-8.9677	-59.030448	0.000465	4.647857	1.574736	0.037105
1779	8.8900e-01	-8.9211	-58.852991	0.000445	4.445776	1.506270	0.035491
1780	8.8950e-01	-8.8762	-58.703767	0.000374	3.738493	1.266636	0.029845
1781	8.9000e-01	-8.8377	-58.586807	0.000293	2.930170	0.992769	0.023392
1782	8.9050e-01	-8.7880	-58.312556	0.000687	6.870745	2.327871	0.054850
1783	8.9100e-01	-8.7527	-58.123001	0.000475	4.748897	1.608970	0.037911
1784	8.9150e-01	-8.7190	-57.852783	0.000677	6.769704	2.293638	0.054044
1785	8.9200e-01	-8.6789	-57.852783	0.000000	0.000000	0.000000	0.000000
1786	8.9250e-01	-8.6356	-57.574499	0.000697	6.971785	2.362105	0.055657
1787	8.9300e-01	-8.6003	-57.296215	0.000697	6.971785	2.362105	0.055657
1788	8.9350e-01	-8.5474	-57.219586	0.000192	1.919767	0.650435	0.015326
1789	8.9400e-01	-8.5153	-56.953402	0.000667	6.668664	2.259404	0.053237
1790	8.9450e-01	-8.4752	-56.747714	0.000515	5.153058	1.745903	0.041138
1791	8.9500e-01	-8.4174	-56.832409	-0.000212	-2.121848	-0.718901	-0.016939
1792	8.9550e-01	-8.3998	-56.445231	0.000970	9.699875	3.286407	0.077435
1793	8.9600e-01	-8.3548	-56.199212	0.000616	6.163462	2.088237	0.049204
1794	8.9650e-01	-8.3179	-56.021756	0.000445	4.445776	1.506270	0.035491
1795	8.9700e-01	-8.2843	-55.812035	0.000525	5.254099	1.780137	0.041944
1796	8.9750e-01	-8.2297	-55.634579	0.000445	4.445776	1.506270	0.035491
1797	8.9800e-01	-8.2024	-55.465189	0.000424	4.243695	1.437803	0.033878
1798	8.9850e-01	-8.1543	-55.315964	0.000374	3.738493	1.266636	0.029845
1799	8.9900e-01	-8.1222	-55.090110	0.000566	5.658260	1.917070	0.045171
1800	8.9950e-01	-8.0757	-54.856191	0.000586	5.860341	1.985537	0.046784
1801	9.0000e-01	-8.0356	-54.654536	0.000505	5.052018	1.711670	0.040331
1802	9.0050e-01	-7.9859	-54.460947	0.000485	4.849937	1.643203	0.038718
1803	9.0100e-01	-7.9522	-54.255259	0.000515	5.153058	1.745903	0.041138
1804	9.0150e-01	-7.9137	-54.138299	0.000293	2.930170	0.992769	0.023392
1805	9.0200e-01	-7.8784	-53.908412	0.000576	5.759301	1.951304	0.045977
1806	9.0250e-01	-7.8367	-53.690625	0.000546	5.456180	1.848604	0.043557
1807	9.0300e-01	-7.7998	-53.464772	0.000566	5.658260	1.917070	0.045171
1808	9.0350e-01	-7.7613	-53.343779	0.000303	3.031211	1.027002	0.024199
1809	9.0400e-01	-7.7244	-53.069528	0.000687	6.870745	2.327871	0.054850
1810	9.0450e-01	-7.6779	-52.956601	0.000283	2.829130	0.958535	0.022585
1811	9.0500e-01	-7.6361	-52.819476	0.000344	3.435372	1.163936	0.027425
1812	9.0550e-01	-7.6009	-52.658152	0.000404	4.041614	1.369336	0.032265
1813	9.0600e-01	-7.5575	-52.408100	0.000626	6.264502	2.122471	0.050010
1814	9.0650e-01	-7.5158	-52.178213	0.000576	5.759301	1.951304	0.045977
1815	9.0700e-01	-7.4757	-51.972525	0.000515	5.153058	1.745903	0.041138
1816	9.0750e-01	-7.4340	-51.766837	0.000515	5.153058	1.745903	0.041138
1817	9.0800e-01	-7.3923	-51.476454	0.000727	7.274906	2.464805	0.058077
1818	9.0850e-01	-7.3586	-51.407891	0.000172	1.717686	0.581968	0.013713
1819	9.0900e-01	-7.3217	-51.186071	0.000556	5.557220	1.882837	0.044364
1820	9.0950e-01	-7.2736	-50.972317	0.000536	5.355139	1.814370	0.042751
1821	9.1000e-01	-7.2367	-50.843258	0.000323	3.233292	1.095469	0.025812
1822	9.1050e-01	-7.1854	-50.641603	0.000505	5.052018	1.711670	0.040331
1823	9.1100e-01	-7.1517	-50.452047	0.000475	4.748897	1.608970	0.037911
1824	9.1150e-01	-7.1164	-50.274591	0.000445	4.445776	1.506270	0.035491
1825	9.1200e-01	-7.0859	-49.960009	0.000788	7.881148	2.670205	0.062916
1826	9.1250e-01	-7.0522	-49.798685	0.000404	4.041614	1.369336	0.032265
1827	9.1300e-01	-7.0025	-49.661560	0.000344	3.435372	1.163936	0.027425
1828	9.1350e-01	-6.9608	-49.492169	0.000424	4.243695	1.437803	0.033878
1829	9.1400e-01	-6.9142	-49.294548	0.000495	4.950978	1.677437	0.039524
1830	9.1450e-01	-6.8773	-49.044496	0.000626	6.264502	2.122471	0.050010
1831	9.1500e-01	-6.8404	-48.814609	0.000576	5.759301	1.951304	0.045977
1832	9.1550e-01	-6.7923	-48.665384	0.000374	3.738493	1.266636	0.029845
1833	9.1600e-01	-6.7490	-48.419365	0.000616	6.163462	2.088237	0.049204
1834	9.1650e-01	-6.7121	-48.262074	0.000394	3.940574	1.335103	0.031458
1835	9.1700e-01	-6.6752	-48.044287	0.000546	5.456180	1.848604	0.043557
1836	9.1750e-01	-6.6287	-47.766003	0.000697	6.971785	2.362105	0.055657
1837	9.1800e-01	-6.5934	-47.596613	0.000424	4.243695	1.437803	0.033878
1838	9.1850e-01	-6.5533	-47.378826	0.000546	5.456180	1.848604	0.043557
1839	9.1900e-01	-6.5148	-47.221535	0.000394	3.940574	1.335103	0.031458
1840	9.1950e-01	-6.4795	-46.898887	0.000808	8.083229	2.738672	0.064530
1841	9.2000e-01	-6.4410	-46.737563	0.000404	4.041614	1.369336	0.032265
1842	9.2050e-01	-6.3929	-46.648835	0.000222	2.222888	0.753135	0.017746
1843	9.2100e-01	-6.3576	-46.418948	0.000576	5.759301	1.951304	0.045977
1844	9.2150e-01	-6.3207	-46.193095	0.000566	5.658260	1.917070	0.045171
1845	9.2200e-01	-6.2822	-46.003539	0.000475	4.748897	1.608970	0.037911
1846	9.2250e-01	-6.2485	-45.834149	0.000424	4.243695	1.437803	0.033878
1847	9.2300e-01	-6.1988	-45.656693	0.000445	4.445776	1.506270	0.035491
1848	9.2350e-01	-6.1667	-45.418740	0.000596	5.961381	2.019771	0.047591
1849	9.2400e-01	-6.1137	-45.204986	0.000536	5.355139	1.814370	0.042751
1850	9.2450e-01	-6.0816	-45.088026	0.000293	2.930170	0.992769	0.023392
1851	9.2500e-01	-6.0496	-44.769411	0.000798	7.982189	2.704439	0.063723
1852	9.2550e-01	-6.0030	-44.837974	-0.000172	-1.717686	-0.581968	-0.013713
1853	9.2600e-01	-5.9533	-44.366101	0.001182	11.821722	4.005308	0.094375
1854	9.2650e-01	-5.9164	-44.160413	0.000515	5.153058	1.745903	0.041138
1855	9.2700e-01	-5.8859	-43.995056	0.000414	4.142655	1.403569	0.033071
1856	9.2750e-01	-5.8554	-43.724838	0.000677	6.769704	2.293638	0.054044
1857	9.2800e-01	-5.8041	-43.470753	0.000637	6.365543	2.156704	0.050817
1858	9.2850e-01	-5.7704	-43.410257	0.000152	1.515605	0.513501	0.012099
1859	9.2900e-01	-5.7191	-43.144072	0.000667	6.668664	2.259404	0.053237
1860	9.2950e-01	-5.6870	-42.950484	0.000485	4.849937	1.643203	0.038718
1861	9.3000e-01	-5.6357	-42.752862	0.000495	4.950978	1.677437	0.039524
1862	9.3050e-01	-5.5988	-42.756895	-0.000010	-0.101040	-0.034233	-0.000807
1863	9.3100e-01	-5.5522	-42.385850	0.000930	9.295713	3.149473	0.074209
1864	9.3150e-01	-5.5266	-42.091434	0.000738	7.375946	2.499038	0.058883
1865	9.3200e-01	-5.4720	-41.813150	0.000697	6.971785	2.362105	0.055657
1866	9.3250e-01	-5.4319	-41.563098	0.000626	6.264502	2.122471	0.050010
1867	9.3300e-01	-5.3982	-41.466303	0.000242	2.424969	0.821602	0.019359
1868	9.3350e-01	-5.3597	-41.163821	0.000758	7.578027	2.567505	0.060496
1869	9.3400e-01	-5.3164	-41.026696	0.000344	3.435372	1.163936	0.027425
1870	9.3450e-01	-5.2763	-40.833107	0.000485	4.849937	1.643203	0.038718
1871	9.3500e-01	-5.2458	-40.623386	0.000525	5.254099	1.780137	0.041944
1872	9.3550e-01	-5.2041	-40.506426	0.000293	2.930170	0.992769	0.023392
1873	9.3600e-01	-5.1560	-40.240241	0.000667	6.668664	2.259404	0.053237
1874	9.3650e-01	-5.1111	-39.978090	0.000657	6.567624	2.225171	0.052430
1875	9.3700e-01	-5.0838	-39.808700	0.000424	4.243695	1.437803	0.033878
1876	9.3750e-01	-5.0357	-39.631243	0.000445	4.445776	1.506270	0.035491
1877	9.3800e-01	-5.0036	-39.340860	0.000727	7.274906	2.464805	0.058077
1878	9.3850e-01	-4.9651	-39.171470	0.000424	4.243695	1.437803	0.033878
1879	9.3900e-01	-4.9250	-38.885120	0.000717	7.173866	2.430571	0.057270
1880	9.3950e-01	-4.8721	-38.635068	0.000626	6.264502	2.122471	0.050010
1881	9.4000e-01	-4.8432	-38.429380	0.000515	5.153058	1.745903	0.041138
1882	9.4050e-01	-4.8063	-38.211593	0.000546	5.456180	1.848604	0.043557
1883	9.4100e-01	-4.7582	-38.013971	0.000495	4.950978	1.677437	0.039524
1884	9.4150e-01	-4.7148	-37.832481	0.000455	4.546816	1.540503	0.036298
1885	9.4200e-01	-4.6844	-37.554198	0.000697	6.971785	2.362105	0.055657
1886	9.4250e-01	-4.6378	-37.421105	0.000333	3.334332	1.129702	0.026618
1887	9.4300e-01	-4.6025	-37.223484	0.000495	4.950978	1.677437	0.039524
1888	9.4350e-01	-4.5544	-36.929067	0.000738	7.375946	2.499038	0.058883
1889	9.4400e-01	-4.5143	-36.739512	0.000475	4.748897	1.608970	0.037911
1890	9.4450e-01	-4.4838	-36.525757	0.000536	5.355139	1.814370	0.042751
1891	9.4500e-01	-4.4437	-36.291838	0.000586	5.860341	1.985537	0.046784
1892	9.4550e-01	-4.4020	-36.082117	0.000525	5.254099	1.780137	0.041944
1893	9.4600e-01	-4.3603	-35.880462	0.000505	5.052018	1.711670	0.040331
1894	9.4650e-01	-4.3170	-35.658641	0.000556	5.557220	1.882837	0.044364
1895	9.4700e-01	-4.2817	-35.549748	0.000273	2.728090	0.924302	0.021779
1896	9.4750e-01	-4.2384	-35.210967	0.000849	8.487390	2.875606	0.067756
1897	9.4800e-01	-4.1999	-34.993180	0.000546	5.456180	1.848604	0.043557
1898	9.4850e-01	-4.1550	-34.799591	0.000485	4.849937	1.643203	0.038718
1899	9.4900e-01	-4.1229	-34.513241	0.000717	7.173866	2.430571	0.057270
1900	9.4950e-01	-4.0731	-34.376116	0.000344	3.435372	1.163936	0.027425
1901	9.5000e-01	-4.0507	-34.093799	0.000707	7.072825	2.396338	0.056463
1902	9.5050e-01	-3.9977	-33.892144	0.000505	5.052018	1.711670	0.040331
1903	9.5100e-01	-3.9673	-33.670324	0.000556	5.557220	1.882837	0.044364
1904	9.5150e-01	-3.9127	-33.420272	0.000626	6.264502	2.122471	0.050010
1905	9.5200e-01	-3.8790	-33.246848	0.000434	4.344736	1.472036	0.034685
1906	9.5250e-01	-3.8421	-32.956465	0.000727	7.274906	2.464805	0.058077
1907	9.5300e-01	-3.7956	-32.666082	0.000727	7.274906	2.464805	0.058077
1908	9.5350e-01	-3.7587	-32.508791	0.000394	3.940574	1.335103	0.031458
1909	9.5400e-01	-3.7218	-32.278905	0.000576	5.759301	1.951304	0.045977
1910	9.5450e-01	-3.6881	-32.109515	0.000424	4.243695	1.437803	0.033878
1911	9.5500e-01	-3.6400	-31.802999	0.000768	7.679068	2.601738	0.061303
1912	9.5550e-01	-3.6079	-31.706205	0.000242	2.424969	0.821602	0.019359
1913	9.5600e-01	-3.5534	-31.399689	0.000768	7.679068	2.601738	0.061303
1914	9.5650e-01	-3.5245	-31.194001	0.000515	5.153058	1.745903	0.041138
1915	9.5700e-01	-3.4844	-30.984280	0.000525	5.254099	1.780137	0.041944
1916	9.5750e-01	-3.4443	-30.697930	0.000717	7.173866	2.430571	0.057270
1917	9.5800e-01	-3.3946	-30.395448	0.000758	7.578027	2.567505	0.060496
1918	9.5850e-01	-3.3545	-30.217991	0.000445	4.445776	1.506270	0.035491
1919	9.5900e-01	-3.3192	-30.008270	0.000525	5.254099	1.780137	0.041944
1920	9.5950e-01	-3.2839	-29.822748	0.000465	4.647857	1.574736	0.037105
1921	9.6000e-01	-3.2454	-29.528331	0.000738	7.375946	2.499038	0.058883
1922	9.6050e-01	-3.1876	-29.326676	0.000505	5.052018	1.711670	0.040331
1923	9.6100e-01	-3.1619	-29.072591	0.000637	6.365543	2.156704	0.050817
1924	9.6150e-01	-3.1218	-28.830605	0.000606	6.062422	2.054004	0.048397
1925	9.6200e-01	-3.0721	-28.560388	0.000677	6.769704	2.293638	0.054044
1926	9.6250e-01	-3.0304	-28.451494	0.000273	2.728090	0.924302	0.021779
1927	9.6300e-01	-2.9999	-28.193376	0.000647	6.466583	2.190938	0.051624
1928	9.6350e-01	-2.9662	-27.866695	0.000818	8.184269	2.772906	0.065336
1929	9.6400e-01	-2.9181	-27.665040	0.000505	5.052018	1.711670	0.040331
1930	9.6450e-01	-2.8812	-27.459352	0.000515	5.153058	1.745903	0.041138
1931	9.6500e-01	-2.8379	-27.370624	0.000222	2.222888	0.753135	0.017746
1932	9.6550e-01	-2.8010	-27.116538	0.000637	6.365543	2.156704	0.050817
1933	9.6600e-01	-2.7609	-26.882619	0.000586	5.860341	1.985537	0.046784
1934	9.6650e-01	-2.7192	-26.543838	0.000849	8.487390	2.875606	0.067756
1935	9.6700e-01	-2.6791	-26.289753	0.000637	6.365543	2.156704	0.050817
1936	9.6750e-01	-2.6406	-26.063900	0.000566	5.658260	1.917070	0.045171
1937	9.6800e-01	-2.5956	-25.874344	0.000475	4.748897	1.608970	0.037911
1938	9.6850e-01	-2.5571	-25.604126	0.000677	6.769704	2.293638	0.054044
1939	9.6900e-01	-2.5154	-25.382306	0.000556	5.557220	1.882837	0.044364
1940	9.6950e-01	-2.4753	-25.188717	0.000485	4.849937	1.643203	0.038718
1941	9.7000e-01	-2.4481	-24.841871	0.000869	8.689471	2.944073	0.069369
1942	9.7050e-01	-2.4096	-24.648282	0.000485	4.849937	1.643203	0.038718
1943	9.7100e-01	-2.3630	-24.329667	0.000798	7.982189	2.704439	0.063723
1944	9.7150e-01	-2.3165	-24.164310	0.000414	4.142655	1.403569	0.033071
1945	9.7200e-01	-2.2860	-23.886026	0.000697	6.971785	2.362105	0.055657
1946	9.7250e-01	-2.2395	-23.640007	0.000616	6.163462	2.088237	0.049204
1947	9.7300e-01	-2.1994	-23.422220	0.000546	5.456180	1.848604	0.043557
1948	9.7350e-01	-2.1609	-23.196367	0.000566	5.658260	1.917070	0.045171
1949	9.7400e-01	-2.1208	-23.035043	0.000404	4.041614	1.369336	0.032265
1950	9.7450e-01	-2.0759	-22.776924	0.000647	6.466583	2.190938	0.051624
1951	9.7500e-01	-2.0454	-22.454276	0.000808	8.083229	2.738672	0.064530
1952	9.7550e-01	-1.9989	-22.147761	0.000768	7.679068	2.601738	0.061303
1953	9.7600e-01	-1.9620	-21.885610	0.000657	6.567624	2.225171	0.052430
1954	9.7650e-01	-1.9155	-21.736385	0.000374	3.738493	1.266636	0.029845
1955	9.7700e-01	-1.8818	-21.433903	0.000758	7.578027	2.567505	0.060496
1956	9.7750e-01	-1.8417	-21.155619	0.000697	6.971785	2.362105	0.055657
1957	9.7800e-01	-1.8016	-20.982195	0.000434	4.344736	1.472036	0.034685
1958	9.7850e-01	-1.7582	-20.740210	0.000606	6.062422	2.054004	0.048397
1959	9.7900e-01	-1.7246	-20.421595	0.000798	7.982189	2.704439	0.063723
1960	9.7950e-01	-1.6812	-20.203807	0.000546	5.456180	1.848604	0.043557
1961	9.8000e-01	-1.6411	-19.998119	0.000515	5.153058	1.745903	0.041138
1962	9.8050e-01	-1.5946	-19.760167	0.000596	5.961381	2.019771	0.047591
1963	9.8100e-01	-1.5545	-19.461717	0.000748	7.476987	2.533272	0.059690
1964	9.8150e-01	-1.5064	-19.268129	0.000485	4.849937	1.643203	0.038718
1965	9.8200e-01	-1.4823	-18.997911	0.000677	6.769704	2.293638	0.054044
1966	9.8250e-01	-1.4358	-18.691395	0.000768	7.679068	2.601738	0.061303
1967	9.8300e-01	-1.3989	-18.421178	0.000677	6.769704	2.293638	0.054044
1968	9.8350e-01	-1.3540	-18.199357	0.000556	5.557220	1.882837	0.044364
1969	9.8400e-01	-1.3299	-17.921074	0.000697	6.971785	2.362105	0.055657
1970	9.8450e-01	-1.2818	-17.679088	0.000606	6.062422	2.054004	0.048397
1971	9.8500e-01	-1.2433	-17.412903	0.000667	6.668664	2.259404	0.053237
1972	9.8550e-01	-1.2016	-17.086222	0.000818	8.184269	2.772906	0.065336
1973	9.8600e-01	-1.1599	-16.973295	0.000283	2.829130	0.958535	0.022585
1974	9.8650e-01	-1.1165	-16.666780	0.000768	7.679068	2.601738	0.061303
1975	9.8700e-01	-1.0780	-16.489324	0.000445	4.445776	1.506270	0.035491
1976	9.8750e-01	-1.0331	-16.267503	0.000556	5.557220	1.882837	0.044364
1977	9.8800e-01	-0.9978	-15.900491	0.000919	9.194673	3.115240	0.073402
1978	9.8850e-01	-0.9545	-15.662538	0.000596	5.961381	2.019771	0.047591
1979	9.8900e-01	-0.9112	-15.372155	0.000727	7.274906	2.464805	0.058077
1980	9.8950e-01	-0.8807	-15.122103	0.000626	6.264502	2.122471	0.050010
1981	9.9000e-01	-0.8342	-14.823654	0.000748	7.476987	2.533272	0.059690
1982	9.9050e-01	-0.8021	-14.541337	0.000707	7.072825	2.396338	0.056463
1983	9.9100e-01	-0.7492	-14.275153	0.000667	6.668664	2.259404	0.053237
1984	9.9150e-01	-0.7203	-14.049299	0.000566	5.658260	1.917070	0.045171
1985	9.9200e-01	-0.6738	-13.823445	0.000566	5.658260	1.917070	0.045171
1986	9.9250e-01	-0.6401	-13.577426	0.000616	6.163462	2.088237	0.049204
1987	9.9300e-01	-0.5968	-13.383838	0.000485	4.849937	1.643203	0.038718
1988	9.9350e-01	-0.5599	-13.069256	0.000788	7.881148	2.670205	0.062916
1989	9.9400e-01	-0.5166	-12.811138	0.000647	6.466583	2.190938	0.051624
1990	9.9450e-01	-0.4765	-12.496556	0.000788	7.881148	2.670205	0.062916
1991	9.9500e-01	-0.4364	-12.323133	0.000434	4.344736	1.472036	0.034685
1992	9.9550e-01	-0.3962	-11.988386	0.000839	8.386350	2.841372	0.066949
1993	9.9600e-01	-0.3561	-11.693969	0.000738	7.375946	2.499038	0.058883
1994	9.9650e-01	-0.3208	-11.439884	0.000637	6.365543	2.156704	0.050817
1995	9.9700e-01	-0.2872	-11.149501	0.000727	7.274906	2.464805	0.058077
1996	9.9750e-01	-0.2326	-11.000276	0.000374	3.738493	1.266636	0.029845
1997	9.9800e-01	-0.1909	-10.387245	0.001536	15.358135	5.203477	0.122606
1998	9.9850e-01	-0.1556	-10.371113	0.000040	0.404161	0.136934	0.003226
1999	9.9900e-01	-0.1219	-10.117028	0.000637	6.365543	2.156704	0.050817
2000	9.9950e-01	-0.0690	-9.830678	0.000717	7.173866	2.430571	0.057270
2001	1.0000e+00	-0.0369	-9.620957	0.000717	7.173866	2.430571	0.041944

Center data before PMax,+/-Pr and +/-Vc Calc.

PMax (uC/cm2):	1.01e+02
Pr (uC/cm2):	2.80e+00
-Pr (uC/cm2):	-9.62e+00
PLoss (uC/cm2):	-6.41e+00
Vc:	5.58e-01
-Vc:	-4.30e-01
C (Max-Eff) (nF):	5.07e-01
K (Eff):	1.72e+03
Vert. (+/-Pr) Shift (uC/cm2):	-3.41e+00
Horiz. Shift (+/-Vc):	6.42e-02
Offset (uC/cm2):	3.18e+00

A (Loop Area - uC/cm2·Volts):	-6.96e-02



Hysteresis Version: 5.48.1 - Radiant Technologies, Inc., 1999 - 9/12/24

