»»»»»»»»»»»»»»»»»»»»»»»»»»»»»»»»»»»» Hysteresis ««««««««««««««««««««««««««««««««««««
»»»  Executed Version:	5.48.1
»»»  Vision Version:	5.48.4 (R)
»»»  Vision Compiled:	9/18/24
»»»  Driver Version:	5.47.0
»»»  Windows Version:	Windows 8 or 8.1
»»»  Processor Information:	x86 (AMD or Intel) - 32 Processors
»»»  Tester Name:	PMF21124-494 (100V)
»»»  Tester S/N:	PMF21124-494
»»»  Internal Amp Type:	100V RevK 270k
»»»  Internal Amp S/N:	iAB2-596/K     
»»»  Execution Count:	1
»»»»»»»»»»»»»»»»»»»»»»»»»»»»»»»»»»»»»»»»»»««««««««««««««««««««««««««««««««««««««««««

Stored:	6/4/2025 - 16:55:15
Configured:	06/04/25 04:39:58 PM
Executed:	06/04/25 04:54:37 PM

»»»»»»»»»»»»»»»»»»»»»»»»»»»»»»»»»»» Sample Info ««««««««««««««««««««««««««««««««««««
Sample Name:	
Lot Name:	
Wafer Name:	
Die Row/Column:	0/0
Capacitor Number:	0
Sample Area (cm2):	1.00e-04
Sample Thickness (microns):	3.00e-01

Amplifier:	Internal

»»»»»»»»»»»»»»»»»»»»»»»»»»»»»»»»»»» Tester Info «««««««««««««««««««««««««««««««««««
Tester Name:	PMF21124-494 (100V)
Tester Serial Number:	PMF21124-494
Return Signal Amp. Level:	0.19 [Index: 3]

»»»»»»»»»»»»»»»»»»»»»»»»»»»»»»»» Hysteresis Info ««««««««««««««««««««««««««««««««««
Task Name:	Hyst-147
Volts:	20.00
Field:	666.67 (kV/cm)
DCBias:	0.00
DCField:	0.00 (kV/cm)
Hysteresis Period (ms):	2.00e+02
Preset:	Enabled
Preset Delay (ms):	1.00e+03
Profile:	Standard Bipolar

»»»»»»»»»»»»»»»»»»»»»»»»»»»»»»»»»»»»»» Data «««««««««««««««««««««««««««««««««««««««
Points:	2009

Valid Data

Point	Time (ms)	Drive Voltage	Measured Polarization (uC/cm2)	Capacitance (uF)	Normalized Capacitance (uF/cm2)	Dielectric Constant	Instantaneous Current (mA)
   1	0.0000e+00	-0.0112	-5.625749	0.000365	3.646718	1.235542	0.000146
   2	9.9500e-02	0.0096	-5.480412	0.000365	3.646718	1.235542	0.000146
   3	1.9900e-01	0.0545	-5.217998	0.000658	6.584352	2.230839	0.000264
   4	2.9850e-01	0.0898	-4.923287	0.000739	7.394734	2.505404	0.000296
   5	3.9800e-01	0.1332	-4.697207	0.000567	5.672673	1.921954	0.000227
   6	4.9750e-01	0.1717	-4.467091	0.000577	5.773970	1.956274	0.000231
   7	5.9700e-01	0.2150	-4.176417	0.000729	7.293436	2.471083	0.000292
   8	6.9650e-01	0.2503	-3.958412	0.000547	5.470077	1.853312	0.000219
   9	7.9600e-01	0.3000	-3.704072	0.000638	6.381757	2.162198	0.000256
  10	8.9550e-01	0.3353	-3.465881	0.000598	5.976566	2.024915	0.000239
  11	9.9500e-01	0.3722	-3.211541	0.000638	6.381757	2.162198	0.000256
  12	1.0945e+00	0.4139	-2.945091	0.000669	6.685650	2.265160	0.000268
  13	1.1940e+00	0.4492	-2.710937	0.000588	5.875268	1.990595	0.000235
  14	1.2935e+00	0.5005	-2.428337	0.000709	7.090841	2.402442	0.000284
  15	1.3930e+00	0.5358	-2.149775	0.000699	6.989543	2.368121	0.000280
  16	1.4925e+00	0.5727	-1.935807	0.000537	5.368779	1.818992	0.000215
  17	1.5920e+00	0.6176	-1.681467	0.000638	6.381757	2.162198	0.000256
  18	1.6915e+00	0.6481	-1.366570	0.000790	7.901223	2.677007	0.000316
  19	1.7910e+00	0.6994	-1.128379	0.000598	5.976566	2.024915	0.000239
  20	1.8905e+00	0.7347	-0.882114	0.000618	6.179161	2.093557	0.000248
  21	1.9900e+00	0.7748	-0.635849	0.000618	6.179161	2.093557	0.000248
  22	2.0895e+00	0.8166	-0.357287	0.000699	6.989543	2.368121	0.000280
  23	2.1890e+00	0.8567	-0.143318	0.000537	5.368779	1.818992	0.000215
  24	2.2885e+00	0.8920	0.139281	0.000709	7.090841	2.402442	0.000284
  25	2.3880e+00	0.9337	0.429955	0.000729	7.293436	2.471083	0.000292
  26	2.4875e+00	0.9706	0.704480	0.000689	6.888245	2.333801	0.000276
  27	2.5870e+00	1.0091	0.966894	0.000658	6.584352	2.230839	0.000264
  28	2.6865e+00	1.0476	1.213159	0.000618	6.179161	2.093557	0.000248
  29	2.7860e+00	1.0845	1.471536	0.000648	6.483054	2.196518	0.000260
  30	2.8855e+00	1.1342	1.733950	0.000658	6.584352	2.230839	0.000264
  31	2.9850e+00	1.1743	2.032698	0.000750	7.496032	2.539724	0.000300
  32	3.0845e+00	1.2176	2.238592	0.000517	5.166184	1.750351	0.000207
  33	3.1840e+00	1.2529	2.561563	0.000810	8.103818	2.745648	0.000325
  34	3.2835e+00	1.2930	2.799754	0.000598	5.976566	2.024915	0.000239
  35	3.3830e+00	1.3395	3.033908	0.000588	5.875268	1.990595	0.000235
  36	3.4825e+00	1.3684	3.316507	0.000709	7.090841	2.402442	0.000284
  37	3.5820e+00	1.4214	3.615255	0.000750	7.496032	2.539724	0.000300
  38	3.6815e+00	1.4470	3.881706	0.000669	6.685650	2.265160	0.000268
  39	3.7810e+00	1.4951	4.132008	0.000628	6.280459	2.127877	0.000252
  40	3.8805e+00	1.5320	4.382311	0.000628	6.280459	2.127877	0.000252
  41	3.9800e+00	1.5545	4.672985	0.000729	7.293436	2.471083	0.000292
  42	4.0795e+00	1.6058	4.915213	0.000608	6.077864	2.059236	0.000243
  43	4.1790e+00	1.6508	5.189738	0.000689	6.888245	2.333801	0.000276
  44	4.2785e+00	1.6941	5.444078	0.000638	6.381757	2.162198	0.000256
  45	4.3780e+00	1.7342	5.714566	0.000679	6.786948	2.299480	0.000272
  46	4.4775e+00	1.7711	5.972942	0.000648	6.483054	2.196518	0.000260
  47	4.5770e+00	1.8048	6.247468	0.000689	6.888245	2.333801	0.000276
  48	4.6765e+00	1.8529	6.485659	0.000598	5.976566	2.024915	0.000239
  49	4.7760e+00	1.8898	6.792481	0.000770	7.698627	2.608365	0.000308
  50	4.8755e+00	1.9315	7.038746	0.000618	6.179161	2.093557	0.000248
  51	4.9750e+00	1.9652	7.293086	0.000638	6.381757	2.162198	0.000256
  52	5.0745e+00	2.0069	7.535314	0.000608	6.077864	2.059236	0.000243
  53	5.1740e+00	2.0566	7.813876	0.000699	6.989543	2.368121	0.000280
  54	5.2735e+00	2.0807	8.096476	0.000709	7.090841	2.402442	0.000284
  55	5.3730e+00	2.1288	8.330630	0.000588	5.875268	1.990595	0.000235
  56	5.4725e+00	2.1657	8.629378	0.000750	7.496032	2.539724	0.000300
  57	5.5720e+00	2.2122	8.899866	0.000679	6.786948	2.299480	0.000272
  58	5.6715e+00	2.2507	9.146131	0.000618	6.179161	2.093557	0.000248
  59	5.7710e+00	2.2860	9.404508	0.000648	6.483054	2.196518	0.000260
  60	5.8705e+00	2.3310	9.666922	0.000658	6.584352	2.230839	0.000264
  61	5.9700e+00	2.3630	9.945484	0.000699	6.989543	2.368121	0.000280
  62	6.0695e+00	2.4096	10.175601	0.000577	5.773970	1.956274	0.000231
  63	6.1690e+00	2.4465	10.450126	0.000689	6.888245	2.333801	0.000276
  64	6.2685e+00	2.4898	10.724651	0.000689	6.888245	2.333801	0.000276
  65	6.3680e+00	2.5235	10.999176	0.000689	6.888245	2.333801	0.000276
  66	6.4675e+00	2.5636	11.301961	0.000760	7.597329	2.574045	0.000304
  67	6.5670e+00	2.6085	11.507855	0.000517	5.166184	1.750351	0.000207
  68	6.6665e+00	2.6454	11.766232	0.000648	6.483054	2.196518	0.000260
  69	6.7660e+00	2.6887	12.081129	0.000790	7.901223	2.677007	0.000316
  70	6.8655e+00	2.7288	12.303171	0.000557	5.571375	1.887633	0.000223
  71	6.9650e+00	2.7721	12.549436	0.000618	6.179161	2.093557	0.000248
  72	7.0645e+00	2.7946	12.823962	0.000689	6.888245	2.333801	0.000276
  73	7.1640e+00	2.8459	13.090413	0.000669	6.685650	2.265160	0.000268
  74	7.2635e+00	2.8844	13.389161	0.000750	7.496032	2.539724	0.000300
  75	7.3630e+00	2.9261	13.639463	0.000628	6.280459	2.127877	0.000252
  76	7.4625e+00	2.9710	13.893803	0.000638	6.381757	2.162198	0.000256
  77	7.5620e+00	3.0079	14.152179	0.000648	6.483054	2.196518	0.000260
  78	7.6615e+00	3.0400	14.406519	0.000638	6.381757	2.162198	0.000256
  79	7.7610e+00	3.0881	14.672970	0.000669	6.685650	2.265160	0.000268
  80	7.8605e+00	3.1315	14.911161	0.000598	5.976566	2.024915	0.000239
  81	7.9600e+00	3.1619	15.173575	0.000658	6.584352	2.230839	0.000264
  82	8.0595e+00	3.2085	15.448100	0.000689	6.888245	2.333801	0.000276
  83	8.1590e+00	3.2454	15.714551	0.000669	6.685650	2.265160	0.000268
  84	8.2585e+00	3.2903	16.017336	0.000760	7.597329	2.574045	0.000304
  85	8.3580e+00	3.3272	16.199007	0.000456	4.558398	1.544427	0.000183
  86	8.4575e+00	3.3625	16.505829	0.000770	7.698627	2.608365	0.000308
  87	8.5570e+00	3.4010	16.768243	0.000658	6.584352	2.230839	0.000264
  88	8.6565e+00	3.4491	17.050843	0.000709	7.090841	2.402442	0.000284
  89	8.7560e+00	3.4908	17.256737	0.000517	5.166184	1.750351	0.000207
  90	8.8555e+00	3.5213	17.555485	0.000750	7.496032	2.539724	0.000300
  91	8.9550e+00	3.5614	17.785601	0.000577	5.773970	1.956274	0.000231
  92	9.0545e+00	3.6047	18.048015	0.000658	6.584352	2.230839	0.000264
  93	9.1540e+00	3.6480	18.354838	0.000770	7.698627	2.608365	0.000308
  94	9.2535e+00	3.6833	18.544583	0.000476	4.760993	1.613068	0.000191
  95	9.3530e+00	3.7266	18.831220	0.000719	7.192139	2.436762	0.000288
  96	9.4525e+00	3.7603	19.089596	0.000648	6.483054	2.196518	0.000260
  97	9.5520e+00	3.8068	19.380270	0.000729	7.293436	2.471083	0.000292
  98	9.6515e+00	3.8405	19.610387	0.000577	5.773970	1.956274	0.000231
  99	9.7510e+00	3.8806	19.848578	0.000598	5.976566	2.024915	0.000239
 100	9.8505e+00	3.9223	20.106955	0.000648	6.483054	2.196518	0.000260
 101	9.9500e+00	3.9592	20.361294	0.000638	6.381757	2.162198	0.000256
 102	1.0050e+01	4.0010	20.643894	0.000709	7.090841	2.402442	0.000284
 103	1.0149e+01	4.0427	20.930530	0.000719	7.192139	2.436762	0.000288
 104	1.0248e+01	4.0812	21.136424	0.000517	5.166184	1.750351	0.000207
 105	1.0348e+01	4.1261	21.427098	0.000729	7.293436	2.471083	0.000292
 106	1.0447e+01	4.1662	21.653178	0.000567	5.672673	1.921954	0.000227
 107	1.0547e+01	4.1903	21.863109	0.000527	5.267482	1.784671	0.000211
 108	1.0646e+01	4.2416	22.149745	0.000719	7.192139	2.436762	0.000288
 109	1.0746e+01	4.2865	22.383899	0.000588	5.875268	1.990595	0.000235
 110	1.0845e+01	4.3218	22.634202	0.000628	6.280459	2.127877	0.000252
 111	1.0945e+01	4.3555	22.884504	0.000628	6.280459	2.127877	0.000252
 112	1.1044e+01	4.4052	23.159029	0.000689	6.888245	2.333801	0.000276
 113	1.1144e+01	4.4453	23.409332	0.000628	6.280459	2.127877	0.000252
 114	1.1243e+01	4.4806	23.724228	0.000790	7.901223	2.677007	0.000316
 115	1.1343e+01	4.5159	23.934159	0.000527	5.267482	1.784671	0.000211
 116	1.1443e+01	4.5592	24.196573	0.000658	6.584352	2.230839	0.000264
 117	1.1542e+01	4.6009	24.446875	0.000628	6.280459	2.127877	0.000252
 118	1.1642e+01	4.6346	24.693141	0.000618	6.179161	2.093557	0.000248
 119	1.1741e+01	4.6844	24.935369	0.000608	6.077864	2.059236	0.000243
 120	1.1841e+01	4.7197	25.205857	0.000679	6.786948	2.299480	0.000272
 121	1.1940e+01	4.7501	25.444048	0.000598	5.976566	2.024915	0.000239
 122	1.2040e+01	4.7983	25.734722	0.000729	7.293436	2.471083	0.000292
 123	1.2139e+01	4.8352	25.944653	0.000527	5.267482	1.784671	0.000211
 124	1.2239e+01	4.8849	26.203030	0.000648	6.483054	2.196518	0.000260
 125	1.2338e+01	4.9090	26.437183	0.000588	5.875268	1.990595	0.000235
 126	1.2438e+01	4.9491	26.703634	0.000669	6.685650	2.265160	0.000268
 127	1.2537e+01	4.9940	26.970085	0.000669	6.685650	2.265160	0.000268
 128	1.2636e+01	5.0421	27.204239	0.000588	5.875268	1.990595	0.000235
 129	1.2736e+01	5.0726	27.482802	0.000699	6.989543	2.368121	0.000280
 130	1.2835e+01	5.1175	27.725030	0.000608	6.077864	2.059236	0.000243
 131	1.2935e+01	5.1576	27.955146	0.000577	5.773970	1.956274	0.000231
 132	1.3034e+01	5.2009	28.221597	0.000669	6.685650	2.265160	0.000268
 133	1.3134e+01	5.2394	28.512271	0.000729	7.293436	2.471083	0.000292
 134	1.3233e+01	5.2747	28.734314	0.000557	5.571375	1.887633	0.000223
 135	1.3333e+01	5.3212	28.968467	0.000588	5.875268	1.990595	0.000235
 136	1.3432e+01	5.3533	29.234918	0.000669	6.685650	2.265160	0.000268
 137	1.3532e+01	5.3934	29.489258	0.000638	6.381757	2.162198	0.000256
 138	1.3632e+01	5.4367	29.707263	0.000547	5.470077	1.853312	0.000219
 139	1.3731e+01	5.4736	29.953529	0.000618	6.179161	2.093557	0.000248
 140	1.3831e+01	5.5218	30.219980	0.000669	6.685650	2.265160	0.000268
 141	1.3930e+01	5.5474	30.462208	0.000608	6.077864	2.059236	0.000243
 142	1.4030e+01	5.5956	30.708473	0.000618	6.179161	2.093557	0.000248
 143	1.4129e+01	5.6405	30.982998	0.000689	6.888245	2.333801	0.000276
 144	1.4229e+01	5.6774	31.241375	0.000648	6.483054	2.196518	0.000260
 145	1.4328e+01	5.7175	31.519937	0.000699	6.989543	2.368121	0.000280
 146	1.4428e+01	5.7560	31.737943	0.000547	5.470077	1.853312	0.000219
 147	1.4527e+01	5.7993	32.012468	0.000689	6.888245	2.333801	0.000276
 148	1.4627e+01	5.8330	32.258733	0.000618	6.179161	2.093557	0.000248
 149	1.4726e+01	5.8731	32.509036	0.000628	6.280459	2.127877	0.000252
 150	1.4825e+01	5.9148	32.714929	0.000517	5.166184	1.750351	0.000207
 151	1.4925e+01	5.9501	33.005603	0.000729	7.293436	2.471083	0.000292
 152	1.5024e+01	5.9950	33.211497	0.000517	5.166184	1.750351	0.000207
 153	1.5124e+01	6.0335	33.465837	0.000638	6.381757	2.162198	0.000256
 154	1.5223e+01	6.0833	33.752473	0.000719	7.192139	2.436762	0.000288
 155	1.5323e+01	6.1218	34.010850	0.000648	6.483054	2.196518	0.000260
 156	1.5422e+01	6.1506	34.208670	0.000496	4.963589	1.681709	0.000199
 157	1.5522e+01	6.1972	34.454935	0.000618	6.179161	2.093557	0.000248
 158	1.5621e+01	6.2324	34.741572	0.000719	7.192139	2.436762	0.000288
 159	1.5721e+01	6.2742	34.963614	0.000557	5.571375	1.887633	0.000223
 160	1.5820e+01	6.3143	35.242176	0.000699	6.989543	2.368121	0.000280
 161	1.5920e+01	6.3544	35.472293	0.000577	5.773970	1.956274	0.000231
 162	1.6020e+01	6.4041	35.710484	0.000598	5.976566	2.024915	0.000239
 163	1.6119e+01	6.4426	35.989047	0.000699	6.989543	2.368121	0.000280
 164	1.6218e+01	6.4699	36.211089	0.000557	5.571375	1.887633	0.000223
 165	1.6318e+01	6.5036	36.433131	0.000557	5.571375	1.887633	0.000223
 166	1.6418e+01	6.5581	36.695545	0.000658	6.584352	2.230839	0.000264
 167	1.6517e+01	6.5886	36.925662	0.000577	5.773970	1.956274	0.000231
 168	1.6616e+01	6.6207	37.151742	0.000567	5.672673	1.921954	0.000227
 169	1.6716e+01	6.6656	37.414155	0.000658	6.584352	2.230839	0.000264
 170	1.6816e+01	6.7089	37.652346	0.000598	5.976566	2.024915	0.000239
 171	1.6915e+01	6.7538	37.906686	0.000638	6.381757	2.162198	0.000256
 172	1.7015e+01	6.7971	38.140840	0.000588	5.875268	1.990595	0.000235
 173	1.7114e+01	6.8324	38.403254	0.000658	6.584352	2.230839	0.000264
 174	1.7213e+01	6.8773	38.633370	0.000577	5.773970	1.956274	0.000231
 175	1.7313e+01	6.9046	38.867524	0.000588	5.875268	1.990595	0.000235
 176	1.7413e+01	6.9479	39.125901	0.000648	6.483054	2.196518	0.000260
 177	1.7512e+01	6.9832	39.376203	0.000628	6.280459	2.127877	0.000252
 178	1.7611e+01	7.0297	39.578060	0.000506	5.064886	1.716030	0.000203
 179	1.7711e+01	7.0650	39.820288	0.000608	6.077864	2.059236	0.000243
 180	1.7811e+01	7.1164	40.131148	0.000780	7.799925	2.642686	0.000312
 181	1.7910e+01	7.1501	40.341079	0.000527	5.267482	1.784671	0.000211
 182	1.8009e+01	7.1918	40.563121	0.000557	5.571375	1.887633	0.000223
 183	1.8109e+01	7.2271	40.845721	0.000709	7.090841	2.402442	0.000284
 184	1.8209e+01	7.2736	41.067763	0.000557	5.571375	1.887633	0.000223
 185	1.8308e+01	7.3137	41.342289	0.000689	6.888245	2.333801	0.000276
 186	1.8407e+01	7.3554	41.572405	0.000577	5.773970	1.956274	0.000231
 187	1.8507e+01	7.3891	41.810596	0.000598	5.976566	2.024915	0.000239
 188	1.8607e+01	7.4244	42.024564	0.000537	5.368779	1.818992	0.000215
 189	1.8706e+01	7.4677	42.291015	0.000669	6.685650	2.265160	0.000268
 190	1.8805e+01	7.5078	42.509021	0.000547	5.470077	1.853312	0.000219
 191	1.8905e+01	7.5479	42.803732	0.000739	7.394734	2.505404	0.000296
 192	1.9005e+01	7.5864	43.029811	0.000567	5.672673	1.921954	0.000227
 193	1.9104e+01	7.6169	43.255891	0.000567	5.672673	1.921954	0.000227
 194	1.9203e+01	7.6698	43.526379	0.000679	6.786948	2.299480	0.000272
 195	1.9303e+01	7.7051	43.728236	0.000506	5.064886	1.716030	0.000203
 196	1.9402e+01	7.7420	43.998724	0.000679	6.786948	2.299480	0.000272
 197	1.9502e+01	7.7805	44.204618	0.000517	5.166184	1.750351	0.000207
 198	1.9602e+01	7.8238	44.430697	0.000567	5.672673	1.921954	0.000227
 199	1.9701e+01	7.8656	44.693111	0.000658	6.584352	2.230839	0.000264
 200	1.9800e+01	7.9153	44.894968	0.000506	5.064886	1.716030	0.000203
 201	1.9900e+01	7.9474	45.149308	0.000638	6.381757	2.162198	0.000256
 202	2.0000e+01	7.9907	45.391536	0.000608	6.077864	2.059236	0.000243
 203	2.0099e+01	8.0292	45.637801	0.000618	6.179161	2.093557	0.000248
 204	2.0198e+01	8.0661	45.863881	0.000567	5.672673	1.921954	0.000227
 205	2.0298e+01	8.1046	46.065737	0.000506	5.064886	1.716030	0.000203
 206	2.0398e+01	8.1463	46.348337	0.000709	7.090841	2.402442	0.000284
 207	2.0497e+01	8.1848	46.586528	0.000598	5.976566	2.024915	0.000239
 208	2.0596e+01	8.2249	46.816645	0.000577	5.773970	1.956274	0.000231
 209	2.0696e+01	8.2666	47.054836	0.000598	5.976566	2.024915	0.000239
 210	2.0796e+01	8.3131	47.272841	0.000547	5.470077	1.853312	0.000219
 211	2.0895e+01	8.3436	47.531218	0.000648	6.483054	2.196518	0.000260
 212	2.0994e+01	8.3773	47.777483	0.000618	6.179161	2.093557	0.000248
 213	2.1094e+01	8.4254	47.983377	0.000517	5.166184	1.750351	0.000207
 214	2.1194e+01	8.4703	48.205419	0.000557	5.571375	1.887633	0.000223
 215	2.1293e+01	8.5008	48.459759	0.000638	6.381757	2.162198	0.000256
 216	2.1392e+01	8.5457	48.685838	0.000567	5.672673	1.921954	0.000227
 217	2.1492e+01	8.5859	48.936141	0.000628	6.280459	2.127877	0.000252
 218	2.1591e+01	8.6228	49.089552	0.000385	3.849314	1.304183	0.000154
 219	2.1691e+01	8.6725	49.364077	0.000689	6.888245	2.333801	0.000276
 220	2.1791e+01	8.6982	49.622454	0.000648	6.483054	2.196518	0.000260
 221	2.1890e+01	8.7479	49.836422	0.000537	5.368779	1.818992	0.000215
 222	2.1989e+01	8.7816	50.026167	0.000476	4.760993	1.613068	0.000191
 223	2.2089e+01	8.8281	50.260321	0.000588	5.875268	1.990595	0.000235
 224	2.2189e+01	8.8666	50.526772	0.000669	6.685650	2.265160	0.000268
 225	2.2288e+01	8.9019	50.744778	0.000547	5.470077	1.853312	0.000219
 226	2.2387e+01	8.9420	50.974894	0.000577	5.773970	1.956274	0.000231
 227	2.2487e+01	8.9837	51.196937	0.000557	5.571375	1.887633	0.000223
 228	2.2587e+01	9.0222	51.414942	0.000547	5.470077	1.853312	0.000219
 229	2.2686e+01	9.0559	51.628910	0.000537	5.368779	1.818992	0.000215
 230	2.2785e+01	9.1024	51.863064	0.000588	5.875268	1.990595	0.000235
 231	2.2885e+01	9.1457	52.077032	0.000537	5.368779	1.818992	0.000215
 232	2.2985e+01	9.1906	52.339446	0.000658	6.584352	2.230839	0.000264
 233	2.3084e+01	9.2195	52.529192	0.000476	4.760993	1.613068	0.000191
 234	2.3183e+01	9.2660	52.779494	0.000628	6.280459	2.127877	0.000252
 235	2.3283e+01	9.2917	53.025759	0.000618	6.179161	2.093557	0.000248
 236	2.3383e+01	9.3414	53.211468	0.000466	4.659695	1.578748	0.000187
 237	2.3482e+01	9.3832	53.465807	0.000638	6.381757	2.162198	0.000256
 238	2.3581e+01	9.4265	53.663627	0.000496	4.963589	1.681709	0.000199
 239	2.3681e+01	9.4553	53.905855	0.000608	6.077864	2.059236	0.000243
 240	2.3780e+01	9.4971	54.095600	0.000476	4.760993	1.613068	0.000191
 241	2.3880e+01	9.5436	54.353977	0.000648	6.483054	2.196518	0.000260
 242	2.3980e+01	9.5837	54.547760	0.000486	4.862291	1.647389	0.000195
 243	2.4079e+01	9.6222	54.806136	0.000648	6.483054	2.196518	0.000260
 244	2.4178e+01	9.6607	55.032216	0.000567	5.672673	1.921954	0.000227
 245	2.4278e+01	9.7008	55.246184	0.000537	5.368779	1.818992	0.000215
 246	2.4378e+01	9.7377	55.452078	0.000517	5.166184	1.750351	0.000207
 247	2.4477e+01	9.7730	55.657972	0.000517	5.166184	1.750351	0.000207
 248	2.4576e+01	9.8115	55.867903	0.000527	5.267482	1.784671	0.000211
 249	2.4676e+01	9.8596	56.122242	0.000638	6.381757	2.162198	0.000256
 250	2.4776e+01	9.8981	56.328136	0.000517	5.166184	1.750351	0.000207
 251	2.4875e+01	9.9366	56.521919	0.000486	4.862291	1.647389	0.000195
 252	2.4974e+01	9.9783	56.792407	0.000679	6.786948	2.299480	0.000272
 253	2.5074e+01	10.0152	56.970041	0.000446	4.457100	1.510106	0.000179
 254	2.5174e+01	10.0521	57.188046	0.000547	5.470077	1.853312	0.000219
 255	2.5273e+01	10.1002	57.434312	0.000618	6.179161	2.093557	0.000248
 256	2.5372e+01	10.1484	57.656354	0.000557	5.571375	1.887633	0.000223
 257	2.5472e+01	10.1805	57.898582	0.000608	6.077864	2.059236	0.000243
 258	2.5572e+01	10.2238	58.112550	0.000537	5.368779	1.818992	0.000215
 259	2.5671e+01	10.2510	58.354779	0.000608	6.077864	2.059236	0.000243
 260	2.5770e+01	10.3072	58.540487	0.000466	4.659695	1.578748	0.000187
 261	2.5870e+01	10.3361	58.746381	0.000517	5.166184	1.750351	0.000207
 262	2.5970e+01	10.3794	58.980535	0.000588	5.875268	1.990595	0.000235
 263	2.6069e+01	10.4163	59.142020	0.000405	4.051909	1.372824	0.000162
 264	2.6169e+01	10.4596	59.355988	0.000537	5.368779	1.818992	0.000215
 265	2.6268e+01	10.4981	59.565919	0.000527	5.267482	1.784671	0.000211
 266	2.6367e+01	10.5398	59.836407	0.000679	6.786948	2.299480	0.000272
 267	2.6467e+01	10.5783	60.030190	0.000486	4.862291	1.647389	0.000195
 268	2.6567e+01	10.6152	60.256269	0.000567	5.672673	1.921954	0.000227
 269	2.6666e+01	10.6569	60.478312	0.000557	5.571375	1.887633	0.000223
 270	2.6765e+01	10.7050	60.704392	0.000567	5.672673	1.921954	0.000227
 271	2.6865e+01	10.7371	60.853766	0.000375	3.748016	1.269862	0.000150
 272	2.6965e+01	10.7708	61.116179	0.000658	6.584352	2.230839	0.000264
 273	2.7064e+01	10.8141	61.301888	0.000466	4.659695	1.578748	0.000187
 274	2.7163e+01	10.8607	61.544116	0.000608	6.077864	2.059236	0.000243
 275	2.7263e+01	10.8943	61.774232	0.000577	5.773970	1.956274	0.000231
 276	2.7363e+01	10.9393	61.955904	0.000456	4.558398	1.544427	0.000183
 277	2.7462e+01	10.9762	62.149686	0.000486	4.862291	1.647389	0.000195
 278	2.7561e+01	11.0147	62.359617	0.000527	5.267482	1.784671	0.000211
 279	2.7661e+01	11.0612	62.605882	0.000618	6.179161	2.093557	0.000248
 280	2.7761e+01	11.0901	62.787554	0.000456	4.558398	1.544427	0.000183
 281	2.7860e+01	11.1366	63.025745	0.000598	5.976566	2.024915	0.000239
 282	2.7959e+01	11.1751	63.231638	0.000517	5.166184	1.750351	0.000207
 283	2.8059e+01	11.2088	63.413310	0.000456	4.558398	1.544427	0.000183
 284	2.8159e+01	11.2585	63.687835	0.000689	6.888245	2.333801	0.000276
 285	2.8258e+01	11.2938	63.853357	0.000415	4.153207	1.407145	0.000166
 286	2.8358e+01	11.3355	64.063288	0.000527	5.267482	1.784671	0.000211
 287	2.8457e+01	11.3772	64.277257	0.000537	5.368779	1.818992	0.000215
 288	2.8556e+01	11.4125	64.495262	0.000547	5.470077	1.853312	0.000219
 289	2.8656e+01	11.4590	64.685007	0.000476	4.760993	1.613068	0.000191
 290	2.8756e+01	11.4943	64.915124	0.000577	5.773970	1.956274	0.000231
 291	2.8855e+01	11.5248	65.125055	0.000527	5.267482	1.784671	0.000211
 292	2.8954e+01	11.5745	65.310763	0.000466	4.659695	1.578748	0.000187
 293	2.9054e+01	11.6098	65.536843	0.000567	5.672673	1.921954	0.000227
 294	2.9154e+01	11.6499	65.762923	0.000567	5.672673	1.921954	0.000227
 295	2.9253e+01	11.6949	65.980928	0.000547	5.470077	1.853312	0.000219
 296	2.9352e+01	11.7382	66.178748	0.000496	4.963589	1.681709	0.000199
 297	2.9452e+01	11.7799	66.372530	0.000486	4.862291	1.647389	0.000195
 298	2.9552e+01	11.8104	66.602647	0.000577	5.773970	1.956274	0.000231
 299	2.9651e+01	11.8473	66.824689	0.000557	5.571375	1.887633	0.000223
 300	2.9750e+01	11.9002	67.014435	0.000476	4.760993	1.613068	0.000191
 301	2.9850e+01	11.9371	67.224366	0.000527	5.267482	1.784671	0.000211
 302	2.9950e+01	11.9756	67.450445	0.000567	5.672673	1.921954	0.000227
 303	3.0049e+01	12.0029	67.644228	0.000486	4.862291	1.647389	0.000195
 304	3.0148e+01	12.0542	67.894530	0.000628	6.280459	2.127877	0.000252
 305	3.0248e+01	12.0831	68.060053	0.000415	4.153207	1.407145	0.000166
 306	3.0348e+01	12.1280	68.314392	0.000638	6.381757	2.162198	0.000256
 307	3.0447e+01	12.1681	68.487989	0.000436	4.355802	1.475786	0.000174
 308	3.0547e+01	12.2034	68.722143	0.000588	5.875268	1.990595	0.000235
 309	3.0646e+01	12.2515	68.924000	0.000506	5.064886	1.716030	0.000203
 310	3.0745e+01	12.2820	69.129894	0.000517	5.166184	1.750351	0.000207
 311	3.0845e+01	12.3301	69.323676	0.000486	4.862291	1.647389	0.000195
 312	3.0945e+01	12.3718	69.545719	0.000557	5.571375	1.887633	0.000223
 313	3.1044e+01	12.4071	69.731427	0.000466	4.659695	1.578748	0.000187
 314	3.1143e+01	12.4472	69.993841	0.000658	6.584352	2.230839	0.000264
 315	3.1243e+01	12.4873	70.159363	0.000415	4.153207	1.407145	0.000166
 316	3.1343e+01	12.5291	70.369294	0.000527	5.267482	1.784671	0.000211
 317	3.1442e+01	12.5724	70.583263	0.000537	5.368779	1.818992	0.000215
 318	3.1541e+01	12.6125	70.789157	0.000517	5.166184	1.750351	0.000207
 319	3.1641e+01	12.6558	71.007162	0.000547	5.470077	1.853312	0.000219
 320	3.1741e+01	12.6927	71.213056	0.000517	5.166184	1.750351	0.000207
 321	3.1840e+01	12.7264	71.410876	0.000496	4.963589	1.681709	0.000199
 322	3.1939e+01	12.7665	71.628881	0.000547	5.470077	1.853312	0.000219
 323	3.2039e+01	12.8130	71.863035	0.000588	5.875268	1.990595	0.000235
 324	3.2139e+01	12.8419	72.068929	0.000517	5.166184	1.750351	0.000207
 325	3.2238e+01	12.8900	72.226377	0.000395	3.950611	1.338503	0.000158
 326	3.2337e+01	12.9221	72.448419	0.000557	5.571375	1.887633	0.000223
 327	3.2437e+01	12.9590	72.626053	0.000446	4.457100	1.510106	0.000179
 328	3.2536e+01	13.0055	72.811762	0.000466	4.659695	1.578748	0.000187
 329	3.2636e+01	13.0424	73.058027	0.000618	6.179161	2.093557	0.000248
 330	3.2736e+01	13.0825	73.251809	0.000486	4.862291	1.647389	0.000195
 331	3.2835e+01	13.1274	73.473852	0.000557	5.571375	1.887633	0.000223
 332	3.2934e+01	13.1579	73.687820	0.000537	5.368779	1.818992	0.000215
 333	3.3034e+01	13.2044	73.905825	0.000547	5.470077	1.853312	0.000219
 334	3.3133e+01	13.2445	74.087496	0.000456	4.558398	1.544427	0.000183
 335	3.3233e+01	13.2863	74.305502	0.000547	5.470077	1.853312	0.000219
 336	3.3333e+01	13.3248	74.466987	0.000405	4.051909	1.372824	0.000162
 337	3.3432e+01	13.3633	74.721327	0.000638	6.381757	2.162198	0.000256
 338	3.3532e+01	13.3986	74.923184	0.000506	5.064886	1.716030	0.000203
 339	3.3631e+01	13.4547	75.133115	0.000527	5.267482	1.784671	0.000211
 340	3.3730e+01	13.4868	75.278452	0.000365	3.646718	1.235542	0.000146
 341	3.3830e+01	13.5237	75.548940	0.000679	6.786948	2.299480	0.000272
 342	3.3929e+01	13.5574	75.710425	0.000405	4.051909	1.372824	0.000162
 343	3.4029e+01	13.6039	75.932468	0.000557	5.571375	1.887633	0.000223
 344	3.4129e+01	13.6376	76.126250	0.000486	4.862291	1.647389	0.000195
 345	3.4228e+01	13.6889	76.336181	0.000527	5.267482	1.784671	0.000211
 346	3.4328e+01	13.7210	76.525926	0.000476	4.760993	1.613068	0.000191
 347	3.4427e+01	13.7659	76.731820	0.000517	5.166184	1.750351	0.000207
 348	3.4526e+01	13.8028	76.974049	0.000608	6.077864	2.059236	0.000243
 349	3.4626e+01	13.8365	77.171868	0.000496	4.963589	1.681709	0.000199
 350	3.4725e+01	13.8782	77.353539	0.000456	4.558398	1.544427	0.000183
 351	3.4825e+01	13.9296	77.575582	0.000557	5.571375	1.887633	0.000223
 352	3.4925e+01	13.9713	77.773401	0.000496	4.963589	1.681709	0.000199
 353	3.5024e+01	14.0098	77.963147	0.000476	4.760993	1.613068	0.000191
 354	3.5123e+01	14.0435	78.156929	0.000486	4.862291	1.647389	0.000195
 355	3.5223e+01	14.0787	78.374935	0.000547	5.470077	1.853312	0.000219
 356	3.5322e+01	14.1205	78.576791	0.000506	5.064886	1.716030	0.000203
 357	3.5422e+01	14.1574	78.794797	0.000547	5.470077	1.853312	0.000219
 358	3.5522e+01	14.2103	78.968394	0.000436	4.355802	1.475786	0.000174
 359	3.5621e+01	14.2392	79.154102	0.000466	4.659695	1.578748	0.000187
 360	3.5721e+01	14.2745	79.355959	0.000506	5.064886	1.716030	0.000203
 361	3.5820e+01	14.3098	79.610298	0.000638	6.381757	2.162198	0.000256
 362	3.5919e+01	14.3579	79.787932	0.000446	4.457100	1.510106	0.000179
 363	3.6019e+01	14.4012	80.026123	0.000598	5.976566	2.024915	0.000239
 364	3.6118e+01	14.4333	80.187609	0.000405	4.051909	1.372824	0.000162
 365	3.6218e+01	14.4862	80.397540	0.000527	5.267482	1.784671	0.000211
 366	3.6318e+01	14.5295	80.591322	0.000486	4.862291	1.647389	0.000195
 367	3.6417e+01	14.5600	80.797216	0.000517	5.166184	1.750351	0.000207
 368	3.6517e+01	14.6017	80.995036	0.000496	4.963589	1.681709	0.000199
 369	3.6616e+01	14.6450	81.229190	0.000588	5.875268	1.990595	0.000235
 370	3.6715e+01	14.6755	81.435084	0.000517	5.166184	1.750351	0.000207
 371	3.6815e+01	14.7172	81.584458	0.000375	3.748016	1.269862	0.000150
 372	3.6914e+01	14.7638	81.798426	0.000537	5.368779	1.818992	0.000215
 373	3.7014e+01	14.7990	81.988171	0.000476	4.760993	1.613068	0.000191
 374	3.7114e+01	14.8488	82.181954	0.000486	4.862291	1.647389	0.000195
 375	3.7213e+01	14.8793	82.403996	0.000557	5.571375	1.887633	0.000223
 376	3.7313e+01	14.9178	82.585667	0.000456	4.558398	1.544427	0.000183
 377	3.7412e+01	14.9531	82.799635	0.000537	5.368779	1.818992	0.000215
 378	3.7511e+01	14.9964	82.977269	0.000446	4.457100	1.510106	0.000179
 379	3.7611e+01	15.0317	83.195275	0.000547	5.470077	1.853312	0.000219
 380	3.7711e+01	15.0702	83.397132	0.000506	5.064886	1.716030	0.000203
 381	3.7810e+01	15.1135	83.542468	0.000365	3.646718	1.235542	0.000146
 382	3.7910e+01	15.1552	83.744325	0.000506	5.064886	1.716030	0.000203
 383	3.8009e+01	15.1985	83.921959	0.000446	4.457100	1.510106	0.000179
 384	3.8108e+01	15.2466	84.172262	0.000628	6.280459	2.127877	0.000252
 385	3.8208e+01	15.2723	84.337784	0.000415	4.153207	1.407145	0.000166
 386	3.8307e+01	15.3172	84.515418	0.000446	4.457100	1.510106	0.000179
 387	3.8407e+01	15.3557	84.741498	0.000567	5.672673	1.921954	0.000227
 388	3.8507e+01	15.3958	84.923169	0.000456	4.558398	1.544427	0.000183
 389	3.8606e+01	15.4359	85.125026	0.000506	5.064886	1.716030	0.000203
 390	3.8706e+01	15.4744	85.266325	0.000355	3.545420	1.201221	0.000142
 391	3.8805e+01	15.5306	85.520665	0.000638	6.381757	2.162198	0.000256
 392	3.8904e+01	15.5546	85.678113	0.000395	3.950611	1.338503	0.000158
 393	3.9004e+01	15.6044	85.896119	0.000547	5.470077	1.853312	0.000219
 394	3.9103e+01	15.6365	86.077790	0.000456	4.558398	1.544427	0.000183
 395	3.9203e+01	15.6798	86.275609	0.000496	4.963589	1.681709	0.000199
 396	3.9303e+01	15.7086	86.449206	0.000436	4.355802	1.475786	0.000174
 397	3.9402e+01	15.7568	86.667211	0.000547	5.470077	1.853312	0.000219
 398	3.9502e+01	15.7873	86.812548	0.000365	3.646718	1.235542	0.000146
 399	3.9601e+01	15.8354	87.058814	0.000618	6.179161	2.093557	0.000248
 400	3.9700e+01	15.8723	87.224336	0.000415	4.153207	1.407145	0.000166
 401	3.9800e+01	15.9220	87.446379	0.000557	5.571375	1.887633	0.000223
 402	3.9900e+01	15.9621	87.603827	0.000395	3.950611	1.338503	0.000158
 403	3.9999e+01	15.9926	87.777424	0.000436	4.355802	1.475786	0.000174
 404	4.0099e+01	16.0327	87.955058	0.000446	4.457100	1.510106	0.000179
 405	4.0198e+01	16.0648	88.148840	0.000486	4.862291	1.647389	0.000195
 406	4.0297e+01	16.1113	88.338586	0.000476	4.760993	1.613068	0.000191
 407	4.0397e+01	16.1530	88.532368	0.000486	4.862291	1.647389	0.000195
 408	4.0496e+01	16.1947	88.718076	0.000466	4.659695	1.578748	0.000187
 409	4.0596e+01	16.2284	88.903785	0.000466	4.659695	1.578748	0.000187
 410	4.0696e+01	16.2798	89.101604	0.000496	4.963589	1.681709	0.000199
 411	4.0795e+01	16.3070	89.267127	0.000415	4.153207	1.407145	0.000166
 412	4.0895e+01	16.3487	89.497244	0.000577	5.773970	1.956274	0.000231
 413	4.0994e+01	16.3904	89.699100	0.000506	5.064886	1.716030	0.000203
 414	4.1093e+01	16.4306	89.856549	0.000395	3.950611	1.338503	0.000158
 415	4.1193e+01	16.4674	90.022071	0.000415	4.153207	1.407145	0.000166
 416	4.1292e+01	16.5108	90.252188	0.000577	5.773970	1.956274	0.000231
 417	4.1392e+01	16.5541	90.437896	0.000466	4.659695	1.578748	0.000187
 418	4.1492e+01	16.5862	90.599382	0.000405	4.051909	1.372824	0.000162
 419	4.1591e+01	16.6343	90.793164	0.000486	4.862291	1.647389	0.000195
 420	4.1691e+01	16.6744	90.990984	0.000496	4.963589	1.681709	0.000199
 421	4.1790e+01	16.7177	91.172655	0.000456	4.558398	1.544427	0.000183
 422	4.1889e+01	16.7530	91.354326	0.000456	4.558398	1.544427	0.000183
 423	4.1989e+01	16.7883	91.560220	0.000517	5.166184	1.750351	0.000207
 424	4.2089e+01	16.8284	91.729780	0.000425	4.254504	1.441465	0.000170
 425	4.2188e+01	16.8717	91.911451	0.000456	4.558398	1.544427	0.000183
 426	4.2288e+01	16.9070	92.076973	0.000415	4.153207	1.407145	0.000166
 427	4.2387e+01	16.9503	92.286904	0.000527	5.267482	1.784671	0.000211
 428	4.2486e+01	16.9888	92.448390	0.000405	4.051909	1.372824	0.000162
 429	4.2586e+01	17.0305	92.634098	0.000466	4.659695	1.578748	0.000187
 430	4.2685e+01	17.0690	92.823843	0.000476	4.760993	1.613068	0.000191
 431	4.2785e+01	17.1124	93.025700	0.000506	5.064886	1.716030	0.000203
 432	4.2885e+01	17.1525	93.195260	0.000425	4.254504	1.441465	0.000170
 433	4.2984e+01	17.1861	93.376931	0.000456	4.558398	1.544427	0.000183
 434	4.3084e+01	17.2327	93.546491	0.000425	4.254504	1.441465	0.000170
 435	4.3183e+01	17.2696	93.744310	0.000496	4.963589	1.681709	0.000199
 436	4.3282e+01	17.3097	93.934056	0.000476	4.760993	1.613068	0.000191
 437	4.3382e+01	17.3514	94.119764	0.000466	4.659695	1.578748	0.000187
 438	4.3481e+01	17.3851	94.301435	0.000456	4.558398	1.544427	0.000183
 439	4.3581e+01	17.4332	94.487143	0.000466	4.659695	1.578748	0.000187
 440	4.3681e+01	17.4765	94.652666	0.000415	4.153207	1.407145	0.000166
 441	4.3780e+01	17.5166	94.850486	0.000496	4.963589	1.681709	0.000199
 442	4.3880e+01	17.5455	95.040231	0.000476	4.760993	1.613068	0.000191
 443	4.3979e+01	17.5888	95.185568	0.000365	3.646718	1.235542	0.000146
 444	4.4078e+01	17.6337	95.387425	0.000506	5.064886	1.716030	0.000203
 445	4.4178e+01	17.6626	95.569096	0.000456	4.558398	1.544427	0.000183
 446	4.4278e+01	17.7171	95.714433	0.000365	3.646718	1.235542	0.000146
 447	4.4377e+01	17.7540	95.871881	0.000395	3.950611	1.338503	0.000158
 448	4.4477e+01	17.7893	96.077775	0.000517	5.166184	1.750351	0.000207
 449	4.4576e+01	17.8327	96.263483	0.000466	4.659695	1.578748	0.000187
 450	4.4675e+01	17.8631	96.461303	0.000496	4.963589	1.681709	0.000199
 451	4.4775e+01	17.9129	96.614714	0.000385	3.849314	1.304183	0.000154
 452	4.4874e+01	17.9546	96.828682	0.000537	5.368779	1.818992	0.000215
 453	4.4974e+01	17.9899	96.998242	0.000425	4.254504	1.441465	0.000170
 454	4.5074e+01	18.0268	97.192024	0.000486	4.862291	1.647389	0.000195
 455	4.5173e+01	18.0621	97.345435	0.000385	3.849314	1.304183	0.000154
 456	4.5273e+01	18.0941	97.535181	0.000476	4.760993	1.613068	0.000191
 457	4.5372e+01	18.1439	97.753186	0.000547	5.470077	1.853312	0.000219
 458	4.5471e+01	18.1872	97.946969	0.000486	4.862291	1.647389	0.000195
 459	4.5571e+01	18.2305	98.060009	0.000284	2.836336	0.960977	0.000114
 460	4.5670e+01	18.2658	98.278014	0.000547	5.470077	1.853312	0.000219
 461	4.5770e+01	18.3027	98.451611	0.000436	4.355802	1.475786	0.000174
 462	4.5870e+01	18.3412	98.600985	0.000375	3.748016	1.269862	0.000150
 463	4.5969e+01	18.3861	98.786693	0.000466	4.659695	1.578748	0.000187
 464	4.6069e+01	18.4230	98.996624	0.000527	5.267482	1.784671	0.000211
 465	4.6168e+01	18.4711	99.162147	0.000415	4.153207	1.407145	0.000166
 466	4.6267e+01	18.5048	99.384189	0.000557	5.571375	1.887633	0.000223
 467	4.6367e+01	18.5433	99.537600	0.000385	3.849314	1.304183	0.000154
 468	4.6467e+01	18.5979	99.715234	0.000446	4.457100	1.510106	0.000179
 469	4.6566e+01	18.6348	99.909017	0.000486	4.862291	1.647389	0.000195
 470	4.6666e+01	18.6636	100.066465	0.000395	3.950611	1.338503	0.000158
 471	4.6765e+01	18.7005	100.288507	0.000557	5.571375	1.887633	0.000223
 472	4.6864e+01	18.7326	100.449993	0.000405	4.051909	1.372824	0.000162
 473	4.6964e+01	18.7840	100.611478	0.000405	4.051909	1.372824	0.000162
 474	4.7063e+01	18.8257	100.821409	0.000527	5.267482	1.784671	0.000211
 475	4.7163e+01	18.8722	101.015192	0.000486	4.862291	1.647389	0.000195
 476	4.7263e+01	18.9075	101.168603	0.000385	3.849314	1.304183	0.000154
 477	4.7362e+01	18.9412	101.362386	0.000486	4.862291	1.647389	0.000195
 478	4.7462e+01	18.9877	101.535982	0.000436	4.355802	1.475786	0.000174
 479	4.7561e+01	19.0182	101.677282	0.000355	3.545420	1.201221	0.000142
 480	4.7660e+01	19.0647	101.887213	0.000527	5.267482	1.784671	0.000211
 481	4.7760e+01	19.0936	102.072921	0.000466	4.659695	1.578748	0.000187
 482	4.7859e+01	19.1481	102.270741	0.000496	4.963589	1.681709	0.000199
 483	4.7959e+01	19.1834	102.428189	0.000395	3.950611	1.338503	0.000158
 484	4.8059e+01	19.2251	102.638120	0.000527	5.267482	1.784671	0.000211
 485	4.8158e+01	19.2668	102.815754	0.000446	4.457100	1.510106	0.000179
 486	4.8258e+01	19.3005	103.005500	0.000476	4.760993	1.613068	0.000191
 487	4.8357e+01	19.3503	103.179097	0.000436	4.355802	1.475786	0.000174
 488	4.8456e+01	19.3872	103.364805	0.000466	4.659695	1.578748	0.000187
 489	4.8556e+01	19.4192	103.562625	0.000496	4.963589	1.681709	0.000199
 490	4.8656e+01	19.4609	103.679701	0.000294	2.937634	0.995297	0.000118
 491	4.8755e+01	19.4994	103.881558	0.000506	5.064886	1.716030	0.000203
 492	4.8855e+01	19.5492	104.063229	0.000456	4.558398	1.544427	0.000183
 493	4.8954e+01	19.5797	104.281235	0.000547	5.470077	1.853312	0.000219
 494	4.9053e+01	19.6166	104.410423	0.000324	3.241527	1.098259	0.000130
 495	4.9153e+01	19.6567	104.616317	0.000517	5.166184	1.750351	0.000207
 496	4.9252e+01	19.7000	104.806062	0.000476	4.760993	1.613068	0.000191
 497	4.9352e+01	19.7369	104.975622	0.000425	4.254504	1.441465	0.000170
 498	4.9452e+01	19.7722	105.141145	0.000415	4.153207	1.407145	0.000166
 499	4.9551e+01	19.8235	105.343001	0.000506	5.064886	1.716030	0.000203
 500	4.9651e+01	19.8572	105.528710	0.000466	4.659695	1.578748	0.000187
 501	4.9750e+01	19.8989	105.714418	0.000466	4.659695	1.578748	0.000187
 502	4.9849e+01	19.9438	105.904163	0.000476	4.760993	1.613068	0.000191
 503	4.9949e+01	19.9903	106.053537	0.000375	3.748016	1.269862	0.000150
 504	5.0048e+01	19.9438	105.964720	0.000223	2.228550	0.755053	-0.000089
 505	5.0148e+01	19.8989	105.835532	0.000324	3.241527	1.098259	-0.000130
 506	5.0248e+01	19.8604	105.694232	0.000355	3.545420	1.201221	-0.000142
 507	5.0347e+01	19.8139	105.597341	0.000243	2.431145	0.823694	-0.000097
 508	5.0447e+01	19.7770	105.476227	0.000304	3.038932	1.029618	-0.000122
 509	5.0546e+01	19.7465	105.367224	0.000274	2.735039	0.926656	-0.000110
 510	5.0645e+01	19.6968	105.258222	0.000274	2.735039	0.926656	-0.000110
 511	5.0745e+01	19.6486	105.149219	0.000274	2.735039	0.926656	-0.000110
 512	5.0844e+01	19.6134	105.011956	0.000344	3.444123	1.166900	-0.000138
 513	5.0944e+01	19.5813	104.894879	0.000294	2.937634	0.995297	-0.000118
 514	5.1044e+01	19.5492	104.761654	0.000334	3.342825	1.132580	-0.000134
 515	5.1143e+01	19.4994	104.636503	0.000314	3.140229	1.063939	-0.000126
 516	5.1242e+01	19.4626	104.491166	0.000365	3.646718	1.235542	-0.000146
 517	5.1342e+01	19.4208	104.398312	0.000233	2.329848	0.789374	-0.000093
 518	5.1441e+01	19.3839	104.236826	0.000405	4.051909	1.372824	-0.000162
 519	5.1541e+01	19.3422	104.099564	0.000344	3.444123	1.166900	-0.000138
 520	5.1641e+01	19.3021	104.014784	0.000213	2.127252	0.720733	-0.000085
 521	5.1740e+01	19.2652	103.841187	0.000436	4.355802	1.475786	-0.000174
 522	5.1840e+01	19.2251	103.736221	0.000263	2.633741	0.892336	-0.000105
 523	5.1939e+01	19.1882	103.598959	0.000344	3.444123	1.166900	-0.000138
 524	5.2038e+01	19.1417	103.453622	0.000365	3.646718	1.235542	-0.000146
 525	5.2138e+01	19.1000	103.328471	0.000314	3.140229	1.063939	-0.000126
 526	5.2237e+01	19.0695	103.239654	0.000223	2.228550	0.755053	-0.000089
 527	5.2337e+01	19.0246	103.057983	0.000456	4.558398	1.544427	-0.000183
 528	5.2437e+01	18.9797	102.948980	0.000274	2.735039	0.926656	-0.000110
 529	5.2536e+01	18.9492	102.811717	0.000344	3.444123	1.166900	-0.000138
 530	5.2636e+01	18.8995	102.702715	0.000274	2.735039	0.926656	-0.000110
 531	5.2735e+01	18.8610	102.557378	0.000365	3.646718	1.235542	-0.000146
 532	5.2834e+01	18.8225	102.403967	0.000385	3.849314	1.304183	-0.000154
 533	5.2934e+01	18.7775	102.286890	0.000294	2.937634	0.995297	-0.000118
 534	5.3033e+01	18.7423	102.157701	0.000324	3.241527	1.098259	-0.000130
 535	5.3133e+01	18.7038	101.971993	0.000466	4.659695	1.578748	-0.000187
 536	5.3233e+01	18.6620	101.850879	0.000304	3.038932	1.029618	-0.000122
 537	5.3332e+01	18.6267	101.721691	0.000324	3.241527	1.098259	-0.000130
 538	5.3431e+01	18.5834	101.548094	0.000436	4.355802	1.475786	-0.000174
 539	5.3531e+01	18.5433	101.439091	0.000274	2.735039	0.926656	-0.000110
 540	5.3630e+01	18.5000	101.305866	0.000334	3.342825	1.132580	-0.000134
 541	5.3730e+01	18.4695	101.164566	0.000355	3.545420	1.201221	-0.000142
 542	5.3830e+01	18.4230	100.962709	0.000506	5.064886	1.716030	-0.000203
 543	5.3929e+01	18.3829	100.845632	0.000294	2.937634	0.995297	-0.000118
 544	5.4029e+01	18.3476	100.720481	0.000314	3.140229	1.063939	-0.000126
 545	5.4128e+01	18.3027	100.554958	0.000415	4.153207	1.407145	-0.000166
 546	5.4227e+01	18.2658	100.429807	0.000314	3.140229	1.063939	-0.000126
 547	5.4327e+01	18.2225	100.288507	0.000355	3.545420	1.201221	-0.000142
 548	5.4426e+01	18.1840	100.135096	0.000385	3.849314	1.304183	-0.000154
 549	5.4526e+01	18.1439	99.985722	0.000375	3.748016	1.269862	-0.000150
 550	5.4626e+01	18.0990	99.828274	0.000395	3.950611	1.338503	-0.000158
 551	5.4725e+01	18.0701	99.723308	0.000263	2.633741	0.892336	-0.000105
 552	5.4825e+01	18.0252	99.573934	0.000375	3.748016	1.269862	-0.000150
 553	5.4924e+01	17.9818	99.376115	0.000496	4.963589	1.681709	-0.000199
 554	5.5023e+01	17.9594	99.218666	0.000395	3.950611	1.338503	-0.000158
 555	5.5123e+01	17.9145	99.113701	0.000263	2.633741	0.892336	-0.000105
 556	5.5222e+01	17.8712	98.940104	0.000436	4.355802	1.475786	-0.000174
 557	5.5322e+01	17.8391	98.814953	0.000314	3.140229	1.063939	-0.000126
 558	5.5422e+01	17.7893	98.641356	0.000436	4.355802	1.475786	-0.000174
 559	5.5521e+01	17.7476	98.491982	0.000375	3.748016	1.269862	-0.000150
 560	5.5620e+01	17.7091	98.370868	0.000304	3.038932	1.029618	-0.000122
 561	5.5720e+01	17.6690	98.229568	0.000355	3.545420	1.201221	-0.000142
 562	5.5819e+01	17.6257	98.043860	0.000466	4.659695	1.578748	-0.000187
 563	5.5919e+01	17.5888	97.914672	0.000324	3.241527	1.098259	-0.000130
 564	5.6019e+01	17.5439	97.724926	0.000476	4.760993	1.613068	-0.000191
 565	5.6118e+01	17.5118	97.583626	0.000355	3.545420	1.201221	-0.000142
 566	5.6218e+01	17.4669	97.426178	0.000395	3.950611	1.338503	-0.000158
 567	5.6317e+01	17.4316	97.248544	0.000446	4.457100	1.510106	-0.000179
 568	5.6416e+01	17.3963	97.103207	0.000365	3.646718	1.235542	-0.000146
 569	5.6516e+01	17.3466	96.974019	0.000324	3.241527	1.098259	-0.000130
 570	5.6615e+01	17.3065	96.784274	0.000476	4.760993	1.613068	-0.000191
 571	5.6715e+01	17.2664	96.618751	0.000415	4.153207	1.407145	-0.000166
 572	5.6815e+01	17.2279	96.509748	0.000274	2.735039	0.926656	-0.000110
 573	5.6914e+01	17.1910	96.364411	0.000365	3.646718	1.235542	-0.000146
 574	5.7014e+01	17.1460	96.202926	0.000405	4.051909	1.372824	-0.000162
 575	5.7113e+01	17.1043	96.037404	0.000415	4.153207	1.407145	-0.000166
 576	5.7212e+01	17.0594	95.888029	0.000375	3.748016	1.269862	-0.000150
 577	5.7312e+01	17.0337	95.718470	0.000425	4.254504	1.441465	-0.000170
 578	5.7411e+01	16.9968	95.565059	0.000385	3.849314	1.304183	-0.000154
 579	5.7511e+01	16.9487	95.391462	0.000436	4.355802	1.475786	-0.000174
 580	5.7611e+01	16.9166	95.250162	0.000355	3.545420	1.201221	-0.000142
 581	5.7710e+01	16.8749	95.092714	0.000395	3.950611	1.338503	-0.000158
 582	5.7809e+01	16.8364	94.947377	0.000365	3.646718	1.235542	-0.000146
 583	5.7909e+01	16.7915	94.749557	0.000496	4.963589	1.681709	-0.000199
 584	5.8008e+01	16.7594	94.632480	0.000294	2.937634	0.995297	-0.000118
 585	5.8108e+01	16.7097	94.410438	0.000557	5.571375	1.887633	-0.000223
 586	5.8208e+01	16.6744	94.313547	0.000243	2.431145	0.823694	-0.000097
 587	5.8307e+01	16.6343	94.123801	0.000476	4.760993	1.613068	-0.000191
 588	5.8407e+01	16.5974	93.978464	0.000365	3.646718	1.235542	-0.000146
 589	5.8506e+01	16.5493	93.829090	0.000375	3.748016	1.269862	-0.000150
 590	5.8605e+01	16.5124	93.675679	0.000385	3.849314	1.304183	-0.000154
 591	5.8705e+01	16.4691	93.502082	0.000436	4.355802	1.475786	-0.000174
 592	5.8804e+01	16.4402	93.340597	0.000405	4.051909	1.372824	-0.000162
 593	5.8904e+01	16.3888	93.175074	0.000415	4.153207	1.407145	-0.000166
 594	5.9004e+01	16.3632	93.021663	0.000385	3.849314	1.304183	-0.000154
 595	5.9103e+01	16.3102	92.884400	0.000344	3.444123	1.166900	-0.000138
 596	5.9203e+01	16.2733	92.698692	0.000466	4.659695	1.578748	-0.000187
 597	5.9302e+01	16.2284	92.525095	0.000436	4.355802	1.475786	-0.000174
 598	5.9401e+01	16.2011	92.351499	0.000436	4.355802	1.475786	-0.000174
 599	5.9501e+01	16.1562	92.238459	0.000284	2.836336	0.960977	-0.000114
 600	5.9600e+01	16.1145	92.016416	0.000557	5.571375	1.887633	-0.000223
 601	5.9700e+01	16.0712	91.846857	0.000425	4.254504	1.441465	-0.000170
 602	5.9800e+01	16.0343	91.721705	0.000314	3.140229	1.063939	-0.000126
 603	5.9899e+01	15.9942	91.527923	0.000486	4.862291	1.647389	-0.000195
 604	5.9998e+01	15.9461	91.382586	0.000365	3.646718	1.235542	-0.000146
 605	6.0098e+01	15.9092	91.253398	0.000324	3.241527	1.098259	-0.000130
 606	6.0197e+01	15.8739	91.071727	0.000456	4.558398	1.544427	-0.000183
 607	6.0297e+01	15.8306	90.906204	0.000415	4.153207	1.407145	-0.000166
 608	6.0397e+01	15.7953	90.732607	0.000436	4.355802	1.475786	-0.000174
 609	6.0496e+01	15.7536	90.579196	0.000385	3.849314	1.304183	-0.000154
 610	6.0596e+01	15.7086	90.389451	0.000476	4.760993	1.613068	-0.000191
 611	6.0695e+01	15.6669	90.219891	0.000425	4.254504	1.441465	-0.000170
 612	6.0794e+01	15.6413	90.046294	0.000436	4.355802	1.475786	-0.000174
 613	6.0894e+01	15.5964	89.884809	0.000405	4.051909	1.372824	-0.000162
 614	6.0993e+01	15.5562	89.731397	0.000385	3.849314	1.304183	-0.000154
 615	6.1093e+01	15.5161	89.537615	0.000486	4.862291	1.647389	-0.000195
 616	6.1193e+01	15.4808	89.396315	0.000355	3.545420	1.201221	-0.000142
 617	6.1292e+01	15.4343	89.226756	0.000425	4.254504	1.441465	-0.000170
 618	6.1392e+01	15.4054	89.037010	0.000476	4.760993	1.613068	-0.000191
 619	6.1491e+01	15.3477	88.891673	0.000365	3.646718	1.235542	-0.000146
 620	6.1590e+01	15.3188	88.738262	0.000385	3.849314	1.304183	-0.000154
 621	6.1690e+01	15.2691	88.536405	0.000506	5.064886	1.716030	-0.000203
 622	6.1789e+01	15.2338	88.362808	0.000436	4.355802	1.475786	-0.000174
 623	6.1889e+01	15.1953	88.221509	0.000355	3.545420	1.201221	-0.000142
 624	6.1989e+01	15.1520	88.039838	0.000456	4.558398	1.544427	-0.000183
 625	6.2088e+01	15.1279	87.874315	0.000415	4.153207	1.407145	-0.000166
 626	6.2188e+01	15.0718	87.741090	0.000334	3.342825	1.132580	-0.000134
 627	6.2287e+01	15.0397	87.591716	0.000375	3.748016	1.269862	-0.000150
 628	6.2386e+01	15.0012	87.357562	0.000588	5.875268	1.990595	-0.000235
 629	6.2486e+01	14.9514	87.196076	0.000405	4.051909	1.372824	-0.000162
 630	6.2586e+01	14.9242	87.022479	0.000436	4.355802	1.475786	-0.000174
 631	6.2685e+01	14.8712	86.844845	0.000446	4.457100	1.510106	-0.000179
 632	6.2785e+01	14.8408	86.711620	0.000334	3.342825	1.132580	-0.000134
 633	6.2884e+01	14.8007	86.517837	0.000486	4.862291	1.647389	-0.000195
 634	6.2983e+01	14.7654	86.340203	0.000446	4.457100	1.510106	-0.000179
 635	6.3083e+01	14.7124	86.215052	0.000314	3.140229	1.063939	-0.000126
 636	6.3182e+01	14.6755	86.009158	0.000517	5.166184	1.750351	-0.000207
 637	6.3282e+01	14.6354	85.896119	0.000284	2.836336	0.960977	-0.000114
 638	6.3382e+01	14.5953	85.698299	0.000496	4.963589	1.681709	-0.000199
 639	6.3481e+01	14.5648	85.500479	0.000496	4.963589	1.681709	-0.000199
 640	6.3581e+01	14.5263	85.351105	0.000375	3.748016	1.269862	-0.000150
 641	6.3680e+01	14.4782	85.161360	0.000476	4.760993	1.613068	-0.000191
 642	6.3779e+01	14.4445	85.016023	0.000365	3.646718	1.235542	-0.000146
 643	6.3879e+01	14.3964	84.842426	0.000436	4.355802	1.475786	-0.000174
 644	6.3978e+01	14.3611	84.652681	0.000476	4.760993	1.613068	-0.000191
 645	6.4078e+01	14.3226	84.495232	0.000395	3.950611	1.338503	-0.000158
 646	6.4177e+01	14.2713	84.349896	0.000365	3.646718	1.235542	-0.000146
 647	6.4277e+01	14.2328	84.164187	0.000466	4.659695	1.578748	-0.000187
 648	6.4376e+01	14.1991	83.998665	0.000415	4.153207	1.407145	-0.000166
 649	6.4476e+01	14.1686	83.825068	0.000436	4.355802	1.475786	-0.000174
 650	6.4576e+01	14.1205	83.643397	0.000456	4.558398	1.544427	-0.000183
 651	6.4675e+01	14.0771	83.518246	0.000314	3.140229	1.063939	-0.000126
 652	6.4775e+01	14.0451	83.296203	0.000557	5.571375	1.887633	-0.000223
 653	6.4874e+01	14.0082	83.183163	0.000284	2.836336	0.960977	-0.000114
 654	6.4974e+01	13.9568	82.997455	0.000466	4.659695	1.578748	-0.000187
 655	6.5073e+01	13.9135	82.835970	0.000405	4.051909	1.372824	-0.000162
 656	6.5172e+01	13.8846	82.642187	0.000486	4.862291	1.647389	-0.000195
 657	6.5272e+01	13.8429	82.496850	0.000365	3.646718	1.235542	-0.000146
 658	6.5371e+01	13.8012	82.339402	0.000395	3.950611	1.338503	-0.000158
 659	6.5471e+01	13.7627	82.133508	0.000517	5.166184	1.750351	-0.000207
 660	6.5570e+01	13.7290	81.947800	0.000466	4.659695	1.578748	-0.000187
 661	6.5670e+01	13.6841	81.770166	0.000446	4.457100	1.510106	-0.000179
 662	6.5769e+01	13.6296	81.628866	0.000355	3.545420	1.201221	-0.000142
 663	6.5869e+01	13.6055	81.471418	0.000395	3.950611	1.338503	-0.000158
 664	6.5969e+01	13.5686	81.253412	0.000547	5.470077	1.853312	-0.000219
 665	6.6068e+01	13.5141	81.071741	0.000456	4.558398	1.544427	-0.000183
 666	6.6168e+01	13.4788	80.914293	0.000395	3.950611	1.338503	-0.000158
 667	6.6267e+01	13.4467	80.752808	0.000405	4.051909	1.372824	-0.000162
 668	6.6367e+01	13.4066	80.603434	0.000375	3.748016	1.269862	-0.000150
 669	6.6466e+01	13.3536	80.397540	0.000517	5.166184	1.750351	-0.000207
 670	6.6566e+01	13.3264	80.223943	0.000436	4.355802	1.475786	-0.000174
 671	6.6665e+01	13.2814	80.022086	0.000506	5.064886	1.716030	-0.000203
 672	6.6764e+01	13.2462	79.860601	0.000405	4.051909	1.372824	-0.000162
 673	6.6864e+01	13.1980	79.674892	0.000466	4.659695	1.578748	-0.000187
 674	6.6963e+01	13.1708	79.517444	0.000395	3.950611	1.338503	-0.000158
 675	6.7063e+01	13.1306	79.359996	0.000395	3.950611	1.338503	-0.000158
 676	6.7162e+01	13.0777	79.194473	0.000415	4.153207	1.407145	-0.000166
 677	6.7262e+01	13.0488	78.976468	0.000547	5.470077	1.853312	-0.000219
 678	6.7362e+01	13.0071	78.823057	0.000385	3.849314	1.304183	-0.000154
 679	6.7461e+01	12.9654	78.661571	0.000405	4.051909	1.372824	-0.000162
 680	6.7561e+01	12.9333	78.471826	0.000476	4.760993	1.613068	-0.000191
 681	6.7660e+01	12.8868	78.310340	0.000405	4.051909	1.372824	-0.000162
 682	6.7760e+01	12.8387	78.124632	0.000466	4.659695	1.578748	-0.000187
 683	6.7859e+01	12.8066	77.959110	0.000415	4.153207	1.407145	-0.000166
 684	6.7959e+01	12.7793	77.829921	0.000324	3.241527	1.098259	-0.000130
 685	6.8058e+01	12.7376	77.636139	0.000486	4.862291	1.647389	-0.000195
 686	6.8157e+01	12.6863	77.450431	0.000466	4.659695	1.578748	-0.000187
 687	6.8257e+01	12.6542	77.252611	0.000496	4.963589	1.681709	-0.000199
 688	6.8356e+01	12.6141	77.079014	0.000436	4.355802	1.475786	-0.000174
 689	6.8456e+01	12.5676	76.897343	0.000456	4.558398	1.544427	-0.000183
 690	6.8555e+01	12.5307	76.739895	0.000395	3.950611	1.338503	-0.000158
 691	6.8655e+01	12.4793	76.574372	0.000415	4.153207	1.407145	-0.000166
 692	6.8754e+01	12.4505	76.384627	0.000476	4.760993	1.613068	-0.000191
 693	6.8854e+01	12.4071	76.178733	0.000517	5.166184	1.750351	-0.000207
 694	6.8954e+01	12.3718	76.069730	0.000274	2.735039	0.926656	-0.000110
 695	6.9053e+01	12.3349	75.892096	0.000446	4.457100	1.510106	-0.000179
 696	6.9153e+01	12.2884	75.702351	0.000476	4.760993	1.613068	-0.000191
 697	6.9252e+01	12.2467	75.536828	0.000415	4.153207	1.407145	-0.000166
 698	6.9352e+01	12.2050	75.326897	0.000527	5.267482	1.784671	-0.000211
 699	6.9451e+01	12.1793	75.157337	0.000425	4.254504	1.441465	-0.000170
 700	6.9550e+01	12.1328	74.979703	0.000446	4.457100	1.510106	-0.000179
 701	6.9650e+01	12.1007	74.777847	0.000506	5.064886	1.716030	-0.000203
 702	6.9749e+01	12.0462	74.612324	0.000415	4.153207	1.407145	-0.000166
 703	6.9849e+01	12.0045	74.454876	0.000395	3.950611	1.338503	-0.000158
 704	6.9948e+01	11.9740	74.289353	0.000415	4.153207	1.407145	-0.000166
 705	7.0048e+01	11.9275	74.059237	0.000577	5.773970	1.956274	-0.000231
 706	7.0147e+01	11.8954	73.930048	0.000324	3.241527	1.098259	-0.000130
 707	7.0247e+01	11.8585	73.736266	0.000486	4.862291	1.647389	-0.000195
 708	7.0347e+01	11.8136	73.550557	0.000466	4.659695	1.578748	-0.000187
 709	7.0446e+01	11.7687	73.372923	0.000446	4.457100	1.510106	-0.000179
 710	7.0546e+01	11.7302	73.167030	0.000517	5.166184	1.750351	-0.000207
 711	7.0645e+01	11.6884	73.013618	0.000385	3.849314	1.304183	-0.000154
 712	7.0745e+01	11.6451	72.840022	0.000436	4.355802	1.475786	-0.000174
 713	7.0844e+01	11.6227	72.622016	0.000547	5.470077	1.853312	-0.000219
 714	7.0944e+01	11.5826	72.456494	0.000415	4.153207	1.407145	-0.000166
 715	7.1043e+01	11.5280	72.254637	0.000506	5.064886	1.716030	-0.000203
 716	7.1142e+01	11.4927	72.068929	0.000466	4.659695	1.578748	-0.000187
 717	7.1242e+01	11.4462	71.850923	0.000547	5.470077	1.853312	-0.000219
 718	7.1341e+01	11.4157	71.701549	0.000375	3.748016	1.269862	-0.000150
 719	7.1441e+01	11.3836	71.544101	0.000395	3.950611	1.338503	-0.000158
 720	7.1540e+01	11.3339	71.342244	0.000506	5.064886	1.716030	-0.000203
 721	7.1640e+01	11.2858	71.148462	0.000486	4.862291	1.647389	-0.000195
 722	7.1740e+01	11.2521	70.942568	0.000517	5.166184	1.750351	-0.000207
 723	7.1839e+01	11.2088	70.777045	0.000415	4.153207	1.407145	-0.000166
 724	7.1939e+01	11.1719	70.579226	0.000496	4.963589	1.681709	-0.000199
 725	7.2038e+01	11.1302	70.385443	0.000486	4.862291	1.647389	-0.000195
 726	7.2138e+01	11.0965	70.219920	0.000415	4.153207	1.407145	-0.000166
 727	7.2237e+01	11.0467	70.005952	0.000537	5.368779	1.818992	-0.000215
 728	7.2337e+01	11.0147	69.808133	0.000496	4.963589	1.681709	-0.000199
 729	7.2436e+01	10.9762	69.646647	0.000405	4.051909	1.372824	-0.000162
 730	7.2535e+01	10.9328	69.412493	0.000588	5.875268	1.990595	-0.000235
 731	7.2635e+01	10.8799	69.251008	0.000405	4.051909	1.372824	-0.000162
 732	7.2734e+01	10.8574	69.037040	0.000537	5.368779	1.818992	-0.000215
 733	7.2834e+01	10.8157	68.859406	0.000446	4.457100	1.510106	-0.000179
 734	7.2933e+01	10.7885	68.661586	0.000496	4.963589	1.681709	-0.000199
 735	7.3033e+01	10.7307	68.471841	0.000476	4.760993	1.613068	-0.000191
 736	7.3132e+01	10.7034	68.261910	0.000527	5.267482	1.784671	-0.000211
 737	7.3232e+01	10.6569	68.108498	0.000385	3.849314	1.304183	-0.000154
 738	7.3332e+01	10.6184	67.910679	0.000496	4.963589	1.681709	-0.000199
 739	7.3431e+01	10.5671	67.765342	0.000365	3.646718	1.235542	-0.000146
 740	7.3531e+01	10.5318	67.547337	0.000547	5.470077	1.853312	-0.000219
 741	7.3630e+01	10.4949	67.333368	0.000537	5.368779	1.818992	-0.000215
 742	7.3730e+01	10.4628	67.147660	0.000466	4.659695	1.578748	-0.000187
 743	7.3829e+01	10.4083	66.970026	0.000446	4.457100	1.510106	-0.000179
 744	7.3928e+01	10.3714	66.752021	0.000547	5.470077	1.853312	-0.000219
 745	7.4028e+01	10.3345	66.546127	0.000517	5.166184	1.750351	-0.000207
 746	7.4127e+01	10.3008	66.360419	0.000466	4.659695	1.578748	-0.000187
 747	7.4227e+01	10.2559	66.142413	0.000547	5.470077	1.853312	-0.000219
 748	7.4326e+01	10.2158	65.940557	0.000506	5.064886	1.716030	-0.000203
 749	7.4426e+01	10.1805	65.779071	0.000405	4.051909	1.372824	-0.000162
 750	7.4525e+01	10.1339	65.589326	0.000476	4.760993	1.613068	-0.000191
 751	7.4625e+01	10.0970	65.351135	0.000598	5.976566	2.024915	-0.000239
 752	7.4725e+01	10.0553	65.173501	0.000446	4.457100	1.510106	-0.000179
 753	7.4824e+01	10.0281	64.967607	0.000517	5.166184	1.750351	-0.000207
 754	7.4924e+01	9.9735	64.794010	0.000436	4.355802	1.475786	-0.000174
 755	7.5023e+01	9.9382	64.612339	0.000456	4.558398	1.544427	-0.000183
 756	7.5123e+01	9.9029	64.374148	0.000598	5.976566	2.024915	-0.000239
 757	7.5222e+01	9.8564	64.172291	0.000506	5.064886	1.716030	-0.000203
 758	7.5322e+01	9.8243	63.958323	0.000537	5.368779	1.818992	-0.000215
 759	7.5421e+01	9.7842	63.768578	0.000476	4.760993	1.613068	-0.000191
 760	7.5520e+01	9.7425	63.570758	0.000496	4.963589	1.681709	-0.000199
 761	7.5620e+01	9.6944	63.417347	0.000385	3.849314	1.304183	-0.000154
 762	7.5719e+01	9.6607	63.187230	0.000577	5.773970	1.956274	-0.000231
 763	7.5819e+01	9.6286	62.993447	0.000486	4.862291	1.647389	-0.000195
 764	7.5918e+01	9.5789	62.819851	0.000436	4.355802	1.475786	-0.000174
 765	7.6018e+01	9.5404	62.597808	0.000557	5.571375	1.887633	-0.000223
 766	7.6118e+01	9.5035	62.387877	0.000527	5.267482	1.784671	-0.000211
 767	7.6217e+01	9.4570	62.181983	0.000517	5.166184	1.750351	-0.000207
 768	7.6317e+01	9.4217	61.947829	0.000588	5.875268	1.990595	-0.000235
 769	7.6416e+01	9.3816	61.774232	0.000436	4.355802	1.475786	-0.000174
 770	7.6516e+01	9.3350	61.584487	0.000476	4.760993	1.613068	-0.000191
 771	7.6615e+01	9.2949	61.382630	0.000506	5.064886	1.716030	-0.000203
 772	7.6715e+01	9.2644	61.176736	0.000517	5.166184	1.750351	-0.000207
 773	7.6814e+01	9.2243	60.958731	0.000547	5.470077	1.853312	-0.000219
 774	7.6913e+01	9.1906	60.768986	0.000476	4.760993	1.613068	-0.000191
 775	7.7013e+01	9.1393	60.546943	0.000557	5.571375	1.887633	-0.000223
 776	7.7112e+01	9.0976	60.328938	0.000547	5.470077	1.853312	-0.000219
 777	7.7212e+01	9.0639	60.114970	0.000537	5.368779	1.818992	-0.000215
 778	7.7311e+01	9.0206	59.921187	0.000486	4.862291	1.647389	-0.000195
 779	7.7411e+01	8.9805	59.703182	0.000547	5.470077	1.853312	-0.000219
 780	7.7510e+01	8.9436	59.505362	0.000496	4.963589	1.681709	-0.000199
 781	7.7610e+01	8.9019	59.263134	0.000608	6.077864	2.059236	-0.000243
 782	7.7710e+01	8.8634	59.089537	0.000436	4.355802	1.475786	-0.000174
 783	7.7809e+01	8.8265	58.879606	0.000527	5.267482	1.784671	-0.000211
 784	7.7909e+01	8.7752	58.653527	0.000567	5.672673	1.921954	-0.000227
 785	7.8008e+01	8.7479	58.492041	0.000405	4.051909	1.372824	-0.000162
 786	7.8108e+01	8.7062	58.261924	0.000577	5.773970	1.956274	-0.000231
 787	7.8207e+01	8.6661	58.031808	0.000577	5.773970	1.956274	-0.000231
 788	7.8306e+01	8.6163	57.862248	0.000425	4.254504	1.441465	-0.000170
 789	7.8406e+01	8.5842	57.668465	0.000486	4.862291	1.647389	-0.000195
 790	7.8505e+01	8.5474	57.442386	0.000567	5.672673	1.921954	-0.000227
 791	7.8605e+01	8.5040	57.244566	0.000496	4.963589	1.681709	-0.000199
 792	7.8704e+01	8.4720	57.058858	0.000466	4.659695	1.578748	-0.000187
 793	7.8804e+01	8.4254	56.816630	0.000608	6.077864	2.059236	-0.000243
 794	7.8903e+01	8.3821	56.622847	0.000486	4.862291	1.647389	-0.000195
 795	7.9003e+01	8.3388	56.396768	0.000567	5.672673	1.921954	-0.000227
 796	7.9103e+01	8.3099	56.211059	0.000466	4.659695	1.578748	-0.000187
 797	7.9202e+01	8.2586	55.972868	0.000598	5.976566	2.024915	-0.000239
 798	7.9302e+01	8.2185	55.742752	0.000577	5.773970	1.956274	-0.000231
 799	7.9401e+01	8.1896	55.544932	0.000496	4.963589	1.681709	-0.000199
 800	7.9501e+01	8.1463	55.335001	0.000527	5.267482	1.784671	-0.000211
 801	7.9600e+01	8.1046	55.141218	0.000486	4.862291	1.647389	-0.000195
 802	7.9700e+01	8.0661	54.923213	0.000547	5.470077	1.853312	-0.000219
 803	7.9799e+01	8.0324	54.697134	0.000567	5.672673	1.921954	-0.000227
 804	7.9898e+01	7.9859	54.495277	0.000506	5.064886	1.716030	-0.000203
 805	7.9998e+01	7.9361	54.325717	0.000425	4.254504	1.441465	-0.000170
 806	8.0097e+01	7.8976	54.083489	0.000608	6.077864	2.059236	-0.000243
 807	8.0197e+01	7.8704	53.869521	0.000537	5.368779	1.818992	-0.000215
 808	8.0296e+01	7.8238	53.691887	0.000446	4.457100	1.510106	-0.000179
 809	8.0396e+01	7.7853	53.469844	0.000557	5.571375	1.887633	-0.000223
 810	8.0496e+01	7.7484	53.251839	0.000547	5.470077	1.853312	-0.000219
 811	8.0595e+01	7.7051	53.054019	0.000496	4.963589	1.681709	-0.000199
 812	8.0695e+01	7.6682	52.856200	0.000496	4.963589	1.681709	-0.000199
 813	8.0794e+01	7.6313	52.618009	0.000598	5.976566	2.024915	-0.000239
 814	8.0894e+01	7.6009	52.424226	0.000486	4.862291	1.647389	-0.000195
 815	8.0993e+01	7.5479	52.173924	0.000628	6.280459	2.127877	-0.000252
 816	8.1093e+01	7.5142	51.996290	0.000446	4.457100	1.510106	-0.000179
 817	8.1192e+01	7.4693	51.778284	0.000547	5.470077	1.853312	-0.000219
 818	8.1291e+01	7.4324	51.584502	0.000486	4.862291	1.647389	-0.000195
 819	8.1391e+01	7.3875	51.354385	0.000577	5.773970	1.956274	-0.000231
 820	8.1490e+01	7.3474	51.128306	0.000567	5.672673	1.921954	-0.000227
 821	8.1590e+01	7.3057	50.934523	0.000486	4.862291	1.647389	-0.000195
 822	8.1689e+01	7.2624	50.700369	0.000588	5.875268	1.990595	-0.000235
 823	8.1789e+01	7.2255	50.462178	0.000598	5.976566	2.024915	-0.000239
 824	8.1888e+01	7.1854	50.288581	0.000436	4.355802	1.475786	-0.000174
 825	8.1988e+01	7.1485	50.050390	0.000598	5.976566	2.024915	-0.000239
 826	8.2088e+01	7.1051	49.856608	0.000486	4.862291	1.647389	-0.000195
 827	8.2187e+01	7.0650	49.638602	0.000547	5.470077	1.853312	-0.000219
 828	8.2287e+01	7.0314	49.392337	0.000618	6.179161	2.093557	-0.000248
 829	8.2386e+01	6.9864	49.206629	0.000466	4.659695	1.578748	-0.000187
 830	8.2486e+01	6.9495	48.992661	0.000537	5.368779	1.818992	-0.000215
 831	8.2585e+01	6.9014	48.831175	0.000405	4.051909	1.372824	-0.000162
 832	8.2684e+01	6.8677	48.572799	0.000648	6.483054	2.196518	-0.000260
 833	8.2784e+01	6.8260	48.310385	0.000658	6.584352	2.230839	-0.000264
 834	8.2883e+01	6.7923	48.165048	0.000365	3.646718	1.235542	-0.000146
 835	8.2983e+01	6.7442	47.922820	0.000608	6.077864	2.059236	-0.000243
 836	8.3082e+01	6.7137	47.696740	0.000567	5.672673	1.921954	-0.000227
 837	8.3182e+01	6.6672	47.438363	0.000648	6.483054	2.196518	-0.000260
 838	8.3281e+01	6.6255	47.252655	0.000466	4.659695	1.578748	-0.000187
 839	8.3381e+01	6.5918	47.050798	0.000506	5.064886	1.716030	-0.000203
 840	8.3481e+01	6.5517	46.836830	0.000537	5.368779	1.818992	-0.000215
 841	8.3580e+01	6.5116	46.606714	0.000577	5.773970	1.956274	-0.000231
 842	8.3680e+01	6.4715	46.364485	0.000608	6.077864	2.059236	-0.000243
 843	8.3779e+01	6.4201	46.203000	0.000405	4.051909	1.372824	-0.000162
 844	8.3879e+01	6.3993	45.989032	0.000537	5.368779	1.818992	-0.000215
 845	8.3978e+01	6.3512	45.722581	0.000669	6.685650	2.265160	-0.000268
 846	8.4078e+01	6.3159	45.508613	0.000537	5.368779	1.818992	-0.000215
 847	8.4177e+01	6.2709	45.310793	0.000496	4.963589	1.681709	-0.000199
 848	8.4276e+01	6.2389	45.137196	0.000436	4.355802	1.475786	-0.000174
 849	8.4376e+01	6.1939	44.862671	0.000689	6.888245	2.333801	-0.000276
 850	8.4475e+01	6.1570	44.660814	0.000506	5.064886	1.716030	-0.000203
 851	8.4575e+01	6.1137	44.450883	0.000527	5.267482	1.784671	-0.000211
 852	8.4674e+01	6.0704	44.196543	0.000638	6.381757	2.162198	-0.000256
 853	8.4774e+01	6.0367	44.002761	0.000486	4.862291	1.647389	-0.000195
 854	8.4874e+01	5.9998	43.756496	0.000618	6.179161	2.093557	-0.000248
 855	8.4973e+01	5.9549	43.538490	0.000547	5.470077	1.853312	-0.000219
 856	8.5073e+01	5.9164	43.360856	0.000446	4.457100	1.510106	-0.000179
 857	8.5172e+01	5.8779	43.122665	0.000598	5.976566	2.024915	-0.000239
 858	8.5272e+01	5.8394	42.864289	0.000648	6.483054	2.196518	-0.000260
 859	8.5371e+01	5.7993	42.646283	0.000547	5.470077	1.853312	-0.000219
 860	8.5471e+01	5.7624	42.444427	0.000506	5.064886	1.716030	-0.000203
 861	8.5570e+01	5.7191	42.246607	0.000496	4.963589	1.681709	-0.000199
 862	8.5669e+01	5.6806	41.992267	0.000638	6.381757	2.162198	-0.000256
 863	8.5769e+01	5.6357	41.782336	0.000527	5.267482	1.784671	-0.000211
 864	8.5868e+01	5.5924	41.568368	0.000537	5.368779	1.818992	-0.000215
 865	8.5968e+01	5.5587	41.334214	0.000588	5.875268	1.990595	-0.000235
 866	8.6067e+01	5.5137	41.124283	0.000527	5.267482	1.784671	-0.000211
 867	8.6167e+01	5.4736	40.890129	0.000588	5.875268	1.990595	-0.000235
 868	8.6266e+01	5.4400	40.611567	0.000699	6.989543	2.368121	-0.000280
 869	8.6366e+01	5.3934	40.433933	0.000446	4.457100	1.510106	-0.000179
 870	8.6466e+01	5.3630	40.183631	0.000628	6.280459	2.127877	-0.000252
 871	8.6565e+01	5.3212	39.965625	0.000547	5.470077	1.853312	-0.000219
 872	8.6665e+01	5.2731	39.767806	0.000496	4.963589	1.681709	-0.000199
 873	8.6764e+01	5.2362	39.513466	0.000638	6.381757	2.162198	-0.000256
 874	8.6864e+01	5.1913	39.291424	0.000557	5.571375	1.887633	-0.000223
 875	8.6963e+01	5.1592	39.089567	0.000506	5.064886	1.716030	-0.000203
 876	8.7063e+01	5.1175	38.806967	0.000709	7.090841	2.402442	-0.000284
 877	8.7162e+01	5.0742	38.617222	0.000476	4.760993	1.613068	-0.000191
 878	8.7261e+01	5.0437	38.403254	0.000537	5.368779	1.818992	-0.000215
 879	8.7361e+01	5.0036	38.144877	0.000648	6.483054	2.196518	-0.000260
 880	8.7460e+01	4.9555	37.878426	0.000669	6.685650	2.265160	-0.000268
 881	8.7560e+01	4.9154	37.676569	0.000506	5.064886	1.716030	-0.000203
 882	8.7659e+01	4.8769	37.446453	0.000577	5.773970	1.956274	-0.000231
 883	8.7759e+01	4.8416	37.244596	0.000506	5.064886	1.716030	-0.000203
 884	8.7859e+01	4.7999	36.974108	0.000679	6.786948	2.299480	-0.000272
 885	8.7958e+01	4.7662	36.752065	0.000557	5.571375	1.887633	-0.000223
 886	8.8058e+01	4.7116	36.505800	0.000618	6.179161	2.093557	-0.000248
 887	8.8157e+01	4.6828	36.259535	0.000618	6.179161	2.093557	-0.000248
 888	8.8257e+01	4.6410	36.037492	0.000557	5.571375	1.887633	-0.000223
 889	8.8356e+01	4.5977	35.799301	0.000598	5.976566	2.024915	-0.000239
 890	8.8456e+01	4.5528	35.561110	0.000598	5.976566	2.024915	-0.000239
 891	8.8555e+01	4.5271	35.326956	0.000588	5.875268	1.990595	-0.000235
 892	8.8654e+01	4.4806	35.117025	0.000527	5.267482	1.784671	-0.000211
 893	8.8754e+01	4.4357	34.882871	0.000588	5.875268	1.990595	-0.000235
 894	8.8853e+01	4.4004	34.616420	0.000669	6.685650	2.265160	-0.000268
 895	8.8953e+01	4.3619	34.410526	0.000517	5.166184	1.750351	-0.000207
 896	8.9052e+01	4.3234	34.176373	0.000588	5.875268	1.990595	-0.000235
 897	8.9152e+01	4.2801	33.913959	0.000658	6.584352	2.230839	-0.000264
 898	8.9251e+01	4.2416	33.639434	0.000689	6.888245	2.333801	-0.000276
 899	8.9351e+01	4.1967	33.417391	0.000557	5.571375	1.887633	-0.000223
 900	8.9451e+01	4.1614	33.199386	0.000547	5.470077	1.853312	-0.000219
 901	8.9550e+01	4.1261	32.936972	0.000658	6.584352	2.230839	-0.000264
 902	8.9650e+01	4.0731	32.686670	0.000628	6.280459	2.127877	-0.000252
 903	8.9749e+01	4.0475	32.517110	0.000425	4.254504	1.441465	-0.000170
 904	8.9849e+01	3.9977	32.226436	0.000729	7.293436	2.471083	-0.000292
 905	8.9948e+01	3.9496	31.968059	0.000648	6.483054	2.196518	-0.000260
 906	9.0047e+01	3.9240	31.717757	0.000628	6.280459	2.127877	-0.000252
 907	9.0147e+01	3.8742	31.503789	0.000537	5.368779	1.818992	-0.000215
 908	9.0246e+01	3.8325	31.257523	0.000618	6.179161	2.093557	-0.000248
 909	9.0346e+01	3.8181	31.043555	0.000537	5.368779	1.818992	-0.000215
 910	9.0445e+01	3.7683	30.748844	0.000739	7.394734	2.505404	-0.000296
 911	9.0545e+01	3.7202	30.518728	0.000577	5.773970	1.956274	-0.000231
 912	9.0644e+01	3.6657	30.288611	0.000577	5.773970	1.956274	-0.000231
 913	9.0744e+01	3.6448	30.066568	0.000557	5.571375	1.887633	-0.000223
 914	9.0844e+01	3.6031	29.832415	0.000588	5.875268	1.990595	-0.000235
 915	9.0943e+01	3.5662	29.565964	0.000669	6.685650	2.265160	-0.000268
 916	9.1043e+01	3.5213	29.327773	0.000598	5.976566	2.024915	-0.000239
 917	9.1142e+01	3.4780	29.073433	0.000638	6.381757	2.162198	-0.000256
 918	9.1242e+01	3.4411	28.831205	0.000608	6.077864	2.059236	-0.000243
 919	9.1341e+01	3.4106	28.576865	0.000638	6.381757	2.162198	-0.000256
 920	9.1441e+01	3.3577	28.302340	0.000689	6.888245	2.333801	-0.000276
 921	9.1540e+01	3.3159	28.108558	0.000486	4.862291	1.647389	-0.000195
 922	9.1639e+01	3.2919	27.817884	0.000729	7.293436	2.471083	-0.000292
 923	9.1739e+01	3.2422	27.571619	0.000618	6.179161	2.093557	-0.000248
 924	9.1838e+01	3.2069	27.345539	0.000567	5.672673	1.921954	-0.000227
 925	9.1938e+01	3.1652	27.115422	0.000577	5.773970	1.956274	-0.000231
 926	9.2037e+01	3.1218	26.853008	0.000658	6.584352	2.230839	-0.000264
 927	9.2137e+01	3.0833	26.610780	0.000608	6.077864	2.059236	-0.000243
 928	9.2237e+01	3.0448	26.332218	0.000699	6.989543	2.368121	-0.000280
 929	9.2336e+01	3.0079	26.053655	0.000699	6.989543	2.368121	-0.000280
 930	9.2436e+01	2.9726	25.831613	0.000557	5.571375	1.887633	-0.000223
 931	9.2535e+01	2.9181	25.589385	0.000608	6.077864	2.059236	-0.000243
 932	9.2635e+01	2.8828	25.347157	0.000608	6.077864	2.059236	-0.000243
 933	9.2734e+01	2.8507	25.064557	0.000709	7.090841	2.402442	-0.000284
 934	9.2834e+01	2.8090	24.822329	0.000608	6.077864	2.059236	-0.000243
 935	9.2933e+01	2.7673	24.572027	0.000628	6.280459	2.127877	-0.000252
 936	9.3032e+01	2.7240	24.309613	0.000658	6.584352	2.230839	-0.000264
 937	9.3132e+01	2.6951	24.063348	0.000618	6.179161	2.093557	-0.000248
 938	9.3231e+01	2.6502	23.804971	0.000648	6.483054	2.196518	-0.000260
 939	9.3331e+01	2.6069	23.566780	0.000598	5.976566	2.024915	-0.000239
 940	9.3430e+01	2.5668	23.332626	0.000588	5.875268	1.990595	-0.000235
 941	9.3530e+01	2.5235	23.054064	0.000699	6.989543	2.368121	-0.000280
 942	9.3629e+01	2.4850	22.779538	0.000689	6.888245	2.333801	-0.000276
 943	9.3729e+01	2.4497	22.521162	0.000648	6.483054	2.196518	-0.000260
 944	9.3829e+01	2.4096	22.266822	0.000638	6.381757	2.162198	-0.000256
 945	9.3928e+01	2.3711	22.032668	0.000588	5.875268	1.990595	-0.000235
 946	9.4028e+01	2.3245	21.746032	0.000719	7.192139	2.436762	-0.000288
 947	9.4127e+01	2.2908	21.507841	0.000598	5.976566	2.024915	-0.000239
 948	9.4227e+01	2.2475	21.257538	0.000628	6.280459	2.127877	-0.000252
 949	9.4326e+01	2.2090	20.983013	0.000689	6.888245	2.333801	-0.000276
 950	9.4425e+01	2.1721	20.700413	0.000709	7.090841	2.402442	-0.000284
 951	9.4525e+01	2.1304	20.486445	0.000537	5.368779	1.818992	-0.000215
 952	9.4624e+01	2.0855	20.183660	0.000760	7.597329	2.574045	-0.000304
 953	9.4724e+01	2.0598	19.937395	0.000618	6.179161	2.093557	-0.000248
 954	9.4823e+01	2.0117	19.699204	0.000598	5.976566	2.024915	-0.000239
 955	9.4923e+01	1.9636	19.424679	0.000689	6.888245	2.333801	-0.000276
 956	9.5022e+01	1.9331	19.138042	0.000719	7.192139	2.436762	-0.000288
 957	9.5122e+01	1.8946	18.920037	0.000547	5.470077	1.853312	-0.000219
 958	9.5222e+01	1.8577	18.649549	0.000679	6.786948	2.299480	-0.000272
 959	9.5321e+01	1.8080	18.358875	0.000729	7.293436	2.471083	-0.000292
 960	9.5421e+01	1.7663	18.120684	0.000598	5.976566	2.024915	-0.000239
 961	9.5520e+01	1.7358	17.846159	0.000689	6.888245	2.333801	-0.000276
 962	9.5620e+01	1.6941	17.603930	0.000608	6.077864	2.059236	-0.000243
 963	9.5719e+01	1.6540	17.361702	0.000608	6.077864	2.059236	-0.000243
 964	9.5819e+01	1.6106	17.083140	0.000699	6.989543	2.368121	-0.000280
 965	9.5918e+01	1.5609	16.796503	0.000719	7.192139	2.436762	-0.000288
 966	9.6017e+01	1.5272	16.542164	0.000638	6.381757	2.162198	-0.000256
 967	9.6117e+01	1.4903	16.275713	0.000669	6.685650	2.265160	-0.000268
 968	9.6216e+01	1.4486	16.025410	0.000628	6.280459	2.127877	-0.000252
 969	9.6316e+01	1.4101	15.791256	0.000588	5.875268	1.990595	-0.000235
 970	9.6415e+01	1.3700	15.536917	0.000638	6.381757	2.162198	-0.000256
 971	9.6515e+01	1.3251	15.230095	0.000770	7.698627	2.608365	-0.000308
 972	9.6615e+01	1.2882	14.971718	0.000648	6.483054	2.196518	-0.000260
 973	9.6714e+01	1.2577	14.753713	0.000547	5.470077	1.853312	-0.000219
 974	9.6814e+01	1.2080	14.475150	0.000699	6.989543	2.368121	-0.000280
 975	9.6913e+01	1.1727	14.228885	0.000618	6.179161	2.093557	-0.000248
 976	9.7013e+01	1.1358	13.934174	0.000739	7.394734	2.505404	-0.000296
 977	9.7112e+01	1.0877	13.667723	0.000669	6.685650	2.265160	-0.000268
 978	9.7212e+01	1.0476	13.385124	0.000709	7.090841	2.402442	-0.000284
 979	9.7311e+01	1.0203	13.138858	0.000618	6.179161	2.093557	-0.000248
 980	9.7410e+01	0.9754	12.872407	0.000669	6.685650	2.265160	-0.000268
 981	9.7510e+01	0.9208	12.593845	0.000699	6.989543	2.368121	-0.000280
 982	9.7609e+01	0.8871	12.335468	0.000648	6.483054	2.196518	-0.000260
 983	9.7709e+01	0.8486	12.089203	0.000618	6.179161	2.093557	-0.000248
 984	9.7808e+01	0.8085	11.782381	0.000770	7.698627	2.608365	-0.000308
 985	9.7908e+01	0.7668	11.560338	0.000557	5.571375	1.887633	-0.000223
 986	9.8007e+01	0.7460	11.257553	0.000760	7.597329	2.574045	-0.000304
 987	9.8107e+01	0.6866	11.023399	0.000588	5.875268	1.990595	-0.000235
 988	9.8207e+01	0.6497	10.744837	0.000699	6.989543	2.368121	-0.000280
 989	9.8306e+01	0.6208	10.498571	0.000618	6.179161	2.093557	-0.000248
 990	9.8406e+01	0.5679	10.215972	0.000709	7.090841	2.402442	-0.000284
 991	9.8505e+01	0.5294	9.925298	0.000729	7.293436	2.471083	-0.000292
 992	9.8605e+01	0.4973	9.687107	0.000598	5.976566	2.024915	-0.000239
 993	9.8704e+01	0.4524	9.412582	0.000689	6.888245	2.333801	-0.000276
 994	9.8803e+01	0.4123	9.170354	0.000608	6.077864	2.059236	-0.000243
 995	9.8903e+01	0.3722	8.883717	0.000719	7.192139	2.436762	-0.000288
 996	9.9002e+01	0.3369	8.601118	0.000709	7.090841	2.402442	-0.000284
 997	9.9102e+01	0.2904	8.350815	0.000628	6.280459	2.127877	-0.000252
 998	9.9201e+01	0.2615	8.076290	0.000689	6.888245	2.333801	-0.000276
 999	9.9301e+01	0.2086	7.805802	0.000679	6.786948	2.299480	-0.000272
1000	9.9400e+01	0.1700	7.527240	0.000699	6.989543	2.368121	-0.000280
1001	9.9500e+01	0.1299	7.280974	0.000618	6.179161	2.093557	-0.000248
1002	9.9600e+01	0.1043	6.970115	0.000780	7.799925	2.642686	-0.000312
1003	9.9699e+01	0.0497	6.691552	0.000699	6.989543	2.368121	-0.000280
1004	9.9799e+01	0.0160	6.445287	0.000618	6.179161	2.093557	-0.000248
1005	9.9898e+01	-0.0128	6.223245	0.000557	5.571375	1.887633	-0.000223
1006	9.9998e+01	-0.0594	5.948720	0.000689	6.888245	2.333801	-0.000276
1007	1.0010e+02	-0.0979	5.738788	0.000527	5.267482	1.784671	-0.000211
1008	1.0020e+02	-0.1380	5.415818	0.000810	8.103818	2.745648	-0.000325
1009	1.0030e+02	-0.1733	5.141292	0.000689	6.888245	2.333801	-0.000276
1010	1.0040e+02	-0.2134	4.886953	0.000638	6.381757	2.162198	-0.000256
1011	1.0050e+02	-0.2583	4.612428	0.000689	6.888245	2.333801	-0.000276
1012	1.0059e+02	-0.2904	4.325791	0.000719	7.192139	2.436762	-0.000288
1013	1.0069e+02	-0.3417	4.079526	0.000618	6.179161	2.093557	-0.000248
1014	1.0079e+02	-0.3722	3.788852	0.000729	7.293436	2.471083	-0.000292
1015	1.0089e+02	-0.4139	3.514327	0.000689	6.888245	2.333801	-0.000276
1016	1.0099e+02	-0.4604	3.264024	0.000628	6.280459	2.127877	-0.000252
1017	1.0109e+02	-0.5021	3.029870	0.000588	5.875268	1.990595	-0.000235
1018	1.0119e+02	-0.5390	2.702862	0.000821	8.205116	2.779968	-0.000329
1019	1.0129e+02	-0.5759	2.400077	0.000760	7.597329	2.574045	-0.000304
1020	1.0139e+02	-0.6128	2.173998	0.000567	5.672673	1.921954	-0.000227
1021	1.0149e+02	-0.6577	1.875250	0.000750	7.496032	2.539724	-0.000300
1022	1.0159e+02	-0.7010	1.608799	0.000669	6.685650	2.265160	-0.000268
1023	1.0169e+02	-0.7299	1.382719	0.000567	5.672673	1.921954	-0.000227
1024	1.0179e+02	-0.7652	1.071860	0.000780	7.799925	2.642686	-0.000312
1025	1.0189e+02	-0.8166	0.809446	0.000658	6.584352	2.230839	-0.000264
1026	1.0199e+02	-0.8486	0.551069	0.000648	6.483054	2.196518	-0.000260
1027	1.0209e+02	-0.8839	0.256358	0.000739	7.394734	2.505404	-0.000296
1028	1.0219e+02	-0.9240	-0.030279	0.000719	7.192139	2.436762	-0.000288
1029	1.0229e+02	-0.9850	-0.228098	0.000496	4.963589	1.681709	-0.000199
1030	1.0239e+02	-1.0123	-0.514735	0.000719	7.192139	2.436762	-0.000288
1031	1.0248e+02	-1.0588	-0.817520	0.000760	7.597329	2.574045	-0.000304
1032	1.0258e+02	-1.0909	-1.051674	0.000588	5.875268	1.990595	-0.000235
1033	1.0268e+02	-1.1310	-1.338310	0.000719	7.192139	2.436762	-0.000288
1034	1.0278e+02	-1.1743	-1.612836	0.000689	6.888245	2.333801	-0.000276
1035	1.0288e+02	-1.2240	-1.895435	0.000709	7.090841	2.402442	-0.000284
1036	1.0298e+02	-1.2465	-2.178035	0.000709	7.090841	2.402442	-0.000284
1037	1.0308e+02	-1.2898	-2.432374	0.000638	6.381757	2.162198	-0.000256
1038	1.0318e+02	-1.3299	-2.682677	0.000628	6.280459	2.127877	-0.000252
1039	1.0328e+02	-1.3684	-2.985462	0.000760	7.597329	2.574045	-0.000304
1040	1.0338e+02	-1.4133	-3.276136	0.000729	7.293436	2.471083	-0.000292
1041	1.0348e+02	-1.4502	-3.542587	0.000669	6.685650	2.265160	-0.000268
1042	1.0358e+02	-1.4871	-3.792889	0.000628	6.280459	2.127877	-0.000252
1043	1.0368e+02	-1.5272	-4.055303	0.000658	6.584352	2.230839	-0.000264
1044	1.0378e+02	-1.5786	-4.350014	0.000739	7.394734	2.505404	-0.000296
1045	1.0388e+02	-1.6139	-4.584168	0.000588	5.875268	1.990595	-0.000235
1046	1.0398e+02	-1.6443	-4.874841	0.000729	7.293436	2.471083	-0.000292
1047	1.0408e+02	-1.6877	-5.149367	0.000689	6.888245	2.333801	-0.000276
1048	1.0418e+02	-1.7342	-5.419855	0.000679	6.786948	2.299480	-0.000272
1049	1.0428e+02	-1.7711	-5.702454	0.000709	7.090841	2.402442	-0.000284
1050	1.0438e+02	-1.8144	-5.981017	0.000699	6.989543	2.368121	-0.000280
1051	1.0447e+02	-1.8481	-6.223245	0.000608	6.077864	2.059236	-0.000243
1052	1.0457e+02	-1.8866	-6.517956	0.000739	7.394734	2.505404	-0.000296
1053	1.0467e+02	-1.9299	-6.804592	0.000719	7.192139	2.436762	-0.000288
1054	1.0477e+02	-1.9700	-7.058932	0.000638	6.381757	2.162198	-0.000256
1055	1.0487e+02	-2.0117	-7.357680	0.000750	7.496032	2.539724	-0.000300
1056	1.0497e+02	-2.0454	-7.603945	0.000618	6.179161	2.093557	-0.000248
1057	1.0507e+02	-2.0903	-7.878470	0.000689	6.888245	2.333801	-0.000276
1058	1.0517e+02	-2.1304	-8.165107	0.000719	7.192139	2.436762	-0.000288
1059	1.0527e+02	-2.1753	-8.407335	0.000608	6.077864	2.059236	-0.000243
1060	1.0537e+02	-2.2058	-8.665712	0.000648	6.483054	2.196518	-0.000260
1061	1.0547e+02	-2.2395	-8.972534	0.000770	7.698627	2.608365	-0.000308
1062	1.0557e+02	-2.2941	-9.259171	0.000719	7.192139	2.436762	-0.000288
1063	1.0567e+02	-2.3310	-9.489288	0.000577	5.773970	1.956274	-0.000231
1064	1.0577e+02	-2.3630	-9.800147	0.000780	7.799925	2.642686	-0.000312
1065	1.0587e+02	-2.3967	-10.042375	0.000608	6.077864	2.059236	-0.000243
1066	1.0597e+02	-2.4497	-10.280566	0.000598	5.976566	2.024915	-0.000239
1067	1.0607e+02	-2.4817	-10.559129	0.000699	6.989543	2.368121	-0.000280
1068	1.0617e+02	-2.5219	-10.841728	0.000709	7.090841	2.402442	-0.000284
1069	1.0627e+02	-2.5716	-11.104142	0.000658	6.584352	2.230839	-0.000264
1070	1.0637e+02	-2.6037	-11.398853	0.000739	7.394734	2.505404	-0.000296
1071	1.0647e+02	-2.6502	-11.657229	0.000648	6.483054	2.196518	-0.000260
1072	1.0656e+02	-2.6871	-11.919643	0.000658	6.584352	2.230839	-0.000264
1073	1.0666e+02	-2.7272	-12.157834	0.000598	5.976566	2.024915	-0.000239
1074	1.0676e+02	-2.7785	-12.500991	0.000861	8.610307	2.917251	-0.000345
1075	1.0686e+02	-2.8106	-12.706885	0.000517	5.166184	1.750351	-0.000207
1076	1.0696e+02	-2.8475	-12.989484	0.000709	7.090841	2.402442	-0.000284
1077	1.0706e+02	-2.8844	-13.268047	0.000699	6.989543	2.368121	-0.000280
1078	1.0716e+02	-2.9165	-13.526423	0.000648	6.483054	2.196518	-0.000260
1079	1.0726e+02	-2.9662	-13.817097	0.000729	7.293436	2.471083	-0.000292
1080	1.0736e+02	-3.0063	-14.018954	0.000506	5.064886	1.716030	-0.000203
1081	1.0746e+02	-3.0432	-14.321739	0.000760	7.597329	2.574045	-0.000304
1082	1.0756e+02	-3.0914	-14.576079	0.000638	6.381757	2.162198	-0.000256
1083	1.0766e+02	-3.1315	-14.870789	0.000739	7.394734	2.505404	-0.000296
1084	1.0776e+02	-3.1587	-15.096869	0.000567	5.672673	1.921954	-0.000227
1085	1.0786e+02	-3.2037	-15.383506	0.000719	7.192139	2.436762	-0.000288
1086	1.0796e+02	-3.2389	-15.641882	0.000648	6.483054	2.196518	-0.000260
1087	1.0806e+02	-3.2871	-15.936593	0.000739	7.394734	2.505404	-0.000296
1088	1.0816e+02	-3.3288	-16.154599	0.000547	5.470077	1.853312	-0.000219
1089	1.0826e+02	-3.3512	-16.421050	0.000669	6.685650	2.265160	-0.000268
1090	1.0836e+02	-3.4026	-16.679426	0.000648	6.483054	2.196518	-0.000260
1091	1.0845e+02	-3.4539	-16.945877	0.000669	6.685650	2.265160	-0.000268
1092	1.0855e+02	-3.4780	-17.208291	0.000658	6.584352	2.230839	-0.000264
1093	1.0865e+02	-3.5181	-17.462631	0.000638	6.381757	2.162198	-0.000256
1094	1.0875e+02	-3.5598	-17.704859	0.000608	6.077864	2.059236	-0.000243
1095	1.0885e+02	-3.6047	-17.967273	0.000658	6.584352	2.230839	-0.000264
1096	1.0895e+02	-3.6512	-18.249872	0.000709	7.090841	2.402442	-0.000284
1097	1.0905e+02	-3.6817	-18.528434	0.000699	6.989543	2.368121	-0.000280
1098	1.0915e+02	-3.7218	-18.746440	0.000547	5.470077	1.853312	-0.000219
1099	1.0925e+02	-3.7651	-19.049225	0.000760	7.597329	2.574045	-0.000304
1100	1.0935e+02	-3.7940	-19.271267	0.000557	5.571375	1.887633	-0.000223
1101	1.0945e+02	-3.8453	-19.545793	0.000689	6.888245	2.333801	-0.000276
1102	1.0955e+02	-3.8790	-19.779947	0.000588	5.875268	1.990595	-0.000235
1103	1.0965e+02	-3.9256	-20.038323	0.000648	6.483054	2.196518	-0.000260
1104	1.0975e+02	-3.9705	-20.353220	0.000790	7.901223	2.677007	-0.000316
1105	1.0985e+02	-4.0026	-20.563151	0.000527	5.267482	1.784671	-0.000211
1106	1.0995e+02	-4.0427	-20.805379	0.000608	6.077864	2.059236	-0.000243
1107	1.1005e+02	-4.0860	-21.059719	0.000638	6.381757	2.162198	-0.000256
1108	1.1015e+02	-4.1149	-21.334244	0.000689	6.888245	2.333801	-0.000276
1109	1.1025e+02	-4.1614	-21.592620	0.000648	6.483054	2.196518	-0.000260
1110	1.1035e+02	-4.2031	-21.834849	0.000608	6.077864	2.059236	-0.000243
1111	1.1044e+02	-4.2400	-22.085151	0.000628	6.280459	2.127877	-0.000252
1112	1.1054e+02	-4.2817	-22.347565	0.000658	6.584352	2.230839	-0.000264
1113	1.1064e+02	-4.3186	-22.658424	0.000780	7.799925	2.642686	-0.000312
1114	1.1074e+02	-4.3619	-22.876430	0.000547	5.470077	1.853312	-0.000219
1115	1.1084e+02	-4.3956	-23.078286	0.000506	5.064886	1.716030	-0.000203
1116	1.1094e+02	-4.4421	-23.397220	0.000800	8.002520	2.711327	-0.000321
1117	1.1104e+02	-4.4822	-23.639448	0.000608	6.077864	2.059236	-0.000243
1118	1.1114e+02	-4.5271	-23.926085	0.000719	7.192139	2.436762	-0.000288
1119	1.1124e+02	-4.5624	-24.107756	0.000456	4.558398	1.544427	-0.000183
1120	1.1134e+02	-4.6025	-24.378244	0.000679	6.786948	2.299480	-0.000272
1121	1.1144e+02	-4.6362	-24.612398	0.000588	5.875268	1.990595	-0.000235
1122	1.1154e+02	-4.6779	-24.899035	0.000719	7.192139	2.436762	-0.000288
1123	1.1164e+02	-4.7197	-25.129151	0.000577	5.773970	1.956274	-0.000231
1124	1.1174e+02	-4.7566	-25.383491	0.000638	6.381757	2.162198	-0.000256
1125	1.1184e+02	-4.8047	-25.613608	0.000577	5.773970	1.956274	-0.000231
1126	1.1194e+02	-4.8416	-25.888133	0.000689	6.888245	2.333801	-0.000276
1127	1.1204e+02	-4.8688	-26.081915	0.000486	4.862291	1.647389	-0.000195
1128	1.1214e+02	-4.9186	-26.372589	0.000729	7.293436	2.471083	-0.000292
1129	1.1224e+02	-4.9555	-26.586557	0.000537	5.368779	1.818992	-0.000215
1130	1.1234e+02	-5.0004	-26.832823	0.000618	6.179161	2.093557	-0.000248
1131	1.1244e+02	-5.0373	-27.091199	0.000648	6.483054	2.196518	-0.000260
1132	1.1253e+02	-5.0774	-27.329390	0.000598	5.976566	2.024915	-0.000239
1133	1.1263e+02	-5.1143	-27.567581	0.000598	5.976566	2.024915	-0.000239
1134	1.1273e+02	-5.1576	-27.789624	0.000557	5.571375	1.887633	-0.000223
1135	1.1283e+02	-5.2009	-28.072223	0.000709	7.090841	2.402442	-0.000284
1136	1.1293e+02	-5.2330	-28.314451	0.000608	6.077864	2.059236	-0.000243
1137	1.1303e+02	-5.2731	-28.548605	0.000588	5.875268	1.990595	-0.000235
1138	1.1313e+02	-5.3228	-28.790834	0.000608	6.077864	2.059236	-0.000243
1139	1.1323e+02	-5.3549	-28.996727	0.000517	5.166184	1.750351	-0.000207
1140	1.1333e+02	-5.3982	-29.275290	0.000699	6.989543	2.368121	-0.000280
1141	1.1343e+02	-5.4335	-29.509444	0.000588	5.875268	1.990595	-0.000235
1142	1.1353e+02	-5.4785	-29.739560	0.000577	5.773970	1.956274	-0.000231
1143	1.1363e+02	-5.5202	-30.026197	0.000719	7.192139	2.436762	-0.000288
1144	1.1373e+02	-5.5490	-30.215942	0.000476	4.760993	1.613068	-0.000191
1145	1.1383e+02	-5.5891	-30.478356	0.000658	6.584352	2.230839	-0.000264
1146	1.1393e+02	-5.6357	-30.708473	0.000577	5.773970	1.956274	-0.000231
1147	1.1403e+02	-5.6726	-30.970887	0.000658	6.584352	2.230839	-0.000264
1148	1.1413e+02	-5.7127	-31.188892	0.000547	5.470077	1.853312	-0.000219
1149	1.1423e+02	-5.7560	-31.439195	0.000628	6.280459	2.127877	-0.000252
1150	1.1433e+02	-5.7993	-31.657200	0.000547	5.470077	1.853312	-0.000219
1151	1.1442e+02	-5.8330	-31.879242	0.000557	5.571375	1.887633	-0.000223
1152	1.1452e+02	-5.8731	-32.129545	0.000628	6.280459	2.127877	-0.000252
1153	1.1462e+02	-5.9132	-32.331402	0.000506	5.064886	1.716030	-0.000203
1154	1.1472e+02	-5.9549	-32.593815	0.000658	6.584352	2.230839	-0.000264
1155	1.1482e+02	-5.9982	-32.815858	0.000557	5.571375	1.887633	-0.000223
1156	1.1492e+02	-6.0367	-33.041937	0.000567	5.672673	1.921954	-0.000227
1157	1.1502e+02	-6.0849	-33.300314	0.000648	6.483054	2.196518	-0.000260
1158	1.1512e+02	-6.1185	-33.538505	0.000598	5.976566	2.024915	-0.000239
1159	1.1522e+02	-6.1538	-33.776696	0.000598	5.976566	2.024915	-0.000239
1160	1.1532e+02	-6.1875	-33.982590	0.000517	5.166184	1.750351	-0.000207
1161	1.1542e+02	-6.2389	-34.228855	0.000618	6.179161	2.093557	-0.000248
1162	1.1552e+02	-6.2774	-34.475121	0.000618	6.179161	2.093557	-0.000248
1163	1.1562e+02	-6.3143	-34.705237	0.000577	5.773970	1.956274	-0.000231
1164	1.1572e+02	-6.3560	-34.951503	0.000618	6.179161	2.093557	-0.000248
1165	1.1582e+02	-6.3977	-35.137211	0.000466	4.659695	1.578748	-0.000187
1166	1.1592e+02	-6.4490	-35.383476	0.000618	6.179161	2.093557	-0.000248
1167	1.1602e+02	-6.4651	-35.609556	0.000567	5.672673	1.921954	-0.000227
1168	1.1612e+02	-6.4923	-35.827561	0.000547	5.470077	1.853312	-0.000219
1169	1.1622e+02	-6.5485	-36.041529	0.000537	5.368779	1.818992	-0.000215
1170	1.1632e+02	-6.5886	-36.299906	0.000648	6.483054	2.196518	-0.000260
1171	1.1642e+02	-6.6303	-36.530023	0.000577	5.773970	1.956274	-0.000231
1172	1.1651e+02	-6.6704	-36.756102	0.000567	5.672673	1.921954	-0.000227
1173	1.1661e+02	-6.7089	-36.978145	0.000557	5.571375	1.887633	-0.000223
1174	1.1671e+02	-6.7554	-37.260744	0.000709	7.090841	2.402442	-0.000284
1175	1.1681e+02	-6.7987	-37.426267	0.000415	4.153207	1.407145	-0.000166
1176	1.1691e+02	-6.8292	-37.652346	0.000567	5.672673	1.921954	-0.000227
1177	1.1701e+02	-6.8725	-37.862278	0.000527	5.267482	1.784671	-0.000211
1178	1.1711e+02	-6.9094	-38.108543	0.000618	6.179161	2.093557	-0.000248
1179	1.1721e+02	-6.9367	-38.350771	0.000608	6.077864	2.059236	-0.000243
1180	1.1731e+02	-6.9800	-38.572813	0.000557	5.571375	1.887633	-0.000223
1181	1.1741e+02	-7.0346	-38.802930	0.000577	5.773970	1.956274	-0.000231
1182	1.1751e+02	-7.0666	-39.024973	0.000557	5.571375	1.887633	-0.000223
1183	1.1761e+02	-7.1051	-39.230867	0.000517	5.166184	1.750351	-0.000207
1184	1.1771e+02	-7.1485	-39.460983	0.000577	5.773970	1.956274	-0.000231
1185	1.1781e+02	-7.1934	-39.699174	0.000598	5.976566	2.024915	-0.000239
1186	1.1791e+02	-7.2142	-39.888920	0.000476	4.760993	1.613068	-0.000191
1187	1.1801e+02	-7.2720	-40.131148	0.000608	6.077864	2.059236	-0.000243
1188	1.1811e+02	-7.3041	-40.337042	0.000517	5.166184	1.750351	-0.000207
1189	1.1821e+02	-7.3442	-40.567158	0.000577	5.773970	1.956274	-0.000231
1190	1.1831e+02	-7.3843	-40.793238	0.000567	5.672673	1.921954	-0.000227
1191	1.1841e+02	-7.4308	-41.055652	0.000658	6.584352	2.230839	-0.000264
1192	1.1850e+02	-7.4677	-41.285769	0.000577	5.773970	1.956274	-0.000231
1193	1.1860e+02	-7.5030	-41.451291	0.000415	4.153207	1.407145	-0.000166
1194	1.1870e+02	-7.5447	-41.693519	0.000608	6.077864	2.059236	-0.000243
1195	1.1880e+02	-7.5816	-41.915562	0.000557	5.571375	1.887633	-0.000223
1196	1.1890e+02	-7.6185	-42.121456	0.000517	5.166184	1.750351	-0.000207
1197	1.1900e+02	-7.6698	-42.387907	0.000669	6.685650	2.265160	-0.000268
1198	1.1910e+02	-7.7099	-42.565541	0.000446	4.457100	1.510106	-0.000179
1199	1.1920e+02	-7.7452	-42.791620	0.000567	5.672673	1.921954	-0.000227
1200	1.1930e+02	-7.7821	-43.001551	0.000527	5.267482	1.784671	-0.000211
1201	1.1940e+02	-7.8254	-43.243779	0.000608	6.077864	2.059236	-0.000243
1202	1.1950e+02	-7.8656	-43.465822	0.000557	5.571375	1.887633	-0.000223
1203	1.1960e+02	-7.9073	-43.643456	0.000446	4.457100	1.510106	-0.000179
1204	1.1970e+02	-7.9442	-43.897795	0.000638	6.381757	2.162198	-0.000256
1205	1.1980e+02	-7.9859	-44.123875	0.000567	5.672673	1.921954	-0.000227
1206	1.1990e+02	-8.0244	-44.337843	0.000537	5.368779	1.818992	-0.000215
1207	1.2000e+02	-8.0549	-44.559886	0.000557	5.571375	1.887633	-0.000223
1208	1.2010e+02	-8.1014	-44.773854	0.000537	5.368779	1.818992	-0.000215
1209	1.2020e+02	-8.1511	-44.983785	0.000527	5.267482	1.784671	-0.000211
1210	1.2030e+02	-8.1896	-45.197753	0.000537	5.368779	1.818992	-0.000215
1211	1.2039e+02	-8.2233	-45.435944	0.000598	5.976566	2.024915	-0.000239
1212	1.2049e+02	-8.2698	-45.645875	0.000527	5.267482	1.784671	-0.000211
1213	1.2059e+02	-8.3035	-45.835621	0.000476	4.760993	1.613068	-0.000191
1214	1.2069e+02	-8.3340	-46.033440	0.000496	4.963589	1.681709	-0.000199
1215	1.2079e+02	-8.3805	-46.295854	0.000658	6.584352	2.230839	-0.000264
1216	1.2089e+02	-8.4206	-46.546156	0.000628	6.280459	2.127877	-0.000252
1217	1.2099e+02	-8.4671	-46.739939	0.000486	4.862291	1.647389	-0.000195
1218	1.2109e+02	-8.5040	-46.945833	0.000517	5.166184	1.750351	-0.000207
1219	1.2119e+02	-8.5425	-47.200172	0.000638	6.381757	2.162198	-0.000256
1220	1.2129e+02	-8.5859	-47.406066	0.000517	5.166184	1.750351	-0.000207
1221	1.2139e+02	-8.6356	-47.611960	0.000517	5.166184	1.750351	-0.000207
1222	1.2149e+02	-8.6564	-47.854188	0.000608	6.077864	2.059236	-0.000243
1223	1.2159e+02	-8.7046	-48.052008	0.000496	4.963589	1.681709	-0.000199
1224	1.2169e+02	-8.7399	-48.306348	0.000638	6.381757	2.162198	-0.000256
1225	1.2179e+02	-8.7768	-48.528390	0.000557	5.571375	1.887633	-0.000223
1226	1.2189e+02	-8.8265	-48.730247	0.000506	5.064886	1.716030	-0.000203
1227	1.2199e+02	-8.8538	-48.948252	0.000547	5.470077	1.853312	-0.000219
1228	1.2209e+02	-8.9051	-49.186443	0.000598	5.976566	2.024915	-0.000239
1229	1.2219e+02	-8.9404	-49.360040	0.000436	4.355802	1.475786	-0.000174
1230	1.2229e+02	-8.9757	-49.590157	0.000577	5.773970	1.956274	-0.000231
1231	1.2239e+02	-9.0286	-49.840459	0.000628	6.280459	2.127877	-0.000252
1232	1.2248e+02	-9.0671	-50.038279	0.000496	4.963589	1.681709	-0.000199
1233	1.2258e+02	-9.0928	-50.268396	0.000577	5.773970	1.956274	-0.000231
1234	1.2268e+02	-9.1425	-50.478327	0.000527	5.267482	1.784671	-0.000211
1235	1.2278e+02	-9.1858	-50.700369	0.000557	5.571375	1.887633	-0.000223
1236	1.2288e+02	-9.2227	-50.910300	0.000527	5.267482	1.784671	-0.000211
1237	1.2298e+02	-9.2660	-51.156566	0.000618	6.179161	2.093557	-0.000248
1238	1.2308e+02	-9.3029	-51.358422	0.000506	5.064886	1.716030	-0.000203
1239	1.2318e+02	-9.3431	-51.572390	0.000537	5.368779	1.818992	-0.000215
1240	1.2328e+02	-9.3896	-51.770210	0.000496	4.963589	1.681709	-0.000199
1241	1.2338e+02	-9.4217	-52.000327	0.000577	5.773970	1.956274	-0.000231
1242	1.2348e+02	-9.4586	-52.222369	0.000557	5.571375	1.887633	-0.000223
1243	1.2358e+02	-9.4955	-52.448449	0.000567	5.672673	1.921954	-0.000227
1244	1.2368e+02	-9.5404	-52.630120	0.000456	4.558398	1.544427	-0.000183
1245	1.2378e+02	-9.5885	-52.868311	0.000598	5.976566	2.024915	-0.000239
1246	1.2388e+02	-9.6094	-53.074205	0.000517	5.166184	1.750351	-0.000207
1247	1.2398e+02	-9.6591	-53.267987	0.000486	4.862291	1.647389	-0.000195
1248	1.2408e+02	-9.6960	-53.490030	0.000557	5.571375	1.887633	-0.000223
1249	1.2418e+02	-9.7377	-53.736295	0.000618	6.179161	2.093557	-0.000248
1250	1.2428e+02	-9.7810	-53.950263	0.000537	5.368779	1.818992	-0.000215
1251	1.2438e+02	-9.8131	-54.156157	0.000517	5.166184	1.750351	-0.000207
1252	1.2447e+02	-9.8580	-54.370126	0.000537	5.368779	1.818992	-0.000215
1253	1.2457e+02	-9.8965	-54.543722	0.000436	4.355802	1.475786	-0.000174
1254	1.2467e+02	-9.9286	-54.765765	0.000557	5.571375	1.887633	-0.000223
1255	1.2477e+02	-9.9767	-55.012030	0.000618	6.179161	2.093557	-0.000248
1256	1.2487e+02	-10.0168	-55.217924	0.000517	5.166184	1.750351	-0.000207
1257	1.2497e+02	-10.0601	-55.431892	0.000537	5.368779	1.818992	-0.000215
1258	1.2507e+02	-10.0970	-55.653935	0.000557	5.571375	1.887633	-0.000223
1259	1.2517e+02	-10.1388	-55.892126	0.000598	5.976566	2.024915	-0.000239
1260	1.2527e+02	-10.1740	-56.093983	0.000506	5.064886	1.716030	-0.000203
1261	1.2537e+02	-10.2206	-56.299876	0.000517	5.166184	1.750351	-0.000207
1262	1.2547e+02	-10.2607	-56.469436	0.000425	4.254504	1.441465	-0.000170
1263	1.2557e+02	-10.2863	-56.687441	0.000547	5.470077	1.853312	-0.000219
1264	1.2567e+02	-10.3329	-56.949855	0.000658	6.584352	2.230839	-0.000264
1265	1.2577e+02	-10.3730	-57.175935	0.000567	5.672673	1.921954	-0.000227
1266	1.2587e+02	-10.4131	-57.385866	0.000527	5.267482	1.784671	-0.000211
1267	1.2597e+02	-10.4548	-57.603871	0.000547	5.470077	1.853312	-0.000219
1268	1.2607e+02	-10.5125	-57.801691	0.000496	4.963589	1.681709	-0.000199
1269	1.2617e+02	-10.5398	-57.995473	0.000486	4.862291	1.647389	-0.000195
1270	1.2627e+02	-10.5767	-58.249813	0.000638	6.381757	2.162198	-0.000256
1271	1.2636e+02	-10.6184	-58.439558	0.000476	4.760993	1.613068	-0.000191
1272	1.2646e+02	-10.6553	-58.653527	0.000537	5.368779	1.818992	-0.000215
1273	1.2656e+02	-10.7002	-58.831161	0.000446	4.457100	1.510106	-0.000179
1274	1.2666e+02	-10.7403	-59.037054	0.000517	5.166184	1.750351	-0.000207
1275	1.2676e+02	-10.7692	-59.271208	0.000588	5.875268	1.990595	-0.000235
1276	1.2686e+02	-10.8077	-59.509399	0.000598	5.976566	2.024915	-0.000239
1277	1.2696e+02	-10.8510	-59.711256	0.000506	5.064886	1.716030	-0.000203
1278	1.2706e+02	-10.8927	-59.941373	0.000577	5.773970	1.956274	-0.000231
1279	1.2716e+02	-10.9328	-60.127081	0.000466	4.659695	1.578748	-0.000187
1280	1.2726e+02	-10.9778	-60.369309	0.000608	6.077864	2.059236	-0.000243
1281	1.2736e+02	-11.0131	-60.571166	0.000506	5.064886	1.716030	-0.000203
1282	1.2746e+02	-11.0548	-60.756874	0.000466	4.659695	1.578748	-0.000187
1283	1.2756e+02	-11.0885	-61.003140	0.000618	6.179161	2.093557	-0.000248
1284	1.2766e+02	-11.1254	-61.176736	0.000436	4.355802	1.475786	-0.000174
1285	1.2776e+02	-11.1687	-61.402816	0.000567	5.672673	1.921954	-0.000227
1286	1.2786e+02	-11.2120	-61.632933	0.000577	5.773970	1.956274	-0.000231
1287	1.2796e+02	-11.2537	-61.838827	0.000517	5.166184	1.750351	-0.000207
1288	1.2806e+02	-11.2890	-62.064906	0.000567	5.672673	1.921954	-0.000227
1289	1.2816e+02	-11.3371	-62.246577	0.000456	4.558398	1.544427	-0.000183
1290	1.2826e+02	-11.3772	-62.472657	0.000567	5.672673	1.921954	-0.000227
1291	1.2835e+02	-11.4173	-62.694699	0.000557	5.571375	1.887633	-0.000223
1292	1.2845e+02	-11.4574	-62.912705	0.000547	5.470077	1.853312	-0.000219
1293	1.2855e+02	-11.4943	-63.114562	0.000506	5.064886	1.716030	-0.000203
1294	1.2865e+02	-11.5264	-63.296233	0.000456	4.558398	1.544427	-0.000183
1295	1.2875e+02	-11.5649	-63.550572	0.000638	6.381757	2.162198	-0.000256
1296	1.2885e+02	-11.6114	-63.744355	0.000486	4.862291	1.647389	-0.000195
1297	1.2895e+02	-11.6548	-63.942174	0.000496	4.963589	1.681709	-0.000199
1298	1.2905e+02	-11.6916	-64.107697	0.000415	4.153207	1.407145	-0.000166
1299	1.2915e+02	-11.7285	-64.353962	0.000618	6.179161	2.093557	-0.000248
1300	1.2925e+02	-11.7703	-64.531596	0.000446	4.457100	1.510106	-0.000179
1301	1.2935e+02	-11.8088	-64.733453	0.000506	5.064886	1.716030	-0.000203
1302	1.2945e+02	-11.8489	-64.951458	0.000547	5.470077	1.853312	-0.000219
1303	1.2955e+02	-11.8954	-65.153315	0.000506	5.064886	1.716030	-0.000203
1304	1.2965e+02	-11.9387	-65.363246	0.000527	5.267482	1.784671	-0.000211
1305	1.2975e+02	-11.9708	-65.609511	0.000618	6.179161	2.093557	-0.000248
1306	1.2985e+02	-12.0109	-65.758885	0.000375	3.748016	1.269862	-0.000150
1307	1.2995e+02	-12.0510	-65.993039	0.000588	5.875268	1.990595	-0.000235
1308	1.3005e+02	-12.0927	-66.178748	0.000466	4.659695	1.578748	-0.000187
1309	1.3015e+02	-12.1312	-66.380604	0.000506	5.064886	1.716030	-0.000203
1310	1.3025e+02	-12.1777	-66.590535	0.000527	5.267482	1.784671	-0.000211
1311	1.3034e+02	-12.2034	-66.780281	0.000476	4.760993	1.613068	-0.000191
1312	1.3044e+02	-12.2467	-67.018472	0.000598	5.976566	2.024915	-0.000239
1313	1.3054e+02	-12.2900	-67.163809	0.000365	3.646718	1.235542	-0.000146
1314	1.3064e+02	-12.3237	-67.393925	0.000577	5.773970	1.956274	-0.000231
1315	1.3074e+02	-12.3702	-67.591745	0.000496	4.963589	1.681709	-0.000199
1316	1.3084e+02	-12.4039	-67.801676	0.000527	5.267482	1.784671	-0.000211
1317	1.3094e+02	-12.4488	-68.007570	0.000517	5.166184	1.750351	-0.000207
1318	1.3104e+02	-12.4857	-68.245761	0.000598	5.976566	2.024915	-0.000239
1319	1.3114e+02	-12.5210	-68.407247	0.000405	4.051909	1.372824	-0.000162
1320	1.3124e+02	-12.5676	-68.605066	0.000496	4.963589	1.681709	-0.000199
1321	1.3134e+02	-12.6093	-68.782700	0.000446	4.457100	1.510106	-0.000179
1322	1.3144e+02	-12.6494	-69.016854	0.000588	5.875268	1.990595	-0.000235
1323	1.3154e+02	-12.6895	-69.222748	0.000517	5.166184	1.750351	-0.000207
1324	1.3164e+02	-12.7296	-69.404419	0.000456	4.558398	1.544427	-0.000183
1325	1.3174e+02	-12.7681	-69.606276	0.000506	5.064886	1.716030	-0.000203
1326	1.3184e+02	-12.8274	-69.808133	0.000506	5.064886	1.716030	-0.000203
1327	1.3194e+02	-12.8419	-69.977692	0.000425	4.254504	1.441465	-0.000170
1328	1.3204e+02	-12.8820	-70.211846	0.000588	5.875268	1.990595	-0.000235
1329	1.3214e+02	-12.9237	-70.425814	0.000537	5.368779	1.818992	-0.000215
1330	1.3224e+02	-12.9606	-70.563077	0.000344	3.444123	1.166900	-0.000138
1331	1.3234e+02	-13.0103	-70.789157	0.000567	5.672673	1.921954	-0.000227
1332	1.3243e+02	-13.0376	-70.995051	0.000517	5.166184	1.750351	-0.000207
1333	1.3253e+02	-13.0793	-71.180759	0.000466	4.659695	1.578748	-0.000187
1334	1.3263e+02	-13.1339	-71.358393	0.000446	4.457100	1.510106	-0.000179
1335	1.3273e+02	-13.1772	-71.568324	0.000527	5.267482	1.784671	-0.000211
1336	1.3283e+02	-13.2076	-71.810552	0.000608	6.077864	2.059236	-0.000243
1337	1.3293e+02	-13.2478	-72.008372	0.000496	4.963589	1.681709	-0.000199
1338	1.3303e+02	-13.2798	-72.181968	0.000436	4.355802	1.475786	-0.000174
1339	1.3313e+02	-13.3167	-72.391899	0.000527	5.267482	1.784671	-0.000211
1340	1.3323e+02	-13.3601	-72.577608	0.000466	4.659695	1.578748	-0.000187
1341	1.3333e+02	-13.3986	-72.787539	0.000527	5.267482	1.784671	-0.000211
1342	1.3343e+02	-13.4467	-72.977284	0.000476	4.760993	1.613068	-0.000191
1343	1.3353e+02	-13.4804	-73.199327	0.000557	5.571375	1.887633	-0.000223
1344	1.3363e+02	-13.5189	-73.332552	0.000334	3.342825	1.132580	-0.000134
1345	1.3373e+02	-13.5638	-73.599003	0.000669	6.685650	2.265160	-0.000268
1346	1.3383e+02	-13.5943	-73.736266	0.000344	3.444123	1.166900	-0.000138
1347	1.3393e+02	-13.6488	-73.938122	0.000506	5.064886	1.716030	-0.000203
1348	1.3403e+02	-13.6841	-74.156128	0.000547	5.470077	1.853312	-0.000219
1349	1.3413e+02	-13.7210	-74.305502	0.000375	3.748016	1.269862	-0.000150
1350	1.3423e+02	-13.7691	-74.531581	0.000567	5.672673	1.921954	-0.000227
1351	1.3432e+02	-13.8044	-74.705178	0.000436	4.355802	1.475786	-0.000174
1352	1.3442e+02	-13.8445	-74.894924	0.000476	4.760993	1.613068	-0.000191
1353	1.3452e+02	-13.8814	-75.064483	0.000425	4.254504	1.441465	-0.000170
1354	1.3462e+02	-13.9183	-75.290563	0.000567	5.672673	1.921954	-0.000227
1355	1.3472e+02	-13.9616	-75.448011	0.000395	3.950611	1.338503	-0.000158
1356	1.3482e+02	-14.0001	-75.698314	0.000628	6.280459	2.127877	-0.000252
1357	1.3492e+02	-14.0306	-75.892096	0.000486	4.862291	1.647389	-0.000195
1358	1.3502e+02	-14.0900	-76.065693	0.000436	4.355802	1.475786	-0.000174
1359	1.3512e+02	-14.1156	-76.267550	0.000506	5.064886	1.716030	-0.000203
1360	1.3522e+02	-14.1638	-76.441147	0.000436	4.355802	1.475786	-0.000174
1361	1.3532e+02	-14.1975	-76.647041	0.000517	5.166184	1.750351	-0.000207
1362	1.3542e+02	-14.2456	-76.836786	0.000476	4.760993	1.613068	-0.000191
1363	1.3552e+02	-14.2761	-77.026531	0.000476	4.760993	1.613068	-0.000191
1364	1.3562e+02	-14.3210	-77.200128	0.000436	4.355802	1.475786	-0.000174
1365	1.3572e+02	-14.3627	-77.426208	0.000567	5.672673	1.921954	-0.000227
1366	1.3582e+02	-14.3948	-77.619990	0.000486	4.862291	1.647389	-0.000195
1367	1.3592e+02	-14.4461	-77.753216	0.000334	3.342825	1.132580	-0.000134
1368	1.3602e+02	-14.4798	-77.983332	0.000577	5.773970	1.956274	-0.000231
1369	1.3612e+02	-14.5279	-78.181152	0.000496	4.963589	1.681709	-0.000199
1370	1.3622e+02	-14.5568	-78.346675	0.000415	4.153207	1.407145	-0.000166
1371	1.3631e+02	-14.6033	-78.536420	0.000476	4.760993	1.613068	-0.000191
1372	1.3641e+02	-14.6290	-78.734240	0.000496	4.963589	1.681709	-0.000199
1373	1.3651e+02	-14.6755	-78.952245	0.000547	5.470077	1.853312	-0.000219
1374	1.3661e+02	-14.7285	-79.113730	0.000405	4.051909	1.372824	-0.000162
1375	1.3671e+02	-14.7557	-79.323662	0.000527	5.267482	1.784671	-0.000211
1376	1.3681e+02	-14.7974	-79.513407	0.000476	4.760993	1.613068	-0.000191
1377	1.3691e+02	-14.8375	-79.707189	0.000486	4.862291	1.647389	-0.000195
1378	1.3701e+02	-14.8793	-79.888861	0.000456	4.558398	1.544427	-0.000183
1379	1.3711e+02	-14.9162	-80.038235	0.000375	3.748016	1.269862	-0.000150
1380	1.3721e+02	-14.9579	-80.296611	0.000648	6.483054	2.196518	-0.000260
1381	1.3731e+02	-14.9980	-80.454060	0.000395	3.950611	1.338503	-0.000158
1382	1.3741e+02	-15.0381	-80.688213	0.000588	5.875268	1.990595	-0.000235
1383	1.3751e+02	-15.0734	-80.825476	0.000344	3.444123	1.166900	-0.000138
1384	1.3761e+02	-15.1215	-81.023296	0.000496	4.963589	1.681709	-0.000199
1385	1.3771e+02	-15.1504	-81.249375	0.000567	5.672673	1.921954	-0.000227
1386	1.3781e+02	-15.1905	-81.439121	0.000476	4.760993	1.613068	-0.000191
1387	1.3791e+02	-15.2370	-81.628866	0.000476	4.760993	1.613068	-0.000191
1388	1.3801e+02	-15.2755	-81.806500	0.000446	4.457100	1.510106	-0.000179
1389	1.3811e+02	-15.3220	-82.016431	0.000527	5.267482	1.784671	-0.000211
1390	1.3821e+02	-15.3637	-82.169842	0.000385	3.849314	1.304183	-0.000154
1391	1.3831e+02	-15.3942	-82.428219	0.000648	6.483054	2.196518	-0.000260
1392	1.3840e+02	-15.4311	-82.630076	0.000506	5.064886	1.716030	-0.000203
1393	1.3850e+02	-15.4744	-82.803673	0.000436	4.355802	1.475786	-0.000174
1394	1.3860e+02	-15.5145	-82.969195	0.000415	4.153207	1.407145	-0.000166
1395	1.3870e+02	-15.5578	-83.138755	0.000425	4.254504	1.441465	-0.000170
1396	1.3880e+02	-15.5980	-83.364834	0.000567	5.672673	1.921954	-0.000227
1397	1.3890e+02	-15.6252	-83.510171	0.000365	3.646718	1.235542	-0.000146
1398	1.3900e+02	-15.6734	-83.744325	0.000588	5.875268	1.990595	-0.000235
1399	1.3910e+02	-15.7199	-83.921959	0.000446	4.457100	1.510106	-0.000179
1400	1.3920e+02	-15.7584	-84.135927	0.000537	5.368779	1.818992	-0.000215
1401	1.3930e+02	-15.7840	-84.297413	0.000405	4.051909	1.372824	-0.000162
1402	1.3940e+02	-15.8322	-84.503307	0.000517	5.166184	1.750351	-0.000207
1403	1.3950e+02	-15.8835	-84.733423	0.000577	5.773970	1.956274	-0.000231
1404	1.3960e+02	-15.9060	-84.898946	0.000415	4.153207	1.407145	-0.000166
1405	1.3970e+02	-15.9525	-85.120988	0.000557	5.571375	1.887633	-0.000223
1406	1.3980e+02	-15.9814	-85.278437	0.000395	3.950611	1.338503	-0.000158
1407	1.3990e+02	-16.0359	-85.524702	0.000618	6.179161	2.093557	-0.000248
1408	1.4000e+02	-16.0776	-85.718485	0.000486	4.862291	1.647389	-0.000195
1409	1.4010e+02	-16.1145	-85.916304	0.000496	4.963589	1.681709	-0.000199
1410	1.4020e+02	-16.1466	-86.081827	0.000415	4.153207	1.407145	-0.000166
1411	1.4029e+02	-16.1995	-86.259461	0.000446	4.457100	1.510106	-0.000179
1412	1.4039e+02	-16.2316	-86.469392	0.000527	5.267482	1.784671	-0.000211
1413	1.4049e+02	-16.2669	-86.663174	0.000486	4.862291	1.647389	-0.000195
1414	1.4059e+02	-16.3102	-86.865031	0.000506	5.064886	1.716030	-0.000203
1415	1.4069e+02	-16.3503	-87.107259	0.000608	6.077864	2.059236	-0.000243
1416	1.4079e+02	-16.3904	-87.256633	0.000375	3.748016	1.269862	-0.000150
1417	1.4089e+02	-16.4386	-87.474639	0.000547	5.470077	1.853312	-0.000219
1418	1.4099e+02	-16.4707	-87.664384	0.000476	4.760993	1.613068	-0.000191
1419	1.4109e+02	-16.5060	-87.858166	0.000486	4.862291	1.647389	-0.000195
1420	1.4119e+02	-16.5541	-87.999466	0.000355	3.545420	1.201221	-0.000142
1421	1.4129e+02	-16.5894	-88.221509	0.000557	5.571375	1.887633	-0.000223
1422	1.4139e+02	-16.6311	-88.415291	0.000486	4.862291	1.647389	-0.000195
1423	1.4149e+02	-16.6744	-88.661557	0.000618	6.179161	2.093557	-0.000248
1424	1.4159e+02	-16.7033	-88.847265	0.000466	4.659695	1.578748	-0.000187
1425	1.4169e+02	-16.7578	-89.016824	0.000425	4.254504	1.441465	-0.000170
1426	1.4179e+02	-16.7787	-89.218681	0.000506	5.064886	1.716030	-0.000203
1427	1.4189e+02	-16.8300	-89.404389	0.000466	4.659695	1.578748	-0.000187
1428	1.4199e+02	-16.8717	-89.610283	0.000517	5.166184	1.750351	-0.000207
1429	1.4209e+02	-16.9166	-89.804066	0.000486	4.862291	1.647389	-0.000195
1430	1.4219e+02	-16.9503	-89.981700	0.000446	4.457100	1.510106	-0.000179
1431	1.4228e+02	-16.9968	-90.167408	0.000466	4.659695	1.578748	-0.000187
1432	1.4238e+02	-17.0353	-90.361191	0.000486	4.862291	1.647389	-0.000195
1433	1.4248e+02	-17.0819	-90.571122	0.000527	5.267482	1.784671	-0.000211
1434	1.4258e+02	-17.1059	-90.785090	0.000537	5.368779	1.818992	-0.000215
1435	1.4268e+02	-17.1509	-90.982910	0.000496	4.963589	1.681709	-0.000199
1436	1.4278e+02	-17.1845	-91.225138	0.000608	6.077864	2.059236	-0.000243
1437	1.4288e+02	-17.2311	-91.418920	0.000486	4.862291	1.647389	-0.000195
1438	1.4298e+02	-17.2680	-91.600591	0.000456	4.558398	1.544427	-0.000183
1439	1.4308e+02	-17.3081	-91.798411	0.000496	4.963589	1.681709	-0.000199
1440	1.4318e+02	-17.3546	-92.024491	0.000567	5.672673	1.921954	-0.000227
1441	1.4328e+02	-17.3851	-92.198087	0.000436	4.355802	1.475786	-0.000174
1442	1.4338e+02	-17.4332	-92.387833	0.000476	4.760993	1.613068	-0.000191
1443	1.4348e+02	-17.4717	-92.589690	0.000506	5.064886	1.716030	-0.000203
1444	1.4358e+02	-17.5166	-92.815769	0.000567	5.672673	1.921954	-0.000227
1445	1.4368e+02	-17.5519	-93.013589	0.000496	4.963589	1.681709	-0.000199
1446	1.4378e+02	-17.5824	-93.259854	0.000618	6.179161	2.093557	-0.000248
1447	1.4388e+02	-17.6257	-93.417302	0.000395	3.950611	1.338503	-0.000158
1448	1.4398e+02	-17.6690	-93.643382	0.000567	5.672673	1.921954	-0.000227
1449	1.4408e+02	-17.7075	-93.861387	0.000547	5.470077	1.853312	-0.000219
1450	1.4418e+02	-17.7428	-94.022873	0.000405	4.051909	1.372824	-0.000162
1451	1.4428e+02	-17.7845	-94.248952	0.000567	5.672673	1.921954	-0.000227
1452	1.4437e+02	-17.8230	-94.446772	0.000496	4.963589	1.681709	-0.000199
1453	1.4447e+02	-17.8583	-94.656703	0.000527	5.267482	1.784671	-0.000211
1454	1.4457e+02	-17.9048	-94.826263	0.000425	4.254504	1.441465	-0.000170
1455	1.4467e+02	-17.9498	-95.068491	0.000608	6.077864	2.059236	-0.000243
1456	1.4477e+02	-17.9899	-95.278422	0.000527	5.267482	1.784671	-0.000211
1457	1.4487e+02	-18.0300	-95.476242	0.000496	4.963589	1.681709	-0.000199
1458	1.4497e+02	-18.0637	-95.678098	0.000506	5.064886	1.716030	-0.000203
1459	1.4507e+02	-18.1038	-95.908215	0.000577	5.773970	1.956274	-0.000231
1460	1.4517e+02	-18.1487	-96.106035	0.000496	4.963589	1.681709	-0.000199
1461	1.4527e+02	-18.1824	-96.299817	0.000486	4.862291	1.647389	-0.000195
1462	1.4537e+02	-18.2225	-96.542045	0.000608	6.077864	2.059236	-0.000243
1463	1.4547e+02	-18.2674	-96.699494	0.000395	3.950611	1.338503	-0.000158
1464	1.4557e+02	-18.2995	-96.933648	0.000588	5.875268	1.990595	-0.000235
1465	1.4567e+02	-18.3444	-97.131467	0.000496	4.963589	1.681709	-0.000199
1466	1.4577e+02	-18.3829	-97.317176	0.000466	4.659695	1.578748	-0.000187
1467	1.4587e+02	-18.4214	-97.510958	0.000486	4.862291	1.647389	-0.000195
1468	1.4597e+02	-18.4647	-97.720889	0.000527	5.267482	1.784671	-0.000211
1469	1.4607e+02	-18.5032	-97.914672	0.000486	4.862291	1.647389	-0.000195
1470	1.4617e+02	-18.5513	-98.136714	0.000557	5.571375	1.887633	-0.000223
1471	1.4626e+02	-18.5754	-98.358757	0.000557	5.571375	1.887633	-0.000223
1472	1.4636e+02	-18.6267	-98.556576	0.000496	4.963589	1.681709	-0.000199
1473	1.4646e+02	-18.6685	-98.750359	0.000486	4.862291	1.647389	-0.000195
1474	1.4656e+02	-18.7086	-98.972401	0.000557	5.571375	1.887633	-0.000223
1475	1.4666e+02	-18.7455	-99.198481	0.000567	5.672673	1.921954	-0.000227
1476	1.4676e+02	-18.7872	-99.380152	0.000456	4.558398	1.544427	-0.000183
1477	1.4686e+02	-18.8193	-99.594120	0.000537	5.368779	1.818992	-0.000215
1478	1.4696e+02	-18.8578	-99.808088	0.000537	5.368779	1.818992	-0.000215
1479	1.4706e+02	-18.9043	-100.009945	0.000506	5.064886	1.716030	-0.000203
1480	1.4716e+02	-18.9460	-100.223913	0.000537	5.368779	1.818992	-0.000215
1481	1.4726e+02	-18.9749	-100.445956	0.000557	5.571375	1.887633	-0.000223
1482	1.4736e+02	-19.0214	-100.643775	0.000496	4.963589	1.681709	-0.000199
1483	1.4746e+02	-19.0599	-100.845632	0.000506	5.064886	1.716030	-0.000203
1484	1.4756e+02	-19.1032	-101.079786	0.000588	5.875268	1.990595	-0.000235
1485	1.4766e+02	-19.1497	-101.245309	0.000415	4.153207	1.407145	-0.000166
1486	1.4776e+02	-19.1882	-101.535982	0.000729	7.293436	2.471083	-0.000292
1487	1.4786e+02	-19.2283	-101.705542	0.000425	4.254504	1.441465	-0.000170
1488	1.4796e+02	-19.2668	-101.915473	0.000527	5.267482	1.784671	-0.000211
1489	1.4806e+02	-19.3118	-102.109256	0.000486	4.862291	1.647389	-0.000195
1490	1.4816e+02	-19.3454	-102.347447	0.000598	5.976566	2.024915	-0.000239
1491	1.4825e+02	-19.3791	-102.537192	0.000476	4.760993	1.613068	-0.000191
1492	1.4835e+02	-19.4192	-102.747123	0.000527	5.267482	1.784671	-0.000211
1493	1.4845e+02	-19.4706	-102.969166	0.000557	5.571375	1.887633	-0.000223
1494	1.4855e+02	-19.4978	-103.179097	0.000527	5.267482	1.784671	-0.000211
1495	1.4865e+02	-19.5620	-103.457659	0.000699	6.989543	2.368121	-0.000280
1496	1.4875e+02	-19.5732	-103.667590	0.000527	5.267482	1.784671	-0.000211
1497	1.4885e+02	-19.6214	-103.845224	0.000446	4.457100	1.510106	-0.000179
1498	1.4895e+02	-19.6583	-104.026895	0.000456	4.558398	1.544427	-0.000183
1499	1.4905e+02	-19.7000	-104.265086	0.000598	5.976566	2.024915	-0.000239
1500	1.4915e+02	-19.7353	-104.487129	0.000557	5.571375	1.887633	-0.000223
1501	1.4925e+02	-19.7850	-104.664763	0.000446	4.457100	1.510106	-0.000179
1502	1.4935e+02	-19.8203	-104.911028	0.000618	6.179161	2.093557	-0.000248
1503	1.4945e+02	-19.8588	-105.161330	0.000628	6.280459	2.127877	-0.000252
1504	1.4955e+02	-19.8861	-105.379336	0.000547	5.470077	1.853312	-0.000219
1505	1.4965e+02	-19.9486	-105.613489	0.000588	5.875268	1.990595	-0.000235
1506	1.4975e+02	-19.9775	-105.819383	0.000517	5.166184	1.750351	-0.000207
1507	1.4985e+02	-20.0256	-106.053537	0.000588	5.875268	1.990595	-0.000235
1508	1.4995e+02	-19.9807	-105.964720	0.000223	2.228550	0.755053	0.000089
1509	1.5005e+02	-19.9358	-105.940497	0.000061	0.607786	0.205924	0.000024
1510	1.5015e+02	-19.9037	-105.819383	0.000304	3.038932	1.029618	0.000122
1511	1.5025e+02	-19.8604	-105.770938	0.000122	1.215573	0.411847	0.000049
1512	1.5034e+02	-19.8203	-105.738641	0.000081	0.810382	0.274565	0.000032
1513	1.5044e+02	-19.7754	-105.621564	0.000294	2.937634	0.995297	0.000118
1514	1.5054e+02	-19.7337	-105.488338	0.000334	3.342825	1.132580	0.000134
1515	1.5064e+02	-19.6968	-105.447967	0.000101	1.012977	0.343206	0.000041
1516	1.5074e+02	-19.6615	-105.330890	0.000294	2.937634	0.995297	0.000118
1517	1.5084e+02	-19.6214	-105.322816	0.000020	0.202595	0.068641	0.000008
1518	1.5094e+02	-19.5716	-105.201702	0.000304	3.038932	1.029618	0.000122
1519	1.5104e+02	-19.5396	-105.100773	0.000253	2.532443	0.858015	0.000101
1520	1.5114e+02	-19.4946	-104.979659	0.000304	3.038932	1.029618	0.000122
1521	1.5124e+02	-19.4609	-104.902954	0.000192	1.924657	0.652091	0.000077
1522	1.5134e+02	-19.4192	-104.797988	0.000263	2.633741	0.892336	0.000105
1523	1.5144e+02	-19.3823	-104.684948	0.000284	2.836336	0.960977	0.000114
1524	1.5154e+02	-19.3390	-104.584020	0.000253	2.532443	0.858015	0.000101
1525	1.5164e+02	-19.2957	-104.466943	0.000294	2.937634	0.995297	0.000118
1526	1.5174e+02	-19.2620	-104.394274	0.000182	1.823359	0.617771	0.000073
1527	1.5184e+02	-19.2219	-104.277198	0.000294	2.937634	0.995297	0.000118
1528	1.5194e+02	-19.1786	-104.111675	0.000415	4.153207	1.407145	0.000166
1529	1.5204e+02	-19.1449	-104.051118	0.000152	1.519466	0.514809	0.000061
1530	1.5214e+02	-19.1112	-103.917892	0.000334	3.342825	1.132580	0.000134
1531	1.5224e+02	-19.0615	-103.784667	0.000334	3.342825	1.132580	0.000134
1532	1.5233e+02	-19.0342	-103.647404	0.000344	3.444123	1.166900	0.000138
1533	1.5243e+02	-18.9861	-103.550513	0.000243	2.431145	0.823694	0.000097
1534	1.5253e+02	-18.9492	-103.433436	0.000294	2.937634	0.995297	0.000118
1535	1.5263e+02	-18.9091	-103.296174	0.000344	3.444123	1.166900	0.000138
1536	1.5273e+02	-18.8690	-103.175059	0.000304	3.038932	1.029618	0.000122
1537	1.5283e+02	-18.8241	-103.045871	0.000324	3.241527	1.098259	0.000130
1538	1.5293e+02	-18.7824	-102.940906	0.000263	2.633741	0.892336	0.000105
1539	1.5303e+02	-18.7455	-102.835940	0.000263	2.633741	0.892336	0.000105
1540	1.5313e+02	-18.7086	-102.710789	0.000314	3.140229	1.063939	0.000126
1541	1.5323e+02	-18.6636	-102.577563	0.000334	3.342825	1.132580	0.000134
1542	1.5333e+02	-18.6251	-102.444338	0.000334	3.342825	1.132580	0.000134
1543	1.5343e+02	-18.5931	-102.379744	0.000162	1.620764	0.549130	0.000065
1544	1.5353e+02	-18.5385	-102.210184	0.000425	4.254504	1.441465	0.000170
1545	1.5363e+02	-18.5080	-102.068884	0.000355	3.545420	1.201221	0.000142
1546	1.5373e+02	-18.4615	-101.931622	0.000344	3.444123	1.166900	0.000138
1547	1.5383e+02	-18.4166	-101.806470	0.000314	3.140229	1.063939	0.000126
1548	1.5393e+02	-18.3877	-101.677282	0.000324	3.241527	1.098259	0.000130
1549	1.5403e+02	-18.3508	-101.535982	0.000355	3.545420	1.201221	0.000142
1550	1.5413e+02	-18.3091	-101.435054	0.000253	2.532443	0.858015	0.000101
1551	1.5422e+02	-18.2706	-101.281643	0.000385	3.849314	1.304183	0.000154
1552	1.5432e+02	-18.2289	-101.192826	0.000223	2.228550	0.755053	0.000089
1553	1.5442e+02	-18.1936	-101.023266	0.000425	4.254504	1.441465	0.000170
1554	1.5452e+02	-18.1455	-100.902152	0.000304	3.038932	1.029618	0.000122
1555	1.5462e+02	-18.1054	-100.809298	0.000233	2.329848	0.789374	0.000093
1556	1.5472e+02	-18.0540	-100.639738	0.000425	4.254504	1.441465	0.000170
1557	1.5482e+02	-18.0380	-100.599367	0.000101	1.012977	0.343206	0.000041
1558	1.5492e+02	-17.9834	-100.397510	0.000506	5.064886	1.716030	0.000203
1559	1.5502e+02	-17.9562	-100.260247	0.000344	3.444123	1.166900	0.000138
1560	1.5512e+02	-17.9048	-100.131059	0.000324	3.241527	1.098259	0.000130
1561	1.5522e+02	-17.8695	-99.973611	0.000395	3.950611	1.338503	0.000158
1562	1.5532e+02	-17.8262	-99.856534	0.000294	2.937634	0.995297	0.000118
1563	1.5542e+02	-17.7829	-99.715234	0.000355	3.545420	1.201221	0.000142
1564	1.5552e+02	-17.7428	-99.590083	0.000314	3.140229	1.063939	0.000126
1565	1.5562e+02	-17.7107	-99.464932	0.000314	3.140229	1.063939	0.000126
1566	1.5572e+02	-17.6658	-99.327669	0.000344	3.444123	1.166900	0.000138
1567	1.5582e+02	-17.6289	-99.250964	0.000192	1.924657	0.652091	0.000077
1568	1.5592e+02	-17.5904	-99.069292	0.000456	4.558398	1.544427	0.000183
1569	1.5602e+02	-17.5519	-98.927993	0.000355	3.545420	1.201221	0.000142
1570	1.5612e+02	-17.5022	-98.827064	0.000253	2.532443	0.858015	0.000101
1571	1.5622e+02	-17.4781	-98.689802	0.000344	3.444123	1.166900	0.000138
1572	1.5631e+02	-17.4268	-98.548502	0.000355	3.545420	1.201221	0.000142
1573	1.5641e+02	-17.3915	-98.387017	0.000405	4.051909	1.372824	0.000162
1574	1.5651e+02	-17.3530	-98.282051	0.000263	2.633741	0.892336	0.000105
1575	1.5661e+02	-17.3129	-98.132677	0.000375	3.748016	1.269862	0.000150
1576	1.5671e+02	-17.2680	-97.975229	0.000395	3.950611	1.338503	0.000158
1577	1.5681e+02	-17.2311	-97.858152	0.000294	2.937634	0.995297	0.000118
1578	1.5691e+02	-17.1910	-97.684555	0.000436	4.355802	1.475786	0.000174
1579	1.5701e+02	-17.1541	-97.583626	0.000253	2.532443	0.858015	0.000101
1580	1.5711e+02	-17.1140	-97.458475	0.000314	3.140229	1.063939	0.000126
1581	1.5721e+02	-17.0658	-97.292953	0.000415	4.153207	1.407145	0.000166
1582	1.5731e+02	-17.0257	-97.139542	0.000385	3.849314	1.304183	0.000154
1583	1.5741e+02	-16.9952	-97.034576	0.000263	2.633741	0.892336	0.000105
1584	1.5751e+02	-16.9535	-96.905388	0.000324	3.241527	1.098259	0.000130
1585	1.5761e+02	-16.9070	-96.756014	0.000375	3.748016	1.269862	0.000150
1586	1.5771e+02	-16.8701	-96.606640	0.000375	3.748016	1.269862	0.000150
1587	1.5781e+02	-16.8236	-96.485526	0.000304	3.038932	1.029618	0.000122
1588	1.5791e+02	-16.7915	-96.360374	0.000314	3.140229	1.063939	0.000126
1589	1.5801e+02	-16.7482	-96.182740	0.000446	4.457100	1.510106	0.000179
1590	1.5811e+02	-16.7193	-96.077775	0.000263	2.633741	0.892336	0.000105
1591	1.5821e+02	-16.6792	-95.908215	0.000425	4.254504	1.441465	0.000170
1592	1.5830e+02	-16.6295	-95.774990	0.000334	3.342825	1.132580	0.000134
1593	1.5840e+02	-16.5926	-95.653876	0.000304	3.038932	1.029618	0.000122
1594	1.5850e+02	-16.5396	-95.516613	0.000344	3.444123	1.166900	0.000138
1595	1.5860e+02	-16.5027	-95.355128	0.000405	4.051909	1.372824	0.000162
1596	1.5870e+02	-16.4739	-95.225939	0.000324	3.241527	1.098259	0.000130
1597	1.5880e+02	-16.4273	-95.096751	0.000324	3.241527	1.098259	0.000130
1598	1.5890e+02	-16.3969	-94.935265	0.000405	4.051909	1.372824	0.000162
1599	1.5900e+02	-16.3552	-94.753594	0.000456	4.558398	1.544427	0.000183
1600	1.5910e+02	-16.3134	-94.592109	0.000405	4.051909	1.372824	0.000162
1601	1.5920e+02	-16.2749	-94.434661	0.000395	3.950611	1.338503	0.000158
1602	1.5930e+02	-16.2284	-94.349881	0.000213	2.127252	0.720733	0.000085
1603	1.5940e+02	-16.1963	-94.212618	0.000344	3.444123	1.166900	0.000138
1604	1.5950e+02	-16.1530	-94.071318	0.000355	3.545420	1.201221	0.000142
1605	1.5960e+02	-16.1065	-93.913870	0.000395	3.950611	1.338503	0.000158
1606	1.5970e+02	-16.0728	-93.776607	0.000344	3.444123	1.166900	0.000138
1607	1.5980e+02	-16.0295	-93.639345	0.000344	3.444123	1.166900	0.000138
1608	1.5990e+02	-15.9958	-93.498045	0.000355	3.545420	1.201221	0.000142
1609	1.6000e+02	-15.9541	-93.340597	0.000395	3.950611	1.338503	0.000158
1610	1.6010e+02	-15.9220	-93.207371	0.000334	3.342825	1.132580	0.000134
1611	1.6019e+02	-15.8739	-93.053960	0.000385	3.849314	1.304183	0.000154
1612	1.6029e+02	-15.8306	-92.940920	0.000284	2.836336	0.960977	0.000114
1613	1.6039e+02	-15.7889	-92.759249	0.000456	4.558398	1.544427	0.000183
1614	1.6049e+02	-15.7520	-92.601801	0.000395	3.950611	1.338503	0.000158
1615	1.6059e+02	-15.7038	-92.480687	0.000304	3.038932	1.029618	0.000122
1616	1.6069e+02	-15.6766	-92.343424	0.000344	3.444123	1.166900	0.000138
1617	1.6079e+02	-15.6332	-92.210199	0.000334	3.342825	1.132580	0.000134
1618	1.6089e+02	-15.5915	-92.004305	0.000517	5.166184	1.750351	0.000207
1619	1.6099e+02	-15.5530	-91.915488	0.000223	2.228550	0.755053	0.000089
1620	1.6109e+02	-15.5145	-91.725743	0.000476	4.760993	1.613068	0.000191
1621	1.6119e+02	-15.4776	-91.608666	0.000294	2.937634	0.995297	0.000118
1622	1.6129e+02	-15.4488	-91.483514	0.000314	3.140229	1.063939	0.000126
1623	1.6139e+02	-15.3990	-91.313955	0.000425	4.254504	1.441465	0.000170
1624	1.6149e+02	-15.3573	-91.160544	0.000385	3.849314	1.304183	0.000154
1625	1.6159e+02	-15.3204	-91.035392	0.000314	3.140229	1.063939	0.000126
1626	1.6169e+02	-15.2755	-90.865833	0.000425	4.254504	1.441465	0.000170
1627	1.6179e+02	-15.2354	-90.708384	0.000395	3.950611	1.338503	0.000158
1628	1.6189e+02	-15.1969	-90.599382	0.000274	2.735039	0.926656	0.000110
1629	1.6199e+02	-15.1488	-90.437896	0.000405	4.051909	1.372824	0.000162
1630	1.6209e+02	-15.1167	-90.248151	0.000476	4.760993	1.613068	0.000191
1631	1.6219e+02	-15.0814	-90.094740	0.000385	3.849314	1.304183	0.000154
1632	1.6228e+02	-15.0397	-89.965551	0.000324	3.241527	1.098259	0.000130
1633	1.6238e+02	-14.9948	-89.791955	0.000436	4.355802	1.475786	0.000174
1634	1.6248e+02	-14.9579	-89.658729	0.000334	3.342825	1.132580	0.000134
1635	1.6258e+02	-14.9210	-89.456872	0.000506	5.064886	1.716030	0.000203
1636	1.6268e+02	-14.8680	-89.364018	0.000233	2.329848	0.789374	0.000093
1637	1.6278e+02	-14.8343	-89.226756	0.000344	3.444123	1.166900	0.000138
1638	1.6288e+02	-14.8087	-89.012787	0.000537	5.368779	1.818992	0.000215
1639	1.6298e+02	-14.7573	-88.863413	0.000375	3.748016	1.269862	0.000150
1640	1.6308e+02	-14.7285	-88.722114	0.000355	3.545420	1.201221	0.000142
1641	1.6318e+02	-14.6803	-88.540442	0.000456	4.558398	1.544427	0.000183
1642	1.6328e+02	-14.6370	-88.427403	0.000284	2.836336	0.960977	0.000114
1643	1.6338e+02	-14.5889	-88.233620	0.000486	4.862291	1.647389	0.000195
1644	1.6348e+02	-14.5696	-88.096358	0.000344	3.444123	1.166900	0.000138
1645	1.6358e+02	-14.5199	-87.955058	0.000355	3.545420	1.201221	0.000142
1646	1.6368e+02	-14.4878	-87.793572	0.000405	4.051909	1.372824	0.000162
1647	1.6378e+02	-14.4397	-87.628050	0.000415	4.153207	1.407145	0.000166
1648	1.6388e+02	-14.4012	-87.442342	0.000466	4.659695	1.578748	0.000187
1649	1.6398e+02	-14.3563	-87.317190	0.000314	3.140229	1.063939	0.000126
1650	1.6408e+02	-14.3162	-87.192039	0.000314	3.140229	1.063939	0.000126
1651	1.6418e+02	-14.2793	-86.969997	0.000557	5.571375	1.887633	0.000223
1652	1.6427e+02	-14.2360	-86.820623	0.000375	3.748016	1.269862	0.000150
1653	1.6437e+02	-14.2023	-86.687397	0.000334	3.342825	1.132580	0.000134
1654	1.6447e+02	-14.1541	-86.513800	0.000436	4.355802	1.475786	0.000174
1655	1.6457e+02	-14.1221	-86.328092	0.000466	4.659695	1.578748	0.000187
1656	1.6467e+02	-14.0820	-86.194867	0.000334	3.342825	1.132580	0.000134
1657	1.6477e+02	-14.0451	-86.037418	0.000395	3.950611	1.338503	0.000158
1658	1.6487e+02	-13.9953	-85.843636	0.000486	4.862291	1.647389	0.000195
1659	1.6497e+02	-13.9665	-85.718485	0.000314	3.140229	1.063939	0.000126
1660	1.6507e+02	-13.9231	-85.573148	0.000365	3.646718	1.235542	0.000146
1661	1.6517e+02	-13.8878	-85.367254	0.000517	5.166184	1.750351	0.000207
1662	1.6527e+02	-13.8365	-85.262288	0.000263	2.633741	0.892336	0.000105
1663	1.6537e+02	-13.7996	-85.076580	0.000466	4.659695	1.578748	0.000187
1664	1.6547e+02	-13.7595	-84.894909	0.000456	4.558398	1.544427	0.000183
1665	1.6557e+02	-13.7290	-84.721312	0.000436	4.355802	1.475786	0.000174
1666	1.6567e+02	-13.6793	-84.580012	0.000355	3.545420	1.201221	0.000142
1667	1.6577e+02	-13.6456	-84.390267	0.000476	4.760993	1.613068	0.000191
1668	1.6587e+02	-13.5991	-84.277227	0.000284	2.836336	0.960977	0.000114
1669	1.6597e+02	-13.5686	-84.030962	0.000618	6.179161	2.093557	0.000248
1670	1.6607e+02	-13.5141	-83.934071	0.000243	2.431145	0.823694	0.000097
1671	1.6616e+02	-13.4884	-83.764511	0.000425	4.254504	1.441465	0.000170
1672	1.6626e+02	-13.4403	-83.566691	0.000496	4.963589	1.681709	0.000199
1673	1.6636e+02	-13.3937	-83.457689	0.000274	2.735039	0.926656	0.000110
1674	1.6646e+02	-13.3777	-83.251795	0.000517	5.166184	1.750351	0.000207
1675	1.6656e+02	-13.3232	-83.094346	0.000395	3.950611	1.338503	0.000158
1676	1.6666e+02	-13.2830	-82.924787	0.000425	4.254504	1.441465	0.000170
1677	1.6676e+02	-13.2429	-82.755227	0.000425	4.254504	1.441465	0.000170
1678	1.6686e+02	-13.2028	-82.593741	0.000405	4.051909	1.372824	0.000162
1679	1.6696e+02	-13.1611	-82.448405	0.000365	3.646718	1.235542	0.000146
1680	1.6706e+02	-13.1226	-82.294993	0.000385	3.849314	1.304183	0.000154
1681	1.6716e+02	-13.0777	-82.085062	0.000527	5.267482	1.784671	0.000211
1682	1.6726e+02	-13.0456	-81.903391	0.000456	4.558398	1.544427	0.000183
1683	1.6736e+02	-13.0039	-81.741906	0.000405	4.051909	1.372824	0.000162
1684	1.6746e+02	-12.9638	-81.620792	0.000304	3.038932	1.029618	0.000122
1685	1.6756e+02	-12.9173	-81.447195	0.000436	4.355802	1.475786	0.000174
1686	1.6766e+02	-12.8820	-81.257450	0.000476	4.760993	1.613068	0.000191
1687	1.6776e+02	-12.8403	-81.095964	0.000405	4.051909	1.372824	0.000162
1688	1.6786e+02	-12.8066	-80.930442	0.000415	4.153207	1.407145	0.000166
1689	1.6796e+02	-12.7777	-80.760882	0.000425	4.254504	1.441465	0.000170
1690	1.6806e+02	-12.7296	-80.579211	0.000456	4.558398	1.544427	0.000183
1691	1.6816e+02	-12.6895	-80.401577	0.000446	4.457100	1.510106	0.000179
1692	1.6825e+02	-12.6381	-80.232017	0.000425	4.254504	1.441465	0.000170
1693	1.6835e+02	-12.6173	-80.058420	0.000436	4.355802	1.475786	0.000174
1694	1.6845e+02	-12.5660	-79.896935	0.000405	4.051909	1.372824	0.000162
1695	1.6855e+02	-12.5258	-79.727375	0.000425	4.254504	1.441465	0.000170
1696	1.6865e+02	-12.4970	-79.557815	0.000425	4.254504	1.441465	0.000170
1697	1.6875e+02	-12.4424	-79.331736	0.000567	5.672673	1.921954	0.000227
1698	1.6885e+02	-12.4039	-79.226770	0.000263	2.633741	0.892336	0.000105
1699	1.6895e+02	-12.3767	-78.984542	0.000608	6.077864	2.059236	0.000243
1700	1.6905e+02	-12.3285	-78.839205	0.000365	3.646718	1.235542	0.000146
1701	1.6915e+02	-12.2852	-78.693868	0.000365	3.646718	1.235542	0.000146
1702	1.6925e+02	-12.2451	-78.508160	0.000466	4.659695	1.578748	0.000187
1703	1.6935e+02	-12.2082	-78.298229	0.000527	5.267482	1.784671	0.000211
1704	1.6945e+02	-12.1713	-78.108484	0.000476	4.760993	1.613068	0.000191
1705	1.6955e+02	-12.1296	-77.979295	0.000324	3.241527	1.098259	0.000130
1706	1.6965e+02	-12.0959	-77.817810	0.000405	4.051909	1.372824	0.000162
1707	1.6975e+02	-12.0510	-77.579619	0.000598	5.976566	2.024915	0.000239
1708	1.6985e+02	-12.0093	-77.438319	0.000355	3.545420	1.201221	0.000142
1709	1.6995e+02	-11.9692	-77.288945	0.000375	3.748016	1.269862	0.000150
1710	1.7005e+02	-11.9275	-77.087088	0.000506	5.064886	1.716030	0.000203
1711	1.7015e+02	-11.8906	-76.921566	0.000415	4.153207	1.407145	0.000166
1712	1.7024e+02	-11.8521	-76.715672	0.000517	5.166184	1.750351	0.000207
1713	1.7034e+02	-11.8152	-76.558224	0.000395	3.950611	1.338503	0.000158
1714	1.7044e+02	-11.7574	-76.384627	0.000436	4.355802	1.475786	0.000174
1715	1.7054e+02	-11.7302	-76.219104	0.000415	4.153207	1.407145	0.000166
1716	1.7064e+02	-11.6981	-76.057619	0.000405	4.051909	1.372824	0.000162
1717	1.7074e+02	-11.6531	-75.875948	0.000456	4.558398	1.544427	0.000183
1718	1.7084e+02	-11.6050	-75.666017	0.000527	5.267482	1.784671	0.000211
1719	1.7094e+02	-11.5681	-75.532791	0.000334	3.342825	1.132580	0.000134
1720	1.7104e+02	-11.5280	-75.294600	0.000598	5.976566	2.024915	0.000239
1721	1.7114e+02	-11.4943	-75.133115	0.000405	4.051909	1.372824	0.000162
1722	1.7124e+02	-11.4558	-75.003926	0.000324	3.241527	1.098259	0.000130
1723	1.7134e+02	-11.4045	-74.806107	0.000496	4.963589	1.681709	0.000199
1724	1.7144e+02	-11.3676	-74.636547	0.000425	4.254504	1.441465	0.000170
1725	1.7154e+02	-11.3307	-74.495247	0.000355	3.545420	1.201221	0.000142
1726	1.7164e+02	-11.2986	-74.265130	0.000577	5.773970	1.956274	0.000231
1727	1.7174e+02	-11.2537	-74.119794	0.000365	3.646718	1.235542	0.000146
1728	1.7184e+02	-11.2136	-73.942160	0.000446	4.457100	1.510106	0.000179
1729	1.7194e+02	-11.1767	-73.748377	0.000486	4.862291	1.647389	0.000195
1730	1.7204e+02	-11.1318	-73.582855	0.000415	4.153207	1.407145	0.000166
1731	1.7213e+02	-11.0901	-73.401183	0.000456	4.558398	1.544427	0.000183
1732	1.7223e+02	-11.0564	-73.223549	0.000446	4.457100	1.510106	0.000179
1733	1.7233e+02	-11.0115	-73.078213	0.000365	3.646718	1.235542	0.000146
1734	1.7243e+02	-10.9810	-72.888467	0.000476	4.760993	1.613068	0.000191
1735	1.7253e+02	-10.9264	-72.694685	0.000486	4.862291	1.647389	0.000195
1736	1.7263e+02	-10.8992	-72.537236	0.000395	3.950611	1.338503	0.000158
1737	1.7273e+02	-10.8655	-72.339417	0.000496	4.963589	1.681709	0.000199
1738	1.7283e+02	-10.8077	-72.129486	0.000527	5.267482	1.784671	0.000211
1739	1.7293e+02	-10.7708	-71.968000	0.000405	4.051909	1.372824	0.000162
1740	1.7303e+02	-10.7339	-71.854960	0.000284	2.836336	0.960977	0.000114
1741	1.7313e+02	-10.7002	-71.600621	0.000638	6.381757	2.162198	0.000256
1742	1.7323e+02	-10.6601	-71.459321	0.000355	3.545420	1.201221	0.000142
1743	1.7333e+02	-10.6088	-71.253427	0.000517	5.166184	1.750351	0.000207
1744	1.7343e+02	-10.5767	-71.091942	0.000405	4.051909	1.372824	0.000162
1745	1.7353e+02	-10.5366	-70.906234	0.000466	4.659695	1.578748	0.000187
1746	1.7363e+02	-10.4949	-70.760897	0.000365	3.646718	1.235542	0.000146
1747	1.7373e+02	-10.4468	-70.563077	0.000496	4.963589	1.681709	0.000199
1748	1.7383e+02	-10.4163	-70.377369	0.000466	4.659695	1.578748	0.000187
1749	1.7393e+02	-10.3746	-70.203772	0.000436	4.355802	1.475786	0.000174
1750	1.7403e+02	-10.3297	-70.005952	0.000496	4.963589	1.681709	0.000199
1751	1.7413e+02	-10.2879	-69.832355	0.000436	4.355802	1.475786	0.000174
1752	1.7422e+02	-10.2543	-69.646647	0.000466	4.659695	1.578748	0.000187
1753	1.7432e+02	-10.2158	-69.489199	0.000395	3.950611	1.338503	0.000158
1754	1.7442e+02	-10.1853	-69.275231	0.000537	5.368779	1.818992	0.000215
1755	1.7452e+02	-10.1355	-69.117782	0.000395	3.950611	1.338503	0.000158
1756	1.7462e+02	-10.1002	-68.924000	0.000486	4.862291	1.647389	0.000195
1757	1.7472e+02	-10.0537	-68.722143	0.000506	5.064886	1.716030	0.000203
1758	1.7482e+02	-10.0232	-68.556621	0.000415	4.153207	1.407145	0.000166
1759	1.7492e+02	-9.9815	-68.366875	0.000476	4.760993	1.613068	0.000191
1760	1.7502e+02	-9.9286	-68.185204	0.000456	4.558398	1.544427	0.000183
1761	1.7512e+02	-9.8933	-68.003533	0.000456	4.558398	1.544427	0.000183
1762	1.7522e+02	-9.8532	-67.801676	0.000506	5.064886	1.716030	0.000203
1763	1.7532e+02	-9.8179	-67.652302	0.000375	3.748016	1.269862	0.000150
1764	1.7542e+02	-9.7634	-67.462557	0.000476	4.760993	1.613068	0.000191
1765	1.7552e+02	-9.7361	-67.276849	0.000466	4.659695	1.578748	0.000187
1766	1.7562e+02	-9.6944	-67.066917	0.000527	5.267482	1.784671	0.000211
1767	1.7572e+02	-9.6495	-66.913506	0.000385	3.849314	1.304183	0.000154
1768	1.7582e+02	-9.6142	-66.735872	0.000446	4.457100	1.510106	0.000179
1769	1.7592e+02	-9.5692	-66.534016	0.000506	5.064886	1.716030	0.000203
1770	1.7602e+02	-9.5404	-66.344270	0.000476	4.760993	1.613068	0.000191
1771	1.7612e+02	-9.5035	-66.134339	0.000527	5.267482	1.784671	0.000211
1772	1.7621e+02	-9.4570	-65.964779	0.000425	4.254504	1.441465	0.000170
1773	1.7631e+02	-9.4201	-65.807331	0.000395	3.950611	1.338503	0.000158
1774	1.7641e+02	-9.3864	-65.657957	0.000375	3.748016	1.269862	0.000150
1775	1.7651e+02	-9.3463	-65.460137	0.000496	4.963589	1.681709	0.000199
1776	1.7661e+02	-9.3013	-65.238095	0.000557	5.571375	1.887633	0.000223
1777	1.7671e+02	-9.2596	-65.064498	0.000436	4.355802	1.475786	0.000174
1778	1.7681e+02	-9.2243	-64.866678	0.000496	4.963589	1.681709	0.000199
1779	1.7691e+02	-9.1810	-64.717304	0.000375	3.748016	1.269862	0.000150
1780	1.7701e+02	-9.1377	-64.487188	0.000577	5.773970	1.956274	0.000231
1781	1.7711e+02	-9.1072	-64.345888	0.000355	3.545420	1.201221	0.000142
1782	1.7721e+02	-9.0591	-64.152105	0.000486	4.862291	1.647389	0.000195
1783	1.7731e+02	-9.0174	-63.934100	0.000547	5.470077	1.853312	0.000219
1784	1.7741e+02	-8.9773	-63.760503	0.000436	4.355802	1.475786	0.000174
1785	1.7751e+02	-8.9468	-63.594981	0.000415	4.153207	1.407145	0.000166
1786	1.7761e+02	-8.9083	-63.405235	0.000476	4.760993	1.613068	0.000191
1787	1.7771e+02	-8.8618	-63.175119	0.000577	5.773970	1.956274	0.000231
1788	1.7781e+02	-8.8217	-63.017670	0.000395	3.950611	1.338503	0.000158
1789	1.7791e+02	-8.7880	-62.791591	0.000567	5.672673	1.921954	0.000227
1790	1.7801e+02	-8.7415	-62.650291	0.000355	3.545420	1.201221	0.000142
1791	1.7810e+02	-8.7046	-62.440360	0.000527	5.267482	1.784671	0.000211
1792	1.7820e+02	-8.6725	-62.238503	0.000506	5.064886	1.716030	0.000203
1793	1.7830e+02	-8.6211	-62.052795	0.000466	4.659695	1.578748	0.000187
1794	1.7840e+02	-8.5842	-61.859012	0.000486	4.862291	1.647389	0.000195
1795	1.7850e+02	-8.5425	-61.685416	0.000436	4.355802	1.475786	0.000174
1796	1.7860e+02	-8.4976	-61.507782	0.000446	4.457100	1.510106	0.000179
1797	1.7870e+02	-8.4687	-61.293813	0.000537	5.368779	1.818992	0.000215
1798	1.7880e+02	-8.4158	-61.075808	0.000547	5.470077	1.853312	0.000219
1799	1.7890e+02	-8.3901	-60.926434	0.000375	3.748016	1.269862	0.000150
1800	1.7900e+02	-8.3484	-60.748800	0.000446	4.457100	1.510106	0.000179
1801	1.7910e+02	-8.3035	-60.550980	0.000496	4.963589	1.681709	0.000199
1802	1.7920e+02	-8.2634	-60.288567	0.000658	6.584352	2.230839	0.000264
1803	1.7930e+02	-8.2281	-60.119007	0.000425	4.254504	1.441465	0.000170
1804	1.7940e+02	-8.1880	-59.953484	0.000415	4.153207	1.407145	0.000166
1805	1.7950e+02	-8.1415	-59.715293	0.000598	5.976566	2.024915	0.000239
1806	1.7960e+02	-8.0982	-59.561882	0.000385	3.849314	1.304183	0.000154
1807	1.7970e+02	-8.0613	-59.351951	0.000527	5.267482	1.784671	0.000211
1808	1.7980e+02	-8.0292	-59.166243	0.000466	4.659695	1.578748	0.000187
1809	1.7990e+02	-7.9891	-58.936126	0.000577	5.773970	1.956274	0.000231
1810	1.8000e+02	-7.9426	-58.766566	0.000425	4.254504	1.441465	0.000170
1811	1.8009e+02	-7.9073	-58.568747	0.000496	4.963589	1.681709	0.000199
1812	1.8019e+02	-7.8607	-58.334593	0.000588	5.875268	1.990595	0.000235
1813	1.8029e+02	-7.8254	-58.156959	0.000446	4.457100	1.510106	0.000179
1814	1.8039e+02	-7.7789	-57.918768	0.000598	5.976566	2.024915	0.000239
1815	1.8049e+02	-7.7404	-57.757282	0.000405	4.051909	1.372824	0.000162
1816	1.8059e+02	-7.7099	-57.579648	0.000446	4.457100	1.510106	0.000179
1817	1.8069e+02	-7.6714	-57.345495	0.000588	5.875268	1.990595	0.000235
1818	1.8079e+02	-7.6281	-57.139601	0.000517	5.166184	1.750351	0.000207
1819	1.8089e+02	-7.5864	-56.913521	0.000567	5.672673	1.921954	0.000227
1820	1.8099e+02	-7.5447	-56.703590	0.000527	5.267482	1.784671	0.000211
1821	1.8109e+02	-7.5046	-56.525956	0.000446	4.457100	1.510106	0.000179
1822	1.8119e+02	-7.4677	-56.311988	0.000537	5.368779	1.818992	0.000215
1823	1.8129e+02	-7.4244	-56.134354	0.000446	4.457100	1.510106	0.000179
1824	1.8139e+02	-7.3891	-55.940571	0.000486	4.862291	1.647389	0.000195
1825	1.8149e+02	-7.3490	-55.746789	0.000486	4.862291	1.647389	0.000195
1826	1.8159e+02	-7.2961	-55.516672	0.000577	5.773970	1.956274	0.000231
1827	1.8169e+02	-7.2704	-55.326927	0.000476	4.760993	1.613068	0.000191
1828	1.8179e+02	-7.2319	-55.108921	0.000547	5.470077	1.853312	0.000219
1829	1.8189e+02	-7.1934	-54.923213	0.000466	4.659695	1.578748	0.000187
1830	1.8199e+02	-7.1453	-54.713282	0.000527	5.267482	1.784671	0.000211
1831	1.8209e+02	-7.1068	-54.519500	0.000486	4.862291	1.647389	0.000195
1832	1.8218e+02	-7.0731	-54.277271	0.000608	6.077864	2.059236	0.000243
1833	1.8228e+02	-7.0314	-54.087526	0.000476	4.760993	1.613068	0.000191
1834	1.8238e+02	-6.9929	-53.877595	0.000527	5.267482	1.784671	0.000211
1835	1.8248e+02	-6.9447	-53.667664	0.000527	5.267482	1.784671	0.000211
1836	1.8258e+02	-6.9062	-53.441584	0.000567	5.672673	1.921954	0.000227
1837	1.8268e+02	-6.8613	-53.211468	0.000577	5.773970	1.956274	0.000231
1838	1.8278e+02	-6.8324	-53.041908	0.000425	4.254504	1.441465	0.000170
1839	1.8288e+02	-6.7859	-52.848125	0.000486	4.862291	1.647389	0.000195
1840	1.8298e+02	-6.7522	-52.577637	0.000679	6.786948	2.299480	0.000272
1841	1.8308e+02	-6.7137	-52.395966	0.000456	4.558398	1.544427	0.000183
1842	1.8318e+02	-6.6640	-52.194109	0.000506	5.064886	1.716030	0.000203
1843	1.8328e+02	-6.6255	-52.008401	0.000466	4.659695	1.578748	0.000187
1844	1.8338e+02	-6.5982	-51.786359	0.000557	5.571375	1.887633	0.000223
1845	1.8348e+02	-6.5421	-51.588539	0.000496	4.963589	1.681709	0.000199
1846	1.8358e+02	-6.5132	-51.366497	0.000557	5.571375	1.887633	0.000223
1847	1.8368e+02	-6.4667	-51.136380	0.000577	5.773970	1.956274	0.000231
1848	1.8378e+02	-6.4410	-50.987006	0.000375	3.748016	1.269862	0.000150
1849	1.8388e+02	-6.3961	-50.781112	0.000517	5.166184	1.750351	0.000207
1850	1.8398e+02	-6.3544	-50.530809	0.000628	6.280459	2.127877	0.000252
1851	1.8407e+02	-6.3143	-50.300693	0.000577	5.773970	1.956274	0.000231
1852	1.8417e+02	-6.2677	-50.106910	0.000486	4.862291	1.647389	0.000195
1853	1.8427e+02	-6.2308	-49.844496	0.000658	6.584352	2.230839	0.000264
1854	1.8437e+02	-6.1923	-49.642640	0.000506	5.064886	1.716030	0.000203
1855	1.8447e+02	-6.1570	-49.432709	0.000527	5.267482	1.784671	0.000211
1856	1.8457e+02	-6.1105	-49.271223	0.000405	4.051909	1.372824	0.000162
1857	1.8467e+02	-6.0768	-49.008809	0.000658	6.584352	2.230839	0.000264
1858	1.8477e+02	-6.0399	-48.806953	0.000506	5.064886	1.716030	0.000203
1859	1.8487e+02	-6.0014	-48.568761	0.000598	5.976566	2.024915	0.000239
1860	1.8497e+02	-5.9565	-48.387090	0.000456	4.558398	1.544427	0.000183
1861	1.8507e+02	-5.9132	-48.152937	0.000588	5.875268	1.990595	0.000235
1862	1.8517e+02	-5.8699	-47.951080	0.000506	5.064886	1.716030	0.000203
1863	1.8527e+02	-5.8298	-47.708852	0.000608	6.077864	2.059236	0.000243
1864	1.8537e+02	-5.7961	-47.478735	0.000577	5.773970	1.956274	0.000231
1865	1.8547e+02	-5.7640	-47.268804	0.000527	5.267482	1.784671	0.000211
1866	1.8557e+02	-5.7095	-47.050798	0.000547	5.470077	1.853312	0.000219
1867	1.8567e+02	-5.6806	-46.804533	0.000618	6.179161	2.093557	0.000248
1868	1.8577e+02	-5.6309	-46.630936	0.000436	4.355802	1.475786	0.000174
1869	1.8587e+02	-5.5972	-46.392745	0.000598	5.976566	2.024915	0.000239
1870	1.8597e+02	-5.5490	-46.190889	0.000506	5.064886	1.716030	0.000203
1871	1.8606e+02	-5.5041	-45.944623	0.000618	6.179161	2.093557	0.000248
1872	1.8616e+02	-5.4688	-45.710469	0.000588	5.875268	1.990595	0.000235
1873	1.8626e+02	-5.4432	-45.516687	0.000486	4.862291	1.647389	0.000195
1874	1.8636e+02	-5.3966	-45.266384	0.000628	6.280459	2.127877	0.000252
1875	1.8646e+02	-5.3517	-45.056453	0.000527	5.267482	1.784671	0.000211
1876	1.8656e+02	-5.3164	-44.818262	0.000598	5.976566	2.024915	0.000239
1877	1.8666e+02	-5.2731	-44.600257	0.000547	5.470077	1.853312	0.000219
1878	1.8676e+02	-5.2362	-44.386289	0.000537	5.368779	1.818992	0.000215
1879	1.8686e+02	-5.1913	-44.212692	0.000436	4.355802	1.475786	0.000174
1880	1.8696e+02	-5.1608	-43.930093	0.000709	7.090841	2.402442	0.000284
1881	1.8706e+02	-5.1207	-43.712087	0.000547	5.470077	1.853312	0.000219
1882	1.8716e+02	-5.0710	-43.514268	0.000496	4.963589	1.681709	0.000199
1883	1.8726e+02	-5.0421	-43.272039	0.000608	6.077864	2.059236	0.000243
1884	1.8736e+02	-4.9956	-43.062108	0.000527	5.267482	1.784671	0.000211
1885	1.8746e+02	-4.9555	-42.811806	0.000628	6.280459	2.127877	0.000252
1886	1.8756e+02	-4.9138	-42.609949	0.000506	5.064886	1.716030	0.000203
1887	1.8766e+02	-4.8849	-42.355610	0.000638	6.381757	2.162198	0.000256
1888	1.8776e+02	-4.8448	-42.145679	0.000527	5.267482	1.784671	0.000211
1889	1.8786e+02	-4.8047	-41.943822	0.000506	5.064886	1.716030	0.000203
1890	1.8796e+02	-4.7566	-41.697556	0.000618	6.179161	2.093557	0.000248
1891	1.8806e+02	-4.7213	-41.475514	0.000557	5.571375	1.887633	0.000223
1892	1.8815e+02	-4.6747	-41.261546	0.000537	5.368779	1.818992	0.000215
1893	1.8825e+02	-4.6362	-41.039503	0.000557	5.571375	1.887633	0.000223
1894	1.8835e+02	-4.6009	-40.781127	0.000648	6.483054	2.196518	0.000260
1895	1.8845e+02	-4.5656	-40.571196	0.000527	5.267482	1.784671	0.000211
1896	1.8855e+02	-4.5223	-40.365302	0.000517	5.166184	1.750351	0.000207
1897	1.8865e+02	-4.4774	-40.102888	0.000658	6.584352	2.230839	0.000264
1898	1.8875e+02	-4.4341	-39.909105	0.000486	4.862291	1.647389	0.000195
1899	1.8885e+02	-4.4084	-39.674951	0.000588	5.875268	1.990595	0.000235
1900	1.8895e+02	-4.3555	-39.440798	0.000588	5.875268	1.990595	0.000235
1901	1.8905e+02	-4.3218	-39.218755	0.000557	5.571375	1.887633	0.000223
1902	1.8915e+02	-4.2785	-39.008824	0.000527	5.267482	1.784671	0.000211
1903	1.8925e+02	-4.2416	-38.778707	0.000577	5.773970	1.956274	0.000231
1904	1.8935e+02	-4.1999	-38.524368	0.000638	6.381757	2.162198	0.000256
1905	1.8945e+02	-4.1630	-38.306362	0.000547	5.470077	1.853312	0.000219
1906	1.8955e+02	-4.1197	-38.088357	0.000547	5.470077	1.853312	0.000219
1907	1.8965e+02	-4.0892	-37.829980	0.000648	6.483054	2.196518	0.000260
1908	1.8975e+02	-4.0411	-37.652346	0.000446	4.457100	1.510106	0.000179
1909	1.8985e+02	-4.0058	-37.402044	0.000628	6.280459	2.127877	0.000252
1910	1.8995e+02	-3.9560	-37.163853	0.000598	5.976566	2.024915	0.000239
1911	1.9004e+02	-3.9304	-36.917588	0.000618	6.179161	2.093557	0.000248
1912	1.9014e+02	-3.8806	-36.671322	0.000618	6.179161	2.093557	0.000248
1913	1.9024e+02	-3.8486	-36.441206	0.000577	5.773970	1.956274	0.000231
1914	1.9034e+02	-3.8020	-36.255497	0.000466	4.659695	1.578748	0.000187
1915	1.9044e+02	-3.7667	-35.993084	0.000658	6.584352	2.230839	0.000264
1916	1.9054e+02	-3.7154	-35.754893	0.000598	5.976566	2.024915	0.000239
1917	1.9064e+02	-3.6785	-35.508627	0.000618	6.179161	2.093557	0.000248
1918	1.9074e+02	-3.6416	-35.306771	0.000506	5.064886	1.716030	0.000203
1919	1.9084e+02	-3.6127	-35.060505	0.000618	6.179161	2.093557	0.000248
1920	1.9094e+02	-3.5566	-34.769832	0.000729	7.293436	2.471083	0.000292
1921	1.9104e+02	-3.5229	-34.604309	0.000415	4.153207	1.407145	0.000166
1922	1.9114e+02	-3.4828	-34.366118	0.000598	5.976566	2.024915	0.000239
1923	1.9124e+02	-3.4475	-34.127927	0.000598	5.976566	2.024915	0.000239
1924	1.9134e+02	-3.4058	-33.893773	0.000588	5.875268	1.990595	0.000235
1925	1.9144e+02	-3.3641	-33.599062	0.000739	7.394734	2.505404	0.000296
1926	1.9154e+02	-3.3176	-33.429502	0.000425	4.254504	1.441465	0.000170
1927	1.9164e+02	-3.2855	-33.215534	0.000537	5.368779	1.818992	0.000215
1928	1.9174e+02	-3.2422	-32.924861	0.000729	7.293436	2.471083	0.000292
1929	1.9184e+02	-3.2149	-32.702818	0.000557	5.571375	1.887633	0.000223
1930	1.9194e+02	-3.1700	-32.504998	0.000496	4.963589	1.681709	0.000199
1931	1.9203e+02	-3.1283	-32.230473	0.000689	6.888245	2.333801	0.000276
1932	1.9213e+02	-3.0914	-32.000356	0.000577	5.773970	1.956274	0.000231
1933	1.9223e+02	-3.0464	-31.725831	0.000689	6.888245	2.333801	0.000276
1934	1.9233e+02	-3.0079	-31.483603	0.000608	6.077864	2.059236	0.000243
1935	1.9243e+02	-2.9678	-31.253486	0.000577	5.773970	1.956274	0.000231
1936	1.9253e+02	-2.9325	-31.031444	0.000557	5.571375	1.887633	0.000223
1937	1.9263e+02	-2.8892	-30.793253	0.000598	5.976566	2.024915	0.000239
1938	1.9273e+02	-2.8475	-30.538913	0.000638	6.381757	2.162198	0.000256
1939	1.9283e+02	-2.7994	-30.312834	0.000567	5.672673	1.921954	0.000227
1940	1.9293e+02	-2.7689	-30.050420	0.000658	6.584352	2.230839	0.000264
1941	1.9303e+02	-2.7288	-29.844526	0.000517	5.166184	1.750351	0.000207
1942	1.9313e+02	-2.6951	-29.565964	0.000699	6.989543	2.368121	0.000280
1943	1.9323e+02	-2.6518	-29.360070	0.000517	5.166184	1.750351	0.000207
1944	1.9333e+02	-2.6149	-29.113804	0.000618	6.179161	2.093557	0.000248
1945	1.9343e+02	-2.5636	-28.811019	0.000760	7.597329	2.574045	0.000304
1946	1.9353e+02	-2.5251	-28.625311	0.000466	4.659695	1.578748	0.000187
1947	1.9363e+02	-2.4817	-28.370971	0.000638	6.381757	2.162198	0.000256
1948	1.9373e+02	-2.4577	-28.148929	0.000557	5.571375	1.887633	0.000223
1949	1.9383e+02	-2.4128	-27.902664	0.000618	6.179161	2.093557	0.000248
1950	1.9393e+02	-2.3775	-27.628138	0.000689	6.888245	2.333801	0.000276
1951	1.9403e+02	-2.3245	-27.406096	0.000557	5.571375	1.887633	0.000223
1952	1.9412e+02	-2.2924	-27.143682	0.000658	6.584352	2.230839	0.000264
1953	1.9422e+02	-2.2556	-26.897417	0.000618	6.179161	2.093557	0.000248
1954	1.9432e+02	-2.2074	-26.667300	0.000577	5.773970	1.956274	0.000231
1955	1.9442e+02	-2.1689	-26.384701	0.000709	7.090841	2.402442	0.000284
1956	1.9452e+02	-2.1192	-26.170732	0.000537	5.368779	1.818992	0.000215
1957	1.9462e+02	-2.0871	-25.880059	0.000729	7.293436	2.471083	0.000292
1958	1.9472e+02	-2.0486	-25.674165	0.000517	5.166184	1.750351	0.000207
1959	1.9482e+02	-2.0069	-25.419825	0.000638	6.381757	2.162198	0.000256
1960	1.9492e+02	-1.9684	-25.149337	0.000679	6.786948	2.299480	0.000272
1961	1.9502e+02	-1.9315	-24.886923	0.000658	6.584352	2.230839	0.000264
1962	1.9512e+02	-1.9010	-24.628547	0.000648	6.483054	2.196518	0.000260
1963	1.9522e+02	-1.8497	-24.370170	0.000648	6.483054	2.196518	0.000260
1964	1.9532e+02	-1.8016	-24.131979	0.000598	5.976566	2.024915	0.000239
1965	1.9542e+02	-1.7711	-23.865528	0.000669	6.685650	2.265160	0.000268
1966	1.9552e+02	-1.7294	-23.631374	0.000588	5.875268	1.990595	0.000235
1967	1.9562e+02	-1.6957	-23.356849	0.000689	6.888245	2.333801	0.000276
1968	1.9572e+02	-1.6475	-23.090398	0.000669	6.685650	2.265160	0.000268
1969	1.9582e+02	-1.6123	-22.811835	0.000699	6.989543	2.368121	0.000280
1970	1.9592e+02	-1.5657	-22.589793	0.000557	5.571375	1.887633	0.000223
1971	1.9601e+02	-1.5336	-22.315268	0.000689	6.888245	2.333801	0.000276
1972	1.9611e+02	-1.4935	-22.069003	0.000618	6.179161	2.093557	0.000248
1973	1.9621e+02	-1.4454	-21.818700	0.000628	6.280459	2.127877	0.000252
1974	1.9631e+02	-1.4165	-21.548212	0.000679	6.786948	2.299480	0.000272
1975	1.9641e+02	-1.3732	-21.297910	0.000628	6.280459	2.127877	0.000252
1976	1.9651e+02	-1.3251	-20.995124	0.000760	7.597329	2.574045	0.000304
1977	1.9661e+02	-1.2898	-20.773082	0.000557	5.571375	1.887633	0.000223
1978	1.9671e+02	-1.2465	-20.474334	0.000750	7.496032	2.539724	0.000300
1979	1.9681e+02	-1.2176	-20.207883	0.000669	6.685650	2.265160	0.000268
1980	1.9691e+02	-1.1743	-19.965655	0.000608	6.077864	2.059236	0.000243
1981	1.9701e+02	-1.1326	-19.683055	0.000709	7.090841	2.402442	0.000284
1982	1.9711e+02	-1.0877	-19.432753	0.000628	6.280459	2.127877	0.000252
1983	1.9721e+02	-1.0572	-19.138042	0.000739	7.394734	2.505404	0.000296
1984	1.9731e+02	-1.0075	-18.863517	0.000689	6.888245	2.333801	0.000276
1985	1.9741e+02	-0.9834	-18.617251	0.000618	6.179161	2.093557	0.000248
1986	1.9751e+02	-0.9272	-18.338689	0.000699	6.989543	2.368121	0.000280
1987	1.9761e+02	-0.8920	-18.031867	0.000770	7.698627	2.608365	0.000308
1988	1.9771e+02	-0.8486	-17.797713	0.000588	5.875268	1.990595	0.000235
1989	1.9781e+02	-0.8053	-17.539336	0.000648	6.483054	2.196518	0.000260
1990	1.9791e+02	-0.7652	-17.196180	0.000861	8.610307	2.917251	0.000345
1991	1.9800e+02	-0.7396	-16.978174	0.000547	5.470077	1.853312	0.000219
1992	1.9810e+02	-0.6946	-16.687501	0.000729	7.293436	2.471083	0.000292
1993	1.9820e+02	-0.6593	-16.425087	0.000658	6.584352	2.230839	0.000264
1994	1.9830e+02	-0.6096	-16.134413	0.000729	7.293436	2.471083	0.000292
1995	1.9840e+02	-0.5807	-15.859888	0.000689	6.888245	2.333801	0.000276
1996	1.9850e+02	-0.5326	-15.577288	0.000709	7.090841	2.402442	0.000284
1997	1.9860e+02	-0.4909	-15.290652	0.000719	7.192139	2.436762	0.000288
1998	1.9870e+02	-0.4604	-15.052461	0.000598	5.976566	2.024915	0.000239
1999	1.9880e+02	-0.4107	-14.725453	0.000821	8.205116	2.779968	0.000329
2000	1.9890e+02	-0.3690	-14.475150	0.000628	6.280459	2.127877	0.000252
2001	1.9900e+02	-0.3401	-14.232922	0.000608	6.077864	2.059236	0.000243
2002	1.9910e+02	-0.2968	-13.926100	0.000770	7.698627	2.608365	0.000308
2003	1.9920e+02	-0.2535	-13.655612	0.000679	6.786948	2.299480	0.000272
2004	1.9930e+02	-0.2069	-13.377049	0.000699	6.989543	2.368121	0.000280
2005	1.9940e+02	-0.1765	-13.070227	0.000770	7.698627	2.608365	0.000308
2006	1.9950e+02	-0.1412	-12.856259	0.000537	5.368779	1.818992	0.000215
2007	1.9960e+02	-0.0979	-12.529251	0.000821	8.205116	2.779968	0.000329
2008	1.9970e+02	-0.0706	-12.258763	0.000679	6.786948	2.299480	0.000272
2009	1.9980e+02	-0.0160	-11.984237	0.000679	6.786948	2.299480	0.000276

Center data before PMax,+/-Pr and +/-Vc Calc.

PMax (uC/cm2):	1.06e+02
Pr (uC/cm2):	6.32e+00
-Pr (uC/cm2):	-1.20e+01
PLoss (uC/cm2):	-6.36e+00
Vc:	8.75e-01
-Vc:	-9.20e-01
C (Max-Eff) (nF):	5.31e-01
K (Eff):	1.80e+03
Vert. (+/-Pr) Shift (uC/cm2):	-2.83e+00
Horiz. Shift (+/-Vc):	-2.26e-02
Offset (uC/cm2):	5.63e+00

A (Loop Area - uC/cm2·Volts):	8.83e-02



Hysteresis Version: 5.48.1 - Radiant Technologies, Inc., 1999 - 9/12/24

