»»»»»»»»»»»»»»»»»»»»»»»»»»»»»»»»»»»» Hysteresis ««««««««««««««««««««««««««««««««««««
»»»  Executed Version:	5.48.1
»»»  Vision Version:	5.48.4 (R)
»»»  Vision Compiled:	9/18/24
»»»  Driver Version:	5.47.0
»»»  Windows Version:	Windows 8 or 8.1
»»»  Processor Information:	x86 (AMD or Intel) - 32 Processors
»»»  Tester Name:	PMF21124-494 (100V)
»»»  Tester S/N:	PMF21124-494
»»»  Internal Amp Type:	100V RevK 270k
»»»  Internal Amp S/N:	iAB2-596/K     
»»»  Execution Count:	1
»»»»»»»»»»»»»»»»»»»»»»»»»»»»»»»»»»»»»»»»»»««««««««««««««««««««««««««««««««««««««««««

Stored:	6/4/2025 - 17:4:10
Configured:	06/04/25 04:39:58 PM
Executed:	06/04/25 05:02:50 PM

»»»»»»»»»»»»»»»»»»»»»»»»»»»»»»»»»»» Sample Info ««««««««««««««««««««««««««««««««««««
Sample Name:	
Lot Name:	
Wafer Name:	
Die Row/Column:	0/0
Capacitor Number:	0
Sample Area (cm2):	1.00e-04
Sample Thickness (microns):	3.00e-01

Amplifier:	Internal

»»»»»»»»»»»»»»»»»»»»»»»»»»»»»»»»»»» Tester Info «««««««««««««««««««««««««««««««««««
Tester Name:	PMF21124-494 (100V)
Tester Serial Number:	PMF21124-494
Return Signal Amp. Level:	0.19 [Index: 3]

»»»»»»»»»»»»»»»»»»»»»»»»»»»»»»»» Hysteresis Info ««««««««««««««««««««««««««««««««««
Task Name:	Hyst-147
Volts:	20.00
Field:	666.67 (kV/cm)
DCBias:	0.00
DCField:	0.00 (kV/cm)
Hysteresis Period (ms):	2.00e+02
Preset:	Enabled
Preset Delay (ms):	1.00e+03
Profile:	Standard Bipolar

»»»»»»»»»»»»»»»»»»»»»»»»»»»»»»»»»»»»»» Data «««««««««««««««««««««««««««««««««««««««
Points:	2009

Valid Data

Point	Time (ms)	Drive Voltage	Measured Polarization (uC/cm2)	Capacitance (uF)	Normalized Capacitance (uF/cm2)	Dielectric Constant	Instantaneous Current (mA)
   1	0.0000e+00	-0.0096	-5.813475	0.000314	3.140859	1.064152	0.000126
   2	9.9500e-02	0.0257	-5.688324	0.000314	3.140859	1.064152	0.000126
   3	1.9900e-01	0.0594	-5.438022	0.000628	6.281718	2.128304	0.000252
   4	2.9850e-01	0.0979	-5.207905	0.000578	5.775128	1.956666	0.000231
   5	3.9800e-01	0.1428	-4.965677	0.000608	6.079082	2.059649	0.000243
   6	4.9750e-01	0.1861	-4.763820	0.000507	5.065902	1.716374	0.000203
   7	5.9700e-01	0.2278	-4.545815	0.000547	5.471174	1.853684	0.000219
   8	6.9650e-01	0.2759	-4.303587	0.000608	6.079082	2.059649	0.000243
   9	7.9600e-01	0.3016	-4.113841	0.000476	4.761948	1.613392	0.000191
  10	8.9550e-01	0.3465	-3.807019	0.000770	7.700171	2.608888	0.000308
  11	9.9500e-01	0.3722	-3.621311	0.000466	4.660630	1.579064	0.000187
  12	1.0945e+00	0.4251	-3.358897	0.000659	6.585672	2.231286	0.000264
  13	1.1940e+00	0.4668	-3.136854	0.000557	5.572492	1.888011	0.000223
  14	1.2935e+00	0.4957	-2.890589	0.000618	6.180400	2.093976	0.000248
  15	1.3930e+00	0.5422	-2.680658	0.000527	5.268538	1.785029	0.000211
  16	1.4925e+00	0.5952	-2.426319	0.000638	6.383036	2.162631	0.000256
  17	1.5920e+00	0.6273	-2.220425	0.000517	5.167220	1.750701	0.000207
  18	1.6915e+00	0.6690	-1.945899	0.000689	6.889626	2.334269	0.000276
  19	1.7910e+00	0.6994	-1.740006	0.000517	5.167220	1.750701	0.000207
  20	1.8905e+00	0.7412	-1.441257	0.000750	7.497535	2.540234	0.000300
  21	1.9900e+00	0.7764	-1.239401	0.000507	5.065902	1.716374	0.000203
  22	2.0895e+00	0.8150	-1.009284	0.000578	5.775128	1.956666	0.000231
  23	2.1890e+00	0.8518	-0.730722	0.000699	6.990944	2.368596	0.000280
  24	2.2885e+00	0.9096	-0.508679	0.000557	5.572492	1.888011	0.000223
  25	2.3880e+00	0.9385	-0.290674	0.000547	5.471174	1.853684	0.000219
  26	2.4875e+00	0.9802	-0.044408	0.000618	6.180400	2.093976	0.000248
  27	2.5870e+00	1.0235	0.177634	0.000557	5.572492	1.888011	0.000223
  28	2.6865e+00	1.0620	0.440048	0.000659	6.585672	2.231286	0.000264
  29	2.7860e+00	1.1005	0.710536	0.000679	6.788308	2.299941	0.000272
  30	2.8855e+00	1.1438	0.924504	0.000537	5.369856	1.819356	0.000215
  31	2.9850e+00	1.1855	1.166732	0.000608	6.079082	2.059649	0.000243
  32	3.0845e+00	1.2240	1.396849	0.000578	5.775128	1.956666	0.000231
  33	3.1840e+00	1.2625	1.679448	0.000709	7.092263	2.402924	0.000284
  34	3.2835e+00	1.3026	1.921677	0.000608	6.079082	2.059649	0.000243
  35	3.3830e+00	1.3379	2.147756	0.000567	5.673810	1.922339	0.000227
  36	3.4825e+00	1.3764	2.385947	0.000598	5.977764	2.025321	0.000239
  37	3.5820e+00	1.4117	2.684695	0.000750	7.497535	2.540234	0.000300
  38	3.6815e+00	1.4631	2.878478	0.000486	4.863266	1.647719	0.000195
  39	3.7810e+00	1.5048	3.136854	0.000648	6.484354	2.196959	0.000260
  40	3.8805e+00	1.5385	3.407343	0.000679	6.788308	2.299941	0.000272
  41	3.9800e+00	1.5818	3.653608	0.000618	6.180400	2.093976	0.000248
  42	4.0795e+00	1.6203	3.887762	0.000588	5.876446	1.990994	0.000235
  43	4.1790e+00	1.6572	4.166324	0.000699	6.990944	2.368596	0.000280
  44	4.2785e+00	1.7085	4.384329	0.000547	5.471174	1.853684	0.000219
  45	4.3780e+00	1.7406	4.614446	0.000578	5.775128	1.956666	0.000231
  46	4.4775e+00	1.7791	4.876860	0.000659	6.585672	2.231286	0.000264
  47	4.5770e+00	1.8144	5.139274	0.000659	6.585672	2.231286	0.000264
  48	4.6765e+00	1.8561	5.357279	0.000547	5.471174	1.853684	0.000219
  49	4.7760e+00	1.8946	5.647953	0.000729	7.294899	2.471579	0.000292
  50	4.8755e+00	1.9315	5.874032	0.000567	5.673810	1.922339	0.000227
  51	4.9750e+00	1.9732	6.140483	0.000669	6.686990	2.265614	0.000268
  52	5.0745e+00	2.0133	6.386749	0.000618	6.180400	2.093976	0.000248
  53	5.1740e+00	2.0534	6.608791	0.000557	5.572492	1.888011	0.000223
  54	5.2735e+00	2.0935	6.879279	0.000679	6.788308	2.299941	0.000272
  55	5.3730e+00	2.1384	7.145730	0.000669	6.686990	2.265614	0.000268
  56	5.4725e+00	2.1705	7.408144	0.000659	6.585672	2.231286	0.000264
  57	5.5720e+00	2.2170	7.642298	0.000588	5.876446	1.990994	0.000235
  58	5.6715e+00	2.2556	7.864340	0.000557	5.572492	1.888011	0.000223
  59	5.7710e+00	2.2908	8.102531	0.000598	5.977764	2.025321	0.000239
  60	5.8705e+00	2.3326	8.377057	0.000689	6.889626	2.334269	0.000276
  61	5.9700e+00	2.3791	8.615248	0.000598	5.977764	2.025321	0.000239
  62	6.0695e+00	2.4272	8.901884	0.000719	7.193581	2.437251	0.000288
  63	6.1690e+00	2.4545	9.127964	0.000567	5.673810	1.922339	0.000227
  64	6.2685e+00	2.4914	9.345969	0.000547	5.471174	1.853684	0.000219
  65	6.3680e+00	2.5379	9.656829	0.000780	7.801489	2.643216	0.000312
  66	6.4675e+00	2.5828	9.890983	0.000588	5.876446	1.990994	0.000235
  67	6.5670e+00	2.6133	10.153396	0.000659	6.585672	2.231286	0.000264
  68	6.6665e+00	2.6630	10.407736	0.000638	6.383036	2.162631	0.000256
  69	6.7660e+00	2.6919	10.629778	0.000557	5.572492	1.888011	0.000223
  70	6.8655e+00	2.7288	10.859895	0.000578	5.775128	1.956666	0.000231
  71	6.9650e+00	2.7705	11.110198	0.000628	6.281718	2.128304	0.000252
  72	7.0645e+00	2.8122	11.368574	0.000648	6.484354	2.196959	0.000260
  73	7.1640e+00	2.8555	11.630988	0.000659	6.585672	2.231286	0.000264
  74	7.2635e+00	2.8924	11.901476	0.000679	6.788308	2.299941	0.000272
  75	7.3630e+00	2.9277	12.143704	0.000608	6.079082	2.059649	0.000243
  76	7.4625e+00	2.9614	12.357672	0.000537	5.369856	1.819356	0.000215
  77	7.5620e+00	2.9983	12.571641	0.000537	5.369856	1.819356	0.000215
  78	7.6615e+00	3.0561	12.882500	0.000780	7.801489	2.643216	0.000312
  79	7.7610e+00	3.0978	13.132803	0.000628	6.281718	2.128304	0.000252
  80	7.8605e+00	3.1363	13.379068	0.000618	6.180400	2.093976	0.000248
  81	7.9600e+00	3.1844	13.641482	0.000659	6.585672	2.231286	0.000264
  82	8.0595e+00	3.2053	13.899858	0.000648	6.484354	2.196959	0.000260
  83	8.1590e+00	3.2518	14.117864	0.000547	5.471174	1.853684	0.000219
  84	8.2585e+00	3.2903	14.388352	0.000679	6.788308	2.299941	0.000272
  85	8.3580e+00	3.3320	14.610394	0.000557	5.572492	1.888011	0.000223
  86	8.4575e+00	3.3721	14.824362	0.000537	5.369856	1.819356	0.000215
  87	8.5570e+00	3.4138	15.115036	0.000729	7.294899	2.471579	0.000292
  88	8.6565e+00	3.4491	15.397636	0.000709	7.092263	2.402924	0.000284
  89	8.7560e+00	3.4972	15.607567	0.000527	5.268538	1.785029	0.000211
  90	8.8555e+00	3.5309	15.841721	0.000588	5.876446	1.990994	0.000235
  91	8.9550e+00	3.5694	16.116246	0.000689	6.889626	2.334269	0.000276
  92	9.0545e+00	3.6143	16.334251	0.000547	5.471174	1.853684	0.000219
  93	9.1540e+00	3.6512	16.592628	0.000648	6.484354	2.196959	0.000260
  94	9.2535e+00	3.6913	16.802559	0.000527	5.268538	1.785029	0.000211
  95	9.3530e+00	3.7266	17.085158	0.000709	7.092263	2.402924	0.000284
  96	9.4525e+00	3.7716	17.367758	0.000709	7.092263	2.402924	0.000284
  97	9.5520e+00	3.8068	17.597875	0.000578	5.775128	1.956666	0.000231
  98	9.6515e+00	3.8470	17.864326	0.000669	6.686990	2.265614	0.000268
  99	9.7510e+00	3.8855	18.098480	0.000588	5.876446	1.990994	0.000235
 100	9.8505e+00	3.9304	18.368968	0.000679	6.788308	2.299941	0.000272
 101	9.9500e+00	3.9609	18.574862	0.000517	5.167220	1.750701	0.000207
 102	1.0050e+01	4.0090	18.849387	0.000689	6.889626	2.334269	0.000276
 103	1.0149e+01	4.0475	19.099689	0.000628	6.281718	2.128304	0.000252
 104	1.0248e+01	4.0924	19.305583	0.000517	5.167220	1.750701	0.000207
 105	1.0348e+01	4.1309	19.616443	0.000780	7.801489	2.643216	0.000312
 106	1.0447e+01	4.1742	19.834448	0.000547	5.471174	1.853684	0.000219
 107	1.0547e+01	4.2079	20.036305	0.000507	5.065902	1.716374	0.000203
 108	1.0646e+01	4.2624	20.367350	0.000831	8.308079	2.814853	0.000333
 109	1.0746e+01	4.2865	20.573244	0.000517	5.167220	1.750701	0.000207
 110	1.0845e+01	4.3362	20.815472	0.000608	6.079082	2.059649	0.000243
 111	1.0945e+01	4.3796	21.073849	0.000648	6.484354	2.196959	0.000260
 112	1.1044e+01	4.4036	21.320114	0.000618	6.180400	2.093976	0.000248
 113	1.1144e+01	4.4437	21.554268	0.000588	5.876446	1.990994	0.000235
 114	1.1243e+01	4.4935	21.824756	0.000679	6.788308	2.299941	0.000272
 115	1.1343e+01	4.5239	22.103318	0.000699	6.990944	2.368596	0.000280
 116	1.1443e+01	4.5705	22.293064	0.000476	4.761948	1.613392	0.000191
 117	1.1542e+01	4.6074	22.543366	0.000628	6.281718	2.128304	0.000252
 118	1.1642e+01	4.6475	22.789631	0.000618	6.180400	2.093976	0.000248
 119	1.1741e+01	4.6860	23.011674	0.000557	5.572492	1.888011	0.000223
 120	1.1841e+01	4.7213	23.274088	0.000659	6.585672	2.231286	0.000264
 121	1.1940e+01	4.7614	23.520353	0.000618	6.180400	2.093976	0.000248
 122	1.2040e+01	4.8111	23.722210	0.000507	5.065902	1.716374	0.000203
 123	1.2139e+01	4.8416	23.992698	0.000679	6.788308	2.299941	0.000272
 124	1.2239e+01	4.8817	24.275297	0.000709	7.092263	2.402924	0.000284
 125	1.2338e+01	4.9250	24.461005	0.000466	4.660630	1.579064	0.000187
 126	1.2438e+01	4.9667	24.695159	0.000588	5.876446	1.990994	0.000235
 127	1.2537e+01	5.0148	24.925276	0.000578	5.775128	1.956666	0.000231
 128	1.2636e+01	5.0485	25.199801	0.000689	6.889626	2.334269	0.000276
 129	1.2736e+01	5.0854	25.446067	0.000618	6.180400	2.093976	0.000248
 130	1.2835e+01	5.1239	25.672146	0.000567	5.673810	1.922339	0.000227
 131	1.2935e+01	5.1592	25.914374	0.000608	6.079082	2.059649	0.000243
 132	1.3034e+01	5.2089	26.128342	0.000537	5.369856	1.819356	0.000215
 133	1.3134e+01	5.2458	26.374608	0.000618	6.180400	2.093976	0.000248
 134	1.3233e+01	5.2924	26.645096	0.000679	6.788308	2.299941	0.000272
 135	1.3333e+01	5.3244	26.891361	0.000618	6.180400	2.093976	0.000248
 136	1.3432e+01	5.3517	27.105329	0.000537	5.369856	1.819356	0.000215
 137	1.3532e+01	5.4095	27.315260	0.000527	5.268538	1.785029	0.000211
 138	1.3632e+01	5.4432	27.565563	0.000628	6.281718	2.128304	0.000252
 139	1.3731e+01	5.4881	27.819902	0.000638	6.383036	2.162631	0.000256
 140	1.3831e+01	5.5314	28.062131	0.000608	6.079082	2.059649	0.000243
 141	1.3930e+01	5.5555	28.308396	0.000618	6.180400	2.093976	0.000248
 142	1.4030e+01	5.6036	28.546587	0.000598	5.977764	2.025321	0.000239
 143	1.4129e+01	5.6533	28.776704	0.000578	5.775128	1.956666	0.000231
 144	1.4229e+01	5.6902	28.974523	0.000496	4.964584	1.682047	0.000199
 145	1.4328e+01	5.7303	29.249048	0.000689	6.889626	2.334269	0.000276
 146	1.4428e+01	5.7672	29.463017	0.000537	5.369856	1.819356	0.000215
 147	1.4527e+01	5.8009	29.717356	0.000638	6.383036	2.162631	0.000256
 148	1.4627e+01	5.8442	29.947473	0.000578	5.775128	1.956666	0.000231
 149	1.4726e+01	5.8940	30.165478	0.000547	5.471174	1.853684	0.000219
 150	1.4825e+01	5.9164	30.431929	0.000669	6.686990	2.265614	0.000268
 151	1.4925e+01	5.9613	30.662046	0.000578	5.775128	1.956666	0.000231
 152	1.5024e+01	5.9998	30.888126	0.000567	5.673810	1.922339	0.000227
 153	1.5124e+01	6.0480	31.126317	0.000598	5.977764	2.025321	0.000239
 154	1.5223e+01	6.0752	31.360470	0.000588	5.876446	1.990994	0.000235
 155	1.5323e+01	6.1153	31.606736	0.000618	6.180400	2.093976	0.000248
 156	1.5422e+01	6.1715	31.824741	0.000547	5.471174	1.853684	0.000219
 157	1.5522e+01	6.2068	32.054858	0.000578	5.775128	1.956666	0.000231
 158	1.5621e+01	6.2501	32.276900	0.000557	5.572492	1.888011	0.000223
 159	1.5721e+01	6.2806	32.507017	0.000578	5.775128	1.956666	0.000231
 160	1.5820e+01	6.3159	32.781542	0.000689	6.889626	2.334269	0.000276
 161	1.5920e+01	6.3656	32.979362	0.000496	4.964584	1.682047	0.000199
 162	1.6020e+01	6.4057	33.237739	0.000648	6.484354	2.196959	0.000260
 163	1.6119e+01	6.4442	33.443632	0.000517	5.167220	1.750701	0.000207
 164	1.6218e+01	6.4763	33.681823	0.000598	5.977764	2.025321	0.000239
 165	1.6318e+01	6.5196	33.883680	0.000507	5.065902	1.716374	0.000203
 166	1.6418e+01	6.5533	34.142057	0.000648	6.484354	2.196959	0.000260
 167	1.6517e+01	6.5982	34.376211	0.000588	5.876446	1.990994	0.000235
 168	1.6616e+01	6.6431	34.590179	0.000537	5.369856	1.819356	0.000215
 169	1.6716e+01	6.6768	34.816259	0.000567	5.673810	1.922339	0.000227
 170	1.6816e+01	6.7249	35.066561	0.000628	6.281718	2.128304	0.000252
 171	1.6915e+01	6.7458	35.284566	0.000547	5.471174	1.853684	0.000219
 172	1.7015e+01	6.7971	35.502572	0.000547	5.471174	1.853684	0.000219
 173	1.7114e+01	6.8340	35.732688	0.000578	5.775128	1.956666	0.000231
 174	1.7213e+01	6.8806	35.958768	0.000567	5.673810	1.922339	0.000227
 175	1.7313e+01	6.9271	36.168699	0.000527	5.268538	1.785029	0.000211
 176	1.7413e+01	6.9672	36.410927	0.000608	6.079082	2.059649	0.000243
 177	1.7512e+01	6.9945	36.608747	0.000496	4.964584	1.682047	0.000199
 178	1.7611e+01	7.0394	36.879235	0.000679	6.788308	2.299941	0.000272
 179	1.7711e+01	7.0763	37.077055	0.000496	4.964584	1.682047	0.000199
 180	1.7811e+01	7.1132	37.311208	0.000588	5.876446	1.990994	0.000235
 181	1.7910e+01	7.1501	37.529214	0.000547	5.471174	1.853684	0.000219
 182	1.8009e+01	7.1982	37.722996	0.000486	4.863266	1.647719	0.000195
 183	1.8109e+01	7.2287	37.965224	0.000608	6.079082	2.059649	0.000243
 184	1.8209e+01	7.2800	38.203415	0.000598	5.977764	2.025321	0.000239
 185	1.8308e+01	7.3185	38.437569	0.000588	5.876446	1.990994	0.000235
 186	1.8407e+01	7.3634	38.659612	0.000557	5.572492	1.888011	0.000223
 187	1.8507e+01	7.3923	38.833209	0.000436	4.356676	1.476082	0.000174
 188	1.8607e+01	7.4404	39.018917	0.000466	4.660630	1.579064	0.000187
 189	1.8706e+01	7.4741	39.253071	0.000588	5.876446	1.990994	0.000235
 190	1.8805e+01	7.5174	39.479150	0.000567	5.673810	1.922339	0.000227
 191	1.8905e+01	7.5624	39.745601	0.000669	6.686990	2.265614	0.000268
 192	1.9005e+01	7.5896	39.955532	0.000527	5.268538	1.785029	0.000211
 193	1.9104e+01	7.6378	40.185649	0.000578	5.775128	1.956666	0.000231
 194	1.9203e+01	7.6746	40.387506	0.000507	5.065902	1.716374	0.000203
 195	1.9303e+01	7.7180	40.609548	0.000557	5.572492	1.888011	0.000223
 196	1.9402e+01	7.7549	40.831591	0.000557	5.572492	1.888011	0.000223
 197	1.9502e+01	7.7918	41.037485	0.000517	5.167220	1.750701	0.000207
 198	1.9602e+01	7.8335	41.223193	0.000466	4.660630	1.579064	0.000187
 199	1.9701e+01	7.8768	41.473495	0.000628	6.281718	2.128304	0.000252
 200	1.9800e+01	7.9121	41.707649	0.000588	5.876446	1.990994	0.000235
 201	1.9900e+01	7.9586	41.905469	0.000496	4.964584	1.682047	0.000199
 202	2.0000e+01	7.9843	42.103289	0.000496	4.964584	1.682047	0.000199
 203	2.0099e+01	8.0356	42.321294	0.000547	5.471174	1.853684	0.000219
 204	2.0198e+01	8.0645	42.531225	0.000527	5.268538	1.785029	0.000211
 205	2.0298e+01	8.1158	42.797676	0.000669	6.686990	2.265614	0.000268
 206	2.0398e+01	8.1495	43.023756	0.000567	5.673810	1.922339	0.000227
 207	2.0497e+01	8.1864	43.205427	0.000456	4.559312	1.544737	0.000183
 208	2.0596e+01	8.2233	43.415358	0.000527	5.268538	1.785029	0.000211
 209	2.0696e+01	8.2730	43.617215	0.000507	5.065902	1.716374	0.000203
 210	2.0796e+01	8.3196	43.859443	0.000608	6.079082	2.059649	0.000243
 211	2.0895e+01	8.3484	44.065337	0.000517	5.167220	1.750701	0.000207
 212	2.0994e+01	8.3901	44.263156	0.000496	4.964584	1.682047	0.000199
 213	2.1094e+01	8.4335	44.545756	0.000709	7.092263	2.402924	0.000284
 214	2.1194e+01	8.4655	44.735501	0.000476	4.761948	1.613392	0.000191
 215	2.1293e+01	8.5169	44.941395	0.000517	5.167220	1.750701	0.000207
 216	2.1392e+01	8.5554	45.147289	0.000517	5.167220	1.750701	0.000207
 217	2.1492e+01	8.5987	45.337034	0.000476	4.761948	1.613392	0.000191
 218	2.1591e+01	8.6292	45.579262	0.000608	6.079082	2.059649	0.000243
 219	2.1691e+01	8.6757	45.773045	0.000486	4.863266	1.647719	0.000195
 220	2.1791e+01	8.7190	46.035459	0.000659	6.585672	2.231286	0.000264
 221	2.1890e+01	8.7511	46.192907	0.000395	3.951403	1.338772	0.000158
 222	2.1989e+01	8.7896	46.439172	0.000618	6.180400	2.093976	0.000248
 223	2.2089e+01	8.8345	46.673326	0.000588	5.876446	1.990994	0.000235
 224	2.2189e+01	8.8682	46.871146	0.000496	4.964584	1.682047	0.000199
 225	2.2288e+01	8.9115	47.060891	0.000476	4.761948	1.613392	0.000191
 226	2.2387e+01	8.9548	47.286971	0.000567	5.673810	1.922339	0.000227
 227	2.2487e+01	8.9885	47.521125	0.000588	5.876446	1.990994	0.000235
 228	2.2587e+01	9.0350	47.682610	0.000405	4.052721	1.373099	0.000162
 229	2.2686e+01	9.0687	47.904653	0.000557	5.572492	1.888011	0.000223
 230	2.2785e+01	9.1136	48.142844	0.000598	5.977764	2.025321	0.000239
 231	2.2885e+01	9.1505	48.376998	0.000588	5.876446	1.990994	0.000235
 232	2.2985e+01	9.1890	48.590966	0.000537	5.369856	1.819356	0.000215
 233	2.3084e+01	9.2163	48.756488	0.000415	4.154039	1.407427	0.000166
 234	2.3183e+01	9.2725	48.978531	0.000557	5.572492	1.888011	0.000223
 235	2.3283e+01	9.3142	49.216722	0.000598	5.977764	2.025321	0.000239
 236	2.3383e+01	9.3495	49.418579	0.000507	5.065902	1.716374	0.000203
 237	2.3482e+01	9.3832	49.608324	0.000476	4.761948	1.613392	0.000191
 238	2.3581e+01	9.4281	49.818255	0.000527	5.268538	1.785029	0.000211
 239	2.3681e+01	9.4634	50.016075	0.000496	4.964584	1.682047	0.000199
 240	2.3780e+01	9.5115	50.217931	0.000507	5.065902	1.716374	0.000203
 241	2.3880e+01	9.5484	50.431900	0.000537	5.369856	1.819356	0.000215
 242	2.3980e+01	9.5869	50.670091	0.000598	5.977764	2.025321	0.000239
 243	2.4079e+01	9.6270	50.843687	0.000436	4.356676	1.476082	0.000174
 244	2.4178e+01	9.6767	51.021321	0.000446	4.457994	1.510409	0.000179
 245	2.4278e+01	9.7024	51.287772	0.000669	6.686990	2.265614	0.000268
 246	2.4378e+01	9.7473	51.473481	0.000466	4.660630	1.579064	0.000187
 247	2.4477e+01	9.7922	51.663226	0.000476	4.761948	1.613392	0.000191
 248	2.4576e+01	9.8307	51.905454	0.000608	6.079082	2.059649	0.000243
 249	2.4676e+01	9.8548	52.107311	0.000507	5.065902	1.716374	0.000203
 250	2.4776e+01	9.9077	52.305131	0.000496	4.964584	1.682047	0.000199
 251	2.4875e+01	9.9446	52.543322	0.000598	5.977764	2.025321	0.000239
 252	2.4974e+01	9.9928	52.716918	0.000436	4.356676	1.476082	0.000174
 253	2.5074e+01	10.0265	52.934924	0.000547	5.471174	1.853684	0.000219
 254	2.5174e+01	10.0650	53.128706	0.000486	4.863266	1.647719	0.000195
 255	2.5273e+01	10.1002	53.370934	0.000608	6.079082	2.059649	0.000243
 256	2.5372e+01	10.1371	53.528383	0.000395	3.951403	1.338772	0.000158
 257	2.5472e+01	10.1869	53.782722	0.000638	6.383036	2.162631	0.000256
 258	2.5572e+01	10.2254	53.964393	0.000456	4.559312	1.544737	0.000183
 259	2.5671e+01	10.2671	54.182399	0.000547	5.471174	1.853684	0.000219
 260	2.5770e+01	10.3072	54.392330	0.000527	5.268538	1.785029	0.000211
 261	2.5870e+01	10.3457	54.594187	0.000507	5.065902	1.716374	0.000203
 262	2.5970e+01	10.3842	54.783932	0.000476	4.761948	1.613392	0.000191
 263	2.6069e+01	10.4275	55.001937	0.000547	5.471174	1.853684	0.000219
 264	2.6169e+01	10.4708	55.219943	0.000547	5.471174	1.853684	0.000219
 265	2.6268e+01	10.5109	55.401614	0.000456	4.559312	1.544737	0.000183
 266	2.6367e+01	10.5446	55.591359	0.000476	4.761948	1.613392	0.000191
 267	2.6467e+01	10.5879	55.817439	0.000567	5.673810	1.922339	0.000227
 268	2.6567e+01	10.6248	56.043518	0.000567	5.673810	1.922339	0.000227
 269	2.6666e+01	10.6649	56.249412	0.000517	5.167220	1.750701	0.000207
 270	2.6765e+01	10.7034	56.499715	0.000628	6.281718	2.128304	0.000252
 271	2.6865e+01	10.7403	56.677349	0.000446	4.457994	1.510409	0.000179
 272	2.6965e+01	10.7788	56.891317	0.000537	5.369856	1.819356	0.000215
 273	2.7064e+01	10.8222	57.060877	0.000426	4.255358	1.441754	0.000170
 274	2.7163e+01	10.8703	57.262733	0.000507	5.065902	1.716374	0.000203
 275	2.7263e+01	10.9040	57.440367	0.000446	4.457994	1.510409	0.000179
 276	2.7363e+01	10.9457	57.678558	0.000598	5.977764	2.025321	0.000239
 277	2.7462e+01	10.9794	57.880415	0.000507	5.065902	1.716374	0.000203
 278	2.7561e+01	11.0227	58.066123	0.000466	4.660630	1.579064	0.000187
 279	2.7661e+01	11.0692	58.280092	0.000537	5.369856	1.819356	0.000215
 280	2.7761e+01	11.1061	58.522320	0.000608	6.079082	2.059649	0.000243
 281	2.7860e+01	11.1398	58.695916	0.000436	4.356676	1.476082	0.000174
 282	2.7959e+01	11.1831	58.917959	0.000557	5.572492	1.888011	0.000223
 283	2.8059e+01	11.2152	59.103667	0.000466	4.660630	1.579064	0.000187
 284	2.8159e+01	11.2617	59.317635	0.000537	5.369856	1.819356	0.000215
 285	2.8258e+01	11.3018	59.547752	0.000578	5.775128	1.956666	0.000231
 286	2.8358e+01	11.3435	59.709238	0.000405	4.052721	1.373099	0.000162
 287	2.8457e+01	11.3852	59.915131	0.000517	5.167220	1.750701	0.000207
 288	2.8556e+01	11.4221	60.125063	0.000527	5.268538	1.785029	0.000211
 289	2.8656e+01	11.4622	60.294622	0.000426	4.255358	1.441754	0.000170
 290	2.8756e+01	11.5040	60.512628	0.000547	5.471174	1.853684	0.000219
 291	2.8855e+01	11.5473	60.710447	0.000496	4.964584	1.682047	0.000199
 292	2.8954e+01	11.5890	60.920378	0.000527	5.268538	1.785029	0.000211
 293	2.9054e+01	11.6275	61.154532	0.000588	5.876446	1.990994	0.000235
 294	2.9154e+01	11.6580	61.307943	0.000385	3.850085	1.304444	0.000154
 295	2.9253e+01	11.6981	61.501726	0.000486	4.863266	1.647719	0.000195
 296	2.9352e+01	11.7414	61.715694	0.000537	5.369856	1.819356	0.000215
 297	2.9452e+01	11.7735	61.909477	0.000486	4.863266	1.647719	0.000195
 298	2.9552e+01	11.8184	62.127482	0.000547	5.471174	1.853684	0.000219
 299	2.9651e+01	11.8617	62.284930	0.000395	3.951403	1.338772	0.000158
 300	2.9750e+01	11.8954	62.462564	0.000446	4.457994	1.510409	0.000179
 301	2.9850e+01	11.9419	62.720941	0.000648	6.484354	2.196959	0.000260
 302	2.9950e+01	11.9740	62.898575	0.000446	4.457994	1.510409	0.000179
 303	3.0049e+01	12.0253	63.096394	0.000496	4.964584	1.682047	0.000199
 304	3.0148e+01	12.0622	63.269991	0.000436	4.356676	1.476082	0.000174
 305	3.0248e+01	12.0959	63.492034	0.000557	5.572492	1.888011	0.000223
 306	3.0348e+01	12.1408	63.689853	0.000496	4.964584	1.682047	0.000199
 307	3.0447e+01	12.1793	63.871525	0.000456	4.559312	1.544737	0.000183
 308	3.0547e+01	12.2210	64.073381	0.000507	5.065902	1.716374	0.000203
 309	3.0646e+01	12.2579	64.251015	0.000446	4.457994	1.510409	0.000179
 310	3.0745e+01	12.2997	64.428649	0.000446	4.457994	1.510409	0.000179
 311	3.0845e+01	12.3430	64.646655	0.000547	5.471174	1.853684	0.000219
 312	3.0945e+01	12.3751	64.888883	0.000608	6.079082	2.059649	0.000243
 313	3.1044e+01	12.4168	65.038257	0.000375	3.748767	1.270117	0.000150
 314	3.1143e+01	12.4633	65.272411	0.000588	5.876446	1.990994	0.000235
 315	3.1243e+01	12.5002	65.421785	0.000375	3.748767	1.270117	0.000150
 316	3.1343e+01	12.5483	65.659976	0.000598	5.977764	2.025321	0.000239
 317	3.1442e+01	12.5820	65.849721	0.000476	4.761948	1.613392	0.000191
 318	3.1541e+01	12.6253	66.031392	0.000456	4.559312	1.544737	0.000183
 319	3.1641e+01	12.6590	66.188840	0.000395	3.951403	1.338772	0.000158
 320	3.1741e+01	12.6991	66.427031	0.000598	5.977764	2.025321	0.000239
 321	3.1840e+01	12.7408	66.608703	0.000456	4.559312	1.544737	0.000183
 322	3.1939e+01	12.7777	66.814596	0.000517	5.167220	1.750701	0.000207
 323	3.2039e+01	12.8210	67.020490	0.000517	5.167220	1.750701	0.000207
 324	3.2139e+01	12.8499	67.210236	0.000476	4.761948	1.613392	0.000191
 325	3.2238e+01	12.8916	67.395944	0.000466	4.660630	1.579064	0.000187
 326	3.2337e+01	12.9413	67.569541	0.000436	4.356676	1.476082	0.000174
 327	3.2437e+01	12.9638	67.751212	0.000456	4.559312	1.544737	0.000183
 328	3.2536e+01	13.0167	67.953069	0.000507	5.065902	1.716374	0.000203
 329	3.2636e+01	13.0536	68.142814	0.000476	4.761948	1.613392	0.000191
 330	3.2736e+01	13.0905	68.348708	0.000517	5.167220	1.750701	0.000207
 331	3.2835e+01	13.1355	68.530379	0.000456	4.559312	1.544737	0.000183
 332	3.2934e+01	13.1724	68.712050	0.000456	4.559312	1.544737	0.000183
 333	3.3034e+01	13.2076	68.909870	0.000496	4.964584	1.682047	0.000199
 334	3.3133e+01	13.2590	69.087504	0.000446	4.457994	1.510409	0.000179
 335	3.3233e+01	13.2879	69.301472	0.000537	5.369856	1.819356	0.000215
 336	3.3333e+01	13.3296	69.442772	0.000355	3.546131	1.201462	0.000142
 337	3.3432e+01	13.3649	69.705186	0.000659	6.585672	2.231286	0.000264
 338	3.3532e+01	13.4066	69.866671	0.000405	4.052721	1.373099	0.000162
 339	3.3631e+01	13.4515	70.072565	0.000517	5.167220	1.750701	0.000207
 340	3.3730e+01	13.4932	70.250199	0.000446	4.457994	1.510409	0.000179
 341	3.3830e+01	13.5317	70.419759	0.000426	4.255358	1.441754	0.000170
 342	3.3929e+01	13.5670	70.629690	0.000527	5.268538	1.785029	0.000211
 343	3.4029e+01	13.6167	70.823472	0.000486	4.863266	1.647719	0.000195
 344	3.4129e+01	13.6488	71.005143	0.000456	4.559312	1.544737	0.000183
 345	3.4228e+01	13.7001	71.190852	0.000466	4.660630	1.579064	0.000187
 346	3.4328e+01	13.7386	71.364448	0.000436	4.356676	1.476082	0.000174
 347	3.4427e+01	13.7691	71.534008	0.000426	4.255358	1.441754	0.000170
 348	3.4526e+01	13.8108	71.764125	0.000578	5.775128	1.956666	0.000231
 349	3.4626e+01	13.8526	71.945796	0.000456	4.559312	1.544737	0.000183
 350	3.4725e+01	13.8943	72.103244	0.000395	3.951403	1.338772	0.000158
 351	3.4825e+01	13.9279	72.317212	0.000537	5.369856	1.819356	0.000215
 352	3.4925e+01	13.9665	72.454475	0.000344	3.444813	1.167134	0.000138
 353	3.5024e+01	14.0098	72.664406	0.000527	5.268538	1.785029	0.000211
 354	3.5123e+01	14.0467	72.842040	0.000446	4.457994	1.510409	0.000179
 355	3.5223e+01	14.0900	73.019674	0.000446	4.457994	1.510409	0.000179
 356	3.5322e+01	14.1333	73.229605	0.000527	5.268538	1.785029	0.000211
 357	3.5422e+01	14.1686	73.387053	0.000395	3.951403	1.338772	0.000158
 358	3.5522e+01	14.2087	73.568725	0.000456	4.559312	1.544737	0.000183
 359	3.5621e+01	14.2520	73.754433	0.000466	4.660630	1.579064	0.000187
 360	3.5721e+01	14.2905	73.944178	0.000476	4.761948	1.613392	0.000191
 361	3.5820e+01	14.3354	74.133924	0.000476	4.761948	1.613392	0.000191
 362	3.5919e+01	14.3691	74.303483	0.000426	4.255358	1.441754	0.000170
 363	3.6019e+01	14.4124	74.473043	0.000426	4.255358	1.441754	0.000170
 364	3.6118e+01	14.4413	74.638566	0.000415	4.154039	1.407427	0.000166
 365	3.6218e+01	14.4894	74.844459	0.000517	5.167220	1.750701	0.000207
 366	3.6318e+01	14.5279	75.014019	0.000426	4.255358	1.441754	0.000170
 367	3.6417e+01	14.5680	75.232024	0.000547	5.471174	1.853684	0.000219
 368	3.6517e+01	14.6065	75.409658	0.000446	4.457994	1.510409	0.000179
 369	3.6616e+01	14.6418	75.559032	0.000375	3.748767	1.270117	0.000150
 370	3.6715e+01	14.6948	75.756852	0.000496	4.964584	1.682047	0.000199
 371	3.6815e+01	14.7301	75.918338	0.000405	4.052721	1.373099	0.000162
 372	3.6914e+01	14.7573	76.156529	0.000598	5.977764	2.025321	0.000239
 373	3.7014e+01	14.8087	76.322051	0.000415	4.154039	1.407427	0.000166
 374	3.7114e+01	14.8552	76.479499	0.000395	3.951403	1.338772	0.000158
 375	3.7213e+01	14.8937	76.616762	0.000344	3.444813	1.167134	0.000138
 376	3.7313e+01	14.9226	76.834767	0.000547	5.471174	1.853684	0.000219
 377	3.7412e+01	14.9643	77.044698	0.000527	5.268538	1.785029	0.000211
 378	3.7511e+01	15.0028	77.218295	0.000436	4.356676	1.476082	0.000174
 379	3.7611e+01	15.0413	77.379781	0.000405	4.052721	1.373099	0.000162
 380	3.7711e+01	15.0878	77.557415	0.000446	4.457994	1.510409	0.000179
 381	3.7810e+01	15.1263	77.739086	0.000456	4.559312	1.544737	0.000183
 382	3.7910e+01	15.1600	77.924794	0.000466	4.660630	1.579064	0.000187
 383	3.8009e+01	15.1969	78.130688	0.000517	5.167220	1.750701	0.000207
 384	3.8108e+01	15.2434	78.300248	0.000426	4.255358	1.441754	0.000170
 385	3.8208e+01	15.2883	78.473844	0.000436	4.356676	1.476082	0.000174
 386	3.8307e+01	15.3333	78.639367	0.000415	4.154039	1.407427	0.000166
 387	3.8407e+01	15.3653	78.825075	0.000466	4.660630	1.579064	0.000187
 388	3.8507e+01	15.4119	79.047118	0.000557	5.572492	1.888011	0.000223
 389	3.8606e+01	15.4472	79.184380	0.000344	3.444813	1.167134	0.000138
 390	3.8706e+01	15.4825	79.382200	0.000496	4.964584	1.682047	0.000199
 391	3.8805e+01	15.5274	79.588094	0.000517	5.167220	1.750701	0.000207
 392	3.8904e+01	15.5707	79.717282	0.000324	3.242177	1.098479	0.000130
 393	3.9004e+01	15.6060	79.898953	0.000456	4.559312	1.544737	0.000183
 394	3.9103e+01	15.6429	80.096773	0.000496	4.964584	1.682047	0.000199
 395	3.9203e+01	15.6750	80.278444	0.000456	4.559312	1.544737	0.000183
 396	3.9303e+01	15.7215	80.456078	0.000446	4.457994	1.510409	0.000179
 397	3.9402e+01	15.7792	80.653898	0.000496	4.964584	1.682047	0.000199
 398	3.9502e+01	15.7985	80.803272	0.000375	3.748767	1.270117	0.000150
 399	3.9601e+01	15.8418	80.984943	0.000456	4.559312	1.544737	0.000183
 400	3.9700e+01	15.8947	81.166614	0.000456	4.559312	1.544737	0.000183
 401	3.9800e+01	15.9252	81.328099	0.000405	4.052721	1.373099	0.000162
 402	3.9900e+01	15.9589	81.517845	0.000476	4.761948	1.613392	0.000191
 403	3.9999e+01	16.0038	81.695479	0.000446	4.457994	1.510409	0.000179
 404	4.0099e+01	16.0423	81.877150	0.000456	4.559312	1.544737	0.000183
 405	4.0198e+01	16.0744	82.062858	0.000466	4.660630	1.579064	0.000187
 406	4.0297e+01	16.1225	82.216269	0.000385	3.850085	1.304444	0.000154
 407	4.0397e+01	16.1707	82.418126	0.000507	5.065902	1.716374	0.000203
 408	4.0496e+01	16.2028	82.583649	0.000415	4.154039	1.407427	0.000166
 409	4.0596e+01	16.2429	82.753208	0.000426	4.255358	1.441754	0.000170
 410	4.0696e+01	16.2846	82.942954	0.000476	4.761948	1.613392	0.000191
 411	4.0795e+01	16.3231	83.092328	0.000375	3.748767	1.270117	0.000150
 412	4.0895e+01	16.3632	83.302259	0.000527	5.268538	1.785029	0.000211
 413	4.0994e+01	16.4017	83.451633	0.000375	3.748767	1.270117	0.000150
 414	4.1093e+01	16.4306	83.617155	0.000415	4.154039	1.407427	0.000166
 415	4.1193e+01	16.4819	83.782678	0.000415	4.154039	1.407427	0.000166
 416	4.1292e+01	16.5236	83.992609	0.000527	5.268538	1.785029	0.000211
 417	4.1392e+01	16.5621	84.174280	0.000456	4.559312	1.544737	0.000183
 418	4.1492e+01	16.6006	84.359988	0.000466	4.660630	1.579064	0.000187
 419	4.1591e+01	16.6423	84.509362	0.000375	3.748767	1.270117	0.000150
 420	4.1691e+01	16.6792	84.703145	0.000486	4.863266	1.647719	0.000195
 421	4.1790e+01	16.7177	84.888853	0.000466	4.660630	1.579064	0.000187
 422	4.1889e+01	16.7578	85.062450	0.000436	4.356676	1.476082	0.000174
 423	4.1989e+01	16.7979	85.223935	0.000405	4.052721	1.373099	0.000162
 424	4.2089e+01	16.8428	85.405607	0.000456	4.559312	1.544737	0.000183
 425	4.2188e+01	16.8781	85.591315	0.000466	4.660630	1.579064	0.000187
 426	4.2288e+01	16.9263	85.740689	0.000375	3.748767	1.270117	0.000150
 427	4.2387e+01	16.9583	85.922360	0.000456	4.559312	1.544737	0.000183
 428	4.2486e+01	16.9936	86.144402	0.000557	5.572492	1.888011	0.000223
 429	4.2586e+01	17.0434	86.277628	0.000334	3.343495	1.132807	0.000134
 430	4.2685e+01	17.0738	86.479485	0.000507	5.065902	1.716374	0.000203
 431	4.2785e+01	17.1204	86.620784	0.000355	3.546131	1.201462	0.000142
 432	4.2885e+01	17.1573	86.818604	0.000496	4.964584	1.682047	0.000199
 433	4.2984e+01	17.1894	87.000275	0.000456	4.559312	1.544737	0.000183
 434	4.3084e+01	17.2391	87.185983	0.000466	4.660630	1.579064	0.000187
 435	4.3183e+01	17.2728	87.387840	0.000507	5.065902	1.716374	0.000203
 436	4.3282e+01	17.3129	87.512991	0.000314	3.140859	1.064152	0.000126
 437	4.3382e+01	17.3626	87.706774	0.000486	4.863266	1.647719	0.000195
 438	4.3481e+01	17.3995	87.888445	0.000456	4.559312	1.544737	0.000183
 439	4.3581e+01	17.4316	88.074153	0.000466	4.660630	1.579064	0.000187
 440	4.3681e+01	17.4797	88.227564	0.000385	3.850085	1.304444	0.000154
 441	4.3780e+01	17.5198	88.429421	0.000507	5.065902	1.716374	0.000203
 442	4.3880e+01	17.5599	88.586869	0.000395	3.951403	1.338772	0.000158
 443	4.3979e+01	17.5952	88.776615	0.000476	4.761948	1.613392	0.000191
 444	4.4078e+01	17.6321	88.921952	0.000365	3.647449	1.235789	0.000146
 445	4.4178e+01	17.6802	89.131883	0.000527	5.268538	1.785029	0.000211
 446	4.4278e+01	17.7139	89.309517	0.000446	4.457994	1.510409	0.000179
 447	4.4377e+01	17.7573	89.471002	0.000405	4.052721	1.373099	0.000162
 448	4.4477e+01	17.7958	89.676896	0.000517	5.167220	1.750701	0.000207
 449	4.4576e+01	17.8423	89.862604	0.000466	4.660630	1.579064	0.000187
 450	4.4675e+01	17.8744	90.016016	0.000385	3.850085	1.304444	0.000154
 451	4.4775e+01	17.9193	90.189612	0.000436	4.356676	1.476082	0.000174
 452	4.4874e+01	17.9498	90.379358	0.000476	4.761948	1.613392	0.000191
 453	4.4974e+01	17.9867	90.569103	0.000476	4.761948	1.613392	0.000191
 454	4.5074e+01	18.0444	90.714440	0.000365	3.647449	1.235789	0.000146
 455	4.5173e+01	18.0733	90.904185	0.000476	4.761948	1.613392	0.000191
 456	4.5273e+01	18.1214	91.097968	0.000486	4.863266	1.647719	0.000195
 457	4.5372e+01	18.1551	91.283676	0.000466	4.660630	1.579064	0.000187
 458	4.5471e+01	18.1920	91.416902	0.000334	3.343495	1.132807	0.000134
 459	4.5571e+01	18.2321	91.582424	0.000415	4.154039	1.407427	0.000166
 460	4.5670e+01	18.2754	91.772170	0.000476	4.761948	1.613392	0.000191
 461	4.5770e+01	18.3155	91.961915	0.000476	4.761948	1.613392	0.000191
 462	4.5870e+01	18.3572	92.111289	0.000375	3.748767	1.270117	0.000150
 463	4.5969e+01	18.3973	92.301034	0.000476	4.761948	1.613392	0.000191
 464	4.6069e+01	18.4342	92.490780	0.000476	4.761948	1.613392	0.000191
 465	4.6168e+01	18.4679	92.628042	0.000344	3.444813	1.167134	0.000138
 466	4.6267e+01	18.5128	92.801639	0.000436	4.356676	1.476082	0.000174
 467	4.6367e+01	18.5481	92.983310	0.000456	4.559312	1.544737	0.000183
 468	4.6467e+01	18.5947	93.185167	0.000507	5.065902	1.716374	0.000203
 469	4.6566e+01	18.6300	93.350690	0.000415	4.154039	1.407427	0.000166
 470	4.6666e+01	18.6733	93.548509	0.000496	4.964584	1.682047	0.000199
 471	4.6765e+01	18.7182	93.665586	0.000294	2.938223	0.995497	0.000118
 472	4.6864e+01	18.7567	93.847257	0.000456	4.559312	1.544737	0.000183
 473	4.6964e+01	18.7952	94.028928	0.000456	4.559312	1.544737	0.000183
 474	4.7063e+01	18.8337	94.202525	0.000436	4.356676	1.476082	0.000174
 475	4.7163e+01	18.8722	94.384196	0.000456	4.559312	1.544737	0.000183
 476	4.7263e+01	18.9027	94.541645	0.000395	3.951403	1.338772	0.000158
 477	4.7362e+01	18.9476	94.731390	0.000476	4.761948	1.613392	0.000191
 478	4.7462e+01	19.0005	94.900950	0.000426	4.255358	1.441754	0.000170
 479	4.7561e+01	19.0278	95.070509	0.000426	4.255358	1.441754	0.000170
 480	4.7660e+01	19.0775	95.284478	0.000537	5.369856	1.819356	0.000215
 481	4.7760e+01	19.1096	95.413666	0.000324	3.242177	1.098479	0.000130
 482	4.7859e+01	19.1497	95.595337	0.000456	4.559312	1.544737	0.000183
 483	4.7959e+01	19.1914	95.768934	0.000436	4.356676	1.476082	0.000174
 484	4.8059e+01	19.2380	95.934457	0.000415	4.154039	1.407427	0.000166
 485	4.8158e+01	19.2668	96.160536	0.000567	5.673810	1.922339	0.000227
 486	4.8258e+01	19.3262	96.317984	0.000395	3.951403	1.338772	0.000158
 487	4.8357e+01	19.3470	96.499656	0.000456	4.559312	1.544737	0.000183
 488	4.8456e+01	19.3904	96.665178	0.000415	4.154039	1.407427	0.000166
 489	4.8556e+01	19.4369	96.842812	0.000446	4.457994	1.510409	0.000179
 490	4.8656e+01	19.4722	97.008335	0.000415	4.154039	1.407427	0.000166
 491	4.8755e+01	19.5059	97.173857	0.000415	4.154039	1.407427	0.000166
 492	4.8855e+01	19.5460	97.335343	0.000405	4.052721	1.373099	0.000162
 493	4.8954e+01	19.5877	97.561422	0.000567	5.673810	1.922339	0.000227
 494	4.9053e+01	19.6230	97.682536	0.000304	3.039541	1.029824	0.000122
 495	4.9153e+01	19.6663	97.876319	0.000486	4.863266	1.647719	0.000195
 496	4.9252e+01	19.7048	97.993396	0.000294	2.938223	0.995497	0.000118
 497	4.9352e+01	19.7433	98.251772	0.000648	6.484354	2.196959	0.000260
 498	4.9452e+01	19.7834	98.389035	0.000344	3.444813	1.167134	0.000138
 499	4.9551e+01	19.8251	98.578780	0.000476	4.761948	1.613392	0.000191
 500	4.9651e+01	19.8652	98.748340	0.000426	4.255358	1.441754	0.000170
 501	4.9750e+01	19.9005	98.897714	0.000375	3.748767	1.270117	0.000150
 502	4.9849e+01	19.9534	99.059200	0.000405	4.052721	1.373099	0.000162
 503	4.9949e+01	19.9903	99.228759	0.000426	4.255358	1.441754	0.000170
 504	5.0048e+01	19.9438	99.156091	0.000182	1.823725	0.617895	-0.000073
 505	5.0148e+01	19.9021	99.071311	0.000213	2.127679	0.720877	-0.000085
 506	5.0248e+01	19.8700	98.970383	0.000253	2.532951	0.858187	-0.000101
 507	5.0347e+01	19.8267	98.841194	0.000324	3.242177	1.098479	-0.000130
 508	5.0447e+01	19.7898	98.752377	0.000223	2.228997	0.755205	-0.000089
 509	5.0546e+01	19.7385	98.603003	0.000375	3.748767	1.270117	-0.000150
 510	5.0645e+01	19.7112	98.534372	0.000172	1.722407	0.583567	-0.000069
 511	5.0745e+01	19.6743	98.437481	0.000243	2.431633	0.823860	-0.000097
 512	5.0844e+01	19.6326	98.280032	0.000395	3.951403	1.338772	-0.000158
 513	5.0944e+01	19.5797	98.223513	0.000142	1.418453	0.480585	-0.000057
 514	5.1044e+01	19.5524	98.074138	0.000375	3.748767	1.270117	-0.000150
 515	5.1143e+01	19.5091	97.989359	0.000213	2.127679	0.720877	-0.000085
 516	5.1242e+01	19.4690	97.827873	0.000405	4.052721	1.373099	-0.000162
 517	5.1342e+01	19.4321	97.718871	0.000274	2.735587	0.926842	-0.000110
 518	5.1441e+01	19.3904	97.581608	0.000344	3.444813	1.167134	-0.000138
 519	5.1541e+01	19.3535	97.460494	0.000304	3.039541	1.029824	-0.000122
 520	5.1641e+01	19.3118	97.387825	0.000182	1.823725	0.617895	-0.000073
 521	5.1740e+01	19.2700	97.254600	0.000334	3.343495	1.132807	-0.000134
 522	5.1840e+01	19.2235	97.121374	0.000334	3.343495	1.132807	-0.000134
 523	5.1939e+01	19.1802	96.980075	0.000355	3.546131	1.201462	-0.000142
 524	5.2038e+01	19.1577	96.871072	0.000274	2.735587	0.926842	-0.000110
 525	5.2138e+01	19.1048	96.713624	0.000395	3.951403	1.338772	-0.000158
 526	5.2237e+01	19.0711	96.628844	0.000213	2.127679	0.720877	-0.000085
 527	5.2337e+01	19.0342	96.495618	0.000334	3.343495	1.132807	-0.000134
 528	5.2437e+01	18.9941	96.326059	0.000426	4.255358	1.441754	-0.000170
 529	5.2536e+01	18.9556	96.229167	0.000243	2.431633	0.823860	-0.000097
 530	5.2636e+01	18.9123	96.087868	0.000355	3.546131	1.201462	-0.000142
 531	5.2735e+01	18.8786	95.950605	0.000344	3.444813	1.167134	-0.000138
 532	5.2834e+01	18.8385	95.833528	0.000294	2.938223	0.995497	-0.000118
 533	5.2934e+01	18.7952	95.676080	0.000395	3.951403	1.338772	-0.000158
 534	5.3033e+01	18.7519	95.571114	0.000263	2.634269	0.892514	-0.000105
 535	5.3133e+01	18.7150	95.405592	0.000415	4.154039	1.407427	-0.000166
 536	5.3233e+01	18.6797	95.320812	0.000213	2.127679	0.720877	-0.000085
 537	5.3332e+01	18.6332	95.171438	0.000375	3.748767	1.270117	-0.000150
 538	5.3431e+01	18.5963	95.030138	0.000355	3.546131	1.201462	-0.000142
 539	5.3531e+01	18.5513	94.913061	0.000294	2.938223	0.995497	-0.000118
 540	5.3630e+01	18.5193	94.779836	0.000334	3.343495	1.132807	-0.000134
 541	5.3730e+01	18.4759	94.638536	0.000355	3.546131	1.201462	-0.000142
 542	5.3830e+01	18.4358	94.505310	0.000334	3.343495	1.132807	-0.000134
 543	5.3929e+01	18.3893	94.368048	0.000344	3.444813	1.167134	-0.000138
 544	5.4029e+01	18.3572	94.246934	0.000304	3.039541	1.029824	-0.000122
 545	5.4128e+01	18.3171	94.113708	0.000334	3.343495	1.132807	-0.000134
 546	5.4227e+01	18.2818	93.972409	0.000355	3.546131	1.201462	-0.000142
 547	5.4327e+01	18.2369	93.827072	0.000365	3.647449	1.235789	-0.000146
 548	5.4426e+01	18.1952	93.669623	0.000395	3.951403	1.338772	-0.000158
 549	5.4526e+01	18.1519	93.584844	0.000213	2.127679	0.720877	-0.000085
 550	5.4626e+01	18.1086	93.399135	0.000466	4.660630	1.579064	-0.000187
 551	5.4725e+01	18.0749	93.302244	0.000243	2.431633	0.823860	-0.000097
 552	5.4825e+01	18.0412	93.181130	0.000304	3.039541	1.029824	-0.000122
 553	5.4924e+01	17.9947	93.019645	0.000405	4.052721	1.373099	-0.000162
 554	5.5023e+01	17.9482	92.874308	0.000365	3.647449	1.235789	-0.000146
 555	5.5123e+01	17.9193	92.753194	0.000304	3.039541	1.029824	-0.000122
 556	5.5222e+01	17.8712	92.591708	0.000405	4.052721	1.373099	-0.000162
 557	5.5322e+01	17.8455	92.502891	0.000223	2.228997	0.755205	-0.000089
 558	5.5422e+01	17.8038	92.345443	0.000395	3.951403	1.338772	-0.000158
 559	5.5521e+01	17.7589	92.224329	0.000304	3.039541	1.029824	-0.000122
 560	5.5620e+01	17.7123	92.042658	0.000456	4.559312	1.544737	-0.000183
 561	5.5720e+01	17.6786	91.917506	0.000314	3.140859	1.064152	-0.000126
 562	5.5819e+01	17.6305	91.788318	0.000324	3.242177	1.098479	-0.000130
 563	5.5919e+01	17.5984	91.663167	0.000314	3.140859	1.064152	-0.000126
 564	5.6019e+01	17.5551	91.517830	0.000365	3.647449	1.235789	-0.000146
 565	5.6118e+01	17.5166	91.384605	0.000334	3.343495	1.132807	-0.000134
 566	5.6218e+01	17.4813	91.211008	0.000436	4.356676	1.476082	-0.000174
 567	5.6317e+01	17.4332	91.089894	0.000304	3.039541	1.029824	-0.000122
 568	5.6416e+01	17.4011	90.908223	0.000456	4.559312	1.544737	-0.000183
 569	5.6516e+01	17.3530	90.779034	0.000324	3.242177	1.098479	-0.000130
 570	5.6615e+01	17.3145	90.613512	0.000415	4.154039	1.407427	-0.000166
 571	5.6715e+01	17.2840	90.488360	0.000314	3.140859	1.064152	-0.000126
 572	5.6815e+01	17.2439	90.330912	0.000395	3.951403	1.338772	-0.000158
 573	5.6914e+01	17.2022	90.209798	0.000304	3.039541	1.029824	-0.000122
 574	5.7014e+01	17.1541	90.084647	0.000314	3.140859	1.064152	-0.000126
 575	5.7113e+01	17.1188	89.915087	0.000426	4.255358	1.441754	-0.000170
 576	5.7212e+01	17.0803	89.806084	0.000274	2.735587	0.926842	-0.000110
 577	5.7312e+01	17.0321	89.620376	0.000466	4.660630	1.579064	-0.000187
 578	5.7411e+01	17.0017	89.519448	0.000253	2.532951	0.858187	-0.000101
 579	5.7511e+01	16.9616	89.345851	0.000436	4.356676	1.476082	-0.000174
 580	5.7611e+01	16.9102	89.196477	0.000375	3.748767	1.270117	-0.000150
 581	5.7710e+01	16.8765	89.043066	0.000385	3.850085	1.304444	-0.000154
 582	5.7809e+01	16.8316	88.901766	0.000355	3.546131	1.201462	-0.000142
 583	5.7909e+01	16.7995	88.784689	0.000294	2.938223	0.995497	-0.000118
 584	5.8008e+01	16.7594	88.659538	0.000314	3.140859	1.064152	-0.000126
 585	5.8108e+01	16.7129	88.481904	0.000446	4.457994	1.510409	-0.000179
 586	5.8208e+01	16.6808	88.320419	0.000405	4.052721	1.373099	-0.000162
 587	5.8307e+01	16.6471	88.150859	0.000426	4.255358	1.441754	-0.000170
 588	5.8407e+01	16.6006	88.025708	0.000314	3.140859	1.064152	-0.000126
 589	5.8506e+01	16.5573	87.904594	0.000304	3.039541	1.029824	-0.000122
 590	5.8605e+01	16.5188	87.718885	0.000466	4.660630	1.579064	-0.000187
 591	5.8705e+01	16.4803	87.577586	0.000355	3.546131	1.201462	-0.000142
 592	5.8804e+01	16.4434	87.460509	0.000294	2.938223	0.995497	-0.000118
 593	5.8904e+01	16.3953	87.282875	0.000446	4.457994	1.510409	-0.000179
 594	5.9004e+01	16.3584	87.194058	0.000223	2.228997	0.755205	-0.000089
 595	5.9103e+01	16.3150	87.032572	0.000405	4.052721	1.373099	-0.000162
 596	5.9203e+01	16.2846	86.895310	0.000344	3.444813	1.167134	-0.000138
 597	5.9302e+01	16.2445	86.725750	0.000426	4.255358	1.441754	-0.000170
 598	5.9401e+01	16.1931	86.588487	0.000344	3.444813	1.167134	-0.000138
 599	5.9501e+01	16.1530	86.435076	0.000385	3.850085	1.304444	-0.000154
 600	5.9600e+01	16.1193	86.313962	0.000304	3.039541	1.029824	-0.000122
 601	5.9700e+01	16.0824	86.144402	0.000426	4.255358	1.441754	-0.000170
 602	5.9800e+01	16.0455	85.986954	0.000395	3.951403	1.338772	-0.000158
 603	5.9899e+01	16.0038	85.853729	0.000334	3.343495	1.132807	-0.000134
 604	5.9998e+01	15.9573	85.712429	0.000355	3.546131	1.201462	-0.000142
 605	6.0098e+01	15.9300	85.559018	0.000385	3.850085	1.304444	-0.000154
 606	6.0197e+01	15.8851	85.429829	0.000324	3.242177	1.098479	-0.000130
 607	6.0297e+01	15.8354	85.296604	0.000334	3.343495	1.132807	-0.000134
 608	6.0397e+01	15.8033	85.118970	0.000446	4.457994	1.510409	-0.000179
 609	6.0496e+01	15.7664	84.973633	0.000365	3.647449	1.235789	-0.000146
 610	6.0596e+01	15.7215	84.844445	0.000324	3.242177	1.098479	-0.000130
 611	6.0695e+01	15.6926	84.707182	0.000344	3.444813	1.167134	-0.000138
 612	6.0794e+01	15.6445	84.521474	0.000466	4.660630	1.579064	-0.000187
 613	6.0894e+01	15.6044	84.408434	0.000284	2.836905	0.961169	-0.000114
 614	6.0993e+01	15.5675	84.250986	0.000395	3.951403	1.338772	-0.000158
 615	6.1093e+01	15.5322	84.125835	0.000314	3.140859	1.064152	-0.000126
 616	6.1193e+01	15.4792	83.944163	0.000456	4.559312	1.544737	-0.000183
 617	6.1292e+01	15.4359	83.827086	0.000294	2.938223	0.995497	-0.000118
 618	6.1392e+01	15.4119	83.633304	0.000486	4.863266	1.647719	-0.000195
 619	6.1491e+01	15.3653	83.528338	0.000263	2.634269	0.892514	-0.000105
 620	6.1590e+01	15.3220	83.338593	0.000476	4.761948	1.613392	-0.000191
 621	6.1690e+01	15.2739	83.213442	0.000314	3.140859	1.064152	-0.000126
 622	6.1789e+01	15.2402	83.076179	0.000344	3.444813	1.167134	-0.000138
 623	6.1889e+01	15.2081	82.886434	0.000476	4.761948	1.613392	-0.000191
 624	6.1989e+01	15.1600	82.777431	0.000274	2.735587	0.926842	-0.000110
 625	6.2088e+01	15.1199	82.624020	0.000385	3.850085	1.304444	-0.000154
 626	6.2188e+01	15.0910	82.438312	0.000466	4.660630	1.579064	-0.000187
 627	6.2287e+01	15.0477	82.268752	0.000426	4.255358	1.441754	-0.000170
 628	6.2386e+01	15.0076	82.159749	0.000274	2.735587	0.926842	-0.000110
 629	6.2486e+01	14.9659	81.978078	0.000456	4.559312	1.544737	-0.000183
 630	6.2586e+01	14.9290	81.836779	0.000355	3.546131	1.201462	-0.000142
 631	6.2685e+01	14.8889	81.683367	0.000385	3.850085	1.304444	-0.000154
 632	6.2785e+01	14.8488	81.566290	0.000294	2.938223	0.995497	-0.000118
 633	6.2884e+01	14.8087	81.356359	0.000527	5.268538	1.785029	-0.000211
 634	6.2983e+01	14.7686	81.215060	0.000355	3.546131	1.201462	-0.000142
 635	6.3083e+01	14.7253	81.077797	0.000344	3.444813	1.167134	-0.000138
 636	6.3182e+01	14.6884	80.916312	0.000405	4.052721	1.373099	-0.000162
 637	6.3282e+01	14.6434	80.791160	0.000314	3.140859	1.064152	-0.000126
 638	6.3382e+01	14.6049	80.613526	0.000446	4.457994	1.510409	-0.000179
 639	6.3481e+01	14.5664	80.443967	0.000426	4.255358	1.441754	-0.000170
 640	6.3581e+01	14.5343	80.310741	0.000334	3.343495	1.132807	-0.000134
 641	6.3680e+01	14.4814	80.169441	0.000355	3.546131	1.201462	-0.000142
 642	6.3779e+01	14.4493	79.999882	0.000426	4.255358	1.441754	-0.000170
 643	6.3879e+01	14.4060	79.822248	0.000446	4.457994	1.510409	-0.000179
 644	6.3978e+01	14.3707	79.701134	0.000304	3.039541	1.029824	-0.000122
 645	6.4078e+01	14.3242	79.547723	0.000385	3.850085	1.304444	-0.000154
 646	6.4177e+01	14.2825	79.402386	0.000365	3.647449	1.235789	-0.000146
 647	6.4277e+01	14.2488	79.208603	0.000486	4.863266	1.647719	-0.000195
 648	6.4376e+01	14.2023	79.067303	0.000355	3.546131	1.201462	-0.000142
 649	6.4476e+01	14.1670	78.901781	0.000415	4.154039	1.407427	-0.000166
 650	6.4576e+01	14.1253	78.748370	0.000385	3.850085	1.304444	-0.000154
 651	6.4675e+01	14.0948	78.598996	0.000375	3.748767	1.270117	-0.000150
 652	6.4775e+01	14.0515	78.425399	0.000436	4.356676	1.476082	-0.000174
 653	6.4874e+01	14.0178	78.296211	0.000324	3.242177	1.098479	-0.000130
 654	6.4974e+01	13.9745	78.122614	0.000436	4.356676	1.476082	-0.000174
 655	6.5073e+01	13.9247	77.973240	0.000375	3.748767	1.270117	-0.000150
 656	6.5172e+01	13.8846	77.795606	0.000446	4.457994	1.510409	-0.000179
 657	6.5272e+01	13.8558	77.670454	0.000314	3.140859	1.064152	-0.000126
 658	6.5371e+01	13.8124	77.468598	0.000507	5.065902	1.716374	-0.000203
 659	6.5471e+01	13.7707	77.323261	0.000365	3.647449	1.235789	-0.000146
 660	6.5570e+01	13.7338	77.177924	0.000365	3.647449	1.235789	-0.000146
 661	6.5670e+01	13.6905	76.980104	0.000496	4.964584	1.682047	-0.000199
 662	6.5769e+01	13.6488	76.875139	0.000263	2.634269	0.892514	-0.000105
 663	6.5869e+01	13.6087	76.729802	0.000365	3.647449	1.235789	-0.000146
 664	6.5969e+01	13.5734	76.519871	0.000527	5.268538	1.785029	-0.000211
 665	6.6068e+01	13.5237	76.382608	0.000344	3.444813	1.167134	-0.000138
 666	6.6168e+01	13.4980	76.204974	0.000446	4.457994	1.510409	-0.000179
 667	6.6267e+01	13.4515	76.059637	0.000365	3.647449	1.235789	-0.000146
 668	6.6367e+01	13.4210	75.877966	0.000456	4.559312	1.544737	-0.000183
 669	6.6466e+01	13.3793	75.712444	0.000415	4.154039	1.407427	-0.000166
 670	6.6566e+01	13.3296	75.546921	0.000415	4.154039	1.407427	-0.000166
 671	6.6665e+01	13.2895	75.377361	0.000426	4.255358	1.441754	-0.000170
 672	6.6764e+01	13.2526	75.240099	0.000344	3.444813	1.167134	-0.000138
 673	6.6864e+01	13.2076	75.082650	0.000395	3.951403	1.338772	-0.000158
 674	6.6963e+01	13.1691	74.921165	0.000405	4.052721	1.373099	-0.000162
 675	6.7063e+01	13.1242	74.735457	0.000466	4.660630	1.579064	-0.000187
 676	6.7162e+01	13.0905	74.582046	0.000385	3.850085	1.304444	-0.000154
 677	6.7262e+01	13.0520	74.452857	0.000324	3.242177	1.098479	-0.000130
 678	6.7362e+01	13.0023	74.303483	0.000375	3.748767	1.270117	-0.000150
 679	6.7461e+01	12.9654	74.101626	0.000507	5.065902	1.716374	-0.000203
 680	6.7561e+01	12.9269	73.952252	0.000375	3.748767	1.270117	-0.000150
 681	6.7660e+01	12.8932	73.806916	0.000365	3.647449	1.235789	-0.000146
 682	6.7760e+01	12.8547	73.637356	0.000426	4.255358	1.441754	-0.000170
 683	6.7859e+01	12.8082	73.451648	0.000466	4.660630	1.579064	-0.000187
 684	6.7959e+01	12.7745	73.306311	0.000365	3.647449	1.235789	-0.000146
 685	6.8058e+01	12.7360	73.112528	0.000486	4.863266	1.647719	-0.000195
 686	6.8157e+01	12.6911	72.967191	0.000365	3.647449	1.235789	-0.000146
 687	6.8257e+01	12.6558	72.793594	0.000436	4.356676	1.476082	-0.000174
 688	6.8356e+01	12.6141	72.628072	0.000415	4.154039	1.407427	-0.000166
 689	6.8456e+01	12.5724	72.426215	0.000507	5.065902	1.716374	-0.000203
 690	6.8555e+01	12.5435	72.288953	0.000344	3.444813	1.167134	-0.000138
 691	6.8655e+01	12.4970	72.103244	0.000466	4.660630	1.579064	-0.000187
 692	6.8754e+01	12.4521	71.913499	0.000476	4.761948	1.613392	-0.000191
 693	6.8854e+01	12.4184	71.800459	0.000284	2.836905	0.961169	-0.000114
 694	6.8954e+01	12.3751	71.594565	0.000517	5.167220	1.750701	-0.000207
 695	6.9053e+01	12.3333	71.412894	0.000456	4.559312	1.544737	-0.000183
 696	6.9153e+01	12.2980	71.247372	0.000415	4.154039	1.407427	-0.000166
 697	6.9252e+01	12.2612	71.106072	0.000355	3.546131	1.201462	-0.000142
 698	6.9352e+01	12.2210	70.904215	0.000507	5.065902	1.716374	-0.000203
 699	6.9451e+01	12.1729	70.746767	0.000395	3.951403	1.338772	-0.000158
 700	6.9550e+01	12.1376	70.597393	0.000375	3.748767	1.270117	-0.000150
 701	6.9650e+01	12.1023	70.395536	0.000507	5.065902	1.716374	-0.000203
 702	6.9749e+01	12.0542	70.250199	0.000365	3.647449	1.235789	-0.000146
 703	6.9849e+01	12.0125	70.084676	0.000415	4.154039	1.407427	-0.000166
 704	6.9948e+01	11.9804	69.903005	0.000456	4.559312	1.544737	-0.000183
 705	7.0048e+01	11.9371	69.717297	0.000466	4.660630	1.579064	-0.000187
 706	7.0147e+01	11.9002	69.543700	0.000436	4.356676	1.476082	-0.000174
 707	7.0247e+01	11.8537	69.378178	0.000415	4.154039	1.407427	-0.000166
 708	7.0347e+01	11.8216	69.192469	0.000466	4.660630	1.579064	-0.000187
 709	7.0446e+01	11.7847	69.030984	0.000405	4.052721	1.373099	-0.000162
 710	7.0546e+01	11.7366	68.873536	0.000395	3.951403	1.338772	-0.000158
 711	7.0645e+01	11.7013	68.708013	0.000415	4.154039	1.407427	-0.000166
 712	7.0745e+01	11.6644	68.502119	0.000517	5.167220	1.750701	-0.000207
 713	7.0844e+01	11.6259	68.320448	0.000456	4.559312	1.544737	-0.000183
 714	7.0944e+01	11.5794	68.175111	0.000365	3.647449	1.235789	-0.000146
 715	7.1043e+01	11.5425	68.058034	0.000294	2.938223	0.995497	-0.000118
 716	7.1142e+01	11.4943	67.811769	0.000618	6.180400	2.093976	-0.000248
 717	7.1242e+01	11.4687	67.650284	0.000405	4.052721	1.373099	-0.000162
 718	7.1341e+01	11.4318	67.472650	0.000446	4.457994	1.510409	-0.000179
 719	7.1441e+01	11.3756	67.295016	0.000446	4.457994	1.510409	-0.000179
 720	7.1540e+01	11.3419	67.129493	0.000415	4.154039	1.407427	-0.000166
 721	7.1640e+01	11.3018	66.951859	0.000446	4.457994	1.510409	-0.000179
 722	7.1740e+01	11.2569	66.802485	0.000375	3.748767	1.270117	-0.000150
 723	7.1839e+01	11.2232	66.584480	0.000547	5.471174	1.853684	-0.000219
 724	7.1939e+01	11.1911	66.422994	0.000405	4.052721	1.373099	-0.000162
 725	7.2038e+01	11.1430	66.253435	0.000426	4.255358	1.441754	-0.000170
 726	7.2138e+01	11.1077	66.059652	0.000486	4.863266	1.647719	-0.000195
 727	7.2237e+01	11.0628	65.890092	0.000426	4.255358	1.441754	-0.000170
 728	7.2337e+01	11.0243	65.704384	0.000466	4.660630	1.579064	-0.000187
 729	7.2436e+01	10.9794	65.542899	0.000405	4.052721	1.373099	-0.000162
 730	7.2535e+01	10.9457	65.369302	0.000436	4.356676	1.476082	-0.000174
 731	7.2635e+01	10.8943	65.219928	0.000375	3.748767	1.270117	-0.000150
 732	7.2734e+01	10.8558	64.993848	0.000567	5.673810	1.922339	-0.000227
 733	7.2834e+01	10.8189	64.848511	0.000365	3.647449	1.235789	-0.000146
 734	7.2933e+01	10.7869	64.707212	0.000355	3.546131	1.201462	-0.000142
 735	7.3033e+01	10.7435	64.464983	0.000608	6.079082	2.059649	-0.000243
 736	7.3132e+01	10.7018	64.331758	0.000334	3.343495	1.132807	-0.000134
 737	7.3232e+01	10.6649	64.105678	0.000567	5.673810	1.922339	-0.000227
 738	7.3332e+01	10.6248	63.940156	0.000415	4.154039	1.407427	-0.000166
 739	7.3431e+01	10.5960	63.766559	0.000436	4.356676	1.476082	-0.000174
 740	7.3531e+01	10.5414	63.605074	0.000405	4.052721	1.373099	-0.000162
 741	7.3630e+01	10.5061	63.387068	0.000547	5.471174	1.853684	-0.000219
 742	7.3730e+01	10.4580	63.241731	0.000365	3.647449	1.235789	-0.000146
 743	7.3829e+01	10.4291	63.060060	0.000456	4.559312	1.544737	-0.000183
 744	7.3928e+01	10.3906	62.858203	0.000507	5.065902	1.716374	-0.000203
 745	7.4028e+01	10.3441	62.688644	0.000426	4.255358	1.441754	-0.000170
 746	7.4127e+01	10.3088	62.519084	0.000426	4.255358	1.441754	-0.000170
 747	7.4227e+01	10.2671	62.345487	0.000436	4.356676	1.476082	-0.000174
 748	7.4326e+01	10.2222	62.131519	0.000537	5.369856	1.819356	-0.000215
 749	7.4426e+01	10.1869	61.982145	0.000375	3.748767	1.270117	-0.000150
 750	7.4525e+01	10.1404	61.800474	0.000456	4.559312	1.544737	-0.000183
 751	7.4625e+01	10.1035	61.582469	0.000547	5.471174	1.853684	-0.000219
 752	7.4725e+01	10.0634	61.420983	0.000405	4.052721	1.373099	-0.000162
 753	7.4824e+01	10.0168	61.231238	0.000476	4.761948	1.613392	-0.000191
 754	7.4924e+01	9.9831	61.041492	0.000476	4.761948	1.613392	-0.000191
 755	7.5023e+01	9.9414	60.908267	0.000334	3.343495	1.132807	-0.000134
 756	7.5123e+01	9.9061	60.710447	0.000496	4.964584	1.682047	-0.000199
 757	7.5222e+01	9.8628	60.536850	0.000436	4.356676	1.476082	-0.000174
 758	7.5322e+01	9.8307	60.343068	0.000486	4.863266	1.647719	-0.000195
 759	7.5421e+01	9.7922	60.125063	0.000547	5.471174	1.853684	-0.000219
 760	7.5520e+01	9.7489	59.971651	0.000385	3.850085	1.304444	-0.000154
 761	7.5620e+01	9.7056	59.794017	0.000446	4.457994	1.510409	-0.000179
 762	7.5719e+01	9.6655	59.563901	0.000578	5.775128	1.956666	-0.000231
 763	7.5819e+01	9.6254	59.418564	0.000365	3.647449	1.235789	-0.000146
 764	7.5918e+01	9.5933	59.244967	0.000436	4.356676	1.476082	-0.000174
 765	7.6018e+01	9.5484	59.059259	0.000466	4.660630	1.579064	-0.000187
 766	7.6118e+01	9.5019	58.877588	0.000456	4.559312	1.544737	-0.000183
 767	7.6217e+01	9.4698	58.659582	0.000547	5.471174	1.853684	-0.000219
 768	7.6317e+01	9.4265	58.502134	0.000395	3.951403	1.338772	-0.000158
 769	7.6416e+01	9.3880	58.328537	0.000436	4.356676	1.476082	-0.000174
 770	7.6516e+01	9.3431	58.130717	0.000496	4.964584	1.682047	-0.000199
 771	7.6615e+01	9.3046	57.957121	0.000436	4.356676	1.476082	-0.000174
 772	7.6715e+01	9.2757	57.779487	0.000446	4.457994	1.510409	-0.000179
 773	7.6814e+01	9.2292	57.593778	0.000466	4.660630	1.579064	-0.000187
 774	7.6913e+01	9.1906	57.408070	0.000466	4.660630	1.579064	-0.000187
 775	7.7013e+01	9.1457	57.222362	0.000466	4.660630	1.579064	-0.000187
 776	7.7112e+01	9.1072	57.012431	0.000527	5.268538	1.785029	-0.000211
 777	7.7212e+01	9.0703	56.859020	0.000385	3.850085	1.304444	-0.000154
 778	7.7311e+01	9.0350	56.669274	0.000476	4.761948	1.613392	-0.000191
 779	7.7411e+01	8.9853	56.532012	0.000344	3.444813	1.167134	-0.000138
 780	7.7510e+01	8.9404	56.318044	0.000537	5.369856	1.819356	-0.000215
 781	7.7610e+01	8.9067	56.112150	0.000517	5.167220	1.750701	-0.000207
 782	7.7710e+01	8.8746	55.926441	0.000466	4.660630	1.579064	-0.000187
 783	7.7809e+01	8.8281	55.740733	0.000466	4.660630	1.579064	-0.000187
 784	7.7909e+01	8.7896	55.542913	0.000496	4.964584	1.682047	-0.000199
 785	7.8008e+01	8.7543	55.381428	0.000405	4.052721	1.373099	-0.000162
 786	7.8108e+01	8.7142	55.228017	0.000385	3.850085	1.304444	-0.000154
 787	7.8207e+01	8.6661	54.997900	0.000578	5.775128	1.956666	-0.000231
 788	7.8306e+01	8.6292	54.783932	0.000537	5.369856	1.819356	-0.000215
 789	7.8406e+01	8.5923	54.614372	0.000426	4.255358	1.441754	-0.000170
 790	7.8505e+01	8.5554	54.469035	0.000365	3.647449	1.235789	-0.000146
 791	7.8605e+01	8.5056	54.226807	0.000608	6.079082	2.059649	-0.000243
 792	7.8704e+01	8.4768	54.065322	0.000405	4.052721	1.373099	-0.000162
 793	7.8804e+01	8.4302	53.819057	0.000618	6.180400	2.093976	-0.000248
 794	7.8903e+01	8.3933	53.665645	0.000385	3.850085	1.304444	-0.000154
 795	7.9003e+01	8.3532	53.475900	0.000476	4.761948	1.613392	-0.000191
 796	7.9103e+01	8.3083	53.286155	0.000476	4.761948	1.613392	-0.000191
 797	7.9202e+01	8.2778	53.088335	0.000496	4.964584	1.682047	-0.000199
 798	7.9302e+01	8.2345	52.922812	0.000415	4.154039	1.407427	-0.000166
 799	7.9401e+01	8.2008	52.720956	0.000507	5.065902	1.716374	-0.000203
 800	7.9501e+01	8.1479	52.543322	0.000446	4.457994	1.510409	-0.000179
 801	7.9600e+01	8.1158	52.369725	0.000436	4.356676	1.476082	-0.000174
 802	7.9700e+01	8.0693	52.107311	0.000659	6.585672	2.231286	-0.000264
 803	7.9799e+01	8.0388	51.913528	0.000486	4.863266	1.647719	-0.000195
 804	7.9898e+01	7.9939	51.776266	0.000344	3.444813	1.167134	-0.000138
 805	7.9998e+01	7.9554	51.562298	0.000537	5.369856	1.819356	-0.000215
 806	8.0097e+01	7.9169	51.368515	0.000486	4.863266	1.647719	-0.000195
 807	8.0197e+01	7.8688	51.198955	0.000426	4.255358	1.441754	-0.000170
 808	8.0296e+01	7.8367	50.956727	0.000608	6.079082	2.059649	-0.000243
 809	8.0396e+01	7.7902	50.775056	0.000456	4.559312	1.544737	-0.000183
 810	8.0496e+01	7.7645	50.593385	0.000456	4.559312	1.544737	-0.000183
 811	8.0595e+01	7.7132	50.391528	0.000507	5.065902	1.716374	-0.000203
 812	8.0695e+01	7.6746	50.169486	0.000557	5.572492	1.888011	-0.000223
 813	8.0794e+01	7.6378	49.975703	0.000486	4.863266	1.647719	-0.000195
 814	8.0894e+01	7.6041	49.810181	0.000415	4.154039	1.407427	-0.000166
 815	8.0993e+01	7.5640	49.563915	0.000618	6.180400	2.093976	-0.000248
 816	8.1093e+01	7.5222	49.366096	0.000496	4.964584	1.682047	-0.000199
 817	8.1192e+01	7.4773	49.196536	0.000426	4.255358	1.441754	-0.000170
 818	8.1291e+01	7.4404	49.026976	0.000426	4.255358	1.441754	-0.000170
 819	8.1391e+01	7.3939	48.808971	0.000547	5.471174	1.853684	-0.000219
 820	8.1490e+01	7.3602	48.631337	0.000446	4.457994	1.510409	-0.000179
 821	8.1590e+01	7.3201	48.401220	0.000578	5.775128	1.956666	-0.000231
 822	8.1689e+01	7.2784	48.195326	0.000517	5.167220	1.750701	-0.000207
 823	8.1789e+01	7.2303	48.049990	0.000365	3.647449	1.235789	-0.000146
 824	8.1888e+01	7.1982	47.803724	0.000618	6.180400	2.093976	-0.000248
 825	8.1988e+01	7.1581	47.609942	0.000486	4.863266	1.647719	-0.000195
 826	8.2088e+01	7.1132	47.424234	0.000466	4.660630	1.579064	-0.000187
 827	8.2187e+01	7.0715	47.222377	0.000507	5.065902	1.716374	-0.000203
 828	8.2287e+01	7.0378	47.040706	0.000456	4.559312	1.544737	-0.000183
 829	8.2386e+01	6.9961	46.822700	0.000547	5.471174	1.853684	-0.000219
 830	8.2486e+01	6.9576	46.632955	0.000476	4.761948	1.613392	-0.000191
 831	8.2585e+01	6.9158	46.447247	0.000466	4.660630	1.579064	-0.000187
 832	8.2684e+01	6.8822	46.225204	0.000557	5.572492	1.888011	-0.000223
 833	8.2784e+01	6.8388	46.035459	0.000476	4.761948	1.613392	-0.000191
 834	8.2883e+01	6.8019	45.837639	0.000496	4.964584	1.682047	-0.000199
 835	8.2983e+01	6.7522	45.615597	0.000557	5.572492	1.888011	-0.000223
 836	8.3082e+01	6.7185	45.393554	0.000557	5.572492	1.888011	-0.000223
 837	8.3182e+01	6.6720	45.187660	0.000517	5.167220	1.750701	-0.000207
 838	8.3281e+01	6.6383	45.054435	0.000334	3.343495	1.132807	-0.000134
 839	8.3381e+01	6.5950	44.787984	0.000669	6.686990	2.265614	-0.000268
 840	8.3481e+01	6.5581	44.602276	0.000466	4.660630	1.579064	-0.000187
 841	8.3580e+01	6.5244	44.396382	0.000517	5.167220	1.750701	-0.000207
 842	8.3680e+01	6.4763	44.194525	0.000507	5.065902	1.716374	-0.000203
 843	8.3779e+01	6.4378	44.008817	0.000466	4.660630	1.579064	-0.000187
 844	8.3879e+01	6.4009	43.798886	0.000527	5.268538	1.785029	-0.000211
 845	8.3978e+01	6.3576	43.580880	0.000547	5.471174	1.853684	-0.000219
 846	8.4078e+01	6.3223	43.374986	0.000517	5.167220	1.750701	-0.000207
 847	8.4177e+01	6.2758	43.201390	0.000436	4.356676	1.476082	-0.000174
 848	8.4276e+01	6.2292	42.979347	0.000557	5.572492	1.888011	-0.000223
 849	8.4376e+01	6.2020	42.757305	0.000557	5.572492	1.888011	-0.000223
 850	8.4475e+01	6.1570	42.555448	0.000507	5.065902	1.716374	-0.000203
 851	8.4575e+01	6.1234	42.345517	0.000527	5.268538	1.785029	-0.000211
 852	8.4674e+01	6.0833	42.127511	0.000547	5.471174	1.853684	-0.000219
 853	8.4774e+01	6.0351	41.925655	0.000507	5.065902	1.716374	-0.000203
 854	8.4874e+01	5.9950	41.703612	0.000557	5.572492	1.888011	-0.000223
 855	8.4973e+01	5.9661	41.461384	0.000608	6.079082	2.059649	-0.000243
 856	8.5073e+01	5.9228	41.279713	0.000456	4.559312	1.544737	-0.000183
 857	8.5172e+01	5.8811	41.045559	0.000588	5.876446	1.990994	-0.000235
 858	8.5272e+01	5.8458	40.863888	0.000456	4.559312	1.544737	-0.000183
 859	8.5371e+01	5.8009	40.657994	0.000517	5.167220	1.750701	-0.000207
 860	8.5471e+01	5.7624	40.395580	0.000659	6.585672	2.231286	-0.000264
 861	8.5570e+01	5.7191	40.205835	0.000476	4.761948	1.613392	-0.000191
 862	8.5669e+01	5.6854	39.999941	0.000517	5.167220	1.750701	-0.000207
 863	8.5769e+01	5.6389	39.802121	0.000496	4.964584	1.682047	-0.000199
 864	8.5868e+01	5.6084	39.559893	0.000608	6.079082	2.059649	-0.000243
 865	8.5968e+01	5.5699	39.353999	0.000517	5.167220	1.750701	-0.000207
 866	8.6067e+01	5.5250	39.140031	0.000537	5.369856	1.819356	-0.000215
 867	8.6167e+01	5.4801	38.917989	0.000557	5.572492	1.888011	-0.000223
 868	8.6266e+01	5.4367	38.720169	0.000496	4.964584	1.682047	-0.000199
 869	8.6366e+01	5.4079	38.465829	0.000638	6.383036	2.162631	-0.000256
 870	8.6466e+01	5.3694	38.255898	0.000527	5.268538	1.785029	-0.000211
 871	8.6565e+01	5.3228	38.037893	0.000547	5.471174	1.853684	-0.000219
 872	8.6665e+01	5.2843	37.815850	0.000557	5.572492	1.888011	-0.000223
 873	8.6764e+01	5.2410	37.609957	0.000517	5.167220	1.750701	-0.000207
 874	8.6864e+01	5.1961	37.420211	0.000476	4.761948	1.613392	-0.000191
 875	8.6963e+01	5.1608	37.210280	0.000527	5.268538	1.785029	-0.000211
 876	8.7063e+01	5.1207	36.947866	0.000659	6.585672	2.231286	-0.000264
 877	8.7162e+01	5.0838	36.729861	0.000547	5.471174	1.853684	-0.000219
 878	8.7261e+01	5.0533	36.568376	0.000405	4.052721	1.373099	-0.000162
 879	8.7361e+01	5.0036	36.309999	0.000648	6.484354	2.196959	-0.000260
 880	8.7460e+01	4.9619	36.116216	0.000486	4.863266	1.647719	-0.000195
 881	8.7560e+01	4.9234	35.869951	0.000618	6.180400	2.093976	-0.000248
 882	8.7659e+01	4.8865	35.672131	0.000496	4.964584	1.682047	-0.000199
 883	8.7759e+01	4.8400	35.429903	0.000608	6.079082	2.059649	-0.000243
 884	8.7859e+01	4.8143	35.224009	0.000517	5.167220	1.750701	-0.000207
 885	8.7958e+01	4.7694	35.006004	0.000547	5.471174	1.853684	-0.000219
 886	8.8058e+01	4.7277	34.775887	0.000578	5.775128	1.956666	-0.000231
 887	8.8157e+01	4.6924	34.590179	0.000466	4.660630	1.579064	-0.000187
 888	8.8257e+01	4.6362	34.343914	0.000618	6.180400	2.093976	-0.000248
 889	8.8356e+01	4.6170	34.093611	0.000628	6.281718	2.128304	-0.000252
 890	8.8456e+01	4.5721	33.903866	0.000476	4.761948	1.613392	-0.000191
 891	8.8555e+01	4.5255	33.661638	0.000608	6.079082	2.059649	-0.000243
 892	8.8654e+01	4.4870	33.459781	0.000507	5.065902	1.716374	-0.000203
 893	8.8754e+01	4.4501	33.221590	0.000598	5.977764	2.025321	-0.000239
 894	8.8853e+01	4.4004	32.995510	0.000567	5.673810	1.922339	-0.000227
 895	8.8953e+01	4.3635	32.797691	0.000496	4.964584	1.682047	-0.000199
 896	8.9052e+01	4.3362	32.587760	0.000527	5.268538	1.785029	-0.000211
 897	8.9152e+01	4.2833	32.301123	0.000719	7.193581	2.437251	-0.000288
 898	8.9251e+01	4.2464	32.123489	0.000446	4.457994	1.510409	-0.000179
 899	8.9351e+01	4.2127	31.885298	0.000598	5.977764	2.025321	-0.000239
 900	8.9451e+01	4.1678	31.659218	0.000567	5.673810	1.922339	-0.000227
 901	8.9550e+01	4.1309	31.445250	0.000537	5.369856	1.819356	-0.000215
 902	8.9650e+01	4.0892	31.211096	0.000588	5.876446	1.990994	-0.000235
 903	8.9749e+01	4.0475	30.997128	0.000537	5.369856	1.819356	-0.000215
 904	8.9849e+01	4.0106	30.734714	0.000659	6.585672	2.231286	-0.000264
 905	8.9948e+01	3.9753	30.516709	0.000547	5.471174	1.853684	-0.000219
 906	9.0047e+01	3.9223	30.302741	0.000537	5.369856	1.819356	-0.000215
 907	9.0147e+01	3.8903	30.092810	0.000527	5.268538	1.785029	-0.000211
 908	9.0246e+01	3.8534	29.842507	0.000628	6.281718	2.128304	-0.000252
 909	9.0346e+01	3.8020	29.660836	0.000456	4.559312	1.544737	-0.000183
 910	9.0445e+01	3.7699	29.422645	0.000598	5.977764	2.025321	-0.000239
 911	9.0545e+01	3.7475	29.168306	0.000638	6.383036	2.162631	-0.000256
 912	9.0644e+01	3.6978	28.962412	0.000517	5.167220	1.750701	-0.000207
 913	9.0744e+01	3.6544	28.728258	0.000588	5.876446	1.990994	-0.000235
 914	9.0844e+01	3.6127	28.502178	0.000567	5.673810	1.922339	-0.000227
 915	9.0943e+01	3.5790	28.251876	0.000628	6.281718	2.128304	-0.000252
 916	9.1043e+01	3.5293	28.037908	0.000537	5.369856	1.819356	-0.000215
 917	9.1142e+01	3.5004	27.787605	0.000628	6.281718	2.128304	-0.000252
 918	9.1242e+01	3.4491	27.585748	0.000507	5.065902	1.716374	-0.000203
 919	9.1341e+01	3.4090	27.315260	0.000679	6.788308	2.299941	-0.000272
 920	9.1441e+01	3.3673	27.109366	0.000517	5.167220	1.750701	-0.000207
 921	9.1540e+01	3.3288	26.867138	0.000608	6.079082	2.059649	-0.000243
 922	9.1639e+01	3.2855	26.608762	0.000648	6.484354	2.196959	-0.000260
 923	9.1739e+01	3.2566	26.398831	0.000527	5.268538	1.785029	-0.000211
 924	9.1838e+01	3.2133	26.148528	0.000628	6.281718	2.128304	-0.000252
 925	9.1938e+01	3.1796	25.934560	0.000537	5.369856	1.819356	-0.000215
 926	9.2037e+01	3.1363	25.736740	0.000496	4.964584	1.682047	-0.000199
 927	9.2137e+01	3.0898	25.470289	0.000669	6.686990	2.265614	-0.000268
 928	9.2237e+01	3.0513	25.256321	0.000537	5.369856	1.819356	-0.000215
 929	9.2336e+01	3.0111	25.006019	0.000628	6.281718	2.128304	-0.000252
 930	9.2436e+01	2.9726	24.783976	0.000557	5.572492	1.888011	-0.000223
 931	9.2535e+01	2.9390	24.553860	0.000578	5.775128	1.956666	-0.000231
 932	9.2635e+01	2.8956	24.311631	0.000608	6.079082	2.059649	-0.000243
 933	9.2734e+01	2.8523	24.093626	0.000547	5.471174	1.853684	-0.000219
 934	9.2834e+01	2.8074	23.851398	0.000608	6.079082	2.059649	-0.000243
 935	9.2933e+01	2.7753	23.637430	0.000537	5.369856	1.819356	-0.000215
 936	9.3032e+01	2.7432	23.370979	0.000669	6.686990	2.265614	-0.000268
 937	9.3132e+01	2.6951	23.181233	0.000476	4.761948	1.613392	-0.000191
 938	9.3231e+01	2.6518	22.922857	0.000648	6.484354	2.196959	-0.000260
 939	9.3331e+01	2.6149	22.664480	0.000648	6.484354	2.196959	-0.000260
 940	9.3430e+01	2.5764	22.486846	0.000446	4.457994	1.510409	-0.000179
 941	9.3530e+01	2.5331	22.188098	0.000750	7.497535	2.540234	-0.000300
 942	9.3629e+01	2.4946	21.978167	0.000527	5.268538	1.785029	-0.000211
 943	9.3729e+01	2.4481	21.727865	0.000628	6.281718	2.128304	-0.000252
 944	9.3829e+01	2.4208	21.509859	0.000547	5.471174	1.853684	-0.000219
 945	9.3928e+01	2.3727	21.295891	0.000537	5.369856	1.819356	-0.000215
 946	9.4028e+01	2.3358	21.098071	0.000496	4.964584	1.682047	-0.000199
 947	9.4127e+01	2.2957	20.811435	0.000719	7.193581	2.437251	-0.000288
 948	9.4227e+01	2.2652	20.561132	0.000628	6.281718	2.128304	-0.000252
 949	9.4326e+01	2.2058	20.375424	0.000466	4.660630	1.579064	-0.000187
 950	9.4425e+01	2.1769	20.088787	0.000719	7.193581	2.437251	-0.000288
 951	9.4525e+01	2.1336	19.870782	0.000547	5.471174	1.853684	-0.000219
 952	9.4624e+01	2.0935	19.640665	0.000578	5.775128	1.956666	-0.000231
 953	9.4724e+01	2.0582	19.378252	0.000659	6.585672	2.231286	-0.000264
 954	9.4823e+01	2.0117	19.140061	0.000598	5.977764	2.025321	-0.000239
 955	9.4923e+01	1.9668	18.905907	0.000588	5.876446	1.990994	-0.000235
 956	9.5022e+01	1.9315	18.635419	0.000679	6.788308	2.299941	-0.000272
 957	9.5122e+01	1.9026	18.417413	0.000547	5.471174	1.853684	-0.000219
 958	9.5222e+01	1.8577	18.150962	0.000669	6.686990	2.265614	-0.000268
 959	9.5321e+01	1.8080	17.941031	0.000527	5.268538	1.785029	-0.000211
 960	9.5421e+01	1.7791	17.642283	0.000750	7.497535	2.540234	-0.000300
 961	9.5520e+01	1.7454	17.472723	0.000426	4.255358	1.441754	-0.000170
 962	9.5620e+01	1.7069	17.190124	0.000709	7.092263	2.402924	-0.000284
 963	9.5719e+01	1.6540	16.984230	0.000517	5.167220	1.750701	-0.000207
 964	9.5819e+01	1.6187	16.717779	0.000669	6.686990	2.265614	-0.000268
 965	9.5918e+01	1.5754	16.427105	0.000729	7.294899	2.471579	-0.000292
 966	9.6017e+01	1.5369	16.237360	0.000476	4.761948	1.613392	-0.000191
 967	9.6117e+01	1.5000	15.999169	0.000598	5.977764	2.025321	-0.000239
 968	9.6216e+01	1.4566	15.756941	0.000608	6.079082	2.059649	-0.000243
 969	9.6316e+01	1.4181	15.502601	0.000638	6.383036	2.162631	-0.000256
 970	9.6415e+01	1.3812	15.252299	0.000628	6.281718	2.128304	-0.000252
 971	9.6515e+01	1.3379	14.985848	0.000669	6.686990	2.265614	-0.000268
 972	9.6615e+01	1.3074	14.755731	0.000578	5.775128	1.956666	-0.000231
 973	9.6714e+01	1.2529	14.469094	0.000719	7.193581	2.437251	-0.000288
 974	9.6814e+01	1.2192	14.275312	0.000486	4.863266	1.647719	-0.000195
 975	9.6913e+01	1.1759	14.000787	0.000689	6.889626	2.334269	-0.000276
 976	9.7013e+01	1.1422	13.770670	0.000578	5.775128	1.956666	-0.000231
 977	9.7112e+01	1.1037	13.496145	0.000689	6.889626	2.334269	-0.000276
 978	9.7212e+01	1.0572	13.270065	0.000567	5.673810	1.922339	-0.000227
 979	9.7311e+01	1.0203	13.011688	0.000648	6.484354	2.196959	-0.000260
 980	9.7410e+01	0.9786	12.757349	0.000638	6.383036	2.162631	-0.000256
 981	9.7510e+01	0.9401	12.490898	0.000669	6.686990	2.265614	-0.000268
 982	9.7609e+01	0.9064	12.252707	0.000598	5.977764	2.025321	-0.000239
 983	9.7709e+01	0.8615	12.030664	0.000557	5.572492	1.888011	-0.000223
 984	9.7808e+01	0.8246	11.772288	0.000648	6.484354	2.196959	-0.000260
 985	9.7908e+01	0.7829	11.493725	0.000699	6.990944	2.368596	-0.000280
 986	9.8007e+01	0.7379	11.223237	0.000679	6.788308	2.299941	-0.000272
 987	9.8107e+01	0.6994	10.972935	0.000628	6.281718	2.128304	-0.000252
 988	9.8207e+01	0.6625	10.758967	0.000537	5.369856	1.819356	-0.000215
 989	9.8306e+01	0.6208	10.480404	0.000699	6.990944	2.368596	-0.000280
 990	9.8406e+01	0.5791	10.234139	0.000618	6.180400	2.093976	-0.000248
 991	9.8505e+01	0.5422	10.016134	0.000547	5.471174	1.853684	-0.000219
 992	9.8605e+01	0.4909	9.741609	0.000689	6.889626	2.334269	-0.000276
 993	9.8704e+01	0.4652	9.515529	0.000567	5.673810	1.922339	-0.000227
 994	9.8803e+01	0.4251	9.224855	0.000729	7.294899	2.471579	-0.000292
 995	9.8903e+01	0.3786	8.946293	0.000699	6.990944	2.368596	-0.000280
 996	9.9002e+01	0.3401	8.728287	0.000547	5.471174	1.853684	-0.000219
 997	9.9102e+01	0.3016	8.482022	0.000618	6.180400	2.093976	-0.000248
 998	9.9201e+01	0.2663	8.195386	0.000719	7.193581	2.437251	-0.000288
 999	9.9301e+01	0.2278	7.965269	0.000578	5.775128	1.956666	-0.000231
1000	9.9400e+01	0.1829	7.731115	0.000588	5.876446	1.990994	-0.000235
1001	9.9500e+01	0.1428	7.476775	0.000638	6.383036	2.162631	-0.000256
1002	9.9600e+01	0.1011	7.194176	0.000709	7.092263	2.402924	-0.000284
1003	9.9699e+01	0.0594	6.935799	0.000648	6.484354	2.196959	-0.000260
1004	9.9799e+01	0.0193	6.697608	0.000598	5.977764	2.025321	-0.000239
1005	9.9898e+01	-0.0080	6.471529	0.000567	5.673810	1.922339	-0.000227
1006	9.9998e+01	-0.0465	6.184892	0.000719	7.193581	2.437251	-0.000288
1007	1.0010e+02	-0.0882	5.934590	0.000628	6.281718	2.128304	-0.000252
1008	1.0020e+02	-0.1332	5.712547	0.000557	5.572492	1.888011	-0.000223
1009	1.0030e+02	-0.1733	5.450133	0.000659	6.585672	2.231286	-0.000264
1010	1.0040e+02	-0.2037	5.195794	0.000638	6.383036	2.162631	-0.000256
1011	1.0050e+02	-0.2567	4.929343	0.000669	6.686990	2.265614	-0.000268
1012	1.0059e+02	-0.2791	4.646743	0.000709	7.092263	2.402924	-0.000284
1013	1.0069e+02	-0.3289	4.428738	0.000547	5.471174	1.853684	-0.000219
1014	1.0079e+02	-0.3642	4.138064	0.000729	7.294899	2.471579	-0.000292
1015	1.0089e+02	-0.4027	3.907947	0.000578	5.775128	1.956666	-0.000231
1016	1.0099e+02	-0.4460	3.625348	0.000709	7.092263	2.402924	-0.000284
1017	1.0109e+02	-0.4861	3.338711	0.000719	7.193581	2.437251	-0.000288
1018	1.0119e+02	-0.5262	3.096483	0.000608	6.079082	2.059649	-0.000243
1019	1.0129e+02	-0.5727	2.866366	0.000578	5.775128	1.956666	-0.000231
1020	1.0139e+02	-0.6000	2.591841	0.000689	6.889626	2.334269	-0.000276
1021	1.0149e+02	-0.6481	2.317316	0.000689	6.889626	2.334269	-0.000276
1022	1.0159e+02	-0.6898	2.042791	0.000689	6.889626	2.334269	-0.000276
1023	1.0169e+02	-0.7267	1.836897	0.000517	5.167220	1.750701	-0.000207
1024	1.0179e+02	-0.7700	1.546223	0.000729	7.294899	2.471579	-0.000292
1025	1.0189e+02	-0.8117	1.255549	0.000729	7.294899	2.471579	-0.000292
1026	1.0199e+02	-0.8470	0.981024	0.000689	6.889626	2.334269	-0.000276
1027	1.0209e+02	-0.8855	0.730722	0.000628	6.281718	2.128304	-0.000252
1028	1.0219e+02	-0.9256	0.468308	0.000659	6.585672	2.231286	-0.000264
1029	1.0229e+02	-0.9609	0.185708	0.000709	7.092263	2.402924	-0.000284
1030	1.0239e+02	-0.9978	-0.052483	0.000598	5.977764	2.025321	-0.000239
1031	1.0248e+02	-1.0460	-0.335082	0.000709	7.092263	2.402924	-0.000284
1032	1.0258e+02	-1.0877	-0.573273	0.000598	5.977764	2.025321	-0.000239
1033	1.0268e+02	-1.1230	-0.851836	0.000699	6.990944	2.368596	-0.000280
1034	1.0278e+02	-1.1679	-1.090027	0.000598	5.977764	2.025321	-0.000239
1035	1.0288e+02	-1.2032	-1.408960	0.000800	8.004125	2.711871	-0.000321
1036	1.0298e+02	-1.2369	-1.622929	0.000537	5.369856	1.819356	-0.000215
1037	1.0308e+02	-1.2930	-1.929751	0.000770	7.700171	2.608888	-0.000308
1038	1.0318e+02	-1.3235	-2.155830	0.000567	5.673810	1.922339	-0.000227
1039	1.0328e+02	-1.3620	-2.438430	0.000709	7.092263	2.402924	-0.000284
1040	1.0338e+02	-1.4037	-2.688732	0.000628	6.281718	2.128304	-0.000252
1041	1.0348e+02	-1.4550	-2.934998	0.000618	6.180400	2.093976	-0.000248
1042	1.0358e+02	-1.4839	-3.197412	0.000659	6.585672	2.231286	-0.000264
1043	1.0368e+02	-1.5240	-3.496160	0.000750	7.497535	2.540234	-0.000300
1044	1.0378e+02	-1.5593	-3.738388	0.000608	6.079082	2.059649	-0.000243
1045	1.0388e+02	-1.6074	-3.992727	0.000638	6.383036	2.162631	-0.000256
1046	1.0398e+02	-1.6427	-4.243030	0.000628	6.281718	2.128304	-0.000252
1047	1.0408e+02	-1.6796	-4.533703	0.000729	7.294899	2.471579	-0.000292
1048	1.0418e+02	-1.7262	-4.771894	0.000598	5.977764	2.025321	-0.000239
1049	1.0428e+02	-1.7598	-4.989900	0.000547	5.471174	1.853684	-0.000219
1050	1.0438e+02	-1.8112	-5.252314	0.000659	6.585672	2.231286	-0.000264
1051	1.0447e+02	-1.8465	-5.567210	0.000790	7.902807	2.677543	-0.000316
1052	1.0457e+02	-1.8834	-5.809438	0.000608	6.079082	2.059649	-0.000243
1053	1.0467e+02	-1.9155	-6.059741	0.000628	6.281718	2.128304	-0.000252
1054	1.0477e+02	-1.9684	-6.326192	0.000669	6.686990	2.265614	-0.000268
1055	1.0487e+02	-1.9973	-6.612828	0.000719	7.193581	2.437251	-0.000288
1056	1.0497e+02	-2.0390	-6.851019	0.000598	5.977764	2.025321	-0.000239
1057	1.0507e+02	-2.0855	-7.089210	0.000598	5.977764	2.025321	-0.000239
1058	1.0517e+02	-2.1288	-7.331439	0.000608	6.079082	2.059649	-0.000243
1059	1.0527e+02	-2.1577	-7.630187	0.000750	7.497535	2.540234	-0.000300
1060	1.0537e+02	-2.2042	-7.856266	0.000567	5.673810	1.922339	-0.000227
1061	1.0547e+02	-2.2379	-8.146940	0.000729	7.294899	2.471579	-0.000292
1062	1.0557e+02	-2.2780	-8.377057	0.000578	5.775128	1.956666	-0.000231
1063	1.0567e+02	-2.3181	-8.643508	0.000669	6.686990	2.265614	-0.000268
1064	1.0577e+02	-2.3646	-8.885736	0.000608	6.079082	2.059649	-0.000243
1065	1.0587e+02	-2.3951	-9.123927	0.000598	5.977764	2.025321	-0.000239
1066	1.0597e+02	-2.4384	-9.410563	0.000719	7.193581	2.437251	-0.000288
1067	1.0607e+02	-2.4737	-9.632606	0.000557	5.572492	1.888011	-0.000223
1068	1.0617e+02	-2.5235	-9.915205	0.000709	7.092263	2.402924	-0.000284
1069	1.0627e+02	-2.5604	-10.153396	0.000598	5.977764	2.025321	-0.000239
1070	1.0637e+02	-2.6053	-10.468293	0.000790	7.902807	2.677543	-0.000316
1071	1.0647e+02	-2.6470	-10.658038	0.000476	4.761948	1.613392	-0.000191
1072	1.0656e+02	-2.6871	-10.956786	0.000750	7.497535	2.540234	-0.000300
1073	1.0666e+02	-2.7192	-11.215163	0.000648	6.484354	2.196959	-0.000260
1074	1.0676e+02	-2.7641	-11.429131	0.000537	5.369856	1.819356	-0.000215
1075	1.0686e+02	-2.7962	-11.707694	0.000699	6.990944	2.368596	-0.000280
1076	1.0696e+02	-2.8443	-11.949922	0.000608	6.079082	2.059649	-0.000243
1077	1.0706e+02	-2.8828	-12.220410	0.000679	6.788308	2.299941	-0.000272
1078	1.0716e+02	-2.9197	-12.426304	0.000517	5.167220	1.750701	-0.000207
1079	1.0726e+02	-2.9566	-12.708903	0.000709	7.092263	2.402924	-0.000284
1080	1.0736e+02	-2.9999	-12.939020	0.000578	5.775128	1.956666	-0.000231
1081	1.0746e+02	-3.0336	-13.221620	0.000709	7.092263	2.402924	-0.000284
1082	1.0756e+02	-3.0737	-13.467885	0.000618	6.180400	2.093976	-0.000248
1083	1.0766e+02	-3.1202	-13.718187	0.000628	6.281718	2.128304	-0.000252
1084	1.0776e+02	-3.1523	-13.988675	0.000679	6.788308	2.299941	-0.000272
1085	1.0786e+02	-3.1972	-14.202644	0.000537	5.369856	1.819356	-0.000215
1086	1.0796e+02	-3.2325	-14.444872	0.000608	6.079082	2.059649	-0.000243
1087	1.0806e+02	-3.2726	-14.687100	0.000608	6.079082	2.059649	-0.000243
1088	1.0816e+02	-3.3224	-14.929328	0.000608	6.079082	2.059649	-0.000243
1089	1.0826e+02	-3.3512	-15.207890	0.000699	6.990944	2.368596	-0.000280
1090	1.0836e+02	-3.3930	-15.442044	0.000588	5.876446	1.990994	-0.000235
1091	1.0845e+02	-3.4395	-15.688309	0.000618	6.180400	2.093976	-0.000248
1092	1.0855e+02	-3.4651	-15.934575	0.000618	6.180400	2.093976	-0.000248
1093	1.0865e+02	-3.5197	-16.148543	0.000537	5.369856	1.819356	-0.000215
1094	1.0875e+02	-3.5518	-16.378660	0.000578	5.775128	1.956666	-0.000231
1095	1.0885e+02	-3.5999	-16.628962	0.000628	6.281718	2.128304	-0.000252
1096	1.0895e+02	-3.6416	-16.907524	0.000699	6.990944	2.368596	-0.000280
1097	1.0905e+02	-3.6769	-17.149753	0.000608	6.079082	2.059649	-0.000243
1098	1.0915e+02	-3.7186	-17.371795	0.000557	5.572492	1.888011	-0.000223
1099	1.0925e+02	-3.7459	-17.597875	0.000567	5.673810	1.922339	-0.000227
1100	1.0935e+02	-3.7956	-17.880474	0.000709	7.092263	2.402924	-0.000284
1101	1.0945e+02	-3.8325	-18.114628	0.000588	5.876446	1.990994	-0.000235
1102	1.0955e+02	-3.8710	-18.332633	0.000547	5.471174	1.853684	-0.000219
1103	1.0965e+02	-3.9143	-18.566787	0.000588	5.876446	1.990994	-0.000235
1104	1.0975e+02	-3.9576	-18.817090	0.000628	6.281718	2.128304	-0.000252
1105	1.0985e+02	-3.9961	-19.047206	0.000578	5.775128	1.956666	-0.000231
1106	1.0995e+02	-4.0314	-19.285397	0.000598	5.977764	2.025321	-0.000239
1107	1.1005e+02	-4.0731	-19.535700	0.000628	6.281718	2.128304	-0.000252
1108	1.1015e+02	-4.1181	-19.790039	0.000638	6.383036	2.162631	-0.000256
1109	1.1025e+02	-4.1485	-19.991896	0.000507	5.065902	1.716374	-0.000203
1110	1.1035e+02	-4.2079	-20.234124	0.000608	6.079082	2.059649	-0.000243
1111	1.1044e+02	-4.2223	-20.488464	0.000638	6.383036	2.162631	-0.000256
1112	1.1054e+02	-4.2753	-20.678209	0.000476	4.761948	1.613392	-0.000191
1113	1.1064e+02	-4.3106	-20.916400	0.000598	5.977764	2.025321	-0.000239
1114	1.1074e+02	-4.3475	-21.174777	0.000648	6.484354	2.196959	-0.000260
1115	1.1084e+02	-4.4004	-21.372597	0.000496	4.964584	1.682047	-0.000199
1116	1.1094e+02	-4.4197	-21.598676	0.000567	5.673810	1.922339	-0.000227
1117	1.1104e+02	-4.4710	-21.869164	0.000679	6.788308	2.299941	-0.000272
1118	1.1114e+02	-4.5015	-22.119467	0.000628	6.281718	2.128304	-0.000252
1119	1.1124e+02	-4.5448	-22.337472	0.000547	5.471174	1.853684	-0.000219
1120	1.1134e+02	-4.5945	-22.551440	0.000537	5.369856	1.819356	-0.000215
1121	1.1144e+02	-4.6298	-22.793668	0.000608	6.079082	2.059649	-0.000243
1122	1.1154e+02	-4.6715	-23.052045	0.000648	6.484354	2.196959	-0.000260
1123	1.1164e+02	-4.7180	-23.241790	0.000476	4.761948	1.613392	-0.000191
1124	1.1174e+02	-4.7485	-23.455759	0.000537	5.369856	1.819356	-0.000215
1125	1.1184e+02	-4.7918	-23.689913	0.000588	5.876446	1.990994	-0.000235
1126	1.1194e+02	-4.8368	-23.940215	0.000628	6.281718	2.128304	-0.000252
1127	1.1204e+02	-4.8753	-24.142072	0.000507	5.065902	1.716374	-0.000203
1128	1.1214e+02	-4.9154	-24.404486	0.000659	6.585672	2.231286	-0.000264
1129	1.1224e+02	-4.9426	-24.634602	0.000578	5.775128	1.956666	-0.000231
1130	1.1234e+02	-4.9876	-24.872793	0.000598	5.977764	2.025321	-0.000239
1131	1.1244e+02	-5.0293	-25.106947	0.000588	5.876446	1.990994	-0.000235
1132	1.1253e+02	-5.0758	-25.300730	0.000486	4.863266	1.647719	-0.000195
1133	1.1263e+02	-5.1063	-25.542958	0.000608	6.079082	2.059649	-0.000243
1134	1.1273e+02	-5.1496	-25.781149	0.000598	5.977764	2.025321	-0.000239
1135	1.1283e+02	-5.1961	-26.019340	0.000598	5.977764	2.025321	-0.000239
1136	1.1293e+02	-5.2218	-26.237345	0.000547	5.471174	1.853684	-0.000219
1137	1.1303e+02	-5.2699	-26.451313	0.000537	5.369856	1.819356	-0.000215
1138	1.1313e+02	-5.3020	-26.661244	0.000527	5.268538	1.785029	-0.000211
1139	1.1323e+02	-5.3517	-26.923658	0.000659	6.585672	2.231286	-0.000264
1140	1.1333e+02	-5.3982	-27.149738	0.000567	5.673810	1.922339	-0.000227
1141	1.1343e+02	-5.4367	-27.396003	0.000618	6.180400	2.093976	-0.000248
1142	1.1353e+02	-5.4656	-27.573637	0.000446	4.457994	1.510409	-0.000179
1143	1.1363e+02	-5.5089	-27.807791	0.000588	5.876446	1.990994	-0.000235
1144	1.1373e+02	-5.5506	-28.054056	0.000618	6.180400	2.093976	-0.000248
1145	1.1383e+02	-5.5988	-28.308396	0.000638	6.383036	2.162631	-0.000256
1146	1.1393e+02	-5.6228	-28.498141	0.000476	4.761948	1.613392	-0.000191
1147	1.1403e+02	-5.6645	-28.736332	0.000598	5.977764	2.025321	-0.000239
1148	1.1413e+02	-5.7030	-28.930115	0.000486	4.863266	1.647719	-0.000195
1149	1.1423e+02	-5.7560	-29.172343	0.000608	6.079082	2.059649	-0.000243
1150	1.1433e+02	-5.7897	-29.426682	0.000638	6.383036	2.162631	-0.000256
1151	1.1442e+02	-5.8346	-29.620465	0.000486	4.863266	1.647719	-0.000195
1152	1.1452e+02	-5.8635	-29.838470	0.000547	5.471174	1.853684	-0.000219
1153	1.1462e+02	-5.9020	-30.068587	0.000578	5.775128	1.956666	-0.000231
1154	1.1472e+02	-5.9517	-30.278518	0.000527	5.268538	1.785029	-0.000211
1155	1.1482e+02	-5.9918	-30.484412	0.000517	5.167220	1.750701	-0.000207
1156	1.1492e+02	-6.0335	-30.758937	0.000689	6.889626	2.334269	-0.000276
1157	1.1502e+02	-6.0592	-30.956757	0.000496	4.964584	1.682047	-0.000199
1158	1.1512e+02	-6.1105	-31.186874	0.000578	5.775128	1.956666	-0.000231
1159	1.1522e+02	-6.1426	-31.356433	0.000426	4.255358	1.441754	-0.000170
1160	1.1532e+02	-6.1795	-31.578476	0.000557	5.572492	1.888011	-0.000223
1161	1.1542e+02	-6.2212	-31.816667	0.000598	5.977764	2.025321	-0.000239
1162	1.1552e+02	-6.2758	-32.058895	0.000608	6.079082	2.059649	-0.000243
1163	1.1562e+02	-6.3062	-32.272863	0.000537	5.369856	1.819356	-0.000215
1164	1.1572e+02	-6.3479	-32.490868	0.000547	5.471174	1.853684	-0.000219
1165	1.1582e+02	-6.3881	-32.696762	0.000517	5.167220	1.750701	-0.000207
1166	1.1592e+02	-6.4169	-32.943028	0.000618	6.180400	2.093976	-0.000248
1167	1.1602e+02	-6.4651	-33.108550	0.000415	4.154039	1.407427	-0.000166
1168	1.1612e+02	-6.5036	-33.330593	0.000557	5.572492	1.888011	-0.000223
1169	1.1622e+02	-6.5372	-33.528412	0.000496	4.964584	1.682047	-0.000199
1170	1.1632e+02	-6.5774	-33.778715	0.000628	6.281718	2.128304	-0.000252
1171	1.1642e+02	-6.6239	-33.980572	0.000507	5.065902	1.716374	-0.000203
1172	1.1651e+02	-6.6656	-34.174354	0.000486	4.863266	1.647719	-0.000195
1173	1.1661e+02	-6.7009	-34.404471	0.000578	5.775128	1.956666	-0.000231
1174	1.1671e+02	-6.7314	-34.622476	0.000547	5.471174	1.853684	-0.000219
1175	1.1681e+02	-6.7763	-34.832407	0.000527	5.268538	1.785029	-0.000211
1176	1.1691e+02	-6.8244	-35.082710	0.000628	6.281718	2.128304	-0.000252
1177	1.1701e+02	-6.8645	-35.312826	0.000578	5.775128	1.956666	-0.000231
1178	1.1711e+02	-6.9046	-35.470275	0.000395	3.951403	1.338772	-0.000158
1179	1.1721e+02	-6.9447	-35.736726	0.000669	6.686990	2.265614	-0.000268
1180	1.1731e+02	-6.9880	-35.954731	0.000547	5.471174	1.853684	-0.000219
1181	1.1741e+02	-7.0169	-36.144476	0.000476	4.761948	1.613392	-0.000191
1182	1.1751e+02	-7.0506	-36.382667	0.000598	5.977764	2.025321	-0.000239
1183	1.1761e+02	-7.1051	-36.596635	0.000537	5.369856	1.819356	-0.000215
1184	1.1771e+02	-7.1436	-36.826752	0.000578	5.775128	1.956666	-0.000231
1185	1.1781e+02	-7.1789	-37.028609	0.000507	5.065902	1.716374	-0.000203
1186	1.1791e+02	-7.2062	-37.238540	0.000527	5.268538	1.785029	-0.000211
1187	1.1801e+02	-7.2592	-37.480768	0.000608	6.079082	2.059649	-0.000243
1188	1.1811e+02	-7.3009	-37.670514	0.000476	4.761948	1.613392	-0.000191
1189	1.1821e+02	-7.3410	-37.900630	0.000578	5.775128	1.956666	-0.000231
1190	1.1831e+02	-7.3714	-38.066153	0.000415	4.154039	1.407427	-0.000166
1191	1.1841e+02	-7.4244	-38.316455	0.000628	6.281718	2.128304	-0.000252
1192	1.1850e+02	-7.4597	-38.574832	0.000648	6.484354	2.196959	-0.000260
1193	1.1860e+02	-7.5078	-38.792837	0.000547	5.471174	1.853684	-0.000219
1194	1.1870e+02	-7.5367	-38.974508	0.000456	4.559312	1.544737	-0.000183
1195	1.1880e+02	-7.5928	-39.228848	0.000638	6.383036	2.162631	-0.000256
1196	1.1890e+02	-7.6105	-39.390333	0.000405	4.052721	1.373099	-0.000162
1197	1.1900e+02	-7.6554	-39.640636	0.000628	6.281718	2.128304	-0.000252
1198	1.1910e+02	-7.7019	-39.846530	0.000517	5.167220	1.750701	-0.000207
1199	1.1920e+02	-7.7324	-40.048387	0.000507	5.065902	1.716374	-0.000203
1200	1.1930e+02	-7.7789	-40.294652	0.000618	6.180400	2.093976	-0.000248
1201	1.1940e+02	-7.8206	-40.464212	0.000426	4.255358	1.441754	-0.000170
1202	1.1950e+02	-7.8607	-40.706440	0.000608	6.079082	2.059649	-0.000243
1203	1.1960e+02	-7.9008	-40.884074	0.000446	4.457994	1.510409	-0.000179
1204	1.1970e+02	-7.9393	-41.085930	0.000507	5.065902	1.716374	-0.000203
1205	1.1980e+02	-7.9778	-41.336233	0.000628	6.281718	2.128304	-0.000252
1206	1.1990e+02	-8.0147	-41.550201	0.000537	5.369856	1.819356	-0.000215
1207	1.2000e+02	-8.0549	-41.756095	0.000517	5.167220	1.750701	-0.000207
1208	1.2010e+02	-8.0901	-41.953915	0.000496	4.964584	1.682047	-0.000199
1209	1.2020e+02	-8.1383	-42.175957	0.000557	5.572492	1.888011	-0.000223
1210	1.2030e+02	-8.1880	-42.426259	0.000628	6.281718	2.128304	-0.000252
1211	1.2039e+02	-8.2233	-42.591782	0.000415	4.154039	1.407427	-0.000166
1212	1.2049e+02	-8.2458	-42.777490	0.000466	4.660630	1.579064	-0.000187
1213	1.2059e+02	-8.2971	-42.995496	0.000547	5.471174	1.853684	-0.000219
1214	1.2069e+02	-8.3404	-43.261947	0.000669	6.686990	2.265614	-0.000268
1215	1.2079e+02	-8.3853	-43.471878	0.000527	5.268538	1.785029	-0.000211
1216	1.2089e+02	-8.4238	-43.681809	0.000527	5.268538	1.785029	-0.000211
1217	1.2099e+02	-8.4639	-43.851368	0.000426	4.255358	1.441754	-0.000170
1218	1.2109e+02	-8.4928	-44.077448	0.000567	5.673810	1.922339	-0.000227
1219	1.2119e+02	-8.5345	-44.271231	0.000486	4.863266	1.647719	-0.000195
1220	1.2129e+02	-8.5746	-44.469050	0.000496	4.964584	1.682047	-0.000199
1221	1.2139e+02	-8.6147	-44.687055	0.000547	5.471174	1.853684	-0.000219
1222	1.2149e+02	-8.6548	-44.896987	0.000527	5.268538	1.785029	-0.000211
1223	1.2159e+02	-8.6998	-45.102880	0.000517	5.167220	1.750701	-0.000207
1224	1.2169e+02	-8.7286	-45.304737	0.000507	5.065902	1.716374	-0.000203
1225	1.2179e+02	-8.7671	-45.546965	0.000608	6.079082	2.059649	-0.000243
1226	1.2189e+02	-8.8153	-45.732674	0.000466	4.660630	1.579064	-0.000187
1227	1.2199e+02	-8.8457	-45.982976	0.000628	6.281718	2.128304	-0.000252
1228	1.2209e+02	-8.8891	-46.168684	0.000466	4.660630	1.579064	-0.000187
1229	1.2219e+02	-8.9308	-46.378615	0.000527	5.268538	1.785029	-0.000211
1230	1.2229e+02	-8.9757	-46.560286	0.000456	4.559312	1.544737	-0.000183
1231	1.2239e+02	-9.0190	-46.786366	0.000567	5.673810	1.922339	-0.000227
1232	1.2248e+02	-9.0591	-46.968037	0.000456	4.559312	1.544737	-0.000183
1233	1.2258e+02	-9.1024	-47.226414	0.000648	6.484354	2.196959	-0.000260
1234	1.2268e+02	-9.1329	-47.395974	0.000426	4.255358	1.441754	-0.000170
1235	1.2278e+02	-9.1794	-47.597830	0.000507	5.065902	1.716374	-0.000203
1236	1.2288e+02	-9.2179	-47.795650	0.000496	4.964584	1.682047	-0.000199
1237	1.2298e+02	-9.2580	-48.021730	0.000567	5.673810	1.922339	-0.000227
1238	1.2308e+02	-9.2949	-48.215512	0.000486	4.863266	1.647719	-0.000195
1239	1.2318e+02	-9.3366	-48.437555	0.000557	5.572492	1.888011	-0.000223
1240	1.2328e+02	-9.3783	-48.586929	0.000375	3.748767	1.270117	-0.000150
1241	1.2338e+02	-9.4088	-48.861454	0.000689	6.889626	2.334269	-0.000276
1242	1.2348e+02	-9.4570	-49.043125	0.000456	4.559312	1.544737	-0.000183
1243	1.2358e+02	-9.5003	-49.232870	0.000476	4.761948	1.613392	-0.000191
1244	1.2368e+02	-9.5404	-49.426653	0.000486	4.863266	1.647719	-0.000195
1245	1.2378e+02	-9.5725	-49.689067	0.000659	6.585672	2.231286	-0.000264
1246	1.2388e+02	-9.6094	-49.842478	0.000385	3.850085	1.304444	-0.000154
1247	1.2398e+02	-9.6479	-50.040297	0.000496	4.964584	1.682047	-0.000199
1248	1.2408e+02	-9.6848	-50.254266	0.000537	5.369856	1.819356	-0.000215
1249	1.2418e+02	-9.7281	-50.476308	0.000557	5.572492	1.888011	-0.000223
1250	1.2428e+02	-9.7762	-50.657979	0.000456	4.559312	1.544737	-0.000183
1251	1.2438e+02	-9.8179	-50.916356	0.000648	6.484354	2.196959	-0.000260
1252	1.2447e+02	-9.8404	-51.081878	0.000415	4.154039	1.407427	-0.000166
1253	1.2457e+02	-9.8949	-51.275661	0.000486	4.863266	1.647719	-0.000195
1254	1.2467e+02	-9.9414	-51.469444	0.000486	4.863266	1.647719	-0.000195
1255	1.2477e+02	-9.9655	-51.679375	0.000527	5.268538	1.785029	-0.000211
1256	1.2487e+02	-10.0056	-51.865083	0.000466	4.660630	1.579064	-0.000187
1257	1.2497e+02	-10.0553	-52.103274	0.000598	5.977764	2.025321	-0.000239
1258	1.2507e+02	-10.0906	-52.288982	0.000466	4.660630	1.579064	-0.000187
1259	1.2517e+02	-10.1243	-52.470653	0.000456	4.559312	1.544737	-0.000183
1260	1.2527e+02	-10.1660	-52.668473	0.000496	4.964584	1.682047	-0.000199
1261	1.2537e+02	-10.2077	-52.890515	0.000557	5.572492	1.888011	-0.000223
1262	1.2547e+02	-10.2446	-53.104483	0.000537	5.369856	1.819356	-0.000215
1263	1.2557e+02	-10.2831	-53.261932	0.000395	3.951403	1.338772	-0.000158
1264	1.2567e+02	-10.3248	-53.508197	0.000618	6.180400	2.093976	-0.000248
1265	1.2577e+02	-10.3698	-53.637385	0.000324	3.242177	1.098479	-0.000130
1266	1.2587e+02	-10.4131	-53.831168	0.000486	4.863266	1.647719	-0.000195
1267	1.2597e+02	-10.4307	-54.061285	0.000578	5.775128	1.956666	-0.000231
1268	1.2607e+02	-10.4805	-54.271216	0.000527	5.268538	1.785029	-0.000211
1269	1.2617e+02	-10.5206	-54.436738	0.000415	4.154039	1.407427	-0.000166
1270	1.2627e+02	-10.5639	-54.678966	0.000608	6.079082	2.059649	-0.000243
1271	1.2636e+02	-10.6168	-54.852563	0.000436	4.356676	1.476082	-0.000174
1272	1.2646e+02	-10.6457	-55.050383	0.000496	4.964584	1.682047	-0.000199
1273	1.2656e+02	-10.6922	-55.248203	0.000496	4.964584	1.682047	-0.000199
1274	1.2666e+02	-10.7227	-55.437948	0.000476	4.761948	1.613392	-0.000191
1275	1.2676e+02	-10.7612	-55.599433	0.000405	4.052721	1.373099	-0.000162
1276	1.2686e+02	-10.8013	-55.825513	0.000567	5.673810	1.922339	-0.000227
1277	1.2696e+02	-10.8430	-55.978924	0.000385	3.850085	1.304444	-0.000154
1278	1.2706e+02	-10.8847	-56.196929	0.000547	5.471174	1.853684	-0.000219
1279	1.2716e+02	-10.9264	-56.394749	0.000496	4.964584	1.682047	-0.000199
1280	1.2726e+02	-10.9601	-56.592569	0.000496	4.964584	1.682047	-0.000199
1281	1.2736e+02	-11.0066	-56.774240	0.000456	4.559312	1.544737	-0.000183
1282	1.2746e+02	-11.0467	-56.976097	0.000507	5.065902	1.716374	-0.000203
1283	1.2756e+02	-11.0852	-57.214288	0.000598	5.977764	2.025321	-0.000239
1284	1.2766e+02	-11.1270	-57.351550	0.000344	3.444813	1.167134	-0.000138
1285	1.2776e+02	-11.1751	-57.549370	0.000496	4.964584	1.682047	-0.000199
1286	1.2786e+02	-11.2088	-57.731041	0.000456	4.559312	1.544737	-0.000183
1287	1.2796e+02	-11.2473	-57.965195	0.000588	5.876446	1.990994	-0.000235
1288	1.2806e+02	-11.2842	-58.126680	0.000405	4.052721	1.373099	-0.000162
1289	1.2816e+02	-11.3307	-58.324500	0.000496	4.964584	1.682047	-0.000199
1290	1.2826e+02	-11.3596	-58.518283	0.000486	4.863266	1.647719	-0.000195
1291	1.2835e+02	-11.4125	-58.691879	0.000436	4.356676	1.476082	-0.000174
1292	1.2845e+02	-11.4366	-58.877588	0.000466	4.660630	1.579064	-0.000187
1293	1.2855e+02	-11.4847	-59.111741	0.000588	5.876446	1.990994	-0.000235
1294	1.2865e+02	-11.5296	-59.269190	0.000395	3.951403	1.338772	-0.000158
1295	1.2875e+02	-11.5665	-59.487195	0.000547	5.471174	1.853684	-0.000219
1296	1.2885e+02	-11.6034	-59.664829	0.000446	4.457994	1.510409	-0.000179
1297	1.2895e+02	-11.6419	-59.838426	0.000436	4.356676	1.476082	-0.000174
1298	1.2905e+02	-11.6836	-60.048357	0.000527	5.268538	1.785029	-0.000211
1299	1.2915e+02	-11.7205	-60.266362	0.000547	5.471174	1.853684	-0.000219
1300	1.2925e+02	-11.7638	-60.448033	0.000456	4.559312	1.544737	-0.000183
1301	1.2935e+02	-11.8152	-60.629705	0.000456	4.559312	1.544737	-0.000183
1302	1.2945e+02	-11.8328	-60.811376	0.000456	4.559312	1.544737	-0.000183
1303	1.2955e+02	-11.8842	-61.045529	0.000588	5.876446	1.990994	-0.000235
1304	1.2965e+02	-11.9194	-61.243349	0.000496	4.964584	1.682047	-0.000199
1305	1.2975e+02	-11.9580	-61.396760	0.000385	3.850085	1.304444	-0.000154
1306	1.2985e+02	-11.9965	-61.558246	0.000405	4.052721	1.373099	-0.000162
1307	1.2995e+02	-12.0430	-61.796437	0.000598	5.977764	2.025321	-0.000239
1308	1.3005e+02	-12.0847	-61.965996	0.000426	4.255358	1.441754	-0.000170
1309	1.3015e+02	-12.1232	-62.163816	0.000496	4.964584	1.682047	-0.000199
1310	1.3025e+02	-12.1553	-62.349524	0.000466	4.660630	1.579064	-0.000187
1311	1.3034e+02	-12.2050	-62.515047	0.000415	4.154039	1.407427	-0.000166
1312	1.3044e+02	-12.2275	-62.708829	0.000486	4.863266	1.647719	-0.000195
1313	1.3054e+02	-12.2836	-62.914723	0.000517	5.167220	1.750701	-0.000207
1314	1.3064e+02	-12.3157	-63.136766	0.000557	5.572492	1.888011	-0.000223
1315	1.3074e+02	-12.3686	-63.310363	0.000436	4.356676	1.476082	-0.000174
1316	1.3084e+02	-12.4039	-63.512219	0.000507	5.065902	1.716374	-0.000203
1317	1.3094e+02	-12.4392	-63.689853	0.000446	4.457994	1.510409	-0.000179
1318	1.3104e+02	-12.4809	-63.839227	0.000375	3.748767	1.270117	-0.000150
1319	1.3114e+02	-12.5210	-64.089530	0.000628	6.281718	2.128304	-0.000252
1320	1.3124e+02	-12.5579	-64.230830	0.000355	3.546131	1.201462	-0.000142
1321	1.3134e+02	-12.5980	-64.400389	0.000426	4.255358	1.441754	-0.000170
1322	1.3144e+02	-12.6317	-64.622432	0.000557	5.572492	1.888011	-0.000223
1323	1.3154e+02	-12.6766	-64.791991	0.000426	4.255358	1.441754	-0.000170
1324	1.3164e+02	-12.7264	-64.993848	0.000507	5.065902	1.716374	-0.000203
1325	1.3174e+02	-12.7633	-65.139185	0.000365	3.647449	1.235789	-0.000146
1326	1.3184e+02	-12.8018	-65.369302	0.000578	5.775128	1.956666	-0.000231
1327	1.3194e+02	-12.8371	-65.542899	0.000436	4.356676	1.476082	-0.000174
1328	1.3204e+02	-12.8804	-65.732644	0.000476	4.761948	1.613392	-0.000191
1329	1.3214e+02	-12.9173	-65.910278	0.000446	4.457994	1.510409	-0.000179
1330	1.3224e+02	-12.9494	-66.083875	0.000436	4.356676	1.476082	-0.000174
1331	1.3234e+02	-13.0055	-66.229212	0.000365	3.647449	1.235789	-0.000146
1332	1.3243e+02	-13.0360	-66.455291	0.000567	5.673810	1.922339	-0.000227
1333	1.3253e+02	-13.0761	-66.620814	0.000415	4.154039	1.407427	-0.000166
1334	1.3263e+02	-13.1210	-66.842856	0.000557	5.572492	1.888011	-0.000223
1335	1.3273e+02	-13.1627	-66.996268	0.000385	3.850085	1.304444	-0.000154
1336	1.3283e+02	-13.1948	-67.194087	0.000496	4.964584	1.682047	-0.000199
1337	1.3293e+02	-13.2333	-67.367684	0.000436	4.356676	1.476082	-0.000174
1338	1.3303e+02	-13.2911	-67.561467	0.000486	4.863266	1.647719	-0.000195
1339	1.3313e+02	-13.3215	-67.743138	0.000456	4.559312	1.544737	-0.000183
1340	1.3323e+02	-13.3488	-67.928846	0.000466	4.660630	1.579064	-0.000187
1341	1.3333e+02	-13.3857	-68.122628	0.000486	4.863266	1.647719	-0.000195
1342	1.3343e+02	-13.4387	-68.288151	0.000415	4.154039	1.407427	-0.000166
1343	1.3353e+02	-13.4772	-68.461748	0.000436	4.356676	1.476082	-0.000174
1344	1.3363e+02	-13.5157	-68.687827	0.000567	5.673810	1.922339	-0.000227
1345	1.3373e+02	-13.5526	-68.857387	0.000426	4.255358	1.441754	-0.000170
1346	1.3383e+02	-13.5991	-69.051170	0.000486	4.863266	1.647719	-0.000195
1347	1.3393e+02	-13.6344	-69.244952	0.000486	4.863266	1.647719	-0.000195
1348	1.3403e+02	-13.6777	-69.442772	0.000496	4.964584	1.682047	-0.000199
1349	1.3413e+02	-13.7066	-69.596183	0.000385	3.850085	1.304444	-0.000154
1350	1.3423e+02	-13.7611	-69.765743	0.000426	4.255358	1.441754	-0.000170
1351	1.3432e+02	-13.7868	-69.987785	0.000557	5.572492	1.888011	-0.000223
1352	1.3442e+02	-13.8397	-70.173493	0.000466	4.660630	1.579064	-0.000187
1353	1.3452e+02	-13.8702	-70.355165	0.000456	4.559312	1.544737	-0.000183
1354	1.3462e+02	-13.9167	-70.528761	0.000436	4.356676	1.476082	-0.000174
1355	1.3472e+02	-13.9632	-70.766952	0.000598	5.977764	2.025321	-0.000239
1356	1.3482e+02	-13.9921	-70.912289	0.000365	3.647449	1.235789	-0.000146
1357	1.3492e+02	-14.0274	-71.065700	0.000385	3.850085	1.304444	-0.000154
1358	1.3502e+02	-14.0836	-71.267557	0.000507	5.065902	1.716374	-0.000203
1359	1.3512e+02	-14.1076	-71.425005	0.000395	3.951403	1.338772	-0.000158
1360	1.3522e+02	-14.1477	-71.655122	0.000578	5.775128	1.956666	-0.000231
1361	1.3532e+02	-14.1943	-71.861016	0.000517	5.167220	1.750701	-0.000207
1362	1.3542e+02	-14.2440	-71.982130	0.000304	3.039541	1.029824	-0.000122
1363	1.3552e+02	-14.2745	-72.179950	0.000496	4.964584	1.682047	-0.000199
1364	1.3562e+02	-14.3098	-72.385844	0.000517	5.167220	1.750701	-0.000207
1365	1.3572e+02	-14.3499	-72.583663	0.000496	4.964584	1.682047	-0.000199
1366	1.3582e+02	-14.4012	-72.733037	0.000375	3.748767	1.270117	-0.000150
1367	1.3592e+02	-14.4285	-72.991414	0.000648	6.484354	2.196959	-0.000260
1368	1.3602e+02	-14.4750	-73.152900	0.000405	4.052721	1.373099	-0.000162
1369	1.3612e+02	-14.5071	-73.326496	0.000436	4.356676	1.476082	-0.000174
1370	1.3622e+02	-14.5488	-73.516242	0.000476	4.761948	1.613392	-0.000191
1371	1.3631e+02	-14.5905	-73.677727	0.000405	4.052721	1.373099	-0.000162
1372	1.3641e+02	-14.6274	-73.851324	0.000436	4.356676	1.476082	-0.000174
1373	1.3651e+02	-14.6723	-74.041069	0.000476	4.761948	1.613392	-0.000191
1374	1.3661e+02	-14.7108	-74.234852	0.000486	4.863266	1.647719	-0.000195
1375	1.3671e+02	-14.7477	-74.408449	0.000436	4.356676	1.476082	-0.000174
1376	1.3681e+02	-14.7990	-74.610306	0.000507	5.065902	1.716374	-0.000203
1377	1.3691e+02	-14.8215	-74.771791	0.000405	4.052721	1.373099	-0.000162
1378	1.3701e+02	-14.8728	-74.929239	0.000395	3.951403	1.338772	-0.000158
1379	1.3711e+02	-14.9065	-75.127059	0.000496	4.964584	1.682047	-0.000199
1380	1.3721e+02	-14.9498	-75.308730	0.000456	4.559312	1.544737	-0.000183
1381	1.3731e+02	-14.9867	-75.506550	0.000496	4.964584	1.682047	-0.000199
1382	1.3741e+02	-15.0268	-75.732629	0.000567	5.673810	1.922339	-0.000227
1383	1.3751e+02	-15.0686	-75.861818	0.000324	3.242177	1.098479	-0.000130
1384	1.3761e+02	-15.1087	-76.047526	0.000466	4.660630	1.579064	-0.000187
1385	1.3771e+02	-15.1488	-76.229197	0.000456	4.559312	1.544737	-0.000183
1386	1.3781e+02	-15.1889	-76.427017	0.000496	4.964584	1.682047	-0.000199
1387	1.3791e+02	-15.2306	-76.612725	0.000466	4.660630	1.579064	-0.000187
1388	1.3801e+02	-15.2739	-76.741913	0.000324	3.242177	1.098479	-0.000130
1389	1.3811e+02	-15.3076	-76.976067	0.000588	5.876446	1.990994	-0.000235
1390	1.3821e+02	-15.3525	-77.149664	0.000436	4.356676	1.476082	-0.000174
1391	1.3831e+02	-15.3942	-77.315187	0.000415	4.154039	1.407427	-0.000166
1392	1.3840e+02	-15.4343	-77.504932	0.000476	4.761948	1.613392	-0.000191
1393	1.3850e+02	-15.4696	-77.690640	0.000466	4.660630	1.579064	-0.000187
1394	1.3860e+02	-15.5049	-77.908645	0.000547	5.471174	1.853684	-0.000219
1395	1.3870e+02	-15.5562	-78.045908	0.000344	3.444813	1.167134	-0.000138
1396	1.3880e+02	-15.5835	-78.263913	0.000547	5.471174	1.853684	-0.000219
1397	1.3890e+02	-15.6268	-78.413287	0.000375	3.748767	1.270117	-0.000150
1398	1.3900e+02	-15.6685	-78.574773	0.000405	4.052721	1.373099	-0.000162
1399	1.3910e+02	-15.7054	-78.784704	0.000527	5.268538	1.785029	-0.000211
1400	1.3920e+02	-15.7423	-79.002709	0.000547	5.471174	1.853684	-0.000219
1401	1.3930e+02	-15.7824	-79.135935	0.000334	3.343495	1.132807	-0.000134
1402	1.3940e+02	-15.8290	-79.309532	0.000436	4.356676	1.476082	-0.000174
1403	1.3950e+02	-15.8675	-79.515425	0.000517	5.167220	1.750701	-0.000207
1404	1.3960e+02	-15.9076	-79.672874	0.000395	3.951403	1.338772	-0.000158
1405	1.3970e+02	-15.9573	-79.862619	0.000476	4.761948	1.613392	-0.000191
1406	1.3980e+02	-15.9750	-80.048327	0.000466	4.660630	1.579064	-0.000187
1407	1.3990e+02	-16.0327	-80.242110	0.000486	4.863266	1.647719	-0.000195
1408	1.4000e+02	-16.0632	-80.403595	0.000405	4.052721	1.373099	-0.000162
1409	1.4010e+02	-16.0905	-80.589304	0.000466	4.660630	1.579064	-0.000187
1410	1.4020e+02	-16.1434	-80.779049	0.000476	4.761948	1.613392	-0.000191
1411	1.4029e+02	-16.1899	-80.916312	0.000344	3.444813	1.167134	-0.000138
1412	1.4039e+02	-16.2236	-81.138354	0.000557	5.572492	1.888011	-0.000223
1413	1.4049e+02	-16.2637	-81.328099	0.000476	4.761948	1.613392	-0.000191
1414	1.4059e+02	-16.3102	-81.473436	0.000365	3.647449	1.235789	-0.000146
1415	1.4069e+02	-16.3391	-81.659145	0.000466	4.660630	1.579064	-0.000187
1416	1.4079e+02	-16.3840	-81.852927	0.000486	4.863266	1.647719	-0.000195
1417	1.4089e+02	-16.4241	-82.058821	0.000517	5.167220	1.750701	-0.000207
1418	1.4099e+02	-16.4723	-82.256641	0.000496	4.964584	1.682047	-0.000199
1419	1.4109e+02	-16.4963	-82.434275	0.000446	4.457994	1.510409	-0.000179
1420	1.4119e+02	-16.5380	-82.595760	0.000405	4.052721	1.373099	-0.000162
1421	1.4129e+02	-16.5814	-82.785505	0.000476	4.761948	1.613392	-0.000191
1422	1.4139e+02	-16.6231	-83.003511	0.000547	5.471174	1.853684	-0.000219
1423	1.4149e+02	-16.6648	-83.112513	0.000274	2.735587	0.926842	-0.000110
1424	1.4159e+02	-16.7081	-83.318407	0.000517	5.167220	1.750701	-0.000207
1425	1.4169e+02	-16.7418	-83.536413	0.000547	5.471174	1.853684	-0.000219
1426	1.4179e+02	-16.7915	-83.685787	0.000375	3.748767	1.270117	-0.000150
1427	1.4189e+02	-16.8316	-83.879569	0.000486	4.863266	1.647719	-0.000195
1428	1.4199e+02	-16.8669	-84.065277	0.000466	4.660630	1.579064	-0.000187
1429	1.4209e+02	-16.8974	-84.226763	0.000405	4.052721	1.373099	-0.000162
1430	1.4219e+02	-16.9551	-84.380174	0.000385	3.850085	1.304444	-0.000154
1431	1.4228e+02	-16.9824	-84.626439	0.000618	6.180400	2.093976	-0.000248
1432	1.4238e+02	-17.0081	-84.751591	0.000314	3.140859	1.064152	-0.000126
1433	1.4248e+02	-17.0594	-84.965559	0.000537	5.369856	1.819356	-0.000215
1434	1.4258e+02	-17.0995	-85.118970	0.000385	3.850085	1.304444	-0.000154
1435	1.4268e+02	-17.1460	-85.328901	0.000527	5.268538	1.785029	-0.000211
1436	1.4278e+02	-17.1878	-85.490386	0.000405	4.052721	1.373099	-0.000162
1437	1.4288e+02	-17.2343	-85.651872	0.000405	4.052721	1.373099	-0.000162
1438	1.4298e+02	-17.2583	-85.841617	0.000476	4.761948	1.613392	-0.000191
1439	1.4308e+02	-17.3049	-86.067697	0.000567	5.673810	1.922339	-0.000227
1440	1.4318e+02	-17.3418	-86.221108	0.000385	3.850085	1.304444	-0.000154
1441	1.4328e+02	-17.3867	-86.382593	0.000405	4.052721	1.373099	-0.000162
1442	1.4338e+02	-17.4107	-86.616747	0.000588	5.876446	1.990994	-0.000235
1443	1.4348e+02	-17.4589	-86.754010	0.000344	3.444813	1.167134	-0.000138
1444	1.4358e+02	-17.5054	-86.980089	0.000567	5.673810	1.922339	-0.000227
1445	1.4368e+02	-17.5423	-87.157723	0.000446	4.457994	1.510409	-0.000179
1446	1.4378e+02	-17.5824	-87.319209	0.000405	4.052721	1.373099	-0.000162
1447	1.4388e+02	-17.6097	-87.521066	0.000507	5.065902	1.716374	-0.000203
1448	1.4398e+02	-17.6626	-87.686588	0.000415	4.154039	1.407427	-0.000166
1449	1.4408e+02	-17.7027	-87.868259	0.000456	4.559312	1.544737	-0.000183
1450	1.4418e+02	-17.7348	-88.062042	0.000486	4.863266	1.647719	-0.000195
1451	1.4428e+02	-17.7797	-88.219490	0.000395	3.951403	1.338772	-0.000158
1452	1.4437e+02	-17.8134	-88.429421	0.000527	5.268538	1.785029	-0.000211
1453	1.4447e+02	-17.8535	-88.598981	0.000426	4.255358	1.441754	-0.000170
1454	1.4457e+02	-17.9081	-88.792763	0.000486	4.863266	1.647719	-0.000195
1455	1.4467e+02	-17.9433	-88.974435	0.000456	4.559312	1.544737	-0.000183
1456	1.4477e+02	-17.9818	-89.127846	0.000385	3.850085	1.304444	-0.000154
1457	1.4487e+02	-18.0220	-89.337777	0.000527	5.268538	1.785029	-0.000211
1458	1.4497e+02	-18.0621	-89.487151	0.000375	3.748767	1.270117	-0.000150
1459	1.4507e+02	-18.1006	-89.660748	0.000436	4.356676	1.476082	-0.000174
1460	1.4517e+02	-18.1423	-89.902976	0.000608	6.079082	2.059649	-0.000243
1461	1.4527e+02	-18.1760	-90.068498	0.000415	4.154039	1.407427	-0.000166
1462	1.4537e+02	-18.2193	-90.274392	0.000517	5.167220	1.750701	-0.000207
1463	1.4547e+02	-18.2578	-90.447989	0.000436	4.356676	1.476082	-0.000174
1464	1.4557e+02	-18.2915	-90.653883	0.000517	5.167220	1.750701	-0.000207
1465	1.4567e+02	-18.3348	-90.823443	0.000426	4.255358	1.441754	-0.000170
1466	1.4577e+02	-18.3829	-91.033374	0.000527	5.268538	1.785029	-0.000211
1467	1.4587e+02	-18.4214	-91.211008	0.000446	4.457994	1.510409	-0.000179
1468	1.4597e+02	-18.4519	-91.433050	0.000557	5.572492	1.888011	-0.000223
1469	1.4607e+02	-18.4968	-91.614721	0.000456	4.559312	1.544737	-0.000183
1470	1.4617e+02	-18.5369	-91.784281	0.000426	4.255358	1.441754	-0.000170
1471	1.4626e+02	-18.5658	-91.961915	0.000446	4.457994	1.510409	-0.000179
1472	1.4636e+02	-18.6107	-92.179920	0.000547	5.471174	1.853684	-0.000219
1473	1.4646e+02	-18.6620	-92.357554	0.000446	4.457994	1.510409	-0.000179
1474	1.4656e+02	-18.6989	-92.571522	0.000537	5.369856	1.819356	-0.000215
1475	1.4666e+02	-18.7390	-92.777416	0.000517	5.167220	1.750701	-0.000207
1476	1.4676e+02	-18.7791	-92.963125	0.000466	4.660630	1.579064	-0.000187
1477	1.4686e+02	-18.8112	-93.136721	0.000436	4.356676	1.476082	-0.000174
1478	1.4696e+02	-18.8594	-93.346653	0.000527	5.268538	1.785029	-0.000211
1479	1.4706e+02	-18.9027	-93.544472	0.000496	4.964584	1.682047	-0.000199
1480	1.4716e+02	-18.9380	-93.746329	0.000507	5.065902	1.716374	-0.000203
1481	1.4726e+02	-18.9717	-93.940111	0.000486	4.863266	1.647719	-0.000195
1482	1.4736e+02	-19.0198	-94.166191	0.000567	5.673810	1.922339	-0.000227
1483	1.4746e+02	-19.0647	-94.339788	0.000436	4.356676	1.476082	-0.000174
1484	1.4756e+02	-19.0936	-94.569905	0.000578	5.775128	1.956666	-0.000231
1485	1.4766e+02	-19.1449	-94.759650	0.000476	4.761948	1.613392	-0.000191
1486	1.4776e+02	-19.1850	-94.921135	0.000405	4.052721	1.373099	-0.000162
1487	1.4786e+02	-19.2059	-95.114918	0.000486	4.863266	1.647719	-0.000195
1488	1.4796e+02	-19.2556	-95.361183	0.000618	6.180400	2.093976	-0.000248
1489	1.4806e+02	-19.2973	-95.526706	0.000415	4.154039	1.407427	-0.000166
1490	1.4816e+02	-19.3406	-95.712414	0.000466	4.660630	1.579064	-0.000187
1491	1.4825e+02	-19.3695	-95.922345	0.000527	5.268538	1.785029	-0.000211
1492	1.4835e+02	-19.4144	-96.132276	0.000527	5.268538	1.785029	-0.000211
1493	1.4845e+02	-19.4497	-96.354319	0.000557	5.572492	1.888011	-0.000223
1494	1.4855e+02	-19.4898	-96.515804	0.000405	4.052721	1.373099	-0.000162
1495	1.4865e+02	-19.5444	-96.725735	0.000527	5.268538	1.785029	-0.000211
1496	1.4875e+02	-19.5765	-96.931629	0.000517	5.167220	1.750701	-0.000207
1497	1.4885e+02	-19.6182	-97.145597	0.000537	5.369856	1.819356	-0.000215
1498	1.4895e+02	-19.6567	-97.375714	0.000578	5.775128	1.956666	-0.000231
1499	1.4905e+02	-19.6920	-97.521051	0.000365	3.647449	1.235789	-0.000146
1500	1.4915e+02	-19.7305	-97.783465	0.000659	6.585672	2.231286	-0.000264
1501	1.4925e+02	-19.7674	-97.977247	0.000486	4.863266	1.647719	-0.000195
1502	1.4935e+02	-19.8123	-98.154881	0.000446	4.457994	1.510409	-0.000179
1503	1.4945e+02	-19.8444	-98.380961	0.000567	5.673810	1.922339	-0.000227
1504	1.4955e+02	-19.8941	-98.566669	0.000466	4.660630	1.579064	-0.000187
1505	1.4965e+02	-19.9374	-98.825046	0.000648	6.484354	2.196959	-0.000260
1506	1.4975e+02	-19.9695	-99.010754	0.000466	4.660630	1.579064	-0.000187
1507	1.4985e+02	-20.0160	-99.228759	0.000547	5.471174	1.853684	-0.000219
1508	1.4995e+02	-19.9727	-99.172239	0.000142	1.418453	0.480585	0.000057
1509	1.5005e+02	-19.9294	-99.115720	0.000142	1.418453	0.480585	0.000057
1510	1.5015e+02	-19.8909	-99.051125	0.000162	1.621089	0.549240	0.000065
1511	1.5025e+02	-19.8492	-99.047088	0.000010	0.101318	0.034327	0.000004
1512	1.5034e+02	-19.8139	-98.934048	0.000284	2.836905	0.961169	0.000114
1513	1.5044e+02	-19.7690	-98.921937	0.000030	0.303954	0.102982	0.000012
1514	1.5054e+02	-19.7256	-98.780637	0.000355	3.546131	1.201462	0.000142
1515	1.5064e+02	-19.6920	-98.740266	0.000101	1.013180	0.343275	0.000041
1516	1.5074e+02	-19.6454	-98.667597	0.000182	1.823725	0.617895	0.000073
1517	1.5084e+02	-19.6150	-98.598966	0.000172	1.722407	0.583567	0.000069
1518	1.5094e+02	-19.5636	-98.518223	0.000203	2.026361	0.686550	0.000081
1519	1.5104e+02	-19.5283	-98.425369	0.000233	2.330315	0.789532	0.000093
1520	1.5114e+02	-19.4866	-98.304255	0.000304	3.039541	1.029824	0.000122
1521	1.5124e+02	-19.4465	-98.280032	0.000061	0.607908	0.205965	0.000024
1522	1.5134e+02	-19.4016	-98.158918	0.000304	3.039541	1.029824	0.000122
1523	1.5144e+02	-19.3743	-98.082213	0.000193	1.925043	0.652222	0.000077
1524	1.5154e+02	-19.3390	-98.001470	0.000203	2.026361	0.686550	0.000081
1525	1.5164e+02	-19.2973	-97.928802	0.000182	1.823725	0.617895	0.000073
1526	1.5174e+02	-19.2540	-97.839985	0.000223	2.228997	0.755205	0.000089
1527	1.5184e+02	-19.2203	-97.722908	0.000294	2.938223	0.995497	0.000118
1528	1.5194e+02	-19.1754	-97.735019	-0.000030	-0.303954	-0.102982	-0.000012
1529	1.5204e+02	-19.1353	-97.557385	0.000446	4.457994	1.510409	0.000179
1530	1.5214e+02	-19.0936	-97.436271	0.000304	3.039541	1.029824	0.000122
1531	1.5224e+02	-19.0535	-97.347454	0.000223	2.228997	0.755205	0.000089
1532	1.5233e+02	-19.0182	-97.250563	0.000243	2.431633	0.823860	0.000097
1533	1.5243e+02	-18.9765	-97.169820	0.000203	2.026361	0.686550	0.000081
1534	1.5253e+02	-18.9412	-97.052743	0.000294	2.938223	0.995497	0.000118
1535	1.5263e+02	-18.8914	-97.004298	0.000122	1.215816	0.411930	0.000049
1536	1.5273e+02	-18.8562	-96.846849	0.000395	3.951403	1.338772	0.000158
1537	1.5283e+02	-18.8209	-96.790329	0.000142	1.418453	0.480585	0.000057
1538	1.5293e+02	-18.7743	-96.596547	0.000486	4.863266	1.647719	0.000195
1539	1.5303e+02	-18.7423	-96.540027	0.000142	1.418453	0.480585	0.000057
1540	1.5313e+02	-18.6973	-96.443136	0.000243	2.431633	0.823860	0.000097
1541	1.5323e+02	-18.6620	-96.297799	0.000365	3.647449	1.235789	0.000146
1542	1.5333e+02	-18.6155	-96.196870	0.000253	2.532951	0.858187	0.000101
1543	1.5343e+02	-18.5786	-96.099979	0.000243	2.431633	0.823860	0.000097
1544	1.5353e+02	-18.5385	-95.966754	0.000334	3.343495	1.132807	0.000134
1545	1.5363e+02	-18.5016	-95.881974	0.000213	2.127679	0.720877	0.000085
1546	1.5373e+02	-18.4567	-95.777008	0.000263	2.634269	0.892514	0.000105
1547	1.5383e+02	-18.4134	-95.672043	0.000263	2.634269	0.892514	0.000105
1548	1.5393e+02	-18.3893	-95.526706	0.000365	3.647449	1.235789	0.000146
1549	1.5403e+02	-18.3412	-95.437889	0.000223	2.228997	0.755205	0.000089
1550	1.5413e+02	-18.3027	-95.340998	0.000243	2.431633	0.823860	0.000097
1551	1.5422e+02	-18.2530	-95.175475	0.000415	4.154039	1.407427	0.000166
1552	1.5432e+02	-18.2193	-95.127029	0.000122	1.215816	0.411930	0.000049
1553	1.5442e+02	-18.1856	-94.953433	0.000436	4.356676	1.476082	0.000174
1554	1.5452e+02	-18.1375	-94.892876	0.000152	1.519771	0.514912	0.000061
1555	1.5462e+02	-18.0974	-94.759650	0.000334	3.343495	1.132807	0.000134
1556	1.5472e+02	-18.0653	-94.606239	0.000385	3.850085	1.304444	0.000154
1557	1.5482e+02	-18.0236	-94.513385	0.000233	2.330315	0.789532	0.000093
1558	1.5492e+02	-17.9722	-94.368048	0.000365	3.647449	1.235789	0.000146
1559	1.5502e+02	-17.9449	-94.287305	0.000203	2.026361	0.686550	0.000081
1560	1.5512e+02	-17.9048	-94.146005	0.000355	3.546131	1.201462	0.000142
1561	1.5522e+02	-17.8583	-94.065263	0.000203	2.026361	0.686550	0.000081
1562	1.5532e+02	-17.8198	-93.911852	0.000385	3.850085	1.304444	0.000154
1563	1.5542e+02	-17.7797	-93.794775	0.000294	2.938223	0.995497	0.000118
1564	1.5552e+02	-17.7348	-93.689809	0.000263	2.634269	0.892514	0.000105
1565	1.5562e+02	-17.7075	-93.544472	0.000365	3.647449	1.235789	0.000146
1566	1.5572e+02	-17.6610	-93.447581	0.000243	2.431633	0.823860	0.000097
1567	1.5582e+02	-17.6177	-93.318393	0.000324	3.242177	1.098479	0.000130
1568	1.5592e+02	-17.5824	-93.225538	0.000233	2.330315	0.789532	0.000093
1569	1.5602e+02	-17.5375	-93.084239	0.000355	3.546131	1.201462	0.000142
1570	1.5612e+02	-17.5006	-92.938902	0.000365	3.647449	1.235789	0.000146
1571	1.5622e+02	-17.4557	-92.809713	0.000324	3.242177	1.098479	0.000130
1572	1.5631e+02	-17.4220	-92.704748	0.000263	2.634269	0.892514	0.000105
1573	1.5641e+02	-17.3915	-92.583634	0.000304	3.039541	1.029824	0.000122
1574	1.5651e+02	-17.3369	-92.462520	0.000304	3.039541	1.029824	0.000122
1575	1.5661e+02	-17.3113	-92.321220	0.000355	3.546131	1.201462	0.000142
1576	1.5671e+02	-17.2712	-92.236440	0.000213	2.127679	0.720877	0.000085
1577	1.5681e+02	-17.2246	-92.078992	0.000395	3.951403	1.338772	0.000158
1578	1.5691e+02	-17.1829	-91.961915	0.000294	2.938223	0.995497	0.000118
1579	1.5701e+02	-17.1364	-91.812541	0.000375	3.748767	1.270117	0.000150
1580	1.5711e+02	-17.1027	-91.679315	0.000334	3.343495	1.132807	0.000134
1581	1.5721e+02	-17.0498	-91.558201	0.000304	3.039541	1.029824	0.000122
1582	1.5731e+02	-17.0177	-91.441124	0.000294	2.938223	0.995497	0.000118
1583	1.5741e+02	-16.9936	-91.336159	0.000263	2.634269	0.892514	0.000105
1584	1.5751e+02	-16.9391	-91.170636	0.000415	4.154039	1.407427	0.000166
1585	1.5761e+02	-16.9102	-91.089894	0.000203	2.026361	0.686550	0.000081
1586	1.5771e+02	-16.8637	-90.936482	0.000385	3.850085	1.304444	0.000154
1587	1.5781e+02	-16.8220	-90.843628	0.000233	2.330315	0.789532	0.000093
1588	1.5791e+02	-16.7883	-90.670032	0.000436	4.356676	1.476082	0.000174
1589	1.5801e+02	-16.7562	-90.577177	0.000233	2.330315	0.789532	0.000093
1590	1.5811e+02	-16.7097	-90.464138	0.000284	2.836905	0.961169	0.000114
1591	1.5821e+02	-16.6664	-90.302652	0.000405	4.052721	1.373099	0.000162
1592	1.5830e+02	-16.6231	-90.169427	0.000334	3.343495	1.132807	0.000134
1593	1.5840e+02	-16.5878	-90.011978	0.000395	3.951403	1.338772	0.000158
1594	1.5850e+02	-16.5461	-89.894901	0.000294	2.938223	0.995497	0.000118
1595	1.5860e+02	-16.5043	-89.769750	0.000314	3.140859	1.064152	0.000126
1596	1.5870e+02	-16.4626	-89.628451	0.000355	3.546131	1.201462	0.000142
1597	1.5880e+02	-16.4289	-89.519448	0.000274	2.735587	0.926842	0.000110
1598	1.5890e+02	-16.4017	-89.357962	0.000405	4.052721	1.373099	0.000162
1599	1.5900e+02	-16.3359	-89.277220	0.000203	2.026361	0.686550	0.000081
1600	1.5910e+02	-16.3134	-89.087474	0.000476	4.761948	1.613392	0.000191
1601	1.5920e+02	-16.2637	-88.994620	0.000233	2.330315	0.789532	0.000093
1602	1.5930e+02	-16.2316	-88.849283	0.000365	3.647449	1.235789	0.000146
1603	1.5940e+02	-16.1835	-88.687798	0.000405	4.052721	1.373099	0.000162
1604	1.5950e+02	-16.1402	-88.562647	0.000314	3.140859	1.064152	0.000126
1605	1.5960e+02	-16.1017	-88.425384	0.000344	3.444813	1.167134	0.000138
1606	1.5970e+02	-16.0632	-88.308307	0.000294	2.938223	0.995497	0.000118
1607	1.5980e+02	-16.0247	-88.167007	0.000355	3.546131	1.201462	0.000142
1608	1.5990e+02	-15.9846	-87.997448	0.000426	4.255358	1.441754	0.000170
1609	1.6000e+02	-15.9429	-87.904594	0.000233	2.330315	0.789532	0.000093
1610	1.6010e+02	-15.9060	-87.730997	0.000436	4.356676	1.476082	0.000174
1611	1.6019e+02	-15.8707	-87.589697	0.000355	3.546131	1.201462	0.000142
1612	1.6029e+02	-15.8322	-87.452434	0.000344	3.444813	1.167134	0.000138
1613	1.6039e+02	-15.7889	-87.331320	0.000304	3.039541	1.029824	0.000122
1614	1.6049e+02	-15.7391	-87.141575	0.000476	4.761948	1.613392	0.000191
1615	1.6059e+02	-15.7119	-87.016424	0.000314	3.140859	1.064152	0.000126
1616	1.6069e+02	-15.6701	-86.915495	0.000253	2.532951	0.858187	0.000101
1617	1.6079e+02	-15.6284	-86.729787	0.000466	4.660630	1.579064	0.000187
1618	1.6089e+02	-15.5947	-86.608673	0.000304	3.039541	1.029824	0.000122
1619	1.6099e+02	-15.5530	-86.531967	0.000193	1.925043	0.652222	0.000077
1620	1.6109e+02	-15.5113	-86.338185	0.000486	4.863266	1.647719	0.000195
1621	1.6119e+02	-15.4712	-86.156514	0.000456	4.559312	1.544737	0.000183
1622	1.6129e+02	-15.4215	-86.043474	0.000284	2.836905	0.961169	0.000114
1623	1.6139e+02	-15.3894	-85.930434	0.000284	2.836905	0.961169	0.000114
1624	1.6149e+02	-15.3477	-85.805283	0.000314	3.140859	1.064152	0.000126
1625	1.6159e+02	-15.3204	-85.659946	0.000365	3.647449	1.235789	0.000146
1626	1.6169e+02	-15.2755	-85.470201	0.000476	4.761948	1.613392	0.000191
1627	1.6179e+02	-15.2290	-85.320827	0.000375	3.748767	1.270117	0.000150
1628	1.6189e+02	-15.1857	-85.191638	0.000324	3.242177	1.098479	0.000130
1629	1.6199e+02	-15.1456	-85.074561	0.000294	2.938223	0.995497	0.000118
1630	1.6209e+02	-15.1006	-84.917113	0.000395	3.951403	1.338772	0.000158
1631	1.6219e+02	-15.0782	-84.763702	0.000385	3.850085	1.304444	0.000154
1632	1.6228e+02	-15.0333	-84.634514	0.000324	3.242177	1.098479	0.000130
1633	1.6238e+02	-14.9948	-84.505325	0.000324	3.242177	1.098479	0.000130
1634	1.6248e+02	-14.9482	-84.368063	0.000344	3.444813	1.167134	0.000138
1635	1.6258e+02	-14.9226	-84.198503	0.000426	4.255358	1.441754	0.000170
1636	1.6268e+02	-14.8728	-84.081426	0.000294	2.938223	0.995497	0.000118
1637	1.6278e+02	-14.8311	-83.915903	0.000415	4.154039	1.407427	0.000166
1638	1.6288e+02	-14.7942	-83.766529	0.000375	3.748767	1.270117	0.000150
1639	1.6298e+02	-14.7477	-83.629267	0.000344	3.444813	1.167134	0.000138
1640	1.6308e+02	-14.7092	-83.496041	0.000334	3.343495	1.132807	0.000134
1641	1.6318e+02	-14.6723	-83.334556	0.000405	4.052721	1.373099	0.000162
1642	1.6328e+02	-14.6338	-83.217479	0.000294	2.938223	0.995497	0.000118
1643	1.6338e+02	-14.5921	-83.051956	0.000415	4.154039	1.407427	0.000166
1644	1.6348e+02	-14.5456	-82.906620	0.000365	3.647449	1.235789	0.000146
1645	1.6358e+02	-14.5039	-82.757245	0.000375	3.748767	1.270117	0.000150
1646	1.6368e+02	-14.4718	-82.632094	0.000314	3.140859	1.064152	0.000126
1647	1.6378e+02	-14.4285	-82.490795	0.000355	3.546131	1.201462	0.000142
1648	1.6388e+02	-14.3900	-82.369680	0.000304	3.039541	1.029824	0.000122
1649	1.6398e+02	-14.3595	-82.200121	0.000426	4.255358	1.441754	0.000170
1650	1.6408e+02	-14.3114	-82.030561	0.000426	4.255358	1.441754	0.000170
1651	1.6418e+02	-14.2680	-81.925596	0.000263	2.634269	0.892514	0.000105
1652	1.6427e+02	-14.2295	-81.735850	0.000476	4.761948	1.613392	0.000191
1653	1.6437e+02	-14.1894	-81.614736	0.000304	3.039541	1.029824	0.000122
1654	1.6447e+02	-14.1638	-81.473436	0.000355	3.546131	1.201462	0.000142
1655	1.6457e+02	-14.1140	-81.340211	0.000334	3.343495	1.132807	0.000134
1656	1.6467e+02	-14.0723	-81.170651	0.000426	4.255358	1.441754	0.000170
1657	1.6477e+02	-14.0354	-81.037426	0.000334	3.343495	1.132807	0.000134
1658	1.6487e+02	-13.9905	-80.904200	0.000334	3.343495	1.132807	0.000134
1659	1.6497e+02	-13.9456	-80.718492	0.000466	4.660630	1.579064	0.000187
1660	1.6507e+02	-13.9215	-80.569118	0.000375	3.748767	1.270117	0.000150
1661	1.6517e+02	-13.8782	-80.411670	0.000395	3.951403	1.338772	0.000158
1662	1.6527e+02	-13.8349	-80.258258	0.000385	3.850085	1.304444	0.000154
1663	1.6537e+02	-13.7900	-80.112922	0.000365	3.647449	1.235789	0.000146
1664	1.6547e+02	-13.7579	-80.007956	0.000263	2.634269	0.892514	0.000105
1665	1.6557e+02	-13.7162	-79.834359	0.000436	4.356676	1.476082	0.000174
1666	1.6567e+02	-13.6745	-79.701134	0.000334	3.343495	1.132807	0.000134
1667	1.6577e+02	-13.6360	-79.551760	0.000375	3.748767	1.270117	0.000150
1668	1.6587e+02	-13.5895	-79.374126	0.000446	4.457994	1.510409	0.000179
1669	1.6597e+02	-13.5526	-79.188418	0.000466	4.660630	1.579064	0.000187
1670	1.6607e+02	-13.5125	-79.022895	0.000415	4.154039	1.407427	0.000166
1671	1.6616e+02	-13.4691	-78.930041	0.000233	2.330315	0.789532	0.000093
1672	1.6626e+02	-13.4354	-78.748370	0.000456	4.559312	1.544737	0.000183
1673	1.6636e+02	-13.3986	-78.574773	0.000436	4.356676	1.476082	0.000174
1674	1.6646e+02	-13.3552	-78.429436	0.000365	3.647449	1.235789	0.000146
1675	1.6656e+02	-13.3151	-78.308322	0.000304	3.039541	1.029824	0.000122
1676	1.6666e+02	-13.2798	-78.183171	0.000314	3.140859	1.064152	0.000126
1677	1.6676e+02	-13.2429	-77.993425	0.000476	4.761948	1.613392	0.000191
1678	1.6686e+02	-13.1996	-77.876348	0.000294	2.938223	0.995497	0.000118
1679	1.6696e+02	-13.1531	-77.702752	0.000436	4.356676	1.476082	0.000174
1680	1.6706e+02	-13.1242	-77.553378	0.000375	3.748767	1.270117	0.000150
1681	1.6716e+02	-13.0761	-77.399966	0.000385	3.850085	1.304444	0.000154
1682	1.6726e+02	-13.0376	-77.262704	0.000344	3.444813	1.167134	0.000138
1683	1.6736e+02	-12.9943	-77.105255	0.000395	3.951403	1.338772	0.000158
1684	1.6746e+02	-12.9590	-76.935696	0.000426	4.255358	1.441754	0.000170
1685	1.6756e+02	-12.9173	-76.770173	0.000415	4.154039	1.407427	0.000166
1686	1.6766e+02	-12.8788	-76.657133	0.000284	2.836905	0.961169	0.000114
1687	1.6776e+02	-12.8419	-76.503722	0.000385	3.850085	1.304444	0.000154
1688	1.6786e+02	-12.8050	-76.334163	0.000426	4.255358	1.441754	0.000170
1689	1.6796e+02	-12.7617	-76.176714	0.000395	3.951403	1.338772	0.000158
1690	1.6806e+02	-12.7151	-76.023303	0.000385	3.850085	1.304444	0.000154
1691	1.6816e+02	-12.6783	-75.918338	0.000263	2.634269	0.892514	0.000105
1692	1.6825e+02	-12.6381	-75.728592	0.000476	4.761948	1.613392	0.000191
1693	1.6835e+02	-12.6061	-75.518661	0.000527	5.268538	1.785029	0.000211
1694	1.6845e+02	-12.5627	-75.417733	0.000253	2.532951	0.858187	0.000101
1695	1.6855e+02	-12.5162	-75.276433	0.000355	3.546131	1.201462	0.000142
1696	1.6865e+02	-12.4745	-75.114948	0.000405	4.052721	1.373099	0.000162
1697	1.6875e+02	-12.4456	-74.977685	0.000344	3.444813	1.167134	0.000138
1698	1.6885e+02	-12.3959	-74.864645	0.000284	2.836905	0.961169	0.000114
1699	1.6895e+02	-12.3542	-74.614343	0.000628	6.281718	2.128304	0.000252
1700	1.6905e+02	-12.3189	-74.469006	0.000365	3.647449	1.235789	0.000146
1701	1.6915e+02	-12.2852	-74.343855	0.000314	3.140859	1.064152	0.000126
1702	1.6925e+02	-12.2419	-74.214666	0.000324	3.242177	1.098479	0.000130
1703	1.6935e+02	-12.2050	-74.041069	0.000436	4.356676	1.476082	0.000174
1704	1.6945e+02	-12.1617	-73.915918	0.000314	3.140859	1.064152	0.000126
1705	1.6955e+02	-12.1136	-73.746359	0.000426	4.255358	1.441754	0.000170
1706	1.6965e+02	-12.0847	-73.564687	0.000456	4.559312	1.544737	0.000183
1707	1.6975e+02	-12.0350	-73.419351	0.000365	3.647449	1.235789	0.000146
1708	1.6985e+02	-11.9981	-73.274014	0.000365	3.647449	1.235789	0.000146
1709	1.6995e+02	-11.9660	-73.144825	0.000324	3.242177	1.098479	0.000130
1710	1.7005e+02	-11.9211	-72.979303	0.000415	4.154039	1.407427	0.000166
1711	1.7015e+02	-11.8826	-72.805706	0.000436	4.356676	1.476082	0.000174
1712	1.7024e+02	-11.8441	-72.656332	0.000375	3.748767	1.270117	0.000150
1713	1.7034e+02	-11.7991	-72.490809	0.000415	4.154039	1.407427	0.000166
1714	1.7044e+02	-11.7638	-72.357584	0.000334	3.343495	1.132807	0.000134
1715	1.7054e+02	-11.7253	-72.212247	0.000365	3.647449	1.235789	0.000146
1716	1.7064e+02	-11.6788	-72.002316	0.000527	5.268538	1.785029	0.000211
1717	1.7074e+02	-11.6515	-71.832756	0.000426	4.255358	1.441754	0.000170
1718	1.7084e+02	-11.6050	-71.707605	0.000314	3.140859	1.064152	0.000126
1719	1.7094e+02	-11.5697	-71.538045	0.000426	4.255358	1.441754	0.000170
1720	1.7104e+02	-11.5152	-71.396746	0.000355	3.546131	1.201462	0.000142
1721	1.7114e+02	-11.4895	-71.275631	0.000304	3.039541	1.029824	0.000122
1722	1.7124e+02	-11.4430	-71.077812	0.000496	4.964584	1.682047	0.000199
1723	1.7134e+02	-11.4013	-70.896141	0.000456	4.559312	1.544737	0.000183
1724	1.7144e+02	-11.3724	-70.746767	0.000375	3.748767	1.270117	0.000150
1725	1.7154e+02	-11.3227	-70.569133	0.000446	4.457994	1.510409	0.000179
1726	1.7164e+02	-11.2922	-70.419759	0.000375	3.748767	1.270117	0.000150
1727	1.7174e+02	-11.2505	-70.282496	0.000344	3.444813	1.167134	0.000138
1728	1.7184e+02	-11.2008	-70.100825	0.000456	4.559312	1.544737	0.000183
1729	1.7194e+02	-11.1719	-69.923191	0.000446	4.457994	1.510409	0.000179
1730	1.7204e+02	-11.1334	-69.789966	0.000334	3.343495	1.132807	0.000134
1731	1.7213e+02	-11.0836	-69.608294	0.000456	4.559312	1.544737	0.000183
1732	1.7223e+02	-11.0435	-69.438735	0.000426	4.255358	1.441754	0.000170
1733	1.7233e+02	-11.0115	-69.257064	0.000456	4.559312	1.544737	0.000183
1734	1.7243e+02	-10.9601	-69.119801	0.000344	3.444813	1.167134	0.000138
1735	1.7253e+02	-10.9280	-68.950241	0.000426	4.255358	1.441754	0.000170
1736	1.7263e+02	-10.8895	-68.804904	0.000365	3.647449	1.235789	0.000146
1737	1.7273e+02	-10.8398	-68.639382	0.000415	4.154039	1.407427	0.000166
1738	1.7283e+02	-10.8093	-68.473859	0.000415	4.154039	1.407427	0.000166
1739	1.7293e+02	-10.7612	-68.304300	0.000426	4.255358	1.441754	0.000170
1740	1.7303e+02	-10.7195	-68.154926	0.000375	3.748767	1.270117	0.000150
1741	1.7313e+02	-10.6922	-67.953069	0.000507	5.065902	1.716374	0.000203
1742	1.7323e+02	-10.6425	-67.807732	0.000365	3.647449	1.235789	0.000146
1743	1.7333e+02	-10.5944	-67.613949	0.000486	4.863266	1.647719	0.000195
1744	1.7343e+02	-10.5607	-67.464575	0.000375	3.748767	1.270117	0.000150
1745	1.7353e+02	-10.5206	-67.355573	0.000274	2.735587	0.926842	0.000110
1746	1.7363e+02	-10.4901	-67.145642	0.000527	5.268538	1.785029	0.000211
1747	1.7373e+02	-10.4516	-66.992230	0.000385	3.850085	1.304444	0.000154
1748	1.7383e+02	-10.4083	-66.814596	0.000446	4.457994	1.510409	0.000179
1749	1.7393e+02	-10.3682	-66.669260	0.000365	3.647449	1.235789	0.000146
1750	1.7403e+02	-10.3232	-66.463366	0.000517	5.167220	1.750701	0.000207
1751	1.7413e+02	-10.2831	-66.313992	0.000375	3.748767	1.270117	0.000150
1752	1.7422e+02	-10.2478	-66.140395	0.000436	4.356676	1.476082	0.000174
1753	1.7432e+02	-10.2125	-65.966798	0.000436	4.356676	1.476082	0.000174
1754	1.7442e+02	-10.1724	-65.805313	0.000405	4.052721	1.373099	0.000162
1755	1.7452e+02	-10.1259	-65.583270	0.000557	5.572492	1.888011	0.000223
1756	1.7462e+02	-10.0842	-65.514639	0.000172	1.722407	0.583567	0.000069
1757	1.7472e+02	-10.0457	-65.300671	0.000537	5.369856	1.819356	0.000215
1758	1.7482e+02	-10.0120	-65.147259	0.000385	3.850085	1.304444	0.000154
1759	1.7492e+02	-9.9655	-64.981737	0.000415	4.154039	1.407427	0.000166
1760	1.7502e+02	-9.9302	-64.828326	0.000385	3.850085	1.304444	0.000154
1761	1.7512e+02	-9.8965	-64.594172	0.000588	5.876446	1.990994	0.000235
1762	1.7522e+02	-9.8516	-64.440761	0.000385	3.850085	1.304444	0.000154
1763	1.7532e+02	-9.8051	-64.291387	0.000375	3.748767	1.270117	0.000150
1764	1.7542e+02	-9.7778	-64.117790	0.000436	4.356676	1.476082	0.000174
1765	1.7552e+02	-9.7281	-63.956304	0.000405	4.052721	1.373099	0.000162
1766	1.7562e+02	-9.6944	-63.798856	0.000395	3.951403	1.338772	0.000158
1767	1.7572e+02	-9.6479	-63.576814	0.000557	5.572492	1.888011	0.000223
1768	1.7582e+02	-9.6142	-63.431477	0.000365	3.647449	1.235789	0.000146
1769	1.7592e+02	-9.5789	-63.229620	0.000507	5.065902	1.716374	0.000203
1770	1.7602e+02	-9.5307	-63.088320	0.000355	3.546131	1.201462	0.000142
1771	1.7612e+02	-9.4874	-62.902612	0.000466	4.660630	1.579064	0.000187
1772	1.7621e+02	-9.4537	-62.720941	0.000456	4.559312	1.544737	0.000183
1773	1.7631e+02	-9.4088	-62.555418	0.000415	4.154039	1.407427	0.000166
1774	1.7641e+02	-9.3671	-62.349524	0.000517	5.167220	1.750701	0.000207
1775	1.7651e+02	-9.3382	-62.184002	0.000415	4.154039	1.407427	0.000166
1776	1.7661e+02	-9.2837	-61.994256	0.000476	4.761948	1.613392	0.000191
1777	1.7671e+02	-9.2500	-61.836808	0.000395	3.951403	1.338772	0.000158
1778	1.7681e+02	-9.2083	-61.675323	0.000405	4.052721	1.373099	0.000162
1779	1.7691e+02	-9.1762	-61.481540	0.000486	4.863266	1.647719	0.000195
1780	1.7701e+02	-9.1329	-61.279683	0.000507	5.065902	1.716374	0.000203
1781	1.7711e+02	-9.0976	-61.130309	0.000375	3.748767	1.270117	0.000150
1782	1.7721e+02	-9.0575	-60.972861	0.000395	3.951403	1.338772	0.000158
1783	1.7731e+02	-9.0174	-60.754856	0.000547	5.471174	1.853684	0.000219
1784	1.7741e+02	-8.9757	-60.548962	0.000517	5.167220	1.750701	0.000207
1785	1.7751e+02	-8.9324	-60.391514	0.000395	3.951403	1.338772	0.000158
1786	1.7761e+02	-8.8955	-60.185620	0.000517	5.167220	1.750701	0.000207
1787	1.7771e+02	-8.8602	-60.052394	0.000334	3.343495	1.132807	0.000134
1788	1.7781e+02	-8.8137	-59.838426	0.000537	5.369856	1.819356	0.000215
1789	1.7791e+02	-8.7864	-59.636569	0.000507	5.065902	1.716374	0.000203
1790	1.7801e+02	-8.7399	-59.527566	0.000274	2.735587	0.926842	0.000110
1791	1.7810e+02	-8.6917	-59.297450	0.000578	5.775128	1.956666	0.000231
1792	1.7820e+02	-8.6468	-59.087519	0.000527	5.268538	1.785029	0.000211
1793	1.7830e+02	-8.6115	-58.946219	0.000355	3.546131	1.201462	0.000142
1794	1.7840e+02	-8.5698	-58.756474	0.000476	4.761948	1.613392	0.000191
1795	1.7850e+02	-8.5361	-58.607100	0.000375	3.748767	1.270117	0.000150
1796	1.7860e+02	-8.4896	-58.389094	0.000547	5.471174	1.853684	0.000219
1797	1.7870e+02	-8.4591	-58.215497	0.000436	4.356676	1.476082	0.000174
1798	1.7880e+02	-8.4094	-58.058049	0.000395	3.951403	1.338772	0.000158
1799	1.7890e+02	-8.3741	-57.840044	0.000547	5.471174	1.853684	0.000219
1800	1.7900e+02	-8.3388	-57.654335	0.000466	4.660630	1.579064	0.000187
1801	1.7910e+02	-8.2939	-57.496887	0.000395	3.951403	1.338772	0.000158
1802	1.7920e+02	-8.2458	-57.307142	0.000476	4.761948	1.613392	0.000191
1803	1.7930e+02	-8.2185	-57.157768	0.000375	3.748767	1.270117	0.000150
1804	1.7940e+02	-8.1832	-56.931688	0.000567	5.673810	1.922339	0.000227
1805	1.7950e+02	-8.1319	-56.770203	0.000405	4.052721	1.373099	0.000162
1806	1.7960e+02	-8.0950	-56.604680	0.000415	4.154039	1.407427	0.000166
1807	1.7970e+02	-8.0516	-56.390712	0.000537	5.369856	1.819356	0.000215
1808	1.7980e+02	-8.0212	-56.225189	0.000415	4.154039	1.407427	0.000166
1809	1.7990e+02	-7.9875	-56.047555	0.000446	4.457994	1.510409	0.000179
1810	1.8000e+02	-7.9345	-55.865884	0.000456	4.559312	1.544737	0.000183
1811	1.8009e+02	-7.9057	-55.659990	0.000517	5.167220	1.750701	0.000207
1812	1.8019e+02	-7.8575	-55.474282	0.000466	4.660630	1.579064	0.000187
1813	1.8029e+02	-7.8222	-55.292611	0.000456	4.559312	1.544737	0.000183
1814	1.8039e+02	-7.7789	-55.094791	0.000496	4.964584	1.682047	0.000199
1815	1.8049e+02	-7.7372	-54.913120	0.000456	4.559312	1.544737	0.000183
1816	1.8059e+02	-7.6955	-54.711264	0.000507	5.065902	1.716374	0.000203
1817	1.8069e+02	-7.6602	-54.553815	0.000395	3.951403	1.338772	0.000158
1818	1.8079e+02	-7.6169	-54.368107	0.000466	4.660630	1.579064	0.000187
1819	1.8089e+02	-7.5768	-54.210659	0.000395	3.951403	1.338772	0.000158
1820	1.8099e+02	-7.5399	-54.004765	0.000517	5.167220	1.750701	0.000207
1821	1.8109e+02	-7.4998	-53.806945	0.000496	4.964584	1.682047	0.000199
1822	1.8119e+02	-7.4597	-53.572791	0.000588	5.876446	1.990994	0.000235
1823	1.8129e+02	-7.4180	-53.447640	0.000314	3.140859	1.064152	0.000126
1824	1.8139e+02	-7.3763	-53.270006	0.000446	4.457994	1.510409	0.000179
1825	1.8149e+02	-7.3346	-53.056038	0.000537	5.369856	1.819356	0.000215
1826	1.8159e+02	-7.2944	-52.894552	0.000405	4.052721	1.373099	0.000162
1827	1.8169e+02	-7.2511	-52.668473	0.000567	5.673810	1.922339	0.000227
1828	1.8179e+02	-7.2239	-52.478727	0.000476	4.761948	1.613392	0.000191
1829	1.8189e+02	-7.1741	-52.293019	0.000466	4.660630	1.579064	0.000187
1830	1.8199e+02	-7.1308	-52.079051	0.000537	5.369856	1.819356	0.000215
1831	1.8209e+02	-7.0923	-51.941788	0.000344	3.444813	1.167134	0.000138
1832	1.8218e+02	-7.0570	-51.691486	0.000628	6.281718	2.128304	0.000252
1833	1.8228e+02	-7.0169	-51.505778	0.000466	4.660630	1.579064	0.000187
1834	1.8238e+02	-6.9848	-51.320070	0.000466	4.660630	1.579064	0.000187
1835	1.8248e+02	-6.9399	-51.130324	0.000476	4.761948	1.613392	0.000191
1836	1.8258e+02	-6.8982	-50.940579	0.000476	4.761948	1.613392	0.000191
1837	1.8268e+02	-6.8597	-50.746796	0.000486	4.863266	1.647719	0.000195
1838	1.8278e+02	-6.8180	-50.548977	0.000496	4.964584	1.682047	0.000199
1839	1.8288e+02	-6.7827	-50.330971	0.000547	5.471174	1.853684	0.000219
1840	1.8298e+02	-6.7410	-50.121040	0.000527	5.268538	1.785029	0.000211
1841	1.8308e+02	-6.7041	-49.947443	0.000436	4.356676	1.476082	0.000174
1842	1.8318e+02	-6.6704	-49.802106	0.000365	3.647449	1.235789	0.000146
1843	1.8328e+02	-6.6207	-49.539693	0.000659	6.585672	2.231286	0.000264
1844	1.8338e+02	-6.5918	-49.378207	0.000405	4.052721	1.373099	0.000162
1845	1.8348e+02	-6.5437	-49.172313	0.000517	5.167220	1.750701	0.000207
1846	1.8358e+02	-6.5068	-49.026976	0.000365	3.647449	1.235789	0.000146
1847	1.8368e+02	-6.4667	-48.792823	0.000588	5.876446	1.990994	0.000235
1848	1.8378e+02	-6.4282	-48.639411	0.000385	3.850085	1.304444	0.000154
1849	1.8388e+02	-6.3913	-48.429480	0.000527	5.268538	1.785029	0.000211
1850	1.8398e+02	-6.3463	-48.219549	0.000527	5.268538	1.785029	0.000211
1851	1.8407e+02	-6.3094	-48.005581	0.000537	5.369856	1.819356	0.000215
1852	1.8417e+02	-6.2709	-47.844096	0.000405	4.052721	1.373099	0.000162
1853	1.8427e+02	-6.2292	-47.646276	0.000496	4.964584	1.682047	0.000199
1854	1.8437e+02	-6.1875	-47.424234	0.000557	5.572492	1.888011	0.000223
1855	1.8447e+02	-6.1394	-47.234488	0.000476	4.761948	1.613392	0.000191
1856	1.8457e+02	-6.1105	-47.073003	0.000405	4.052721	1.373099	0.000162
1857	1.8467e+02	-6.0688	-46.850960	0.000557	5.572492	1.888011	0.000223
1858	1.8477e+02	-6.0239	-46.681401	0.000426	4.255358	1.441754	0.000170
1859	1.8487e+02	-5.9902	-46.431098	0.000628	6.281718	2.128304	0.000252
1860	1.8497e+02	-5.9565	-46.289798	0.000355	3.546131	1.201462	0.000142
1861	1.8507e+02	-5.9052	-46.079867	0.000527	5.268538	1.785029	0.000211
1862	1.8517e+02	-5.8667	-45.869936	0.000527	5.268538	1.785029	0.000211
1863	1.8527e+02	-5.8234	-45.643857	0.000567	5.673810	1.922339	0.000227
1864	1.8537e+02	-5.7768	-45.494483	0.000375	3.748767	1.270117	0.000150
1865	1.8547e+02	-5.7544	-45.284552	0.000527	5.268538	1.785029	0.000211
1866	1.8557e+02	-5.7127	-45.074621	0.000527	5.268538	1.785029	0.000211
1867	1.8567e+02	-5.6662	-44.832392	0.000608	6.079082	2.059649	0.000243
1868	1.8577e+02	-5.6260	-44.678981	0.000385	3.850085	1.304444	0.000154
1869	1.8587e+02	-5.5827	-44.481162	0.000496	4.964584	1.682047	0.000199
1870	1.8597e+02	-5.5458	-44.287379	0.000486	4.863266	1.647719	0.000195
1871	1.8606e+02	-5.4977	-44.073411	0.000537	5.369856	1.819356	0.000215
1872	1.8616e+02	-5.4752	-43.911925	0.000405	4.052721	1.373099	0.000162
1873	1.8626e+02	-5.4287	-43.697957	0.000537	5.369856	1.819356	0.000215
1874	1.8636e+02	-5.3886	-43.455729	0.000608	6.079082	2.059649	0.000243
1875	1.8646e+02	-5.3533	-43.253872	0.000507	5.065902	1.716374	0.000203
1876	1.8656e+02	-5.3004	-43.092387	0.000405	4.052721	1.373099	0.000162
1877	1.8666e+02	-5.2667	-42.854196	0.000598	5.977764	2.025321	0.000239
1878	1.8676e+02	-5.2330	-42.664450	0.000476	4.761948	1.613392	0.000191
1879	1.8686e+02	-5.1945	-42.490854	0.000436	4.356676	1.476082	0.000174
1880	1.8696e+02	-5.1512	-42.248625	0.000608	6.079082	2.059649	0.000243
1881	1.8706e+02	-5.1143	-42.075029	0.000436	4.356676	1.476082	0.000174
1882	1.8716e+02	-5.0726	-41.844912	0.000578	5.775128	1.956666	0.000231
1883	1.8726e+02	-5.0261	-41.687464	0.000395	3.951403	1.338772	0.000158
1884	1.8736e+02	-4.9844	-41.461384	0.000567	5.673810	1.922339	0.000227
1885	1.8746e+02	-4.9507	-41.223193	0.000598	5.977764	2.025321	0.000239
1886	1.8756e+02	-4.9154	-41.009225	0.000537	5.369856	1.819356	0.000215
1887	1.8766e+02	-4.8721	-40.819479	0.000476	4.761948	1.613392	0.000191
1888	1.8776e+02	-4.8319	-40.617623	0.000507	5.065902	1.716374	0.000203
1889	1.8786e+02	-4.7822	-40.363283	0.000638	6.383036	2.162631	0.000256
1890	1.8796e+02	-4.7533	-40.169501	0.000486	4.863266	1.647719	0.000195
1891	1.8806e+02	-4.7164	-39.979755	0.000476	4.761948	1.613392	0.000191
1892	1.8815e+02	-4.6795	-39.806158	0.000436	4.356676	1.476082	0.000174
1893	1.8825e+02	-4.6314	-39.584116	0.000557	5.572492	1.888011	0.000223
1894	1.8835e+02	-4.5897	-39.374185	0.000527	5.268538	1.785029	0.000211
1895	1.8845e+02	-4.5560	-39.164254	0.000527	5.268538	1.785029	0.000211
1896	1.8855e+02	-4.5159	-38.934137	0.000578	5.775128	1.956666	0.000231
1897	1.8865e+02	-4.4790	-38.720169	0.000537	5.369856	1.819356	0.000215
1898	1.8875e+02	-4.4293	-38.522349	0.000496	4.964584	1.682047	0.000199
1899	1.8885e+02	-4.3940	-38.296270	0.000567	5.673810	1.922339	0.000227
1900	1.8895e+02	-4.3555	-38.118636	0.000446	4.457994	1.510409	0.000179
1901	1.8905e+02	-4.3170	-37.844110	0.000689	6.889626	2.334269	0.000276
1902	1.8915e+02	-4.2753	-37.686662	0.000395	3.951403	1.338772	0.000158
1903	1.8925e+02	-4.2448	-37.460583	0.000567	5.673810	1.922339	0.000227
1904	1.8935e+02	-4.1967	-37.246614	0.000537	5.369856	1.819356	0.000215
1905	1.8945e+02	-4.1453	-37.008423	0.000598	5.977764	2.025321	0.000239
1906	1.8955e+02	-4.1116	-36.830789	0.000446	4.457994	1.510409	0.000179
1907	1.8965e+02	-4.0764	-36.572413	0.000648	6.484354	2.196959	0.000260
1908	1.8975e+02	-4.0475	-36.390742	0.000456	4.559312	1.544737	0.000183
1909	1.8985e+02	-4.0026	-36.164662	0.000567	5.673810	1.922339	0.000227
1910	1.8995e+02	-3.9464	-35.982991	0.000456	4.559312	1.544737	0.000183
1911	1.9004e+02	-3.9095	-35.720577	0.000659	6.585672	2.231286	0.000264
1912	1.9014e+02	-3.8662	-35.514683	0.000517	5.167220	1.750701	0.000207
1913	1.9024e+02	-3.8309	-35.292641	0.000557	5.572492	1.888011	0.000223
1914	1.9034e+02	-3.7860	-35.106932	0.000466	4.660630	1.579064	0.000187
1915	1.9044e+02	-3.7587	-34.872779	0.000588	5.876446	1.990994	0.000235
1916	1.9054e+02	-3.7138	-34.654773	0.000547	5.471174	1.853684	0.000219
1917	1.9064e+02	-3.6705	-34.432731	0.000557	5.572492	1.888011	0.000223
1918	1.9074e+02	-3.6400	-34.230874	0.000507	5.065902	1.716374	0.000203
1919	1.9084e+02	-3.5935	-34.020943	0.000527	5.268538	1.785029	0.000211
1920	1.9094e+02	-3.5566	-33.790826	0.000578	5.775128	1.956666	0.000231
1921	1.9104e+02	-3.5165	-33.568784	0.000557	5.572492	1.888011	0.000223
1922	1.9114e+02	-3.4828	-33.342704	0.000567	5.673810	1.922339	0.000227
1923	1.9124e+02	-3.4411	-33.132773	0.000527	5.268538	1.785029	0.000211
1924	1.9134e+02	-3.3994	-32.870359	0.000659	6.585672	2.231286	0.000264
1925	1.9144e+02	-3.3512	-32.672540	0.000496	4.964584	1.682047	0.000199
1926	1.9154e+02	-3.3192	-32.494906	0.000446	4.457994	1.510409	0.000179
1927	1.9164e+02	-3.2694	-32.232492	0.000659	6.585672	2.231286	0.000264
1928	1.9174e+02	-3.2341	-32.010449	0.000557	5.572492	1.888011	0.000223
1929	1.9184e+02	-3.2004	-31.772258	0.000598	5.977764	2.025321	0.000239
1930	1.9194e+02	-3.1507	-31.554253	0.000547	5.471174	1.853684	0.000219
1931	1.9203e+02	-3.1266	-31.348359	0.000517	5.167220	1.750701	0.000207
1932	1.9213e+02	-3.0721	-31.118242	0.000578	5.775128	1.956666	0.000231
1933	1.9223e+02	-3.0336	-30.876014	0.000608	6.079082	2.059649	0.000243
1934	1.9233e+02	-3.0015	-30.637823	0.000598	5.977764	2.025321	0.000239
1935	1.9243e+02	-2.9598	-30.440003	0.000496	4.964584	1.682047	0.000199
1936	1.9253e+02	-2.9197	-30.185664	0.000638	6.383036	2.162631	0.000256
1937	1.9263e+02	-2.8796	-29.963621	0.000557	5.572492	1.888011	0.000223
1938	1.9273e+02	-2.8379	-29.765802	0.000496	4.964584	1.682047	0.000199
1939	1.9283e+02	-2.7914	-29.491277	0.000689	6.889626	2.334269	0.000276
1940	1.9293e+02	-2.7577	-29.281346	0.000527	5.268538	1.785029	0.000211
1941	1.9303e+02	-2.7176	-29.031043	0.000628	6.281718	2.128304	0.000252
1942	1.9313e+02	-2.6839	-28.845335	0.000466	4.660630	1.579064	0.000187
1943	1.9323e+02	-2.6358	-28.574847	0.000679	6.788308	2.299941	0.000272
1944	1.9333e+02	-2.5956	-28.348767	0.000567	5.673810	1.922339	0.000227
1945	1.9343e+02	-2.5636	-28.074242	0.000689	6.889626	2.334269	0.000276
1946	1.9353e+02	-2.5186	-27.888534	0.000466	4.660630	1.579064	0.000187
1947	1.9363e+02	-2.4817	-27.605934	0.000709	7.092263	2.402924	0.000284
1948	1.9373e+02	-2.4465	-27.383892	0.000557	5.572492	1.888011	0.000223
1949	1.9383e+02	-2.4080	-27.153775	0.000578	5.775128	1.956666	0.000231
1950	1.9393e+02	-2.3582	-26.935770	0.000547	5.471174	1.853684	0.000219
1951	1.9403e+02	-2.3197	-26.701616	0.000588	5.876446	1.990994	0.000235
1952	1.9412e+02	-2.2812	-26.435165	0.000669	6.686990	2.265614	0.000268
1953	1.9422e+02	-2.2331	-26.196974	0.000598	5.977764	2.025321	0.000239
1954	1.9432e+02	-2.2074	-26.003191	0.000486	4.863266	1.647719	0.000195
1955	1.9442e+02	-2.1641	-25.720592	0.000709	7.092263	2.402924	0.000284
1956	1.9452e+02	-2.1176	-25.486438	0.000588	5.876446	1.990994	0.000235
1957	1.9462e+02	-2.0759	-25.232098	0.000638	6.383036	2.162631	0.000256
1958	1.9472e+02	-2.0550	-24.993907	0.000598	5.977764	2.025321	0.000239
1959	1.9482e+02	-1.9957	-24.727456	0.000669	6.686990	2.265614	0.000268
1960	1.9492e+02	-1.9620	-24.553860	0.000436	4.356676	1.476082	0.000174
1961	1.9502e+02	-1.9235	-24.226852	0.000821	8.206761	2.780526	0.000329
1962	1.9512e+02	-1.8770	-24.008846	0.000547	5.471174	1.853684	0.000219
1963	1.9522e+02	-1.8465	-23.790841	0.000547	5.471174	1.853684	0.000219
1964	1.9532e+02	-1.7935	-23.508241	0.000709	7.092263	2.402924	0.000284
1965	1.9542e+02	-1.7550	-23.261976	0.000618	6.180400	2.093976	0.000248
1966	1.9552e+02	-1.7246	-23.060119	0.000507	5.065902	1.716374	0.000203
1967	1.9562e+02	-1.6877	-22.789631	0.000679	6.788308	2.299941	0.000272
1968	1.9572e+02	-1.6347	-22.587774	0.000507	5.065902	1.716374	0.000203
1969	1.9582e+02	-1.6058	-22.309212	0.000699	6.990944	2.368596	0.000280
1970	1.9592e+02	-1.5689	-22.058910	0.000628	6.281718	2.128304	0.000252
1971	1.9601e+02	-1.5272	-21.828793	0.000578	5.775128	1.956666	0.000231
1972	1.9611e+02	-1.4855	-21.566379	0.000659	6.585672	2.231286	0.000264
1973	1.9621e+02	-1.4326	-21.303965	0.000659	6.585672	2.231286	0.000264
1974	1.9631e+02	-1.4053	-21.094034	0.000527	5.268538	1.785029	0.000211
1975	1.9641e+02	-1.3620	-20.867955	0.000567	5.673810	1.922339	0.000227
1976	1.9651e+02	-1.3219	-20.593429	0.000689	6.889626	2.334269	0.000276
1977	1.9661e+02	-1.2930	-20.343127	0.000628	6.281718	2.128304	0.000252
1978	1.9671e+02	-1.2417	-20.068602	0.000689	6.889626	2.334269	0.000276
1979	1.9681e+02	-1.2048	-19.830411	0.000598	5.977764	2.025321	0.000239
1980	1.9691e+02	-1.1631	-19.567997	0.000659	6.585672	2.231286	0.000264
1981	1.9701e+02	-1.1214	-19.329806	0.000598	5.977764	2.025321	0.000239
1982	1.9711e+02	-1.0925	-19.067392	0.000659	6.585672	2.231286	0.000264
1983	1.9721e+02	-1.0444	-18.833238	0.000588	5.876446	1.990994	0.000235
1984	1.9731e+02	-1.0010	-18.550639	0.000709	7.092263	2.402924	0.000284
1985	1.9741e+02	-0.9674	-18.296299	0.000638	6.383036	2.162631	0.000256
1986	1.9751e+02	-0.9305	-18.050034	0.000618	6.180400	2.093976	0.000248
1987	1.9761e+02	-0.8807	-17.807806	0.000608	6.079082	2.059649	0.000243
1988	1.9771e+02	-0.8406	-17.537318	0.000679	6.788308	2.299941	0.000272
1989	1.9781e+02	-0.8085	-17.295090	0.000608	6.079082	2.059649	0.000243
1990	1.9791e+02	-0.7636	-17.032676	0.000659	6.585672	2.231286	0.000264
1991	1.9800e+02	-0.7235	-16.802559	0.000578	5.775128	1.956666	0.000231
1992	1.9810e+02	-0.6914	-16.540145	0.000659	6.585672	2.231286	0.000264
1993	1.9820e+02	-0.6529	-16.249471	0.000729	7.294899	2.471579	0.000292
1994	1.9830e+02	-0.6128	-15.983020	0.000669	6.686990	2.265614	0.000268
1995	1.9840e+02	-0.5647	-15.748867	0.000588	5.876446	1.990994	0.000235
1996	1.9850e+02	-0.5246	-15.494527	0.000638	6.383036	2.162631	0.000256
1997	1.9860e+02	-0.4909	-15.215965	0.000699	6.990944	2.368596	0.000280
1998	1.9870e+02	-0.4460	-14.941439	0.000689	6.889626	2.334269	0.000276
1999	1.9880e+02	-0.4075	-14.658840	0.000709	7.092263	2.402924	0.000284
2000	1.9890e+02	-0.3706	-14.420649	0.000598	5.977764	2.025321	0.000239
2001	1.9900e+02	-0.3192	-14.178421	0.000608	6.079082	2.059649	0.000243
2002	1.9910e+02	-0.2823	-13.899858	0.000699	6.990944	2.368596	0.000280
2003	1.9920e+02	-0.2503	-13.661667	0.000598	5.977764	2.025321	0.000239
2004	1.9930e+02	-0.2053	-13.383105	0.000699	6.990944	2.368596	0.000280
2005	1.9940e+02	-0.1717	-13.136840	0.000618	6.180400	2.093976	0.000248
2006	1.9950e+02	-0.1364	-12.898649	0.000598	5.977764	2.025321	0.000239
2007	1.9960e+02	-0.0930	-12.591826	0.000770	7.700171	2.608888	0.000308
2008	1.9970e+02	-0.0545	-12.317301	0.000689	6.889626	2.334269	0.000276
2009	1.9980e+02	-0.0112	-12.038739	0.000689	6.889626	2.334269	0.000280

Center data before PMax,+/-Pr and +/-Vc Calc.

PMax (uC/cm2):	9.92e+01
Pr (uC/cm2):	6.54e+00
-Pr (uC/cm2):	-1.20e+01
PLoss (uC/cm2):	-6.23e+00
Vc:	9.89e-01
-Vc:	-9.90e-01
C (Max-Eff) (nF):	4.96e-01
K (Eff):	1.68e+03
Vert. (+/-Pr) Shift (uC/cm2):	-2.75e+00
Horiz. Shift (+/-Vc):	-4.27e-04
Offset (uC/cm2):	5.83e+00

A (Loop Area - uC/cm2·Volts):	9.32e-03



Hysteresis Version: 5.48.1 - Radiant Technologies, Inc., 1999 - 9/12/24

