»»»»»»»»»»»»»»»»»»»»»»»»»»»»»»»»»»»» Hysteresis ««««««««««««««««««««««««««««««««««««
»»»  Executed Version:	5.48.1
»»»  Vision Version:	5.48.4 (R)
»»»  Vision Compiled:	9/18/24
»»»  Driver Version:	5.47.0
»»»  Windows Version:	Windows 8 or 8.1
»»»  Processor Information:	x86 (AMD or Intel) - 32 Processors
»»»  Tester Name:	PMF21124-494 (100V)
»»»  Tester S/N:	PMF21124-494
»»»  Internal Amp Type:	100V RevK 270k
»»»  Internal Amp S/N:	iAB2-596/K     
»»»  Execution Count:	1
»»»»»»»»»»»»»»»»»»»»»»»»»»»»»»»»»»»»»»»»»»««««««««««««««««««««««««««««««««««««««««««

Stored:	6/4/2025 - 17:11:26
Configured:	06/04/25 04:39:58 PM
Executed:	06/04/25 05:10:20 PM

»»»»»»»»»»»»»»»»»»»»»»»»»»»»»»»»»»» Sample Info ««««««««««««««««««««««««««««««««««««
Sample Name:	
Lot Name:	
Wafer Name:	
Die Row/Column:	0/0
Capacitor Number:	0
Sample Area (cm2):	1.00e-04
Sample Thickness (microns):	3.00e-01

Amplifier:	Internal

»»»»»»»»»»»»»»»»»»»»»»»»»»»»»»»»»»» Tester Info «««««««««««««««««««««««««««««««««««
Tester Name:	PMF21124-494 (100V)
Tester Serial Number:	PMF21124-494
Return Signal Amp. Level:	0.19 [Index: 3]

»»»»»»»»»»»»»»»»»»»»»»»»»»»»»»»» Hysteresis Info ««««««««««««««««««««««««««««««««««
Task Name:	Hyst-147
Volts:	20.00
Field:	666.67 (kV/cm)
DCBias:	0.00
DCField:	0.00 (kV/cm)
Hysteresis Period (ms):	2.00e+02
Preset:	Enabled
Preset Delay (ms):	1.00e+03
Profile:	Standard Bipolar

»»»»»»»»»»»»»»»»»»»»»»»»»»»»»»»»»»»»»» Data «««««««««««««««««««««««««««««««««««««««
Points:	2009

Valid Data

Point	Time (ms)	Drive Voltage	Measured Polarization (uC/cm2)	Capacitance (uF)	Normalized Capacitance (uF/cm2)	Dielectric Constant	Instantaneous Current (mA)
   1	0.0000e+00	-0.0016	-8.667730	0.000547	5.472381	1.854093	0.000219
   2	9.9500e-02	0.0241	-8.449725	0.000547	5.472381	1.854093	0.000219
   3	1.9900e-01	0.0690	-8.138866	0.000780	7.803210	2.643799	0.000312
   4	2.9850e-01	0.1107	-7.836080	0.000760	7.600529	2.575129	0.000304
   5	3.9800e-01	0.1508	-7.500998	0.000841	8.411252	2.849809	0.000337
   6	4.9750e-01	0.1861	-7.149767	0.000882	8.816614	2.987150	0.000353
   7	5.9700e-01	0.2198	-6.871205	0.000699	6.992487	2.369119	0.000280
   8	6.9650e-01	0.2759	-6.548234	0.000811	8.107231	2.746804	0.000325
   9	7.9600e-01	0.3144	-6.221226	0.000821	8.208571	2.781139	0.000329
  10	8.9550e-01	0.3433	-5.874032	0.000872	8.715273	2.952815	0.000349
  11	9.9500e-01	0.3834	-5.534913	0.000851	8.512592	2.884144	0.000341
  12	1.0945e+00	0.4331	-5.236165	0.000750	7.499189	2.540794	0.000300
  13	1.1940e+00	0.4668	-4.901083	0.000841	8.411252	2.849809	0.000337
  14	1.2935e+00	0.5037	-4.557926	0.000861	8.613933	2.918479	0.000345
  15	1.3930e+00	0.5470	-4.259178	0.000750	7.499189	2.540794	0.000300
  16	1.4925e+00	0.5871	-3.879687	0.000953	9.525996	3.227495	0.000381
  17	1.5920e+00	0.6257	-3.576902	0.000760	7.600529	2.575129	0.000304
  18	1.6915e+00	0.6658	-3.257969	0.000801	8.005891	2.712469	0.000321
  19	1.7910e+00	0.7091	-2.947109	0.000780	7.803210	2.643799	0.000312
  20	1.8905e+00	0.7492	-2.595878	0.000882	8.816614	2.987150	0.000353
  21	1.9900e+00	0.7764	-2.256759	0.000851	8.512592	2.884144	0.000341
  22	2.0895e+00	0.8214	-1.869194	0.000973	9.728677	3.296165	0.000390
  23	2.1890e+00	0.8727	-1.570446	0.000750	7.499189	2.540794	0.000300
  24	2.2885e+00	0.9064	-1.235364	0.000841	8.411252	2.849809	0.000337
  25	2.3880e+00	0.9385	-0.900281	0.000841	8.411252	2.849809	0.000337
  26	2.4875e+00	0.9850	-0.500605	0.001003	10.032698	3.399170	0.000402
  27	2.5870e+00	1.0267	-0.165523	0.000841	8.411252	2.849809	0.000337
  28	2.6865e+00	1.0588	0.145337	0.000780	7.803210	2.643799	0.000312
  29	2.7860e+00	1.1037	0.488493	0.000861	8.613933	2.918479	0.000345
  30	2.8855e+00	1.1438	0.799353	0.000780	7.803210	2.643799	0.000312
  31	2.9850e+00	1.1871	1.146547	0.000872	8.715273	2.952815	0.000349
  32	3.0845e+00	1.2176	1.509889	0.000912	9.120635	3.090155	0.000365
  33	3.1840e+00	1.2625	1.881305	0.000932	9.323316	3.158825	0.000373
  34	3.2835e+00	1.3058	2.180053	0.000750	7.499189	2.540794	0.000300
  35	3.3830e+00	1.3347	2.531284	0.000882	8.816614	2.987150	0.000353
  36	3.4825e+00	1.3909	2.902701	0.000932	9.323316	3.158825	0.000373
  37	3.5820e+00	1.4165	3.217597	0.000790	7.904550	2.678134	0.000316
  38	3.6815e+00	1.4647	3.564791	0.000872	8.715273	2.952815	0.000349
  39	3.7810e+00	1.5016	3.903910	0.000851	8.512592	2.884144	0.000341
  40	3.8805e+00	1.5433	4.267252	0.000912	9.120635	3.090155	0.000365
  41	3.9800e+00	1.5786	4.638669	0.000932	9.323316	3.158825	0.000373
  42	4.0795e+00	1.6251	4.917231	0.000699	6.992487	2.369119	0.000280
  43	4.1790e+00	1.6636	5.292685	0.000942	9.424656	3.193160	0.000377
  44	4.2785e+00	1.7053	5.651990	0.000902	9.019294	3.055820	0.000361
  45	4.3780e+00	1.7438	6.003221	0.000882	8.816614	2.987150	0.000353
  46	4.4775e+00	1.7727	6.314080	0.000780	7.803210	2.643799	0.000312
  47	4.5770e+00	1.8256	6.685497	0.000932	9.323316	3.158825	0.000373
  48	4.6765e+00	1.8529	7.036728	0.000882	8.816614	2.987150	0.000353
  49	4.7760e+00	1.8994	7.391996	0.000892	8.917954	3.021485	0.000357
  50	4.8755e+00	1.9347	7.702855	0.000780	7.803210	2.643799	0.000312
  51	4.9750e+00	1.9844	8.090420	0.000973	9.728677	3.296165	0.000390
  52	5.0745e+00	2.0278	8.465874	0.000942	9.424656	3.193160	0.000377
  53	5.1740e+00	2.0518	8.788845	0.000811	8.107231	2.746804	0.000325
  54	5.2735e+00	2.0983	9.111815	0.000811	8.107231	2.746804	0.000325
  55	5.3730e+00	2.1320	9.471120	0.000902	9.019294	3.055820	0.000361
  56	5.4725e+00	2.1850	9.854648	0.000963	9.627337	3.261830	0.000385
  57	5.5720e+00	2.2170	10.230102	0.000942	9.424656	3.193160	0.000377
  58	5.6715e+00	2.2604	10.540961	0.000780	7.803210	2.643799	0.000312
  59	5.7710e+00	2.3069	10.916415	0.000942	9.424656	3.193160	0.000377
  60	5.8705e+00	2.3390	11.251497	0.000841	8.411252	2.849809	0.000337
  61	5.9700e+00	2.3871	11.578505	0.000821	8.208571	2.781139	0.000329
  62	6.0695e+00	2.4176	11.957996	0.000953	9.525996	3.227495	0.000381
  63	6.1690e+00	2.4593	12.260781	0.000760	7.600529	2.575129	0.000304
  64	6.2685e+00	2.4946	12.652383	0.000983	9.830018	3.330500	0.000394
  65	6.3680e+00	2.5395	12.999577	0.000872	8.715273	2.952815	0.000349
  66	6.4675e+00	2.5780	13.362919	0.000912	9.120635	3.090155	0.000365
  67	6.5670e+00	2.6213	13.702039	0.000851	8.512592	2.884144	0.000341
  68	6.6665e+00	2.6582	14.065381	0.000912	9.120635	3.090155	0.000365
  69	6.7660e+00	2.6951	14.420649	0.000892	8.917954	3.021485	0.000357
  70	6.8655e+00	2.7400	14.779954	0.000902	9.019294	3.055820	0.000361
  71	6.9650e+00	2.7866	15.098888	0.000801	8.005891	2.712469	0.000321
  72	7.0645e+00	2.8251	15.409747	0.000780	7.803210	2.643799	0.000312
  73	7.1640e+00	2.8523	15.769052	0.000902	9.019294	3.055820	0.000361
  74	7.2635e+00	2.8988	16.140469	0.000932	9.323316	3.158825	0.000373
  75	7.3630e+00	2.9454	16.532071	0.000983	9.830018	3.330500	0.000394
  76	7.4625e+00	2.9742	16.810633	0.000699	6.992487	2.369119	0.000280
  77	7.5620e+00	3.0127	17.145715	0.000841	8.411252	2.849809	0.000337
  78	7.6615e+00	3.0513	17.509058	0.000912	9.120635	3.090155	0.000365
  79	7.7610e+00	3.0898	17.807806	0.000750	7.499189	2.540794	0.000300
  80	7.8605e+00	3.1395	18.179222	0.000932	9.323316	3.158825	0.000373
  81	7.9600e+00	3.1700	18.542564	0.000912	9.120635	3.090155	0.000365
  82	8.0595e+00	3.2133	18.861498	0.000801	8.005891	2.712469	0.000321
  83	8.1590e+00	3.2534	19.204655	0.000861	8.613933	2.918479	0.000345
  84	8.2585e+00	3.2967	19.527626	0.000811	8.107231	2.746804	0.000325
  85	8.3580e+00	3.3432	19.842522	0.000790	7.904550	2.678134	0.000316
  86	8.4575e+00	3.3769	20.165493	0.000811	8.107231	2.746804	0.000325
  87	8.5570e+00	3.4218	20.569207	0.001013	10.134039	3.433505	0.000406
  88	8.6565e+00	3.4635	20.867955	0.000750	7.499189	2.540794	0.000300
  89	8.7560e+00	3.4908	21.199000	0.000831	8.309912	2.815474	0.000333
  90	8.8555e+00	3.5341	21.550231	0.000882	8.816614	2.987150	0.000353
  91	8.9550e+00	3.5662	21.873201	0.000811	8.107231	2.746804	0.000325
  92	9.0545e+00	3.6191	22.224432	0.000882	8.816614	2.987150	0.000353
  93	9.1540e+00	3.6544	22.579700	0.000892	8.917954	3.021485	0.000357
  94	9.2535e+00	3.6897	22.878448	0.000750	7.499189	2.540794	0.000300
  95	9.3530e+00	3.7250	23.245828	0.000922	9.221975	3.124490	0.000369
  96	9.4525e+00	3.7651	23.588984	0.000861	8.613933	2.918479	0.000345
  97	9.5520e+00	3.8084	23.879658	0.000730	7.296508	2.472124	0.000292
  98	9.6515e+00	3.8534	24.198592	0.000801	8.005891	2.712469	0.000321
  99	9.7510e+00	3.8871	24.561934	0.000912	9.120635	3.090155	0.000365
 100	9.8505e+00	3.9368	24.872793	0.000780	7.803210	2.643799	0.000312
 101	9.9500e+00	3.9753	25.232098	0.000902	9.019294	3.055820	0.000361
 102	1.0050e+01	4.0138	25.551032	0.000801	8.005891	2.712469	0.000321
 103	1.0149e+01	4.0523	25.918411	0.000922	9.221975	3.124490	0.000369
 104	1.0248e+01	4.0876	26.229271	0.000780	7.803210	2.643799	0.000312
 105	1.0348e+01	4.1373	26.552242	0.000811	8.107231	2.746804	0.000325
 106	1.0447e+01	4.1678	26.826767	0.000689	6.891146	2.334784	0.000276
 107	1.0547e+01	4.2063	27.214332	0.000973	9.728677	3.296165	0.000390
 108	1.0646e+01	4.2528	27.553451	0.000851	8.512592	2.884144	0.000341
 109	1.0746e+01	4.2929	27.876422	0.000811	8.107231	2.746804	0.000325
 110	1.0845e+01	4.3346	28.183245	0.000770	7.701869	2.609464	0.000308
 111	1.0945e+01	4.3715	28.534475	0.000882	8.816614	2.987150	0.000353
 112	1.1044e+01	4.4148	28.813038	0.000699	6.992487	2.369119	0.000280
 113	1.1144e+01	4.4469	29.148120	0.000841	8.411252	2.849809	0.000337
 114	1.1243e+01	4.4935	29.555871	0.001024	10.235379	3.467840	0.000410
 115	1.1343e+01	4.5191	29.826359	0.000679	6.789806	2.300449	0.000272
 116	1.1443e+01	4.5656	30.197775	0.000932	9.323316	3.158825	0.000373
 117	1.1542e+01	4.6090	30.500561	0.000760	7.600529	2.575129	0.000304
 118	1.1642e+01	4.6523	30.803346	0.000760	7.600529	2.575129	0.000304
 119	1.1741e+01	4.6972	31.158614	0.000892	8.917954	3.021485	0.000357
 120	1.1841e+01	4.7277	31.433139	0.000689	6.891146	2.334784	0.000276
 121	1.1940e+01	4.7726	31.756110	0.000811	8.107231	2.746804	0.000325
 122	1.2040e+01	4.7999	32.079081	0.000811	8.107231	2.746804	0.000325
 123	1.2139e+01	4.8576	32.381866	0.000760	7.600529	2.575129	0.000304
 124	1.2239e+01	4.8977	32.749245	0.000922	9.221975	3.124490	0.000369
 125	1.2338e+01	4.9314	33.060105	0.000780	7.803210	2.643799	0.000312
 126	1.2438e+01	4.9731	33.362890	0.000760	7.600529	2.575129	0.000304
 127	1.2537e+01	5.0068	33.710083	0.000872	8.715273	2.952815	0.000349
 128	1.2636e+01	5.0517	34.016906	0.000770	7.701869	2.609464	0.000308
 129	1.2736e+01	5.0822	34.351988	0.000841	8.411252	2.849809	0.000337
 130	1.2835e+01	5.1368	34.650736	0.000750	7.499189	2.540794	0.000300
 131	1.2935e+01	5.1624	34.985818	0.000841	8.411252	2.849809	0.000337
 132	1.3034e+01	5.2025	35.276492	0.000730	7.296508	2.472124	0.000292
 133	1.3134e+01	5.2571	35.647909	0.000932	9.323316	3.158825	0.000373
 134	1.3233e+01	5.2876	35.910322	0.000659	6.587125	2.231778	0.000264
 135	1.3333e+01	5.3325	36.257516	0.000872	8.715273	2.952815	0.000349
 136	1.3432e+01	5.3710	36.576450	0.000801	8.005891	2.712469	0.000321
 137	1.3532e+01	5.4143	36.863086	0.000720	7.195167	2.437789	0.000288
 138	1.3632e+01	5.4400	37.149723	0.000720	7.195167	2.437789	0.000288
 139	1.3731e+01	5.4929	37.452508	0.000760	7.600529	2.575129	0.000304
 140	1.3831e+01	5.5314	37.783553	0.000831	8.309912	2.815474	0.000333
 141	1.3930e+01	5.5699	38.110561	0.000821	8.208571	2.781139	0.000329
 142	1.4030e+01	5.6004	38.385087	0.000689	6.891146	2.334784	0.000276
 143	1.4129e+01	5.6549	38.752466	0.000922	9.221975	3.124490	0.000369
 144	1.4229e+01	5.6870	39.043140	0.000730	7.296508	2.472124	0.000292
 145	1.4328e+01	5.7207	39.353999	0.000780	7.803210	2.643799	0.000312
 146	1.4428e+01	5.7672	39.656784	0.000760	7.600529	2.575129	0.000304
 147	1.4527e+01	5.8121	39.943421	0.000720	7.195167	2.437789	0.000288
 148	1.4627e+01	5.8458	40.290615	0.000872	8.715273	2.952815	0.000349
 149	1.4726e+01	5.8843	40.561103	0.000679	6.789806	2.300449	0.000272
 150	1.4825e+01	5.9292	40.888111	0.000821	8.208571	2.781139	0.000329
 151	1.4925e+01	5.9677	41.182822	0.000740	7.397848	2.506459	0.000296
 152	1.5024e+01	6.0030	41.501755	0.000801	8.005891	2.712469	0.000321
 153	1.5124e+01	6.0447	41.824726	0.000811	8.107231	2.746804	0.000325
 154	1.5223e+01	6.0736	42.083103	0.000649	6.485785	2.197443	0.000260
 155	1.5323e+01	6.1282	42.365702	0.000709	7.093827	2.403454	0.000284
 156	1.5422e+01	6.1603	42.725008	0.000902	9.019294	3.055820	0.000361
 157	1.5522e+01	6.2052	43.031830	0.000770	7.701869	2.609464	0.000308
 158	1.5621e+01	6.2533	43.314429	0.000709	7.093827	2.403454	0.000284
 159	1.5721e+01	6.2822	43.689883	0.000942	9.424656	3.193160	0.000377
 160	1.5820e+01	6.3207	43.972482	0.000709	7.093827	2.403454	0.000284
 161	1.5920e+01	6.3544	44.242971	0.000679	6.789806	2.300449	0.000272
 162	1.6020e+01	6.4121	44.549793	0.000770	7.701869	2.609464	0.000308
 163	1.6119e+01	6.4362	44.905061	0.000892	8.917954	3.021485	0.000357
 164	1.6218e+01	6.4779	45.151326	0.000618	6.181764	2.094438	0.000248
 165	1.6318e+01	6.5244	45.486408	0.000841	8.411252	2.849809	0.000337
 166	1.6418e+01	6.5581	45.777082	0.000730	7.296508	2.472124	0.000292
 167	1.6517e+01	6.5934	46.059682	0.000709	7.093827	2.403454	0.000284
 168	1.6616e+01	6.6399	46.386690	0.000821	8.208571	2.781139	0.000329
 169	1.6716e+01	6.6848	46.689475	0.000760	7.600529	2.575129	0.000304
 170	1.6816e+01	6.7265	46.955926	0.000669	6.688466	2.266113	0.000268
 171	1.6915e+01	6.7586	47.254674	0.000750	7.499189	2.540794	0.000300
 172	1.7015e+01	6.7955	47.581682	0.000821	8.208571	2.781139	0.000329
 173	1.7114e+01	6.8308	47.856207	0.000689	6.891146	2.334784	0.000276
 174	1.7213e+01	6.8822	48.215512	0.000902	9.019294	3.055820	0.000361
 175	1.7313e+01	6.9126	48.486000	0.000679	6.789806	2.300449	0.000272
 176	1.7413e+01	6.9640	48.825120	0.000851	8.512592	2.884144	0.000341
 177	1.7512e+01	7.0057	49.075422	0.000628	6.283104	2.128773	0.000252
 178	1.7611e+01	7.0378	49.398393	0.000811	8.107231	2.746804	0.000325
 179	1.7711e+01	7.0763	49.693104	0.000740	7.397848	2.506459	0.000296
 180	1.7811e+01	7.1212	49.975703	0.000709	7.093827	2.403454	0.000284
 181	1.7910e+01	7.1581	50.274451	0.000750	7.499189	2.540794	0.000300
 182	1.8009e+01	7.1982	50.581274	0.000770	7.701869	2.609464	0.000308
 183	1.8109e+01	7.2383	50.896170	0.000790	7.904550	2.678134	0.000316
 184	1.8209e+01	7.2864	51.202993	0.000770	7.701869	2.609464	0.000308
 185	1.8308e+01	7.3265	51.530001	0.000821	8.208571	2.781139	0.000329
 186	1.8407e+01	7.3602	51.772229	0.000608	6.080423	2.060103	0.000243
 187	1.8507e+01	7.3955	52.054828	0.000709	7.093827	2.403454	0.000284
 188	1.8607e+01	7.4436	52.349539	0.000740	7.397848	2.506459	0.000296
 189	1.8706e+01	7.4886	52.628101	0.000699	6.992487	2.369119	0.000280
 190	1.8805e+01	7.5206	52.886478	0.000649	6.485785	2.197443	0.000260
 191	1.8905e+01	7.5559	53.189263	0.000760	7.600529	2.575129	0.000304
 192	1.9005e+01	7.5960	53.528383	0.000851	8.512592	2.884144	0.000341
 193	1.9104e+01	7.6474	53.815019	0.000720	7.195167	2.437789	0.000288
 194	1.9203e+01	7.6859	54.105693	0.000730	7.296508	2.472124	0.000292
 195	1.9303e+01	7.7180	54.380218	0.000689	6.891146	2.334784	0.000276
 196	1.9402e+01	7.7597	54.658781	0.000699	6.992487	2.369119	0.000280
 197	1.9502e+01	7.7966	54.941380	0.000709	7.093827	2.403454	0.000284
 198	1.9602e+01	7.8303	55.240128	0.000750	7.499189	2.540794	0.000300
 199	1.9701e+01	7.8832	55.579248	0.000851	8.512592	2.884144	0.000341
 200	1.9800e+01	7.9153	55.833587	0.000638	6.384444	2.163108	0.000256
 201	1.9900e+01	7.9490	56.104075	0.000679	6.789806	2.300449	0.000272
 202	2.0000e+01	7.9875	56.435120	0.000831	8.309912	2.815474	0.000333
 203	2.0099e+01	8.0436	56.717720	0.000709	7.093827	2.403454	0.000284
 204	2.0198e+01	8.0805	56.972060	0.000638	6.384444	2.163108	0.000256
 205	2.0298e+01	8.1174	57.274845	0.000760	7.600529	2.575129	0.000304
 206	2.0398e+01	8.1607	57.545333	0.000679	6.789806	2.300449	0.000272
 207	2.0497e+01	8.1976	57.831969	0.000720	7.195167	2.437789	0.000288
 208	2.0596e+01	8.2313	58.138792	0.000770	7.701869	2.609464	0.000308
 209	2.0696e+01	8.2698	58.389094	0.000628	6.283104	2.128773	0.000252
 210	2.0796e+01	8.3228	58.691879	0.000760	7.600529	2.575129	0.000304
 211	2.0895e+01	8.3548	58.982553	0.000730	7.296508	2.472124	0.000292
 212	2.0994e+01	8.3998	59.244967	0.000659	6.587125	2.231778	0.000264
 213	2.1094e+01	8.4318	59.535641	0.000730	7.296508	2.472124	0.000292
 214	2.1194e+01	8.4832	59.826315	0.000730	7.296508	2.472124	0.000292
 215	2.1293e+01	8.5137	60.104877	0.000699	6.992487	2.369119	0.000280
 216	2.1392e+01	8.5522	60.407662	0.000760	7.600529	2.575129	0.000304
 217	2.1492e+01	8.5939	60.674113	0.000669	6.688466	2.266113	0.000268
 218	2.1591e+01	8.6260	61.013232	0.000851	8.512592	2.884144	0.000341
 219	2.1691e+01	8.6773	61.259498	0.000618	6.181764	2.094438	0.000248
 220	2.1791e+01	8.7302	61.529986	0.000679	6.789806	2.300449	0.000272
 221	2.1890e+01	8.7639	61.828734	0.000750	7.499189	2.540794	0.000300
 222	2.1989e+01	8.8024	62.070962	0.000608	6.080423	2.060103	0.000243
 223	2.2089e+01	8.8329	62.397970	0.000821	8.208571	2.781139	0.000329
 224	2.2189e+01	8.8810	62.656347	0.000649	6.485785	2.197443	0.000260
 225	2.2288e+01	8.9051	62.951058	0.000740	7.397848	2.506459	0.000296
 226	2.2387e+01	8.9628	63.229620	0.000699	6.992487	2.369119	0.000280
 227	2.2487e+01	8.9933	63.492034	0.000659	6.587125	2.231778	0.000264
 228	2.2587e+01	9.0254	63.746373	0.000638	6.384444	2.163108	0.000256
 229	2.2686e+01	9.0735	64.073381	0.000821	8.208571	2.781139	0.000329
 230	2.2785e+01	9.1104	64.315609	0.000608	6.080423	2.060103	0.000243
 231	2.2885e+01	9.1570	64.586098	0.000679	6.789806	2.300449	0.000272
 232	2.2985e+01	9.2019	64.880808	0.000740	7.397848	2.506459	0.000296
 233	2.3084e+01	9.2356	65.167445	0.000720	7.195167	2.437789	0.000288
 234	2.3183e+01	9.2693	65.466193	0.000750	7.499189	2.540794	0.000300
 235	2.3283e+01	9.3094	65.712458	0.000618	6.181764	2.094438	0.000248
 236	2.3383e+01	9.3511	65.999095	0.000720	7.195167	2.437789	0.000288
 237	2.3482e+01	9.3928	66.293806	0.000740	7.397848	2.506459	0.000296
 238	2.3581e+01	9.4345	66.548146	0.000638	6.384444	2.163108	0.000256
 239	2.3681e+01	9.4666	66.826708	0.000699	6.992487	2.369119	0.000280
 240	2.3780e+01	9.5099	67.097196	0.000679	6.789806	2.300449	0.000272
 241	2.3880e+01	9.5516	67.359610	0.000659	6.587125	2.231778	0.000264
 242	2.3980e+01	9.5965	67.642209	0.000709	7.093827	2.403454	0.000284
 243	2.4079e+01	9.6302	67.936920	0.000740	7.397848	2.506459	0.000296
 244	2.4178e+01	9.6815	68.211445	0.000689	6.891146	2.334784	0.000276
 245	2.4278e+01	9.7008	68.441562	0.000578	5.776402	1.957098	0.000231
 246	2.4378e+01	9.7505	68.720125	0.000699	6.992487	2.369119	0.000280
 247	2.4477e+01	9.7954	69.010798	0.000730	7.296508	2.472124	0.000292
 248	2.4576e+01	9.8227	69.232841	0.000557	5.573721	1.888428	0.000223
 249	2.4676e+01	9.8660	69.495255	0.000659	6.587125	2.231778	0.000264
 250	2.4776e+01	9.9142	69.814188	0.000801	8.005891	2.712469	0.000321
 251	2.4875e+01	9.9591	70.080639	0.000669	6.688466	2.266113	0.000268
 252	2.4974e+01	9.9880	70.302682	0.000557	5.573721	1.888428	0.000223
 253	2.5074e+01	10.0249	70.601430	0.000750	7.499189	2.540794	0.000300
 254	2.5174e+01	10.0666	70.859806	0.000649	6.485785	2.197443	0.000260
 255	2.5273e+01	10.1115	71.134332	0.000689	6.891146	2.334784	0.000276
 256	2.5372e+01	10.1580	71.400783	0.000669	6.688466	2.266113	0.000268
 257	2.5472e+01	10.1853	71.634937	0.000588	5.877742	1.991433	0.000235
 258	2.5572e+01	10.2270	71.893313	0.000649	6.485785	2.197443	0.000260
 259	2.5671e+01	10.2687	72.196098	0.000760	7.600529	2.575129	0.000304
 260	2.5770e+01	10.3088	72.446401	0.000628	6.283104	2.128773	0.000252
 261	2.5870e+01	10.3537	72.724963	0.000699	6.992487	2.369119	0.000280
 262	2.5970e+01	10.3858	73.011600	0.000720	7.195167	2.437789	0.000288
 263	2.6069e+01	10.4243	73.233642	0.000557	5.573721	1.888428	0.000223
 264	2.6169e+01	10.4692	73.516242	0.000709	7.093827	2.403454	0.000284
 265	2.6268e+01	10.5029	73.778656	0.000659	6.587125	2.231778	0.000264
 266	2.6367e+01	10.5446	74.028958	0.000628	6.283104	2.128773	0.000252
 267	2.6467e+01	10.5976	74.291372	0.000659	6.587125	2.231778	0.000264
 268	2.6567e+01	10.6232	74.594157	0.000760	7.600529	2.575129	0.000304
 269	2.6666e+01	10.6762	74.812162	0.000547	5.472381	1.854093	0.000219
 270	2.6765e+01	10.7131	75.090725	0.000699	6.992487	2.369119	0.000280
 271	2.6865e+01	10.7419	75.332953	0.000608	6.080423	2.060103	0.000243
 272	2.6965e+01	10.7772	75.619590	0.000720	7.195167	2.437789	0.000288
 273	2.7064e+01	10.8350	75.894115	0.000689	6.891146	2.334784	0.000276
 274	2.7163e+01	10.8671	76.132306	0.000598	5.979083	2.025768	0.000239
 275	2.7263e+01	10.9072	76.398757	0.000669	6.688466	2.266113	0.000268
 276	2.7363e+01	10.9489	76.673282	0.000689	6.891146	2.334784	0.000276
 277	2.7462e+01	10.9794	76.935696	0.000659	6.587125	2.231778	0.000264
 278	2.7561e+01	11.0307	77.214258	0.000699	6.992487	2.369119	0.000280
 279	2.7661e+01	11.0660	77.460523	0.000618	6.181764	2.094438	0.000248
 280	2.7761e+01	11.1029	77.718900	0.000649	6.485785	2.197443	0.000260
 281	2.7860e+01	11.1542	77.973240	0.000638	6.384444	2.163108	0.000256
 282	2.7959e+01	11.1943	78.215468	0.000608	6.080423	2.060103	0.000243
 283	2.8059e+01	11.2264	78.494030	0.000699	6.992487	2.369119	0.000280
 284	2.8159e+01	11.2649	78.744333	0.000628	6.283104	2.128773	0.000252
 285	2.8258e+01	11.2986	79.043081	0.000750	7.499189	2.540794	0.000300
 286	2.8358e+01	11.3419	79.248975	0.000517	5.168360	1.751088	0.000207
 287	2.8457e+01	11.3852	79.527537	0.000699	6.992487	2.369119	0.000280
 288	2.8556e+01	11.4237	79.761691	0.000588	5.877742	1.991433	0.000235
 289	2.8656e+01	11.4671	80.056402	0.000740	7.397848	2.506459	0.000296
 290	2.8756e+01	11.5168	80.298630	0.000608	6.080423	2.060103	0.000243
 291	2.8855e+01	11.5457	80.548932	0.000628	6.283104	2.128773	0.000252
 292	2.8954e+01	11.5794	80.823457	0.000689	6.891146	2.334784	0.000276
 293	2.9054e+01	11.6227	81.061648	0.000598	5.979083	2.025768	0.000239
 294	2.9154e+01	11.6628	81.360397	0.000750	7.499189	2.540794	0.000300
 295	2.9253e+01	11.7093	81.598588	0.000598	5.979083	2.025768	0.000239
 296	2.9352e+01	11.7462	81.832741	0.000588	5.877742	1.991433	0.000235
 297	2.9452e+01	11.7863	82.103230	0.000679	6.789806	2.300449	0.000272
 298	2.9552e+01	11.8184	82.297012	0.000486	4.864339	1.648083	0.000195
 299	2.9651e+01	11.8649	82.636131	0.000851	8.512592	2.884144	0.000341
 300	2.9750e+01	11.8970	82.862211	0.000568	5.675062	1.922763	0.000227
 301	2.9850e+01	11.9467	83.092328	0.000578	5.776402	1.957098	0.000231
 302	2.9950e+01	11.9772	83.338593	0.000618	6.181764	2.094438	0.000248
 303	3.0049e+01	12.0317	83.629267	0.000730	7.296508	2.472124	0.000292
 304	3.0148e+01	12.0574	83.891681	0.000659	6.587125	2.231778	0.000264
 305	3.0248e+01	12.0943	84.093537	0.000507	5.067019	1.716753	0.000203
 306	3.0348e+01	12.1473	84.412471	0.000801	8.005891	2.712469	0.000321
 307	3.0447e+01	12.1858	84.638551	0.000568	5.675062	1.922763	0.000227
 308	3.0547e+01	12.2146	84.892890	0.000638	6.384444	2.163108	0.000256
 309	3.0646e+01	12.2676	85.135118	0.000608	6.080423	2.060103	0.000243
 310	3.0745e+01	12.2932	85.353124	0.000547	5.472381	1.854093	0.000219
 311	3.0845e+01	12.3382	85.623612	0.000679	6.789806	2.300449	0.000272
 312	3.0945e+01	12.3847	85.869877	0.000618	6.181764	2.094438	0.000248
 313	3.1044e+01	12.4248	86.120180	0.000628	6.283104	2.128773	0.000252
 314	3.1143e+01	12.4649	86.402779	0.000709	7.093827	2.403454	0.000284
 315	3.1243e+01	12.5066	86.612710	0.000527	5.269700	1.785423	0.000211
 316	3.1343e+01	12.5547	86.879161	0.000669	6.688466	2.266113	0.000268
 317	3.1442e+01	12.5788	87.113315	0.000588	5.877742	1.991433	0.000235
 318	3.1541e+01	12.6141	87.359580	0.000618	6.181764	2.094438	0.000248
 319	3.1641e+01	12.6670	87.593734	0.000588	5.877742	1.991433	0.000235
 320	3.1741e+01	12.6991	87.868259	0.000689	6.891146	2.334784	0.000276
 321	3.1840e+01	12.7408	88.110487	0.000608	6.080423	2.060103	0.000243
 322	3.1939e+01	12.7777	88.393087	0.000709	7.093827	2.403454	0.000284
 323	3.2039e+01	12.8178	88.611092	0.000547	5.472381	1.854093	0.000219
 324	3.2139e+01	12.8595	88.857358	0.000618	6.181764	2.094438	0.000248
 325	3.2238e+01	12.9093	89.103623	0.000618	6.181764	2.094438	0.000248
 326	3.2337e+01	12.9333	89.345851	0.000608	6.080423	2.060103	0.000243
 327	3.2437e+01	12.9782	89.571931	0.000568	5.675062	1.922763	0.000227
 328	3.2536e+01	13.0151	89.862604	0.000730	7.296508	2.472124	0.000292
 329	3.2636e+01	13.0424	90.060424	0.000497	4.965679	1.682418	0.000199
 330	3.2736e+01	13.0954	90.375321	0.000790	7.904550	2.678134	0.000316
 331	3.2835e+01	13.1258	90.585252	0.000527	5.269700	1.785423	0.000211
 332	3.2934e+01	13.1756	90.823443	0.000598	5.979083	2.025768	0.000239
 333	3.3034e+01	13.2157	91.122191	0.000750	7.499189	2.540794	0.000300
 334	3.3133e+01	13.2445	91.340196	0.000547	5.472381	1.854093	0.000219
 335	3.3233e+01	13.2895	91.566276	0.000568	5.675062	1.922763	0.000227
 336	3.3333e+01	13.3328	91.836764	0.000679	6.789806	2.300449	0.000272
 337	3.3432e+01	13.3793	92.083029	0.000618	6.181764	2.094438	0.000248
 338	3.3532e+01	13.4210	92.321220	0.000598	5.979083	2.025768	0.000239
 339	3.3631e+01	13.4627	92.615931	0.000740	7.397848	2.506459	0.000296
 340	3.3730e+01	13.4932	92.829899	0.000537	5.371041	1.819758	0.000215
 341	3.3830e+01	13.5285	93.072127	0.000608	6.080423	2.060103	0.000243
 342	3.3929e+01	13.5830	93.326467	0.000638	6.384444	2.163108	0.000256
 343	3.4029e+01	13.6087	93.600992	0.000689	6.891146	2.334784	0.000276
 344	3.4129e+01	13.6504	93.831109	0.000578	5.776402	1.957098	0.000231
 345	3.4228e+01	13.7001	94.057188	0.000568	5.675062	1.922763	0.000227
 346	3.4328e+01	13.7354	94.311528	0.000638	6.384444	2.163108	0.000256
 347	3.4427e+01	13.7707	94.586053	0.000689	6.891146	2.334784	0.000276
 348	3.4526e+01	13.8140	94.848467	0.000659	6.587125	2.231778	0.000264
 349	3.4626e+01	13.8590	95.046287	0.000497	4.965679	1.682418	0.000199
 350	3.4725e+01	13.8878	95.292552	0.000618	6.181764	2.094438	0.000248
 351	3.4825e+01	13.9344	95.518632	0.000568	5.675062	1.922763	0.000227
 352	3.4925e+01	13.9761	95.789120	0.000679	6.789806	2.300449	0.000272
 353	3.5024e+01	14.0082	96.019236	0.000578	5.776402	1.957098	0.000231
 354	3.5123e+01	14.0563	96.281650	0.000659	6.587125	2.231778	0.000264
 355	3.5223e+01	14.0964	96.507730	0.000568	5.675062	1.922763	0.000227
 356	3.5322e+01	14.1301	96.766107	0.000649	6.485785	2.197443	0.000260
 357	3.5422e+01	14.1734	96.992186	0.000568	5.675062	1.922763	0.000227
 358	3.5522e+01	14.2151	97.214229	0.000557	5.573721	1.888428	0.000223
 359	3.5621e+01	14.2536	97.480680	0.000669	6.688466	2.266113	0.000268
 360	3.5721e+01	14.2969	97.690611	0.000527	5.269700	1.785423	0.000211
 361	3.5820e+01	14.3274	97.936876	0.000618	6.181764	2.094438	0.000248
 362	3.5919e+01	14.3755	98.191215	0.000638	6.384444	2.163108	0.000256
 363	3.6019e+01	14.3980	98.453629	0.000659	6.587125	2.231778	0.000264
 364	3.6118e+01	14.4525	98.643375	0.000476	4.762998	1.613747	0.000191
 365	3.6218e+01	14.5023	98.873491	0.000578	5.776402	1.957098	0.000231
 366	3.6318e+01	14.5376	99.168202	0.000740	7.397848	2.506459	0.000296
 367	3.6417e+01	14.5648	99.390245	0.000557	5.573721	1.888428	0.000223
 368	3.6517e+01	14.6097	99.624399	0.000588	5.877742	1.991433	0.000235
 369	3.6616e+01	14.6434	99.858552	0.000588	5.877742	1.991433	0.000235
 370	3.6715e+01	14.6884	100.108855	0.000628	6.283104	2.128773	0.000252
 371	3.6815e+01	14.7317	100.363194	0.000638	6.384444	2.163108	0.000256
 372	3.6914e+01	14.7702	100.561014	0.000497	4.965679	1.682418	0.000199
 373	3.7014e+01	14.8119	100.807279	0.000618	6.181764	2.094438	0.000248
 374	3.7114e+01	14.8520	101.073730	0.000669	6.688466	2.266113	0.000268
 375	3.7213e+01	14.8809	101.283661	0.000527	5.269700	1.785423	0.000211
 376	3.7313e+01	14.9322	101.505704	0.000557	5.573721	1.888428	0.000223
 377	3.7412e+01	14.9611	101.764081	0.000649	6.485785	2.197443	0.000260
 378	3.7511e+01	15.0108	102.030532	0.000669	6.688466	2.266113	0.000268
 379	3.7611e+01	15.0477	102.224314	0.000486	4.864339	1.648083	0.000195
 380	3.7711e+01	15.0862	102.478654	0.000638	6.384444	2.163108	0.000256
 381	3.7810e+01	15.1247	102.704733	0.000568	5.675062	1.922763	0.000227
 382	3.7910e+01	15.1632	102.967147	0.000659	6.587125	2.231778	0.000264
 383	3.8009e+01	15.2065	103.164967	0.000497	4.965679	1.682418	0.000199
 384	3.8108e+01	15.2563	103.403158	0.000598	5.979083	2.025768	0.000239
 385	3.8208e+01	15.2787	103.649423	0.000618	6.181764	2.094438	0.000248
 386	3.8307e+01	15.3204	103.927985	0.000699	6.992487	2.369119	0.000280
 387	3.8407e+01	15.3686	104.150028	0.000557	5.573721	1.888428	0.000223
 388	3.8507e+01	15.4087	104.396293	0.000618	6.181764	2.094438	0.000248
 389	3.8606e+01	15.4520	104.606224	0.000527	5.269700	1.785423	0.000211
 390	3.8706e+01	15.4889	104.860564	0.000638	6.384444	2.163108	0.000256
 391	3.8805e+01	15.5338	105.086643	0.000568	5.675062	1.922763	0.000227
 392	3.8904e+01	15.5691	105.312723	0.000568	5.675062	1.922763	0.000227
 393	3.9004e+01	15.6108	105.567062	0.000638	6.384444	2.163108	0.000256
 394	3.9103e+01	15.6493	105.793142	0.000568	5.675062	1.922763	0.000227
 395	3.9203e+01	15.6926	106.035370	0.000608	6.080423	2.060103	0.000243
 396	3.9303e+01	15.7247	106.297784	0.000659	6.587125	2.231778	0.000264
 397	3.9402e+01	15.7696	106.511752	0.000537	5.371041	1.819758	0.000215
 398	3.9502e+01	15.7969	106.725720	0.000537	5.371041	1.819758	0.000215
 399	3.9601e+01	15.8514	107.004283	0.000699	6.992487	2.369119	0.000280
 400	3.9700e+01	15.8883	107.210177	0.000517	5.168360	1.751088	0.000207
 401	3.9800e+01	15.9284	107.500850	0.000730	7.296508	2.472124	0.000292
 402	3.9900e+01	15.9717	107.702707	0.000507	5.067019	1.716753	0.000203
 403	3.9999e+01	16.0118	107.908601	0.000517	5.168360	1.751088	0.000207
 404	4.0099e+01	16.0487	108.150829	0.000608	6.080423	2.060103	0.000243
 405	4.0198e+01	16.0905	108.389020	0.000598	5.979083	2.025768	0.000239
 406	4.0297e+01	16.1209	108.619137	0.000578	5.776402	1.957098	0.000231
 407	4.0397e+01	16.1659	108.869439	0.000628	6.283104	2.128773	0.000252
 408	4.0496e+01	16.2044	109.055148	0.000466	4.661658	1.579412	0.000187
 409	4.0596e+01	16.2445	109.337747	0.000709	7.093827	2.403454	0.000284
 410	4.0696e+01	16.2830	109.567864	0.000578	5.776402	1.957098	0.000231
 411	4.0795e+01	16.3231	109.753572	0.000466	4.661658	1.579412	0.000187
 412	4.0895e+01	16.3584	110.032135	0.000699	6.992487	2.369119	0.000280
 413	4.0994e+01	16.4017	110.250140	0.000547	5.472381	1.854093	0.000219
 414	4.1093e+01	16.4434	110.468145	0.000547	5.472381	1.854093	0.000219
 415	4.1193e+01	16.4787	110.694225	0.000568	5.675062	1.922763	0.000227
 416	4.1292e+01	16.5252	110.968750	0.000689	6.891146	2.334784	0.000276
 417	4.1392e+01	16.5605	111.166570	0.000497	4.965679	1.682418	0.000199
 418	4.1492e+01	16.6006	111.408798	0.000608	6.080423	2.060103	0.000243
 419	4.1591e+01	16.6471	111.634877	0.000568	5.675062	1.922763	0.000227
 420	4.1691e+01	16.6872	111.864994	0.000578	5.776402	1.957098	0.000231
 421	4.1790e+01	16.7225	112.087037	0.000557	5.573721	1.888428	0.000223
 422	4.1889e+01	16.7610	112.309079	0.000557	5.573721	1.888428	0.000223
 423	4.1989e+01	16.8011	112.567456	0.000649	6.485785	2.197443	0.000260
 424	4.2089e+01	16.8428	112.777387	0.000527	5.269700	1.785423	0.000211
 425	4.2188e+01	16.8829	113.031726	0.000638	6.384444	2.163108	0.000256
 426	4.2288e+01	16.9182	113.205323	0.000436	4.357637	1.476407	0.000174
 427	4.2387e+01	16.9648	113.487923	0.000709	7.093827	2.403454	0.000284
 428	4.2486e+01	17.0049	113.681705	0.000486	4.864339	1.648083	0.000195
 429	4.2586e+01	17.0402	113.936045	0.000638	6.384444	2.163108	0.000256
 430	4.2685e+01	17.0883	114.101567	0.000415	4.154956	1.407737	0.000166
 431	4.2785e+01	17.1236	114.372055	0.000679	6.789806	2.300449	0.000272
 432	4.2885e+01	17.1573	114.614284	0.000608	6.080423	2.060103	0.000243
 433	4.2984e+01	17.1990	114.836326	0.000557	5.573721	1.888428	0.000223
 434	4.3084e+01	17.2423	115.050294	0.000537	5.371041	1.819758	0.000215
 435	4.3183e+01	17.2744	115.280411	0.000578	5.776402	1.957098	0.000231
 436	4.3282e+01	17.3257	115.514565	0.000588	5.877742	1.991433	0.000235
 437	4.3382e+01	17.3578	115.736607	0.000557	5.573721	1.888428	0.000223
 438	4.3481e+01	17.3963	116.015170	0.000699	6.992487	2.369119	0.000280
 439	4.3581e+01	17.4348	116.241249	0.000568	5.675062	1.922763	0.000227
 440	4.3681e+01	17.4781	116.491552	0.000628	6.283104	2.128773	0.000252
 441	4.3780e+01	17.5246	116.697446	0.000517	5.168360	1.751088	0.000207
 442	4.3880e+01	17.5519	116.939674	0.000608	6.080423	2.060103	0.000243
 443	4.3979e+01	17.6016	117.145568	0.000517	5.168360	1.751088	0.000207
 444	4.4078e+01	17.6353	117.359536	0.000537	5.371041	1.819758	0.000215
 445	4.4178e+01	17.6883	117.625987	0.000669	6.688466	2.266113	0.000268
 446	4.4278e+01	17.7188	117.876289	0.000628	6.283104	2.128773	0.000252
 447	4.4377e+01	17.7637	118.078146	0.000507	5.067019	1.716753	0.000203
 448	4.4477e+01	17.7990	118.336523	0.000649	6.485785	2.197443	0.000260
 449	4.4576e+01	17.8375	118.550491	0.000537	5.371041	1.819758	0.000215
 450	4.4675e+01	17.8744	118.740236	0.000476	4.762998	1.613747	0.000191
 451	4.4775e+01	17.9145	118.982464	0.000608	6.080423	2.060103	0.000243
 452	4.4874e+01	17.9562	119.188358	0.000517	5.168360	1.751088	0.000207
 453	4.4974e+01	18.0027	119.430587	0.000608	6.080423	2.060103	0.000243
 454	4.5074e+01	18.0284	119.701075	0.000679	6.789806	2.300449	0.000272
 455	4.5173e+01	18.0797	119.915043	0.000537	5.371041	1.819758	0.000215
 456	4.5273e+01	18.1182	120.165345	0.000628	6.283104	2.128773	0.000252
 457	4.5372e+01	18.1583	120.387388	0.000557	5.573721	1.888428	0.000223
 458	4.5471e+01	18.2000	120.613467	0.000568	5.675062	1.922763	0.000227
 459	4.5571e+01	18.2369	120.855695	0.000608	6.080423	2.060103	0.000243
 460	4.5670e+01	18.2802	121.081775	0.000568	5.675062	1.922763	0.000227
 461	4.5770e+01	18.3235	121.279595	0.000497	4.965679	1.682418	0.000199
 462	4.5870e+01	18.3508	121.542009	0.000659	6.587125	2.231778	0.000264
 463	4.5969e+01	18.4022	121.808459	0.000669	6.688466	2.266113	0.000268
 464	4.6069e+01	18.4358	122.026465	0.000547	5.472381	1.854093	0.000219
 465	4.6168e+01	18.4759	122.252544	0.000568	5.675062	1.922763	0.000227
 466	4.6267e+01	18.5225	122.494773	0.000608	6.080423	2.060103	0.000243
 467	4.6367e+01	18.5578	122.704704	0.000527	5.269700	1.785423	0.000211
 468	4.6467e+01	18.6027	122.922709	0.000547	5.472381	1.854093	0.000219
 469	4.6566e+01	18.6364	123.185123	0.000659	6.587125	2.231778	0.000264
 470	4.6666e+01	18.6861	123.423314	0.000598	5.979083	2.025768	0.000239
 471	4.6765e+01	18.7102	123.645356	0.000557	5.573721	1.888428	0.000223
 472	4.6864e+01	18.7551	123.859324	0.000537	5.371041	1.819758	0.000215
 473	4.6964e+01	18.7904	124.065218	0.000517	5.168360	1.751088	0.000207
 474	4.7063e+01	18.8369	124.303409	0.000598	5.979083	2.025768	0.000239
 475	4.7163e+01	18.8706	124.569860	0.000669	6.688466	2.266113	0.000268
 476	4.7263e+01	18.9332	124.816126	0.000618	6.181764	2.094438	0.000248
 477	4.7362e+01	18.9540	125.038168	0.000557	5.573721	1.888428	0.000223
 478	4.7462e+01	19.0005	125.268285	0.000578	5.776402	1.957098	0.000231
 479	4.7561e+01	19.0342	125.470142	0.000507	5.067019	1.716753	0.000203
 480	4.7660e+01	19.0727	125.760815	0.000730	7.296508	2.472124	0.000292
 481	4.7760e+01	19.1080	125.954598	0.000486	4.864339	1.648083	0.000195
 482	4.7859e+01	19.1545	126.168566	0.000537	5.371041	1.819758	0.000215
 483	4.7959e+01	19.2011	126.439054	0.000679	6.789806	2.300449	0.000272
 484	4.8059e+01	19.2315	126.685319	0.000618	6.181764	2.094438	0.000248
 485	4.8158e+01	19.2749	126.846805	0.000405	4.053615	1.373402	0.000162
 486	4.8258e+01	19.3150	127.117293	0.000679	6.789806	2.300449	0.000272
 487	4.8357e+01	19.3599	127.371633	0.000638	6.384444	2.163108	0.000256
 488	4.8456e+01	19.3920	127.597712	0.000568	5.675062	1.922763	0.000227
 489	4.8556e+01	19.4241	127.807643	0.000527	5.269700	1.785423	0.000211
 490	4.8656e+01	19.4706	128.053908	0.000618	6.181764	2.094438	0.000248
 491	4.8755e+01	19.5075	128.308248	0.000638	6.384444	2.163108	0.000256
 492	4.8855e+01	19.5492	128.550476	0.000608	6.080423	2.060103	0.000243
 493	4.8954e+01	19.5957	128.768482	0.000547	5.472381	1.854093	0.000219
 494	4.9053e+01	19.6262	128.986487	0.000547	5.472381	1.854093	0.000219
 495	4.9153e+01	19.6695	129.236789	0.000628	6.283104	2.128773	0.000252
 496	4.9252e+01	19.7016	129.462869	0.000568	5.675062	1.922763	0.000227
 497	4.9352e+01	19.7593	129.733357	0.000679	6.789806	2.300449	0.000272
 498	4.9452e+01	19.7898	129.927139	0.000486	4.864339	1.648083	0.000195
 499	4.9551e+01	19.8379	130.233962	0.000770	7.701869	2.609464	0.000308
 500	4.9651e+01	19.8684	130.415633	0.000456	4.560317	1.545077	0.000183
 501	4.9750e+01	19.9182	130.706307	0.000730	7.296508	2.472124	0.000292
 502	4.9849e+01	19.9454	130.920275	0.000537	5.371041	1.819758	0.000215
 503	4.9949e+01	19.9887	131.170577	0.000628	6.283104	2.128773	0.000252
 504	5.0048e+01	19.9454	131.053500	0.000294	2.938871	0.995717	-0.000118
 505	5.0148e+01	19.9069	130.916238	0.000345	3.445573	1.167392	-0.000138
 506	5.0248e+01	19.8604	130.811272	0.000263	2.634850	0.892711	-0.000105
 507	5.0347e+01	19.8299	130.710344	0.000253	2.533510	0.858376	-0.000101
 508	5.0447e+01	19.7930	130.605378	0.000263	2.634850	0.892711	-0.000105
 509	5.0546e+01	19.7545	130.476190	0.000324	3.242892	1.098722	-0.000130
 510	5.0645e+01	19.7160	130.347002	0.000324	3.242892	1.098722	-0.000130
 511	5.0745e+01	19.6727	130.197628	0.000375	3.749594	1.270397	-0.000150
 512	5.0844e+01	19.6326	130.056328	0.000355	3.546914	1.201727	-0.000142
 513	5.0944e+01	19.5925	129.983659	0.000182	1.824127	0.618031	-0.000073
 514	5.1044e+01	19.5492	129.810063	0.000436	4.357637	1.476407	-0.000174
 515	5.1143e+01	19.5059	129.688948	0.000304	3.040212	1.030052	-0.000122
 516	5.1242e+01	19.4722	129.535537	0.000385	3.850935	1.304732	-0.000154
 517	5.1342e+01	19.4401	129.414423	0.000304	3.040212	1.030052	-0.000122
 518	5.1441e+01	19.3920	129.265049	0.000375	3.749594	1.270397	-0.000150
 519	5.1541e+01	19.3551	129.127787	0.000345	3.445573	1.167392	-0.000138
 520	5.1641e+01	19.3150	128.946115	0.000456	4.560317	1.545077	-0.000183
 521	5.1740e+01	19.2845	128.784630	0.000405	4.053615	1.373402	-0.000162
 522	5.1840e+01	19.2283	128.627182	0.000395	3.952275	1.339067	-0.000158
 523	5.1939e+01	19.1979	128.522216	0.000263	2.634850	0.892711	-0.000105
 524	5.2038e+01	19.1545	128.360731	0.000405	4.053615	1.373402	-0.000162
 525	5.2138e+01	19.1096	128.187134	0.000436	4.357637	1.476407	-0.000174
 526	5.2237e+01	19.0695	128.045834	0.000355	3.546914	1.201727	-0.000142
 527	5.2337e+01	19.0342	127.908572	0.000345	3.445573	1.167392	-0.000138
 528	5.2437e+01	19.0005	127.739012	0.000426	4.256296	1.442072	-0.000170
 529	5.2536e+01	18.9556	127.585601	0.000385	3.850935	1.304732	-0.000154
 530	5.2636e+01	18.9139	127.428152	0.000395	3.952275	1.339067	-0.000158
 531	5.2735e+01	18.8770	127.290890	0.000345	3.445573	1.167392	-0.000138
 532	5.2834e+01	18.8321	127.125367	0.000415	4.154956	1.407737	-0.000166
 533	5.2934e+01	18.8000	126.931585	0.000486	4.864339	1.648083	-0.000195
 534	5.3033e+01	18.7503	126.757988	0.000436	4.357637	1.476407	-0.000174
 535	5.3133e+01	18.7102	126.624762	0.000334	3.344233	1.133057	-0.000134
 536	5.3233e+01	18.6765	126.455203	0.000426	4.256296	1.442072	-0.000170
 537	5.3332e+01	18.6316	126.301792	0.000385	3.850935	1.304732	-0.000154
 538	5.3431e+01	18.5882	126.124158	0.000446	4.458977	1.510742	-0.000179
 539	5.3531e+01	18.5578	125.962672	0.000405	4.053615	1.373402	-0.000162
 540	5.3630e+01	18.5193	125.805224	0.000395	3.952275	1.339067	-0.000158
 541	5.3730e+01	18.4808	125.671998	0.000334	3.344233	1.133057	-0.000134
 542	5.3830e+01	18.4423	125.498402	0.000436	4.357637	1.476407	-0.000174
 543	5.3929e+01	18.3973	125.308656	0.000476	4.762998	1.613747	-0.000191
 544	5.4029e+01	18.3556	125.126985	0.000456	4.560317	1.545077	-0.000183
 545	5.4128e+01	18.3187	124.985685	0.000355	3.546914	1.201727	-0.000142
 546	5.4227e+01	18.2626	124.808051	0.000446	4.458977	1.510742	-0.000179
 547	5.4327e+01	18.2289	124.602157	0.000517	5.168360	1.751088	-0.000207
 548	5.4426e+01	18.2080	124.448746	0.000385	3.850935	1.304732	-0.000154
 549	5.4526e+01	18.1631	124.307447	0.000355	3.546914	1.201727	-0.000142
 550	5.4626e+01	18.1150	124.097515	0.000527	5.269700	1.785423	-0.000211
 551	5.4725e+01	18.0733	123.923919	0.000436	4.357637	1.476407	-0.000174
 552	5.4825e+01	18.0444	123.746285	0.000446	4.458977	1.510742	-0.000179
 553	5.4924e+01	18.0091	123.584799	0.000405	4.053615	1.373402	-0.000162
 554	5.5023e+01	17.9562	123.419277	0.000415	4.154956	1.407737	-0.000166
 555	5.5123e+01	17.9113	123.245680	0.000436	4.357637	1.476407	-0.000174
 556	5.5222e+01	17.8808	123.084194	0.000405	4.053615	1.373402	-0.000162
 557	5.5322e+01	17.8407	122.902523	0.000456	4.560317	1.545077	-0.000183
 558	5.5422e+01	17.7990	122.712778	0.000476	4.762998	1.613747	-0.000191
 559	5.5521e+01	17.7621	122.567441	0.000365	3.648254	1.236062	-0.000146
 560	5.5620e+01	17.7188	122.369621	0.000497	4.965679	1.682418	-0.000199
 561	5.5720e+01	17.6851	122.216210	0.000385	3.850935	1.304732	-0.000154
 562	5.5819e+01	17.6353	122.042613	0.000436	4.357637	1.476407	-0.000174
 563	5.5919e+01	17.5936	121.816534	0.000568	5.675062	1.922763	-0.000227
 564	5.6019e+01	17.5615	121.679271	0.000345	3.445573	1.167392	-0.000138
 565	5.6118e+01	17.5198	121.505674	0.000436	4.357637	1.476407	-0.000174
 566	5.6218e+01	17.4829	121.315929	0.000476	4.762998	1.613747	-0.000191
 567	5.6317e+01	17.4348	121.114072	0.000507	5.067019	1.716753	-0.000203
 568	5.6416e+01	17.4011	120.960661	0.000385	3.850935	1.304732	-0.000154
 569	5.6516e+01	17.3530	120.766878	0.000486	4.864339	1.648083	-0.000195
 570	5.6615e+01	17.3209	120.621542	0.000365	3.648254	1.236062	-0.000146
 571	5.6715e+01	17.2792	120.415648	0.000517	5.168360	1.751088	-0.000207
 572	5.6815e+01	17.2455	120.258199	0.000395	3.952275	1.339067	-0.000158
 573	5.6914e+01	17.2038	120.068454	0.000476	4.762998	1.613747	-0.000191
 574	5.7014e+01	17.1701	119.890820	0.000446	4.458977	1.510742	-0.000179
 575	5.7113e+01	17.1236	119.725297	0.000415	4.154956	1.407737	-0.000166
 576	5.7212e+01	17.0835	119.535552	0.000476	4.762998	1.613747	-0.000191
 577	5.7312e+01	17.0418	119.353881	0.000456	4.560317	1.545077	-0.000183
 578	5.7411e+01	16.9968	119.188358	0.000415	4.154956	1.407737	-0.000166
 579	5.7511e+01	16.9616	118.986502	0.000507	5.067019	1.716753	-0.000203
 580	5.7611e+01	16.9247	118.796756	0.000476	4.762998	1.613747	-0.000191
 581	5.7710e+01	16.8813	118.586825	0.000527	5.269700	1.785423	-0.000211
 582	5.7809e+01	16.8477	118.421303	0.000415	4.154956	1.407737	-0.000166
 583	5.7909e+01	16.8075	118.231557	0.000476	4.762998	1.613747	-0.000191
 584	5.8008e+01	16.7739	118.066035	0.000415	4.154956	1.407737	-0.000166
 585	5.8108e+01	16.7129	117.839955	0.000568	5.675062	1.922763	-0.000227
 586	5.8208e+01	16.6792	117.658284	0.000456	4.560317	1.545077	-0.000183
 587	5.8307e+01	16.6439	117.472576	0.000466	4.661658	1.579412	-0.000187
 588	5.8407e+01	16.6038	117.282830	0.000476	4.762998	1.613747	-0.000191
 589	5.8506e+01	16.5573	117.089048	0.000486	4.864339	1.648083	-0.000195
 590	5.8605e+01	16.5316	116.903340	0.000466	4.661658	1.579412	-0.000187
 591	5.8705e+01	16.4803	116.677260	0.000568	5.675062	1.922763	-0.000227
 592	5.8804e+01	16.4386	116.556146	0.000304	3.040212	1.030052	-0.000122
 593	5.8904e+01	16.4017	116.358326	0.000497	4.965679	1.682418	-0.000199
 594	5.9004e+01	16.3648	116.144358	0.000537	5.371041	1.819758	-0.000215
 595	5.9103e+01	16.3215	115.958650	0.000466	4.661658	1.579412	-0.000187
 596	5.9203e+01	16.2798	115.732570	0.000568	5.675062	1.922763	-0.000227
 597	5.9302e+01	16.2429	115.550899	0.000456	4.560317	1.545077	-0.000183
 598	5.9401e+01	16.2124	115.373265	0.000446	4.458977	1.510742	-0.000179
 599	5.9501e+01	16.1659	115.175445	0.000497	4.965679	1.682418	-0.000199
 600	5.9600e+01	16.1225	114.981663	0.000486	4.864339	1.648083	-0.000195
 601	5.9700e+01	16.0937	114.816140	0.000415	4.154956	1.407737	-0.000166
 602	5.9800e+01	16.0471	114.630432	0.000466	4.661658	1.579412	-0.000187
 603	5.9899e+01	16.0006	114.452798	0.000446	4.458977	1.510742	-0.000179
 604	5.9998e+01	15.9766	114.230756	0.000557	5.573721	1.888428	-0.000223
 605	6.0098e+01	15.9204	114.065233	0.000415	4.154956	1.407737	-0.000166
 606	6.0197e+01	15.8899	113.863376	0.000507	5.067019	1.716753	-0.000203
 607	6.0297e+01	15.8450	113.685742	0.000446	4.458977	1.510742	-0.000179
 608	6.0397e+01	15.8097	113.463700	0.000557	5.573721	1.888428	-0.000223
 609	6.0496e+01	15.7664	113.294140	0.000426	4.256296	1.442072	-0.000170
 610	6.0596e+01	15.7231	113.108432	0.000466	4.661658	1.579412	-0.000187
 611	6.0695e+01	15.6814	112.910612	0.000497	4.965679	1.682418	-0.000199
 612	6.0794e+01	15.6413	112.684533	0.000568	5.675062	1.922763	-0.000227
 613	6.0894e+01	15.6188	112.523047	0.000405	4.053615	1.373402	-0.000162
 614	6.0993e+01	15.5691	112.325228	0.000497	4.965679	1.682418	-0.000199
 615	6.1093e+01	15.5258	112.135482	0.000476	4.762998	1.613747	-0.000191
 616	6.1193e+01	15.4825	111.933625	0.000507	5.067019	1.716753	-0.000203
 617	6.1292e+01	15.4488	111.743880	0.000476	4.762998	1.613747	-0.000191
 618	6.1392e+01	15.4167	111.513763	0.000578	5.776402	1.957098	-0.000231
 619	6.1491e+01	15.3621	111.311907	0.000507	5.067019	1.716753	-0.000203
 620	6.1590e+01	15.3300	111.182718	0.000324	3.242892	1.098722	-0.000130
 621	6.1690e+01	15.2867	110.960676	0.000557	5.573721	1.888428	-0.000223
 622	6.1789e+01	15.2514	110.795153	0.000415	4.154956	1.407737	-0.000166
 623	6.1889e+01	15.1953	110.552925	0.000608	6.080423	2.060103	-0.000243
 624	6.1989e+01	15.1680	110.383365	0.000426	4.256296	1.442072	-0.000170
 625	6.2088e+01	15.1279	110.157286	0.000568	5.675062	1.922763	-0.000227
 626	6.2188e+01	15.0942	109.963503	0.000486	4.864339	1.648083	-0.000195
 627	6.2287e+01	15.0541	109.785869	0.000446	4.458977	1.510742	-0.000179
 628	6.2386e+01	15.0188	109.592087	0.000486	4.864339	1.648083	-0.000195
 629	6.2486e+01	14.9707	109.394267	0.000497	4.965679	1.682418	-0.000199
 630	6.2586e+01	14.9290	109.152039	0.000608	6.080423	2.060103	-0.000243
 631	6.2685e+01	14.8841	109.002665	0.000375	3.749594	1.270397	-0.000150
 632	6.2785e+01	14.8536	108.820994	0.000456	4.560317	1.545077	-0.000183
 633	6.2884e+01	14.8151	108.598951	0.000557	5.573721	1.888428	-0.000223
 634	6.2983e+01	14.7622	108.401132	0.000497	4.965679	1.682418	-0.000199
 635	6.3083e+01	14.7317	108.183126	0.000547	5.472381	1.854093	-0.000219
 636	6.3182e+01	14.6916	108.005492	0.000446	4.458977	1.510742	-0.000179
 637	6.3282e+01	14.6515	107.839970	0.000415	4.154956	1.407737	-0.000166
 638	6.3382e+01	14.6097	107.630039	0.000527	5.269700	1.785423	-0.000211
 639	6.3481e+01	14.5793	107.432219	0.000497	4.965679	1.682418	-0.000199
 640	6.3581e+01	14.5327	107.202102	0.000578	5.776402	1.957098	-0.000231
 641	6.3680e+01	14.4942	107.000246	0.000507	5.067019	1.716753	-0.000203
 642	6.3779e+01	14.4573	106.810500	0.000476	4.762998	1.613747	-0.000191
 643	6.3879e+01	14.4060	106.616718	0.000486	4.864339	1.648083	-0.000195
 644	6.3978e+01	14.3691	106.422935	0.000486	4.864339	1.648083	-0.000195
 645	6.4078e+01	14.3274	106.196856	0.000568	5.675062	1.922763	-0.000227
 646	6.4177e+01	14.2921	106.007110	0.000476	4.762998	1.613747	-0.000191
 647	6.4277e+01	14.2488	105.772956	0.000588	5.877742	1.991433	-0.000235
 648	6.4376e+01	14.2071	105.591285	0.000456	4.560317	1.545077	-0.000183
 649	6.4476e+01	14.1702	105.393466	0.000497	4.965679	1.682418	-0.000199
 650	6.4576e+01	14.1285	105.187572	0.000517	5.168360	1.751088	-0.000207
 651	6.4675e+01	14.0964	104.981678	0.000517	5.168360	1.751088	-0.000207
 652	6.4775e+01	14.0563	104.759635	0.000557	5.573721	1.888428	-0.000223
 653	6.4874e+01	14.0098	104.561816	0.000497	4.965679	1.682418	-0.000199
 654	6.4974e+01	13.9729	104.372070	0.000476	4.762998	1.613747	-0.000191
 655	6.5073e+01	13.9376	104.174251	0.000497	4.965679	1.682418	-0.000199
 656	6.5172e+01	13.8911	103.919911	0.000638	6.384444	2.163108	-0.000256
 657	6.5272e+01	13.8493	103.766500	0.000385	3.850935	1.304732	-0.000154
 658	6.5371e+01	13.8140	103.560606	0.000517	5.168360	1.751088	-0.000207
 659	6.5471e+01	13.7868	103.334526	0.000568	5.675062	1.922763	-0.000227
 660	6.5570e+01	13.7322	103.124595	0.000527	5.269700	1.785423	-0.000211
 661	6.5670e+01	13.6937	102.914664	0.000527	5.269700	1.785423	-0.000211
 662	6.5769e+01	13.6552	102.724919	0.000476	4.762998	1.613747	-0.000191
 663	6.5869e+01	13.6103	102.527099	0.000497	4.965679	1.682418	-0.000199
 664	6.5969e+01	13.5782	102.309094	0.000547	5.472381	1.854093	-0.000219
 665	6.6068e+01	13.5333	102.107237	0.000507	5.067019	1.716753	-0.000203
 666	6.6168e+01	13.4868	101.897306	0.000527	5.269700	1.785423	-0.000211
 667	6.6267e+01	13.4515	101.723709	0.000436	4.357637	1.476407	-0.000174
 668	6.6367e+01	13.4146	101.517815	0.000517	5.168360	1.751088	-0.000207
 669	6.6466e+01	13.3777	101.328070	0.000476	4.762998	1.613747	-0.000191
 670	6.6566e+01	13.3248	101.093916	0.000588	5.877742	1.991433	-0.000235
 671	6.6665e+01	13.2943	100.896096	0.000497	4.965679	1.682418	-0.000199
 672	6.6764e+01	13.2622	100.722500	0.000436	4.357637	1.476407	-0.000174
 673	6.6864e+01	13.2221	100.492383	0.000578	5.776402	1.957098	-0.000231
 674	6.6963e+01	13.1740	100.282452	0.000527	5.269700	1.785423	-0.000211
 675	6.7063e+01	13.1403	100.076558	0.000517	5.168360	1.751088	-0.000207
 676	6.7162e+01	13.1082	99.923147	0.000385	3.850935	1.304732	-0.000154
 677	6.7262e+01	13.0601	99.656696	0.000669	6.688466	2.266113	-0.000268
 678	6.7362e+01	13.0232	99.483099	0.000436	4.357637	1.476407	-0.000174
 679	6.7461e+01	12.9782	99.265094	0.000547	5.472381	1.854093	-0.000219
 680	6.7561e+01	12.9365	99.067274	0.000497	4.965679	1.682418	-0.000199
 681	6.7660e+01	12.8932	98.889640	0.000446	4.458977	1.510742	-0.000179
 682	6.7760e+01	12.8563	98.659523	0.000578	5.776402	1.957098	-0.000231
 683	6.7859e+01	12.8130	98.461704	0.000497	4.965679	1.682418	-0.000199
 684	6.7959e+01	12.7889	98.215438	0.000618	6.181764	2.094438	-0.000248
 685	6.8058e+01	12.7472	98.029730	0.000466	4.661658	1.579412	-0.000187
 686	6.8157e+01	12.7023	97.831910	0.000497	4.965679	1.682418	-0.000199
 687	6.8257e+01	12.6638	97.626016	0.000517	5.168360	1.751088	-0.000207
 688	6.8356e+01	12.6189	97.424160	0.000507	5.067019	1.716753	-0.000203
 689	6.8456e+01	12.5788	97.181931	0.000608	6.080423	2.060103	-0.000243
 690	6.8555e+01	12.5451	96.951815	0.000578	5.776402	1.957098	-0.000231
 691	6.8655e+01	12.5002	96.745921	0.000517	5.168360	1.751088	-0.000207
 692	6.8754e+01	12.4633	96.540027	0.000517	5.168360	1.751088	-0.000207
 693	6.8854e+01	12.4264	96.346244	0.000486	4.864339	1.648083	-0.000195
 694	6.8954e+01	12.3799	96.120165	0.000568	5.675062	1.922763	-0.000227
 695	6.9053e+01	12.3382	95.886011	0.000588	5.877742	1.991433	-0.000235
 696	6.9153e+01	12.3077	95.700303	0.000466	4.661658	1.579412	-0.000187
 697	6.9252e+01	12.2612	95.490372	0.000527	5.269700	1.785423	-0.000211
 698	6.9352e+01	12.2243	95.252181	0.000598	5.979083	2.025768	-0.000239
 699	6.9451e+01	12.1809	95.062435	0.000476	4.762998	1.613747	-0.000191
 700	6.9550e+01	12.1473	94.848467	0.000537	5.371041	1.819758	-0.000215
 701	6.9650e+01	12.0975	94.618350	0.000578	5.776402	1.957098	-0.000231
 702	6.9749e+01	12.0606	94.388234	0.000578	5.776402	1.957098	-0.000231
 703	6.9849e+01	12.0285	94.194451	0.000486	4.864339	1.648083	-0.000195
 704	6.9948e+01	11.9820	93.976446	0.000547	5.472381	1.854093	-0.000219
 705	7.0048e+01	11.9419	93.762478	0.000537	5.371041	1.819758	-0.000215
 706	7.0147e+01	11.9098	93.524287	0.000598	5.979083	2.025768	-0.000239
 707	7.0247e+01	11.8601	93.306281	0.000547	5.472381	1.854093	-0.000219
 708	7.0347e+01	11.8264	93.104424	0.000507	5.067019	1.716753	-0.000203
 709	7.0446e+01	11.7847	92.870271	0.000588	5.877742	1.991433	-0.000235
 710	7.0546e+01	11.7398	92.636117	0.000588	5.877742	1.991433	-0.000235
 711	7.0645e+01	11.7013	92.486743	0.000375	3.749594	1.270397	-0.000150
 712	7.0745e+01	11.6628	92.256626	0.000578	5.776402	1.957098	-0.000231
 713	7.0844e+01	11.6259	92.006323	0.000628	6.283104	2.128773	-0.000252
 714	7.0944e+01	11.5745	91.772170	0.000588	5.877742	1.991433	-0.000235
 715	7.1043e+01	11.5441	91.570313	0.000507	5.067019	1.716753	-0.000203
 716	7.1142e+01	11.5040	91.340196	0.000578	5.776402	1.957098	-0.000231
 717	7.1242e+01	11.4606	91.130265	0.000527	5.269700	1.785423	-0.000211
 718	7.1341e+01	11.4189	90.904185	0.000568	5.675062	1.922763	-0.000227
 719	7.1441e+01	11.3884	90.702329	0.000507	5.067019	1.716753	-0.000203
 720	7.1540e+01	11.3483	90.504509	0.000497	4.965679	1.682418	-0.000199
 721	7.1640e+01	11.3002	90.238058	0.000669	6.688466	2.266113	-0.000268
 722	7.1740e+01	11.2665	90.072535	0.000415	4.154956	1.407737	-0.000166
 723	7.1839e+01	11.2328	89.826270	0.000618	6.181764	2.094438	-0.000248
 724	7.1939e+01	11.1847	89.592116	0.000588	5.877742	1.991433	-0.000235
 725	7.2038e+01	11.1526	89.390260	0.000507	5.067019	1.716753	-0.000203
 726	7.2138e+01	11.0997	89.192440	0.000497	4.965679	1.682418	-0.000199
 727	7.2237e+01	11.0692	88.930026	0.000659	6.587125	2.231778	-0.000264
 728	7.2337e+01	11.0275	88.707984	0.000557	5.573721	1.888428	-0.000223
 729	7.2436e+01	10.9858	88.473830	0.000588	5.877742	1.991433	-0.000235
 730	7.2535e+01	10.9473	88.259862	0.000537	5.371041	1.819758	-0.000215
 731	7.2635e+01	10.9040	88.025708	0.000588	5.877742	1.991433	-0.000235
 732	7.2734e+01	10.8623	87.823851	0.000507	5.067019	1.716753	-0.000203
 733	7.2834e+01	10.8206	87.609883	0.000537	5.371041	1.819758	-0.000215
 734	7.2933e+01	10.7885	87.379766	0.000578	5.776402	1.957098	-0.000231
 735	7.3033e+01	10.7468	87.137538	0.000608	6.080423	2.060103	-0.000243
 736	7.3132e+01	10.7115	86.927607	0.000527	5.269700	1.785423	-0.000211
 737	7.3232e+01	10.6681	86.721713	0.000517	5.168360	1.751088	-0.000207
 738	7.3332e+01	10.6184	86.491596	0.000578	5.776402	1.957098	-0.000231
 739	7.3431e+01	10.5879	86.208997	0.000709	7.093827	2.403454	-0.000284
 740	7.3531e+01	10.5559	86.019251	0.000476	4.762998	1.613747	-0.000191
 741	7.3630e+01	10.5093	85.813357	0.000517	5.168360	1.751088	-0.000207
 742	7.3730e+01	10.4676	85.583241	0.000578	5.776402	1.957098	-0.000231
 743	7.3829e+01	10.4243	85.353124	0.000578	5.776402	1.957098	-0.000231
 744	7.3928e+01	10.3874	85.118970	0.000588	5.877742	1.991433	-0.000235
 745	7.4028e+01	10.3473	84.848482	0.000679	6.789806	2.300449	-0.000272
 746	7.4127e+01	10.3040	84.638551	0.000527	5.269700	1.785423	-0.000211
 747	7.4227e+01	10.2767	84.396323	0.000608	6.080423	2.060103	-0.000243
 748	7.4326e+01	10.2270	84.174280	0.000557	5.573721	1.888428	-0.000223
 749	7.4426e+01	10.1933	83.964349	0.000527	5.269700	1.785423	-0.000211
 750	7.4525e+01	10.1436	83.730195	0.000588	5.877742	1.991433	-0.000235
 751	7.4625e+01	10.1163	83.467781	0.000659	6.587125	2.231778	-0.000264
 752	7.4725e+01	10.0634	83.237665	0.000578	5.776402	1.957098	-0.000231
 753	7.4824e+01	10.0313	82.995437	0.000608	6.080423	2.060103	-0.000243
 754	7.4924e+01	9.9863	82.769357	0.000568	5.675062	1.922763	-0.000227
 755	7.5023e+01	9.9478	82.555389	0.000537	5.371041	1.819758	-0.000215
 756	7.5123e+01	9.9093	82.321235	0.000588	5.877742	1.991433	-0.000235
 757	7.5222e+01	9.8773	82.103230	0.000547	5.472381	1.854093	-0.000219
 758	7.5322e+01	9.8323	81.852927	0.000628	6.283104	2.128773	-0.000252
 759	7.5421e+01	9.7890	81.602625	0.000628	6.283104	2.128773	-0.000252
 760	7.5520e+01	9.7553	81.328099	0.000689	6.891146	2.334784	-0.000276
 761	7.5620e+01	9.7072	81.134317	0.000486	4.864339	1.648083	-0.000195
 762	7.5719e+01	9.6671	80.888052	0.000618	6.181764	2.094438	-0.000248
 763	7.5819e+01	9.6302	80.661972	0.000568	5.675062	1.922763	-0.000227
 764	7.5918e+01	9.5901	80.419744	0.000608	6.080423	2.060103	-0.000243
 765	7.6018e+01	9.5452	80.185590	0.000588	5.877742	1.991433	-0.000235
 766	7.6118e+01	9.5115	79.947399	0.000598	5.979083	2.025768	-0.000239
 767	7.6217e+01	9.4714	79.709208	0.000598	5.979083	2.025768	-0.000239
 768	7.6317e+01	9.4409	79.475054	0.000588	5.877742	1.991433	-0.000235
 769	7.6416e+01	9.3896	79.244937	0.000578	5.776402	1.957098	-0.000231
 770	7.6516e+01	9.3527	78.974449	0.000679	6.789806	2.300449	-0.000272
 771	7.6615e+01	9.3142	78.748370	0.000568	5.675062	1.922763	-0.000227
 772	7.6715e+01	9.2741	78.530364	0.000547	5.472381	1.854093	-0.000219
 773	7.6814e+01	9.2259	78.251802	0.000699	6.992487	2.369119	-0.000280
 774	7.6913e+01	9.1923	78.025722	0.000568	5.675062	1.922763	-0.000227
 775	7.7013e+01	9.1586	77.799643	0.000568	5.675062	1.922763	-0.000227
 776	7.7112e+01	9.1120	77.569526	0.000578	5.776402	1.957098	-0.000231
 777	7.7212e+01	9.0703	77.278852	0.000730	7.296508	2.472124	-0.000292
 778	7.7311e+01	9.0399	77.056810	0.000557	5.573721	1.888428	-0.000223
 779	7.7411e+01	8.9997	76.822656	0.000588	5.877742	1.991433	-0.000235
 780	7.7510e+01	8.9580	76.572354	0.000628	6.283104	2.128773	-0.000252
 781	7.7610e+01	8.9099	76.326088	0.000618	6.181764	2.094438	-0.000248
 782	7.7710e+01	8.8714	76.116157	0.000527	5.269700	1.785423	-0.000211
 783	7.7809e+01	8.8329	75.853743	0.000659	6.587125	2.231778	-0.000264
 784	7.7909e+01	8.7944	75.603441	0.000628	6.283104	2.128773	-0.000252
 785	7.8008e+01	8.7591	75.373324	0.000578	5.776402	1.957098	-0.000231
 786	7.8108e+01	8.7158	75.106873	0.000669	6.688466	2.266113	-0.000268
 787	7.8207e+01	8.6789	74.905016	0.000507	5.067019	1.716753	-0.000203
 788	7.8306e+01	8.6308	74.634528	0.000679	6.789806	2.300449	-0.000272
 789	7.8406e+01	8.5891	74.396337	0.000598	5.979083	2.025768	-0.000239
 790	7.8505e+01	8.5554	74.182369	0.000537	5.371041	1.819758	-0.000215
 791	7.8605e+01	8.5153	73.936104	0.000618	6.181764	2.094438	-0.000248
 792	7.8704e+01	8.4736	73.645430	0.000730	7.296508	2.472124	-0.000292
 793	7.8804e+01	8.4318	73.391091	0.000638	6.384444	2.163108	-0.000256
 794	7.8903e+01	8.3966	73.173085	0.000547	5.472381	1.854093	-0.000219
 795	7.9003e+01	8.3581	72.922783	0.000628	6.283104	2.128773	-0.000252
 796	7.9103e+01	8.3147	72.696703	0.000568	5.675062	1.922763	-0.000227
 797	7.9202e+01	8.2746	72.422178	0.000689	6.891146	2.334784	-0.000276
 798	7.9302e+01	8.2249	72.155727	0.000669	6.688466	2.266113	-0.000268
 799	7.9401e+01	8.1976	71.949833	0.000517	5.168360	1.751088	-0.000207
 800	7.9501e+01	8.1543	71.671271	0.000699	6.992487	2.369119	-0.000280
 801	7.9600e+01	8.1238	71.437117	0.000588	5.877742	1.991433	-0.000235
 802	7.9700e+01	8.0693	71.198926	0.000598	5.979083	2.025768	-0.000239
 803	7.9799e+01	8.0372	70.940549	0.000649	6.485785	2.197443	-0.000260
 804	7.9898e+01	7.9987	70.682173	0.000649	6.485785	2.197443	-0.000260
 805	7.9998e+01	7.9538	70.439944	0.000608	6.080423	2.060103	-0.000243
 806	8.0097e+01	7.9217	70.185605	0.000638	6.384444	2.163108	-0.000256
 807	8.0197e+01	7.8800	69.959525	0.000568	5.675062	1.922763	-0.000227
 808	8.0296e+01	7.8335	69.701149	0.000649	6.485785	2.197443	-0.000260
 809	8.0396e+01	7.7982	69.422586	0.000699	6.992487	2.369119	-0.000280
 810	8.0496e+01	7.7581	69.160172	0.000659	6.587125	2.231778	-0.000264
 811	8.0595e+01	7.7180	68.942167	0.000547	5.472381	1.854093	-0.000219
 812	8.0695e+01	7.6795	68.647456	0.000740	7.397848	2.506459	-0.000296
 813	8.0794e+01	7.6410	68.421376	0.000568	5.675062	1.922763	-0.000227
 814	8.0894e+01	7.5928	68.158963	0.000659	6.587125	2.231778	-0.000264
 815	8.0993e+01	7.5511	67.920772	0.000598	5.979083	2.025768	-0.000239
 816	8.1093e+01	7.5174	67.662395	0.000649	6.485785	2.197443	-0.000260
 817	8.1192e+01	7.4725	67.383833	0.000699	6.992487	2.369119	-0.000280
 818	8.1291e+01	7.4372	67.137567	0.000618	6.181764	2.094438	-0.000248
 819	8.1391e+01	7.4067	66.879191	0.000649	6.485785	2.197443	-0.000260
 820	8.1490e+01	7.3666	66.608703	0.000679	6.789806	2.300449	-0.000272
 821	8.1590e+01	7.3201	66.354363	0.000638	6.384444	2.163108	-0.000256
 822	8.1689e+01	7.2816	66.104061	0.000628	6.283104	2.128773	-0.000252
 823	8.1789e+01	7.2415	65.833572	0.000679	6.789806	2.300449	-0.000272
 824	8.1888e+01	7.2046	65.587307	0.000618	6.181764	2.094438	-0.000248
 825	8.1988e+01	7.1645	65.377376	0.000527	5.269700	1.785423	-0.000211
 826	8.2088e+01	7.1212	65.078628	0.000750	7.499189	2.540794	-0.000300
 827	8.2187e+01	7.0843	64.836400	0.000608	6.080423	2.060103	-0.000243
 828	8.2287e+01	7.0378	64.541689	0.000740	7.397848	2.506459	-0.000296
 829	8.2386e+01	7.0025	64.307535	0.000588	5.877742	1.991433	-0.000235
 830	8.2486e+01	6.9640	64.129901	0.000446	4.458977	1.510742	-0.000179
 831	8.2585e+01	6.9175	63.790782	0.000851	8.512592	2.884144	-0.000341
 832	8.2684e+01	6.8838	63.528368	0.000659	6.587125	2.231778	-0.000264
 833	8.2784e+01	6.8340	63.282103	0.000618	6.181764	2.094438	-0.000248
 834	8.2883e+01	6.7987	63.031800	0.000628	6.283104	2.128773	-0.000252
 835	8.2983e+01	6.7570	62.789572	0.000608	6.080423	2.060103	-0.000243
 836	8.3082e+01	6.7265	62.539270	0.000628	6.283104	2.128773	-0.000252
 837	8.3182e+01	6.6752	62.232447	0.000770	7.701869	2.609464	-0.000308
 838	8.3281e+01	6.6431	62.006368	0.000568	5.675062	1.922763	-0.000227
 839	8.3381e+01	6.6014	61.719731	0.000720	7.195167	2.437789	-0.000288
 840	8.3481e+01	6.5645	61.457317	0.000659	6.587125	2.231778	-0.000264
 841	8.3580e+01	6.5180	61.231238	0.000568	5.675062	1.922763	-0.000227
 842	8.3680e+01	6.4779	60.972861	0.000649	6.485785	2.197443	-0.000260
 843	8.3779e+01	6.4474	60.730633	0.000608	6.080423	2.060103	-0.000243
 844	8.3879e+01	6.4057	60.468219	0.000659	6.587125	2.231778	-0.000264
 845	8.3978e+01	6.3688	60.169471	0.000750	7.499189	2.540794	-0.000300
 846	8.4078e+01	6.3191	59.903020	0.000669	6.688466	2.266113	-0.000268
 847	8.4177e+01	6.2774	59.620421	0.000709	7.093827	2.403454	-0.000284
 848	8.4276e+01	6.2389	59.337821	0.000709	7.093827	2.403454	-0.000284
 849	8.4376e+01	6.1907	59.156150	0.000456	4.560317	1.545077	-0.000183
 850	8.4475e+01	6.1667	58.869513	0.000720	7.195167	2.437789	-0.000288
 851	8.4575e+01	6.1266	58.566728	0.000760	7.600529	2.575129	-0.000304
 852	8.4674e+01	6.0929	58.308351	0.000649	6.485785	2.197443	-0.000260
 853	8.4774e+01	6.0415	58.021715	0.000720	7.195167	2.437789	-0.000288
 854	8.4874e+01	5.9966	57.795635	0.000568	5.675062	1.922763	-0.000227
 855	8.4973e+01	5.9710	57.496887	0.000750	7.499189	2.540794	-0.000300
 856	8.5073e+01	5.9276	57.226399	0.000679	6.789806	2.300449	-0.000272
 857	8.5172e+01	5.8811	56.996282	0.000578	5.776402	1.957098	-0.000231
 858	8.5272e+01	5.8426	56.705609	0.000730	7.296508	2.472124	-0.000292
 859	8.5371e+01	5.8186	56.443195	0.000659	6.587125	2.231778	-0.000264
 860	8.5471e+01	5.7656	56.176744	0.000669	6.688466	2.266113	-0.000268
 861	8.5570e+01	5.7303	55.926441	0.000628	6.283104	2.128773	-0.000252
 862	8.5669e+01	5.6902	55.603471	0.000811	8.107231	2.746804	-0.000325
 863	8.5769e+01	5.6453	55.332982	0.000679	6.789806	2.300449	-0.000272
 864	8.5868e+01	5.6020	55.062494	0.000679	6.789806	2.300449	-0.000272
 865	8.5968e+01	5.5635	54.808155	0.000638	6.384444	2.163108	-0.000256
 866	8.6067e+01	5.5282	54.545741	0.000659	6.587125	2.231778	-0.000264
 867	8.6167e+01	5.4897	54.246993	0.000750	7.499189	2.540794	-0.000300
 868	8.6266e+01	5.4464	53.964393	0.000709	7.093827	2.403454	-0.000284
 869	8.6366e+01	5.4111	53.742351	0.000557	5.573721	1.888428	-0.000223
 870	8.6466e+01	5.3662	53.439566	0.000760	7.600529	2.575129	-0.000304
 871	8.6565e+01	5.3357	53.173115	0.000669	6.688466	2.266113	-0.000268
 872	8.6665e+01	5.2876	52.882441	0.000730	7.296508	2.472124	-0.000292
 873	8.6764e+01	5.2458	52.624064	0.000649	6.485785	2.197443	-0.000260
 874	8.6864e+01	5.2089	52.309168	0.000790	7.904550	2.678134	-0.000316
 875	8.6963e+01	5.1624	52.034643	0.000689	6.891146	2.334784	-0.000276
 876	8.7063e+01	5.1351	51.788377	0.000618	6.181764	2.094438	-0.000248
 877	8.7162e+01	5.0886	51.493666	0.000740	7.397848	2.506459	-0.000296
 878	8.7261e+01	5.0549	51.243364	0.000628	6.283104	2.128773	-0.000252
 879	8.7361e+01	4.9988	50.892133	0.000882	8.816614	2.987150	-0.000353
 880	8.7460e+01	4.9683	50.662016	0.000578	5.776402	1.957098	-0.000231
 881	8.7560e+01	4.9250	50.359231	0.000760	7.600529	2.575129	-0.000304
 882	8.7659e+01	4.8897	50.096817	0.000659	6.587125	2.231778	-0.000264
 883	8.7759e+01	4.8576	49.773847	0.000811	8.107231	2.746804	-0.000325
 884	8.7859e+01	4.8127	49.519507	0.000638	6.384444	2.163108	-0.000256
 885	8.7958e+01	4.7806	49.253056	0.000669	6.688466	2.266113	-0.000268
 886	8.8058e+01	4.7357	48.930085	0.000811	8.107231	2.746804	-0.000325
 887	8.8157e+01	4.6892	48.671708	0.000649	6.485785	2.197443	-0.000260
 888	8.8257e+01	4.6571	48.389109	0.000709	7.093827	2.403454	-0.000284
 889	8.8356e+01	4.6138	48.082287	0.000770	7.701869	2.609464	-0.000308
 890	8.8456e+01	4.5689	47.827947	0.000638	6.384444	2.163108	-0.000256
 891	8.8555e+01	4.5384	47.577645	0.000628	6.283104	2.128773	-0.000252
 892	8.8654e+01	4.4951	47.266785	0.000780	7.803210	2.643799	-0.000312
 893	8.8754e+01	4.4453	46.968037	0.000750	7.499189	2.540794	-0.000300
 894	8.8853e+01	4.4132	46.693512	0.000689	6.891146	2.334784	-0.000276
 895	8.8953e+01	4.3763	46.398801	0.000740	7.397848	2.506459	-0.000296
 896	8.9052e+01	4.3346	46.140424	0.000649	6.485785	2.197443	-0.000260
 897	8.9152e+01	4.2929	45.825528	0.000790	7.904550	2.678134	-0.000316
 898	8.9251e+01	4.2576	45.542928	0.000709	7.093827	2.403454	-0.000284
 899	8.9351e+01	4.2127	45.252254	0.000730	7.296508	2.472124	-0.000292
 900	8.9451e+01	4.1678	44.953506	0.000750	7.499189	2.540794	-0.000300
 901	8.9550e+01	4.1277	44.683018	0.000679	6.789806	2.300449	-0.000272
 902	8.9650e+01	4.0908	44.364085	0.000801	8.005891	2.712469	-0.000321
 903	8.9749e+01	4.0555	44.121856	0.000608	6.080423	2.060103	-0.000243
 904	8.9849e+01	4.0170	43.827146	0.000740	7.397848	2.506459	-0.000296
 905	8.9948e+01	3.9737	43.512249	0.000790	7.904550	2.678134	-0.000316
 906	9.0047e+01	3.9320	43.221575	0.000730	7.296508	2.472124	-0.000292
 907	9.0147e+01	3.8806	42.959161	0.000659	6.587125	2.231778	-0.000264
 908	9.0246e+01	3.8534	42.607931	0.000882	8.816614	2.987150	-0.000353
 909	9.0346e+01	3.8149	42.349554	0.000649	6.485785	2.197443	-0.000260
 910	9.0445e+01	3.7812	42.050806	0.000750	7.499189	2.540794	-0.000300
 911	9.0545e+01	3.7250	41.727835	0.000811	8.107231	2.746804	-0.000325
 912	9.0644e+01	3.6945	41.425050	0.000760	7.600529	2.575129	-0.000304
 913	9.0744e+01	3.6593	41.166673	0.000649	6.485785	2.197443	-0.000260
 914	9.0844e+01	3.6127	40.843702	0.000811	8.107231	2.746804	-0.000325
 915	9.0943e+01	3.5726	40.593400	0.000628	6.283104	2.128773	-0.000252
 916	9.1043e+01	3.5357	40.250243	0.000861	8.613933	2.918479	-0.000345
 917	9.1142e+01	3.4972	39.935347	0.000790	7.904550	2.678134	-0.000316
 918	9.1242e+01	3.4459	39.668896	0.000669	6.688466	2.266113	-0.000268
 919	9.1341e+01	3.4170	39.309591	0.000902	9.019294	3.055820	-0.000361
 920	9.1441e+01	3.3641	39.018917	0.000730	7.296508	2.472124	-0.000292
 921	9.1540e+01	3.3336	38.752466	0.000669	6.688466	2.266113	-0.000268
 922	9.1639e+01	3.2935	38.417384	0.000841	8.411252	2.849809	-0.000337
 923	9.1739e+01	3.2598	38.134784	0.000709	7.093827	2.403454	-0.000284
 924	9.1838e+01	3.2181	37.807776	0.000821	8.208571	2.781139	-0.000329
 925	9.1938e+01	3.1716	37.529214	0.000699	6.992487	2.369119	-0.000280
 926	9.2037e+01	3.1411	37.234503	0.000740	7.397848	2.506459	-0.000296
 927	9.2137e+01	3.0994	36.883272	0.000882	8.816614	2.987150	-0.000353
 928	9.2237e+01	3.0545	36.588561	0.000740	7.397848	2.506459	-0.000296
 929	9.2336e+01	3.0127	36.273665	0.000790	7.904550	2.678134	-0.000316
 930	9.2436e+01	2.9662	35.966842	0.000770	7.701869	2.609464	-0.000308
 931	9.2535e+01	2.9309	35.676169	0.000730	7.296508	2.472124	-0.000292
 932	9.2635e+01	2.8988	35.377420	0.000750	7.499189	2.540794	-0.000300
 933	9.2734e+01	2.8587	35.054450	0.000811	8.107231	2.746804	-0.000325
 934	9.2834e+01	2.8186	34.735516	0.000801	8.005891	2.712469	-0.000321
 935	9.2933e+01	2.7753	34.432731	0.000760	7.600529	2.575129	-0.000304
 936	9.3032e+01	2.7400	34.125908	0.000770	7.701869	2.609464	-0.000308
 937	9.3132e+01	2.6967	33.802938	0.000811	8.107231	2.746804	-0.000325
 938	9.3231e+01	2.6598	33.496115	0.000770	7.701869	2.609464	-0.000308
 939	9.3331e+01	2.6213	33.185256	0.000780	7.803210	2.643799	-0.000312
 940	9.3430e+01	2.5812	32.862285	0.000811	8.107231	2.746804	-0.000325
 941	9.3530e+01	2.5331	32.531240	0.000831	8.309912	2.815474	-0.000333
 942	9.3629e+01	2.5074	32.228455	0.000760	7.600529	2.575129	-0.000304
 943	9.3729e+01	2.4529	31.929707	0.000750	7.499189	2.540794	-0.000300
 944	9.3829e+01	2.4224	31.602699	0.000821	8.208571	2.781139	-0.000329
 945	9.3928e+01	2.3775	31.307988	0.000740	7.397848	2.506459	-0.000296
 946	9.4028e+01	2.3374	30.989054	0.000801	8.005891	2.712469	-0.000321
 947	9.4127e+01	2.2957	30.678194	0.000780	7.803210	2.643799	-0.000312
 948	9.4227e+01	2.2668	30.343112	0.000841	8.411252	2.849809	-0.000337
 949	9.4326e+01	2.2170	29.995919	0.000872	8.715273	2.952815	-0.000349
 950	9.4425e+01	2.1737	29.701208	0.000740	7.397848	2.506459	-0.000296
 951	9.4525e+01	2.1400	29.386311	0.000790	7.904550	2.678134	-0.000316
 952	9.4624e+01	2.0951	29.059303	0.000821	8.208571	2.781139	-0.000329
 953	9.4724e+01	2.0630	28.736332	0.000811	8.107231	2.746804	-0.000325
 954	9.4823e+01	2.0261	28.425473	0.000780	7.803210	2.643799	-0.000312
 955	9.4923e+01	1.9844	28.118650	0.000770	7.701869	2.609464	-0.000308
 956	9.5022e+01	1.9379	27.763382	0.000892	8.917954	3.021485	-0.000357
 957	9.5122e+01	1.9010	27.440412	0.000811	8.107231	2.746804	-0.000325
 958	9.5222e+01	1.8545	27.125515	0.000790	7.904550	2.678134	-0.000316
 959	9.5321e+01	1.8240	26.818693	0.000770	7.701869	2.609464	-0.000308
 960	9.5421e+01	1.7775	26.491685	0.000821	8.208571	2.781139	-0.000329
 961	9.5520e+01	1.7374	26.188900	0.000760	7.600529	2.575129	-0.000304
 962	9.5620e+01	1.7021	25.809409	0.000953	9.525996	3.227495	-0.000381
 963	9.5719e+01	1.6588	25.542958	0.000669	6.688466	2.266113	-0.000268
 964	9.5819e+01	1.6235	25.175578	0.000922	9.221975	3.124490	-0.000369
 965	9.5918e+01	1.5802	24.856645	0.000801	8.005891	2.712469	-0.000321
 966	9.6017e+01	1.5401	24.529637	0.000821	8.208571	2.781139	-0.000329
 967	9.6117e+01	1.5080	24.210703	0.000801	8.005891	2.712469	-0.000321
 968	9.6216e+01	1.4647	23.823138	0.000973	9.728677	3.296165	-0.000390
 969	9.6316e+01	1.4214	23.572836	0.000628	6.283104	2.128773	-0.000252
 970	9.6415e+01	1.3828	23.205456	0.000922	9.221975	3.124490	-0.000369
 971	9.6515e+01	1.3427	22.882485	0.000811	8.107231	2.746804	-0.000325
 972	9.6615e+01	1.2914	22.571626	0.000780	7.803210	2.643799	-0.000312
 973	9.6714e+01	1.2673	22.212321	0.000902	9.019294	3.055820	-0.000361
 974	9.6814e+01	1.2160	21.897424	0.000790	7.904550	2.678134	-0.000316
 975	9.6913e+01	1.1839	21.542156	0.000892	8.917954	3.021485	-0.000357
 976	9.7013e+01	1.1422	21.203037	0.000851	8.512592	2.884144	-0.000341
 977	9.7112e+01	1.0925	20.884103	0.000801	8.005891	2.712469	-0.000321
 978	9.7212e+01	1.0556	20.532872	0.000882	8.816614	2.987150	-0.000353
 979	9.7311e+01	1.0123	20.209902	0.000811	8.107231	2.746804	-0.000325
 980	9.7410e+01	0.9850	19.854634	0.000892	8.917954	3.021485	-0.000357
 981	9.7510e+01	0.9433	19.503403	0.000882	8.816614	2.987150	-0.000353
 982	9.7609e+01	0.8952	19.188506	0.000790	7.904550	2.678134	-0.000316
 983	9.7709e+01	0.8583	18.861498	0.000821	8.208571	2.781139	-0.000329
 984	9.7808e+01	0.8214	18.518342	0.000861	8.613933	2.918479	-0.000345
 985	9.7908e+01	0.7877	18.159037	0.000902	9.019294	3.055820	-0.000361
 986	9.8007e+01	0.7331	17.823954	0.000841	8.411252	2.849809	-0.000337
 987	9.8107e+01	0.7043	17.500983	0.000811	8.107231	2.746804	-0.000325
 988	9.8207e+01	0.6658	17.133604	0.000922	9.221975	3.124490	-0.000369
 989	9.8306e+01	0.6337	16.802559	0.000831	8.309912	2.815474	-0.000333
 990	9.8406e+01	0.5823	16.451328	0.000882	8.816614	2.987150	-0.000353
 991	9.8505e+01	0.5422	16.092023	0.000902	9.019294	3.055820	-0.000361
 992	9.8605e+01	0.5101	15.752904	0.000851	8.512592	2.884144	-0.000341
 993	9.8704e+01	0.4588	15.442044	0.000780	7.803210	2.643799	-0.000312
 994	9.8803e+01	0.4203	15.094851	0.000872	8.715273	2.952815	-0.000349
 995	9.8903e+01	0.3898	14.727471	0.000922	9.221975	3.124490	-0.000369
 996	9.9002e+01	0.3465	14.400463	0.000821	8.208571	2.781139	-0.000329
 997	9.9102e+01	0.3000	14.041158	0.000902	9.019294	3.055820	-0.000361
 998	9.9201e+01	0.2599	13.754521	0.000720	7.195167	2.437789	-0.000288
 999	9.9301e+01	0.2310	13.338696	0.001044	10.438060	3.536510	-0.000418
1000	9.9400e+01	0.1893	13.039948	0.000750	7.499189	2.540794	-0.000300
1001	9.9500e+01	0.1444	12.648346	0.000983	9.830018	3.330500	-0.000394
1002	9.9600e+01	0.1011	12.333450	0.000790	7.904550	2.678134	-0.000316
1003	9.9699e+01	0.0754	12.002405	0.000831	8.309912	2.815474	-0.000333
1004	9.9799e+01	0.0305	11.630988	0.000932	9.323316	3.158825	-0.000373
1005	9.9898e+01	0.0016	11.412983	0.000547	5.472381	1.854093	-0.000219
1006	9.9998e+01	-0.0481	11.001195	0.001034	10.336719	3.502175	-0.000414
1007	1.0010e+02	-0.0802	10.682261	0.000801	8.005891	2.712469	-0.000321
1008	1.0020e+02	-0.1219	10.290659	0.000983	9.830018	3.330500	-0.000394
1009	1.0030e+02	-0.1652	9.983837	0.000770	7.701869	2.609464	-0.000308
1010	1.0040e+02	-0.2086	9.588197	0.000993	9.931358	3.364835	-0.000398
1011	1.0050e+02	-0.2358	9.301561	0.000720	7.195167	2.437789	-0.000288
1012	1.0059e+02	-0.2920	8.909959	0.000983	9.830018	3.330500	-0.000394
1013	1.0069e+02	-0.3289	8.619285	0.000730	7.296508	2.472124	-0.000292
1014	1.0079e+02	-0.3593	8.243831	0.000942	9.424656	3.193160	-0.000377
1015	1.0089e+02	-0.4011	7.912786	0.000831	8.309912	2.815474	-0.000333
1016	1.0099e+02	-0.4444	7.517147	0.000993	9.931358	3.364835	-0.000398
1017	1.0109e+02	-0.4909	7.186102	0.000831	8.309912	2.815474	-0.000333
1018	1.0119e+02	-0.5198	6.846982	0.000851	8.512592	2.884144	-0.000341
1019	1.0129e+02	-0.5663	6.487677	0.000902	9.019294	3.055820	-0.000361
1020	1.0139e+02	-0.5968	6.100112	0.000973	9.728677	3.296165	-0.000390
1021	1.0149e+02	-0.6433	5.769067	0.000831	8.309912	2.815474	-0.000333
1022	1.0159e+02	-0.6850	5.405725	0.000912	9.120635	3.090155	-0.000365
1023	1.0169e+02	-0.7107	5.038345	0.000922	9.221975	3.124490	-0.000369
1024	1.0179e+02	-0.7620	4.719412	0.000801	8.005891	2.712469	-0.000321
1025	1.0189e+02	-0.8021	4.376255	0.000861	8.613933	2.918479	-0.000345
1026	1.0199e+02	-0.8502	4.008876	0.000922	9.221975	3.124490	-0.000369
1027	1.0209e+02	-0.8759	3.661682	0.000872	8.715273	2.952815	-0.000349
1028	1.0219e+02	-0.9224	3.314488	0.000872	8.715273	2.952815	-0.000349
1029	1.0229e+02	-0.9706	2.918849	0.000993	9.931358	3.364835	-0.000398
1030	1.0239e+02	-1.0059	2.636250	0.000709	7.093827	2.403454	-0.000284
1031	1.0248e+02	-1.0411	2.204276	0.001084	10.843421	3.673851	-0.000434
1032	1.0258e+02	-1.0748	1.901491	0.000760	7.600529	2.575129	-0.000304
1033	1.0268e+02	-1.1310	1.481629	0.001054	10.539400	3.570845	-0.000422
1034	1.0278e+02	-1.1631	1.158658	0.000811	8.107231	2.746804	-0.000325
1035	1.0288e+02	-1.2064	0.843761	0.000790	7.904550	2.678134	-0.000316
1036	1.0298e+02	-1.2401	0.476382	0.000922	9.221975	3.124490	-0.000369
1037	1.0308e+02	-1.2818	0.113040	0.000912	9.120635	3.090155	-0.000365
1038	1.0318e+02	-1.3283	-0.226080	0.000851	8.512592	2.884144	-0.000341
1039	1.0328e+02	-1.3540	-0.633830	0.001024	10.235379	3.467840	-0.000410
1040	1.0338e+02	-1.3925	-0.932578	0.000750	7.499189	2.540794	-0.000300
1041	1.0348e+02	-1.4374	-1.279772	0.000872	8.715273	2.952815	-0.000349
1042	1.0358e+02	-1.4759	-1.683486	0.001013	10.134039	3.433505	-0.000406
1043	1.0368e+02	-1.5208	-2.026642	0.000861	8.613933	2.918479	-0.000345
1044	1.0378e+02	-1.5593	-2.369799	0.000861	8.613933	2.918479	-0.000345
1045	1.0388e+02	-1.6058	-2.696807	0.000821	8.208571	2.781139	-0.000329
1046	1.0398e+02	-1.6411	-3.068223	0.000932	9.323316	3.158825	-0.000373
1047	1.0408e+02	-1.6812	-3.403305	0.000841	8.411252	2.849809	-0.000337
1048	1.0418e+02	-1.7213	-3.750499	0.000872	8.715273	2.952815	-0.000349
1049	1.0428e+02	-1.7598	-4.109804	0.000902	9.019294	3.055820	-0.000361
1050	1.0438e+02	-1.7919	-4.497369	0.000973	9.728677	3.296165	-0.000390
1051	1.0447e+02	-1.8352	-4.828414	0.000831	8.309912	2.815474	-0.000333
1052	1.0457e+02	-1.8802	-5.171571	0.000861	8.613933	2.918479	-0.000345
1053	1.0467e+02	-1.9235	-5.510690	0.000851	8.512592	2.884144	-0.000341
1054	1.0477e+02	-1.9588	-5.837698	0.000821	8.208571	2.781139	-0.000329
1055	1.0487e+02	-2.0101	-6.241412	0.001013	10.134039	3.433505	-0.000406
1056	1.0497e+02	-2.0310	-6.612828	0.000932	9.323316	3.158825	-0.000373
1057	1.0507e+02	-2.0807	-6.919651	0.000770	7.701869	2.609464	-0.000308
1058	1.0517e+02	-2.1128	-7.266844	0.000872	8.715273	2.952815	-0.000349
1059	1.0527e+02	-2.1625	-7.610001	0.000861	8.613933	2.918479	-0.000345
1060	1.0537e+02	-2.1930	-7.932972	0.000811	8.107231	2.746804	-0.000325
1061	1.0547e+02	-2.2347	-8.284203	0.000882	8.816614	2.987150	-0.000353
1062	1.0557e+02	-2.2796	-8.663693	0.000953	9.525996	3.227495	-0.000381
1063	1.0567e+02	-2.3261	-8.990701	0.000821	8.208571	2.781139	-0.000329
1064	1.0577e+02	-2.3598	-9.350006	0.000902	9.019294	3.055820	-0.000361
1065	1.0587e+02	-2.3951	-9.640680	0.000730	7.296508	2.472124	-0.000292
1066	1.0597e+02	-2.4352	-10.020171	0.000953	9.525996	3.227495	-0.000381
1067	1.0607e+02	-2.4785	-10.326993	0.000770	7.701869	2.609464	-0.000308
1068	1.0617e+02	-2.5267	-10.722633	0.000993	9.931358	3.364835	-0.000398
1069	1.0627e+02	-2.5491	-11.029455	0.000770	7.701869	2.609464	-0.000308
1070	1.0637e+02	-2.5924	-11.421057	0.000983	9.830018	3.330500	-0.000394
1071	1.0647e+02	-2.6374	-11.723842	0.000760	7.600529	2.575129	-0.000304
1072	1.0656e+02	-2.6743	-12.083147	0.000902	9.019294	3.055820	-0.000361
1073	1.0666e+02	-2.7112	-12.385932	0.000760	7.600529	2.575129	-0.000304
1074	1.0676e+02	-2.7561	-12.741200	0.000892	8.917954	3.021485	-0.000357
1075	1.0686e+02	-2.7994	-13.100505	0.000902	9.019294	3.055820	-0.000361
1076	1.0696e+02	-2.8315	-13.399254	0.000750	7.499189	2.540794	-0.000300
1077	1.0706e+02	-2.8732	-13.742410	0.000861	8.613933	2.918479	-0.000345
1078	1.0716e+02	-2.9085	-14.109789	0.000922	9.221975	3.124490	-0.000369
1079	1.0726e+02	-2.9550	-14.436797	0.000821	8.208571	2.781139	-0.000329
1080	1.0736e+02	-2.9983	-14.759768	0.000811	8.107231	2.746804	-0.000325
1081	1.0746e+02	-3.0384	-15.098888	0.000851	8.512592	2.884144	-0.000341
1082	1.0756e+02	-3.0785	-15.438007	0.000851	8.512592	2.884144	-0.000341
1083	1.0766e+02	-3.1138	-15.805386	0.000922	9.221975	3.124490	-0.000369
1084	1.0776e+02	-3.1475	-16.136432	0.000831	8.309912	2.815474	-0.000333
1085	1.0786e+02	-3.1908	-16.467477	0.000831	8.309912	2.815474	-0.000333
1086	1.0796e+02	-3.2422	-16.766225	0.000750	7.499189	2.540794	-0.000300
1087	1.0806e+02	-3.2791	-17.125530	0.000902	9.019294	3.055820	-0.000361
1088	1.0816e+02	-3.3127	-17.432352	0.000770	7.701869	2.609464	-0.000308
1089	1.0826e+02	-3.3448	-17.799731	0.000922	9.221975	3.124490	-0.000369
1090	1.0836e+02	-3.3978	-18.138851	0.000851	8.512592	2.884144	-0.000341
1091	1.0845e+02	-3.4427	-18.445673	0.000770	7.701869	2.609464	-0.000308
1092	1.0855e+02	-3.4684	-18.796904	0.000882	8.816614	2.987150	-0.000353
1093	1.0865e+02	-3.5165	-19.099689	0.000760	7.600529	2.575129	-0.000304
1094	1.0875e+02	-3.5486	-19.414586	0.000790	7.904550	2.678134	-0.000316
1095	1.0885e+02	-3.6015	-19.777928	0.000912	9.120635	3.090155	-0.000365
1096	1.0895e+02	-3.6320	-20.137233	0.000902	9.019294	3.055820	-0.000361
1097	1.0905e+02	-3.6769	-20.460204	0.000811	8.107231	2.746804	-0.000325
1098	1.0915e+02	-3.7106	-20.738766	0.000699	6.992487	2.369119	-0.000280
1099	1.0925e+02	-3.7539	-21.073849	0.000841	8.411252	2.849809	-0.000337
1100	1.0935e+02	-3.8052	-21.404894	0.000831	8.309912	2.815474	-0.000333
1101	1.0945e+02	-3.8389	-21.756124	0.000882	8.816614	2.987150	-0.000353
1102	1.0955e+02	-3.8742	-22.071021	0.000790	7.904550	2.678134	-0.000316
1103	1.0965e+02	-3.9127	-22.377843	0.000770	7.701869	2.609464	-0.000308
1104	1.0975e+02	-3.9592	-22.729074	0.000882	8.816614	2.987150	-0.000353
1105	1.0985e+02	-3.9849	-23.019748	0.000730	7.296508	2.472124	-0.000292
1106	1.0995e+02	-4.0298	-23.338682	0.000801	8.005891	2.712469	-0.000321
1107	1.1005e+02	-4.0587	-23.665690	0.000821	8.208571	2.781139	-0.000329
1108	1.1015e+02	-4.1100	-23.992698	0.000821	8.208571	2.781139	-0.000329
1109	1.1025e+02	-4.1437	-24.331817	0.000851	8.512592	2.884144	-0.000341
1110	1.1035e+02	-4.1903	-24.658825	0.000821	8.208571	2.781139	-0.000329
1111	1.1044e+02	-4.2288	-24.933350	0.000689	6.891146	2.334784	-0.000276
1112	1.1054e+02	-4.2721	-25.288618	0.000892	8.917954	3.021485	-0.000357
1113	1.1064e+02	-4.3218	-25.583329	0.000740	7.397848	2.506459	-0.000296
1114	1.1074e+02	-4.3539	-25.926486	0.000861	8.613933	2.918479	-0.000345
1115	1.1084e+02	-4.3860	-26.253494	0.000821	8.208571	2.781139	-0.000329
1116	1.1094e+02	-4.4357	-26.523982	0.000679	6.789806	2.300449	-0.000272
1117	1.1104e+02	-4.4726	-26.875213	0.000882	8.816614	2.987150	-0.000353
1118	1.1114e+02	-4.5031	-27.173961	0.000750	7.499189	2.540794	-0.000300
1119	1.1124e+02	-4.5544	-27.521154	0.000872	8.715273	2.952815	-0.000349
1120	1.1134e+02	-4.5929	-27.775494	0.000638	6.384444	2.163108	-0.000256
1121	1.1144e+02	-4.6250	-28.090390	0.000790	7.904550	2.678134	-0.000316
1122	1.1154e+02	-4.6523	-28.445658	0.000892	8.917954	3.021485	-0.000357
1123	1.1164e+02	-4.7148	-28.744406	0.000750	7.499189	2.540794	-0.000300
1124	1.1174e+02	-4.7485	-29.051229	0.000770	7.701869	2.609464	-0.000308
1125	1.1184e+02	-4.7918	-29.341903	0.000730	7.296508	2.472124	-0.000292
1126	1.1194e+02	-4.8303	-29.672948	0.000831	8.309912	2.815474	-0.000333
1127	1.1204e+02	-4.8688	-29.991881	0.000801	8.005891	2.712469	-0.000321
1128	1.1214e+02	-4.9073	-30.298704	0.000770	7.701869	2.609464	-0.000308
1129	1.1224e+02	-4.9458	-30.593415	0.000740	7.397848	2.506459	-0.000296
1130	1.1234e+02	-4.9940	-30.900237	0.000770	7.701869	2.609464	-0.000308
1131	1.1244e+02	-5.0212	-31.207059	0.000770	7.701869	2.609464	-0.000308
1132	1.1253e+02	-5.0726	-31.538104	0.000831	8.309912	2.815474	-0.000333
1133	1.1263e+02	-5.1047	-31.828778	0.000730	7.296508	2.472124	-0.000292
1134	1.1273e+02	-5.1544	-32.123489	0.000740	7.397848	2.506459	-0.000296
1135	1.1283e+02	-5.1881	-32.438386	0.000790	7.904550	2.678134	-0.000316
1136	1.1293e+02	-5.2282	-32.757319	0.000801	8.005891	2.712469	-0.000321
1137	1.1303e+02	-5.2651	-33.060105	0.000760	7.600529	2.575129	-0.000304
1138	1.1313e+02	-5.2988	-33.330593	0.000679	6.789806	2.300449	-0.000272
1139	1.1323e+02	-5.3581	-33.673749	0.000861	8.613933	2.918479	-0.000345
1140	1.1333e+02	-5.3806	-33.924052	0.000628	6.283104	2.128773	-0.000252
1141	1.1343e+02	-5.4303	-34.271245	0.000872	8.715273	2.952815	-0.000349
1142	1.1353e+02	-5.4544	-34.578068	0.000770	7.701869	2.609464	-0.000308
1143	1.1363e+02	-5.5154	-34.880853	0.000760	7.600529	2.575129	-0.000304
1144	1.1373e+02	-5.5474	-35.167489	0.000720	7.195167	2.437789	-0.000288
1145	1.1383e+02	-5.5875	-35.454126	0.000720	7.195167	2.437789	-0.000288
1146	1.1393e+02	-5.6260	-35.793245	0.000851	8.512592	2.884144	-0.000341
1147	1.1403e+02	-5.6726	-36.096031	0.000760	7.600529	2.575129	-0.000304
1148	1.1413e+02	-5.7047	-36.358444	0.000659	6.587125	2.231778	-0.000264
1149	1.1423e+02	-5.7512	-36.677378	0.000801	8.005891	2.712469	-0.000321
1150	1.1433e+02	-5.7897	-37.000349	0.000811	8.107231	2.746804	-0.000325
1151	1.1442e+02	-5.8218	-37.254689	0.000638	6.384444	2.163108	-0.000256
1152	1.1452e+02	-5.8635	-37.541325	0.000720	7.195167	2.437789	-0.000288
1153	1.1462e+02	-5.9084	-37.888519	0.000872	8.715273	2.952815	-0.000349
1154	1.1472e+02	-5.9453	-38.183230	0.000740	7.397848	2.506459	-0.000296
1155	1.1482e+02	-5.9838	-38.494089	0.000780	7.803210	2.643799	-0.000312
1156	1.1492e+02	-6.0255	-38.784763	0.000730	7.296508	2.472124	-0.000292
1157	1.1502e+02	-6.0576	-39.047177	0.000659	6.587125	2.231778	-0.000264
1158	1.1512e+02	-6.1105	-39.366111	0.000801	8.005891	2.712469	-0.000321
1159	1.1522e+02	-6.1442	-39.656784	0.000730	7.296508	2.472124	-0.000292
1160	1.1532e+02	-6.1827	-39.959570	0.000760	7.600529	2.575129	-0.000304
1161	1.1542e+02	-6.2196	-40.254280	0.000740	7.397848	2.506459	-0.000296
1162	1.1552e+02	-6.2597	-40.528806	0.000689	6.891146	2.334784	-0.000276
1163	1.1562e+02	-6.3030	-40.855814	0.000821	8.208571	2.781139	-0.000329
1164	1.1572e+02	-6.3447	-41.130339	0.000689	6.891146	2.334784	-0.000276
1165	1.1582e+02	-6.3784	-41.416976	0.000720	7.195167	2.437789	-0.000288
1166	1.1592e+02	-6.4169	-41.719761	0.000760	7.600529	2.575129	-0.000304
1167	1.1602e+02	-6.4635	-41.966026	0.000618	6.181764	2.094438	-0.000248
1168	1.1612e+02	-6.4971	-42.284960	0.000801	8.005891	2.712469	-0.000321
1169	1.1622e+02	-6.5421	-42.523151	0.000598	5.979083	2.025768	-0.000239
1170	1.1632e+02	-6.5725	-42.829973	0.000770	7.701869	2.609464	-0.000308
1171	1.1642e+02	-6.6159	-43.096424	0.000669	6.688466	2.266113	-0.000268
1172	1.1651e+02	-6.6528	-43.431506	0.000841	8.411252	2.849809	-0.000337
1173	1.1661e+02	-6.6993	-43.641437	0.000527	5.269700	1.785423	-0.000211
1174	1.1671e+02	-6.7394	-43.984594	0.000861	8.613933	2.918479	-0.000345
1175	1.1681e+02	-6.7827	-44.299490	0.000790	7.904550	2.678134	-0.000316
1176	1.1691e+02	-6.8164	-44.557867	0.000649	6.485785	2.197443	-0.000260
1177	1.1701e+02	-6.8597	-44.812207	0.000638	6.384444	2.163108	-0.000256
1178	1.1711e+02	-6.9030	-45.090769	0.000699	6.992487	2.369119	-0.000280
1179	1.1721e+02	-6.9319	-45.401629	0.000780	7.803210	2.643799	-0.000312
1180	1.1731e+02	-6.9752	-45.704414	0.000760	7.600529	2.575129	-0.000304
1181	1.1741e+02	-7.0137	-45.982976	0.000699	6.992487	2.369119	-0.000280
1182	1.1751e+02	-7.0682	-46.237316	0.000638	6.384444	2.163108	-0.000256
1183	1.1761e+02	-7.1003	-46.556249	0.000801	8.005891	2.712469	-0.000321
1184	1.1771e+02	-7.1372	-46.854997	0.000750	7.499189	2.540794	-0.000300
1185	1.1781e+02	-7.1870	-47.121448	0.000669	6.688466	2.266113	-0.000268
1186	1.1791e+02	-7.2110	-47.395974	0.000689	6.891146	2.334784	-0.000276
1187	1.1801e+02	-7.2479	-47.658387	0.000659	6.587125	2.231778	-0.000264
1188	1.1811e+02	-7.2993	-47.949061	0.000730	7.296508	2.472124	-0.000292
1189	1.1821e+02	-7.3313	-48.223586	0.000689	6.891146	2.334784	-0.000276
1190	1.1831e+02	-7.3747	-48.498112	0.000689	6.891146	2.334784	-0.000276
1191	1.1841e+02	-7.4180	-48.813008	0.000790	7.904550	2.678134	-0.000316
1192	1.1850e+02	-7.4468	-49.127905	0.000790	7.904550	2.678134	-0.000316
1193	1.1860e+02	-7.5078	-49.358022	0.000578	5.776402	1.957098	-0.000231
1194	1.1870e+02	-7.5303	-49.608324	0.000628	6.283104	2.128773	-0.000252
1195	1.1880e+02	-7.5736	-49.943406	0.000841	8.411252	2.849809	-0.000337
1196	1.1890e+02	-7.6105	-50.189671	0.000618	6.181764	2.094438	-0.000248
1197	1.1900e+02	-7.6698	-50.508605	0.000801	8.005891	2.712469	-0.000321
1198	1.1910e+02	-7.6923	-50.758908	0.000628	6.283104	2.128773	-0.000252
1199	1.1920e+02	-7.7372	-51.053619	0.000740	7.397848	2.506459	-0.000296
1200	1.1930e+02	-7.7693	-51.316032	0.000659	6.587125	2.231778	-0.000264
1201	1.1940e+02	-7.8126	-51.618818	0.000760	7.600529	2.575129	-0.000304
1202	1.1950e+02	-7.8623	-51.877194	0.000649	6.485785	2.197443	-0.000260
1203	1.1960e+02	-7.8944	-52.163831	0.000720	7.195167	2.437789	-0.000288
1204	1.1970e+02	-7.9426	-52.454505	0.000730	7.296508	2.472124	-0.000292
1205	1.1980e+02	-7.9730	-52.745178	0.000730	7.296508	2.472124	-0.000292
1206	1.1990e+02	-8.0212	-53.011629	0.000669	6.688466	2.266113	-0.000268
1207	1.2000e+02	-8.0532	-53.274043	0.000659	6.587125	2.231778	-0.000264
1208	1.2010e+02	-8.0901	-53.520308	0.000618	6.181764	2.094438	-0.000248
1209	1.2020e+02	-8.1238	-53.835205	0.000790	7.904550	2.678134	-0.000316
1210	1.2030e+02	-8.1736	-54.057248	0.000557	5.573721	1.888428	-0.000223
1211	1.2039e+02	-8.2073	-54.388293	0.000831	8.309912	2.815474	-0.000333
1212	1.2049e+02	-8.2570	-54.642632	0.000638	6.384444	2.163108	-0.000256
1213	1.2059e+02	-8.2955	-54.929269	0.000720	7.195167	2.437789	-0.000288
1214	1.2069e+02	-8.3372	-55.199757	0.000679	6.789806	2.300449	-0.000272
1215	1.2079e+02	-8.3677	-55.490431	0.000730	7.296508	2.472124	-0.000292
1216	1.2089e+02	-8.4158	-55.817439	0.000821	8.208571	2.781139	-0.000329
1217	1.2099e+02	-8.4543	-56.011221	0.000486	4.864339	1.648083	-0.000195
1218	1.2109e+02	-8.4928	-56.301895	0.000730	7.296508	2.472124	-0.000292
1219	1.2119e+02	-8.5361	-56.616792	0.000790	7.904550	2.678134	-0.000316
1220	1.2129e+02	-8.5698	-56.842871	0.000568	5.675062	1.922763	-0.000227
1221	1.2139e+02	-8.6131	-57.129508	0.000720	7.195167	2.437789	-0.000288
1222	1.2149e+02	-8.6468	-57.420182	0.000730	7.296508	2.472124	-0.000292
1223	1.2159e+02	-8.6933	-57.698744	0.000699	6.992487	2.369119	-0.000280
1224	1.2169e+02	-8.7302	-57.928861	0.000578	5.776402	1.957098	-0.000231
1225	1.2179e+02	-8.7784	-58.203386	0.000689	6.891146	2.334784	-0.000276
1226	1.2189e+02	-8.8008	-58.465800	0.000659	6.587125	2.231778	-0.000264
1227	1.2199e+02	-8.8570	-58.756474	0.000730	7.296508	2.472124	-0.000292
1228	1.2209e+02	-8.8955	-59.026962	0.000679	6.789806	2.300449	-0.000272
1229	1.2219e+02	-8.9404	-59.309561	0.000709	7.093827	2.403454	-0.000284
1230	1.2229e+02	-8.9612	-59.543715	0.000588	5.877742	1.991433	-0.000235
1231	1.2239e+02	-9.0110	-59.810166	0.000669	6.688466	2.266113	-0.000268
1232	1.2248e+02	-9.0543	-60.092765	0.000709	7.093827	2.403454	-0.000284
1233	1.2258e+02	-9.0912	-60.363254	0.000679	6.789806	2.300449	-0.000272
1234	1.2268e+02	-9.1313	-60.641816	0.000699	6.992487	2.369119	-0.000280
1235	1.2278e+02	-9.1634	-60.924415	0.000709	7.093827	2.403454	-0.000284
1236	1.2288e+02	-9.2099	-61.154532	0.000578	5.776402	1.957098	-0.000231
1237	1.2298e+02	-9.2484	-61.465392	0.000780	7.803210	2.643799	-0.000312
1238	1.2308e+02	-9.2885	-61.727805	0.000659	6.587125	2.231778	-0.000264
1239	1.2318e+02	-9.3286	-61.957922	0.000578	5.776402	1.957098	-0.000231
1240	1.2328e+02	-9.3751	-62.228410	0.000679	6.789806	2.300449	-0.000272
1241	1.2338e+02	-9.4072	-62.531195	0.000760	7.600529	2.575129	-0.000304
1242	1.2348e+02	-9.4505	-62.733052	0.000507	5.067019	1.716753	-0.000203
1243	1.2358e+02	-9.4922	-63.039875	0.000770	7.701869	2.609464	-0.000308
1244	1.2368e+02	-9.5211	-63.314400	0.000689	6.891146	2.334784	-0.000276
1245	1.2378e+02	-9.5692	-63.568739	0.000638	6.384444	2.163108	-0.000256
1246	1.2388e+02	-9.6094	-63.859413	0.000730	7.296508	2.472124	-0.000292
1247	1.2398e+02	-9.6479	-64.097604	0.000598	5.979083	2.025768	-0.000239
1248	1.2408e+02	-9.6880	-64.396352	0.000750	7.499189	2.540794	-0.000300
1249	1.2418e+02	-9.7281	-64.658766	0.000659	6.587125	2.231778	-0.000264
1250	1.2428e+02	-9.7618	-64.864660	0.000517	5.168360	1.751088	-0.000207
1251	1.2438e+02	-9.8035	-65.167445	0.000760	7.600529	2.575129	-0.000304
1252	1.2447e+02	-9.8468	-65.450045	0.000709	7.093827	2.403454	-0.000284
1253	1.2457e+02	-9.8821	-65.708421	0.000649	6.485785	2.197443	-0.000260
1254	1.2467e+02	-9.9318	-65.934501	0.000568	5.675062	1.922763	-0.000227
1255	1.2477e+02	-9.9687	-66.261509	0.000821	8.208571	2.781139	-0.000329
1256	1.2487e+02	-10.0040	-66.475477	0.000537	5.371041	1.819758	-0.000215
1257	1.2497e+02	-10.0473	-66.774225	0.000750	7.499189	2.540794	-0.000300
1258	1.2507e+02	-10.0970	-67.024528	0.000628	6.283104	2.128773	-0.000252
1259	1.2517e+02	-10.1259	-67.303090	0.000699	6.992487	2.369119	-0.000280
1260	1.2527e+02	-10.1660	-67.593764	0.000730	7.296508	2.472124	-0.000292
1261	1.2537e+02	-10.2077	-67.852140	0.000649	6.485785	2.197443	-0.000260
1262	1.2547e+02	-10.2366	-68.114554	0.000659	6.587125	2.231778	-0.000264
1263	1.2557e+02	-10.2863	-68.393117	0.000699	6.992487	2.369119	-0.000280
1264	1.2567e+02	-10.3264	-68.647456	0.000638	6.384444	2.163108	-0.000256
1265	1.2577e+02	-10.3778	-68.885647	0.000598	5.979083	2.025768	-0.000239
1266	1.2587e+02	-10.4002	-69.164209	0.000699	6.992487	2.369119	-0.000280
1267	1.2597e+02	-10.4403	-69.402400	0.000598	5.979083	2.025768	-0.000239
1268	1.2607e+02	-10.4805	-69.709223	0.000770	7.701869	2.609464	-0.000308
1269	1.2617e+02	-10.5270	-69.919154	0.000527	5.269700	1.785423	-0.000211
1270	1.2627e+02	-10.5687	-70.201753	0.000709	7.093827	2.403454	-0.000284
1271	1.2636e+02	-10.5960	-70.484353	0.000709	7.093827	2.403454	-0.000284
1272	1.2646e+02	-10.6473	-70.730618	0.000618	6.181764	2.094438	-0.000248
1273	1.2656e+02	-10.6746	-70.980921	0.000628	6.283104	2.128773	-0.000252
1274	1.2666e+02	-10.7243	-71.235260	0.000638	6.384444	2.163108	-0.000256
1275	1.2676e+02	-10.7612	-71.497674	0.000659	6.587125	2.231778	-0.000264
1276	1.2686e+02	-10.8109	-71.756051	0.000649	6.485785	2.197443	-0.000260
1277	1.2696e+02	-10.8430	-71.998279	0.000608	6.080423	2.060103	-0.000243
1278	1.2706e+02	-10.8847	-72.240507	0.000608	6.080423	2.060103	-0.000243
1279	1.2716e+02	-10.9232	-72.515032	0.000689	6.891146	2.334784	-0.000276
1280	1.2726e+02	-10.9649	-72.801669	0.000720	7.195167	2.437789	-0.000288
1281	1.2736e+02	-11.0082	-73.023711	0.000557	5.573721	1.888428	-0.000223
1282	1.2746e+02	-11.0419	-73.322459	0.000750	7.499189	2.540794	-0.000300
1283	1.2756e+02	-11.0788	-73.588910	0.000669	6.688466	2.266113	-0.000268
1284	1.2766e+02	-11.1254	-73.819027	0.000578	5.776402	1.957098	-0.000231
1285	1.2776e+02	-11.1623	-74.105664	0.000720	7.195167	2.437789	-0.000288
1286	1.2786e+02	-11.2024	-74.331743	0.000568	5.675062	1.922763	-0.000227
1287	1.2796e+02	-11.2457	-74.573971	0.000608	6.080423	2.060103	-0.000243
1288	1.2806e+02	-11.2778	-74.820237	0.000618	6.181764	2.094438	-0.000248
1289	1.2816e+02	-11.3275	-75.074576	0.000638	6.384444	2.163108	-0.000256
1290	1.2826e+02	-11.3628	-75.385436	0.000780	7.803210	2.643799	-0.000312
1291	1.2835e+02	-11.4013	-75.615552	0.000578	5.776402	1.957098	-0.000231
1292	1.2845e+02	-11.4382	-75.877966	0.000659	6.587125	2.231778	-0.000264
1293	1.2855e+02	-11.4847	-76.140380	0.000659	6.587125	2.231778	-0.000264
1294	1.2865e+02	-11.5296	-76.378571	0.000598	5.979083	2.025768	-0.000239
1295	1.2875e+02	-11.5649	-76.624836	0.000618	6.181764	2.094438	-0.000248
1296	1.2885e+02	-11.5922	-76.846879	0.000557	5.573721	1.888428	-0.000223
1297	1.2895e+02	-11.6387	-77.137553	0.000730	7.296508	2.472124	-0.000292
1298	1.2905e+02	-11.6724	-77.379781	0.000608	6.080423	2.060103	-0.000243
1299	1.2915e+02	-11.7093	-77.658343	0.000699	6.992487	2.369119	-0.000280
1300	1.2925e+02	-11.7526	-77.872311	0.000537	5.371041	1.819758	-0.000215
1301	1.2935e+02	-11.8039	-78.150874	0.000699	6.992487	2.369119	-0.000280
1302	1.2945e+02	-11.8441	-78.389065	0.000598	5.979083	2.025768	-0.000239
1303	1.2955e+02	-11.8809	-78.627256	0.000598	5.979083	2.025768	-0.000239
1304	1.2965e+02	-11.9130	-78.853335	0.000568	5.675062	1.922763	-0.000227
1305	1.2975e+02	-11.9596	-79.127860	0.000689	6.891146	2.334784	-0.000276
1306	1.2985e+02	-12.0013	-79.378163	0.000628	6.283104	2.128773	-0.000252
1307	1.2995e+02	-12.0285	-79.608280	0.000578	5.776402	1.957098	-0.000231
1308	1.3005e+02	-12.0799	-79.878768	0.000679	6.789806	2.300449	-0.000272
1309	1.3015e+02	-12.1248	-80.129070	0.000628	6.283104	2.128773	-0.000252
1310	1.3025e+02	-12.1585	-80.415707	0.000720	7.195167	2.437789	-0.000288
1311	1.3034e+02	-12.1986	-80.621601	0.000517	5.168360	1.751088	-0.000207
1312	1.3044e+02	-12.2387	-80.875940	0.000638	6.384444	2.163108	-0.000256
1313	1.3054e+02	-12.2788	-81.154503	0.000699	6.992487	2.369119	-0.000280
1314	1.3064e+02	-12.3173	-81.392694	0.000598	5.979083	2.025768	-0.000239
1315	1.3074e+02	-12.3510	-81.634922	0.000608	6.080423	2.060103	-0.000243
1316	1.3084e+02	-12.4055	-81.881187	0.000618	6.181764	2.094438	-0.000248
1317	1.3094e+02	-12.4424	-82.135527	0.000638	6.384444	2.163108	-0.000256
1318	1.3104e+02	-12.4761	-82.385829	0.000628	6.283104	2.128773	-0.000252
1319	1.3114e+02	-12.5130	-82.619983	0.000588	5.877742	1.991433	-0.000235
1320	1.3124e+02	-12.5579	-82.878360	0.000649	6.485785	2.197443	-0.000260
1321	1.3134e+02	-12.5884	-83.112513	0.000588	5.877742	1.991433	-0.000235
1322	1.3144e+02	-12.6365	-83.370890	0.000649	6.485785	2.197443	-0.000260
1323	1.3154e+02	-12.6766	-83.621193	0.000628	6.283104	2.128773	-0.000252
1324	1.3164e+02	-12.7200	-83.883606	0.000659	6.587125	2.231778	-0.000264
1325	1.3174e+02	-12.7601	-84.154094	0.000679	6.789806	2.300449	-0.000272
1326	1.3184e+02	-12.7954	-84.388248	0.000588	5.877742	1.991433	-0.000235
1327	1.3194e+02	-12.8339	-84.606254	0.000547	5.472381	1.854093	-0.000219
1328	1.3204e+02	-12.8788	-84.864630	0.000649	6.485785	2.197443	-0.000260
1329	1.3214e+02	-12.9173	-85.070524	0.000517	5.168360	1.751088	-0.000207
1330	1.3224e+02	-12.9430	-85.373309	0.000760	7.600529	2.575129	-0.000304
1331	1.3234e+02	-13.0007	-85.563055	0.000476	4.762998	1.613747	-0.000191
1332	1.3243e+02	-13.0328	-85.829506	0.000669	6.688466	2.266113	-0.000268
1333	1.3253e+02	-13.0665	-86.043474	0.000537	5.371041	1.819758	-0.000215
1334	1.3263e+02	-13.1194	-86.330111	0.000720	7.195167	2.437789	-0.000288
1335	1.3273e+02	-13.1627	-86.580413	0.000628	6.283104	2.128773	-0.000252
1336	1.3283e+02	-13.1900	-86.822641	0.000608	6.080423	2.060103	-0.000243
1337	1.3293e+02	-13.2365	-87.056795	0.000588	5.877742	1.991433	-0.000235
1338	1.3303e+02	-13.2718	-87.282875	0.000568	5.675062	1.922763	-0.000227
1339	1.3313e+02	-13.3199	-87.496843	0.000537	5.371041	1.819758	-0.000215
1340	1.3323e+02	-13.3472	-87.743108	0.000618	6.181764	2.094438	-0.000248
1341	1.3333e+02	-13.3953	-87.969188	0.000568	5.675062	1.922763	-0.000227
1342	1.3343e+02	-13.4435	-88.259862	0.000730	7.296508	2.472124	-0.000292
1343	1.3353e+02	-13.4804	-88.485941	0.000568	5.675062	1.922763	-0.000227
1344	1.3363e+02	-13.5141	-88.720095	0.000588	5.877742	1.991433	-0.000235
1345	1.3373e+02	-13.5558	-88.990583	0.000679	6.789806	2.300449	-0.000272
1346	1.3383e+02	-13.5959	-89.192440	0.000507	5.067019	1.716753	-0.000203
1347	1.3393e+02	-13.6344	-89.414482	0.000557	5.573721	1.888428	-0.000223
1348	1.3403e+02	-13.6761	-89.636525	0.000557	5.573721	1.888428	-0.000223
1349	1.3413e+02	-13.7130	-89.915087	0.000699	6.992487	2.369119	-0.000280
1350	1.3423e+02	-13.7547	-90.189612	0.000689	6.891146	2.334784	-0.000276
1351	1.3432e+02	-13.7932	-90.399543	0.000527	5.269700	1.785423	-0.000211
1352	1.3442e+02	-13.8381	-90.597363	0.000497	4.965679	1.682418	-0.000199
1353	1.3452e+02	-13.8718	-90.904185	0.000770	7.701869	2.609464	-0.000308
1354	1.3462e+02	-13.9151	-91.142376	0.000598	5.979083	2.025768	-0.000239
1355	1.3472e+02	-13.9568	-91.352307	0.000527	5.269700	1.785423	-0.000211
1356	1.3482e+02	-13.9857	-91.606647	0.000638	6.384444	2.163108	-0.000256
1357	1.3492e+02	-14.0322	-91.848875	0.000608	6.080423	2.060103	-0.000243
1358	1.3502e+02	-14.0675	-92.050732	0.000507	5.067019	1.716753	-0.000203
1359	1.3512e+02	-14.1076	-92.292960	0.000608	6.080423	2.060103	-0.000243
1360	1.3522e+02	-14.1429	-92.583634	0.000730	7.296508	2.472124	-0.000292
1361	1.3532e+02	-14.1926	-92.789528	0.000517	5.168360	1.751088	-0.000207
1362	1.3542e+02	-14.2344	-93.011570	0.000557	5.573721	1.888428	-0.000223
1363	1.3552e+02	-14.2729	-93.314355	0.000760	7.600529	2.575129	-0.000304
1364	1.3562e+02	-14.3162	-93.504101	0.000476	4.762998	1.613747	-0.000191
1365	1.3572e+02	-14.3418	-93.730180	0.000568	5.675062	1.922763	-0.000227
1366	1.3582e+02	-14.3948	-93.964334	0.000588	5.877742	1.991433	-0.000235
1367	1.3592e+02	-14.4285	-94.202525	0.000598	5.979083	2.025768	-0.000239
1368	1.3602e+02	-14.4702	-94.456865	0.000638	6.384444	2.163108	-0.000256
1369	1.3612e+02	-14.5039	-94.699093	0.000608	6.080423	2.060103	-0.000243
1370	1.3622e+02	-14.5504	-94.953433	0.000638	6.384444	2.163108	-0.000256
1371	1.3631e+02	-14.5937	-95.171438	0.000547	5.472381	1.854093	-0.000219
1372	1.3641e+02	-14.6306	-95.417703	0.000618	6.181764	2.094438	-0.000248
1373	1.3651e+02	-14.6627	-95.635708	0.000547	5.472381	1.854093	-0.000219
1374	1.3661e+02	-14.7156	-95.881974	0.000618	6.181764	2.094438	-0.000248
1375	1.3671e+02	-14.7493	-96.164573	0.000709	7.093827	2.403454	-0.000284
1376	1.3681e+02	-14.7862	-96.366430	0.000507	5.067019	1.716753	-0.000203
1377	1.3691e+02	-14.8247	-96.628844	0.000659	6.587125	2.231778	-0.000264
1378	1.3701e+02	-14.8744	-96.822626	0.000486	4.864339	1.648083	-0.000195
1379	1.3711e+02	-14.9001	-97.072929	0.000628	6.283104	2.128773	-0.000252
1380	1.3721e+02	-14.9434	-97.347454	0.000689	6.891146	2.334784	-0.000276
1381	1.3731e+02	-14.9883	-97.537199	0.000476	4.762998	1.613747	-0.000191
1382	1.3741e+02	-15.0268	-97.811725	0.000689	6.891146	2.334784	-0.000276
1383	1.3751e+02	-15.0686	-98.049916	0.000598	5.979083	2.025768	-0.000239
1384	1.3761e+02	-15.1071	-98.263884	0.000537	5.371041	1.819758	-0.000215
1385	1.3771e+02	-15.1440	-98.514186	0.000628	6.283104	2.128773	-0.000252
1386	1.3781e+02	-15.1889	-98.788712	0.000689	6.891146	2.334784	-0.000276
1387	1.3791e+02	-15.2226	-99.014791	0.000568	5.675062	1.922763	-0.000227
1388	1.3801e+02	-15.2627	-99.244908	0.000578	5.776402	1.957098	-0.000231
1389	1.3811e+02	-15.2996	-99.503285	0.000649	6.485785	2.197443	-0.000260
1390	1.3821e+02	-15.3557	-99.765698	0.000659	6.587125	2.231778	-0.000264
1391	1.3831e+02	-15.3910	-99.983704	0.000547	5.472381	1.854093	-0.000219
1392	1.3840e+02	-15.4279	-100.197672	0.000537	5.371041	1.819758	-0.000215
1393	1.3850e+02	-15.4680	-100.468160	0.000679	6.789806	2.300449	-0.000272
1394	1.3860e+02	-15.5065	-100.665980	0.000497	4.965679	1.682418	-0.000199
1395	1.3870e+02	-15.5434	-100.944542	0.000699	6.992487	2.369119	-0.000280
1396	1.3880e+02	-15.5899	-101.162547	0.000547	5.472381	1.854093	-0.000219
1397	1.3890e+02	-15.6204	-101.404775	0.000608	6.080423	2.060103	-0.000243
1398	1.3900e+02	-15.6669	-101.630855	0.000568	5.675062	1.922763	-0.000227
1399	1.3910e+02	-15.7070	-101.897306	0.000669	6.688466	2.266113	-0.000268
1400	1.3920e+02	-15.7343	-102.127423	0.000578	5.776402	1.957098	-0.000231
1401	1.3930e+02	-15.7824	-102.373688	0.000618	6.181764	2.094438	-0.000248
1402	1.3940e+02	-15.8242	-102.587656	0.000537	5.371041	1.819758	-0.000215
1403	1.3950e+02	-15.8659	-102.841996	0.000638	6.384444	2.163108	-0.000256
1404	1.3960e+02	-15.9092	-103.100372	0.000649	6.485785	2.197443	-0.000260
1405	1.3970e+02	-15.9509	-103.314341	0.000537	5.371041	1.819758	-0.000215
1406	1.3980e+02	-15.9910	-103.584829	0.000679	6.789806	2.300449	-0.000272
1407	1.3990e+02	-16.0247	-103.806871	0.000557	5.573721	1.888428	-0.000223
1408	1.4000e+02	-16.0568	-104.032951	0.000568	5.675062	1.922763	-0.000227
1409	1.4010e+02	-16.1001	-104.319587	0.000720	7.195167	2.437789	-0.000288
1410	1.4020e+02	-16.1530	-104.541630	0.000557	5.573721	1.888428	-0.000223
1411	1.4029e+02	-16.1867	-104.779821	0.000598	5.979083	2.025768	-0.000239
1412	1.4039e+02	-16.2188	-105.018012	0.000598	5.979083	2.025768	-0.000239
1413	1.4049e+02	-16.2605	-105.276389	0.000649	6.485785	2.197443	-0.000260
1414	1.4059e+02	-16.3070	-105.498431	0.000557	5.573721	1.888428	-0.000223
1415	1.4069e+02	-16.3343	-105.768919	0.000679	6.789806	2.300449	-0.000272
1416	1.4079e+02	-16.3904	-106.023259	0.000638	6.384444	2.163108	-0.000256
1417	1.4089e+02	-16.4225	-106.273561	0.000628	6.283104	2.128773	-0.000252
1418	1.4099e+02	-16.4674	-106.540012	0.000669	6.688466	2.266113	-0.000268
1419	1.4109e+02	-16.4979	-106.810500	0.000679	6.789806	2.300449	-0.000272
1420	1.4119e+02	-16.5412	-107.060803	0.000628	6.283104	2.128773	-0.000252
1421	1.4129e+02	-16.5814	-107.294957	0.000588	5.877742	1.991433	-0.000235
1422	1.4139e+02	-16.6215	-107.553333	0.000649	6.485785	2.197443	-0.000260
1423	1.4149e+02	-16.6600	-107.751153	0.000497	4.965679	1.682418	-0.000199
1424	1.4159e+02	-16.6969	-107.997418	0.000618	6.181764	2.094438	-0.000248
1425	1.4169e+02	-16.7434	-108.263869	0.000669	6.688466	2.266113	-0.000268
1426	1.4179e+02	-16.7803	-108.526283	0.000659	6.587125	2.231778	-0.000264
1427	1.4189e+02	-16.8156	-108.780622	0.000638	6.384444	2.163108	-0.000256
1428	1.4199e+02	-16.8589	-109.087445	0.000770	7.701869	2.609464	-0.000308
1429	1.4209e+02	-16.9006	-109.261042	0.000436	4.357637	1.476407	-0.000174
1430	1.4219e+02	-16.9423	-109.571901	0.000780	7.803210	2.643799	-0.000312
1431	1.4228e+02	-16.9824	-109.818166	0.000618	6.181764	2.094438	-0.000248
1432	1.4238e+02	-17.0225	-110.088654	0.000679	6.789806	2.300449	-0.000272
1433	1.4248e+02	-17.0562	-110.290511	0.000507	5.067019	1.716753	-0.000203
1434	1.4258e+02	-17.0995	-110.585222	0.000740	7.397848	2.506459	-0.000296
1435	1.4268e+02	-17.1364	-110.815339	0.000578	5.776402	1.957098	-0.000231
1436	1.4278e+02	-17.1829	-111.114087	0.000750	7.499189	2.540794	-0.000300
1437	1.4288e+02	-17.2134	-111.348241	0.000588	5.877742	1.991433	-0.000235
1438	1.4298e+02	-17.2615	-111.586432	0.000598	5.979083	2.025768	-0.000239
1439	1.4308e+02	-17.2984	-111.893254	0.000770	7.701869	2.609464	-0.000308
1440	1.4318e+02	-17.3353	-112.082999	0.000476	4.762998	1.613747	-0.000191
1441	1.4328e+02	-17.3722	-112.325228	0.000608	6.080423	2.060103	-0.000243
1442	1.4338e+02	-17.4236	-112.607827	0.000709	7.093827	2.403454	-0.000284
1443	1.4348e+02	-17.4589	-112.902538	0.000740	7.397848	2.506459	-0.000296
1444	1.4358e+02	-17.4926	-113.136692	0.000588	5.877742	1.991433	-0.000235
1445	1.4368e+02	-17.5423	-113.411217	0.000689	6.891146	2.334784	-0.000276
1446	1.4378e+02	-17.5760	-113.681705	0.000679	6.789806	2.300449	-0.000272
1447	1.4388e+02	-17.6193	-113.940082	0.000649	6.485785	2.197443	-0.000260
1448	1.4398e+02	-17.6562	-114.182310	0.000608	6.080423	2.060103	-0.000243
1449	1.4408e+02	-17.6979	-114.501244	0.000801	8.005891	2.712469	-0.000321
1450	1.4418e+02	-17.7316	-114.695026	0.000486	4.864339	1.648083	-0.000195
1451	1.4428e+02	-17.7733	-115.009923	0.000790	7.904550	2.678134	-0.000316
1452	1.4437e+02	-17.8086	-115.280411	0.000679	6.789806	2.300449	-0.000272
1453	1.4447e+02	-17.8535	-115.534751	0.000638	6.384444	2.163108	-0.000256
1454	1.4457e+02	-17.8984	-115.781016	0.000618	6.181764	2.094438	-0.000248
1455	1.4467e+02	-17.9401	-116.055541	0.000689	6.891146	2.334784	-0.000276
1456	1.4477e+02	-17.9706	-116.301806	0.000618	6.181764	2.094438	-0.000248
1457	1.4487e+02	-18.0220	-116.620740	0.000801	8.005891	2.712469	-0.000321
1458	1.4497e+02	-18.0605	-116.862968	0.000608	6.080423	2.060103	-0.000243
1459	1.4507e+02	-18.0893	-117.141531	0.000699	6.992487	2.369119	-0.000280
1460	1.4517e+02	-18.1391	-117.379722	0.000598	5.979083	2.025768	-0.000239
1461	1.4527e+02	-18.1760	-117.638098	0.000649	6.485785	2.197443	-0.000260
1462	1.4537e+02	-18.2129	-117.928772	0.000730	7.296508	2.472124	-0.000292
1463	1.4547e+02	-18.2562	-118.235594	0.000770	7.701869	2.609464	-0.000308
1464	1.4557e+02	-18.2947	-118.481860	0.000618	6.181764	2.094438	-0.000248
1465	1.4567e+02	-18.3380	-118.756385	0.000689	6.891146	2.334784	-0.000276
1466	1.4577e+02	-18.3781	-119.063207	0.000770	7.701869	2.609464	-0.000308
1467	1.4587e+02	-18.4070	-119.297361	0.000588	5.877742	1.991433	-0.000235
1468	1.4597e+02	-18.4535	-119.547663	0.000628	6.283104	2.128773	-0.000252
1469	1.4607e+02	-18.5000	-119.854486	0.000770	7.701869	2.609464	-0.000308
1470	1.4617e+02	-18.5385	-120.153234	0.000750	7.499189	2.540794	-0.000300
1471	1.4626e+02	-18.5690	-120.415648	0.000659	6.587125	2.231778	-0.000264
1472	1.4636e+02	-18.6075	-120.657876	0.000608	6.080423	2.060103	-0.000243
1473	1.4646e+02	-18.6572	-120.976810	0.000801	8.005891	2.712469	-0.000321
1474	1.4656e+02	-18.6909	-121.283632	0.000770	7.701869	2.609464	-0.000308
1475	1.4666e+02	-18.7423	-121.542009	0.000649	6.485785	2.197443	-0.000260
1476	1.4676e+02	-18.7743	-121.816534	0.000689	6.891146	2.334784	-0.000276
1477	1.4686e+02	-18.8096	-122.095096	0.000699	6.992487	2.369119	-0.000280
1478	1.4696e+02	-18.8529	-122.393844	0.000750	7.499189	2.540794	-0.000300
1479	1.4706e+02	-18.8930	-122.720852	0.000821	8.208571	2.781139	-0.000329
1480	1.4716e+02	-18.9283	-122.979229	0.000649	6.485785	2.197443	-0.000260
1481	1.4726e+02	-18.9717	-123.277977	0.000750	7.499189	2.540794	-0.000300
1482	1.4736e+02	-19.0070	-123.584799	0.000770	7.701869	2.609464	-0.000308
1483	1.4746e+02	-19.0519	-123.843176	0.000649	6.485785	2.197443	-0.000260
1484	1.4756e+02	-19.0952	-124.141924	0.000750	7.499189	2.540794	-0.000300
1485	1.4766e+02	-19.1369	-124.468932	0.000821	8.208571	2.781139	-0.000329
1486	1.4776e+02	-19.1674	-124.739420	0.000679	6.789806	2.300449	-0.000272
1487	1.4786e+02	-19.2155	-125.066428	0.000821	8.208571	2.781139	-0.000329
1488	1.4796e+02	-19.2476	-125.344990	0.000699	6.992487	2.369119	-0.000280
1489	1.4806e+02	-19.2957	-125.667961	0.000811	8.107231	2.746804	-0.000325
1490	1.4816e+02	-19.3326	-125.942486	0.000689	6.891146	2.334784	-0.000276
1491	1.4825e+02	-19.3663	-126.229123	0.000720	7.195167	2.437789	-0.000288
1492	1.4835e+02	-19.4128	-126.531908	0.000760	7.600529	2.575129	-0.000304
1493	1.4845e+02	-19.4513	-126.802396	0.000679	6.789806	2.300449	-0.000272
1494	1.4855e+02	-19.4914	-127.169776	0.000922	9.221975	3.124490	-0.000369
1495	1.4865e+02	-19.5299	-127.452375	0.000709	7.093827	2.403454	-0.000284
1496	1.4875e+02	-19.5700	-127.739012	0.000720	7.195167	2.437789	-0.000288
1497	1.4885e+02	-19.6085	-128.086206	0.000872	8.715273	2.952815	-0.000349
1498	1.4895e+02	-19.6502	-128.368805	0.000709	7.093827	2.403454	-0.000284
1499	1.4905e+02	-19.6807	-128.651405	0.000709	7.093827	2.403454	-0.000284
1500	1.4915e+02	-19.7273	-128.970338	0.000801	8.005891	2.712469	-0.000321
1501	1.4925e+02	-19.7674	-129.305421	0.000841	8.411252	2.849809	-0.000337
1502	1.4935e+02	-19.8059	-129.579946	0.000689	6.891146	2.334784	-0.000276
1503	1.4945e+02	-19.8492	-129.935214	0.000892	8.917954	3.021485	-0.000357
1504	1.4955e+02	-19.8877	-130.237999	0.000760	7.600529	2.575129	-0.000304
1505	1.4965e+02	-19.9262	-130.536747	0.000750	7.499189	2.540794	-0.000300
1506	1.4975e+02	-19.9599	-130.851644	0.000790	7.904550	2.678134	-0.000316
1507	1.4985e+02	-20.0096	-131.162503	0.000780	7.803210	2.643799	-0.000312
1508	1.4995e+02	-19.9759	-131.170577	-0.000020	-0.202681	-0.068670	-0.000008
1509	1.5005e+02	-19.9310	-131.154429	0.000041	0.405362	0.137340	0.000016
1510	1.5015e+02	-19.8877	-131.138280	0.000041	0.405362	0.137340	0.000016
1511	1.5025e+02	-19.8444	-131.069649	0.000172	1.722787	0.583696	0.000069
1512	1.5034e+02	-19.8091	-131.021203	0.000122	1.216085	0.412021	0.000049
1513	1.5044e+02	-19.7641	-130.968720	0.000132	1.317425	0.446356	0.000053
1514	1.5054e+02	-19.7337	-130.875866	0.000233	2.330829	0.789706	0.000093
1515	1.5064e+02	-19.6952	-130.819346	0.000142	1.418765	0.480691	0.000057
1516	1.5074e+02	-19.6454	-130.791087	0.000071	0.709383	0.240345	0.000028
1517	1.5084e+02	-19.6150	-130.698232	0.000233	2.330829	0.789706	0.000093
1518	1.5094e+02	-19.5781	-130.621527	0.000193	1.925467	0.652366	0.000077
1519	1.5104e+02	-19.5331	-130.565007	0.000142	1.418765	0.480691	0.000057
1520	1.5114e+02	-19.4834	-130.456004	0.000274	2.736190	0.927046	0.000110
1521	1.5124e+02	-19.4545	-130.351039	0.000263	2.634850	0.892711	0.000105
1522	1.5134e+02	-19.4032	-130.254147	0.000243	2.432169	0.824041	0.000097
1523	1.5144e+02	-19.3759	-130.145145	0.000274	2.736190	0.927046	0.000110
1524	1.5154e+02	-19.3262	-130.064402	0.000203	2.026808	0.686701	0.000081
1525	1.5164e+02	-19.2941	-129.971548	0.000233	2.330829	0.789706	0.000093
1526	1.5174e+02	-19.2508	-129.906954	0.000162	1.621446	0.549361	0.000065
1527	1.5184e+02	-19.2075	-129.810063	0.000243	2.432169	0.824041	0.000097
1528	1.5194e+02	-19.1642	-129.644540	0.000415	4.154956	1.407737	0.000166
1529	1.5204e+02	-19.1209	-129.547649	0.000243	2.432169	0.824041	0.000097
1530	1.5214e+02	-19.0936	-129.426535	0.000304	3.040212	1.030052	0.000122
1531	1.5224e+02	-19.0599	-129.289272	0.000345	3.445573	1.167392	0.000138
1532	1.5233e+02	-19.0198	-129.224678	0.000162	1.621446	0.549361	0.000065
1533	1.5243e+02	-18.9717	-129.087415	0.000345	3.445573	1.167392	0.000138
1534	1.5253e+02	-18.9316	-128.954190	0.000334	3.344233	1.133057	0.000134
1535	1.5263e+02	-18.8995	-128.869410	0.000213	2.128148	0.721036	0.000085
1536	1.5273e+02	-18.8578	-128.728110	0.000355	3.546914	1.201727	0.000142
1537	1.5283e+02	-18.8144	-128.570662	0.000395	3.952275	1.339067	0.000158
1538	1.5293e+02	-18.7759	-128.522216	0.000122	1.216085	0.412021	0.000049
1539	1.5303e+02	-18.7406	-128.348619	0.000436	4.357637	1.476407	0.000174
1540	1.5313e+02	-18.6893	-128.187134	0.000405	4.053615	1.373402	0.000162
1541	1.5323e+02	-18.6428	-128.098317	0.000223	2.229489	0.755371	0.000089
1542	1.5333e+02	-18.6203	-127.961054	0.000345	3.445573	1.167392	0.000138
1543	1.5343e+02	-18.5674	-127.819755	0.000355	3.546914	1.201727	0.000142
1544	1.5353e+02	-18.5369	-127.714789	0.000263	2.634850	0.892711	0.000105
1545	1.5363e+02	-18.4888	-127.508895	0.000517	5.168360	1.751088	0.000207
1546	1.5373e+02	-18.4567	-127.424115	0.000213	2.128148	0.721036	0.000085
1547	1.5383e+02	-18.4166	-127.286853	0.000345	3.445573	1.167392	0.000138
1548	1.5393e+02	-18.3733	-127.125367	0.000405	4.053615	1.373402	0.000162
1549	1.5403e+02	-18.3284	-127.008290	0.000294	2.938871	0.995717	0.000118
1550	1.5413e+02	-18.2947	-126.862953	0.000365	3.648254	1.236062	0.000146
1551	1.5422e+02	-18.2498	-126.705505	0.000395	3.952275	1.339067	0.000158
1552	1.5432e+02	-18.2129	-126.548057	0.000395	3.952275	1.339067	0.000158
1553	1.5442e+02	-18.1727	-126.422906	0.000314	3.141552	1.064387	0.000126
1554	1.5452e+02	-18.1455	-126.265457	0.000395	3.952275	1.339067	0.000158
1555	1.5462e+02	-18.1038	-126.144343	0.000304	3.040212	1.030052	0.000122
1556	1.5472e+02	-18.0621	-126.031303	0.000284	2.837531	0.961381	0.000114
1557	1.5482e+02	-18.0107	-125.841558	0.000476	4.762998	1.613747	0.000191
1558	1.5492e+02	-17.9738	-125.671998	0.000426	4.256296	1.442072	0.000170
1559	1.5502e+02	-17.9417	-125.558959	0.000284	2.837531	0.961381	0.000114
1560	1.5512e+02	-17.8952	-125.349028	0.000527	5.269700	1.785423	0.000211
1561	1.5522e+02	-17.8567	-125.215802	0.000334	3.344233	1.133057	0.000134
1562	1.5532e+02	-17.8102	-125.050279	0.000415	4.154956	1.407737	0.000166
1563	1.5542e+02	-17.7781	-124.908980	0.000355	3.546914	1.201727	0.000142
1564	1.5552e+02	-17.7380	-124.751531	0.000395	3.952275	1.339067	0.000158
1565	1.5562e+02	-17.6931	-124.594083	0.000395	3.952275	1.339067	0.000158
1566	1.5572e+02	-17.6578	-124.444709	0.000375	3.749594	1.270397	0.000150
1567	1.5582e+02	-17.6161	-124.271112	0.000436	4.357637	1.476407	0.000174
1568	1.5592e+02	-17.5792	-124.137887	0.000334	3.344233	1.133057	0.000134
1569	1.5602e+02	-17.5343	-124.000624	0.000345	3.445573	1.167392	0.000138
1570	1.5612e+02	-17.4958	-123.818953	0.000456	4.560317	1.545077	0.000183
1571	1.5622e+02	-17.4508	-123.685728	0.000334	3.344233	1.133057	0.000134
1572	1.5631e+02	-17.4188	-123.512131	0.000436	4.357637	1.476407	0.000174
1573	1.5641e+02	-17.3819	-123.346608	0.000415	4.154956	1.407737	0.000166
1574	1.5651e+02	-17.3434	-123.209346	0.000345	3.445573	1.167392	0.000138
1575	1.5661e+02	-17.3000	-123.031712	0.000446	4.458977	1.510742	0.000179
1576	1.5671e+02	-17.2535	-122.874263	0.000395	3.952275	1.339067	0.000158
1577	1.5681e+02	-17.2198	-122.676444	0.000497	4.965679	1.682418	0.000199
1578	1.5691e+02	-17.1813	-122.555330	0.000304	3.040212	1.030052	0.000122
1579	1.5701e+02	-17.1428	-122.401918	0.000385	3.850935	1.304732	0.000154
1580	1.5711e+02	-17.0835	-122.216210	0.000466	4.661658	1.579412	0.000187
1581	1.5721e+02	-17.0514	-122.119319	0.000243	2.432169	0.824041	0.000097
1582	1.5731e+02	-17.0257	-121.885165	0.000588	5.877742	1.991433	0.000235
1583	1.5741e+02	-16.9808	-121.731754	0.000385	3.850935	1.304732	0.000154
1584	1.5751e+02	-16.9471	-121.586417	0.000365	3.648254	1.236062	0.000146
1585	1.5761e+02	-16.8974	-121.392635	0.000486	4.864339	1.648083	0.000195
1586	1.5771e+02	-16.8589	-121.219038	0.000436	4.357637	1.476407	0.000174
1587	1.5781e+02	-16.8140	-121.061589	0.000395	3.952275	1.339067	0.000158
1588	1.5791e+02	-16.7819	-120.952587	0.000274	2.736190	0.927046	0.000110
1589	1.5801e+02	-16.7257	-120.738619	0.000537	5.371041	1.819758	0.000215
1590	1.5811e+02	-16.6936	-120.577133	0.000405	4.053615	1.373402	0.000162
1591	1.5821e+02	-16.6600	-120.439870	0.000345	3.445573	1.167392	0.000138
1592	1.5830e+02	-16.6199	-120.314719	0.000314	3.141552	1.064387	0.000126
1593	1.5840e+02	-16.5797	-120.088640	0.000568	5.675062	1.922763	0.000227
1594	1.5850e+02	-16.5380	-119.935229	0.000385	3.850935	1.304732	0.000154
1595	1.5860e+02	-16.4995	-119.793929	0.000355	3.546914	1.201727	0.000142
1596	1.5870e+02	-16.4642	-119.575923	0.000547	5.472381	1.854093	0.000219
1597	1.5880e+02	-16.4257	-119.446735	0.000324	3.242892	1.098722	0.000130
1598	1.5890e+02	-16.3760	-119.265064	0.000456	4.560317	1.545077	0.000183
1599	1.5900e+02	-16.3407	-119.099541	0.000415	4.154956	1.407737	0.000166
1600	1.5910e+02	-16.3070	-118.925945	0.000436	4.357637	1.476407	0.000174
1601	1.5920e+02	-16.2653	-118.804830	0.000304	3.040212	1.030052	0.000122
1602	1.5930e+02	-16.2204	-118.578751	0.000568	5.675062	1.922763	0.000227
1603	1.5940e+02	-16.1835	-118.461674	0.000294	2.938871	0.995717	0.000118
1604	1.5950e+02	-16.1466	-118.284040	0.000446	4.458977	1.510742	0.000179
1605	1.5960e+02	-16.1049	-118.070072	0.000537	5.371041	1.819758	0.000215
1606	1.5970e+02	-16.0568	-117.928772	0.000355	3.546914	1.201727	0.000142
1607	1.5980e+02	-16.0263	-117.795547	0.000334	3.344233	1.133057	0.000134
1608	1.5990e+02	-15.9717	-117.601764	0.000486	4.864339	1.648083	0.000195
1609	1.6000e+02	-15.9461	-117.407982	0.000486	4.864339	1.648083	0.000195
1610	1.6010e+02	-15.9060	-117.246496	0.000405	4.053615	1.373402	0.000162
1611	1.6019e+02	-15.8707	-117.024454	0.000557	5.573721	1.888428	0.000223
1612	1.6029e+02	-15.8274	-116.879117	0.000365	3.648254	1.236062	0.000146
1613	1.6039e+02	-15.7792	-116.713594	0.000415	4.154956	1.407737	0.000166
1614	1.6049e+02	-15.7375	-116.572294	0.000355	3.546914	1.201727	0.000142
1615	1.6059e+02	-15.7183	-116.390623	0.000456	4.560317	1.545077	0.000183
1616	1.6069e+02	-15.6718	-116.172618	0.000547	5.472381	1.854093	0.000219
1617	1.6079e+02	-15.6188	-116.027281	0.000365	3.648254	1.236062	0.000146
1618	1.6089e+02	-15.5931	-115.829461	0.000497	4.965679	1.682418	0.000199
1619	1.6099e+02	-15.5450	-115.684125	0.000365	3.648254	1.236062	0.000146
1620	1.6109e+02	-15.5033	-115.514565	0.000426	4.256296	1.442072	0.000170
1621	1.6119e+02	-15.4680	-115.296560	0.000547	5.472381	1.854093	0.000219
1622	1.6129e+02	-15.4215	-115.139111	0.000395	3.952275	1.339067	0.000158
1623	1.6139e+02	-15.3878	-115.022034	0.000294	2.938871	0.995717	0.000118
1624	1.6149e+02	-15.3493	-114.820178	0.000507	5.067019	1.716753	0.000203
1625	1.6159e+02	-15.3092	-114.622358	0.000497	4.965679	1.682418	0.000199
1626	1.6169e+02	-15.2611	-114.428575	0.000486	4.864339	1.648083	0.000195
1627	1.6179e+02	-15.2354	-114.303424	0.000314	3.141552	1.064387	0.000126
1628	1.6189e+02	-15.1809	-114.061196	0.000608	6.080423	2.060103	0.000243
1629	1.6199e+02	-15.1472	-113.911822	0.000375	3.749594	1.270397	0.000150
1630	1.6209e+02	-15.1039	-113.714002	0.000497	4.965679	1.682418	0.000199
1631	1.6219e+02	-15.0637	-113.560591	0.000385	3.850935	1.304732	0.000154
1632	1.6228e+02	-15.0268	-113.346623	0.000537	5.371041	1.819758	0.000215
1633	1.6238e+02	-14.9916	-113.177063	0.000426	4.256296	1.442072	0.000170
1634	1.6248e+02	-14.9514	-112.963095	0.000537	5.371041	1.819758	0.000215
1635	1.6258e+02	-14.9129	-112.801610	0.000405	4.053615	1.373402	0.000162
1636	1.6268e+02	-14.8648	-112.664347	0.000345	3.445573	1.167392	0.000138
1637	1.6278e+02	-14.8311	-112.478639	0.000466	4.661658	1.579412	0.000187
1638	1.6288e+02	-14.7878	-112.284856	0.000486	4.864339	1.648083	0.000195
1639	1.6298e+02	-14.7445	-112.078962	0.000517	5.168360	1.751088	0.000207
1640	1.6308e+02	-14.7076	-111.925551	0.000385	3.850935	1.304732	0.000154
1641	1.6318e+02	-14.6675	-111.723694	0.000507	5.067019	1.716753	0.000203
1642	1.6328e+02	-14.6322	-111.525875	0.000497	4.965679	1.682418	0.000199
1643	1.6338e+02	-14.5809	-111.388612	0.000345	3.445573	1.167392	0.000138
1644	1.6348e+02	-14.5488	-111.202904	0.000466	4.661658	1.579412	0.000187
1645	1.6358e+02	-14.5135	-111.041418	0.000405	4.053615	1.373402	0.000162
1646	1.6368e+02	-14.4670	-110.835525	0.000517	5.168360	1.751088	0.000207
1647	1.6378e+02	-14.4333	-110.641742	0.000486	4.864339	1.648083	0.000195
1648	1.6388e+02	-14.3868	-110.472182	0.000426	4.256296	1.442072	0.000170
1649	1.6398e+02	-14.3434	-110.270326	0.000507	5.067019	1.716753	0.000203
1650	1.6408e+02	-14.3114	-110.084617	0.000466	4.661658	1.579412	0.000187
1651	1.6418e+02	-14.2729	-109.906983	0.000446	4.458977	1.510742	0.000179
1652	1.6427e+02	-14.2295	-109.705127	0.000507	5.067019	1.716753	0.000203
1653	1.6437e+02	-14.2007	-109.563827	0.000355	3.546914	1.201727	0.000142
1654	1.6447e+02	-14.1541	-109.386193	0.000446	4.458977	1.510742	0.000179
1655	1.6457e+02	-14.1140	-109.184336	0.000507	5.067019	1.716753	0.000203
1656	1.6467e+02	-14.0739	-108.950182	0.000588	5.877742	1.991433	0.000235
1657	1.6477e+02	-14.0306	-108.788697	0.000405	4.053615	1.373402	0.000162
1658	1.6487e+02	-13.9889	-108.631248	0.000395	3.952275	1.339067	0.000158
1659	1.6497e+02	-13.9488	-108.437466	0.000486	4.864339	1.648083	0.000195
1660	1.6507e+02	-13.9087	-108.227535	0.000527	5.269700	1.785423	0.000211
1661	1.6517e+02	-13.8718	-108.017604	0.000527	5.269700	1.785423	0.000211
1662	1.6527e+02	-13.8333	-107.831896	0.000466	4.661658	1.579412	0.000187
1663	1.6537e+02	-13.7852	-107.690596	0.000355	3.546914	1.201727	0.000142
1664	1.6547e+02	-13.7579	-107.496813	0.000486	4.864339	1.648083	0.000195
1665	1.6557e+02	-13.7018	-107.270734	0.000568	5.675062	1.922763	0.000227
1666	1.6567e+02	-13.6713	-107.101174	0.000426	4.256296	1.442072	0.000170
1667	1.6577e+02	-13.6312	-106.899317	0.000507	5.067019	1.716753	0.000203
1668	1.6587e+02	-13.5927	-106.661126	0.000598	5.979083	2.025768	0.000239
1669	1.6597e+02	-13.5510	-106.527901	0.000334	3.344233	1.133057	0.000134
1670	1.6607e+02	-13.5044	-106.309895	0.000547	5.472381	1.854093	0.000219
1671	1.6616e+02	-13.4675	-106.132261	0.000446	4.458977	1.510742	0.000179
1672	1.6626e+02	-13.4371	-105.914256	0.000547	5.472381	1.854093	0.000219
1673	1.6636e+02	-13.3921	-105.736622	0.000446	4.458977	1.510742	0.000179
1674	1.6646e+02	-13.3456	-105.502468	0.000588	5.877742	1.991433	0.000235
1675	1.6656e+02	-13.3135	-105.385391	0.000294	2.938871	0.995717	0.000118
1676	1.6666e+02	-13.2686	-105.167386	0.000547	5.472381	1.854093	0.000219
1677	1.6676e+02	-13.2397	-104.949381	0.000547	5.472381	1.854093	0.000219
1678	1.6686e+02	-13.1916	-104.751561	0.000497	4.965679	1.682418	0.000199
1679	1.6696e+02	-13.1595	-104.553741	0.000497	4.965679	1.682418	0.000199
1680	1.6706e+02	-13.1210	-104.355922	0.000497	4.965679	1.682418	0.000199
1681	1.6716e+02	-13.0633	-104.190399	0.000415	4.154956	1.407737	0.000166
1682	1.6726e+02	-13.0296	-103.952208	0.000598	5.979083	2.025768	0.000239
1683	1.6736e+02	-12.9863	-103.798797	0.000385	3.850935	1.304732	0.000154
1684	1.6746e+02	-12.9510	-103.564643	0.000588	5.877742	1.991433	0.000235
1685	1.6756e+02	-12.9173	-103.338563	0.000568	5.675062	1.922763	0.000227
1686	1.6766e+02	-12.8724	-103.185152	0.000385	3.850935	1.304732	0.000154
1687	1.6776e+02	-12.8274	-103.011555	0.000436	4.357637	1.476407	0.000174
1688	1.6786e+02	-12.8002	-102.785476	0.000568	5.675062	1.922763	0.000227
1689	1.6796e+02	-12.7617	-102.567471	0.000547	5.472381	1.854093	0.000219
1690	1.6806e+02	-12.7119	-102.446356	0.000304	3.040212	1.030052	0.000122
1691	1.6816e+02	-12.6734	-102.212203	0.000588	5.877742	1.991433	0.000235
1692	1.6825e+02	-12.6317	-102.030532	0.000456	4.560317	1.545077	0.000183
1693	1.6835e+02	-12.5996	-101.832712	0.000497	4.965679	1.682418	0.000199
1694	1.6845e+02	-12.5467	-101.618744	0.000537	5.371041	1.819758	0.000215
1695	1.6855e+02	-12.5162	-101.424961	0.000486	4.864339	1.648083	0.000195
1696	1.6865e+02	-12.4729	-101.231179	0.000486	4.864339	1.648083	0.000195
1697	1.6875e+02	-12.4408	-101.029322	0.000507	5.067019	1.716753	0.000203
1698	1.6885e+02	-12.4071	-100.807279	0.000557	5.573721	1.888428	0.000223
1699	1.6895e+02	-12.3606	-100.609460	0.000497	4.965679	1.682418	0.000199
1700	1.6905e+02	-12.3093	-100.415677	0.000486	4.864339	1.648083	0.000195
1701	1.6915e+02	-12.2740	-100.217858	0.000497	4.965679	1.682418	0.000199
1702	1.6925e+02	-12.2499	-100.011964	0.000517	5.168360	1.751088	0.000207
1703	1.6935e+02	-12.2002	-99.781847	0.000578	5.776402	1.957098	0.000231
1704	1.6945e+02	-12.1617	-99.604213	0.000446	4.458977	1.510742	0.000179
1705	1.6955e+02	-12.1248	-99.394282	0.000527	5.269700	1.785423	0.000211
1706	1.6965e+02	-12.0783	-99.236834	0.000395	3.952275	1.339067	0.000158
1707	1.6975e+02	-12.0414	-99.002680	0.000588	5.877742	1.991433	0.000235
1708	1.6985e+02	-11.9965	-98.772563	0.000578	5.776402	1.957098	0.000231
1709	1.6995e+02	-11.9612	-98.582818	0.000476	4.762998	1.613747	0.000191
1710	1.7005e+02	-11.9194	-98.437481	0.000365	3.648254	1.236062	0.000146
1711	1.7015e+02	-11.8842	-98.134696	0.000760	7.600529	2.575129	0.000304
1712	1.7024e+02	-11.8441	-97.957062	0.000446	4.458977	1.510742	0.000179
1713	1.7034e+02	-11.8023	-97.791539	0.000415	4.154956	1.407737	0.000166
1714	1.7044e+02	-11.7606	-97.569497	0.000557	5.573721	1.888428	0.000223
1715	1.7054e+02	-11.7205	-97.363603	0.000517	5.168360	1.751088	0.000207
1716	1.7064e+02	-11.6804	-97.153672	0.000527	5.269700	1.785423	0.000211
1717	1.7074e+02	-11.6435	-96.935666	0.000547	5.472381	1.854093	0.000219
1718	1.7084e+02	-11.6002	-96.753995	0.000456	4.560317	1.545077	0.000183
1719	1.7094e+02	-11.5633	-96.540027	0.000537	5.371041	1.819758	0.000215
1720	1.7104e+02	-11.5168	-96.342207	0.000497	4.965679	1.682418	0.000199
1721	1.7114e+02	-11.4799	-96.132276	0.000527	5.269700	1.785423	0.000211
1722	1.7124e+02	-11.4350	-95.922345	0.000527	5.269700	1.785423	0.000211
1723	1.7134e+02	-11.3933	-95.744711	0.000446	4.458977	1.510742	0.000179
1724	1.7144e+02	-11.3580	-95.514594	0.000578	5.776402	1.957098	0.000231
1725	1.7154e+02	-11.3147	-95.300626	0.000537	5.371041	1.819758	0.000215
1726	1.7164e+02	-11.2697	-95.074547	0.000568	5.675062	1.922763	0.000227
1727	1.7174e+02	-11.2360	-94.896913	0.000446	4.458977	1.510742	0.000179
1728	1.7184e+02	-11.1975	-94.670833	0.000568	5.675062	1.922763	0.000227
1729	1.7194e+02	-11.1639	-94.481088	0.000476	4.762998	1.613747	0.000191
1730	1.7204e+02	-11.1157	-94.242897	0.000598	5.979083	2.025768	0.000239
1731	1.7213e+02	-11.0788	-94.049114	0.000486	4.864339	1.648083	0.000195
1732	1.7223e+02	-11.0371	-93.823035	0.000568	5.675062	1.922763	0.000227
1733	1.7233e+02	-11.0050	-93.609066	0.000537	5.371041	1.819758	0.000215
1734	1.7243e+02	-10.9665	-93.411247	0.000497	4.965679	1.682418	0.000199
1735	1.7253e+02	-10.9184	-93.189204	0.000557	5.573721	1.888428	0.000223
1736	1.7263e+02	-10.8879	-92.975236	0.000537	5.371041	1.819758	0.000215
1737	1.7273e+02	-10.8334	-92.761268	0.000537	5.371041	1.819758	0.000215
1738	1.7283e+02	-10.8029	-92.599782	0.000405	4.053615	1.373402	0.000162
1739	1.7293e+02	-10.7660	-92.325257	0.000689	6.891146	2.334784	0.000276
1740	1.7303e+02	-10.7163	-92.111289	0.000537	5.371041	1.819758	0.000215
1741	1.7313e+02	-10.6826	-91.909432	0.000507	5.067019	1.716753	0.000203
1742	1.7323e+02	-10.6489	-91.699501	0.000527	5.269700	1.785423	0.000211
1743	1.7333e+02	-10.6024	-91.449199	0.000628	6.283104	2.128773	0.000252
1744	1.7343e+02	-10.5607	-91.255416	0.000486	4.864339	1.648083	0.000195
1745	1.7353e+02	-10.5318	-91.061634	0.000486	4.864339	1.648083	0.000195
1746	1.7363e+02	-10.4885	-90.843628	0.000547	5.472381	1.854093	0.000219
1747	1.7373e+02	-10.4403	-90.597363	0.000618	6.181764	2.094438	0.000248
1748	1.7383e+02	-10.4002	-90.419729	0.000446	4.458977	1.510742	0.000179
1749	1.7393e+02	-10.3601	-90.181538	0.000598	5.979083	2.025768	0.000239
1750	1.7403e+02	-10.3345	-89.995830	0.000466	4.661658	1.579412	0.000187
1751	1.7413e+02	-10.2831	-89.757639	0.000598	5.979083	2.025768	0.000239
1752	1.7422e+02	-10.2414	-89.527522	0.000578	5.776402	1.957098	0.000231
1753	1.7432e+02	-10.2061	-89.337777	0.000476	4.762998	1.613747	0.000191
1754	1.7442e+02	-10.1644	-89.135920	0.000507	5.067019	1.716753	0.000203
1755	1.7452e+02	-10.1307	-88.942137	0.000486	4.864339	1.648083	0.000195
1756	1.7462e+02	-10.0826	-88.716058	0.000568	5.675062	1.922763	0.000227
1757	1.7472e+02	-10.0425	-88.477867	0.000598	5.979083	2.025768	0.000239
1758	1.7482e+02	-9.9992	-88.259862	0.000547	5.472381	1.854093	0.000219
1759	1.7492e+02	-9.9543	-88.058005	0.000507	5.067019	1.716753	0.000203
1760	1.7502e+02	-9.9190	-87.868259	0.000476	4.762998	1.613747	0.000191
1761	1.7512e+02	-9.8901	-87.617957	0.000628	6.283104	2.128773	0.000252
1762	1.7522e+02	-9.8468	-87.375729	0.000608	6.080423	2.060103	0.000243
1763	1.7532e+02	-9.8019	-87.181946	0.000486	4.864339	1.648083	0.000195
1764	1.7542e+02	-9.7602	-86.951830	0.000578	5.776402	1.957098	0.000231
1765	1.7552e+02	-9.7249	-86.737861	0.000537	5.371041	1.819758	0.000215
1766	1.7562e+02	-9.6799	-86.544079	0.000486	4.864339	1.648083	0.000195
1767	1.7572e+02	-9.6511	-86.334148	0.000527	5.269700	1.785423	0.000211
1768	1.7582e+02	-9.6078	-86.124217	0.000527	5.269700	1.785423	0.000211
1769	1.7592e+02	-9.5725	-85.881989	0.000608	6.080423	2.060103	0.000243
1770	1.7602e+02	-9.5243	-85.635723	0.000618	6.181764	2.094438	0.000248
1771	1.7612e+02	-9.4922	-85.450015	0.000466	4.661658	1.579412	0.000187
1772	1.7621e+02	-9.4570	-85.223935	0.000568	5.675062	1.922763	0.000227
1773	1.7631e+02	-9.4088	-85.001893	0.000557	5.573721	1.888428	0.000223
1774	1.7641e+02	-9.3687	-84.795999	0.000517	5.168360	1.751088	0.000207
1775	1.7651e+02	-9.3270	-84.557808	0.000598	5.979083	2.025768	0.000239
1776	1.7661e+02	-9.2853	-84.323654	0.000588	5.877742	1.991433	0.000235
1777	1.7671e+02	-9.2468	-84.146020	0.000446	4.458977	1.510742	0.000179
1778	1.7681e+02	-9.2115	-83.903792	0.000608	6.080423	2.060103	0.000243
1779	1.7691e+02	-9.1682	-83.657527	0.000618	6.181764	2.094438	0.000248
1780	1.7701e+02	-9.1361	-83.407224	0.000628	6.283104	2.128773	0.000252
1781	1.7711e+02	-9.0816	-83.213442	0.000486	4.864339	1.648083	0.000195
1782	1.7721e+02	-9.0527	-82.991399	0.000557	5.573721	1.888428	0.000223
1783	1.7731e+02	-9.0126	-82.733023	0.000649	6.485785	2.197443	0.000260
1784	1.7741e+02	-8.9757	-82.551352	0.000456	4.560317	1.545077	0.000183
1785	1.7751e+02	-8.9308	-82.317198	0.000588	5.877742	1.991433	0.000235
1786	1.7761e+02	-8.8858	-82.074970	0.000608	6.080423	2.060103	0.000243
1787	1.7771e+02	-8.8473	-81.840816	0.000588	5.877742	1.991433	0.000235
1788	1.7781e+02	-8.8024	-81.626847	0.000537	5.371041	1.819758	0.000215
1789	1.7791e+02	-8.7687	-81.412879	0.000537	5.371041	1.819758	0.000215
1790	1.7801e+02	-8.7367	-81.182763	0.000578	5.776402	1.957098	0.000231
1791	1.7810e+02	-8.6837	-80.920349	0.000659	6.587125	2.231778	0.000264
1792	1.7820e+02	-8.6468	-80.698306	0.000557	5.573721	1.888428	0.000223
1793	1.7830e+02	-8.6115	-80.476264	0.000557	5.573721	1.888428	0.000223
1794	1.7840e+02	-8.5730	-80.274407	0.000507	5.067019	1.716753	0.000203
1795	1.7850e+02	-8.5393	-80.032179	0.000608	6.080423	2.060103	0.000243
1796	1.7860e+02	-8.5040	-79.773802	0.000649	6.485785	2.197443	0.000260
1797	1.7870e+02	-8.4511	-79.543685	0.000578	5.776402	1.957098	0.000231
1798	1.7880e+02	-8.4126	-79.341829	0.000507	5.067019	1.716753	0.000203
1799	1.7890e+02	-8.3821	-79.083452	0.000649	6.485785	2.197443	0.000260
1800	1.7900e+02	-8.3372	-78.873521	0.000527	5.269700	1.785423	0.000211
1801	1.7910e+02	-8.2891	-78.667627	0.000517	5.168360	1.751088	0.000207
1802	1.7920e+02	-8.2538	-78.417325	0.000628	6.283104	2.128773	0.000252
1803	1.7930e+02	-8.2169	-78.162985	0.000638	6.384444	2.163108	0.000256
1804	1.7940e+02	-8.1800	-77.961128	0.000507	5.067019	1.716753	0.000203
1805	1.7950e+02	-8.1303	-77.674492	0.000720	7.195167	2.437789	0.000288
1806	1.7960e+02	-8.0901	-77.464561	0.000527	5.269700	1.785423	0.000211
1807	1.7970e+02	-8.0532	-77.226370	0.000598	5.979083	2.025768	0.000239
1808	1.7980e+02	-8.0131	-76.959919	0.000669	6.688466	2.266113	0.000268
1809	1.7990e+02	-7.9778	-76.762099	0.000497	4.965679	1.682418	0.000199
1810	1.8000e+02	-7.9281	-76.527945	0.000588	5.877742	1.991433	0.000235
1811	1.8009e+02	-7.8960	-76.277643	0.000628	6.283104	2.128773	0.000252
1812	1.8019e+02	-7.8463	-76.067712	0.000527	5.269700	1.785423	0.000211
1813	1.8029e+02	-7.8174	-75.809335	0.000649	6.485785	2.197443	0.000260
1814	1.8039e+02	-7.7709	-75.571144	0.000598	5.979083	2.025768	0.000239
1815	1.8049e+02	-7.7436	-75.349101	0.000557	5.573721	1.888428	0.000223
1816	1.8059e+02	-7.6891	-75.167430	0.000456	4.560317	1.545077	0.000183
1817	1.8069e+02	-7.6634	-74.884831	0.000709	7.093827	2.403454	0.000284
1818	1.8079e+02	-7.6073	-74.622417	0.000659	6.587125	2.231778	0.000264
1819	1.8089e+02	-7.5672	-74.432672	0.000476	4.762998	1.613747	0.000191
1820	1.8099e+02	-7.5367	-74.141998	0.000730	7.296508	2.472124	0.000292
1821	1.8109e+02	-7.4966	-73.915918	0.000568	5.675062	1.922763	0.000227
1822	1.8119e+02	-7.4581	-73.657542	0.000649	6.485785	2.197443	0.000260
1823	1.8129e+02	-7.4100	-73.431462	0.000568	5.675062	1.922763	0.000227
1824	1.8139e+02	-7.3779	-73.177122	0.000638	6.384444	2.163108	0.000256
1825	1.8149e+02	-7.3362	-72.967191	0.000527	5.269700	1.785423	0.000211
1826	1.8159e+02	-7.2961	-72.716889	0.000628	6.283104	2.128773	0.000252
1827	1.8169e+02	-7.2575	-72.466586	0.000628	6.283104	2.128773	0.000252
1828	1.8179e+02	-7.2142	-72.196098	0.000679	6.789806	2.300449	0.000272
1829	1.8189e+02	-7.1725	-72.030576	0.000415	4.154956	1.407737	0.000166
1830	1.8199e+02	-7.1372	-71.723754	0.000770	7.701869	2.609464	0.000308
1831	1.8209e+02	-7.1019	-71.465377	0.000649	6.485785	2.197443	0.000260
1832	1.8218e+02	-7.0666	-71.207000	0.000649	6.485785	2.197443	0.000260
1833	1.8228e+02	-7.0185	-71.041478	0.000415	4.154956	1.407737	0.000166
1834	1.8238e+02	-6.9720	-70.791175	0.000628	6.283104	2.128773	0.000252
1835	1.8248e+02	-6.9255	-70.460130	0.000831	8.309912	2.815474	0.000333
1836	1.8258e+02	-6.9062	-70.266348	0.000486	4.864339	1.648083	0.000195
1837	1.8268e+02	-6.8533	-69.979711	0.000720	7.195167	2.437789	0.000288
1838	1.8278e+02	-6.8132	-69.757668	0.000557	5.573721	1.888428	0.000223
1839	1.8288e+02	-6.7747	-69.499292	0.000649	6.485785	2.197443	0.000260
1840	1.8298e+02	-6.7378	-69.257064	0.000608	6.080423	2.060103	0.000243
1841	1.8308e+02	-6.6993	-69.006761	0.000628	6.283104	2.128773	0.000252
1842	1.8318e+02	-6.6656	-68.748384	0.000649	6.485785	2.197443	0.000260
1843	1.8328e+02	-6.6159	-68.461748	0.000720	7.195167	2.437789	0.000288
1844	1.8338e+02	-6.5838	-68.223557	0.000598	5.979083	2.025768	0.000239
1845	1.8348e+02	-6.5324	-67.985366	0.000598	5.979083	2.025768	0.000239
1846	1.8358e+02	-6.4923	-67.718915	0.000669	6.688466	2.266113	0.000268
1847	1.8368e+02	-6.4522	-67.513021	0.000517	5.168360	1.751088	0.000207
1848	1.8378e+02	-6.4217	-67.254644	0.000649	6.485785	2.197443	0.000260
1849	1.8388e+02	-6.3800	-66.992230	0.000659	6.587125	2.231778	0.000264
1850	1.8398e+02	-6.3447	-66.725779	0.000669	6.688466	2.266113	0.000268
1851	1.8407e+02	-6.3030	-66.487588	0.000598	5.979083	2.025768	0.000239
1852	1.8417e+02	-6.2677	-66.261509	0.000568	5.675062	1.922763	0.000227
1853	1.8427e+02	-6.2292	-65.942575	0.000801	8.005891	2.712469	0.000321
1854	1.8437e+02	-6.1827	-65.692273	0.000628	6.283104	2.128773	0.000252
1855	1.8447e+02	-6.1458	-65.466193	0.000568	5.675062	1.922763	0.000227
1856	1.8457e+02	-6.0993	-65.232039	0.000588	5.877742	1.991433	0.000235
1857	1.8467e+02	-6.0576	-64.937328	0.000740	7.397848	2.506459	0.000296
1858	1.8477e+02	-6.0239	-64.678952	0.000649	6.485785	2.197443	0.000260
1859	1.8487e+02	-5.9822	-64.404426	0.000689	6.891146	2.334784	0.000276
1860	1.8497e+02	-5.9373	-64.158161	0.000618	6.181764	2.094438	0.000248
1861	1.8507e+02	-5.9084	-63.911896	0.000618	6.181764	2.094438	0.000248
1862	1.8517e+02	-5.8619	-63.625259	0.000720	7.195167	2.437789	0.000288
1863	1.8527e+02	-5.8218	-63.407254	0.000547	5.472381	1.854093	0.000219
1864	1.8537e+02	-5.7817	-63.092357	0.000790	7.904550	2.678134	0.000316
1865	1.8547e+02	-5.7399	-62.866278	0.000568	5.675062	1.922763	0.000227
1866	1.8557e+02	-5.7014	-62.567530	0.000750	7.499189	2.540794	0.000300
1867	1.8567e+02	-5.6694	-62.321264	0.000618	6.181764	2.094438	0.000248
1868	1.8577e+02	-5.6260	-62.018479	0.000760	7.600529	2.575129	0.000304
1869	1.8587e+02	-5.5875	-61.804511	0.000537	5.371041	1.819758	0.000215
1870	1.8597e+02	-5.5362	-61.554209	0.000628	6.283104	2.128773	0.000252
1871	1.8606e+02	-5.5089	-61.283721	0.000679	6.789806	2.300449	0.000272
1872	1.8616e+02	-5.4672	-61.001121	0.000709	7.093827	2.403454	0.000284
1873	1.8626e+02	-5.4271	-60.734670	0.000669	6.688466	2.266113	0.000268
1874	1.8636e+02	-5.3886	-60.504553	0.000578	5.776402	1.957098	0.000231
1875	1.8646e+02	-5.3469	-60.221954	0.000709	7.093827	2.403454	0.000284
1876	1.8656e+02	-5.2988	-59.931280	0.000730	7.296508	2.472124	0.000292
1877	1.8666e+02	-5.2747	-59.680978	0.000628	6.283104	2.128773	0.000252
1878	1.8676e+02	-5.2378	-59.426638	0.000638	6.384444	2.163108	0.000256
1879	1.8686e+02	-5.1929	-59.164224	0.000659	6.587125	2.231778	0.000264
1880	1.8696e+02	-5.1416	-58.877588	0.000720	7.195167	2.437789	0.000288
1881	1.8706e+02	-5.1095	-58.631322	0.000618	6.181764	2.094438	0.000248
1882	1.8716e+02	-5.0694	-58.356797	0.000689	6.891146	2.334784	0.000276
1883	1.8726e+02	-5.0389	-58.074198	0.000709	7.093827	2.403454	0.000284
1884	1.8736e+02	-4.9908	-57.783524	0.000730	7.296508	2.472124	0.000292
1885	1.8746e+02	-4.9426	-57.513036	0.000679	6.789806	2.300449	0.000272
1886	1.8756e+02	-4.9057	-57.266770	0.000618	6.181764	2.094438	0.000248
1887	1.8766e+02	-4.8721	-56.959948	0.000770	7.701869	2.609464	0.000308
1888	1.8776e+02	-4.8432	-56.693497	0.000669	6.688466	2.266113	0.000268
1889	1.8786e+02	-4.7774	-56.414935	0.000699	6.992487	2.369119	0.000280
1890	1.8796e+02	-4.7453	-56.148484	0.000669	6.688466	2.266113	0.000268
1891	1.8806e+02	-4.7100	-55.922404	0.000568	5.675062	1.922763	0.000227
1892	1.8815e+02	-4.6587	-55.631730	0.000730	7.296508	2.472124	0.000292
1893	1.8825e+02	-4.6314	-55.332982	0.000750	7.499189	2.540794	0.000300
1894	1.8835e+02	-4.5881	-55.058457	0.000689	6.891146	2.334784	0.000276
1895	1.8845e+02	-4.5544	-54.783932	0.000689	6.891146	2.334784	0.000276
1896	1.8855e+02	-4.5063	-54.521518	0.000659	6.587125	2.231778	0.000264
1897	1.8865e+02	-4.4710	-54.234882	0.000720	7.195167	2.437789	0.000288
1898	1.8875e+02	-4.4261	-53.944208	0.000730	7.296508	2.472124	0.000292
1899	1.8885e+02	-4.3844	-53.673720	0.000679	6.789806	2.300449	0.000272
1900	1.8895e+02	-4.3539	-53.403232	0.000679	6.789806	2.300449	0.000272
1901	1.8905e+02	-4.3026	-53.116595	0.000720	7.195167	2.437789	0.000288
1902	1.8915e+02	-4.2721	-52.846107	0.000679	6.789806	2.300449	0.000272
1903	1.8925e+02	-4.2272	-52.543322	0.000760	7.600529	2.575129	0.000304
1904	1.8935e+02	-4.1919	-52.244574	0.000750	7.499189	2.540794	0.000300
1905	1.8945e+02	-4.1502	-51.998308	0.000618	6.181764	2.094438	0.000248
1906	1.8955e+02	-4.1052	-51.723783	0.000689	6.891146	2.334784	0.000276
1907	1.8965e+02	-4.0667	-51.380627	0.000861	8.613933	2.918479	0.000345
1908	1.8975e+02	-4.0314	-51.122250	0.000649	6.485785	2.197443	0.000260
1909	1.8985e+02	-3.9913	-50.815428	0.000770	7.701869	2.609464	0.000308
1910	1.8995e+02	-3.9496	-50.544939	0.000679	6.789806	2.300449	0.000272
1911	1.9004e+02	-3.9111	-50.306748	0.000598	5.979083	2.025768	0.000239
1912	1.9014e+02	-3.8646	-49.987815	0.000801	8.005891	2.712469	0.000321
1913	1.9024e+02	-3.8261	-49.672918	0.000790	7.904550	2.678134	0.000316
1914	1.9034e+02	-3.7908	-49.450876	0.000557	5.573721	1.888428	0.000223
1915	1.9044e+02	-3.7571	-49.131942	0.000801	8.005891	2.712469	0.000321
1916	1.9054e+02	-3.7090	-48.841268	0.000730	7.296508	2.472124	0.000292
1917	1.9064e+02	-3.6769	-48.570780	0.000679	6.789806	2.300449	0.000272
1918	1.9074e+02	-3.6368	-48.292218	0.000699	6.992487	2.369119	0.000280
1919	1.9084e+02	-3.5887	-47.949061	0.000861	8.613933	2.918479	0.000345
1920	1.9094e+02	-3.5421	-47.654350	0.000740	7.397848	2.506459	0.000296
1921	1.9104e+02	-3.5085	-47.371751	0.000709	7.093827	2.403454	0.000284
1922	1.9114e+02	-3.4700	-47.093188	0.000699	6.992487	2.369119	0.000280
1923	1.9124e+02	-3.4331	-46.814626	0.000699	6.992487	2.369119	0.000280
1924	1.9134e+02	-3.3930	-46.487618	0.000821	8.208571	2.781139	0.000329
1925	1.9144e+02	-3.3593	-46.217130	0.000679	6.789806	2.300449	0.000272
1926	1.9154e+02	-3.3047	-45.922419	0.000740	7.397848	2.506459	0.000296
1927	1.9164e+02	-3.2726	-45.655968	0.000669	6.688466	2.266113	0.000268
1928	1.9174e+02	-3.2422	-45.385480	0.000679	6.789806	2.300449	0.000272
1929	1.9184e+02	-3.2020	-45.119029	0.000669	6.688466	2.266113	0.000268
1930	1.9194e+02	-3.1587	-44.808170	0.000780	7.803210	2.643799	0.000312
1931	1.9203e+02	-3.1154	-44.505384	0.000760	7.600529	2.575129	0.000304
1932	1.9213e+02	-3.0769	-44.182414	0.000811	8.107231	2.746804	0.000325
1933	1.9223e+02	-3.0304	-43.875591	0.000770	7.701869	2.609464	0.000308
1934	1.9233e+02	-2.9935	-43.629326	0.000618	6.181764	2.094438	0.000248
1935	1.9243e+02	-2.9598	-43.334615	0.000740	7.397848	2.506459	0.000296
1936	1.9253e+02	-2.9229	-42.999533	0.000841	8.411252	2.849809	0.000337
1937	1.9263e+02	-2.8700	-42.676562	0.000811	8.107231	2.746804	0.000325
1938	1.9273e+02	-2.8331	-42.410111	0.000669	6.688466	2.266113	0.000268
1939	1.9283e+02	-2.8010	-42.095214	0.000790	7.904550	2.678134	0.000316
1940	1.9293e+02	-2.7609	-41.800503	0.000740	7.397848	2.506459	0.000296
1941	1.9303e+02	-2.7160	-41.501755	0.000750	7.499189	2.540794	0.000300
1942	1.9313e+02	-2.6759	-41.203007	0.000750	7.499189	2.540794	0.000300
1943	1.9323e+02	-2.6358	-40.888111	0.000790	7.904550	2.678134	0.000316
1944	1.9333e+02	-2.6053	-40.605511	0.000709	7.093827	2.403454	0.000284
1945	1.9343e+02	-2.5555	-40.254280	0.000882	8.816614	2.987150	0.000353
1946	1.9353e+02	-2.5251	-39.967644	0.000720	7.195167	2.437789	0.000288
1947	1.9363e+02	-2.4705	-39.616413	0.000882	8.816614	2.987150	0.000353
1948	1.9373e+02	-2.4368	-39.382259	0.000588	5.877742	1.991433	0.000235
1949	1.9383e+02	-2.3919	-39.022954	0.000902	9.019294	3.055820	0.000361
1950	1.9393e+02	-2.3566	-38.744392	0.000699	6.992487	2.369119	0.000280
1951	1.9403e+02	-2.3181	-38.433532	0.000780	7.803210	2.643799	0.000312
1952	1.9412e+02	-2.2828	-38.150933	0.000709	7.093827	2.403454	0.000284
1953	1.9422e+02	-2.2363	-37.811813	0.000851	8.512592	2.884144	0.000341
1954	1.9432e+02	-2.2026	-37.464620	0.000872	8.715273	2.952815	0.000349
1955	1.9442e+02	-2.1545	-37.206243	0.000649	6.485785	2.197443	0.000260
1956	1.9452e+02	-2.1064	-36.887309	0.000801	8.005891	2.712469	0.000321
1957	1.9462e+02	-2.0823	-36.536078	0.000882	8.816614	2.987150	0.000353
1958	1.9472e+02	-2.0326	-36.209070	0.000821	8.208571	2.781139	0.000329
1959	1.9482e+02	-1.9973	-35.930508	0.000699	6.992487	2.369119	0.000280
1960	1.9492e+02	-1.9620	-35.575240	0.000892	8.917954	3.021485	0.000357
1961	1.9502e+02	-1.9203	-35.244195	0.000831	8.309912	2.815474	0.000333
1962	1.9512e+02	-1.8802	-34.973707	0.000679	6.789806	2.300449	0.000272
1963	1.9522e+02	-1.8449	-34.598253	0.000942	9.424656	3.193160	0.000377
1964	1.9532e+02	-1.8016	-34.255097	0.000861	8.613933	2.918479	0.000345
1965	1.9542e+02	-1.7631	-33.976534	0.000699	6.992487	2.369119	0.000280
1966	1.9552e+02	-1.7229	-33.677786	0.000750	7.499189	2.540794	0.000300
1967	1.9562e+02	-1.6860	-33.326556	0.000882	8.816614	2.987150	0.000353
1968	1.9572e+02	-1.6363	-32.979362	0.000872	8.715273	2.952815	0.000349
1969	1.9582e+02	-1.5946	-32.684651	0.000740	7.397848	2.506459	0.000296
1970	1.9592e+02	-1.5641	-32.345532	0.000851	8.512592	2.884144	0.000341
1971	1.9601e+02	-1.5192	-32.034672	0.000780	7.803210	2.643799	0.000312
1972	1.9611e+02	-1.4791	-31.707664	0.000821	8.208571	2.781139	0.000329
1973	1.9621e+02	-1.4454	-31.384693	0.000811	8.107231	2.746804	0.000325
1974	1.9631e+02	-1.4005	-31.045574	0.000851	8.512592	2.884144	0.000341
1975	1.9641e+02	-1.3684	-30.698380	0.000872	8.715273	2.952815	0.000349
1976	1.9651e+02	-1.3203	-30.367335	0.000831	8.309912	2.815474	0.000333
1977	1.9661e+02	-1.2834	-30.024178	0.000861	8.613933	2.918479	0.000345
1978	1.9671e+02	-1.2401	-29.693133	0.000831	8.309912	2.815474	0.000333
1979	1.9681e+02	-1.2000	-29.362088	0.000831	8.309912	2.815474	0.000333
1980	1.9691e+02	-1.1647	-29.039117	0.000811	8.107231	2.746804	0.000325
1981	1.9701e+02	-1.1262	-28.671738	0.000922	9.221975	3.124490	0.000369
1982	1.9711e+02	-1.0780	-28.381064	0.000730	7.296508	2.472124	0.000292
1983	1.9721e+02	-1.0363	-27.997536	0.000963	9.627337	3.261830	0.000385
1984	1.9731e+02	-0.9978	-27.694751	0.000760	7.600529	2.575129	0.000304
1985	1.9741e+02	-0.9641	-27.351595	0.000861	8.613933	2.918479	0.000345
1986	1.9751e+02	-0.9272	-27.000364	0.000882	8.816614	2.987150	0.000353
1987	1.9761e+02	-0.8807	-26.653170	0.000872	8.715273	2.952815	0.000349
1988	1.9771e+02	-0.8486	-26.370571	0.000709	7.093827	2.403454	0.000284
1989	1.9781e+02	-0.8037	-25.930523	0.001105	11.046102	3.742521	0.000442
1990	1.9791e+02	-0.7604	-25.603515	0.000821	8.208571	2.781139	0.000329
1991	1.9800e+02	-0.7219	-25.236135	0.000922	9.221975	3.124490	0.000369
1992	1.9810e+02	-0.6802	-24.969685	0.000669	6.688466	2.266113	0.000268
1993	1.9820e+02	-0.6433	-24.574045	0.000993	9.931358	3.364835	0.000398
1994	1.9830e+02	-0.6128	-24.251074	0.000811	8.107231	2.746804	0.000325
1995	1.9840e+02	-0.5631	-23.928104	0.000811	8.107231	2.746804	0.000325
1996	1.9850e+02	-0.5294	-23.580910	0.000872	8.715273	2.952815	0.000349
1997	1.9860e+02	-0.4829	-23.205456	0.000942	9.424656	3.193160	0.000377
1998	1.9870e+02	-0.4412	-22.838077	0.000922	9.221975	3.124490	0.000369
1999	1.9880e+02	-0.4123	-22.482809	0.000892	8.917954	3.021485	0.000357
2000	1.9890e+02	-0.3561	-22.083132	0.001003	10.032698	3.399170	0.000402
2001	1.9900e+02	-0.3289	-21.788422	0.000740	7.397848	2.506459	0.000296
2002	1.9910e+02	-0.2775	-21.404894	0.000963	9.627337	3.261830	0.000385
2003	1.9920e+02	-0.2422	-21.069811	0.000841	8.411252	2.849809	0.000337
2004	1.9930e+02	-0.1957	-20.710506	0.000902	9.019294	3.055820	0.000361
2005	1.9940e+02	-0.1684	-20.343127	0.000922	9.221975	3.124490	0.000369
2006	1.9950e+02	-0.1267	-20.020156	0.000811	8.107231	2.746804	0.000325
2007	1.9960e+02	-0.0866	-19.608368	0.001034	10.336719	3.502175	0.000414
2008	1.9970e+02	-0.0417	-19.253100	0.000892	8.917954	3.021485	0.000357
2009	1.9980e+02	-0.0048	-18.881684	0.000892	8.917954	3.021485	0.000373

Center data before PMax,+/-Pr and +/-Vc Calc.

PMax (uC/cm2):	1.31e+02
Pr (uC/cm2):	1.14e+01
-Pr (uC/cm2):	-1.89e+01
PLoss (uC/cm2):	-1.02e+01
Vc:	1.04e+00
-Vc:	-1.30e+00
C (Max-Eff) (nF):	6.56e-01
K (Eff):	2.22e+03
Vert. (+/-Pr) Shift (uC/cm2):	-3.74e+00
Horiz. Shift (+/-Vc):	-1.27e-01
Offset (uC/cm2):	8.68e+00

A (Loop Area - uC/cm2·Volts):	1.04e-01



Hysteresis Version: 5.48.1 - Radiant Technologies, Inc., 1999 - 9/12/24

