»»»»»»»»»»»»»»»»»»»»»»»»»»»»»»»»»»»» Hysteresis ««««««««««««««««««««««««««««««««««««
»»»  Executed Version:	5.48.1
»»»  Vision Version:	5.48.4 (R)
»»»  Vision Compiled:	9/18/24
»»»  Driver Version:	5.47.0
»»»  Windows Version:	Windows 8 or 8.1
»»»  Processor Information:	x86 (AMD or Intel) - 32 Processors
»»»  Tester Name:	PMF21124-494 (100V)
»»»  Tester S/N:	PMF21124-494
»»»  Internal Amp Type:	100V RevK 270k
»»»  Internal Amp S/N:	iAB2-596/K     
»»»  Execution Count:	1
»»»»»»»»»»»»»»»»»»»»»»»»»»»»»»»»»»»»»»»»»»««««««««««««««««««««««««««««««««««««««««««

Stored:	6/4/2025 - 17:9:57
Configured:	06/04/25 04:39:58 PM
Executed:	06/04/25 05:09:20 PM

»»»»»»»»»»»»»»»»»»»»»»»»»»»»»»»»»»» Sample Info ««««««««««««««««««««««««««««««««««««
Sample Name:	
Lot Name:	
Wafer Name:	
Die Row/Column:	0/0
Capacitor Number:	0
Sample Area (cm2):	1.00e-04
Sample Thickness (microns):	3.00e-01

Amplifier:	Internal

»»»»»»»»»»»»»»»»»»»»»»»»»»»»»»»»»»» Tester Info «««««««««««««««««««««««««««««««««««
Tester Name:	PMF21124-494 (100V)
Tester Serial Number:	PMF21124-494
Return Signal Amp. Level:	0.19 [Index: 3]

»»»»»»»»»»»»»»»»»»»»»»»»»»»»»»»» Hysteresis Info ««««««««««««««««««««««««««««««««««
Task Name:	Hyst-147
Volts:	20.00
Field:	666.67 (kV/cm)
DCBias:	0.00
DCField:	0.00 (kV/cm)
Hysteresis Period (ms):	1.00e+00
Preset:	Enabled
Preset Delay (ms):	1.00e+03
Profile:	Standard Bipolar

»»»»»»»»»»»»»»»»»»»»»»»»»»»»»»»»»»»»»» Data «««««««««««««««««««««««««««««««««««««««
Points:	2001

Valid Data

Point	Time (ms)	Drive Voltage	Measured Polarization (uC/cm2)	Capacitance (uF)	Normalized Capacitance (uF/cm2)	Dielectric Constant	Instantaneous Current (mA)
   1	0.0000e+00	0.0064	-2.490438	0.000565	5.653841	1.915573	0.045171
   2	5.0000e-04	0.0176	-2.264585	0.000565	5.653841	1.915573	0.045171
   3	1.0000e-03	0.0401	-2.139559	0.000313	3.129805	1.060406	0.025005
   4	1.5000e-03	0.0866	-1.998400	0.000353	3.533650	1.197233	0.028232
   5	2.0000e-03	0.1155	-1.663653	0.000838	8.379799	2.839153	0.066949
   6	2.5000e-03	0.1700	-1.490230	0.000434	4.341342	1.470886	0.034685
   7	3.0000e-03	0.2021	-1.203880	0.000717	7.168262	2.428673	0.057270
   8	3.5000e-03	0.2454	-0.719908	0.001212	12.115373	4.104799	0.096794
   9	4.0000e-03	0.2856	-0.623114	0.000242	2.423075	0.820960	0.019359
  10	4.5000e-03	0.3208	-0.030248	0.001484	14.841331	5.028379	0.118573
  11	5.0000e-03	0.3642	0.252069	0.000707	7.067301	2.394466	0.056463
  12	5.5000e-03	0.3995	0.619081	0.000919	9.187491	3.112806	0.073402
  13	6.0000e-03	0.4396	0.788471	0.000424	4.240380	1.436680	0.033878
  14	6.5000e-03	0.4813	0.889298	0.000252	2.524036	0.855167	0.020165
  15	7.0000e-03	0.5182	1.336972	0.001121	11.206720	3.796939	0.089535
  16	7.5000e-03	0.5695	1.845143	0.001272	12.721141	4.310039	0.101634
  17	8.0000e-03	0.6128	2.002433	0.000394	3.937496	1.334060	0.031458
  18	8.5000e-03	0.6433	2.151658	0.000374	3.735573	1.265646	0.029845
  19	9.0000e-03	0.6754	2.575133	0.001060	10.600951	3.591699	0.084695
  20	9.5000e-03	0.7251	3.047006	0.001181	11.812488	4.002179	0.094375
  21	1.0000e-02	0.7556	3.381753	0.000838	8.379799	2.839153	0.066949
  22	1.0500e-02	0.8069	3.547110	0.000414	4.139419	1.402473	0.033071
  23	1.1000e-02	0.8438	3.962519	0.001040	10.399028	3.523286	0.083082
  24	1.1500e-02	0.8839	4.216605	0.000636	6.360571	2.155020	0.050817
  25	1.2000e-02	0.9256	4.474723	0.000646	6.461532	2.189226	0.051624
  26	1.2500e-02	0.9641	4.833669	0.000899	8.985568	3.044393	0.071789
  27	1.3000e-02	1.0026	5.091787	0.000646	6.461532	2.189226	0.051624
  28	1.3500e-02	1.0347	5.603991	0.001282	12.822103	4.344246	0.102441
  29	1.4000e-02	1.0813	5.858076	0.000636	6.360571	2.155020	0.050817
  30	1.4500e-02	1.1358	6.100062	0.000606	6.057686	2.052400	0.048397
  31	1.5000e-02	1.1631	6.265419	0.000414	4.139419	1.402473	0.033071
  32	1.5500e-02	1.2000	6.672762	0.001020	10.197105	3.454873	0.081469
  33	1.6000e-02	1.2449	7.112369	0.001100	11.004797	3.728526	0.087922
  34	1.6500e-02	1.2866	7.309991	0.000495	4.947110	1.676126	0.039524
  35	1.7000e-02	1.3267	7.604407	0.000737	7.370185	2.497086	0.058883
  36	1.7500e-02	1.3636	8.092412	0.001222	12.216334	4.139006	0.097601
  37	1.8000e-02	1.4021	8.423126	0.000828	8.278838	2.804946	0.066143
  38	1.8500e-02	1.4422	8.729642	0.000767	7.673069	2.599706	0.061303
  39	1.9000e-02	1.4919	9.124886	0.000989	9.894221	3.352253	0.079049
  40	1.9500e-02	1.5192	9.403169	0.000697	6.966339	2.360260	0.055657
  41	2.0000e-02	1.5657	9.717751	0.000787	7.874992	2.668120	0.062916
  42	2.0500e-02	1.6042	9.979902	0.000656	6.562493	2.223433	0.052430
  43	2.1000e-02	1.6443	10.258186	0.000697	6.966339	2.360260	0.055657
  44	2.1500e-02	1.6764	10.568735	0.000777	7.774031	2.633913	0.062110
  45	2.2000e-02	1.7278	10.782489	0.000535	5.350956	1.812953	0.042751
  46	2.2500e-02	1.7695	11.185799	0.001010	10.096144	3.420666	0.080662
  47	2.3000e-02	1.8016	11.375355	0.000475	4.745188	1.607713	0.037911
  48	2.3500e-02	1.8449	11.831095	0.001141	11.408642	3.865353	0.091148
  49	2.4000e-02	1.8898	12.089213	0.000646	6.461532	2.189226	0.051624
  50	2.4500e-02	1.9315	12.323133	0.000586	5.855763	1.983986	0.046784
  51	2.5000e-02	1.9620	12.774840	0.001131	11.307681	3.831146	0.090341
  52	2.5500e-02	2.0085	13.125719	0.000878	8.783645	2.975980	0.070176
  53	2.6000e-02	2.0470	13.533062	0.001020	10.197105	3.454873	0.081469
  54	2.6500e-02	2.0839	13.835545	0.000757	7.572108	2.565500	0.060496
  55	2.7000e-02	2.1208	14.049299	0.000535	5.350956	1.812953	0.042751
  56	2.7500e-02	2.1673	14.533271	0.001212	12.115373	4.104799	0.096794
  57	2.8000e-02	2.2106	14.779290	0.000616	6.158648	2.086606	0.049204
  58	2.8500e-02	2.2443	15.214864	0.001090	10.903835	3.694319	0.087115
  59	2.9000e-02	2.2860	15.384255	0.000424	4.240380	1.436680	0.033878
  60	2.9500e-02	2.3213	15.670605	0.000717	7.168262	2.428673	0.057270
  61	3.0000e-02	2.3646	16.106179	0.001090	10.903835	3.694319	0.087115
  62	3.0500e-02	2.4096	16.436893	0.000828	8.278838	2.804946	0.066143
  63	3.1000e-02	2.4368	16.557886	0.000303	3.028843	1.026200	0.024199
  64	3.1500e-02	2.4866	16.848269	0.000727	7.269224	2.462880	0.058077
  65	3.2000e-02	2.5299	17.416936	0.001424	14.235563	4.823139	0.113733
  66	3.2500e-02	2.5748	17.618591	0.000505	5.048072	1.710333	0.040331
  67	3.3000e-02	2.6037	17.904941	0.000717	7.168262	2.428673	0.057270
  68	3.3500e-02	2.6454	18.227589	0.000808	8.076915	2.736533	0.064530
  69	3.4000e-02	2.6887	18.481674	0.000636	6.360571	2.155020	0.050817
  70	3.4500e-02	2.7224	18.804322	0.000808	8.076915	2.736533	0.064530
  71	3.5000e-02	2.7705	19.054374	0.000626	6.259609	2.120813	0.050010
  72	3.5500e-02	2.8042	19.421386	0.000919	9.187491	3.112806	0.073402
  73	3.6000e-02	2.8427	19.808564	0.000969	9.692298	3.283839	0.077435
  74	3.6500e-02	2.8908	20.115079	0.000767	7.673069	2.599706	0.061303
  75	3.7000e-02	2.9165	20.478058	0.000909	9.086529	3.078600	0.072596
  76	3.7500e-02	2.9614	20.711978	0.000586	5.855763	1.983986	0.046784
  77	3.8000e-02	3.0015	21.050758	0.000848	8.480761	2.873360	0.067756
  78	3.8500e-02	3.0400	21.542796	0.001232	12.317295	4.173213	0.098408
  79	3.9000e-02	3.0849	21.575061	0.000081	0.807692	0.273653	0.006453
  80	3.9500e-02	3.1347	21.958205	0.000959	9.591337	3.249633	0.076629
  81	4.0000e-02	3.1652	22.357482	0.001000	9.995182	3.386459	0.079855
  82	4.0500e-02	3.2085	22.881785	0.001312	13.124987	4.446866	0.104861
  83	4.1000e-02	3.2406	23.014877	0.000333	3.331727	1.128820	0.026618
  84	4.1500e-02	3.2919	23.147969	0.000333	3.331727	1.128820	0.026618
  85	4.2000e-02	3.3192	23.543213	0.000989	9.894221	3.352253	0.079049
  86	4.2500e-02	3.3641	23.873927	0.000828	8.278838	2.804946	0.066143
  87	4.3000e-02	3.4010	24.249005	0.000939	9.389414	3.181219	0.075016
  88	4.3500e-02	3.4411	24.398230	0.000374	3.735573	1.265646	0.029845
  89	4.4000e-02	3.4892	24.728944	0.000828	8.278838	2.804946	0.066143
  90	4.4500e-02	3.5213	25.164519	0.001090	10.903835	3.694319	0.087115
  91	4.5000e-02	3.5598	25.414571	0.000626	6.259609	2.120813	0.050010
  92	4.5500e-02	3.6063	25.777550	0.000909	9.086529	3.078600	0.072596
  93	4.6000e-02	3.6384	25.946940	0.000424	4.240380	1.436680	0.033878
  94	4.6500e-02	3.6769	26.366382	0.001050	10.499990	3.557493	0.083888
  95	4.7000e-02	3.7202	26.612401	0.000616	6.158648	2.086606	0.049204
  96	4.7500e-02	3.7667	26.926983	0.000787	7.874992	2.668120	0.062916
  97	4.8000e-02	3.8036	27.136704	0.000525	5.249995	1.778746	0.041944
  98	4.8500e-02	3.8566	27.479517	0.000858	8.581722	2.907566	0.068563
  99	4.9000e-02	3.8887	27.721503	0.000606	6.057686	2.052400	0.048397
 100	4.9500e-02	3.9288	28.100615	0.000949	9.490375	3.215426	0.075822
 101	5.0000e-02	3.9609	28.286137	0.000464	4.644226	1.573506	0.037105
 102	5.0500e-02	3.9977	28.782208	0.001242	12.418257	4.207419	0.099214
 103	5.1000e-02	4.0314	29.282312	0.001252	12.519218	4.241626	0.100021
 104	5.1500e-02	4.0828	29.576729	0.000737	7.370185	2.497086	0.058883
 105	5.2000e-02	4.1261	29.717887	0.000353	3.533650	1.197233	0.028232
 106	5.2500e-02	4.1566	30.012303	0.000737	7.370185	2.497086	0.058883
 107	5.3000e-02	4.2063	30.165561	0.000384	3.836535	1.299853	0.030652
 108	5.3500e-02	4.2496	30.464010	0.000747	7.471146	2.531293	0.059690
 109	5.4000e-02	4.2897	30.847155	0.000959	9.591337	3.249633	0.076629
 110	5.4500e-02	4.3250	31.165769	0.000798	7.975954	2.702326	0.063723
 111	5.5000e-02	4.3587	31.508583	0.000858	8.581722	2.907566	0.068563
 112	5.5500e-02	4.4213	31.936091	0.001070	10.701912	3.625906	0.085502
 113	5.6000e-02	4.4453	31.996588	0.000151	1.514422	0.513100	0.012099
 114	5.6500e-02	4.4886	32.286971	0.000727	7.269224	2.462880	0.058077
 115	5.7000e-02	4.5271	32.674148	0.000969	9.692298	3.283839	0.077435
 116	5.7500e-02	4.5769	33.113756	0.001100	11.004797	3.728526	0.087922
 117	5.8000e-02	4.6025	33.287179	0.000434	4.341342	1.470886	0.034685
 118	5.8500e-02	4.6507	33.718721	0.001080	10.802874	3.660113	0.086308
 119	5.9000e-02	4.6892	33.972806	0.000636	6.360571	2.155020	0.050817
 120	5.9500e-02	4.7229	34.061534	0.000222	2.221152	0.752547	0.017746
 121	6.0000e-02	4.7614	34.408381	0.000868	8.682684	2.941773	0.069369
 122	6.0500e-02	4.8047	34.759260	0.000878	8.783645	2.975980	0.070176
 123	6.1000e-02	4.8512	35.319861	0.001403	14.033640	4.754726	0.112120
 124	6.1500e-02	4.8769	35.525549	0.000515	5.149033	1.744540	0.041138
 125	6.2000e-02	4.9234	35.686873	0.000404	4.038458	1.368266	0.032265
 126	6.2500e-02	4.9651	35.944991	0.000646	6.461532	2.189226	0.051624
 127	6.3000e-02	4.9940	36.170845	0.000565	5.653841	1.915573	0.045171
 128	6.3500e-02	5.0437	36.586254	0.001040	10.399028	3.523286	0.083082
 129	6.4000e-02	5.0854	36.904869	0.000798	7.975954	2.702326	0.063723
 130	6.4500e-02	5.1207	37.223484	0.000798	7.975954	2.702326	0.063723
 131	6.5000e-02	5.1608	37.626793	0.001010	10.096144	3.420666	0.080662
 132	6.5500e-02	5.2170	37.703422	0.000192	1.918267	0.649927	0.015326
 133	6.6000e-02	5.2442	37.812316	0.000273	2.725959	0.923580	0.021779
 134	6.6500e-02	5.2876	38.272089	0.001151	11.509604	3.899559	0.091955
 135	6.7000e-02	5.3180	38.723796	0.001131	11.307681	3.831146	0.090341
 136	6.7500e-02	5.3726	39.066610	0.000858	8.581722	2.907566	0.068563
 137	6.8000e-02	5.4047	39.453787	0.000969	9.692298	3.283839	0.077435
 138	6.8500e-02	5.4383	39.590912	0.000343	3.432689	1.163026	0.027425
 139	6.9000e-02	5.4881	39.877262	0.000717	7.168262	2.428673	0.057270
 140	6.9500e-02	5.5266	40.066818	0.000475	4.745188	1.607713	0.037911
 141	7.0000e-02	5.5603	40.490293	0.001060	10.600951	3.591699	0.084695
 142	7.0500e-02	5.6020	40.708081	0.000545	5.451918	1.847160	0.043557
 143	7.1000e-02	5.6501	41.030729	0.000808	8.076915	2.736533	0.064530
 144	7.1500e-02	5.6934	41.196086	0.000414	4.139419	1.402473	0.033071
 145	7.2000e-02	5.7303	41.401774	0.000515	5.149033	1.744540	0.041138
 146	7.2500e-02	5.7624	41.889779	0.001222	12.216334	4.139006	0.097601
 147	7.3000e-02	5.8041	41.994639	0.000262	2.624997	0.889373	0.020972
 148	7.3500e-02	5.8442	42.406015	0.001030	10.298067	3.489079	0.082275
 149	7.4000e-02	5.8891	42.575405	0.000424	4.240380	1.436680	0.033878
 150	7.4500e-02	5.9357	42.785127	0.000525	5.249995	1.778746	0.041944
 151	7.5000e-02	5.9710	43.184403	0.001000	9.995182	3.386459	0.079855
 152	7.5500e-02	6.0095	43.361860	0.000444	4.442303	1.505093	0.035491
 153	7.6000e-02	6.0464	43.664342	0.000757	7.572108	2.565500	0.060496
 154	7.6500e-02	6.0881	43.958758	0.000737	7.370185	2.497086	0.058883
 155	7.7000e-02	6.1282	44.418531	0.001151	11.509604	3.899559	0.091955
 156	7.7500e-02	6.1731	44.664550	0.000616	6.158648	2.086606	0.049204
 157	7.8000e-02	6.2132	44.813775	0.000374	3.735573	1.265646	0.029845
 158	7.8500e-02	6.2501	45.007364	0.000485	4.846149	1.641920	0.038718
 159	7.9000e-02	6.2902	45.321946	0.000787	7.874992	2.668120	0.062916
 160	7.9500e-02	6.3159	45.701057	0.000949	9.490375	3.215426	0.075822
 161	8.0000e-02	6.3688	46.080168	0.000949	9.490375	3.215426	0.075822
 162	8.0500e-02	6.4041	46.285856	0.000515	5.149033	1.744540	0.041138
 163	8.1000e-02	6.4410	46.939218	0.001636	16.355753	5.541479	0.130672
 164	8.1500e-02	6.4907	47.237667	0.000747	7.471146	2.531293	0.059690
 165	8.2000e-02	6.5180	47.556282	0.000798	7.975954	2.702326	0.063723
 166	8.2500e-02	6.5661	47.576448	0.000050	0.504807	0.171033	0.004033
 167	8.3000e-02	6.6062	47.733739	0.000394	3.937496	1.334060	0.031458
 168	8.3500e-02	6.6367	47.999923	0.000666	6.663455	2.257640	0.053237
 169	8.4000e-02	6.6768	48.395167	0.000989	9.894221	3.352253	0.079049
 170	8.4500e-02	6.7314	48.701682	0.000767	7.673069	2.599706	0.061303
 171	8.5000e-02	6.7667	48.939635	0.000596	5.956725	2.018193	0.047591
 172	8.5500e-02	6.8148	49.149356	0.000525	5.249995	1.778746	0.041944
 173	8.6000e-02	6.8437	49.467971	0.000798	7.975954	2.702326	0.063723
 174	8.6500e-02	6.8790	49.701891	0.000586	5.855763	1.983986	0.046784
 175	8.7000e-02	6.9207	50.101167	0.001000	9.995182	3.386459	0.079855
 176	8.7500e-02	6.9576	50.302822	0.000505	5.048072	1.710333	0.040331
 177	8.8000e-02	7.0057	50.714198	0.001030	10.298067	3.489079	0.082275
 178	8.8500e-02	7.0410	50.903754	0.000475	4.745188	1.607713	0.037911
 179	8.9000e-02	7.0811	51.230435	0.000818	8.177876	2.770740	0.065336
 180	8.9500e-02	7.1260	51.436123	0.000515	5.149033	1.744540	0.041138
 181	9.0000e-02	7.1629	51.750705	0.000787	7.874992	2.668120	0.062916
 182	9.0500e-02	7.2014	52.016889	0.000666	6.663455	2.257640	0.053237
 183	9.1000e-02	7.2559	52.218544	0.000505	5.048072	1.710333	0.040331
 184	9.1500e-02	7.2784	52.432298	0.000535	5.350956	1.812953	0.042751
 185	9.2000e-02	7.3265	52.646053	0.000535	5.350956	1.812953	0.042751
 186	9.2500e-02	7.3602	53.113892	0.001171	11.711527	3.967973	0.093568
 187	9.3000e-02	7.4051	53.323613	0.000525	5.249995	1.778746	0.041944
 188	9.3500e-02	7.4388	53.593831	0.000676	6.764416	2.291846	0.054044
 189	9.4000e-02	7.4886	53.815651	0.000555	5.552879	1.881366	0.044364
 190	9.4500e-02	7.5190	54.194762	0.000949	9.490375	3.215426	0.075822
 191	9.5000e-02	7.5640	54.557741	0.000909	9.086529	3.078600	0.072596
 192	9.5500e-02	7.6041	54.759396	0.000505	5.048072	1.710333	0.040331
 193	9.6000e-02	7.6442	55.134474	0.000939	9.389414	3.181219	0.075016
 194	9.6500e-02	7.6827	55.295798	0.000404	4.038458	1.368266	0.032265
 195	9.7000e-02	7.7196	55.445023	0.000374	3.735573	1.265646	0.029845
 196	9.7500e-02	7.7645	55.888664	0.001111	11.105758	3.762733	0.088728
 197	9.8000e-02	7.8030	56.086286	0.000495	4.947110	1.676126	0.039524
 198	9.8500e-02	7.8415	56.497662	0.001030	10.298067	3.489079	0.082275
 199	9.9000e-02	7.8896	56.812243	0.000787	7.874992	2.668120	0.062916
 200	9.9500e-02	7.9265	56.836442	0.000061	0.605769	0.205240	0.004840
 201	1.0000e-01	7.9795	56.989700	0.000384	3.836535	1.299853	0.030652
 202	1.0050e-01	8.0083	57.247818	0.000646	6.461532	2.189226	0.051624
 203	1.0100e-01	8.0468	57.655161	0.001020	10.197105	3.454873	0.081469
 204	1.0150e-01	8.0837	57.792286	0.000343	3.432689	1.163026	0.027425
 205	1.0200e-01	8.1351	57.872948	0.000202	2.019229	0.684133	0.016132
 206	1.0250e-01	8.1720	58.348854	0.001191	11.913450	4.036386	0.095181
 207	1.0300e-01	8.2008	58.848958	0.001252	12.519218	4.241626	0.100021
 208	1.0350e-01	8.2458	58.986084	0.000343	3.432689	1.163026	0.027425
 209	1.0400e-01	8.2907	59.260334	0.000687	6.865378	2.326053	0.054850
 210	1.0450e-01	8.3212	59.385360	0.000313	3.129805	1.060406	0.025005
 211	1.0500e-01	8.3597	59.744306	0.000899	8.985568	3.044393	0.071789
 212	1.0550e-01	8.4014	59.933862	0.000475	4.745188	1.607713	0.037911
 213	1.0600e-01	8.4399	60.171815	0.000596	5.956725	2.018193	0.047591
 214	1.0650e-01	8.4832	60.538827	0.000919	9.187491	3.112806	0.073402
 215	1.0700e-01	8.5313	60.764680	0.000565	5.653841	1.915573	0.045171
 216	1.0750e-01	8.5650	61.260751	0.001242	12.418257	4.207419	0.099214
 217	1.0800e-01	8.6035	61.539035	0.000697	6.966339	2.360260	0.055657
 218	1.0850e-01	8.6564	61.752789	0.000535	5.350956	1.812953	0.042751
 219	1.0900e-01	8.6853	61.865716	0.000283	2.826920	0.957787	0.022585
 220	1.0950e-01	8.7334	62.091570	0.000565	5.653841	1.915573	0.045171
 221	1.1000e-01	8.7623	62.333555	0.000606	6.057686	2.052400	0.048397
 222	1.1050e-01	8.8088	62.732832	0.001000	9.995182	3.386459	0.079855
 223	1.1100e-01	8.8522	63.011116	0.000697	6.966339	2.360260	0.055657
 224	1.1150e-01	8.8858	63.418459	0.001020	10.197105	3.454873	0.081469
 225	1.1200e-01	8.9292	63.357962	-0.000151	-1.514422	-0.513100	-0.012099
 226	1.1250e-01	8.9677	63.761272	0.001010	10.096144	3.420666	0.080662
 227	1.1300e-01	9.0030	64.051655	0.000727	7.269224	2.462880	0.058077
 228	1.1350e-01	9.0431	64.192814	0.000353	3.533650	1.197233	0.028232
 229	1.1400e-01	9.0832	64.491263	0.000747	7.471146	2.531293	0.059690
 230	1.1450e-01	9.1329	64.797779	0.000767	7.673069	2.599706	0.061303
 231	1.1500e-01	9.1666	65.148658	0.000878	8.783645	2.975980	0.070176
 232	1.1550e-01	9.2099	65.217221	0.000172	1.716344	0.581513	0.013713
 233	1.1600e-01	9.2532	65.584233	0.000919	9.187491	3.112806	0.073402
 234	1.1650e-01	9.2917	65.866550	0.000707	7.067301	2.394466	0.056463
 235	1.1700e-01	9.3334	66.120635	0.000636	6.360571	2.155020	0.050817
 236	1.1750e-01	9.3607	66.415051	0.000737	7.370185	2.497086	0.058883
 237	1.1800e-01	9.4104	66.677203	0.000656	6.562493	2.223433	0.052430
 238	1.1850e-01	9.4521	66.979685	0.000757	7.572108	2.565500	0.060496
 239	1.1900e-01	9.4906	67.128910	0.000374	3.735573	1.265646	0.029845
 240	1.1950e-01	9.5243	67.604815	0.001191	11.913450	4.036386	0.095181
 241	1.2000e-01	9.5676	67.758073	0.000384	3.836535	1.299853	0.030652
 242	1.2050e-01	9.6029	67.911331	0.000384	3.836535	1.299853	0.030652
 243	1.2100e-01	9.6334	68.044423	0.000333	3.331727	1.128820	0.026618
 244	1.2150e-01	9.6751	68.540494	0.001242	12.418257	4.207419	0.099214
 245	1.2200e-01	9.7281	68.730050	0.000475	4.745188	1.607713	0.037911
 246	1.2250e-01	9.7569	68.988168	0.000646	6.461532	2.189226	0.051624
 247	1.2300e-01	9.8099	69.234187	0.000616	6.158648	2.086606	0.049204
 248	1.2350e-01	9.8468	69.415677	0.000454	4.543265	1.539300	0.036298
 249	1.2400e-01	9.8917	69.693960	0.000697	6.966339	2.360260	0.055657
 250	1.2450e-01	9.9366	69.859317	0.000414	4.139419	1.402473	0.033071
 251	1.2500e-01	9.9639	70.266660	0.001020	10.197105	3.454873	0.081469
 252	1.2550e-01	10.0104	70.391686	0.000313	3.129805	1.060406	0.025005
 253	1.2600e-01	10.0425	70.625606	0.000586	5.855763	1.983986	0.046784
 254	1.2650e-01	10.0954	71.069247	0.001111	11.105758	3.762733	0.088728
 255	1.2700e-01	10.1195	71.311233	0.000606	6.057686	2.052400	0.048397
 256	1.2750e-01	10.1580	71.464491	0.000384	3.836535	1.299853	0.030652
 257	1.2800e-01	10.2061	71.674212	0.000525	5.249995	1.778746	0.041944
 258	1.2850e-01	10.2398	71.887966	0.000535	5.350956	1.812953	0.042751
 259	1.2900e-01	10.2783	72.142051	0.000636	6.360571	2.155020	0.050817
 260	1.2950e-01	10.3329	72.420335	0.000697	6.966339	2.360260	0.055657
 261	1.3000e-01	10.3601	72.795413	0.000939	9.389414	3.181219	0.075016
 262	1.3050e-01	10.4002	72.968836	0.000434	4.341342	1.470886	0.034685
 263	1.3100e-01	10.4452	73.118061	0.000374	3.735573	1.265646	0.029845
 264	1.3150e-01	10.4917	73.380213	0.000656	6.562493	2.223433	0.052430
 265	1.3200e-01	10.5270	73.614132	0.000586	5.855763	1.983986	0.046784
 266	1.3250e-01	10.5719	74.013409	0.001000	9.995182	3.386459	0.079855
 267	1.3300e-01	10.6008	74.065839	0.000131	1.312499	0.444687	0.010486
 268	1.3350e-01	10.6473	74.223130	0.000394	3.937496	1.334060	0.031458
 269	1.3400e-01	10.6906	74.626440	0.001010	10.096144	3.420666	0.080662
 270	1.3450e-01	10.7275	74.840194	0.000535	5.350956	1.812953	0.042751
 271	1.3500e-01	10.7628	75.203173	0.000909	9.086529	3.078600	0.072596
 272	1.3550e-01	10.8141	75.461291	0.000646	6.461532	2.189226	0.051624
 273	1.3600e-01	10.8446	75.868634	0.001020	10.197105	3.454873	0.081469
 274	1.3650e-01	10.8847	75.965429	0.000242	2.423075	0.820960	0.019359
 275	1.3700e-01	10.9248	76.134819	0.000424	4.240380	1.436680	0.033878
 276	1.3750e-01	10.9681	76.501831	0.000919	9.187491	3.112806	0.073402
 277	1.3800e-01	10.9986	76.642989	0.000353	3.533650	1.197233	0.028232
 278	1.3850e-01	11.0435	76.784148	0.000353	3.533650	1.197233	0.028232
 279	1.3900e-01	11.0933	76.977736	0.000485	4.846149	1.641920	0.038718
 280	1.3950e-01	11.1254	77.356848	0.000949	9.490375	3.215426	0.075822
 281	1.4000e-01	11.1703	77.840820	0.001212	12.115373	4.104799	0.096794
 282	1.4050e-01	11.2072	77.703694	-0.000343	-3.432689	-1.163026	-0.027425
 283	1.4100e-01	11.2344	78.038441	0.000838	8.379799	2.839153	0.066949
 284	1.4150e-01	11.2842	78.498215	0.001151	11.509604	3.899559	0.091955
 285	1.4200e-01	11.3243	78.506281	0.000020	0.201923	0.068413	0.001613
 286	1.4250e-01	11.3564	78.869260	0.000909	9.086529	3.078600	0.072596
 287	1.4300e-01	11.4061	79.183841	0.000787	7.874992	2.668120	0.062916
 288	1.4350e-01	11.4478	79.252404	0.000172	1.716344	0.581513	0.013713
 289	1.4400e-01	11.4895	79.542787	0.000727	7.269224	2.462880	0.058077
 290	1.4450e-01	11.5280	79.760575	0.000545	5.451918	1.847160	0.043557
 291	1.4500e-01	11.5745	80.111454	0.000878	8.783645	2.975980	0.070176
 292	1.4550e-01	11.6114	80.119520	0.000020	0.201923	0.068413	0.001613
 293	1.4600e-01	11.6467	80.704320	0.001464	14.639408	4.959966	0.116960
 294	1.4650e-01	11.6900	80.708353	0.000010	0.100961	0.034207	0.000807
 295	1.4700e-01	11.7302	80.825313	0.000293	2.927882	0.991993	0.023392
 296	1.4750e-01	11.7542	81.212490	0.000969	9.692298	3.283839	0.077435
 297	1.4800e-01	11.8136	81.377847	0.000414	4.139419	1.402473	0.033071
 298	1.4850e-01	11.8408	81.607734	0.000575	5.754802	1.949780	0.045977
 299	1.4900e-01	11.8809	81.958613	0.000878	8.783645	2.975980	0.070176
 300	1.4950e-01	11.9243	82.184467	0.000565	5.653841	1.915573	0.045171
 301	1.5000e-01	11.9692	82.361923	0.000444	4.442303	1.505093	0.035491
 302	1.5050e-01	12.0029	82.769266	0.001020	10.197105	3.454873	0.081469
 303	1.5100e-01	12.0430	82.833796	0.000162	1.615383	0.547307	0.012906
 304	1.5150e-01	12.0863	83.128212	0.000737	7.370185	2.497086	0.058883
 305	1.5200e-01	12.1280	83.398429	0.000676	6.764416	2.291846	0.054044
 306	1.5250e-01	12.1681	83.483125	0.000212	2.120190	0.718340	0.016939
 307	1.5300e-01	12.2114	83.914666	0.001080	10.802874	3.660113	0.086308
 308	1.5350e-01	12.2467	84.011460	0.000242	2.423075	0.820960	0.019359
 309	1.5400e-01	12.2836	84.080023	0.000172	1.716344	0.581513	0.013713
 310	1.5450e-01	12.3333	84.515598	0.001090	10.903835	3.694319	0.087115
 311	1.5500e-01	12.3654	84.600293	0.000212	2.120190	0.718340	0.016939
 312	1.5550e-01	12.4103	85.197191	0.001494	14.942293	5.062586	0.119380
 313	1.5600e-01	12.4440	85.217357	0.000050	0.504807	0.171033	0.004033
 314	1.5650e-01	12.4954	85.334317	0.000293	2.927882	0.991993	0.023392
 315	1.5700e-01	12.5114	85.689229	0.000888	8.884607	3.010186	0.070983
 316	1.5750e-01	12.5563	86.169168	0.001201	12.014411	4.070593	0.095988
 317	1.5800e-01	12.6012	86.378889	0.000525	5.249995	1.778746	0.041944
 318	1.5850e-01	12.6446	86.475684	0.000242	2.423075	0.820960	0.019359
 319	1.5900e-01	12.6766	86.729769	0.000636	6.360571	2.155020	0.050817
 320	1.5950e-01	12.7344	86.866894	0.000343	3.432689	1.163026	0.027425
 321	1.6000e-01	12.7745	87.080648	0.000535	5.350956	1.812953	0.042751
 322	1.6050e-01	12.7986	87.250039	0.000424	4.240380	1.436680	0.033878
 323	1.6100e-01	12.8531	87.459760	0.000525	5.249995	1.778746	0.041944
 324	1.6150e-01	12.8788	87.996162	0.001343	13.427871	4.549486	0.107280
 325	1.6200e-01	12.9349	88.004228	0.000020	0.201923	0.068413	0.001613
 326	1.6250e-01	12.9686	88.371240	0.000919	9.187491	3.112806	0.073402
 327	1.6300e-01	13.0151	88.435770	0.000162	1.615383	0.547307	0.012906
 328	1.6350e-01	13.0408	88.528531	0.000232	2.322113	0.786753	0.018552
 329	1.6400e-01	13.0841	88.895543	0.000919	9.187491	3.112806	0.073402
 330	1.6450e-01	13.1210	89.085098	0.000475	4.745188	1.607713	0.037911
 331	1.6500e-01	13.1611	89.423879	0.000848	8.480761	2.873360	0.067756
 332	1.6550e-01	13.2012	89.629567	0.000515	5.149033	1.744540	0.041138
 333	1.6600e-01	13.2510	89.597302	-0.000081	-0.807692	-0.273653	-0.006453
 334	1.6650e-01	13.2766	89.980446	0.000959	9.591337	3.249633	0.076629
 335	1.6700e-01	13.3264	90.109506	0.000323	3.230766	1.094613	0.025812
 336	1.6750e-01	13.3681	90.476517	0.000919	9.187491	3.112806	0.073402
 337	1.6800e-01	13.4034	90.690272	0.000535	5.350956	1.812953	0.042751
 338	1.6850e-01	13.4467	91.057284	0.000919	9.187491	3.112806	0.073402
 339	1.6900e-01	13.4868	91.210541	0.000384	3.836535	1.299853	0.030652
 340	1.6950e-01	13.5253	91.339601	0.000323	3.230766	1.094613	0.025812
 341	1.7000e-01	13.5558	91.533189	0.000485	4.846149	1.641920	0.038718
 342	1.7050e-01	13.6071	91.799374	0.000666	6.663455	2.257640	0.053237
 343	1.7100e-01	13.6456	92.005062	0.000515	5.149033	1.744540	0.041138
 344	1.7150e-01	13.6857	92.291412	0.000717	7.168262	2.428673	0.057270
 345	1.7200e-01	13.7258	92.626159	0.000838	8.379799	2.839153	0.066949
 346	1.7250e-01	13.7579	92.710854	0.000212	2.120190	0.718340	0.016939
 347	1.7300e-01	13.7948	93.077866	0.000919	9.187491	3.112806	0.073402
 348	1.7350e-01	13.8461	93.279521	0.000505	5.048072	1.710333	0.040331
 349	1.7400e-01	13.8830	93.327918	0.000121	1.211537	0.410480	0.009679
 350	1.7450e-01	13.9247	93.537639	0.000525	5.249995	1.778746	0.041944
 351	1.7500e-01	13.9616	93.803824	0.000666	6.663455	2.257640	0.053237
 352	1.7550e-01	14.0066	93.985313	0.000454	4.543265	1.539300	0.036298
 353	1.7600e-01	14.0370	94.211167	0.000565	5.653841	1.915573	0.045171
 354	1.7650e-01	14.0755	94.582212	0.000929	9.288452	3.147013	0.074209
 355	1.7700e-01	14.1285	94.876628	0.000737	7.370185	2.497086	0.058883
 356	1.7750e-01	14.1686	95.017787	0.000353	3.533650	1.197233	0.028232
 357	1.7800e-01	14.2039	95.219441	0.000505	5.048072	1.710333	0.040331
 358	1.7850e-01	14.2344	95.529990	0.000777	7.774031	2.633913	0.062110
 359	1.7900e-01	14.2905	95.828439	0.000747	7.471146	2.531293	0.059690
 360	1.7950e-01	14.3274	95.888936	0.000151	1.514422	0.513100	0.012099
 361	1.8000e-01	14.3627	96.110756	0.000555	5.552879	1.881366	0.044364
 362	1.8050e-01	14.4044	96.207551	0.000242	2.423075	0.820960	0.019359
 363	1.8100e-01	14.4429	96.481801	0.000687	6.865378	2.326053	0.054850
 364	1.8150e-01	14.4910	96.667324	0.000464	4.644226	1.573506	0.037105
 365	1.8200e-01	14.5199	97.058534	0.000979	9.793259	3.318046	0.078242
 366	1.8250e-01	14.5729	97.131130	0.000182	1.817306	0.615720	0.014519
 367	1.8300e-01	14.5985	97.316653	0.000464	4.644226	1.573506	0.037105
 368	1.8350e-01	14.6499	97.691731	0.000939	9.389414	3.181219	0.075016
 369	1.8400e-01	14.6868	97.913551	0.000555	5.552879	1.881366	0.044364
 370	1.8450e-01	14.7317	98.002279	0.000222	2.221152	0.752547	0.017746
 371	1.8500e-01	14.7718	98.441887	0.001100	11.004797	3.728526	0.087922
 372	1.8550e-01	14.8087	98.667741	0.000565	5.653841	1.915573	0.045171
 373	1.8600e-01	14.8472	98.708072	0.000101	1.009614	0.342067	0.008066
 374	1.8650e-01	14.8809	98.841164	0.000333	3.331727	1.128820	0.026618
 375	1.8700e-01	14.9258	98.958124	0.000293	2.927882	0.991993	0.023392
 376	1.8750e-01	14.9659	99.357401	0.001000	9.995182	3.386459	0.079855
 377	1.8800e-01	15.0108	99.522758	0.000414	4.139419	1.402473	0.033071
 378	1.8850e-01	15.0445	99.837339	0.000787	7.874992	2.668120	0.062916
 379	1.8900e-01	15.0862	100.083358	0.000616	6.158648	2.086606	0.049204
 380	1.8950e-01	15.1247	100.236616	0.000384	3.836535	1.299853	0.030652
 381	1.9000e-01	15.1600	100.543132	0.000767	7.673069	2.599706	0.061303
 382	1.9050e-01	15.1985	100.906110	0.000909	9.086529	3.078600	0.072596
 383	1.9100e-01	15.2386	100.946441	0.000101	1.009614	0.342067	0.008066
 384	1.9150e-01	15.2851	101.156163	0.000525	5.249995	1.778746	0.041944
 385	1.9200e-01	15.3268	101.301354	0.000363	3.634612	1.231440	0.029038
 386	1.9250e-01	15.3605	101.406215	0.000262	2.624997	0.889373	0.020972
 387	1.9300e-01	15.4022	101.652234	0.000616	6.158648	2.086606	0.049204
 388	1.9350e-01	15.4568	101.938584	0.000717	7.168262	2.428673	0.057270
 389	1.9400e-01	15.4857	102.237033	0.000747	7.471146	2.531293	0.059690
 390	1.9450e-01	15.5338	102.382225	0.000363	3.634612	1.231440	0.029038
 391	1.9500e-01	15.5739	102.531449	0.000374	3.735573	1.265646	0.029845
 392	1.9550e-01	15.6108	102.575813	0.000111	1.110576	0.376273	0.008873
 393	1.9600e-01	15.6413	103.035587	0.001151	11.509604	3.899559	0.091955
 394	1.9650e-01	15.6782	103.209010	0.000434	4.341342	1.470886	0.034685
 395	1.9700e-01	15.7231	103.362268	0.000384	3.836535	1.299853	0.030652
 396	1.9750e-01	15.7616	103.765577	0.001010	10.096144	3.420666	0.080662
 397	1.9800e-01	15.8017	103.890603	0.000313	3.129805	1.060406	0.025005
 398	1.9850e-01	15.8482	104.084192	0.000485	4.846149	1.641920	0.038718
 399	1.9900e-01	15.8803	104.310046	0.000565	5.653841	1.915573	0.045171
 400	1.9950e-01	15.9156	104.616561	0.000767	7.673069	2.599706	0.061303
 401	2.0000e-01	15.9669	104.866613	0.000626	6.259609	2.120813	0.050010
 402	2.0050e-01	15.9990	104.971474	0.000262	2.624997	0.889373	0.020972
 403	2.0100e-01	16.0536	105.019871	0.000121	1.211537	0.410480	0.009679
 404	2.0150e-01	16.0872	105.354618	0.000838	8.379799	2.839153	0.066949
 405	2.0200e-01	16.1241	105.620803	0.000666	6.663455	2.257640	0.053237
 406	2.0250e-01	16.1610	106.007980	0.000969	9.692298	3.283839	0.077435
 407	2.0300e-01	16.2028	106.016046	0.000020	0.201923	0.068413	0.001613
 408	2.0350e-01	16.2493	106.060410	0.000111	1.110576	0.376273	0.008873
 409	2.0400e-01	16.2814	106.366926	0.000767	7.673069	2.599706	0.061303
 410	2.0450e-01	16.3263	106.451621	0.000212	2.120190	0.718340	0.016939
 411	2.0500e-01	16.3680	106.693607	0.000606	6.057686	2.052400	0.048397
 412	2.0550e-01	16.4081	106.975924	0.000707	7.067301	2.394466	0.056463
 413	2.0600e-01	16.4434	107.193711	0.000545	5.451918	1.847160	0.043557
 414	2.0650e-01	16.4899	107.613153	0.001050	10.499990	3.557493	0.083888
 415	2.0700e-01	16.5300	107.726080	0.000283	2.826920	0.957787	0.022585
 416	2.0750e-01	16.5637	108.105191	0.000949	9.490375	3.215426	0.075822
 417	2.0800e-01	16.6054	108.056794	-0.000121	-1.211537	-0.410480	-0.009679
 418	2.0850e-01	16.6551	108.165688	0.000273	2.725959	0.923580	0.021779
 419	2.0900e-01	16.6840	108.516568	0.000878	8.783645	2.975980	0.070176
 420	2.0950e-01	16.7209	108.778719	0.000656	6.562493	2.223433	0.052430
 421	2.1000e-01	16.7626	109.097334	0.000798	7.975954	2.702326	0.063723
 422	2.1050e-01	16.8075	109.036837	-0.000151	-1.514422	-0.513100	-0.012099
 423	2.1100e-01	16.8509	109.335287	0.000747	7.471146	2.531293	0.059690
 424	2.1150e-01	16.8862	109.633736	0.000747	7.471146	2.531293	0.059690
 425	2.1200e-01	16.9231	109.726497	0.000232	2.322113	0.786753	0.018552
 426	2.1250e-01	16.9776	109.815225	0.000222	2.221152	0.752547	0.017746
 427	2.1300e-01	17.0001	110.238701	0.001060	10.600951	3.591699	0.084695
 428	2.1350e-01	17.0546	110.323396	0.000212	2.120190	0.718340	0.016939
 429	2.1400e-01	17.0963	110.287098	-0.000091	-0.908653	-0.307860	-0.007260
 430	2.1450e-01	17.1284	110.670242	0.000959	9.591337	3.249633	0.076629
 431	2.1500e-01	17.1589	111.170346	0.001252	12.519218	4.241626	0.100021
 432	2.1550e-01	17.2134	111.077585	-0.000232	-2.322113	-0.786753	-0.018552
 433	2.1600e-01	17.2487	111.214711	0.000343	3.432689	1.163026	0.027425
 434	2.1650e-01	17.2808	111.605921	0.000979	9.793259	3.318046	0.078242
 435	2.1700e-01	17.3241	111.868072	0.000656	6.562493	2.223433	0.052430
 436	2.1750e-01	17.3610	111.940668	0.000182	1.817306	0.615720	0.014519
 437	2.1800e-01	17.4043	112.138290	0.000495	4.947110	1.676126	0.039524
 438	2.1850e-01	17.4460	112.396408	0.000646	6.461532	2.189226	0.051624
 439	2.1900e-01	17.4813	112.690825	0.000737	7.370185	2.497086	0.058883
 440	2.1950e-01	17.5343	112.948943	0.000646	6.461532	2.189226	0.051624
 441	2.2000e-01	17.5631	113.219161	0.000676	6.764416	2.291846	0.054044
 442	2.2050e-01	17.6113	113.154631	-0.000162	-1.615383	-0.547307	-0.012906
 443	2.2100e-01	17.6434	113.328054	0.000434	4.341342	1.470886	0.034685
 444	2.2150e-01	17.6915	113.735397	0.001020	10.197105	3.454873	0.081469
 445	2.2200e-01	17.7332	114.110475	0.000939	9.389414	3.181219	0.075016
 446	2.2250e-01	17.7701	113.916887	-0.000485	-4.846149	-1.641920	-0.038718
 447	2.2300e-01	17.8086	114.195170	0.000697	6.966339	2.360260	0.055657
 448	2.2350e-01	17.8535	114.501686	0.000767	7.673069	2.599706	0.061303
 449	2.2400e-01	17.8904	114.505719	0.000010	0.100961	0.034207	0.000807
 450	2.2450e-01	17.9321	114.969525	0.001161	11.610565	3.933766	0.092761
 451	2.2500e-01	17.9626	115.187313	0.000545	5.451918	1.847160	0.043557
 452	2.2550e-01	18.0091	115.263942	0.000192	1.918267	0.649927	0.015326
 453	2.2600e-01	18.0492	115.570457	0.000767	7.673069	2.599706	0.061303
 454	2.2650e-01	18.0829	115.812443	0.000606	6.057686	2.052400	0.048397
 455	2.2700e-01	18.1198	115.969734	0.000394	3.937496	1.334060	0.031458
 456	2.2750e-01	18.1679	116.191554	0.000555	5.552879	1.881366	0.044364
 457	2.2800e-01	18.2048	116.280282	0.000222	2.221152	0.752547	0.017746
 458	2.2850e-01	18.2546	116.445639	0.000414	4.139419	1.402473	0.033071
 459	2.2900e-01	18.2866	116.877181	0.001080	10.802874	3.660113	0.086308
 460	2.2950e-01	18.3219	117.155465	0.000697	6.966339	2.360260	0.055657
 461	2.3000e-01	18.3637	117.171597	0.000040	0.403846	0.136827	0.003226
 462	2.3050e-01	18.4118	117.300656	0.000323	3.230766	1.094613	0.025812
 463	2.3100e-01	18.4519	117.558775	0.000646	6.461532	2.189226	0.051624
 464	2.3150e-01	18.4872	117.623304	0.000162	1.615383	0.547307	0.012906
 465	2.3200e-01	18.5337	117.792694	0.000424	4.240380	1.436680	0.033878
 466	2.3250e-01	18.5674	118.099210	0.000767	7.673069	2.599706	0.061303
 467	2.3300e-01	18.6091	118.325063	0.000565	5.653841	1.915573	0.045171
 468	2.3350e-01	18.6476	118.526718	0.000505	5.048072	1.710333	0.040331
 469	2.3400e-01	18.6797	118.752572	0.000565	5.653841	1.915573	0.045171
 470	2.3450e-01	18.7246	118.857432	0.000262	2.624997	0.889373	0.020972
 471	2.3500e-01	18.7743	119.095385	0.000596	5.956725	2.018193	0.047591
 472	2.3550e-01	18.8080	119.212345	0.000293	2.927882	0.991993	0.023392
 473	2.3600e-01	18.8465	119.442232	0.000575	5.754802	1.949780	0.045977
 474	2.3650e-01	18.8866	119.514827	0.000182	1.817306	0.615720	0.014519
 475	2.3700e-01	18.9299	119.764880	0.000626	6.259609	2.120813	0.050010
 476	2.3750e-01	18.9636	120.160123	0.000989	9.894221	3.352253	0.079049
 477	2.3800e-01	19.0053	120.184322	0.000061	0.605769	0.205240	0.004840
 478	2.3850e-01	19.0471	120.353712	0.000424	4.240380	1.436680	0.033878
 479	2.3900e-01	19.0823	120.853816	0.001252	12.519218	4.241626	0.100021
 480	2.3950e-01	19.1273	120.841717	-0.000030	-0.302884	-0.102620	-0.002420
 481	2.4000e-01	19.1658	121.180497	0.000848	8.480761	2.873360	0.067756
 482	2.4050e-01	19.2107	121.224861	0.000111	1.110576	0.376273	0.008873
 483	2.4100e-01	19.2460	121.644303	0.001050	10.499990	3.557493	0.083888
 484	2.4150e-01	19.2909	121.720932	0.000192	1.918267	0.649927	0.015326
 485	2.4200e-01	19.3310	121.983084	0.000656	6.562493	2.223433	0.052430
 486	2.4250e-01	19.3695	122.467056	0.001212	12.115373	4.104799	0.096794
 487	2.4300e-01	19.4016	122.394460	-0.000182	-1.817306	-0.615720	-0.014519
 488	2.4350e-01	19.4465	122.555784	0.000404	4.038458	1.368266	0.032265
 489	2.4400e-01	19.4850	122.676777	0.000303	3.028843	1.026200	0.024199
 490	2.4450e-01	19.5315	122.991358	0.000787	7.874992	2.668120	0.062916
 491	2.4500e-01	19.5636	123.132517	0.000353	3.533650	1.197233	0.028232
 492	2.4550e-01	19.6117	123.354337	0.000555	5.552879	1.881366	0.044364
 493	2.4600e-01	19.6454	123.483396	0.000323	3.230766	1.094613	0.025812
 494	2.4650e-01	19.6904	123.636654	0.000384	3.836535	1.299853	0.030652
 495	2.4700e-01	19.7208	123.717316	0.000202	2.019229	0.684133	0.016132
 496	2.4750e-01	19.7609	124.052063	0.000838	8.379799	2.839153	0.066949
 497	2.4800e-01	19.8075	124.386811	0.000838	8.379799	2.839153	0.066949
 498	2.4850e-01	19.8460	124.604598	0.000545	5.451918	1.847160	0.043557
 499	2.4900e-01	19.8877	124.725591	0.000303	3.028843	1.026200	0.024199
 500	2.4950e-01	19.9294	124.806253	0.000202	2.019229	0.684133	0.016132
 501	2.5000e-01	19.9727	125.060338	0.000636	6.360571	2.155020	0.050817
 502	2.5050e-01	19.9727	125.100669	-0.000101	-1.009614	-0.342067	0.008066
 503	2.5100e-01	19.9486	124.939345	0.000404	4.038458	1.368266	-0.032265
 504	2.5150e-01	19.9005	124.782054	0.000394	3.937496	1.334060	-0.031458
 505	2.5200e-01	19.8780	124.737690	0.000111	1.110576	0.376273	-0.008873
 506	2.5250e-01	19.8347	124.636863	0.000252	2.524036	0.855167	-0.020165
 507	2.5300e-01	19.7914	124.415042	0.000555	5.552879	1.881366	-0.044364
 508	2.5350e-01	19.7513	124.358579	0.000141	1.413460	0.478893	-0.011293
 509	2.5400e-01	19.7080	124.217420	0.000353	3.533650	1.197233	-0.028232
 510	2.5450e-01	19.6695	123.923004	0.000737	7.370185	2.497086	-0.058883
 511	2.5500e-01	19.6246	123.818144	0.000262	2.624997	0.889373	-0.020972
 512	2.5550e-01	19.5893	123.701184	0.000293	2.927882	0.991993	-0.023392
 513	2.5600e-01	19.5444	123.725382	-0.000061	-0.605769	-0.205240	0.004840
 514	2.5650e-01	19.5155	123.495496	0.000575	5.754802	1.949780	-0.045977
 515	2.5700e-01	19.4738	123.350304	0.000363	3.634612	1.231440	-0.029038
 516	2.5750e-01	19.4337	123.152682	0.000495	4.947110	1.676126	-0.039524
 517	2.5800e-01	19.3936	122.692909	0.001151	11.509604	3.899559	-0.091955
 518	2.5850e-01	19.3631	122.660644	0.000081	0.807692	0.273653	-0.006453
 519	2.5900e-01	19.3150	122.692909	-0.000081	-0.807692	-0.273653	0.006453
 520	2.5950e-01	19.2749	122.382361	0.000777	7.774031	2.633913	-0.062110
 521	2.6000e-01	19.2331	122.337996	0.000111	1.110576	0.376273	-0.008873
 522	2.6050e-01	19.1898	121.934687	0.001010	10.096144	3.420666	-0.080662
 523	2.6100e-01	19.1577	121.793528	0.000353	3.533650	1.197233	-0.028232
 524	2.6150e-01	19.1128	121.583807	0.000525	5.249995	1.778746	-0.041944
 525	2.6200e-01	19.0775	121.450715	0.000333	3.331727	1.128820	-0.026618
 526	2.6250e-01	19.0294	121.462814	-0.000030	-0.302884	-0.102620	0.002420
 527	2.6300e-01	18.9925	121.337788	0.000313	3.129805	1.060406	-0.025005
 528	2.6350e-01	18.9604	121.047405	0.000727	7.269224	2.462880	-0.058077
 529	2.6400e-01	18.9219	120.978842	0.000172	1.716344	0.581513	-0.013713
 530	2.6450e-01	18.8722	120.789287	0.000475	4.745188	1.607713	-0.037911
 531	2.6500e-01	18.8465	120.478738	0.000777	7.774031	2.633913	-0.062110
 532	2.6550e-01	18.7888	120.353712	0.000313	3.129805	1.060406	-0.025005
 533	2.6600e-01	18.7631	120.313381	0.000101	1.009614	0.342067	-0.008066
 534	2.6650e-01	18.7214	120.119792	0.000485	4.846149	1.641920	-0.038718
 535	2.6700e-01	18.6717	119.918137	0.000505	5.048072	1.710333	-0.040331
 536	2.6750e-01	18.6364	119.865707	0.000131	1.312499	0.444687	-0.010486
 537	2.6800e-01	18.5963	119.789078	0.000192	1.918267	0.649927	-0.015326
 538	2.6850e-01	18.5610	119.526927	0.000656	6.562493	2.223433	-0.052430
 539	2.6900e-01	18.5145	119.317206	0.000525	5.249995	1.778746	-0.041944
 540	2.6950e-01	18.4647	119.046988	0.000676	6.764416	2.291846	-0.054044
 541	2.7000e-01	18.4391	118.869532	0.000444	4.442303	1.505093	-0.035491
 542	2.7050e-01	18.3957	118.764671	0.000262	2.624997	0.889373	-0.020972
 543	2.7100e-01	18.3540	118.530751	0.000586	5.855763	1.983986	-0.046784
 544	2.7150e-01	18.3171	118.446056	0.000212	2.120190	0.718340	-0.016939
 545	2.7200e-01	18.2786	118.002415	0.001111	11.105758	3.762733	-0.088728
 546	2.7250e-01	18.2353	118.099210	-0.000242	-2.423075	-0.820960	0.019359
 547	2.7300e-01	18.1984	117.857224	0.000606	6.057686	2.052400	-0.048397
 548	2.7350e-01	18.1535	117.639437	0.000545	5.451918	1.847160	-0.043557
 549	2.7400e-01	18.1118	117.582973	0.000141	1.413460	0.478893	-0.011293
 550	2.7450e-01	18.0653	117.466013	0.000293	2.927882	0.991993	-0.023392
 551	2.7500e-01	18.0300	117.203862	0.000656	6.562493	2.223433	-0.052430
 552	2.7550e-01	17.9915	117.099001	0.000262	2.624997	0.889373	-0.020972
 553	2.7600e-01	17.9482	116.873148	0.000565	5.653841	1.915573	-0.045171
 554	2.7650e-01	17.9145	116.731989	0.000353	3.533650	1.197233	-0.028232
 555	2.7700e-01	17.8808	116.453706	0.000697	6.966339	2.360260	-0.055657
 556	2.7750e-01	17.8310	116.308514	0.000363	3.634612	1.231440	-0.029038
 557	2.7800e-01	17.7861	116.191554	0.000293	2.927882	0.991993	-0.023392
 558	2.7850e-01	17.7589	115.993932	0.000495	4.947110	1.676126	-0.039524
 559	2.7900e-01	17.7075	115.840675	0.000384	3.836535	1.299853	-0.030652
 560	2.7950e-01	17.6770	115.566424	0.000687	6.865378	2.326053	-0.054850
 561	2.8000e-01	17.6369	115.449464	0.000293	2.927882	0.991993	-0.023392
 562	2.8050e-01	17.5920	115.465596	-0.000040	-0.403846	-0.136827	0.003226
 563	2.8100e-01	17.5423	115.272008	0.000485	4.846149	1.641920	-0.038718
 564	2.8150e-01	17.5198	114.949360	0.000808	8.076915	2.736533	-0.064530
 565	2.8200e-01	17.4749	114.671076	0.000697	6.966339	2.360260	-0.055657
 566	2.8250e-01	17.4332	114.634778	0.000091	0.908653	0.307860	-0.007260
 567	2.8300e-01	17.3931	114.489587	0.000363	3.634612	1.231440	-0.029038
 568	2.8350e-01	17.3514	114.352461	0.000343	3.432689	1.163026	-0.027425
 569	2.8400e-01	17.3081	113.993515	0.000899	8.985568	3.044393	-0.071789
 570	2.8450e-01	17.2712	113.824125	0.000424	4.240380	1.436680	-0.033878
 571	2.8500e-01	17.2391	113.634570	0.000475	4.745188	1.607713	-0.037911
 572	2.8550e-01	17.1894	113.412749	0.000555	5.552879	1.881366	-0.044364
 573	2.8600e-01	17.1525	113.243359	0.000424	4.240380	1.436680	-0.033878
 574	2.8650e-01	17.1172	113.142532	0.000252	2.524036	0.855167	-0.020165
 575	2.8700e-01	17.0706	112.936844	0.000515	5.149033	1.744540	-0.041138
 576	2.8750e-01	17.0305	112.884413	0.000131	1.312499	0.444687	-0.010486
 577	2.8800e-01	16.9808	112.795685	0.000222	2.221152	0.752547	-0.017746
 578	2.8850e-01	16.9471	112.360111	0.001090	10.903835	3.694319	-0.087115
 579	2.8900e-01	16.9166	112.255250	0.000262	2.624997	0.889373	-0.020972
 580	2.8950e-01	16.8765	112.142323	0.000283	2.826920	0.957787	-0.022585
 581	2.9000e-01	16.8396	111.892271	0.000626	6.259609	2.120813	-0.050010
 582	2.9050e-01	16.7851	111.670451	0.000555	5.552879	1.881366	-0.044364
 583	2.9100e-01	16.7450	111.476862	0.000485	4.846149	1.641920	-0.038718
 584	2.9150e-01	16.7145	111.291339	0.000464	4.644226	1.573506	-0.037105
 585	2.9200e-01	16.6728	111.259075	0.000081	0.807692	0.273653	-0.006453
 586	2.9250e-01	16.6327	111.097751	0.000404	4.038458	1.368266	-0.032265
 587	2.9300e-01	16.5862	110.924327	0.000434	4.341342	1.470886	-0.034685
 588	2.9350e-01	16.5509	110.642011	0.000707	7.067301	2.394466	-0.056463
 589	2.9400e-01	16.5027	110.266932	0.000939	9.389414	3.181219	-0.075016
 590	2.9450e-01	16.4723	110.266932	-0.000000	-0.000000	-0.000000	0.000000
 591	2.9500e-01	16.4289	109.807159	0.001151	11.509604	3.899559	-0.091955
 592	2.9550e-01	16.3824	109.557107	0.000626	6.259609	2.120813	-0.050010
 593	2.9600e-01	16.3552	109.722464	-0.000414	-4.139419	-1.402473	0.033071
 594	2.9650e-01	16.3167	109.536941	0.000464	4.644226	1.573506	-0.037105
 595	2.9700e-01	16.2749	109.355452	0.000454	4.543265	1.539300	-0.036298
 596	2.9750e-01	16.2445	109.105400	0.000626	6.259609	2.120813	-0.050010
 597	2.9800e-01	16.1979	108.778719	0.000818	8.177876	2.770740	-0.065336
 598	2.9850e-01	16.1530	108.254416	0.001312	13.124987	4.446866	-0.104861
 599	2.9900e-01	16.1129	108.435906	-0.000454	-4.543265	-1.539300	0.036298
 600	2.9950e-01	16.0664	108.367343	0.000172	1.716344	0.581513	-0.013713
 601	3.0000e-01	16.0279	108.105191	0.000656	6.562493	2.223433	-0.052430
 602	3.0050e-01	16.0006	107.947901	0.000394	3.937496	1.334060	-0.031458
 603	3.0100e-01	15.9525	107.568789	0.000949	9.490375	3.215426	-0.075822
 604	3.0150e-01	15.9124	107.471995	0.000242	2.423075	0.820960	-0.019359
 605	3.0200e-01	15.8755	107.314704	0.000394	3.937496	1.334060	-0.031458
 606	3.0250e-01	15.8354	107.032387	0.000707	7.067301	2.394466	-0.056463
 607	3.0300e-01	15.7937	106.931560	0.000252	2.524036	0.855167	-0.020165
 608	3.0350e-01	15.7600	106.649243	0.000707	7.067301	2.394466	-0.056463
 609	3.0400e-01	15.7247	106.669408	-0.000050	-0.504807	-0.171033	0.004033
 610	3.0450e-01	15.6750	106.435489	0.000586	5.855763	1.983986	-0.046784
 611	3.0500e-01	15.6236	106.165271	0.000676	6.764416	2.291846	-0.054044
 612	3.0550e-01	15.5899	105.967649	0.000495	4.947110	1.676126	-0.039524
 613	3.0600e-01	15.5562	105.882954	0.000212	2.120190	0.718340	-0.016939
 614	3.0650e-01	15.5177	105.709531	0.000434	4.341342	1.470886	-0.034685
 615	3.0700e-01	15.4616	105.709531	-0.000000	-0.000000	-0.000000	0.000000
 616	3.0750e-01	15.4311	105.358651	0.000878	8.783645	2.975980	-0.070176
 617	3.0800e-01	15.3910	105.169096	0.000475	4.745188	1.607713	-0.037911
 618	3.0850e-01	15.3509	104.902911	0.000666	6.663455	2.257640	-0.053237
 619	3.0900e-01	15.3124	104.677058	0.000565	5.653841	1.915573	-0.045171
 620	3.0950e-01	15.2723	104.588330	0.000222	2.221152	0.752547	-0.017746
 621	3.1000e-01	15.2354	104.644793	-0.000141	-1.413460	-0.478893	0.011293
 622	3.1050e-01	15.1873	104.205185	0.001100	11.004797	3.728526	-0.087922
 623	3.1100e-01	15.1536	103.826074	0.000949	9.490375	3.215426	-0.075822
 624	3.1150e-01	15.1135	103.676849	0.000374	3.735573	1.265646	-0.029845
 625	3.1200e-01	15.0718	103.624419	0.000131	1.312499	0.444687	-0.010486
 626	3.1250e-01	15.0445	103.467128	0.000394	3.937496	1.334060	-0.031458
 627	3.1300e-01	14.9996	103.063818	0.001010	10.096144	3.420666	-0.080662
 628	3.1350e-01	14.9595	102.918627	0.000363	3.634612	1.231440	-0.029038
 629	3.1400e-01	14.9146	102.721005	0.000495	4.947110	1.676126	-0.039524
 630	3.1450e-01	14.8744	102.523383	0.000495	4.947110	1.676126	-0.039524
 631	3.1500e-01	14.8327	102.398357	0.000313	3.129805	1.060406	-0.025005
 632	3.1550e-01	14.7862	102.160404	0.000596	5.956725	2.018193	-0.047591
 633	3.1600e-01	14.7589	101.999080	0.000404	4.038458	1.368266	-0.032265
 634	3.1650e-01	14.7124	101.797425	0.000505	5.048072	1.710333	-0.040331
 635	3.1700e-01	14.6739	101.603837	0.000485	4.846149	1.641920	-0.038718
 636	3.1750e-01	14.6370	101.563506	0.000101	1.009614	0.342067	-0.008066
 637	3.1800e-01	14.5889	101.256990	0.000767	7.673069	2.599706	-0.061303
 638	3.1850e-01	14.5536	100.958541	0.000747	7.471146	2.531293	-0.059690
 639	3.1900e-01	14.5103	100.744787	0.000535	5.350956	1.812953	-0.042751
 640	3.1950e-01	14.4766	100.531032	0.000535	5.350956	1.812953	-0.042751
 641	3.2000e-01	14.4333	100.313245	0.000545	5.451918	1.847160	-0.043557
 642	3.2050e-01	14.3980	100.192252	0.000303	3.028843	1.026200	-0.024199
 643	3.2100e-01	14.3531	100.159987	0.000081	0.807692	0.273653	-0.006453
 644	3.2150e-01	14.3049	99.954299	0.000515	5.149033	1.744540	-0.041138
 645	3.2200e-01	14.2729	99.639718	0.000787	7.874992	2.668120	-0.062916
 646	3.2250e-01	14.2295	99.579221	0.000151	1.514422	0.513100	-0.012099
 647	3.2300e-01	14.2007	99.228341	0.000878	8.783645	2.975980	-0.070176
 648	3.2350e-01	14.1509	99.075084	0.000384	3.836535	1.299853	-0.030652
 649	3.2400e-01	14.1124	98.994422	0.000202	2.019229	0.684133	-0.016132
 650	3.2450e-01	14.0675	98.655641	0.000848	8.480761	2.873360	-0.067756
 651	3.2500e-01	14.0338	98.417689	0.000596	5.956725	2.018193	-0.047591
 652	3.2550e-01	13.9841	98.212001	0.000515	5.149033	1.744540	-0.041138
 653	3.2600e-01	13.9472	98.147471	0.000162	1.615383	0.547307	-0.012906
 654	3.2650e-01	13.9151	97.957915	0.000475	4.745188	1.607713	-0.037911
 655	3.2700e-01	13.8718	97.764327	0.000485	4.846149	1.641920	-0.038718
 656	3.2750e-01	13.8301	97.631234	0.000333	3.331727	1.128820	-0.026618
 657	3.2800e-01	13.7980	97.421513	0.000525	5.249995	1.778746	-0.041944
 658	3.2850e-01	13.7563	97.086766	0.000838	8.379799	2.839153	-0.066949
 659	3.2900e-01	13.7114	96.901244	0.000464	4.644226	1.573506	-0.037105
 660	3.2950e-01	13.6761	96.481801	0.001050	10.499990	3.557493	-0.083888
 661	3.3000e-01	13.6328	96.401139	0.000202	2.019229	0.684133	-0.016132
 662	3.3050e-01	13.5830	96.147054	0.000636	6.360571	2.155020	-0.050817
 663	3.3100e-01	13.5494	95.917168	0.000575	5.754802	1.949780	-0.045977
 664	3.3150e-01	13.5060	95.671148	0.000616	6.158648	2.086606	-0.049204
 665	3.3200e-01	13.4659	95.606619	0.000162	1.615383	0.547307	-0.012906
 666	3.3250e-01	13.4306	95.425129	0.000454	4.543265	1.539300	-0.036298
 667	3.3300e-01	13.3889	95.126680	0.000747	7.471146	2.531293	-0.059690
 668	3.3350e-01	13.3488	94.904860	0.000555	5.552879	1.881366	-0.044364
 669	3.3400e-01	13.3103	94.743536	0.000404	4.038458	1.368266	-0.032265
 670	3.3450e-01	13.2734	94.481384	0.000656	6.562493	2.223433	-0.052430
 671	3.3500e-01	13.2333	94.344259	0.000343	3.432689	1.163026	-0.027425
 672	3.3550e-01	13.1964	94.186968	0.000394	3.937496	1.334060	-0.031458
 673	3.3600e-01	13.1435	94.078075	0.000273	2.725959	0.923580	-0.021779
 674	3.3650e-01	13.1130	93.819956	0.000646	6.461532	2.189226	-0.051624
 675	3.3700e-01	13.0857	93.364216	0.001141	11.408642	3.865353	-0.091148
 676	3.3750e-01	13.0248	93.219025	0.000363	3.634612	1.231440	-0.029038
 677	3.3800e-01	12.9927	93.142396	0.000192	1.918267	0.649927	-0.015326
 678	3.3850e-01	12.9510	92.880244	0.000656	6.562493	2.223433	-0.052430
 679	3.3900e-01	12.9044	92.678589	0.000505	5.048072	1.710333	-0.040331
 680	3.3950e-01	12.8820	92.537431	0.000353	3.533650	1.197233	-0.028232
 681	3.4000e-01	12.8371	92.541464	-0.000010	-0.100961	-0.034207	0.000807
 682	3.4050e-01	12.7970	92.251081	0.000727	7.269224	2.462880	-0.058077
 683	3.4100e-01	12.7569	92.005062	0.000616	6.158648	2.086606	-0.049204
 684	3.4150e-01	12.7168	91.698546	0.000767	7.673069	2.599706	-0.061303
 685	3.4200e-01	12.6686	91.529156	0.000424	4.240380	1.436680	-0.033878
 686	3.4250e-01	12.6398	91.295237	0.000586	5.855763	1.983986	-0.046784
 687	3.4300e-01	12.6045	91.085515	0.000525	5.249995	1.778746	-0.041944
 688	3.4350e-01	12.5499	91.000820	0.000212	2.120190	0.718340	-0.016939
 689	3.4400e-01	12.5178	90.484584	0.001292	12.923064	4.378453	-0.103247
 690	3.4450e-01	12.4713	90.456352	0.000071	0.706730	0.239447	-0.005646
 691	3.4500e-01	12.4376	90.262763	0.000485	4.846149	1.641920	-0.038718
 692	3.4550e-01	12.3975	90.020777	0.000606	6.057686	2.052400	-0.048397
 693	3.4600e-01	12.3574	89.895751	0.000313	3.129805	1.060406	-0.025005
 694	3.4650e-01	12.3205	89.597302	0.000747	7.471146	2.531293	-0.059690
 695	3.4700e-01	12.2676	89.379515	0.000545	5.451918	1.847160	-0.043557
 696	3.4750e-01	12.2355	89.173827	0.000515	5.149033	1.744540	-0.041138
 697	3.4800e-01	12.1890	88.960072	0.000535	5.350956	1.812953	-0.042751
 698	3.4850e-01	12.1601	88.597094	0.000909	9.086529	3.078600	-0.072596
 699	3.4900e-01	12.1055	88.560796	0.000091	0.908653	0.307860	-0.007260
 700	3.4950e-01	12.0815	88.306710	0.000636	6.360571	2.155020	-0.050817
 701	3.5000e-01	12.0301	88.084890	0.000555	5.552879	1.881366	-0.044364
 702	3.5050e-01	11.9916	87.967930	0.000293	2.927882	0.991993	-0.023392
 703	3.5100e-01	11.9499	87.657382	0.000777	7.774031	2.633913	-0.062110
 704	3.5150e-01	11.9114	87.326667	0.000828	8.278838	2.804946	-0.066143
 705	3.5200e-01	11.8809	87.270204	0.000141	1.413460	0.478893	-0.011293
 706	3.5250e-01	11.8328	87.137112	0.000333	3.331727	1.128820	-0.026618
 707	3.5300e-01	11.7895	86.951589	0.000464	4.644226	1.573506	-0.037105
 708	3.5350e-01	11.7606	86.709603	0.000606	6.057686	2.052400	-0.048397
 709	3.5400e-01	11.7109	86.302260	0.001020	10.197105	3.454873	-0.081469
 710	3.5450e-01	11.6724	86.108672	0.000485	4.846149	1.641920	-0.038718
 711	3.5500e-01	11.6291	85.991712	0.000293	2.927882	0.991993	-0.023392
 712	3.5550e-01	11.5922	85.741660	0.000626	6.259609	2.120813	-0.050010
 713	3.5600e-01	11.5489	85.527906	0.000535	5.350956	1.812953	-0.042751
 714	3.5650e-01	11.5136	85.435144	0.000232	2.322113	0.786753	-0.018552
 715	3.5700e-01	11.4831	85.088298	0.000868	8.682684	2.941773	-0.069369
 716	3.5750e-01	11.4286	84.902775	0.000464	4.644226	1.573506	-0.037105
 717	3.5800e-01	11.3917	84.596260	0.000767	7.673069	2.599706	-0.061303
 718	3.5850e-01	11.3499	84.410737	0.000464	4.644226	1.573506	-0.037105
 719	3.5900e-01	11.3034	84.209082	0.000505	5.048072	1.710333	-0.040331
 720	3.5950e-01	11.2665	83.971129	0.000596	5.956725	2.018193	-0.047591
 721	3.6000e-01	11.2377	83.793673	0.000444	4.442303	1.505093	-0.035491
 722	3.6050e-01	11.1991	83.551687	0.000606	6.057686	2.052400	-0.048397
 723	3.6100e-01	11.1430	83.289536	0.000656	6.562493	2.223433	-0.052430
 724	3.6150e-01	11.1013	83.168543	0.000303	3.028843	1.026200	-0.024199
 725	3.6200e-01	11.0724	83.019318	0.000374	3.735573	1.265646	-0.029845
 726	3.6250e-01	11.0323	82.712803	0.000767	7.673069	2.599706	-0.061303
 727	3.6300e-01	10.9906	82.305460	0.001020	10.197105	3.454873	-0.081469
 728	3.6350e-01	10.9521	82.216732	0.000222	2.221152	0.752547	-0.017746
 729	3.6400e-01	10.9120	82.055408	0.000404	4.038458	1.368266	-0.032265
 730	3.6450e-01	10.8703	81.797289	0.000646	6.461532	2.189226	-0.051624
 731	3.6500e-01	10.8286	81.519005	0.000697	6.966339	2.360260	-0.055657
 732	3.6550e-01	10.7981	81.393979	0.000313	3.129805	1.060406	-0.025005
 733	3.6600e-01	10.7500	81.196358	0.000495	4.947110	1.676126	-0.039524
 734	3.6650e-01	10.7147	81.071332	0.000313	3.129805	1.060406	-0.025005
 735	3.6700e-01	10.6649	80.784982	0.000717	7.168262	2.428673	-0.057270
 736	3.6750e-01	10.6345	80.385705	0.001000	9.995182	3.386459	-0.079855
 737	3.6800e-01	10.5879	80.305043	0.000202	2.019229	0.684133	-0.016132
 738	3.6850e-01	10.5494	80.192116	0.000283	2.826920	0.957787	-0.022585
 739	3.6900e-01	10.5093	79.921898	0.000676	6.764416	2.291846	-0.054044
 740	3.6950e-01	10.4676	79.575052	0.000868	8.682684	2.941773	-0.069369
 741	3.7000e-01	10.4323	79.329033	0.000616	6.158648	2.086606	-0.049204
 742	3.7050e-01	10.4018	79.091080	0.000596	5.956725	2.018193	-0.047591
 743	3.7100e-01	10.3473	78.699870	0.000979	9.793259	3.318046	-0.078242
 744	3.7150e-01	10.3104	78.736167	-0.000091	-0.908653	-0.307860	0.007260
 745	3.7200e-01	10.2751	78.288494	0.001121	11.206720	3.796939	-0.089535
 746	3.7250e-01	10.2318	78.111037	0.000444	4.442303	1.505093	-0.035491
 747	3.7300e-01	10.1917	78.082805	0.000071	0.706730	0.239447	-0.005646
 748	3.7350e-01	10.1532	77.945680	0.000343	3.432689	1.163026	-0.027425
 749	3.7400e-01	10.1131	77.546403	0.001000	9.995182	3.386459	-0.079855
 750	3.7450e-01	10.0714	77.118895	0.001070	10.701912	3.625906	-0.085502
 751	3.7500e-01	10.0281	77.042266	0.000192	1.918267	0.649927	-0.015326
 752	3.7550e-01	9.9912	76.828512	0.000535	5.350956	1.812953	-0.042751
 753	3.7600e-01	9.9543	76.570394	0.000646	6.461532	2.189226	-0.051624
 754	3.7650e-01	9.9077	76.457467	0.000283	2.826920	0.957787	-0.022585
 755	3.7700e-01	9.8676	76.247746	0.000525	5.249995	1.778746	-0.041944
 756	3.7750e-01	9.8307	75.977528	0.000676	6.764416	2.291846	-0.054044
 757	3.7800e-01	9.7810	75.892833	0.000212	2.120190	0.718340	-0.016939
 758	3.7850e-01	9.7537	75.574218	0.000798	7.975954	2.702326	-0.063723
 759	3.7900e-01	9.7040	75.130577	0.001111	11.105758	3.762733	-0.088728
 760	3.7950e-01	9.6687	75.005551	0.000313	3.129805	1.060406	-0.025005
 761	3.8000e-01	9.6334	74.803896	0.000505	5.048072	1.710333	-0.040331
 762	3.8050e-01	9.5981	74.541745	0.000656	6.562493	2.223433	-0.052430
 763	3.8100e-01	9.5484	74.380421	0.000404	4.038458	1.368266	-0.032265
 764	3.8150e-01	9.5083	74.045674	0.000838	8.379799	2.839153	-0.066949
 765	3.8200e-01	9.4746	73.694794	0.000878	8.783645	2.975980	-0.070176
 766	3.8250e-01	9.4393	73.493139	0.000505	5.048072	1.710333	-0.040331
 767	3.8300e-01	9.3928	73.295517	0.000495	4.947110	1.676126	-0.039524
 768	3.8350e-01	9.3671	73.243087	0.000131	1.312499	0.444687	-0.010486
 769	3.8400e-01	9.3174	72.888174	0.000888	8.884607	3.010186	-0.070983
 770	3.8450e-01	9.2773	72.650222	0.000596	5.956725	2.018193	-0.047591
 771	3.8500e-01	9.2292	72.525196	0.000313	3.129805	1.060406	-0.025005
 772	3.8550e-01	9.1923	72.158184	0.000919	9.187491	3.112806	-0.073402
 773	3.8600e-01	9.1489	72.021058	0.000343	3.432689	1.163026	-0.027425
 774	3.8650e-01	9.1185	71.855701	0.000414	4.139419	1.402473	-0.033071
 775	3.8700e-01	9.0735	71.512888	0.000858	8.581722	2.907566	-0.068563
 776	3.8750e-01	9.0302	71.166041	0.000868	8.682684	2.941773	-0.069369
 777	3.8800e-01	8.9917	70.976486	0.000475	4.745188	1.607713	-0.037911
 778	3.8850e-01	8.9580	70.682070	0.000737	7.370185	2.497086	-0.058883
 779	3.8900e-01	8.9099	70.383620	0.000747	7.471146	2.531293	-0.059690
 780	3.8950e-01	8.8698	70.141634	0.000606	6.057686	2.052400	-0.048397
 781	3.9000e-01	8.8329	70.028708	0.000283	2.826920	0.957787	-0.022585
 782	3.9050e-01	8.7896	69.730258	0.000747	7.471146	2.531293	-0.059690
 783	3.9100e-01	8.7527	69.556835	0.000434	4.341342	1.470886	-0.034685
 784	3.9150e-01	8.7030	69.383412	0.000434	4.341342	1.470886	-0.034685
 785	3.9200e-01	8.6821	68.935738	0.001121	11.206720	3.796939	-0.089535
 786	3.9250e-01	8.6340	68.734083	0.000505	5.048072	1.710333	-0.040331
 787	3.9300e-01	8.5923	68.540494	0.000485	4.846149	1.641920	-0.038718
 788	3.9350e-01	8.5618	68.443700	0.000242	2.423075	0.820960	-0.019359
 789	3.9400e-01	8.5121	68.004092	0.001100	11.004797	3.728526	-0.087922
 790	3.9450e-01	8.4736	67.806470	0.000495	4.947110	1.676126	-0.039524
 791	3.9500e-01	8.4302	67.536253	0.000676	6.764416	2.291846	-0.054044
 792	3.9550e-01	8.3869	67.338631	0.000495	4.947110	1.676126	-0.039524
 793	3.9600e-01	8.3629	67.064380	0.000687	6.865378	2.326053	-0.054850
 794	3.9650e-01	8.3067	66.636872	0.001070	10.701912	3.625906	-0.085502
 795	3.9700e-01	8.2698	66.411018	0.000565	5.653841	1.915573	-0.045171
 796	3.9750e-01	8.2249	66.463448	-0.000131	-1.312499	-0.444687	0.010486
 797	3.9800e-01	8.1864	66.225496	0.000596	5.956725	2.018193	-0.047591
 798	3.9850e-01	8.1527	65.975443	0.000626	6.259609	2.120813	-0.050010
 799	3.9900e-01	8.1046	65.652796	0.000808	8.076915	2.736533	-0.064530
 800	3.9950e-01	8.0677	65.422909	0.000575	5.754802	1.949780	-0.045977
 801	4.0000e-01	8.0260	65.160758	0.000656	6.562493	2.223433	-0.052430
 802	4.0050e-01	7.9859	64.894573	0.000666	6.663455	2.257640	-0.053237
 803	4.0100e-01	7.9458	64.696951	0.000495	4.947110	1.676126	-0.039524
 804	4.0150e-01	7.9169	64.503362	0.000485	4.846149	1.641920	-0.038718
 805	4.0200e-01	7.8720	64.192814	0.000777	7.774031	2.633913	-0.062110
 806	4.0250e-01	7.8319	64.007291	0.000464	4.644226	1.573506	-0.037105
 807	4.0300e-01	7.7902	63.652379	0.000888	8.884607	3.010186	-0.070983
 808	4.0350e-01	7.7500	63.503154	0.000374	3.735573	1.265646	-0.029845
 809	4.0400e-01	7.7035	63.208738	0.000737	7.370185	2.497086	-0.058883
 810	4.0450e-01	7.6682	62.958686	0.000626	6.259609	2.120813	-0.050010
 811	4.0500e-01	7.6265	62.571508	0.000969	9.692298	3.283839	-0.077435
 812	4.0550e-01	7.5880	62.256927	0.000787	7.874992	2.668120	-0.062916
 813	4.0600e-01	7.5527	62.091570	0.000414	4.139419	1.402473	-0.033071
 814	4.0650e-01	7.5142	61.906047	0.000464	4.644226	1.573506	-0.037105
 815	4.0700e-01	7.4757	61.772955	0.000333	3.331727	1.128820	-0.026618
 816	4.0750e-01	7.4324	61.373678	0.001000	9.995182	3.386459	-0.079855
 817	4.0800e-01	7.3859	61.216387	0.000394	3.937496	1.334060	-0.031458
 818	4.0850e-01	7.3602	60.857441	0.000899	8.985568	3.044393	-0.071789
 819	4.0900e-01	7.3073	60.671919	0.000464	4.644226	1.573506	-0.037105
 820	4.0950e-01	7.2672	60.409767	0.000656	6.562493	2.223433	-0.052430
 821	4.1000e-01	7.2319	60.155682	0.000636	6.360571	2.155020	-0.050817
 822	4.1050e-01	7.1934	59.816902	0.000848	8.480761	2.873360	-0.067756
 823	4.1100e-01	7.1533	59.615247	0.000505	5.048072	1.710333	-0.040331
 824	4.1150e-01	7.1100	59.478122	0.000343	3.432689	1.163026	-0.027425
 825	4.1200e-01	7.0779	59.030448	0.001121	11.206720	3.796939	-0.089535
 826	4.1250e-01	7.0233	58.909455	0.000303	3.028843	1.026200	-0.024199
 827	4.1300e-01	6.9864	58.647303	0.000656	6.562493	2.223433	-0.052430
 828	4.1350e-01	6.9495	58.385152	0.000656	6.562493	2.223433	-0.052430
 829	4.1400e-01	6.9110	58.026206	0.000899	8.985568	3.044393	-0.071789
 830	4.1450e-01	6.8709	57.760022	0.000666	6.663455	2.257640	-0.053237
 831	4.1500e-01	6.8356	57.522069	0.000596	5.956725	2.018193	-0.047591
 832	4.1550e-01	6.7923	57.263951	0.000646	6.461532	2.189226	-0.051624
 833	4.1600e-01	6.7442	56.997766	0.000666	6.663455	2.257640	-0.053237
 834	4.1650e-01	6.7105	56.804177	0.000485	4.846149	1.641920	-0.038718
 835	4.1700e-01	6.6704	56.485562	0.000798	7.975954	2.702326	-0.063723
 836	4.1750e-01	6.6335	56.279874	0.000515	5.149033	1.744540	-0.041138
 837	4.1800e-01	6.5934	56.158881	0.000303	3.028843	1.026200	-0.024199
 838	4.1850e-01	6.5469	55.658777	0.001252	12.519218	4.241626	-0.100021
 839	4.1900e-01	6.5020	55.513586	0.000363	3.634612	1.231440	-0.029038
 840	4.1950e-01	6.4715	54.864257	0.001625	16.254791	5.507272	-0.129866
 841	4.2000e-01	6.4233	54.848124	0.000040	0.403846	0.136827	-0.003226
 842	4.2050e-01	6.3961	54.723098	0.000313	3.129805	1.060406	-0.025005
 843	4.2100e-01	6.3496	54.460947	0.000656	6.562493	2.223433	-0.052430
 844	4.2150e-01	6.3127	54.352053	0.000273	2.725959	0.923580	-0.021779
 845	4.2200e-01	6.2726	54.009240	0.000858	8.581722	2.907566	-0.068563
 846	4.2250e-01	6.2357	53.529301	0.001201	12.014411	4.070593	-0.095988
 847	4.2300e-01	6.1923	53.307481	0.000555	5.552879	1.881366	-0.044364
 848	4.2350e-01	6.1522	53.041296	0.000666	6.663455	2.257640	-0.053237
 849	4.2400e-01	6.1185	52.879972	0.000404	4.038458	1.368266	-0.032265
 850	4.2450e-01	6.0672	52.464563	0.001040	10.399028	3.523286	-0.083082
 851	4.2500e-01	6.0367	52.456497	0.000020	0.201923	0.068413	-0.001613
 852	4.2550e-01	5.9934	52.182246	0.000687	6.865378	2.326053	-0.054850
 853	4.2600e-01	5.9565	51.859598	0.000808	8.076915	2.736533	-0.064530
 854	4.2650e-01	5.9084	51.633745	0.000565	5.653841	1.915573	-0.045171
 855	4.2700e-01	5.8667	51.367560	0.000666	6.663455	2.257640	-0.053237
 856	4.2750e-01	5.8314	51.194137	0.000434	4.341342	1.470886	-0.034685
 857	4.2800e-01	5.7945	50.778728	0.001040	10.399028	3.523286	-0.083082
 858	4.2850e-01	5.7415	50.544808	0.000586	5.855763	1.983986	-0.046784
 859	4.2900e-01	5.7191	50.302822	0.000606	6.057686	2.052400	-0.048397
 860	4.2950e-01	5.6726	50.093101	0.000525	5.249995	1.778746	-0.041944
 861	4.3000e-01	5.6228	49.633328	0.001151	11.509604	3.899559	-0.091955
 862	4.3050e-01	5.5908	49.451839	0.000454	4.543265	1.539300	-0.036298
 863	4.3100e-01	5.5539	49.173555	0.000697	6.966339	2.360260	-0.055657
 864	4.3150e-01	5.5121	48.955767	0.000545	5.451918	1.847160	-0.043557
 865	4.3200e-01	5.4656	48.500027	0.001141	11.408642	3.865353	-0.091148
 866	4.3250e-01	5.4319	48.169313	0.000828	8.278838	2.804946	-0.066143
 867	4.3300e-01	5.3870	48.032188	0.000343	3.432689	1.163026	-0.027425
 868	4.3350e-01	5.3469	47.806334	0.000565	5.653841	1.915573	-0.045171
 869	4.3400e-01	5.3164	47.604679	0.000505	5.048072	1.710333	-0.040331
 870	4.3450e-01	5.2731	47.302197	0.000757	7.572108	2.565500	-0.060496
 871	4.3500e-01	5.2314	46.882755	0.001050	10.499990	3.557493	-0.083888
 872	4.3550e-01	5.1961	46.543974	0.000848	8.480761	2.873360	-0.067756
 873	4.3600e-01	5.1432	46.310055	0.000586	5.855763	1.983986	-0.046784
 874	4.3650e-01	5.1127	46.132598	0.000444	4.442303	1.505093	-0.035491
 875	4.3700e-01	5.0646	45.894646	0.000596	5.956725	2.018193	-0.047591
 876	4.3750e-01	5.0357	45.692991	0.000505	5.048072	1.710333	-0.040331
 877	4.3800e-01	4.9924	45.285648	0.001020	10.197105	3.454873	-0.081469
 878	4.3850e-01	4.9458	44.898470	0.000969	9.692298	3.283839	-0.077435
 879	4.3900e-01	4.9090	44.821841	0.000192	1.918267	0.649927	-0.015326
 880	4.3950e-01	4.8785	44.474995	0.000868	8.682684	2.941773	-0.069369
 881	4.4000e-01	4.8319	44.402399	0.000182	1.817306	0.615720	-0.014519
 882	4.4050e-01	4.7886	44.011188	0.000979	9.793259	3.318046	-0.078242
 883	4.4100e-01	4.7549	43.632077	0.000949	9.490375	3.215426	-0.075822
 884	4.4150e-01	4.7116	43.156172	0.001191	11.913450	4.036386	-0.095181
 885	4.4200e-01	4.6763	42.861755	0.000737	7.370185	2.497086	-0.058883
 886	4.4250e-01	4.6330	42.716564	0.000363	3.634612	1.231440	-0.029038
 887	4.4300e-01	4.5945	42.418115	0.000747	7.471146	2.531293	-0.059690
 888	4.4350e-01	4.5480	42.159996	0.000646	6.461532	2.189226	-0.051624
 889	4.4400e-01	4.5143	41.801050	0.000899	8.985568	3.044393	-0.071789
 890	4.4450e-01	4.4662	41.542932	0.000646	6.461532	2.189226	-0.051624
 891	4.4500e-01	4.4373	41.462270	0.000202	2.019229	0.684133	-0.016132
 892	4.4550e-01	4.4004	41.010563	0.001131	11.307681	3.831146	-0.090341
 893	4.4600e-01	4.3555	40.740346	0.000676	6.764416	2.291846	-0.054044
 894	4.4650e-01	4.3154	40.595154	0.000363	3.634612	1.231440	-0.029038
 895	4.4700e-01	4.2673	40.284605	0.000777	7.774031	2.633913	-0.062110
 896	4.4750e-01	4.2320	40.026487	0.000646	6.461532	2.189226	-0.051624
 897	4.4800e-01	4.1838	39.530416	0.001242	12.418257	4.207419	-0.099214
 898	4.4850e-01	4.1598	39.300529	0.000575	5.754802	1.949780	-0.045977
 899	4.4900e-01	4.1133	39.151305	0.000374	3.735573	1.265646	-0.029845
 900	4.4950e-01	4.0796	38.844789	0.000767	7.673069	2.599706	-0.061303
 901	4.5000e-01	4.0250	38.481810	0.000909	9.086529	3.078600	-0.072596
 902	4.5050e-01	3.9833	38.227725	0.000636	6.360571	2.155020	-0.050817
 903	4.5100e-01	3.9512	37.897011	0.000828	8.278838	2.804946	-0.066143
 904	4.5150e-01	3.9207	37.562264	0.000838	8.379799	2.839153	-0.066949
 905	4.5200e-01	3.8710	37.380774	0.000454	4.543265	1.539300	-0.036298
 906	4.5250e-01	3.8309	37.046027	0.000838	8.379799	2.839153	-0.066949
 907	4.5300e-01	3.7956	36.816141	0.000575	5.754802	1.949780	-0.045977
 908	4.5350e-01	3.7507	36.324103	0.001232	12.317295	4.173213	-0.098408
 909	4.5400e-01	3.7170	36.199077	0.000313	3.129805	1.060406	-0.025005
 910	4.5450e-01	3.6705	35.819965	0.000949	9.490375	3.215426	-0.075822
 911	4.5500e-01	3.6288	35.473119	0.000868	8.682684	2.941773	-0.069369
 912	4.5550e-01	3.5855	35.323894	0.000374	3.735573	1.265646	-0.029845
 913	4.5600e-01	3.5405	35.085941	0.000596	5.956725	2.018193	-0.047591
 914	4.5650e-01	3.5117	34.634234	0.001131	11.307681	3.831146	-0.090341
 915	4.5700e-01	3.4635	34.343851	0.000727	7.269224	2.462880	-0.058077
 916	4.5750e-01	3.4347	34.049435	0.000737	7.370185	2.497086	-0.058883
 917	4.5800e-01	3.3865	33.682423	0.000919	9.187491	3.112806	-0.073402
 918	4.5850e-01	3.3528	33.230716	0.001131	11.307681	3.831146	-0.090341
 919	4.5900e-01	3.3079	33.303312	-0.000182	-1.817306	-0.615720	0.014519
 920	4.5950e-01	3.2694	33.016962	0.000717	7.168262	2.428673	-0.057270
 921	4.6000e-01	3.2389	32.424096	0.001484	14.841331	5.028379	-0.118573
 922	4.6050e-01	3.1924	32.178077	0.000616	6.158648	2.086606	-0.049204
 923	4.6100e-01	3.1411	31.823165	0.000888	8.884607	3.010186	-0.070983
 924	4.6150e-01	3.1122	31.561013	0.000656	6.562493	2.223433	-0.052430
 925	4.6200e-01	3.0769	31.323060	0.000596	5.956725	2.018193	-0.047591
 926	4.6250e-01	3.0288	31.073008	0.000626	6.259609	2.120813	-0.050010
 927	4.6300e-01	3.0015	30.742294	0.000828	8.278838	2.804946	-0.066143
 928	4.6350e-01	2.9486	30.685831	0.000141	1.413460	0.478893	-0.011293
 929	4.6400e-01	2.9213	30.185726	0.001252	12.519218	4.241626	-0.100021
 930	4.6450e-01	2.8780	29.717887	0.001171	11.711527	3.967973	-0.093568
 931	4.6500e-01	2.8331	29.411372	0.000767	7.673069	2.599706	-0.061303
 932	4.6550e-01	2.7962	29.262147	0.000374	3.735573	1.265646	-0.029845
 933	4.6600e-01	2.7529	28.745910	0.001292	12.923064	4.378453	-0.103247
 934	4.6650e-01	2.7176	28.568454	0.000444	4.442303	1.505093	-0.035491
 935	4.6700e-01	2.6662	28.225641	0.000858	8.581722	2.907566	-0.068563
 936	4.6750e-01	2.6374	27.842496	0.000959	9.591337	3.249633	-0.076629
 937	4.6800e-01	2.5924	27.717470	0.000313	3.129805	1.060406	-0.025005
 938	4.6850e-01	2.5475	27.314160	0.001010	10.096144	3.420666	-0.080662
 939	4.6900e-01	2.5122	27.019744	0.000737	7.370185	2.497086	-0.058883
 940	4.6950e-01	2.4641	26.866486	0.000384	3.836535	1.299853	-0.030652
 941	4.7000e-01	2.4288	26.539805	0.000818	8.177876	2.770740	-0.065336
 942	4.7050e-01	2.3871	25.979205	0.001403	14.033640	4.754726	-0.112120
 943	4.7100e-01	2.3566	25.668656	0.000777	7.774031	2.633913	-0.062110
 944	4.7150e-01	2.3069	25.337942	0.000828	8.278838	2.804946	-0.066143
 945	4.7200e-01	2.2620	25.370207	-0.000081	-0.807692	-0.273653	0.006453
 946	4.7250e-01	2.2283	24.966897	0.001010	10.096144	3.420666	-0.080662
 947	4.7300e-01	2.1914	24.628117	0.000848	8.480761	2.873360	-0.067756
 948	4.7350e-01	2.1561	24.148178	0.001201	12.014411	4.070593	-0.095988
 949	4.7400e-01	2.1144	23.886026	0.000656	6.562493	2.223433	-0.052430
 950	4.7450e-01	2.0711	23.506915	0.000949	9.490375	3.215426	-0.075822
 951	4.7500e-01	2.0310	23.248797	0.000646	6.461532	2.189226	-0.051624
 952	4.7550e-01	2.0005	22.954381	0.000737	7.370185	2.497086	-0.058883
 953	4.7600e-01	1.9540	22.692229	0.000656	6.562493	2.223433	-0.052430
 954	4.7650e-01	1.9074	22.309085	0.000959	9.591337	3.249633	-0.076629
 955	4.7700e-01	1.8721	21.825113	0.001212	12.115373	4.104799	-0.096794
 956	4.7750e-01	1.8304	21.518598	0.000767	7.673069	2.599706	-0.061303
 957	4.7800e-01	1.7871	21.244347	0.000687	6.865378	2.326053	-0.054850
 958	4.7850e-01	1.7502	21.042692	0.000505	5.048072	1.710333	-0.040331
 959	4.7900e-01	1.7117	20.659548	0.000959	9.591337	3.249633	-0.076629
 960	4.7950e-01	1.6748	20.369164	0.000727	7.269224	2.462880	-0.058077
 961	4.8000e-01	1.6219	19.917457	0.001131	11.307681	3.831146	-0.090341
 962	4.8050e-01	1.5818	19.800498	0.000293	2.927882	0.991993	-0.023392
 963	4.8100e-01	1.5465	19.506081	0.000737	7.370185	2.497086	-0.058883
 964	4.8150e-01	1.5096	19.247963	0.000646	6.461532	2.189226	-0.051624
 965	4.8200e-01	1.4711	18.768024	0.001201	12.014411	4.070593	-0.095988
 966	4.8250e-01	1.4246	18.316317	0.001131	11.307681	3.831146	-0.090341
 967	4.8300e-01	1.3925	18.130795	0.000464	4.644226	1.573506	-0.037105
 968	4.8350e-01	1.3492	17.900908	0.000575	5.754802	1.949780	-0.045977
 969	4.8400e-01	1.3123	17.477433	0.001060	10.600951	3.591699	-0.084695
 970	4.8450e-01	1.2802	16.904733	0.001434	14.336524	4.857346	-0.114540
 971	4.8500e-01	1.2304	16.670813	0.000586	5.855763	1.983986	-0.046784
 972	4.8550e-01	1.1903	16.336066	0.000838	8.379799	2.839153	-0.066949
 973	4.8600e-01	1.1518	15.969054	0.000919	9.187491	3.112806	-0.073402
 974	4.8650e-01	1.1101	15.775465	0.000485	4.846149	1.641920	-0.038718
 975	4.8700e-01	1.0636	15.481049	0.000737	7.370185	2.497086	-0.058883
 976	4.8750e-01	1.0267	15.166467	0.000787	7.874992	2.668120	-0.062916
 977	4.8800e-01	0.9866	14.855919	0.000777	7.774031	2.633913	-0.062110
 978	4.8850e-01	0.9449	14.291285	0.001413	14.134601	4.788933	-0.112927
 979	4.8900e-01	0.9160	14.154160	0.000343	3.432689	1.163026	-0.027425
 980	4.8950e-01	0.8743	13.783114	0.000929	9.288452	3.147013	-0.074209
 981	4.9000e-01	0.8294	13.460467	0.000808	8.076915	2.736533	-0.064530
 982	4.9050e-01	0.7909	13.137819	0.000808	8.076915	2.736533	-0.064530
 983	4.9100e-01	0.7460	12.786939	0.000878	8.783645	2.975980	-0.070176
 984	4.9150e-01	0.7155	12.500589	0.000717	7.168262	2.428673	-0.057270
 985	4.9200e-01	0.6738	11.871426	0.001575	15.749984	5.336239	-0.125833
 986	4.9250e-01	0.6176	11.637506	0.000586	5.855763	1.983986	-0.046784
 987	4.9300e-01	0.5888	11.363255	0.000687	6.865378	2.326053	-0.054850
 988	4.9350e-01	0.5567	10.899449	0.001161	11.610565	3.933766	-0.092761
 989	4.9400e-01	0.5053	10.488073	0.001030	10.298067	3.489079	-0.082275
 990	4.9450e-01	0.4716	10.266252	0.000555	5.552879	1.881366	-0.044364
 991	4.9500e-01	0.4331	10.149293	0.000293	2.927882	0.991993	-0.023392
 992	4.9550e-01	0.3866	9.689519	0.001151	11.509604	3.899559	-0.091955
 993	4.9600e-01	0.3433	9.415269	0.000687	6.865378	2.326053	-0.054850
 994	4.9650e-01	0.3160	8.838536	0.001444	14.437486	4.891553	-0.115347
 995	4.9700e-01	0.2647	8.443292	0.000989	9.894221	3.352253	-0.079049
 996	4.9750e-01	0.2278	8.519921	-0.000192	-1.918267	-0.649927	0.015326
 997	4.9800e-01	0.1909	7.971419	0.001373	13.730756	4.652106	-0.109700
 998	4.9850e-01	0.1492	7.418885	0.001383	13.831717	4.686313	-0.110507
 999	4.9900e-01	0.1075	7.100270	0.000798	7.975954	2.702326	-0.063723
1000	4.9950e-01	0.0642	6.866350	0.000586	5.855763	1.983986	-0.046784
1001	5.0000e-01	0.0321	6.281551	0.001464	14.639408	4.959966	-0.116960
1002	5.0050e-01	-0.0032	6.184757	0.000242	2.423075	0.820960	-0.019359
1003	5.0100e-01	-0.0433	5.854043	0.000828	8.278838	2.804946	-0.066143
1004	5.0150e-01	-0.0850	5.591891	0.000656	6.562493	2.223433	-0.052430
1005	5.0200e-01	-0.1267	5.176482	0.001040	10.399028	3.523286	-0.083082
1006	5.0250e-01	-0.1588	4.966761	0.000525	5.249995	1.778746	-0.041944
1007	5.0300e-01	-0.2037	4.357763	0.001525	15.245177	5.165206	-0.121800
1008	5.0350e-01	-0.2487	4.196439	0.000404	4.038458	1.368266	-0.032265
1009	5.0400e-01	-0.2791	3.692302	0.001262	12.620180	4.275833	-0.100827
1010	5.0450e-01	-0.3241	3.297058	0.000989	9.894221	3.352253	-0.079049
1011	5.0500e-01	-0.3577	3.022807	0.000687	6.865378	2.326053	-0.054850
1012	5.0550e-01	-0.3995	2.740491	0.000707	7.067301	2.394466	-0.056463
1013	5.0600e-01	-0.4492	2.284750	0.001141	11.408642	3.865353	-0.091148
1014	5.0650e-01	-0.4893	2.087129	0.000495	4.947110	1.676126	-0.039524
1015	5.0700e-01	-0.5214	1.530561	0.001393	13.932678	4.720519	-0.111314
1016	5.0750e-01	-0.5551	1.127251	0.001010	10.096144	3.420666	-0.080662
1017	5.0800e-01	-0.6048	0.865100	0.000656	6.562493	2.223433	-0.052430
1018	5.0850e-01	-0.6497	0.562617	0.000757	7.572108	2.565500	-0.060496
1019	5.0900e-01	-0.6754	0.010083	0.001383	13.831717	4.686313	-0.110507
1020	5.0950e-01	-0.7283	-0.252069	0.000656	6.562493	2.223433	-0.052430
1021	5.1000e-01	-0.7684	-0.562617	0.000777	7.774031	2.633913	-0.062110
1022	5.1050e-01	-0.7957	-1.131284	0.001424	14.235563	4.823139	-0.113733
1023	5.1100e-01	-0.8406	-1.474098	0.000858	8.581722	2.907566	-0.068563
1024	5.1150e-01	-0.8775	-1.708017	0.000586	5.855763	1.983986	-0.046784
1025	5.1200e-01	-0.9208	-2.111327	0.001010	10.096144	3.420666	-0.080662
1026	5.1250e-01	-0.9674	-2.688060	0.001444	14.437486	4.891553	-0.115347
1027	5.1300e-01	-1.0026	-2.829219	0.000353	3.533650	1.197233	-0.028232
1028	5.1350e-01	-1.0460	-2.994576	0.000414	4.139419	1.402473	-0.033071
1029	5.1400e-01	-1.0877	-3.337389	0.000858	8.581722	2.907566	-0.068563
1030	5.1450e-01	-1.1278	-3.813295	0.001191	11.913450	4.036386	-0.095181
1031	5.1500e-01	-1.1599	-4.208538	0.000989	9.894221	3.352253	-0.079049
1032	5.1550e-01	-1.1984	-4.704610	0.001242	12.418257	4.207419	-0.099214
1033	5.1600e-01	-1.2465	-4.777205	0.000182	1.817306	0.615720	-0.014519
1034	5.1650e-01	-1.2770	-5.289409	0.001282	12.822103	4.344246	-0.102441
1035	5.1700e-01	-1.3203	-5.628189	0.000848	8.480761	2.873360	-0.067756
1036	5.1750e-01	-1.3556	-6.019400	0.000979	9.793259	3.318046	-0.078242
1037	5.1800e-01	-1.4117	-6.221055	0.000505	5.048072	1.710333	-0.040331
1038	5.1850e-01	-1.4470	-6.709060	0.001222	12.216334	4.139006	-0.097601
1039	5.1900e-01	-1.4823	-6.914748	0.000515	5.149033	1.744540	-0.041138
1040	5.1950e-01	-1.5288	-7.281760	0.000919	9.187491	3.112806	-0.073402
1041	5.2000e-01	-1.5577	-7.878658	0.001494	14.942293	5.062586	-0.119380
1042	5.2050e-01	-1.6074	-8.120644	0.000606	6.057686	2.052400	-0.048397
1043	5.2100e-01	-1.6459	-8.499755	0.000949	9.490375	3.215426	-0.075822
1044	5.2150e-01	-1.6812	-8.846602	0.000868	8.682684	2.941773	-0.069369
1045	5.2200e-01	-1.7213	-9.052290	0.000515	5.149033	1.744540	-0.041138
1046	5.2250e-01	-1.7582	-9.374938	0.000808	8.076915	2.736533	-0.064530
1047	5.2300e-01	-1.7967	-9.846810	0.001181	11.812488	4.002179	-0.094375
1048	5.2350e-01	-1.8465	-10.197690	0.000878	8.783645	2.975980	-0.070176
1049	5.2400e-01	-1.8914	-10.455808	0.000646	6.461532	2.189226	-0.051624
1050	5.2450e-01	-1.9299	-10.677629	0.000555	5.552879	1.881366	-0.044364
1051	5.2500e-01	-1.9572	-11.274527	0.001494	14.942293	5.062586	-0.119380
1052	5.2550e-01	-2.0037	-11.520546	0.000616	6.158648	2.086606	-0.049204
1053	5.2600e-01	-2.0486	-11.927889	0.001020	10.197105	3.454873	-0.081469
1054	5.2650e-01	-2.0871	-12.198107	0.000676	6.764416	2.291846	-0.054044
1055	5.2700e-01	-2.1160	-12.432026	0.000586	5.855763	1.983986	-0.046784
1056	5.2750e-01	-2.1737	-12.863568	0.001080	10.802874	3.660113	-0.086308
1057	5.2800e-01	-2.2058	-13.145885	0.000707	7.067301	2.394466	-0.056463
1058	5.2850e-01	-2.2347	-13.529029	0.000959	9.591337	3.249633	-0.076629
1059	5.2900e-01	-2.2812	-14.029133	0.001252	12.519218	4.241626	-0.100021
1060	5.2950e-01	-2.3181	-14.367914	0.000848	8.480761	2.873360	-0.067756
1061	5.3000e-01	-2.3550	-14.662330	0.000737	7.370185	2.497086	-0.058883
1062	5.3050e-01	-2.4128	-15.017243	0.000888	8.884607	3.010186	-0.070983
1063	5.3100e-01	-2.4416	-15.380222	0.000909	9.086529	3.078600	-0.072596
1064	5.3150e-01	-2.4866	-15.573810	0.000485	4.846149	1.641920	-0.038718
1065	5.3200e-01	-2.5219	-15.932756	0.000899	8.985568	3.044393	-0.071789
1066	5.3250e-01	-2.5684	-16.340099	0.001020	10.197105	3.454873	-0.081469
1067	5.3300e-01	-2.6021	-16.690979	0.000878	8.783645	2.975980	-0.070176
1068	5.3350e-01	-2.6342	-17.025726	0.000838	8.379799	2.839153	-0.066949
1069	5.3400e-01	-2.6759	-17.223348	0.000495	4.947110	1.676126	-0.039524
1070	5.3450e-01	-2.7352	-17.497598	0.000687	6.865378	2.326053	-0.054850
1071	5.3500e-01	-2.7609	-17.884776	0.000969	9.692298	3.283839	-0.077435
1072	5.3550e-01	-2.8058	-18.134828	0.000626	6.259609	2.120813	-0.050010
1073	5.3600e-01	-2.8347	-18.933381	0.001999	19.990365	6.772919	-0.159711
1074	5.3650e-01	-2.8780	-18.925315	-0.000020	-0.201923	-0.068413	0.001613
1075	5.3700e-01	-2.9213	-19.203599	0.000697	6.966339	2.360260	-0.055657
1076	5.3750e-01	-2.9614	-19.542379	0.000848	8.480761	2.873360	-0.067756
1077	5.3800e-01	-2.9983	-19.925524	0.000959	9.591337	3.249633	-0.076629
1078	5.3850e-01	-3.0400	-20.232039	0.000767	7.673069	2.599706	-0.061303
1079	5.3900e-01	-3.0817	-20.796673	0.001413	14.134601	4.788933	-0.112927
1080	5.3950e-01	-3.1266	-21.127387	0.000828	8.278838	2.804946	-0.066143
1081	5.4000e-01	-3.1652	-21.296777	0.000424	4.240380	1.436680	-0.033878
1082	5.4050e-01	-3.2101	-21.756550	0.001151	11.509604	3.899559	-0.091955
1083	5.4100e-01	-3.2486	-21.994503	0.000596	5.956725	2.018193	-0.047591
1084	5.4150e-01	-3.2726	-22.341350	0.000868	8.682684	2.941773	-0.069369
1085	5.4200e-01	-3.3240	-22.478475	0.000343	3.432689	1.163026	-0.027425
1086	5.4250e-01	-3.3721	-22.668031	0.000475	4.745188	1.607713	-0.037911
1087	5.4300e-01	-3.4058	-23.039076	0.000929	9.288452	3.147013	-0.074209
1088	5.4350e-01	-3.4507	-23.462551	0.001060	10.600951	3.591699	-0.084695
1089	5.4400e-01	-3.4812	-23.761000	0.000747	7.471146	2.531293	-0.059690
1090	5.4450e-01	-3.5181	-24.123979	0.000909	9.086529	3.078600	-0.072596
1091	5.4500e-01	-3.5646	-24.349833	0.000565	5.653841	1.915573	-0.045171
1092	5.4550e-01	-3.6047	-24.708779	0.000899	8.985568	3.044393	-0.071789
1093	5.4600e-01	-3.6464	-25.112088	0.001010	10.096144	3.420666	-0.080662
1094	5.4650e-01	-3.6785	-25.426670	0.000787	7.874992	2.668120	-0.062916
1095	5.4700e-01	-3.7266	-25.672689	0.000616	6.158648	2.086606	-0.049204
1096	5.4750e-01	-3.7603	-25.995337	0.000808	8.076915	2.736533	-0.064530
1097	5.4800e-01	-3.8149	-26.293786	0.000747	7.471146	2.531293	-0.059690
1098	5.4850e-01	-3.8502	-26.628534	0.000838	8.379799	2.839153	-0.066949
1099	5.4900e-01	-3.8774	-26.862453	0.000586	5.855763	1.983986	-0.046784
1100	5.4950e-01	-3.9304	-27.108472	0.000616	6.158648	2.086606	-0.049204
1101	5.5000e-01	-3.9609	-27.604543	0.001242	12.418257	4.207419	-0.099214
1102	5.5050e-01	-4.0090	-27.802165	0.000495	4.947110	1.676126	-0.039524
1103	5.5100e-01	-4.0346	-28.177243	0.000939	9.389414	3.181219	-0.075016
1104	5.5150e-01	-4.0748	-28.407130	0.000575	5.754802	1.949780	-0.045977
1105	5.5200e-01	-4.1213	-28.661215	0.000636	6.360571	2.155020	-0.050817
1106	5.5250e-01	-4.1614	-28.971764	0.000777	7.774031	2.633913	-0.062110
1107	5.5300e-01	-4.2063	-29.334743	0.000909	9.086529	3.078600	-0.072596
1108	5.5350e-01	-4.2432	-29.725953	0.000979	9.793259	3.318046	-0.078242
1109	5.5400e-01	-4.2801	-29.895343	0.000424	4.240380	1.436680	-0.033878
1110	5.5450e-01	-4.3218	-30.201859	0.000767	7.673069	2.599706	-0.061303
1111	5.5500e-01	-4.3603	-30.593069	0.000979	9.793259	3.318046	-0.078242
1112	5.5550e-01	-4.4068	-30.980247	0.000969	9.692298	3.283839	-0.077435
1113	5.5600e-01	-4.4501	-31.310961	0.000828	8.278838	2.804946	-0.066143
1114	5.5650e-01	-4.4838	-31.456153	0.000363	3.634612	1.231440	-0.029038
1115	5.5700e-01	-4.5287	-31.698138	0.000606	6.057686	2.052400	-0.048397
1116	5.5750e-01	-4.5673	-32.057084	0.000899	8.985568	3.044393	-0.071789
1117	5.5800e-01	-4.6041	-32.480560	0.001060	10.600951	3.591699	-0.084695
1118	5.5850e-01	-4.6475	-32.770943	0.000727	7.269224	2.462880	-0.058077
1119	5.5900e-01	-4.6812	-33.037127	0.000666	6.663455	2.257640	-0.053237
1120	5.5950e-01	-4.7164	-33.271047	0.000586	5.855763	1.983986	-0.046784
1121	5.6000e-01	-4.7646	-33.617893	0.000868	8.682684	2.941773	-0.069369
1122	5.6050e-01	-4.8015	-33.900210	0.000707	7.067301	2.394466	-0.056463
1123	5.6100e-01	-4.8400	-34.101865	0.000505	5.048072	1.710333	-0.040331
1124	5.6150e-01	-4.8833	-34.251090	0.000374	3.735573	1.265646	-0.029845
1125	5.6200e-01	-4.9234	-34.739095	0.001222	12.216334	4.139006	-0.097601
1126	5.6250e-01	-4.9667	-34.936717	0.000495	4.947110	1.676126	-0.039524
1127	5.6300e-01	-5.0068	-35.029478	0.000232	2.322113	0.786753	-0.018552
1128	5.6350e-01	-5.0389	-35.477152	0.001121	11.206720	3.796939	-0.089535
1129	5.6400e-01	-5.0854	-35.832065	0.000888	8.884607	3.010186	-0.070983
1130	5.6450e-01	-5.1303	-35.973223	0.000353	3.533650	1.197233	-0.028232
1131	5.6500e-01	-5.1656	-36.432996	0.001151	11.509604	3.899559	-0.091955
1132	5.6550e-01	-5.2041	-36.473327	0.000101	1.009614	0.342067	-0.008066
1133	5.6600e-01	-5.2523	-36.771777	0.000747	7.471146	2.531293	-0.059690
1134	5.6650e-01	-5.2827	-37.215417	0.001111	11.105758	3.762733	-0.088728
1135	5.6700e-01	-5.3261	-37.622760	0.001020	10.197105	3.454873	-0.081469
1136	5.6750e-01	-5.3630	-37.751819	0.000323	3.230766	1.094613	-0.025812
1137	5.6800e-01	-5.4015	-38.215626	0.001161	11.610565	3.933766	-0.092761
1138	5.6850e-01	-5.4383	-38.348718	0.000333	3.331727	1.128820	-0.026618
1139	5.6900e-01	-5.4736	-38.711697	0.000909	9.086529	3.078600	-0.072596
1140	5.6950e-01	-5.5266	-38.917385	0.000515	5.149033	1.744540	-0.041138
1141	5.7000e-01	-5.5667	-38.969815	0.000131	1.312499	0.444687	-0.010486
1142	5.7050e-01	-5.6084	-39.320695	0.000878	8.783645	2.975980	-0.070176
1143	5.7100e-01	-5.6549	-39.703839	0.000959	9.591337	3.249633	-0.076629
1144	5.7150e-01	-5.6774	-40.216043	0.001282	12.822103	4.344246	-0.102441
1145	5.7200e-01	-5.7223	-40.421731	0.000515	5.149033	1.744540	-0.041138
1146	5.7250e-01	-5.7608	-40.449962	0.000071	0.706730	0.239447	-0.005646
1147	5.7300e-01	-5.8089	-40.780677	0.000828	8.278838	2.804946	-0.066143
1148	5.7350e-01	-5.8442	-41.373542	0.001484	14.841331	5.028379	-0.118573
1149	5.7400e-01	-5.8859	-41.514700	0.000353	3.533650	1.197233	-0.028232
1150	5.7450e-01	-5.9180	-41.692157	0.000444	4.442303	1.505093	-0.035491
1151	5.7500e-01	-5.9661	-42.135798	0.001111	11.105758	3.762733	-0.088728
1152	5.7550e-01	-6.0159	-42.309221	0.000434	4.341342	1.470886	-0.034685
1153	5.7600e-01	-6.0415	-42.543141	0.000586	5.855763	1.983986	-0.046784
1154	5.7650e-01	-6.0913	-42.801259	0.000646	6.461532	2.189226	-0.051624
1155	5.7700e-01	-6.1153	-43.164238	0.000909	9.086529	3.078600	-0.072596
1156	5.7750e-01	-6.1619	-43.430422	0.000666	6.663455	2.257640	-0.053237
1157	5.7800e-01	-6.2004	-43.486886	0.000141	1.413460	0.478893	-0.011293
1158	5.7850e-01	-6.2501	-43.825666	0.000848	8.480761	2.873360	-0.067756
1159	5.7900e-01	-6.2870	-44.023288	0.000495	4.947110	1.676126	-0.039524
1160	5.7950e-01	-6.3239	-44.313671	0.000727	7.269224	2.462880	-0.058077
1161	5.8000e-01	-6.3736	-44.499193	0.000464	4.644226	1.573506	-0.037105
1162	5.8050e-01	-6.4025	-44.906536	0.001020	10.197105	3.454873	-0.081469
1163	5.8100e-01	-6.4378	-45.479236	0.001434	14.336524	4.857346	-0.114540
1164	5.8150e-01	-6.4843	-45.422773	-0.000141	-1.413460	-0.478893	0.011293
1165	5.8200e-01	-6.5132	-45.850281	0.001070	10.701912	3.625906	-0.085502
1166	5.8250e-01	-6.5629	-45.955142	0.000262	2.624997	0.889373	-0.020972
1167	5.8300e-01	-6.5998	-46.205194	0.000626	6.259609	2.120813	-0.050010
1168	5.8350e-01	-6.6495	-46.535908	0.000828	8.278838	2.804946	-0.066143
1169	5.8400e-01	-6.6848	-46.548008	0.000030	0.302884	0.102620	-0.002420
1170	5.8450e-01	-6.7169	-46.995681	0.001121	11.206720	3.796939	-0.089535
1171	5.8500e-01	-6.7634	-47.415124	0.001050	10.499990	3.557493	-0.083888
1172	5.8550e-01	-6.8052	-47.709540	0.000737	7.370185	2.497086	-0.058883
1173	5.8600e-01	-6.8372	-47.931360	0.000555	5.552879	1.881366	-0.044364
1174	5.8650e-01	-6.8870	-48.133015	0.000505	5.048072	1.710333	-0.040331
1175	5.8700e-01	-6.9223	-48.379034	0.000616	6.158648	2.086606	-0.049204
1176	5.8750e-01	-6.9624	-48.487928	0.000273	2.725959	0.923580	-0.021779
1177	5.8800e-01	-7.0041	-48.697649	0.000525	5.249995	1.778746	-0.041944
1178	5.8850e-01	-7.0522	-49.016264	0.000798	7.975954	2.702326	-0.063723
1179	5.8900e-01	-7.0811	-49.330846	0.000787	7.874992	2.668120	-0.062916
1180	5.8950e-01	-7.1260	-49.701891	0.000929	9.288452	3.147013	-0.074209
1181	5.9000e-01	-7.1645	-49.693824	-0.000020	-0.201923	-0.068413	0.001613
1182	5.9050e-01	-7.2030	-50.197962	0.001262	12.620180	4.275833	-0.100827
1183	5.9100e-01	-7.2399	-50.472212	0.000687	6.865378	2.326053	-0.054850
1184	5.9150e-01	-7.2784	-50.681934	0.000525	5.249995	1.778746	-0.041944
1185	5.9200e-01	-7.3265	-50.915853	0.000586	5.855763	1.983986	-0.046784
1186	5.9250e-01	-7.3634	-51.298998	0.000959	9.591337	3.249633	-0.076629
1187	5.9300e-01	-7.4003	-51.577281	0.000697	6.966339	2.360260	-0.055657
1188	5.9350e-01	-7.4436	-51.754738	0.000444	4.442303	1.505093	-0.035491
1189	5.9400e-01	-7.4837	-51.980591	0.000565	5.653841	1.915573	-0.045171
1190	5.9450e-01	-7.5255	-52.335504	0.000888	8.884607	3.010186	-0.070983
1191	5.9500e-01	-7.5624	-52.621854	0.000717	7.168262	2.428673	-0.057270
1192	5.9550e-01	-7.5944	-52.787211	0.000414	4.139419	1.402473	-0.033071
1193	5.9600e-01	-7.6426	-52.956601	0.000424	4.240380	1.436680	-0.033878
1194	5.9650e-01	-7.6779	-53.242951	0.000717	7.168262	2.428673	-0.057270
1195	5.9700e-01	-7.7180	-53.553500	0.000777	7.774031	2.633913	-0.062110
1196	5.9750e-01	-7.7613	-53.638195	0.000212	2.120190	0.718340	-0.016939
1197	5.9800e-01	-7.8030	-53.928578	0.000727	7.269224	2.462880	-0.058077
1198	5.9850e-01	-7.8383	-54.106034	0.000444	4.442303	1.505093	-0.035491
1199	5.9900e-01	-7.8816	-54.602105	0.001242	12.418257	4.207419	-0.099214
1200	5.9950e-01	-7.9217	-54.920720	0.000798	7.975954	2.702326	-0.063723
1201	6.0000e-01	-7.9650	-55.009448	0.000222	2.221152	0.752547	-0.017746
1202	6.0050e-01	-8.0003	-55.356295	0.000868	8.682684	2.941773	-0.069369
1203	6.0100e-01	-8.0532	-55.707174	0.000878	8.783645	2.975980	-0.070176
1204	6.0150e-01	-8.0837	-55.888664	0.000454	4.543265	1.539300	-0.036298
1205	6.0200e-01	-8.1254	-55.989491	0.000252	2.524036	0.855167	-0.020165
1206	6.0250e-01	-8.1671	-56.344404	0.000888	8.884607	3.010186	-0.070983
1207	6.0300e-01	-8.1976	-56.594456	0.000626	6.259609	2.120813	-0.050010
1208	6.0350e-01	-8.2425	-56.844508	0.000626	6.259609	2.120813	-0.050010
1209	6.0400e-01	-8.2827	-56.913071	0.000172	1.716344	0.581513	-0.013713
1210	6.0450e-01	-8.3179	-57.223620	0.000777	7.774031	2.633913	-0.062110
1211	6.0500e-01	-8.3677	-57.659194	0.001090	10.903835	3.694319	-0.087115
1212	6.0550e-01	-8.4046	-57.941511	0.000707	7.067301	2.394466	-0.056463
1213	6.0600e-01	-8.4463	-58.147199	0.000515	5.149033	1.744540	-0.041138
1214	6.0650e-01	-8.4832	-58.364986	0.000545	5.451918	1.847160	-0.043557
1215	6.0700e-01	-8.5201	-58.594873	0.000575	5.754802	1.949780	-0.045977
1216	6.0750e-01	-8.5618	-58.897355	0.000757	7.572108	2.565500	-0.060496
1217	6.0800e-01	-8.6035	-59.070779	0.000434	4.341342	1.470886	-0.034685
1218	6.0850e-01	-8.6436	-59.244202	0.000434	4.341342	1.470886	-0.034685
1219	6.0900e-01	-8.6773	-59.663644	0.001050	10.499990	3.557493	-0.083888
1220	6.0950e-01	-8.7238	-59.772538	0.000273	2.725959	0.923580	-0.021779
1221	6.1000e-01	-8.7639	-60.006458	0.000586	5.855763	1.983986	-0.046784
1222	6.1050e-01	-8.7992	-60.163748	0.000394	3.937496	1.334060	-0.031458
1223	6.1100e-01	-8.8506	-60.405734	0.000606	6.057686	2.052400	-0.048397
1224	6.1150e-01	-8.8858	-60.736448	0.000828	8.278838	2.804946	-0.066143
1225	6.1200e-01	-8.9260	-61.155891	0.001050	10.499990	3.557493	-0.083888
1226	6.1250e-01	-8.9596	-61.276884	0.000303	3.028843	1.026200	-0.024199
1227	6.1300e-01	-9.0094	-61.559201	0.000707	7.067301	2.394466	-0.056463
1228	6.1350e-01	-9.0415	-61.829418	0.000676	6.764416	2.291846	-0.054044
1229	6.1400e-01	-9.0800	-62.031073	0.000505	5.048072	1.710333	-0.040331
1230	6.1450e-01	-9.1297	-62.123834	0.000232	2.322113	0.786753	-0.018552
1231	6.1500e-01	-9.1682	-62.426317	0.000757	7.572108	2.565500	-0.060496
1232	6.1550e-01	-9.2019	-62.873991	0.001121	11.206720	3.796939	-0.089535
1233	6.1600e-01	-9.2452	-63.011116	0.000343	3.432689	1.163026	-0.027425
1234	6.1650e-01	-9.2789	-63.446691	0.001090	10.903835	3.694319	-0.087115
1235	6.1700e-01	-9.3190	-63.515253	0.000172	1.716344	0.581513	-0.013713
1236	6.1750e-01	-9.3639	-63.608015	0.000232	2.322113	0.786753	-0.018552
1237	6.1800e-01	-9.4056	-63.676577	0.000172	1.716344	0.581513	-0.013713
1238	6.1850e-01	-9.4425	-63.954861	0.000697	6.966339	2.360260	-0.055657
1239	6.1900e-01	-9.4810	-64.406568	0.001131	11.307681	3.831146	-0.090341
1240	6.1950e-01	-9.5163	-64.487230	0.000202	2.019229	0.684133	-0.016132
1241	6.2000e-01	-9.5564	-64.854242	0.000919	9.187491	3.112806	-0.073402
1242	6.2050e-01	-9.6045	-65.257552	0.001010	10.096144	3.420666	-0.080662
1243	6.2100e-01	-9.6463	-65.640696	0.000959	9.591337	3.249633	-0.076629
1244	6.2150e-01	-9.6912	-65.568101	-0.000182	-1.817306	-0.615720	0.014519
1245	6.2200e-01	-9.7233	-65.797987	0.000575	5.754802	1.949780	-0.045977
1246	6.2250e-01	-9.7650	-66.011741	0.000535	5.350956	1.812953	-0.042751
1247	6.2300e-01	-9.8051	-66.253727	0.000606	6.057686	2.052400	-0.048397
1248	6.2350e-01	-9.8452	-66.415051	0.000404	4.038458	1.368266	-0.032265
1249	6.2400e-01	-9.8789	-66.628805	0.000535	5.350956	1.812953	-0.042751
1250	6.2450e-01	-9.9222	-67.064380	0.001090	10.903835	3.694319	-0.087115
1251	6.2500e-01	-9.9687	-67.334598	0.000676	6.764416	2.291846	-0.054044
1252	6.2550e-01	-9.9912	-67.382995	0.000121	1.211537	0.410480	-0.009679
1253	6.2600e-01	-10.0409	-67.713709	0.000828	8.278838	2.804946	-0.066143
1254	6.2650e-01	-10.0794	-68.141217	0.001070	10.701912	3.625906	-0.085502
1255	6.2700e-01	-10.1211	-68.290442	0.000374	3.735573	1.265646	-0.029845
1256	6.2750e-01	-10.1580	-68.584858	0.000737	7.370185	2.497086	-0.058883
1257	6.2800e-01	-10.2077	-68.742149	0.000394	3.937496	1.334060	-0.031458
1258	6.2850e-01	-10.2366	-68.705851	-0.000091	-0.908653	-0.307860	0.007260
1259	6.2900e-01	-10.2815	-69.105128	0.001000	9.995182	3.386459	-0.079855
1260	6.2950e-01	-10.3120	-69.480206	0.000939	9.389414	3.181219	-0.075016
1261	6.3000e-01	-10.3617	-69.839152	0.000899	8.985568	3.044393	-0.071789
1262	6.3050e-01	-10.4083	-69.875450	0.000091	0.908653	0.307860	-0.007260
1263	6.3100e-01	-10.4484	-70.210197	0.000838	8.379799	2.839153	-0.066949
1264	6.3150e-01	-10.4788	-70.383620	0.000434	4.341342	1.470886	-0.034685
1265	6.3200e-01	-10.5206	-70.633672	0.000626	6.259609	2.120813	-0.050010
1266	6.3250e-01	-10.5655	-70.762732	0.000323	3.230766	1.094613	-0.025812
1267	6.3300e-01	-10.6072	-70.867592	0.000262	2.624997	0.889373	-0.020972
1268	6.3350e-01	-10.6425	-71.170074	0.000757	7.572108	2.565500	-0.060496
1269	6.3400e-01	-10.6858	-71.355597	0.000464	4.644226	1.573506	-0.037105
1270	6.3450e-01	-10.7243	-71.585484	0.000575	5.754802	1.949780	-0.045977
1271	6.3500e-01	-10.7692	-71.976694	0.000979	9.793259	3.318046	-0.078242
1272	6.3550e-01	-10.8045	-72.154151	0.000444	4.442303	1.505093	-0.035491
1273	6.3600e-01	-10.8430	-72.279177	0.000313	3.129805	1.060406	-0.025005
1274	6.3650e-01	-10.8799	-72.468732	0.000475	4.745188	1.607713	-0.037911
1275	6.3700e-01	-10.9152	-72.835744	0.000919	9.187491	3.112806	-0.073402
1276	6.3750e-01	-10.9617	-73.105962	0.000676	6.764416	2.291846	-0.054044
1277	6.3800e-01	-11.0066	-73.335848	0.000575	5.754802	1.949780	-0.045977
1278	6.3850e-01	-11.0435	-73.307617	-0.000071	-0.706730	-0.239447	0.005646
1279	6.3900e-01	-11.0772	-73.799655	0.001232	12.317295	4.173213	-0.098408
1280	6.3950e-01	-11.1205	-73.924681	0.000313	3.129805	1.060406	-0.025005
1281	6.4000e-01	-11.1703	-74.013409	0.000222	2.221152	0.752547	-0.017746
1282	6.4050e-01	-11.2040	-74.315891	0.000757	7.572108	2.565500	-0.060496
1283	6.4100e-01	-11.2409	-74.747433	0.001080	10.802874	3.660113	-0.086308
1284	6.4150e-01	-11.2729	-74.896658	0.000374	3.735573	1.265646	-0.029845
1285	6.4200e-01	-11.3243	-75.082180	0.000464	4.644226	1.573506	-0.037105
1286	6.4250e-01	-11.3676	-75.380629	0.000747	7.471146	2.531293	-0.059690
1287	6.4300e-01	-11.4141	-75.505655	0.000313	3.129805	1.060406	-0.025005
1288	6.4350e-01	-11.4526	-75.804105	0.000747	7.471146	2.531293	-0.059690
1289	6.4400e-01	-11.4863	-76.118686	0.000787	7.874992	2.668120	-0.062916
1290	6.4450e-01	-11.5264	-76.312275	0.000485	4.846149	1.641920	-0.038718
1291	6.4500e-01	-11.5633	-76.562327	0.000626	6.259609	2.120813	-0.050010
1292	6.4550e-01	-11.6018	-76.747850	0.000464	4.644226	1.573506	-0.037105
1293	6.4600e-01	-11.6435	-76.929339	0.000454	4.543265	1.539300	-0.036298
1294	6.4650e-01	-11.6836	-77.098729	0.000424	4.240380	1.436680	-0.033878
1295	6.4700e-01	-11.7237	-77.324583	0.000565	5.653841	1.915573	-0.045171
1296	6.4750e-01	-11.7590	-77.441543	0.000293	2.927882	0.991993	-0.023392
1297	6.4800e-01	-11.8088	-77.812588	0.000929	9.288452	3.147013	-0.074209
1298	6.4850e-01	-11.8424	-78.094905	0.000707	7.067301	2.394466	-0.056463
1299	6.4900e-01	-11.8793	-78.377222	0.000707	7.067301	2.394466	-0.056463
1300	6.4950e-01	-11.9227	-78.578877	0.000505	5.048072	1.710333	-0.040331
1301	6.5000e-01	-11.9708	-78.659539	0.000202	2.019229	0.684133	-0.016132
1302	6.5050e-01	-12.0061	-78.728101	0.000172	1.716344	0.581513	-0.013713
1303	6.5100e-01	-12.0446	-79.155610	0.001070	10.701912	3.625906	-0.085502
1304	6.5150e-01	-12.0879	-79.333066	0.000444	4.442303	1.505093	-0.035491
1305	6.5200e-01	-12.1280	-79.546820	0.000535	5.350956	1.812953	-0.042751
1306	6.5250e-01	-12.1633	-79.841236	0.000737	7.370185	2.497086	-0.058883
1307	6.5300e-01	-12.2002	-80.345374	0.001262	12.620180	4.275833	-0.100827
1308	6.5350e-01	-12.2499	-80.361506	0.000040	0.403846	0.136827	-0.003226
1309	6.5400e-01	-12.2708	-80.538963	0.000444	4.442303	1.505093	-0.035491
1310	6.5450e-01	-12.3141	-80.780948	0.000606	6.057686	2.052400	-0.048397
1311	6.5500e-01	-12.3590	-81.083431	0.000757	7.572108	2.565500	-0.060496
1312	6.5550e-01	-12.3911	-81.264920	0.000454	4.543265	1.539300	-0.036298
1313	6.5600e-01	-12.4408	-81.539171	0.000687	6.865378	2.326053	-0.054850
1314	6.5650e-01	-12.4713	-81.571436	0.000081	0.807692	0.273653	-0.006453
1315	6.5700e-01	-12.5242	-81.720660	0.000374	3.735573	1.265646	-0.029845
1316	6.5750e-01	-12.5644	-82.023143	0.000757	7.572108	2.565500	-0.060496
1317	6.5800e-01	-12.6077	-82.349824	0.000818	8.177876	2.770740	-0.065336
1318	6.5850e-01	-12.6398	-82.402254	0.000131	1.312499	0.444687	-0.010486
1319	6.5900e-01	-12.6927	-82.684571	0.000707	7.067301	2.394466	-0.056463
1320	6.5950e-01	-12.7264	-82.898325	0.000535	5.350956	1.812953	-0.042751
1321	6.6000e-01	-12.7585	-83.216940	0.000798	7.975954	2.702326	-0.063723
1322	6.6050e-01	-12.8082	-83.370198	0.000384	3.836535	1.299853	-0.030652
1323	6.6100e-01	-12.8387	-83.684779	0.000787	7.874992	2.668120	-0.062916
1324	6.6150e-01	-12.8852	-84.144553	0.001151	11.509604	3.899559	-0.091955
1325	6.6200e-01	-12.9381	-84.067924	-0.000192	-1.918267	-0.649927	0.015326
1326	6.6250e-01	-12.9574	-84.350241	0.000707	7.067301	2.394466	-0.056463
1327	6.6300e-01	-13.0007	-84.447035	0.000242	2.423075	0.820960	-0.019359
1328	6.6350e-01	-13.0456	-84.559962	0.000283	2.826920	0.957787	-0.022585
1329	6.6400e-01	-13.0873	-84.785815	0.000565	5.653841	1.915573	-0.045171
1330	6.6450e-01	-13.1194	-85.152827	0.000919	9.187491	3.112806	-0.073402
1331	6.6500e-01	-13.1627	-85.475475	0.000808	8.076915	2.736533	-0.064530
1332	6.6550e-01	-13.2028	-85.592435	0.000293	2.927882	0.991993	-0.023392
1333	6.6600e-01	-13.2429	-85.838454	0.000616	6.158648	2.086606	-0.049204
1334	6.6650e-01	-13.2847	-85.882818	0.000111	1.110576	0.376273	-0.008873
1335	6.6700e-01	-13.3215	-86.233698	0.000878	8.783645	2.975980	-0.070176
1336	6.6750e-01	-13.3681	-86.395022	0.000404	4.038458	1.368266	-0.032265
1337	6.6800e-01	-13.4082	-86.645074	0.000626	6.259609	2.120813	-0.050010
1338	6.6850e-01	-13.4419	-86.927391	0.000707	7.067301	2.394466	-0.056463
1339	6.6900e-01	-13.4788	-86.991920	0.000162	1.615383	0.547307	-0.012906
1340	6.6950e-01	-13.5221	-87.314568	0.000808	8.076915	2.736533	-0.064530
1341	6.7000e-01	-13.5590	-87.604951	0.000727	7.269224	2.462880	-0.058077
1342	6.7050e-01	-13.5991	-87.725944	0.000303	3.028843	1.026200	-0.024199
1343	6.7100e-01	-13.6376	-87.943732	0.000545	5.451918	1.847160	-0.043557
1344	6.7150e-01	-13.6857	-88.145387	0.000505	5.048072	1.710333	-0.040331
1345	6.7200e-01	-13.7306	-88.387372	0.000606	6.057686	2.052400	-0.048397
1346	6.7250e-01	-13.7707	-88.609193	0.000555	5.552879	1.881366	-0.044364
1347	6.7300e-01	-13.8076	-88.766484	0.000394	3.937496	1.334060	-0.031458
1348	6.7350e-01	-13.8413	-89.169794	0.001010	10.096144	3.420666	-0.080662
1349	6.7400e-01	-13.8782	-89.343217	0.000434	4.341342	1.470886	-0.034685
1350	6.7450e-01	-13.9215	-89.415813	0.000182	1.817306	0.615720	-0.014519
1351	6.7500e-01	-13.9665	-89.706196	0.000727	7.269224	2.462880	-0.058077
1352	6.7550e-01	-14.0050	-89.956248	0.000626	6.259609	2.120813	-0.050010
1353	6.7600e-01	-14.0402	-90.117572	0.000404	4.038458	1.368266	-0.032265
1354	6.7650e-01	-14.0804	-90.537014	0.001050	10.499990	3.557493	-0.083888
1355	6.7700e-01	-14.1189	-90.690272	0.000384	3.836535	1.299853	-0.030652
1356	6.7750e-01	-14.1670	-90.980655	0.000727	7.269224	2.462880	-0.058077
1357	6.7800e-01	-14.2039	-91.146012	0.000414	4.139419	1.402473	-0.033071
1358	6.7850e-01	-14.2536	-91.262972	0.000293	2.927882	0.991993	-0.023392
1359	6.7900e-01	-14.2809	-91.541256	0.000697	6.966339	2.360260	-0.055657
1360	6.7950e-01	-14.3258	-91.521090	-0.000050	-0.504807	-0.171033	0.004033
1361	6.8000e-01	-14.3643	-91.900201	0.000949	9.490375	3.215426	-0.075822
1362	6.8050e-01	-14.4028	-92.069591	0.000424	4.240380	1.436680	-0.033878
1363	6.8100e-01	-14.4413	-92.315610	0.000616	6.158648	2.086606	-0.049204
1364	6.8150e-01	-14.4830	-92.476934	0.000404	4.038458	1.368266	-0.032265
1365	6.8200e-01	-14.5295	-92.827814	0.000878	8.783645	2.975980	-0.070176
1366	6.8250e-01	-14.5712	-93.118197	0.000727	7.269224	2.462880	-0.058077
1367	6.8300e-01	-14.6033	-93.307753	0.000475	4.745188	1.607713	-0.037911
1368	6.8350e-01	-14.6482	-93.424713	0.000293	2.927882	0.991993	-0.023392
1369	6.8400e-01	-14.6868	-93.594103	0.000424	4.240380	1.436680	-0.033878
1370	6.8450e-01	-14.7269	-93.953048	0.000899	8.985568	3.044393	-0.071789
1371	6.8500e-01	-14.7718	-94.078075	0.000313	3.129805	1.060406	-0.025005
1372	6.8550e-01	-14.7926	-94.489451	0.001030	10.298067	3.489079	-0.082275
1373	6.8600e-01	-14.8424	-94.662874	0.000434	4.341342	1.470886	-0.034685
1374	6.8650e-01	-14.8825	-94.808065	0.000363	3.634612	1.231440	-0.029038
1375	6.8700e-01	-14.9258	-94.949224	0.000353	3.533650	1.197233	-0.028232
1376	6.8750e-01	-14.9595	-95.021820	0.000182	1.817306	0.615720	-0.014519
1377	6.8800e-01	-15.0076	-95.308170	0.000717	7.168262	2.428673	-0.057270
1378	6.8850e-01	-15.0445	-95.618718	0.000777	7.774031	2.633913	-0.062110
1379	6.8900e-01	-15.0766	-96.054293	0.001090	10.903835	3.694319	-0.087115
1380	6.8950e-01	-15.1311	-96.195451	0.000353	3.533650	1.197233	-0.028232
1381	6.9000e-01	-15.1600	-96.304345	0.000273	2.725959	0.923580	-0.021779
1382	6.9050e-01	-15.2033	-96.433404	0.000323	3.230766	1.094613	-0.025812
1383	6.9100e-01	-15.2386	-96.715721	0.000707	7.067301	2.394466	-0.056463
1384	6.9150e-01	-15.2803	-96.917376	0.000505	5.048072	1.710333	-0.040331
1385	6.9200e-01	-15.3252	-97.074667	0.000394	3.937496	1.334060	-0.031458
1386	6.9250e-01	-15.3621	-97.482010	0.001020	10.197105	3.454873	-0.081469
1387	6.9300e-01	-15.4071	-97.699797	0.000545	5.451918	1.847160	-0.043557
1388	6.9350e-01	-15.4359	-97.776426	0.000192	1.918267	0.649927	-0.015326
1389	6.9400e-01	-15.4905	-98.074875	0.000747	7.471146	2.531293	-0.059690
1390	6.9450e-01	-15.5226	-98.328960	0.000636	6.360571	2.155020	-0.050817
1391	6.9500e-01	-15.5691	-98.615310	0.000717	7.168262	2.428673	-0.057270
1392	6.9550e-01	-15.6124	-98.752436	0.000343	3.432689	1.163026	-0.027425
1393	6.9600e-01	-15.6429	-99.103315	0.000878	8.783645	2.975980	-0.070176
1394	6.9650e-01	-15.6910	-99.183977	0.000202	2.019229	0.684133	-0.016132
1395	6.9700e-01	-15.7295	-99.450162	0.000666	6.663455	2.257640	-0.053237
1396	6.9750e-01	-15.7616	-99.667949	0.000545	5.451918	1.847160	-0.043557
1397	6.9800e-01	-15.8113	-99.893803	0.000565	5.653841	1.915573	-0.045171
1398	6.9850e-01	-15.8482	-100.103524	0.000525	5.249995	1.778746	-0.041944
1399	6.9900e-01	-15.8787	-100.341477	0.000596	5.956725	2.018193	-0.047591
1400	6.9950e-01	-15.9204	-100.385841	0.000111	1.110576	0.376273	-0.008873
1401	7.0000e-01	-15.9717	-100.680257	0.000737	7.370185	2.497086	-0.058883
1402	7.0050e-01	-16.0102	-100.906110	0.000565	5.653841	1.915573	-0.045171
1403	7.0100e-01	-16.0375	-101.055335	0.000374	3.735573	1.265646	-0.029845
1404	7.0150e-01	-16.0872	-101.244891	0.000475	4.745188	1.607713	-0.037911
1405	7.0200e-01	-16.1274	-101.531241	0.000717	7.168262	2.428673	-0.057270
1406	7.0250e-01	-16.1626	-101.809525	0.000697	6.966339	2.360260	-0.055657
1407	7.0300e-01	-16.2076	-102.007146	0.000495	4.947110	1.676126	-0.039524
1408	7.0350e-01	-16.2429	-102.370125	0.000909	9.086529	3.078600	-0.072596
1409	7.0400e-01	-16.2846	-102.527416	0.000394	3.937496	1.334060	-0.031458
1410	7.0450e-01	-16.3263	-102.587913	0.000151	1.514422	0.513100	-0.012099
1411	7.0500e-01	-16.3616	-102.958958	0.000929	9.288452	3.147013	-0.074209
1412	7.0550e-01	-16.4065	-103.313870	0.000888	8.884607	3.010186	-0.070983
1413	7.0600e-01	-16.4482	-103.459062	0.000363	3.634612	1.231440	-0.029038
1414	7.0650e-01	-16.4803	-103.789776	0.000828	8.278838	2.804946	-0.066143
1415	7.0700e-01	-16.5188	-103.902703	0.000283	2.826920	0.957787	-0.022585
1416	7.0750e-01	-16.5541	-103.971265	0.000172	1.716344	0.581513	-0.013713
1417	7.0800e-01	-16.5958	-104.168887	0.000495	4.947110	1.676126	-0.039524
1418	7.0850e-01	-16.6439	-104.269715	0.000252	2.524036	0.855167	-0.020165
1419	7.0900e-01	-16.6904	-104.834349	0.001413	14.134601	4.788933	-0.112927
1420	7.0950e-01	-16.7273	-105.108599	0.000687	6.865378	2.326053	-0.054850
1421	7.1000e-01	-16.7674	-105.237658	0.000323	3.230766	1.094613	-0.025812
1422	7.1050e-01	-16.8027	-105.411082	0.000434	4.341342	1.470886	-0.034685
1423	7.1100e-01	-16.8428	-105.689365	0.000697	6.966339	2.360260	-0.055657
1424	7.1150e-01	-16.8846	-105.951517	0.000656	6.562493	2.223433	-0.052430
1425	7.1200e-01	-16.9279	-105.927318	-0.000061	-0.605769	-0.205240	0.004840
1426	7.1250e-01	-16.9616	-106.483886	0.001393	13.932678	4.720519	-0.111314
1427	7.1300e-01	-17.0049	-106.612945	0.000323	3.230766	1.094613	-0.025812
1428	7.1350e-01	-17.0434	-106.754103	0.000353	3.533650	1.197233	-0.028232
1429	7.1400e-01	-17.0899	-107.225976	0.001181	11.812488	4.002179	-0.094375
1430	7.1450e-01	-17.1300	-107.254208	0.000071	0.706730	0.239447	-0.005646
1431	7.1500e-01	-17.1733	-107.484094	0.000575	5.754802	1.949780	-0.045977
1432	7.1550e-01	-17.1974	-107.673650	0.000475	4.745188	1.607713	-0.037911
1433	7.1600e-01	-17.2375	-107.960000	0.000717	7.168262	2.428673	-0.057270
1434	7.1650e-01	-17.2888	-108.064860	0.000262	2.624997	0.889373	-0.020972
1435	7.1700e-01	-17.3273	-108.460104	0.000989	9.894221	3.352253	-0.079049
1436	7.1750e-01	-17.3626	-108.694024	0.000586	5.855763	1.983986	-0.046784
1437	7.1800e-01	-17.4011	-108.863414	0.000424	4.240380	1.436680	-0.033878
1438	7.1850e-01	-17.4428	-109.133632	0.000676	6.764416	2.291846	-0.054044
1439	7.1900e-01	-17.4781	-109.569206	0.001090	10.903835	3.694319	-0.087115
1440	7.1950e-01	-17.5343	-109.738596	0.000424	4.240380	1.436680	-0.033878
1441	7.2000e-01	-17.5647	-110.004781	0.000666	6.663455	2.257640	-0.053237
1442	7.2050e-01	-17.6081	-110.166105	0.000404	4.038458	1.368266	-0.032265
1443	7.2100e-01	-17.6514	-110.395991	0.000575	5.754802	1.949780	-0.045977
1444	7.2150e-01	-17.6802	-110.605713	0.000525	5.249995	1.778746	-0.041944
1445	7.2200e-01	-17.7300	-110.726706	0.000303	3.028843	1.026200	-0.024199
1446	7.2250e-01	-17.7701	-111.077585	0.000878	8.783645	2.975980	-0.070176
1447	7.2300e-01	-17.8086	-111.367968	0.000727	7.269224	2.462880	-0.058077
1448	7.2350e-01	-17.8423	-111.517193	0.000374	3.735573	1.265646	-0.029845
1449	7.2400e-01	-17.8808	-111.743046	0.000565	5.653841	1.915573	-0.045171
1450	7.2450e-01	-17.9177	-112.065694	0.000808	8.076915	2.736533	-0.064530
1451	7.2500e-01	-17.9642	-112.227018	0.000404	4.038458	1.368266	-0.032265
1452	7.2550e-01	-18.0155	-112.477070	0.000626	6.259609	2.120813	-0.050010
1453	7.2600e-01	-18.0476	-112.723089	0.000616	6.158648	2.086606	-0.049204
1454	7.2650e-01	-18.0893	-113.061870	0.000848	8.480761	2.873360	-0.067756
1455	7.2700e-01	-18.1198	-113.372418	0.000777	7.774031	2.633913	-0.062110
1456	7.2750e-01	-18.1679	-113.582139	0.000525	5.249995	1.778746	-0.041944
1457	7.2800e-01	-18.2064	-113.618437	0.000091	0.908653	0.307860	-0.007260
1458	7.2850e-01	-18.2562	-113.896721	0.000697	6.966339	2.360260	-0.055657
1459	7.2900e-01	-18.2818	-114.352461	0.001141	11.408642	3.865353	-0.091148
1460	7.2950e-01	-18.3284	-114.473454	0.000303	3.028843	1.026200	-0.024199
1461	7.3000e-01	-18.3685	-114.570249	0.000242	2.423075	0.820960	-0.019359
1462	7.3050e-01	-18.4070	-114.949360	0.000949	9.490375	3.215426	-0.075822
1463	7.3100e-01	-18.4471	-115.259908	0.000777	7.774031	2.633913	-0.062110
1464	7.3150e-01	-18.4792	-115.558358	0.000747	7.471146	2.531293	-0.059690
1465	7.3200e-01	-18.5305	-115.602722	0.000111	1.110576	0.376273	-0.008873
1466	7.3250e-01	-18.5658	-115.885039	0.000707	7.067301	2.394466	-0.056463
1467	7.3300e-01	-18.6059	-116.203653	0.000798	7.975954	2.702326	-0.063723
1468	7.3350e-01	-18.6444	-116.586798	0.000959	9.591337	3.249633	-0.076629
1469	7.3400e-01	-18.6765	-116.707791	0.000303	3.028843	1.026200	-0.024199
1470	7.3450e-01	-18.7230	-116.929611	0.000555	5.552879	1.881366	-0.044364
1471	7.3500e-01	-18.7647	-117.280491	0.000878	8.783645	2.975980	-0.070176
1472	7.3550e-01	-18.8064	-117.510377	0.000575	5.754802	1.949780	-0.045977
1473	7.3600e-01	-18.8417	-117.707999	0.000495	4.947110	1.676126	-0.039524
1474	7.3650e-01	-18.8754	-118.054846	0.000868	8.682684	2.941773	-0.069369
1475	7.3700e-01	-18.9203	-118.288765	0.000586	5.855763	1.983986	-0.046784
1476	7.3750e-01	-18.9668	-118.550917	0.000656	6.562493	2.223433	-0.052430
1477	7.3800e-01	-19.0070	-118.732406	0.000454	4.543265	1.539300	-0.036298
1478	7.3850e-01	-19.0455	-118.930028	0.000495	4.947110	1.676126	-0.039524
1479	7.3900e-01	-19.0759	-119.244610	0.000787	7.874992	2.668120	-0.062916
1480	7.3950e-01	-19.1305	-119.534993	0.000727	7.269224	2.462880	-0.058077
1481	7.4000e-01	-19.1642	-119.704383	0.000424	4.240380	1.436680	-0.033878
1482	7.4050e-01	-19.2043	-119.942336	0.000596	5.956725	2.018193	-0.047591
1483	7.4100e-01	-19.2380	-120.349679	0.001020	10.197105	3.454873	-0.081469
1484	7.4150e-01	-19.2829	-120.591665	0.000606	6.057686	2.052400	-0.048397
1485	7.4200e-01	-19.3358	-121.019173	0.001070	10.701912	3.625906	-0.085502
1486	7.4250e-01	-19.3615	-121.027239	0.000020	0.201923	0.068413	-0.001613
1487	7.4300e-01	-19.4144	-121.172431	0.000363	3.634612	1.231440	-0.029038
1488	7.4350e-01	-19.4449	-121.636237	0.001161	11.610565	3.933766	-0.092761
1489	7.4400e-01	-19.4866	-121.958885	0.000808	8.076915	2.736533	-0.064530
1490	7.4450e-01	-19.5251	-122.035514	0.000192	1.918267	0.649927	-0.015326
1491	7.4500e-01	-19.5588	-122.329930	0.000737	7.370185	2.497086	-0.058883
1492	7.4550e-01	-19.6021	-122.511420	0.000454	4.543265	1.539300	-0.036298
1493	7.4600e-01	-19.6438	-122.801803	0.000727	7.269224	2.462880	-0.058077
1494	7.4650e-01	-19.6791	-123.132517	0.000828	8.278838	2.804946	-0.066143
1495	7.4700e-01	-19.7208	-123.523727	0.000979	9.793259	3.318046	-0.078242
1496	7.4750e-01	-19.7690	-123.717316	0.000485	4.846149	1.641920	-0.038718
1497	7.4800e-01	-19.8043	-123.902839	0.000464	4.644226	1.573506	-0.037105
1498	7.4850e-01	-19.8395	-124.217420	0.000787	7.874992	2.668120	-0.062916
1499	7.4900e-01	-19.8845	-124.249685	0.000081	0.807692	0.273653	-0.006453
1500	7.4950e-01	-19.9182	-124.620730	0.000929	9.288452	3.147013	-0.074209
1501	7.5000e-01	-19.9615	-124.798187	0.000444	4.442303	1.505093	-0.035491
1502	7.5050e-01	-19.9711	-125.024040	0.000565	5.653841	1.915573	-0.045171
1503	7.5100e-01	-19.9470	-125.064371	-0.000101	-1.009614	-0.342067	-0.008066
1504	7.5150e-01	-19.9133	-125.100669	-0.000091	-0.908653	-0.307860	-0.007260
1505	7.5200e-01	-19.8604	-124.931279	0.000424	4.240380	1.436680	0.033878
1506	7.5250e-01	-19.8299	-124.794154	0.000343	3.432689	1.163026	0.027425
1507	7.5300e-01	-19.7994	-124.677194	0.000293	2.927882	0.991993	0.023392
1508	7.5350e-01	-19.7513	-124.652995	0.000061	0.605769	0.205240	0.004840
1509	7.5400e-01	-19.7080	-124.600565	0.000131	1.312499	0.444687	0.010486
1510	7.5450e-01	-19.6695	-124.536035	0.000162	1.615383	0.547307	0.012906
1511	7.5500e-01	-19.6310	-124.556201	-0.000050	-0.504807	-0.171033	-0.004033
1512	7.5550e-01	-19.5893	-124.302115	0.000636	6.360571	2.155020	0.050817
1513	7.5600e-01	-19.5524	-124.164990	0.000343	3.432689	1.163026	0.027425
1514	7.5650e-01	-19.4994	-124.346480	-0.000454	-4.543265	-1.539300	-0.036298
1515	7.5700e-01	-19.4770	-123.971401	0.000939	9.389414	3.181219	0.075016
1516	7.5750e-01	-19.4208	-124.019799	-0.000121	-1.211537	-0.410480	-0.009679
1517	7.5800e-01	-19.3984	-123.878640	0.000353	3.533650	1.197233	0.028232
1518	7.5850e-01	-19.3519	-123.439032	0.001100	11.004797	3.728526	0.087922
1519	7.5900e-01	-19.3150	-123.342238	0.000242	2.423075	0.820960	0.019359
1520	7.5950e-01	-19.2700	-123.398701	-0.000141	-1.413460	-0.478893	-0.011293
1521	7.6000e-01	-19.2380	-123.225278	0.000434	4.341342	1.470886	0.034685
1522	7.6050e-01	-19.1882	-123.168815	0.000141	1.413460	0.478893	0.011293
1523	7.6100e-01	-19.1497	-123.140583	0.000071	0.706730	0.239447	0.005646
1524	7.6150e-01	-19.1096	-123.059921	0.000202	2.019229	0.684133	0.016132
1525	7.6200e-01	-19.0727	-123.039756	0.000050	0.504807	0.171033	0.004033
1526	7.6250e-01	-19.0374	-122.757439	0.000707	7.067301	2.394466	0.056463
1527	7.6300e-01	-18.9893	-122.850200	-0.000232	-2.322113	-0.786753	-0.018552
1528	7.6350e-01	-18.9540	-122.446890	0.001010	10.096144	3.420666	0.080662
1529	7.6400e-01	-18.9187	-122.277500	0.000424	4.240380	1.436680	0.033878
1530	7.6450e-01	-18.8706	-122.116176	0.000404	4.038458	1.368266	0.032265
1531	7.6500e-01	-18.8385	-121.970984	0.000363	3.634612	1.231440	0.029038
1532	7.6550e-01	-18.7968	-121.854025	0.000293	2.927882	0.991993	0.023392
1533	7.6600e-01	-18.7487	-121.753197	0.000252	2.524036	0.855167	0.020165
1534	7.6650e-01	-18.7134	-121.656403	0.000242	2.423075	0.820960	0.019359
1535	7.6700e-01	-18.6669	-121.531377	0.000313	3.129805	1.060406	0.025005
1536	7.6750e-01	-18.6300	-121.366020	0.000414	4.139419	1.402473	0.033071
1537	7.6800e-01	-18.5915	-121.111934	0.000636	6.360571	2.155020	0.050817
1538	7.6850e-01	-18.5530	-120.688459	0.001060	10.600951	3.591699	0.084695
1539	7.6900e-01	-18.5064	-120.777187	-0.000222	-2.221152	-0.752547	-0.017746
1540	7.6950e-01	-18.4776	-120.607797	0.000424	4.240380	1.436680	0.033878
1541	7.7000e-01	-18.4342	-120.515036	0.000232	2.322113	0.786753	0.018552
1542	7.7050e-01	-18.3925	-120.462606	0.000131	1.312499	0.444687	0.010486
1543	7.7100e-01	-18.3460	-120.156090	0.000767	7.673069	2.599706	0.061303
1544	7.7150e-01	-18.3059	-120.119792	0.000091	0.908653	0.307860	0.007260
1545	7.7200e-01	-18.2754	-119.861674	0.000646	6.461532	2.189226	0.051624
1546	7.7250e-01	-18.2305	-119.760846	0.000252	2.524036	0.855167	0.020165
1547	7.7300e-01	-18.2000	-119.692284	0.000172	1.716344	0.581513	0.013713
1548	7.7350e-01	-18.1503	-119.627754	0.000162	1.615383	0.547307	0.012906
1549	7.7400e-01	-18.1230	-119.474496	0.000384	3.836535	1.299853	0.030652
1550	7.7450e-01	-18.0733	-119.236544	0.000596	5.956725	2.018193	0.047591
1551	7.7500e-01	-18.0364	-119.002624	0.000586	5.855763	1.983986	0.046784
1552	7.7550e-01	-17.9931	-118.813068	0.000475	4.745188	1.607713	0.037911
1553	7.7600e-01	-17.9562	-118.728373	0.000212	2.120190	0.718340	0.016939
1554	7.7650e-01	-17.9161	-118.599314	0.000323	3.230766	1.094613	0.025812
1555	7.7700e-01	-17.8679	-118.389593	0.000525	5.249995	1.778746	0.041944
1556	7.7750e-01	-17.8343	-118.224236	0.000414	4.139419	1.402473	0.033071
1557	7.7800e-01	-17.7990	-117.986283	0.000596	5.956725	2.018193	0.047591
1558	7.7850e-01	-17.7524	-117.837058	0.000374	3.735573	1.265646	0.029845
1559	7.7900e-01	-17.7171	-117.776562	0.000151	1.514422	0.513100	0.012099
1560	7.7950e-01	-17.6770	-117.582973	0.000485	4.846149	1.641920	0.038718
1561	7.8000e-01	-17.6241	-117.478113	0.000262	2.624997	0.889373	0.020972
1562	7.8050e-01	-17.5968	-117.272425	0.000515	5.149033	1.744540	0.041138
1563	7.8100e-01	-17.5519	-117.207895	0.000162	1.615383	0.547307	0.012906
1564	7.8150e-01	-17.5118	-117.042538	0.000414	4.139419	1.402473	0.033071
1565	7.8200e-01	-17.4717	-116.800552	0.000606	6.057686	2.052400	0.048397
1566	7.8250e-01	-17.4348	-116.477904	0.000808	8.076915	2.736533	0.064530
1567	7.8300e-01	-17.3931	-116.538401	-0.000151	-1.514422	-0.513100	-0.012099
1568	7.8350e-01	-17.3498	-116.155256	0.000959	9.591337	3.249633	0.076629
1569	7.8400e-01	-17.3049	-116.131058	0.000061	0.605769	0.205240	0.004840
1570	7.8450e-01	-17.2615	-116.135091	-0.000010	-0.100961	-0.034207	-0.000807
1571	7.8500e-01	-17.2311	-115.796311	0.000848	8.480761	2.873360	0.067756
1572	7.8550e-01	-17.1942	-115.590622	0.000515	5.149033	1.744540	0.041138
1573	7.8600e-01	-17.1509	-115.473663	0.000293	2.927882	0.991993	0.023392
1574	7.8650e-01	-17.1059	-115.372835	0.000252	2.524036	0.855167	0.020165
1575	7.8700e-01	-17.0658	-115.155048	0.000545	5.451918	1.847160	0.043557
1576	7.8750e-01	-17.0321	-114.965492	0.000475	4.745188	1.607713	0.037911
1577	7.8800e-01	-16.9920	-114.763837	0.000505	5.048072	1.710333	0.040331
1578	7.8850e-01	-16.9487	-114.550083	0.000535	5.350956	1.812953	0.042751
1579	7.8900e-01	-16.9118	-114.497653	0.000131	1.312499	0.444687	0.010486
1580	7.8950e-01	-16.8781	-114.437156	0.000151	1.514422	0.513100	0.012099
1581	7.9000e-01	-16.8396	-114.021747	0.001040	10.399028	3.523286	0.083082
1582	7.9050e-01	-16.7690	-113.941085	0.000202	2.019229	0.684133	0.016132
1583	7.9100e-01	-16.7482	-113.763629	0.000444	4.442303	1.505093	0.035491
1584	7.9150e-01	-16.7113	-113.537775	0.000565	5.653841	1.915573	0.045171
1585	7.9200e-01	-16.6712	-113.461146	0.000192	1.918267	0.649927	0.015326
1586	7.9250e-01	-16.6295	-113.247392	0.000535	5.350956	1.812953	0.042751
1587	7.9300e-01	-16.6038	-113.025572	0.000555	5.552879	1.881366	0.044364
1588	7.9350e-01	-16.5509	-113.001373	0.000061	0.605769	0.205240	0.004840
1589	7.9400e-01	-16.5060	-112.654527	0.000868	8.682684	2.941773	0.069369
1590	7.9450e-01	-16.4707	-112.424640	0.000575	5.754802	1.949780	0.045977
1591	7.9500e-01	-16.4306	-112.509335	-0.000212	-2.120190	-0.718340	-0.016939
1592	7.9550e-01	-16.3840	-112.271382	0.000596	5.956725	2.018193	0.047591
1593	7.9600e-01	-16.3519	-112.106025	0.000414	4.139419	1.402473	0.033071
1594	7.9650e-01	-16.3102	-111.819675	0.000717	7.168262	2.428673	0.057270
1595	7.9700e-01	-16.2653	-111.779344	0.000101	1.009614	0.342067	0.008066
1596	7.9750e-01	-16.2236	-111.436531	0.000858	8.581722	2.907566	0.068563
1597	7.9800e-01	-16.1915	-111.287306	0.000374	3.735573	1.265646	0.029845
1598	7.9850e-01	-16.1610	-111.061453	0.000565	5.653841	1.915573	0.045171
1599	7.9900e-01	-16.1049	-110.879963	0.000454	4.543265	1.539300	0.036298
1600	7.9950e-01	-16.0664	-110.904162	-0.000061	-0.605769	-0.205240	-0.004840
1601	8.0000e-01	-16.0263	-110.771070	0.000333	3.331727	1.128820	0.026618
1602	8.0050e-01	-15.9926	-110.537150	0.000586	5.855763	1.983986	0.046784
1603	8.0100e-01	-15.9461	-110.391958	0.000363	3.634612	1.231440	0.029038
1604	8.0150e-01	-15.9156	-110.210469	0.000454	4.543265	1.539300	0.036298
1605	8.0200e-01	-15.8675	-109.855556	0.000888	8.884607	3.010186	0.070983
1606	8.0250e-01	-15.8322	-109.952351	-0.000242	-2.423075	-0.820960	-0.019359
1607	8.0300e-01	-15.7921	-109.811192	0.000353	3.533650	1.197233	0.028232
1608	8.0350e-01	-15.7552	-109.520809	0.000727	7.269224	2.462880	0.058077
1609	8.0400e-01	-15.7183	-109.250591	0.000676	6.764416	2.291846	0.054044
1610	8.0450e-01	-15.6718	-109.125565	0.000313	3.129805	1.060406	0.025005
1611	8.0500e-01	-15.6349	-108.984407	0.000353	3.533650	1.197233	0.028232
1612	8.0550e-01	-15.5883	-108.823083	0.000404	4.038458	1.368266	0.032265
1613	8.0600e-01	-15.5530	-108.472203	0.000878	8.783645	2.975980	0.070176
1614	8.0650e-01	-15.5145	-108.371376	0.000252	2.524036	0.855167	0.020165
1615	8.0700e-01	-15.4680	-108.242317	0.000323	3.230766	1.094613	0.025812
1616	8.0750e-01	-15.4279	-107.955967	0.000717	7.168262	2.428673	0.057270
1617	8.0800e-01	-15.3958	-108.008397	-0.000131	-1.312499	-0.444687	-0.010486
1618	8.0850e-01	-15.3557	-107.939834	0.000172	1.716344	0.581513	0.013713
1619	8.0900e-01	-15.3188	-107.790610	0.000374	3.735573	1.265646	0.029845
1620	8.0950e-01	-15.2675	-107.379234	0.001030	10.298067	3.489079	0.082275
1621	8.1000e-01	-15.2338	-107.125149	0.000636	6.360571	2.155020	0.050817
1622	8.1050e-01	-15.1937	-106.689574	0.001090	10.903835	3.694319	0.087115
1623	8.1100e-01	-15.1536	-106.737971	-0.000121	-1.211537	-0.410480	-0.009679
1624	8.1150e-01	-15.1022	-106.947692	-0.000525	-5.249995	-1.778746	-0.041944
1625	8.1200e-01	-15.0686	-106.439522	0.001272	12.721141	4.310039	0.101634
1626	8.1250e-01	-15.0301	-106.233834	0.000515	5.149033	1.744540	0.041138
1627	8.1300e-01	-14.9900	-106.322562	-0.000222	-2.221152	-0.752547	-0.017746
1628	8.1350e-01	-14.9531	-105.991848	0.000828	8.278838	2.804946	0.066143
1629	8.1400e-01	-14.9113	-105.882954	0.000273	2.725959	0.923580	0.021779
1630	8.1450e-01	-14.8696	-105.653068	0.000575	5.754802	1.949780	0.045977
1631	8.1500e-01	-14.8375	-105.277989	0.000939	9.389414	3.181219	0.075016
1632	8.1550e-01	-14.7926	-105.088434	0.000475	4.745188	1.607713	0.037911
1633	8.1600e-01	-14.7477	-105.108599	-0.000050	-0.504807	-0.171033	-0.004033
1634	8.1650e-01	-14.7060	-104.866613	0.000606	6.057686	2.052400	0.048397
1635	8.1700e-01	-14.6691	-104.511701	0.000888	8.884607	3.010186	0.070983
1636	8.1750e-01	-14.6370	-104.285847	0.000565	5.653841	1.915573	0.045171
1637	8.1800e-01	-14.5953	-104.217284	0.000172	1.716344	0.581513	0.013713
1638	8.1850e-01	-14.5472	-104.112424	0.000262	2.624997	0.889373	0.020972
1639	8.1900e-01	-14.5151	-104.047894	0.000162	1.615383	0.547307	0.012906
1640	8.1950e-01	-14.4638	-103.902703	0.000363	3.634612	1.231440	0.029038
1641	8.2000e-01	-14.4365	-103.648618	0.000636	6.360571	2.155020	0.050817
1642	8.2050e-01	-14.3932	-103.330003	0.000798	7.975954	2.702326	0.063723
1643	8.2100e-01	-14.3402	-103.237241	0.000232	2.322113	0.786753	0.018552
1644	8.2150e-01	-14.3065	-102.979123	0.000646	6.461532	2.189226	0.051624
1645	8.2200e-01	-14.2729	-102.793601	0.000464	4.644226	1.573506	0.037105
1646	8.2250e-01	-14.2247	-102.616144	0.000444	4.442303	1.505093	0.035491
1647	8.2300e-01	-14.1926	-102.426589	0.000475	4.745188	1.607713	0.037911
1648	8.2350e-01	-14.1509	-102.233000	0.000485	4.846149	1.641920	0.038718
1649	8.2400e-01	-14.1060	-102.055544	0.000444	4.442303	1.505093	0.035491
1650	8.2450e-01	-14.0739	-101.857922	0.000495	4.947110	1.676126	0.039524
1651	8.2500e-01	-14.0338	-101.825657	0.000081	0.807692	0.273653	0.006453
1652	8.2550e-01	-13.9969	-101.450579	0.000939	9.389414	3.181219	0.075016
1653	8.2600e-01	-13.9440	-101.333619	0.000293	2.927882	0.991993	0.023392
1654	8.2650e-01	-13.9167	-101.055335	0.000697	6.966339	2.360260	0.055657
1655	8.2700e-01	-13.8750	-101.023070	0.000081	0.807692	0.273653	0.006453
1656	8.2750e-01	-13.8317	-100.946441	0.000192	1.918267	0.649927	0.015326
1657	8.2800e-01	-13.7884	-100.563297	0.000959	9.591337	3.249633	0.076629
1658	8.2850e-01	-13.7467	-100.385841	0.000444	4.442303	1.505093	0.035491
1659	8.2900e-01	-13.7098	-100.135789	0.000626	6.259609	2.120813	0.050010
1660	8.2950e-01	-13.6777	-99.885737	0.000626	6.259609	2.120813	0.050010
1661	8.3000e-01	-13.6247	-99.857505	0.000071	0.706730	0.239447	0.005646
1662	8.3050e-01	-13.5927	-99.639718	0.000545	5.451918	1.847160	0.043557
1663	8.3100e-01	-13.5542	-99.389665	0.000626	6.259609	2.120813	0.050010
1664	8.3150e-01	-13.5076	-99.236408	0.000384	3.836535	1.299853	0.030652
1665	8.3200e-01	-13.4659	-99.071051	0.000414	4.139419	1.402473	0.033071
1666	8.3250e-01	-13.4403	-98.784701	0.000717	7.168262	2.428673	0.057270
1667	8.3300e-01	-13.3873	-98.687906	0.000242	2.423075	0.820960	0.019359
1668	8.3350e-01	-13.3520	-98.599178	0.000222	2.221152	0.752547	0.017746
1669	8.3400e-01	-13.3151	-98.365258	0.000586	5.855763	1.983986	0.046784
1670	8.3450e-01	-13.2734	-98.191835	0.000434	4.341342	1.470886	0.034685
1671	8.3500e-01	-13.2397	-97.881287	0.000777	7.774031	2.633913	0.062110
1672	8.3550e-01	-13.1900	-97.663499	0.000545	5.451918	1.847160	0.043557
1673	8.3600e-01	-13.1451	-97.477977	0.000464	4.644226	1.573506	0.037105
1674	8.3650e-01	-13.1114	-97.272289	0.000515	5.149033	1.744540	0.041138
1675	8.3700e-01	-13.0761	-97.256156	0.000040	0.403846	0.136827	0.003226
1676	8.3750e-01	-13.0248	-97.102898	0.000384	3.836535	1.299853	0.030652
1677	8.3800e-01	-12.9927	-96.877045	0.000565	5.653841	1.915573	0.045171
1678	8.3850e-01	-12.9494	-96.618927	0.000646	6.461532	2.189226	0.051624
1679	8.3900e-01	-12.9141	-96.147054	0.001181	11.812488	4.002179	0.094375
1680	8.3950e-01	-12.8692	-96.300312	-0.000384	-3.836535	-1.299853	-0.030652
1681	8.4000e-01	-12.8258	-95.985730	0.000787	7.874992	2.668120	0.062916
1682	8.4050e-01	-12.7922	-95.739711	0.000616	6.158648	2.086606	0.049204
1683	8.4100e-01	-12.7537	-95.763910	-0.000061	-0.605769	-0.205240	-0.004840
1684	8.4150e-01	-12.7023	-95.477560	0.000717	7.168262	2.428673	0.057270
1685	8.4200e-01	-12.6670	-95.340434	0.000343	3.432689	1.163026	0.027425
1686	8.4250e-01	-12.6269	-94.904860	0.001090	10.903835	3.694319	0.087115
1687	8.4300e-01	-12.5932	-94.775801	0.000323	3.230766	1.094613	0.025812
1688	8.4350e-01	-12.5467	-94.606410	0.000424	4.240380	1.436680	0.033878
1689	8.4400e-01	-12.5162	-94.380557	0.000565	5.653841	1.915573	0.045171
1690	8.4450e-01	-12.4713	-94.243432	0.000343	3.432689	1.163026	0.027425
1691	8.4500e-01	-12.4328	-94.057909	0.000464	4.644226	1.573506	0.037105
1692	8.4550e-01	-12.3847	-93.880453	0.000444	4.442303	1.505093	0.035491
1693	8.4600e-01	-12.3510	-93.747360	0.000333	3.331727	1.128820	0.026618
1694	8.4650e-01	-12.3093	-93.533606	0.000535	5.350956	1.812953	0.042751
1695	8.4700e-01	-12.2628	-93.340018	0.000485	4.846149	1.641920	0.038718
1696	8.4750e-01	-12.2275	-93.114164	0.000565	5.653841	1.915573	0.045171
1697	8.4800e-01	-12.1825	-92.916542	0.000495	4.947110	1.676126	0.039524
1698	8.4850e-01	-12.1440	-92.710854	0.000515	5.149033	1.744540	0.041138
1699	8.4900e-01	-12.1168	-92.412405	0.000747	7.471146	2.531293	0.059690
1700	8.4950e-01	-12.0686	-92.271246	0.000353	3.533650	1.197233	0.028232
1701	8.5000e-01	-12.0350	-92.134121	0.000343	3.432689	1.163026	0.027425
1702	8.5050e-01	-11.9932	-91.880036	0.000636	6.360571	2.155020	0.050817
1703	8.5100e-01	-11.9547	-91.750977	0.000323	3.230766	1.094613	0.025812
1704	8.5150e-01	-11.9114	-91.525123	0.000565	5.653841	1.915573	0.045171
1705	8.5200e-01	-11.8713	-91.347667	0.000444	4.442303	1.505093	0.035491
1706	8.5250e-01	-11.8312	-91.089548	0.000646	6.461532	2.189226	0.051624
1707	8.5300e-01	-11.7863	-91.033085	0.000141	1.413460	0.478893	0.011293
1708	8.5350e-01	-11.7558	-90.819331	0.000535	5.350956	1.812953	0.042751
1709	8.5400e-01	-11.7125	-90.597510	0.000555	5.552879	1.881366	0.044364
1710	8.5450e-01	-11.6724	-90.311160	0.000717	7.168262	2.428673	0.057270
1711	8.5500e-01	-11.6323	-89.972380	0.000848	8.480761	2.873360	0.067756
1712	8.5550e-01	-11.5842	-89.762659	0.000525	5.249995	1.778746	0.041944
1713	8.5600e-01	-11.5392	-89.649732	0.000283	2.826920	0.957787	0.022585
1714	8.5650e-01	-11.5152	-89.585203	0.000162	1.615383	0.547307	0.012906
1715	8.5700e-01	-11.4719	-89.157694	0.001070	10.701912	3.625906	0.085502
1716	8.5750e-01	-11.4350	-89.048801	0.000273	2.725959	0.923580	0.021779
1717	8.5800e-01	-11.3836	-88.839079	0.000525	5.249995	1.778746	0.041944
1718	8.5850e-01	-11.3483	-88.661623	0.000444	4.442303	1.505093	0.035491
1719	8.5900e-01	-11.3082	-88.359141	0.000757	7.572108	2.565500	0.060496
1720	8.5950e-01	-11.2617	-88.177651	0.000454	4.543265	1.539300	0.036298
1721	8.6000e-01	-11.2296	-88.060691	0.000293	2.927882	0.991993	0.023392
1722	8.6050e-01	-11.1943	-87.709812	0.000878	8.783645	2.975980	0.070176
1723	8.6100e-01	-11.1526	-87.540422	0.000424	4.240380	1.436680	0.033878
1724	8.6150e-01	-11.1109	-87.362965	0.000444	4.442303	1.505093	0.035491
1725	8.6200e-01	-11.0708	-87.278270	0.000212	2.120190	0.718340	0.016939
1726	8.6250e-01	-11.0419	-87.145178	0.000333	3.331727	1.128820	0.026618
1727	8.6300e-01	-10.9922	-86.745901	0.001000	9.995182	3.386459	0.079855
1728	8.6350e-01	-10.9521	-86.604743	0.000353	3.533650	1.197233	0.028232
1729	8.6400e-01	-10.9168	-86.459551	0.000363	3.634612	1.231440	0.029038
1730	8.6450e-01	-10.8639	-86.193367	0.000666	6.663455	2.257640	0.053237
1731	8.6500e-01	-10.8366	-85.939282	0.000636	6.360571	2.155020	0.050817
1732	8.6550e-01	-10.7901	-85.773925	0.000414	4.139419	1.402473	0.033071
1733	8.6600e-01	-10.7516	-85.681163	0.000232	2.322113	0.786753	0.018552
1734	8.6650e-01	-10.7050	-85.330284	0.000878	8.783645	2.975980	0.070176
1735	8.6700e-01	-10.6794	-85.035867	0.000737	7.370185	2.497086	0.058883
1736	8.6750e-01	-10.6345	-84.971338	0.000162	1.615383	0.547307	0.012906
1737	8.6800e-01	-10.5911	-84.648690	0.000808	8.076915	2.736533	0.064530
1738	8.6850e-01	-10.5398	-84.620458	0.000071	0.706730	0.239447	0.005646
1739	8.6900e-01	-10.5077	-84.495432	0.000313	3.129805	1.060406	0.025005
1740	8.6950e-01	-10.4660	-84.241347	0.000636	6.360571	2.155020	0.050817
1741	8.7000e-01	-10.4371	-84.051791	0.000475	4.745188	1.607713	0.037911
1742	8.7050e-01	-10.3890	-83.721077	0.000828	8.278838	2.804946	0.066143
1743	8.7100e-01	-10.3521	-83.422628	0.000747	7.471146	2.531293	0.059690
1744	8.7150e-01	-10.3136	-83.345999	0.000192	1.918267	0.649927	0.015326
1745	8.7200e-01	-10.2671	-83.156444	0.000475	4.745188	1.607713	0.037911
1746	8.7250e-01	-10.2334	-82.954789	0.000505	5.048072	1.710333	0.040331
1747	8.7300e-01	-10.1869	-82.745067	0.000525	5.249995	1.778746	0.041944
1748	8.7350e-01	-10.1484	-82.414353	0.000828	8.278838	2.804946	0.066143
1749	8.7400e-01	-10.1067	-82.115904	0.000747	7.471146	2.531293	0.059690
1750	8.7450e-01	-10.0698	-82.043308	0.000182	1.817306	0.615720	0.014519
1751	8.7500e-01	-10.0313	-81.894084	0.000374	3.735573	1.265646	0.029845
1752	8.7550e-01	-9.9912	-81.660164	0.000586	5.855763	1.983986	0.046784
1753	8.7600e-01	-9.9414	-81.523039	0.000343	3.432689	1.163026	0.027425
1754	8.7650e-01	-9.9110	-81.099563	0.001060	10.600951	3.591699	0.084695
1755	8.7700e-01	-9.8757	-81.022934	0.000192	1.918267	0.649927	0.015326
1756	8.7750e-01	-9.8291	-80.805147	0.000545	5.451918	1.847160	0.043557
1757	8.7800e-01	-9.7922	-80.450234	0.000888	8.884607	3.010186	0.070983
1758	8.7850e-01	-9.7521	-80.288910	0.000404	4.038458	1.368266	0.032265
1759	8.7900e-01	-9.7120	-80.034825	0.000636	6.360571	2.155020	0.050817
1760	8.7950e-01	-9.6719	-79.837203	0.000495	4.947110	1.676126	0.039524
1761	8.8000e-01	-9.6238	-79.558920	0.000697	6.966339	2.360260	0.055657
1762	8.8050e-01	-9.5917	-79.441960	0.000293	2.927882	0.991993	0.023392
1763	8.8100e-01	-9.5548	-79.175775	0.000666	6.663455	2.257640	0.053237
1764	8.8150e-01	-9.5147	-78.986220	0.000475	4.745188	1.607713	0.037911
1765	8.8200e-01	-9.4666	-78.772465	0.000535	5.350956	1.812953	0.042751
1766	8.8250e-01	-9.4265	-78.651472	0.000303	3.028843	1.026200	0.024199
1767	8.8300e-01	-9.3944	-78.248163	0.001010	10.096144	3.420666	0.080662
1768	8.8350e-01	-9.3623	-78.090872	0.000394	3.937496	1.334060	0.031458
1769	8.8400e-01	-9.3110	-77.929548	0.000404	4.038458	1.368266	0.032265
1770	8.8450e-01	-9.2693	-77.800489	0.000323	3.230766	1.094613	0.025812
1771	8.8500e-01	-9.2340	-77.473808	0.000818	8.177876	2.770740	0.065336
1772	8.8550e-01	-9.1858	-77.219722	0.000636	6.360571	2.155020	0.050817
1773	8.8600e-01	-9.1473	-77.159226	0.000151	1.514422	0.513100	0.012099
1774	8.8650e-01	-9.1185	-76.856744	0.000757	7.572108	2.565500	0.060496
1775	8.8700e-01	-9.0687	-76.570394	0.000717	7.168262	2.428673	0.057270
1776	8.8750e-01	-9.0270	-76.526029	0.000111	1.110576	0.376273	0.008873
1777	8.8800e-01	-8.9981	-76.118686	0.001020	10.197105	3.454873	0.081469
1778	8.8850e-01	-8.9645	-75.989627	0.000323	3.230766	1.094613	0.025812
1779	8.8900e-01	-8.9099	-75.715377	0.000687	6.865378	2.326053	0.054850
1780	8.8950e-01	-8.8826	-75.304001	0.001030	10.298067	3.489079	0.082275
1781	8.9000e-01	-8.8281	-75.227372	0.000192	1.918267	0.649927	0.015326
1782	8.9050e-01	-8.7912	-75.142677	0.000212	2.120190	0.718340	0.016939
1783	8.9100e-01	-8.7447	-74.856327	0.000717	7.168262	2.428673	0.057270
1784	8.9150e-01	-8.7078	-74.582076	0.000687	6.865378	2.326053	0.054850
1785	8.9200e-01	-8.6709	-74.384454	0.000495	4.947110	1.676126	0.039524
1786	8.9250e-01	-8.6260	-74.122303	0.000656	6.562493	2.223433	0.052430
1787	8.9300e-01	-8.5826	-73.993244	0.000323	3.230766	1.094613	0.025812
1788	8.9350e-01	-8.5490	-73.658496	0.000838	8.379799	2.839153	0.066949
1789	8.9400e-01	-8.5105	-73.497172	0.000404	4.038458	1.368266	0.032265
1790	8.9450e-01	-8.4639	-73.279385	0.000545	5.451918	1.847160	0.043557
1791	8.9500e-01	-8.4335	-73.037399	0.000606	6.057686	2.052400	0.048397
1792	8.9550e-01	-8.3933	-72.722817	0.000787	7.874992	2.668120	0.062916
1793	8.9600e-01	-8.3452	-72.642155	0.000202	2.019229	0.684133	0.016132
1794	8.9650e-01	-8.3067	-72.456633	0.000464	4.644226	1.573506	0.037105
1795	8.9700e-01	-8.2698	-71.976694	0.001201	12.014411	4.070593	0.095988
1796	8.9750e-01	-8.2329	-71.726642	0.000626	6.259609	2.120813	0.050010
1797	8.9800e-01	-8.1896	-71.662113	0.000162	1.615383	0.547307	0.012906
1798	8.9850e-01	-8.1447	-71.460458	0.000505	5.048072	1.710333	0.040331
1799	8.9900e-01	-8.1062	-71.166041	0.000737	7.370185	2.497086	0.058883
1800	8.9950e-01	-8.0805	-70.730467	0.001090	10.903835	3.694319	0.087115
1801	9.0000e-01	-8.0372	-70.746599	-0.000040	-0.403846	-0.136827	-0.003226
1802	9.0050e-01	-7.9811	-70.706268	0.000101	1.009614	0.342067	0.008066
1803	9.0100e-01	-7.9522	-70.323124	0.000959	9.591337	3.249633	0.076629
1804	9.0150e-01	-7.9073	-70.101303	0.000555	5.552879	1.881366	0.044364
1805	9.0200e-01	-7.8656	-69.907715	0.000485	4.846149	1.641920	0.038718
1806	9.0250e-01	-7.8271	-69.625398	0.000707	7.067301	2.394466	0.056463
1807	9.0300e-01	-7.7789	-69.391478	0.000586	5.855763	1.983986	0.046784
1808	9.0350e-01	-7.7452	-69.040598	0.000878	8.783645	2.975980	0.070176
1809	9.0400e-01	-7.7115	-68.855076	0.000464	4.644226	1.573506	0.037105
1810	9.0450e-01	-7.6634	-68.596958	0.000646	6.461532	2.189226	0.051624
1811	9.0500e-01	-7.6265	-68.367071	0.000575	5.754802	1.949780	0.045977
1812	9.0550e-01	-7.5928	-68.161383	0.000515	5.149033	1.744540	0.041138
1813	9.0600e-01	-7.5447	-68.060555	0.000252	2.524036	0.855167	0.020165
1814	9.0650e-01	-7.5094	-67.745974	0.000787	7.874992	2.668120	0.062916
1815	9.0700e-01	-7.4725	-67.447524	0.000747	7.471146	2.531293	0.059690
1816	9.0750e-01	-7.4324	-67.350730	0.000242	2.423075	0.820960	0.019359
1817	9.0800e-01	-7.3859	-67.088579	0.000656	6.562493	2.223433	0.052430
1818	9.0850e-01	-7.3554	-66.773997	0.000787	7.874992	2.668120	0.062916
1819	9.0900e-01	-7.3185	-66.532011	0.000606	6.057686	2.052400	0.048397
1820	9.0950e-01	-7.2672	-66.402952	0.000323	3.230766	1.094613	0.025812
1821	9.1000e-01	-7.2271	-66.177098	0.000565	5.653841	1.915573	0.045171
1822	9.1050e-01	-7.1805	-66.015774	0.000404	4.038458	1.368266	0.032265
1823	9.1100e-01	-7.1565	-65.592299	0.001060	10.600951	3.591699	0.084695
1824	9.1150e-01	-7.1019	-65.184956	0.001020	10.197105	3.454873	0.081469
1825	9.1200e-01	-7.0586	-65.205122	-0.000050	-0.504807	-0.171033	-0.004033
1826	9.1250e-01	-7.0185	-64.737282	0.001171	11.711527	3.967973	0.093568
1827	9.1300e-01	-6.9880	-64.628389	0.000273	2.725959	0.923580	0.021779
1828	9.1350e-01	-6.9527	-64.571925	0.000141	1.413460	0.478893	0.011293
1829	9.1400e-01	-6.9094	-64.132317	0.001100	11.004797	3.728526	0.087922
1830	9.1450e-01	-6.8677	-63.938729	0.000485	4.846149	1.641920	0.038718
1831	9.1500e-01	-6.8340	-63.745140	0.000485	4.846149	1.641920	0.038718
1832	9.1550e-01	-6.7891	-63.470889	0.000687	6.865378	2.326053	0.054850
1833	9.1600e-01	-6.7458	-63.059513	0.001030	10.298067	3.489079	0.082275
1834	9.1650e-01	-6.7089	-62.890123	0.000424	4.240380	1.436680	0.033878
1835	9.1700e-01	-6.6672	-62.688468	0.000505	5.048072	1.710333	0.040331
1836	9.1750e-01	-6.6287	-62.466648	0.000555	5.552879	1.881366	0.044364
1837	9.1800e-01	-6.5774	-62.160132	0.000767	7.673069	2.599706	0.061303
1838	9.1850e-01	-6.5549	-62.111735	0.000121	1.211537	0.410480	0.009679
1839	9.1900e-01	-6.5164	-61.704392	0.001020	10.197105	3.454873	0.081469
1840	9.1950e-01	-6.4667	-61.361579	0.000858	8.581722	2.907566	0.068563
1841	9.2000e-01	-6.4394	-61.220420	0.000353	3.533650	1.197233	0.028232
1842	9.2050e-01	-6.3913	-61.030865	0.000475	4.745188	1.607713	0.037911
1843	9.2100e-01	-6.3512	-60.796945	0.000586	5.855763	1.983986	0.046784
1844	9.2150e-01	-6.3111	-60.744515	0.000131	1.312499	0.444687	0.010486
1845	9.2200e-01	-6.2709	-60.349271	0.000989	9.894221	3.352253	0.079049
1846	9.2250e-01	-6.2292	-60.103252	0.000616	6.158648	2.086606	0.049204
1847	9.2300e-01	-6.1923	-59.913696	0.000475	4.745188	1.607713	0.037911
1848	9.2350e-01	-6.1506	-59.558784	0.000888	8.884607	3.010186	0.070983
1849	9.2400e-01	-6.1169	-59.252268	0.000767	7.673069	2.599706	0.061303
1850	9.2450e-01	-6.0720	-59.046580	0.000515	5.149033	1.744540	0.041138
1851	9.2500e-01	-6.0335	-58.542443	0.001262	12.620180	4.275833	0.100827
1852	9.2550e-01	-5.9902	-58.542443	0.000000	0.000000	0.000000	0.000000
1853	9.2600e-01	-5.9501	-58.401284	0.000353	3.533650	1.197233	0.028232
1854	9.2650e-01	-5.9004	-58.183497	0.000545	5.451918	1.847160	0.043557
1855	9.2700e-01	-5.8683	-57.872948	0.000777	7.774031	2.633913	0.062110
1856	9.2750e-01	-5.8218	-57.707591	0.000414	4.139419	1.402473	0.033071
1857	9.2800e-01	-5.7961	-57.223620	0.001212	12.115373	4.104799	0.096794
1858	9.2850e-01	-5.7496	-56.989700	0.000586	5.855763	1.983986	0.046784
1859	9.2900e-01	-5.7127	-56.646886	0.000858	8.581722	2.907566	0.068563
1860	9.2950e-01	-5.6645	-56.731581	-0.000212	-2.120190	-0.718340	-0.016939
1861	9.3000e-01	-5.6325	-56.421033	0.000777	7.774031	2.633913	0.062110
1862	9.3050e-01	-5.5908	-55.924962	0.001242	12.418257	4.207419	0.099214
1863	9.3100e-01	-5.5539	-55.691042	0.000586	5.855763	1.983986	0.046784
1864	9.3150e-01	-5.5041	-55.670877	0.000050	0.504807	0.171033	0.004033
1865	9.3200e-01	-5.4704	-55.493420	0.000444	4.442303	1.505093	0.035491
1866	9.3250e-01	-5.4175	-55.182872	0.000777	7.774031	2.633913	0.062110
1867	9.3300e-01	-5.3854	-54.767462	0.001040	10.399028	3.523286	0.083082
1868	9.3350e-01	-5.3421	-54.481112	0.000717	7.168262	2.428673	0.057270
1869	9.3400e-01	-5.3148	-54.279458	0.000505	5.048072	1.710333	0.040331
1870	9.3450e-01	-5.2699	-54.106034	0.000434	4.341342	1.470886	0.034685
1871	9.3500e-01	-5.2378	-53.892280	0.000535	5.350956	1.812953	0.042751
1872	9.3550e-01	-5.1833	-53.468805	0.001060	10.600951	3.591699	0.084695
1873	9.3600e-01	-5.1496	-53.412341	0.000141	1.413460	0.478893	0.011293
1874	9.3650e-01	-5.1111	-53.190521	0.000555	5.552879	1.881366	0.044364
1875	9.3700e-01	-5.0710	-52.779145	0.001030	10.298067	3.489079	0.082275
1876	9.3750e-01	-5.0245	-52.589589	0.000475	4.745188	1.607713	0.037911
1877	9.3800e-01	-4.9876	-52.279041	0.000777	7.774031	2.633913	0.062110
1878	9.3850e-01	-4.9523	-51.996724	0.000707	7.067301	2.394466	0.056463
1879	9.3900e-01	-4.9186	-51.734572	0.000656	6.562493	2.223433	0.052430
1880	9.3950e-01	-4.8656	-51.379660	0.000888	8.884607	3.010186	0.070983
1881	9.4000e-01	-4.8352	-50.919886	0.001151	11.509604	3.899559	0.091955
1882	9.4050e-01	-4.7951	-50.661768	0.000646	6.461532	2.189226	0.051624
1883	9.4100e-01	-4.7501	-50.605305	0.000141	1.413460	0.478893	0.011293
1884	9.4150e-01	-4.7036	-50.403650	0.000505	5.048072	1.710333	0.040331
1885	9.4200e-01	-4.6763	-50.093101	0.000777	7.774031	2.633913	0.062110
1886	9.4250e-01	-4.6266	-49.931777	0.000404	4.038458	1.368266	0.032265
1887	9.4300e-01	-4.5977	-49.653493	0.000697	6.966339	2.360260	0.055657
1888	9.4350e-01	-4.5464	-49.451839	0.000505	5.048072	1.710333	0.040331
1889	9.4400e-01	-4.5015	-49.084827	0.000919	9.187491	3.112806	0.073402
1890	9.4450e-01	-4.4710	-48.709748	0.000939	9.389414	3.181219	0.075016
1891	9.4500e-01	-4.4325	-48.447597	0.000656	6.562493	2.223433	0.052430
1892	9.4550e-01	-4.3924	-48.104784	0.000858	8.581722	2.907566	0.068563
1893	9.4600e-01	-4.3523	-47.850698	0.000636	6.360571	2.155020	0.050817
1894	9.4650e-01	-4.3058	-47.645010	0.000515	5.149033	1.744540	0.041138
1895	9.4700e-01	-4.2785	-47.398991	0.000616	6.158648	2.086606	0.049204
1896	9.4750e-01	-4.2304	-47.310263	0.000222	2.221152	0.752547	0.017746
1897	9.4800e-01	-4.1967	-46.894854	0.001040	10.399028	3.523286	0.083082
1898	9.4850e-01	-4.1485	-46.717398	0.000444	4.442303	1.505093	0.035491
1899	9.4900e-01	-4.1116	-46.229393	0.001222	12.216334	4.139006	0.097601
1900	9.4950e-01	-4.0699	-45.987407	0.000606	6.057686	2.052400	0.048397
1901	9.5000e-01	-4.0330	-45.737355	0.000626	6.259609	2.120813	0.050010
1902	9.5050e-01	-3.9945	-45.374376	0.000909	9.086529	3.078600	0.072596
1903	9.5100e-01	-3.9512	-45.321946	0.000131	1.312499	0.444687	0.010486
1904	9.5150e-01	-3.9031	-45.164655	0.000394	3.937496	1.334060	0.031458
1905	9.5200e-01	-3.8662	-44.725047	0.001100	11.004797	3.728526	0.087922
1906	9.5250e-01	-3.8213	-44.390300	0.000838	8.379799	2.839153	0.066949
1907	9.5300e-01	-3.7908	-44.321737	0.000172	1.716344	0.581513	0.013713
1908	9.5350e-01	-3.7507	-43.882129	0.001100	11.004797	3.728526	0.087922
1909	9.5400e-01	-3.7122	-43.587713	0.000737	7.370185	2.497086	0.058883
1910	9.5450e-01	-3.6689	-43.369926	0.000545	5.451918	1.847160	0.043557
1911	9.5500e-01	-3.6208	-43.043245	0.000818	8.177876	2.770740	0.065336
1912	9.5550e-01	-3.5855	-42.881921	0.000404	4.038458	1.368266	0.032265
1913	9.5600e-01	-3.5389	-42.478611	0.001010	10.096144	3.420666	0.080662
1914	9.5650e-01	-3.5020	-42.385850	0.000232	2.322113	0.786753	0.018552
1915	9.5700e-01	-3.4651	-41.922043	0.001161	11.610565	3.933766	0.092761
1916	9.5750e-01	-3.4298	-41.716355	0.000515	5.149033	1.744540	0.041138
1917	9.5800e-01	-3.3962	-41.143655	0.001434	14.336524	4.857346	0.114540
1918	9.5850e-01	-3.3528	-40.970232	0.000434	4.341342	1.470886	0.034685
1919	9.5900e-01	-3.3127	-40.704048	0.000666	6.663455	2.257640	0.053237
1920	9.5950e-01	-3.2726	-40.405598	0.000747	7.471146	2.531293	0.059690
1921	9.6000e-01	-3.2277	-40.034553	0.000929	9.288452	3.147013	0.074209
1922	9.6050e-01	-3.1860	-39.921627	0.000283	2.826920	0.957787	0.022585
1923	9.6100e-01	-3.1603	-39.429588	0.001232	12.317295	4.173213	0.098408
1924	9.6150e-01	-3.1138	-39.106941	0.000808	8.076915	2.736533	0.064530
1925	9.6200e-01	-3.0609	-39.094841	0.000030	0.302884	0.102620	0.002420
1926	9.6250e-01	-3.0336	-38.836723	0.000646	6.461532	2.189226	0.051624
1927	9.6300e-01	-2.9871	-38.397115	0.001100	11.004797	3.728526	0.087922
1928	9.6350e-01	-2.9406	-38.219659	0.000444	4.442303	1.505093	0.035491
1929	9.6400e-01	-2.9165	-38.086567	0.000333	3.331727	1.128820	0.026618
1930	9.6450e-01	-2.8732	-37.566297	0.001302	13.024025	4.412659	0.104054
1931	9.6500e-01	-2.8283	-37.223484	0.000858	8.581722	2.907566	0.068563
1932	9.6550e-01	-2.7882	-37.134755	0.000222	2.221152	0.752547	0.017746
1933	9.6600e-01	-2.7481	-36.618519	0.001292	12.923064	4.378453	0.103247
1934	9.6650e-01	-2.7047	-36.420897	0.000495	4.947110	1.676126	0.039524
1935	9.6700e-01	-2.6710	-36.195043	0.000565	5.653841	1.915573	0.045171
1936	9.6750e-01	-2.6277	-35.815932	0.000949	9.490375	3.215426	0.075822
1937	9.6800e-01	-2.5908	-35.537648	0.000697	6.966339	2.360260	0.055657
1938	9.6850e-01	-2.5523	-35.186769	0.000878	8.783645	2.975980	0.070176
1939	9.6900e-01	-2.5219	-34.819757	0.000919	9.187491	3.112806	0.073402
1940	9.6950e-01	-2.4609	-34.476943	0.000858	8.581722	2.907566	0.068563
1941	9.7000e-01	-2.4208	-34.243024	0.000586	5.855763	1.983986	0.046784
1942	9.7050e-01	-2.3871	-33.992972	0.000626	6.259609	2.120813	0.050010
1943	9.7100e-01	-2.3502	-33.642092	0.000878	8.783645	2.975980	0.070176
1944	9.7150e-01	-2.2957	-33.436404	0.000515	5.149033	1.744540	0.041138
1945	9.7200e-01	-2.2700	-33.230716	0.000515	5.149033	1.744540	0.041138
1946	9.7250e-01	-2.2347	-32.762876	0.001171	11.711527	3.967973	0.093568
1947	9.7300e-01	-2.1946	-32.448295	0.000787	7.874992	2.668120	0.062916
1948	9.7350e-01	-2.1529	-32.226474	0.000555	5.552879	1.881366	0.044364
1949	9.7400e-01	-2.1048	-31.774767	0.001131	11.307681	3.831146	0.090341
1950	9.7450e-01	-2.0679	-31.435987	0.000848	8.480761	2.873360	0.067756
1951	9.7500e-01	-2.0310	-31.290796	0.000363	3.634612	1.231440	0.029038
1952	9.7550e-01	-1.9973	-30.891519	0.001000	9.995182	3.386459	0.079855
1953	9.7600e-01	-1.9556	-30.480143	0.001030	10.298067	3.489079	0.082275
1954	9.7650e-01	-1.9138	-30.347050	0.000333	3.331727	1.128820	0.026618
1955	9.7700e-01	-1.8593	-30.088932	0.000646	6.461532	2.189226	0.051624
1956	9.7750e-01	-1.8304	-29.592861	0.001242	12.418257	4.207419	0.099214
1957	9.7800e-01	-1.7951	-29.213750	0.000949	9.490375	3.215426	0.075822
1958	9.7850e-01	-1.7566	-29.036293	0.000444	4.442303	1.505093	0.035491
1959	9.7900e-01	-1.7101	-28.616851	0.001050	10.499990	3.557493	0.083888
1960	9.7950e-01	-1.6684	-28.382931	0.000586	5.855763	1.983986	0.046784
1961	9.8000e-01	-1.6299	-27.923158	0.001151	11.509604	3.899559	0.091955
1962	9.8050e-01	-1.5866	-27.894926	0.000071	0.706730	0.239447	0.005646
1963	9.8100e-01	-1.5481	-27.612610	0.000707	7.067301	2.394466	0.056463
1964	9.8150e-01	-1.5160	-27.181068	0.001080	10.802874	3.660113	0.086308
1965	9.8200e-01	-1.4775	-26.862453	0.000798	7.975954	2.702326	0.063723
1966	9.8250e-01	-1.4326	-26.285720	0.001444	14.437486	4.891553	0.115347
1967	9.8300e-01	-1.3877	-26.067933	0.000545	5.451918	1.847160	0.043557
1968	9.8350e-01	-1.3508	-25.648491	0.001050	10.499990	3.557493	0.083888
1969	9.8400e-01	-1.3187	-25.390372	0.000646	6.461532	2.189226	0.051624
1970	9.8450e-01	-1.2706	-25.350041	0.000101	1.009614	0.342067	0.008066
1971	9.8500e-01	-1.2224	-24.962864	0.000969	9.692298	3.283839	0.077435
1972	9.8550e-01	-1.1984	-24.555521	0.001020	10.197105	3.454873	0.081469
1973	9.8600e-01	-1.1502	-24.184476	0.000929	9.288452	3.147013	0.074209
1974	9.8650e-01	-1.1117	-23.886026	0.000747	7.471146	2.531293	0.059690
1975	9.8700e-01	-1.0684	-23.664206	0.000555	5.552879	1.881366	0.044364
1976	9.8750e-01	-1.0219	-23.248797	0.001040	10.399028	3.523286	0.083082
1977	9.8800e-01	-0.9898	-22.934215	0.000787	7.874992	2.668120	0.062916
1978	9.8850e-01	-0.9497	-22.571236	0.000909	9.086529	3.078600	0.072596
1979	9.8900e-01	-0.9096	-22.280853	0.000727	7.269224	2.462880	0.058077
1980	9.8950e-01	-0.8711	-22.010636	0.000676	6.764416	2.291846	0.054044
1981	9.9000e-01	-0.8246	-21.546829	0.001161	11.610565	3.933766	0.092761
1982	9.9050e-01	-0.7925	-21.119321	0.001070	10.701912	3.625906	0.085502
1983	9.9100e-01	-0.7412	-20.941864	0.000444	4.442303	1.505093	0.035491
1984	9.9150e-01	-0.7203	-20.449826	0.001232	12.317295	4.173213	0.098408
1985	9.9200e-01	-0.6722	-19.998119	0.001131	11.307681	3.831146	0.090341
1986	9.9250e-01	-0.6273	-19.699670	0.000747	7.471146	2.531293	0.059690
1987	9.9300e-01	-0.5871	-19.433486	0.000666	6.663455	2.257640	0.053237
1988	9.9350e-01	-0.5326	-19.143103	0.000727	7.269224	2.462880	0.058077
1989	9.9400e-01	-0.5101	-18.909183	0.000586	5.855763	1.983986	0.046784
1990	9.9450e-01	-0.4732	-18.429244	0.001201	12.014411	4.070593	0.095988
1991	9.9500e-01	-0.4331	-18.013835	0.001040	10.399028	3.523286	0.083082
1992	9.9550e-01	-0.3850	-17.763783	0.000626	6.259609	2.120813	0.050010
1993	9.9600e-01	-0.3529	-17.360473	0.001010	10.096144	3.420666	0.080662
1994	9.9650e-01	-0.3096	-17.029759	0.000828	8.278838	2.804946	0.066143
1995	9.9700e-01	-0.2711	-16.666780	0.000909	9.086529	3.078600	0.072596
1996	9.9750e-01	-0.2230	-16.469158	0.000495	4.947110	1.676126	0.039524
1997	9.9800e-01	-0.1877	-15.924690	0.001363	13.629794	4.617899	0.108894
1998	9.9850e-01	-0.1428	-15.573810	0.000878	8.783645	2.975980	0.070176
1999	9.9900e-01	-0.1203	-15.408453	0.000414	4.139419	1.402473	0.033071
2000	9.9950e-01	-0.0642	-15.154368	0.000636	6.360571	2.155020	0.050817
2001	1.0000e+00	-0.0273	-14.529238	0.000636	6.360571	2.155020	0.125026

Center data before PMax,+/-Pr and +/-Vc Calc.

PMax (uC/cm2):	1.25e+02
Pr (uC/cm2):	6.19e+00
-Pr (uC/cm2):	-1.45e+01
PLoss (uC/cm2):	-1.20e+01
Vc:	3.25e-01
-Vc:	-6.77e-01
C (Max-Eff) (nF):	6.26e-01
K (Eff):	2.12e+03
Vert. (+/-Pr) Shift (uC/cm2):	-4.17e+00
Horiz. Shift (+/-Vc):	-1.76e-01
Offset (uC/cm2):	2.49e+00

A (Loop Area - uC/cm2·Volts):	-1.32e-01



Hysteresis Version: 5.48.1 - Radiant Technologies, Inc., 1999 - 9/12/24

