»»»»»»»»»»»»»»»»»»»»»»»»»»»»»»»»»»»» Hysteresis ««««««««««««««««««««««««««««««««««««
»»»  Executed Version:	5.48.1
»»»  Vision Version:	5.48.4 (R)
»»»  Vision Compiled:	9/18/24
»»»  Driver Version:	5.47.0
»»»  Windows Version:	Windows 8 or 8.1
»»»  Processor Information:	x86 (AMD or Intel) - 32 Processors
»»»  Tester Name:	PMF21124-494 (100V)
»»»  Tester S/N:	PMF21124-494
»»»  Internal Amp Type:	100V RevK 270k
»»»  Internal Amp S/N:	iAB2-596/K     
»»»  Execution Count:	1
»»»»»»»»»»»»»»»»»»»»»»»»»»»»»»»»»»»»»»»»»»««««««««««««««««««««««««««««««««««««««««««

Stored:	6/4/2025 - 15:34:1
Configured:	06/04/25 01:46:06 PM
Executed:	06/04/25 03:33:23 PM

»»»»»»»»»»»»»»»»»»»»»»»»»»»»»»»»»»» Sample Info ««««««««««««««««««««««««««««««««««««
Sample Name:	
Lot Name:	
Wafer Name:	
Die Row/Column:	0/0
Capacitor Number:	0
Sample Area (cm2):	1.00e-04
Sample Thickness (microns):	3.00e-01

Amplifier:	Internal

»»»»»»»»»»»»»»»»»»»»»»»»»»»»»»»»»»» Tester Info «««««««««««««««««««««««««««««««««««
Tester Name:	PMF21124-494 (100V)
Tester Serial Number:	PMF21124-494
Return Signal Amp. Level:	0.19 [Index: 3]

»»»»»»»»»»»»»»»»»»»»»»»»»»»»»»»» Hysteresis Info ««««««««««««««««««««««««««««««««««
Task Name:	Hyst-37
Volts:	20.00
Field:	666.67 (kV/cm)
DCBias:	0.00
DCField:	0.00 (kV/cm)
Hysteresis Period (ms):	2.00e+02
Preset:	Enabled
Preset Delay (ms):	1.00e+03
Profile:	Standard Bipolar

»»»»»»»»»»»»»»»»»»»»»»»»»»»»»»»»»»»»»» Data «««««««««««««««««««««««««««««««««««««««
Points:	2009

Valid Data

Point	Time (ms)	Drive Voltage	Measured Polarization (uC/cm2)	Capacitance (uF)	Normalized Capacitance (uF/cm2)	Dielectric Constant	Instantaneous Current (mA)
   1	0.0000e+00	-0.0048	-8.657638	0.000172	1.722717	0.583672	0.000069
   2	9.9500e-02	0.0321	-8.589006	0.000172	1.722717	0.583672	0.000069
   3	1.9900e-01	0.0626	-8.451744	0.000345	3.445435	1.167345	0.000138
   4	2.9850e-01	0.1107	-8.314481	0.000345	3.445435	1.167345	0.000138
   5	3.9800e-01	0.1636	-8.205478	0.000274	2.736081	0.927009	0.000110
   6	4.9750e-01	0.1845	-8.076290	0.000324	3.242762	1.098678	0.000130
   7	5.9700e-01	0.2262	-7.930953	0.000365	3.648108	1.236012	0.000146
   8	6.9650e-01	0.2711	-7.761393	0.000426	4.256126	1.442014	0.000170
   9	7.9600e-01	0.3064	-7.636242	0.000314	3.141426	1.064344	0.000126
  10	8.9550e-01	0.3529	-7.486868	0.000375	3.749444	1.270346	0.000150
  11	9.9500e-01	0.3786	-7.321346	0.000415	4.154789	1.407681	0.000166
  12	1.0945e+00	0.4331	-7.184083	0.000345	3.445435	1.167345	0.000138
  13	1.1940e+00	0.4636	-6.998375	0.000466	4.661471	1.579349	0.000187
  14	1.2935e+00	0.5198	-6.836889	0.000405	4.053453	1.373347	0.000162
  15	1.3930e+00	0.5519	-6.723850	0.000284	2.837417	0.961343	0.000114
  16	1.4925e+00	0.5775	-6.538141	0.000466	4.661471	1.579349	0.000187
  17	1.5920e+00	0.6321	-6.380693	0.000395	3.952117	1.339013	0.000158
  18	1.6915e+00	0.6690	-6.199022	0.000456	4.560135	1.545015	0.000183
  19	1.7910e+00	0.7107	-6.013314	0.000466	4.661471	1.579349	0.000187
  20	1.8905e+00	0.7540	-5.867977	0.000365	3.648108	1.236012	0.000146
  21	1.9900e+00	0.7861	-5.702454	0.000415	4.154789	1.407681	0.000166
  22	2.0895e+00	0.8326	-5.520783	0.000456	4.560135	1.545015	0.000183
  23	2.1890e+00	0.8663	-5.375446	0.000365	3.648108	1.236012	0.000146
  24	2.2885e+00	0.9048	-5.205887	0.000426	4.256126	1.442014	0.000170
  25	2.3880e+00	0.9481	-5.048438	0.000395	3.952117	1.339013	0.000158
  26	2.4875e+00	0.9978	-4.834470	0.000537	5.370825	1.819685	0.000215
  27	2.5870e+00	1.0283	-4.644725	0.000476	4.762807	1.613683	0.000191
  28	2.6865e+00	1.0620	-4.479202	0.000415	4.154789	1.407681	0.000166
  29	2.7860e+00	1.1005	-4.297531	0.000456	4.560135	1.545015	0.000183
  30	2.8855e+00	1.1486	-4.127971	0.000426	4.256126	1.442014	0.000170
  31	2.9850e+00	1.1968	-3.950337	0.000446	4.458798	1.510682	0.000179
  32	3.0845e+00	1.2385	-3.764629	0.000466	4.661471	1.579349	0.000187
  33	3.1840e+00	1.2641	-3.619292	0.000365	3.648108	1.236012	0.000146
  34	3.2835e+00	1.2914	-3.377064	0.000608	6.080179	2.060021	0.000243
  35	3.3830e+00	1.3588	-3.239801	0.000345	3.445435	1.167345	0.000138
  36	3.4825e+00	1.3828	-3.025833	0.000537	5.370825	1.819685	0.000215
  37	3.5820e+00	1.4310	-2.819939	0.000517	5.168152	1.751017	0.000207
  38	3.6815e+00	1.4663	-2.654417	0.000415	4.154789	1.407681	0.000166
  39	3.7810e+00	1.5080	-2.496968	0.000395	3.952117	1.339013	0.000158
  40	3.8805e+00	1.5401	-2.274926	0.000557	5.573498	1.888352	0.000223
  41	3.9800e+00	1.5882	-2.101329	0.000436	4.357462	1.476348	0.000174
  42	4.0795e+00	1.6235	-1.903510	0.000497	4.965480	1.682350	0.000199
  43	4.1790e+00	1.6636	-1.737987	0.000415	4.154789	1.407681	0.000166
  44	4.2785e+00	1.7053	-1.556316	0.000456	4.560135	1.545015	0.000183
  45	4.3780e+00	1.7454	-1.338310	0.000547	5.472161	1.854018	0.000219
  46	4.4775e+00	1.7871	-1.120305	0.000547	5.472161	1.854018	0.000219
  47	4.5770e+00	1.8256	-0.950745	0.000426	4.256126	1.442014	0.000170
  48	4.6765e+00	1.8705	-0.748889	0.000507	5.066816	1.716684	0.000203
  49	4.7760e+00	1.9042	-0.559143	0.000476	4.762807	1.613683	0.000191
  50	4.8755e+00	1.9427	-0.345175	0.000537	5.370825	1.819685	0.000215
  51	4.9750e+00	1.9876	-0.175615	0.000426	4.256126	1.442014	0.000170
  52	5.0745e+00	2.0245	0.018167	0.000486	4.864143	1.648016	0.000195
  53	5.1740e+00	2.0679	0.220024	0.000507	5.066816	1.716684	0.000203
  54	5.2735e+00	2.1015	0.450141	0.000578	5.776170	1.957020	0.000231
  55	5.3730e+00	2.1417	0.676220	0.000567	5.674834	1.922686	0.000227
  56	5.4725e+00	2.1866	0.861928	0.000466	4.661471	1.579349	0.000187
  57	5.5720e+00	2.2170	1.031488	0.000426	4.256126	1.442014	0.000170
  58	5.6715e+00	2.2539	1.301976	0.000679	6.789534	2.300356	0.000272
  59	5.7710e+00	2.3005	1.483647	0.000456	4.560135	1.545015	0.000183
  60	5.8705e+00	2.3518	1.661281	0.000446	4.458798	1.510682	0.000179
  61	5.9700e+00	2.3887	1.875250	0.000537	5.370825	1.819685	0.000215
  62	6.0695e+00	2.4192	2.113441	0.000598	5.978843	2.025687	0.000239
  63	6.1690e+00	2.4657	2.315297	0.000507	5.066816	1.716684	0.000203
  64	6.2685e+00	2.5058	2.537340	0.000557	5.573498	1.888352	0.000223
  65	6.3680e+00	2.5411	2.714974	0.000446	4.458798	1.510682	0.000179
  66	6.4675e+00	2.5796	2.941053	0.000567	5.674834	1.922686	0.000227
  67	6.5670e+00	2.6245	3.146947	0.000517	5.168152	1.751017	0.000207
  68	6.6665e+00	2.6614	3.356878	0.000527	5.269489	1.785351	0.000211
  69	6.7660e+00	2.6999	3.595069	0.000598	5.978843	2.025687	0.000239
  70	6.8655e+00	2.7400	3.764629	0.000426	4.256126	1.442014	0.000170
  71	6.9650e+00	2.7769	4.014931	0.000628	6.282852	2.128688	0.000252
  72	7.0645e+00	2.8186	4.228900	0.000537	5.370825	1.819685	0.000215
  73	7.1640e+00	2.8652	4.398459	0.000426	4.256126	1.442014	0.000170
  74	7.2635e+00	2.9005	4.648762	0.000628	6.282852	2.128688	0.000252
  75	7.3630e+00	2.9438	4.842544	0.000486	4.864143	1.648016	0.000195
  76	7.4625e+00	2.9871	5.088810	0.000618	6.181516	2.094354	0.000248
  77	7.5620e+00	3.0160	5.298741	0.000527	5.269489	1.785351	0.000211
  78	7.6615e+00	3.0529	5.488486	0.000476	4.762807	1.613683	0.000191
  79	7.7610e+00	3.0994	5.726677	0.000598	5.978843	2.025687	0.000239
  80	7.8605e+00	3.1411	5.936608	0.000527	5.269489	1.785351	0.000211
  81	7.9600e+00	3.1764	6.122316	0.000466	4.661471	1.579349	0.000187
  82	8.0595e+00	3.2149	6.360507	0.000598	5.978843	2.025687	0.000239
  83	8.1590e+00	3.2566	6.574476	0.000537	5.370825	1.819685	0.000215
  84	8.2585e+00	3.2999	6.780369	0.000517	5.168152	1.751017	0.000207
  85	8.3580e+00	3.3416	7.006449	0.000567	5.674834	1.922686	0.000227
  86	8.4575e+00	3.3801	7.240603	0.000588	5.877507	1.991353	0.000235
  87	8.5570e+00	3.4122	7.438423	0.000497	4.965480	1.682350	0.000199
  88	8.6565e+00	3.4635	7.636242	0.000497	4.965480	1.682350	0.000199
  89	8.7560e+00	3.4892	7.878470	0.000608	6.080179	2.060021	0.000243
  90	8.8555e+00	3.5341	8.100513	0.000557	5.573498	1.888352	0.000223
  91	8.9550e+00	3.5823	8.326592	0.000567	5.674834	1.922686	0.000227
  92	9.0545e+00	3.6256	8.556709	0.000578	5.776170	1.957020	0.000231
  93	9.1540e+00	3.6528	8.758566	0.000507	5.066816	1.716684	0.000203
  94	9.2535e+00	3.7042	9.000794	0.000608	6.080179	2.060021	0.000243
  95	9.3530e+00	3.7347	9.162280	0.000405	4.053453	1.373347	0.000162
  96	9.4525e+00	3.7764	9.412582	0.000628	6.282852	2.128688	0.000252
  97	9.5520e+00	3.8309	9.630587	0.000547	5.472161	1.854018	0.000219
  98	9.6515e+00	3.8566	9.856667	0.000567	5.674834	1.922686	0.000227
  99	9.7510e+00	3.8983	10.074672	0.000547	5.472161	1.854018	0.000219
 100	9.8505e+00	3.9352	10.329012	0.000638	6.384188	2.163022	0.000256
 101	9.9500e+00	3.9753	10.522794	0.000486	4.864143	1.648016	0.000195
 102	1.0050e+01	4.0202	10.740800	0.000547	5.472161	1.854018	0.000219
 103	1.0149e+01	4.0555	10.999176	0.000649	6.485525	2.197355	0.000260
 104	1.0248e+01	4.1020	11.192959	0.000486	4.864143	1.648016	0.000195
 105	1.0348e+01	4.1357	11.415001	0.000557	5.573498	1.888352	0.000223
 106	1.0447e+01	4.1710	11.653192	0.000598	5.978843	2.025687	0.000239
 107	1.0547e+01	4.2127	11.851012	0.000497	4.965480	1.682350	0.000199
 108	1.0646e+01	4.2528	12.069017	0.000547	5.472161	1.854018	0.000219
 109	1.0746e+01	4.2945	12.331431	0.000659	6.586861	2.231689	0.000264
 110	1.0845e+01	4.3362	12.529251	0.000497	4.965480	1.682350	0.000199
 111	1.0945e+01	4.3747	12.771479	0.000608	6.080179	2.060021	0.000243
 112	1.1044e+01	4.4165	12.977373	0.000517	5.168152	1.751017	0.000207
 113	1.1144e+01	4.4485	13.175192	0.000497	4.965480	1.682350	0.000199
 114	1.1243e+01	4.4983	13.437606	0.000659	6.586861	2.231689	0.000264
 115	1.1343e+01	4.5368	13.687909	0.000628	6.282852	2.128688	0.000252
 116	1.1443e+01	4.5737	13.861506	0.000436	4.357462	1.476348	0.000174
 117	1.1542e+01	4.6106	14.127957	0.000669	6.688197	2.266023	0.000268
 118	1.1642e+01	4.6539	14.333850	0.000517	5.168152	1.751017	0.000207
 119	1.1741e+01	4.6972	14.559930	0.000567	5.674834	1.922686	0.000227
 120	1.1841e+01	4.7357	14.802158	0.000608	6.080179	2.060021	0.000243
 121	1.1940e+01	4.7742	15.008052	0.000517	5.168152	1.751017	0.000207
 122	1.2040e+01	4.8143	15.246243	0.000598	5.978843	2.025687	0.000239
 123	1.2139e+01	4.8480	15.464248	0.000547	5.472161	1.854018	0.000219
 124	1.2239e+01	4.8897	15.706477	0.000608	6.080179	2.060021	0.000243
 125	1.2338e+01	4.9330	15.920445	0.000537	5.370825	1.819685	0.000215
 126	1.2438e+01	4.9683	16.186896	0.000669	6.688197	2.266023	0.000268
 127	1.2537e+01	5.0100	16.388753	0.000507	5.066816	1.716684	0.000203
 128	1.2636e+01	5.0533	16.618869	0.000578	5.776170	1.957020	0.000231
 129	1.2736e+01	5.1015	16.848986	0.000578	5.776170	1.957020	0.000231
 130	1.2835e+01	5.1384	17.111400	0.000659	6.586861	2.231689	0.000264
 131	1.2935e+01	5.1769	17.293071	0.000456	4.560135	1.545015	0.000183
 132	1.3034e+01	5.2041	17.535299	0.000608	6.080179	2.060021	0.000243
 133	1.3134e+01	5.2410	17.765416	0.000578	5.776170	1.957020	0.000231
 134	1.3233e+01	5.2843	18.027830	0.000659	6.586861	2.231689	0.000264
 135	1.3333e+01	5.3325	18.237761	0.000527	5.269489	1.785351	0.000211
 136	1.3432e+01	5.3710	18.439617	0.000507	5.066816	1.716684	0.000203
 137	1.3532e+01	5.4143	18.665697	0.000567	5.674834	1.922686	0.000227
 138	1.3632e+01	5.4496	18.911962	0.000618	6.181516	2.094354	0.000248
 139	1.3731e+01	5.4993	19.129968	0.000547	5.472161	1.854018	0.000219
 140	1.3831e+01	5.5314	19.356047	0.000567	5.674834	1.922686	0.000227
 141	1.3930e+01	5.5763	19.586164	0.000578	5.776170	1.957020	0.000231
 142	1.4030e+01	5.6036	19.820318	0.000588	5.877507	1.991353	0.000235
 143	1.4129e+01	5.6453	20.050435	0.000578	5.776170	1.957020	0.000231
 144	1.4229e+01	5.6950	20.260366	0.000527	5.269489	1.785351	0.000211
 145	1.4328e+01	5.7351	20.502594	0.000608	6.080179	2.060021	0.000243
 146	1.4428e+01	5.7688	20.736748	0.000588	5.877507	1.991353	0.000235
 147	1.4527e+01	5.8121	20.962827	0.000567	5.674834	1.922686	0.000227
 148	1.4627e+01	5.8474	21.209093	0.000618	6.181516	2.094354	0.000248
 149	1.4726e+01	5.8956	21.423061	0.000537	5.370825	1.819685	0.000215
 150	1.4825e+01	5.9341	21.632992	0.000527	5.269489	1.785351	0.000211
 151	1.4925e+01	5.9661	21.863109	0.000578	5.776170	1.957020	0.000231
 152	1.5024e+01	6.0095	22.073040	0.000527	5.269489	1.785351	0.000211
 153	1.5124e+01	6.0464	22.307194	0.000588	5.877507	1.991353	0.000235
 154	1.5223e+01	6.0865	22.561533	0.000638	6.384188	2.163022	0.000256
 155	1.5323e+01	6.1266	22.771464	0.000527	5.269489	1.785351	0.000211
 156	1.5422e+01	6.1763	23.013692	0.000608	6.080179	2.060021	0.000243
 157	1.5522e+01	6.2084	23.239772	0.000567	5.674834	1.922686	0.000227
 158	1.5621e+01	6.2469	23.457777	0.000547	5.472161	1.854018	0.000219
 159	1.5721e+01	6.2918	23.655597	0.000497	4.965480	1.682350	0.000199
 160	1.5820e+01	6.3271	23.905899	0.000628	6.282852	2.128688	0.000252
 161	1.5920e+01	6.3608	24.144090	0.000598	5.978843	2.025687	0.000239
 162	1.6020e+01	6.4025	24.358058	0.000537	5.370825	1.819685	0.000215
 163	1.6119e+01	6.4522	24.612398	0.000638	6.384188	2.163022	0.000256
 164	1.6218e+01	6.4859	24.850589	0.000598	5.978843	2.025687	0.000239
 165	1.6318e+01	6.5260	25.056483	0.000517	5.168152	1.751017	0.000207
 166	1.6418e+01	6.5645	25.306785	0.000628	6.282852	2.128688	0.000252
 167	1.6517e+01	6.6078	25.528828	0.000557	5.573498	1.888352	0.000223
 168	1.6616e+01	6.6495	25.758945	0.000578	5.776170	1.957020	0.000231
 169	1.6716e+01	6.6800	25.956764	0.000497	4.965480	1.682350	0.000199
 170	1.6816e+01	6.7298	26.178807	0.000557	5.573498	1.888352	0.000223
 171	1.6915e+01	6.7618	26.421035	0.000608	6.080179	2.060021	0.000243
 172	1.7015e+01	6.8068	26.671337	0.000628	6.282852	2.128688	0.000252
 173	1.7114e+01	6.8453	26.893380	0.000557	5.573498	1.888352	0.000223
 174	1.7213e+01	6.8854	27.131571	0.000598	5.978843	2.025687	0.000239
 175	1.7313e+01	6.9287	27.329390	0.000497	4.965480	1.682350	0.000199
 176	1.7413e+01	6.9592	27.575656	0.000618	6.181516	2.094354	0.000248
 177	1.7512e+01	6.9945	27.813847	0.000598	5.978843	2.025687	0.000239
 178	1.7611e+01	7.0506	28.052038	0.000598	5.978843	2.025687	0.000239
 179	1.7711e+01	7.0795	28.261969	0.000527	5.269489	1.785351	0.000211
 180	1.7811e+01	7.1212	28.467863	0.000517	5.168152	1.751017	0.000207
 181	1.7910e+01	7.1613	28.730276	0.000659	6.586861	2.231689	0.000264
 182	1.8009e+01	7.1966	28.960393	0.000578	5.776170	1.957020	0.000231
 183	1.8109e+01	7.2543	29.198584	0.000598	5.978843	2.025687	0.000239
 184	1.8209e+01	7.2864	29.408515	0.000527	5.269489	1.785351	0.000211
 185	1.8308e+01	7.3249	29.695152	0.000719	7.194879	2.437691	0.000288
 186	1.8407e+01	7.3634	29.909120	0.000537	5.370825	1.819685	0.000215
 187	1.8507e+01	7.4035	30.131163	0.000557	5.573498	1.888352	0.000223
 188	1.8607e+01	7.4420	30.353205	0.000557	5.573498	1.888352	0.000223
 189	1.8706e+01	7.4821	30.563136	0.000527	5.269489	1.785351	0.000211
 190	1.8805e+01	7.5206	30.849773	0.000719	7.194879	2.437691	0.000288
 191	1.8905e+01	7.5656	31.063741	0.000537	5.370825	1.819685	0.000215
 192	1.9005e+01	7.5960	31.277709	0.000537	5.370825	1.819685	0.000215
 193	1.9104e+01	7.6474	31.568383	0.000730	7.296215	2.472025	0.000292
 194	1.9203e+01	7.6827	31.717757	0.000375	3.749444	1.270346	0.000150
 195	1.9303e+01	7.7132	31.968059	0.000628	6.282852	2.128688	0.000252
 196	1.9402e+01	7.7645	32.202213	0.000588	5.877507	1.991353	0.000235
 197	1.9502e+01	7.8030	32.448478	0.000618	6.181516	2.094354	0.000248
 198	1.9602e+01	7.8415	32.654372	0.000517	5.168152	1.751017	0.000207
 199	1.9701e+01	7.8864	32.884489	0.000578	5.776170	1.957020	0.000231
 200	1.9800e+01	7.9185	33.154977	0.000679	6.789534	2.300356	0.000272
 201	1.9900e+01	7.9634	33.389131	0.000588	5.877507	1.991353	0.000235
 202	2.0000e+01	8.0019	33.595025	0.000517	5.168152	1.751017	0.000207
 203	2.0099e+01	8.0420	33.825142	0.000578	5.776170	1.957020	0.000231
 204	2.0198e+01	8.0773	34.063333	0.000598	5.978843	2.025687	0.000239
 205	2.0298e+01	8.1206	34.265190	0.000507	5.066816	1.716684	0.000203
 206	2.0398e+01	8.1639	34.543752	0.000699	6.992206	2.369024	0.000280
 207	2.0497e+01	8.1944	34.713312	0.000426	4.256126	1.442014	0.000170
 208	2.0596e+01	8.2425	34.975725	0.000659	6.586861	2.231689	0.000264
 209	2.0696e+01	8.2827	35.209879	0.000588	5.877507	1.991353	0.000235
 210	2.0796e+01	8.3115	35.427885	0.000547	5.472161	1.854018	0.000219
 211	2.0895e+01	8.3597	35.686261	0.000649	6.485525	2.197355	0.000260
 212	2.0994e+01	8.3950	35.908304	0.000557	5.573498	1.888352	0.000223
 213	2.1094e+01	8.4399	36.118235	0.000527	5.269489	1.785351	0.000211
 214	2.1194e+01	8.4864	36.372574	0.000638	6.384188	2.163022	0.000256
 215	2.1293e+01	8.5169	36.578468	0.000517	5.168152	1.751017	0.000207
 216	2.1392e+01	8.5602	36.820696	0.000608	6.080179	2.060021	0.000243
 217	2.1492e+01	8.5955	37.042739	0.000557	5.573498	1.888352	0.000223
 218	2.1591e+01	8.6388	37.260744	0.000547	5.472161	1.854018	0.000219
 219	2.1691e+01	8.6837	37.523158	0.000659	6.586861	2.231689	0.000264
 220	2.1791e+01	8.7158	37.761349	0.000598	5.978843	2.025687	0.000239
 221	2.1890e+01	8.7543	37.959169	0.000497	4.965480	1.682350	0.000199
 222	2.1989e+01	8.8088	38.169100	0.000527	5.269489	1.785351	0.000211
 223	2.2089e+01	8.8473	38.483996	0.000790	7.904233	2.678027	0.000316
 224	2.2189e+01	8.8794	38.706039	0.000557	5.573498	1.888352	0.000223
 225	2.2288e+01	8.9179	38.915970	0.000527	5.269489	1.785351	0.000211
 226	2.2387e+01	8.9532	39.158198	0.000608	6.080179	2.060021	0.000243
 227	2.2487e+01	8.9949	39.428686	0.000679	6.789534	2.300356	0.000272
 228	2.2587e+01	9.0334	39.662840	0.000588	5.877507	1.991353	0.000235
 229	2.2686e+01	9.0784	39.909105	0.000618	6.181516	2.094354	0.000248
 230	2.2785e+01	9.1136	40.090776	0.000456	4.560135	1.545015	0.000183
 231	2.2885e+01	9.1586	40.312819	0.000557	5.573498	1.888352	0.000223
 232	2.2985e+01	9.2019	40.583307	0.000679	6.789534	2.300356	0.000272
 233	2.3084e+01	9.2372	40.801312	0.000547	5.472161	1.854018	0.000219
 234	2.3183e+01	9.2869	41.031429	0.000578	5.776170	1.957020	0.000231
 235	2.3283e+01	9.3206	41.293843	0.000659	6.586861	2.231689	0.000264
 236	2.3383e+01	9.3543	41.515885	0.000557	5.573498	1.888352	0.000223
 237	2.3482e+01	9.3944	41.758114	0.000608	6.080179	2.060021	0.000243
 238	2.3581e+01	9.4409	41.980156	0.000557	5.573498	1.888352	0.000223
 239	2.3681e+01	9.4746	42.250644	0.000679	6.789534	2.300356	0.000272
 240	2.3780e+01	9.5147	42.436352	0.000466	4.661471	1.579349	0.000187
 241	2.3880e+01	9.5516	42.670506	0.000588	5.877507	1.991353	0.000235
 242	2.3980e+01	9.5997	42.940994	0.000679	6.789534	2.300356	0.000272
 243	2.4079e+01	9.6350	43.154962	0.000537	5.370825	1.819685	0.000215
 244	2.4178e+01	9.6799	43.377005	0.000557	5.573498	1.888352	0.000223
 245	2.4278e+01	9.7168	43.643456	0.000669	6.688197	2.266023	0.000268
 246	2.4378e+01	9.7505	43.833201	0.000476	4.762807	1.613683	0.000191
 247	2.4477e+01	9.7954	44.079467	0.000618	6.181516	2.094354	0.000248
 248	2.4576e+01	9.8339	44.301509	0.000557	5.573498	1.888352	0.000223
 249	2.4676e+01	9.8628	44.576034	0.000689	6.890870	2.334690	0.000276
 250	2.4776e+01	9.9238	44.761742	0.000466	4.661471	1.579349	0.000187
 251	2.4875e+01	9.9559	44.995896	0.000588	5.877507	1.991353	0.000235
 252	2.4974e+01	9.9928	45.242162	0.000618	6.181516	2.094354	0.000248
 253	2.5074e+01	10.0265	45.480353	0.000598	5.978843	2.025687	0.000239
 254	2.5174e+01	10.0746	45.690284	0.000527	5.269489	1.785351	0.000211
 255	2.5273e+01	10.1115	45.924438	0.000588	5.877507	1.991353	0.000235
 256	2.5372e+01	10.1532	46.186851	0.000659	6.586861	2.231689	0.000264
 257	2.5472e+01	10.1997	46.364485	0.000446	4.458798	1.510682	0.000179
 258	2.5572e+01	10.2318	46.655159	0.000730	7.296215	2.472025	0.000292
 259	2.5671e+01	10.2767	46.881239	0.000567	5.674834	1.922686	0.000227
 260	2.5770e+01	10.3184	47.123467	0.000608	6.080179	2.060021	0.000243
 261	2.5870e+01	10.3489	47.345509	0.000557	5.573498	1.888352	0.000223
 262	2.5970e+01	10.3890	47.547366	0.000507	5.066816	1.716684	0.000203
 263	2.6069e+01	10.4355	47.801706	0.000638	6.384188	2.163022	0.000256
 264	2.6169e+01	10.4644	48.027785	0.000567	5.674834	1.922686	0.000227
 265	2.6268e+01	10.5157	48.249828	0.000557	5.573498	1.888352	0.000223
 266	2.6367e+01	10.5414	48.496093	0.000618	6.181516	2.094354	0.000248
 267	2.6467e+01	10.5927	48.746395	0.000628	6.282852	2.128688	0.000252
 268	2.6567e+01	10.6361	48.976512	0.000578	5.776170	1.957020	0.000231
 269	2.6666e+01	10.6633	49.174332	0.000497	4.965480	1.682350	0.000199
 270	2.6765e+01	10.7131	49.428671	0.000638	6.384188	2.163022	0.000256
 271	2.6865e+01	10.7419	49.662825	0.000588	5.877507	1.991353	0.000235
 272	2.6965e+01	10.8013	49.884868	0.000557	5.573498	1.888352	0.000223
 273	2.7064e+01	10.8318	50.143244	0.000649	6.485525	2.197355	0.000260
 274	2.7163e+01	10.8671	50.353175	0.000527	5.269489	1.785351	0.000211
 275	2.7263e+01	10.9088	50.559069	0.000517	5.168152	1.751017	0.000207
 276	2.7363e+01	10.9409	50.809372	0.000628	6.282852	2.128688	0.000252
 277	2.7462e+01	10.9954	51.039489	0.000578	5.776170	1.957020	0.000231
 278	2.7561e+01	11.0275	51.265568	0.000567	5.674834	1.922686	0.000227
 279	2.7661e+01	11.0708	51.503759	0.000598	5.978843	2.025687	0.000239
 280	2.7761e+01	11.1109	51.758099	0.000638	6.384188	2.163022	0.000256
 281	2.7860e+01	11.1414	51.984178	0.000567	5.674834	1.922686	0.000227
 282	2.7959e+01	11.1911	52.198147	0.000537	5.370825	1.819685	0.000215
 283	2.8059e+01	11.2264	52.440375	0.000608	6.080179	2.060021	0.000243
 284	2.8159e+01	11.2697	52.678566	0.000598	5.978843	2.025687	0.000239
 285	2.8258e+01	11.3114	52.872348	0.000486	4.864143	1.648016	0.000195
 286	2.8358e+01	11.3419	53.118613	0.000618	6.181516	2.094354	0.000248
 287	2.8457e+01	11.3949	53.401213	0.000709	7.093543	2.403357	0.000284
 288	2.8556e+01	11.4205	53.574810	0.000436	4.357462	1.476348	0.000174
 289	2.8656e+01	11.4687	53.877595	0.000760	7.600224	2.575026	0.000304
 290	2.8756e+01	11.5168	54.067340	0.000476	4.762807	1.613683	0.000191
 291	2.8855e+01	11.5457	54.321680	0.000638	6.384188	2.163022	0.000256
 292	2.8954e+01	11.5906	54.535648	0.000537	5.370825	1.819685	0.000215
 293	2.9054e+01	11.6291	54.753653	0.000547	5.472161	1.854018	0.000219
 294	2.9154e+01	11.6756	54.995882	0.000608	6.080179	2.060021	0.000243
 295	2.9253e+01	11.7125	55.221961	0.000567	5.674834	1.922686	0.000227
 296	2.9352e+01	11.7446	55.435929	0.000537	5.370825	1.819685	0.000215
 297	2.9452e+01	11.7863	55.666046	0.000578	5.776170	1.957020	0.000231
 298	2.9552e+01	11.8296	55.920386	0.000638	6.384188	2.163022	0.000256
 299	2.9651e+01	11.8649	56.146465	0.000567	5.674834	1.922686	0.000227
 300	2.9750e+01	11.9018	56.396768	0.000628	6.282852	2.128688	0.000252
 301	2.9850e+01	11.9435	56.647070	0.000628	6.282852	2.128688	0.000252
 302	2.9950e+01	11.9852	56.820667	0.000436	4.357462	1.476348	0.000174
 303	3.0049e+01	12.0301	57.079044	0.000649	6.485525	2.197355	0.000260
 304	3.0148e+01	12.0622	57.321272	0.000608	6.080179	2.060021	0.000243
 305	3.0248e+01	12.1120	57.523129	0.000507	5.066816	1.716684	0.000203
 306	3.0348e+01	12.1489	57.749208	0.000567	5.674834	1.922686	0.000227
 307	3.0447e+01	12.1858	58.003548	0.000638	6.384188	2.163022	0.000256
 308	3.0547e+01	12.2275	58.205405	0.000507	5.066816	1.716684	0.000203
 309	3.0646e+01	12.2692	58.463781	0.000649	6.485525	2.197355	0.000260
 310	3.0745e+01	12.3109	58.629304	0.000415	4.154789	1.407681	0.000166
 311	3.0845e+01	12.3462	58.879606	0.000628	6.282852	2.128688	0.000252
 312	3.0945e+01	12.3799	59.129909	0.000628	6.282852	2.128688	0.000252
 313	3.1044e+01	12.4248	59.347914	0.000547	5.472161	1.854018	0.000219
 314	3.1143e+01	12.4681	59.541696	0.000486	4.864143	1.648016	0.000195
 315	3.1243e+01	12.4954	59.824296	0.000709	7.093543	2.403357	0.000284
 316	3.1343e+01	12.5419	60.001930	0.000446	4.458798	1.510682	0.000179
 317	3.1442e+01	12.5756	60.268381	0.000669	6.688197	2.266023	0.000268
 318	3.1541e+01	12.6301	60.478312	0.000527	5.269489	1.785351	0.000211
 319	3.1641e+01	12.6702	60.748800	0.000679	6.789534	2.300356	0.000272
 320	3.1741e+01	12.7071	60.934508	0.000466	4.661471	1.579349	0.000187
 321	3.1840e+01	12.7472	61.160588	0.000567	5.674834	1.922686	0.000227
 322	3.1939e+01	12.7873	61.418965	0.000649	6.485525	2.197355	0.000260
 323	3.2039e+01	12.8210	61.596599	0.000446	4.458798	1.510682	0.000179
 324	3.2139e+01	12.8547	61.818641	0.000557	5.573498	1.888352	0.000223
 325	3.2238e+01	12.8996	62.056832	0.000598	5.978843	2.025687	0.000239
 326	3.2337e+01	12.9365	62.303097	0.000618	6.181516	2.094354	0.000248
 327	3.2437e+01	12.9798	62.525140	0.000557	5.573498	1.888352	0.000223
 328	3.2536e+01	13.0200	62.787554	0.000659	6.586861	2.231689	0.000264
 329	3.2636e+01	13.0536	62.989410	0.000507	5.066816	1.716684	0.000203
 330	3.2736e+01	13.0921	63.195304	0.000517	5.168152	1.751017	0.000207
 331	3.2835e+01	13.1339	63.437532	0.000608	6.080179	2.060021	0.000243
 332	3.2934e+01	13.1740	63.663612	0.000567	5.674834	1.922686	0.000227
 333	3.3034e+01	13.2221	63.905840	0.000608	6.080179	2.060021	0.000243
 334	3.3133e+01	13.2542	64.152105	0.000618	6.181516	2.094354	0.000248
 335	3.3233e+01	13.3007	64.353962	0.000507	5.066816	1.716684	0.000203
 336	3.3333e+01	13.3440	64.608302	0.000638	6.384188	2.163022	0.000256
 337	3.3432e+01	13.3745	64.810159	0.000507	5.066816	1.716684	0.000203
 338	3.3532e+01	13.4178	65.052387	0.000608	6.080179	2.060021	0.000243
 339	3.3631e+01	13.4595	65.266355	0.000537	5.370825	1.819685	0.000215
 340	3.3730e+01	13.4884	65.508583	0.000608	6.080179	2.060021	0.000243
 341	3.3830e+01	13.5429	65.698328	0.000476	4.762807	1.613683	0.000191
 342	3.3929e+01	13.5830	65.980928	0.000709	7.093543	2.403357	0.000284
 343	3.4029e+01	13.6183	66.174710	0.000486	4.864143	1.648016	0.000195
 344	3.4129e+01	13.6568	66.392716	0.000547	5.472161	1.854018	0.000219
 345	3.4228e+01	13.6921	66.638981	0.000618	6.181516	2.094354	0.000248
 346	3.4328e+01	13.7338	66.844875	0.000517	5.168152	1.751017	0.000207
 347	3.4427e+01	13.7723	67.087103	0.000608	6.080179	2.060021	0.000243
 348	3.4526e+01	13.8092	67.297034	0.000527	5.269489	1.785351	0.000211
 349	3.4626e+01	13.8509	67.555411	0.000649	6.485525	2.197355	0.000260
 350	3.4725e+01	13.9007	67.765342	0.000527	5.269489	1.785351	0.000211
 351	3.4825e+01	13.9344	68.007570	0.000608	6.080179	2.060021	0.000243
 352	3.4925e+01	13.9825	68.225575	0.000547	5.472161	1.854018	0.000219
 353	3.5024e+01	14.0098	68.447618	0.000557	5.573498	1.888352	0.000223
 354	3.5123e+01	14.0531	68.701957	0.000638	6.384188	2.163022	0.000256
 355	3.5223e+01	14.0980	68.891703	0.000476	4.762807	1.613683	0.000191
 356	3.5322e+01	14.1317	69.129894	0.000598	5.978843	2.025687	0.000239
 357	3.5422e+01	14.1750	69.360011	0.000578	5.776170	1.957020	0.000231
 358	3.5522e+01	14.2055	69.573979	0.000537	5.370825	1.819685	0.000215
 359	3.5621e+01	14.2536	69.804095	0.000578	5.776170	1.957020	0.000231
 360	3.5721e+01	14.2969	70.082658	0.000699	6.992206	2.369024	0.000280
 361	3.5820e+01	14.3338	70.308737	0.000567	5.674834	1.922686	0.000227
 362	3.5919e+01	14.3723	70.486371	0.000446	4.458798	1.510682	0.000179
 363	3.6019e+01	14.4188	70.740711	0.000638	6.384188	2.163022	0.000256
 364	3.6118e+01	14.4525	70.958716	0.000547	5.472161	1.854018	0.000219
 365	3.6218e+01	14.4846	71.152499	0.000486	4.864143	1.648016	0.000195
 366	3.6318e+01	14.5392	71.439135	0.000719	7.194879	2.437691	0.000288
 367	3.6417e+01	14.5841	71.608695	0.000426	4.256126	1.442014	0.000170
 368	3.6517e+01	14.6097	71.867072	0.000649	6.485525	2.197355	0.000260
 369	3.6616e+01	14.6466	72.077003	0.000527	5.269489	1.785351	0.000211
 370	3.6715e+01	14.6964	72.307120	0.000578	5.776170	1.957020	0.000231
 371	3.6815e+01	14.7365	72.529162	0.000557	5.573498	1.888352	0.000223
 372	3.6914e+01	14.7718	72.755242	0.000567	5.674834	1.922686	0.000227
 373	3.7014e+01	14.8135	72.973247	0.000547	5.472161	1.854018	0.000219
 374	3.7114e+01	14.8536	73.211438	0.000598	5.978843	2.025687	0.000239
 375	3.7213e+01	14.8905	73.441555	0.000578	5.776170	1.957020	0.000231
 376	3.7313e+01	14.9386	73.659560	0.000547	5.472161	1.854018	0.000219
 377	3.7412e+01	14.9755	73.853343	0.000486	4.864143	1.648016	0.000195
 378	3.7511e+01	15.0140	74.111719	0.000649	6.485525	2.197355	0.000260
 379	3.7611e+01	15.0541	74.325688	0.000537	5.370825	1.819685	0.000215
 380	3.7711e+01	15.0958	74.539656	0.000537	5.370825	1.819685	0.000215
 381	3.7810e+01	15.1263	74.717290	0.000446	4.458798	1.510682	0.000179
 382	3.7910e+01	15.1825	74.979703	0.000659	6.586861	2.231689	0.000264
 383	3.8009e+01	15.2081	75.217895	0.000598	5.978843	2.025687	0.000239
 384	3.8108e+01	15.2595	75.423788	0.000517	5.168152	1.751017	0.000207
 385	3.8208e+01	15.2835	75.657942	0.000588	5.877507	1.991353	0.000235
 386	3.8307e+01	15.3252	75.924393	0.000669	6.688197	2.266023	0.000268
 387	3.8407e+01	15.3862	76.110102	0.000466	4.661471	1.579349	0.000187
 388	3.8507e+01	15.4087	76.352330	0.000608	6.080179	2.060021	0.000243
 389	3.8606e+01	15.4520	76.542075	0.000476	4.762807	1.613683	0.000191
 390	3.8706e+01	15.4969	76.788340	0.000618	6.181516	2.094354	0.000248
 391	3.8805e+01	15.5226	77.030568	0.000608	6.080179	2.060021	0.000243
 392	3.8904e+01	15.5707	77.236462	0.000517	5.168152	1.751017	0.000207
 393	3.9004e+01	15.6076	77.490802	0.000638	6.384188	2.163022	0.000256
 394	3.9103e+01	15.6509	77.720919	0.000578	5.776170	1.957020	0.000231
 395	3.9203e+01	15.6862	77.918738	0.000497	4.965480	1.682350	0.000199
 396	3.9303e+01	15.7183	78.193264	0.000689	6.890870	2.334690	0.000276
 397	3.9402e+01	15.7696	78.407232	0.000537	5.370825	1.819685	0.000215
 398	3.9502e+01	15.8049	78.617163	0.000527	5.269489	1.785351	0.000211
 399	3.9601e+01	15.8402	78.827094	0.000527	5.269489	1.785351	0.000211
 400	3.9700e+01	15.8947	79.069322	0.000608	6.080179	2.060021	0.000243
 401	3.9800e+01	15.9236	79.307513	0.000598	5.978843	2.025687	0.000239
 402	3.9900e+01	15.9669	79.529555	0.000557	5.573498	1.888352	0.000223
 403	3.9999e+01	16.0167	79.755635	0.000567	5.674834	1.922686	0.000227
 404	4.0099e+01	16.0471	79.949418	0.000486	4.864143	1.648016	0.000195
 405	4.0198e+01	16.0856	80.252203	0.000760	7.600224	2.575026	0.000304
 406	4.0297e+01	16.1290	80.425800	0.000436	4.357462	1.476348	0.000174
 407	4.0397e+01	16.1626	80.643805	0.000547	5.472161	1.854018	0.000219
 408	4.0496e+01	16.2044	80.902182	0.000649	6.485525	2.197355	0.000260
 409	4.0596e+01	16.2493	81.116150	0.000537	5.370825	1.819685	0.000215
 410	4.0696e+01	16.2894	81.358378	0.000608	6.080179	2.060021	0.000243
 411	4.0795e+01	16.3134	81.616755	0.000649	6.485525	2.197355	0.000260
 412	4.0895e+01	16.3616	81.802463	0.000466	4.661471	1.579349	0.000187
 413	4.0994e+01	16.4145	82.004320	0.000507	5.066816	1.716684	0.000203
 414	4.1093e+01	16.4418	82.258659	0.000638	6.384188	2.163022	0.000256
 415	4.1193e+01	16.4915	82.504925	0.000618	6.181516	2.094354	0.000248
 416	4.1292e+01	16.5236	82.698707	0.000486	4.864143	1.648016	0.000195
 417	4.1392e+01	16.5685	82.936898	0.000598	5.978843	2.025687	0.000239
 418	4.1492e+01	16.6102	83.167015	0.000578	5.776170	1.957020	0.000231
 419	4.1591e+01	16.6455	83.364834	0.000497	4.965480	1.682350	0.000199
 420	4.1691e+01	16.6840	83.619174	0.000638	6.384188	2.163022	0.000256
 421	4.1790e+01	16.7289	83.841216	0.000557	5.573498	1.888352	0.000223
 422	4.1889e+01	16.7755	84.071333	0.000578	5.776170	1.957020	0.000231
 423	4.1989e+01	16.8043	84.297413	0.000567	5.674834	1.922686	0.000227
 424	4.2089e+01	16.8428	84.499270	0.000507	5.066816	1.716684	0.000203
 425	4.2188e+01	16.8894	84.733423	0.000588	5.877507	1.991353	0.000235
 426	4.2288e+01	16.9295	84.951429	0.000547	5.472161	1.854018	0.000219
 427	4.2387e+01	16.9664	85.173471	0.000557	5.573498	1.888352	0.000223
 428	4.2486e+01	17.0033	85.395514	0.000557	5.573498	1.888352	0.000223
 429	4.2586e+01	17.0514	85.645816	0.000628	6.282852	2.128688	0.000252
 430	4.2685e+01	17.0803	85.879970	0.000588	5.877507	1.991353	0.000235
 431	4.2785e+01	17.1124	86.069715	0.000476	4.762807	1.613683	0.000191
 432	4.2885e+01	17.1621	86.315981	0.000618	6.181516	2.094354	0.000248
 433	4.2984e+01	17.1974	86.529949	0.000537	5.370825	1.819685	0.000215
 434	4.3084e+01	17.2407	86.756028	0.000567	5.674834	1.922686	0.000227
 435	4.3183e+01	17.2904	87.018442	0.000659	6.586861	2.231689	0.000264
 436	4.3282e+01	17.3273	87.212225	0.000486	4.864143	1.648016	0.000195
 437	4.3382e+01	17.3546	87.393896	0.000456	4.560135	1.545015	0.000183
 438	4.3481e+01	17.4043	87.676495	0.000709	7.093543	2.403357	0.000284
 439	4.3581e+01	17.4492	87.902575	0.000567	5.674834	1.922686	0.000227
 440	4.3681e+01	17.4845	88.108469	0.000517	5.168152	1.751017	0.000207
 441	4.3780e+01	17.5230	88.318400	0.000527	5.269489	1.785351	0.000211
 442	4.3880e+01	17.5615	88.576777	0.000649	6.485525	2.197355	0.000260
 443	4.3979e+01	17.6065	88.782671	0.000517	5.168152	1.751017	0.000207
 444	4.4078e+01	17.6369	88.976453	0.000486	4.864143	1.648016	0.000195
 445	4.4178e+01	17.6851	89.234830	0.000649	6.485525	2.197355	0.000260
 446	4.4278e+01	17.7236	89.416501	0.000456	4.560135	1.545015	0.000183
 447	4.4377e+01	17.7685	89.670840	0.000638	6.384188	2.163022	0.000256
 448	4.4477e+01	17.8006	89.896920	0.000567	5.674834	1.922686	0.000227
 449	4.4576e+01	17.8407	90.159334	0.000659	6.586861	2.231689	0.000264
 450	4.4675e+01	17.8840	90.345042	0.000466	4.661471	1.579349	0.000187
 451	4.4775e+01	17.9209	90.599382	0.000638	6.384188	2.163022	0.000256
 452	4.4874e+01	17.9674	90.781053	0.000456	4.560135	1.545015	0.000183
 453	4.4974e+01	18.0027	91.035392	0.000638	6.384188	2.163022	0.000256
 454	4.5074e+01	18.0412	91.241286	0.000517	5.168152	1.751017	0.000207
 455	4.5173e+01	18.0861	91.491589	0.000628	6.282852	2.128688	0.000252
 456	4.5273e+01	18.1230	91.697483	0.000517	5.168152	1.751017	0.000207
 457	4.5372e+01	18.1551	91.931636	0.000588	5.877507	1.991353	0.000235
 458	4.5471e+01	18.2000	92.206162	0.000689	6.890870	2.334690	0.000276
 459	4.5571e+01	18.2385	92.408018	0.000507	5.066816	1.716684	0.000203
 460	4.5670e+01	18.2915	92.626024	0.000547	5.472161	1.854018	0.000219
 461	4.5770e+01	18.3187	92.848066	0.000557	5.573498	1.888352	0.000223
 462	4.5870e+01	18.3637	93.066072	0.000547	5.472161	1.854018	0.000219
 463	4.5969e+01	18.4038	93.304263	0.000598	5.978843	2.025687	0.000239
 464	4.6069e+01	18.4519	93.510157	0.000517	5.168152	1.751017	0.000207
 465	4.6168e+01	18.4872	93.752385	0.000608	6.080179	2.060021	0.000243
 466	4.6267e+01	18.5225	93.954241	0.000507	5.066816	1.716684	0.000203
 467	4.6367e+01	18.5674	94.220692	0.000669	6.688197	2.266023	0.000268
 468	4.6467e+01	18.5995	94.487143	0.000669	6.688197	2.266023	0.000268
 469	4.6566e+01	18.6396	94.652666	0.000415	4.154789	1.407681	0.000166
 470	4.6666e+01	18.6749	94.902968	0.000628	6.282852	2.128688	0.000252
 471	4.6765e+01	18.7166	95.137122	0.000588	5.877507	1.991353	0.000235
 472	4.6864e+01	18.7567	95.338979	0.000507	5.066816	1.716684	0.000203
 473	4.6964e+01	18.7984	95.589281	0.000628	6.282852	2.128688	0.000252
 474	4.7063e+01	18.8449	95.803250	0.000537	5.370825	1.819685	0.000215
 475	4.7163e+01	18.8754	95.992995	0.000476	4.762807	1.613683	0.000191
 476	4.7263e+01	18.9235	96.243297	0.000628	6.282852	2.128688	0.000252
 477	4.7362e+01	18.9556	96.441117	0.000497	4.965480	1.682350	0.000199
 478	4.7462e+01	18.9973	96.675271	0.000588	5.877507	1.991353	0.000235
 479	4.7561e+01	19.0406	96.905388	0.000578	5.776170	1.957020	0.000231
 480	4.7660e+01	19.0711	97.139542	0.000588	5.877507	1.991353	0.000235
 481	4.7760e+01	19.1080	97.373695	0.000588	5.877507	1.991353	0.000235
 482	4.7859e+01	19.1594	97.595738	0.000557	5.573498	1.888352	0.000223
 483	4.7959e+01	19.2043	97.805669	0.000527	5.269489	1.785351	0.000211
 484	4.8059e+01	19.2396	98.043860	0.000598	5.978843	2.025687	0.000239
 485	4.8158e+01	19.2765	98.225531	0.000456	4.560135	1.545015	0.000183
 486	4.8258e+01	19.3166	98.459685	0.000588	5.877507	1.991353	0.000235
 487	4.8357e+01	19.3615	98.677690	0.000547	5.472161	1.854018	0.000219
 488	4.8456e+01	19.3984	98.936067	0.000649	6.485525	2.197355	0.000260
 489	4.8556e+01	19.4289	99.129849	0.000486	4.864143	1.648016	0.000195
 490	4.8656e+01	19.4754	99.364003	0.000588	5.877507	1.991353	0.000235
 491	4.8755e+01	19.5155	99.594120	0.000578	5.776170	1.957020	0.000231
 492	4.8855e+01	19.5588	99.804051	0.000527	5.269489	1.785351	0.000211
 493	4.8954e+01	19.5989	100.018019	0.000537	5.370825	1.819685	0.000215
 494	4.9053e+01	19.6374	100.280433	0.000659	6.586861	2.231689	0.000264
 495	4.9153e+01	19.6679	100.462104	0.000456	4.560135	1.545015	0.000183
 496	4.9252e+01	19.7176	100.708370	0.000618	6.181516	2.094354	0.000248
 497	4.9352e+01	19.7513	100.902152	0.000486	4.864143	1.648016	0.000195
 498	4.9452e+01	19.7962	101.168603	0.000669	6.688197	2.266023	0.000268
 499	4.9551e+01	19.8203	101.382571	0.000537	5.370825	1.819685	0.000215
 500	4.9651e+01	19.8764	101.620762	0.000598	5.978843	2.025687	0.000239
 501	4.9750e+01	19.9069	101.834730	0.000537	5.370825	1.819685	0.000215
 502	4.9849e+01	19.9551	102.101181	0.000669	6.688197	2.266023	0.000268
 503	4.9949e+01	19.9839	102.327261	0.000567	5.674834	1.922686	0.000227
 504	5.0048e+01	19.9470	102.391855	-0.000162	-1.621381	-0.549339	0.000065
 505	5.0148e+01	19.9214	102.432227	-0.000101	-1.013363	-0.343337	0.000041
 506	5.0248e+01	19.8764	102.521043	-0.000223	-2.229399	-0.755341	0.000089
 507	5.0347e+01	19.8379	102.545266	-0.000061	-0.608018	-0.206002	0.000024
 508	5.0447e+01	19.7866	102.557378	-0.000030	-0.304009	-0.103001	0.000012
 509	5.0546e+01	19.7529	102.630046	-0.000182	-1.824054	-0.618006	0.000073
 510	5.0645e+01	19.7112	102.613898	0.000041	0.405345	0.137335	-0.000016
 511	5.0745e+01	19.6695	102.698677	-0.000213	-2.128063	-0.721007	0.000085
 512	5.0844e+01	19.6374	102.690603	0.000020	0.202673	0.068667	-0.000008
 513	5.0944e+01	19.6037	102.702715	-0.000030	-0.304009	-0.103001	0.000012
 514	5.1044e+01	19.5588	102.718863	-0.000041	-0.405345	-0.137335	0.000016
 515	5.1143e+01	19.5155	102.755197	-0.000091	-0.912027	-0.309003	0.000037
 516	5.1242e+01	19.4802	102.799606	-0.000111	-1.114700	-0.377670	0.000045
 517	5.1342e+01	19.4337	102.771346	0.000071	0.709354	0.240336	-0.000028
 518	5.1441e+01	19.3968	102.755197	0.000041	0.405345	0.137335	-0.000016
 519	5.1541e+01	19.3631	102.787494	-0.000081	-0.810691	-0.274669	0.000032
 520	5.1641e+01	19.3166	102.747123	0.000101	1.013363	0.343337	-0.000041
 521	5.1740e+01	19.2749	102.771346	-0.000061	-0.608018	-0.206002	0.000024
 522	5.1840e+01	19.2348	102.755197	0.000041	0.405345	0.137335	-0.000016
 523	5.1939e+01	19.1995	102.751160	0.000010	0.101336	0.034334	-0.000004
 524	5.2038e+01	19.1561	102.735012	0.000041	0.405345	0.137335	-0.000016
 525	5.2138e+01	19.1225	102.730975	0.000010	0.101336	0.034334	-0.000004
 526	5.2237e+01	19.0775	102.722900	0.000020	0.202673	0.068667	-0.000008
 527	5.2337e+01	19.0358	102.743086	-0.000051	-0.506682	-0.171668	0.000020
 528	5.2437e+01	19.0037	102.698677	0.000111	1.114700	0.377670	-0.000045
 529	5.2536e+01	18.9636	102.678492	0.000051	0.506682	0.171668	-0.000020
 530	5.2636e+01	18.9235	102.666380	0.000030	0.304009	0.103001	-0.000012
 531	5.2735e+01	18.8754	102.634083	0.000081	0.810691	0.274669	-0.000032
 532	5.2834e+01	18.8337	102.613898	0.000051	0.506682	0.171668	-0.000020
 533	5.2934e+01	18.8048	102.561415	0.000132	1.317372	0.446338	-0.000053
 534	5.3033e+01	18.7599	102.557378	0.000010	0.101336	0.034334	-0.000004
 535	5.3133e+01	18.7262	102.541229	0.000041	0.405345	0.137335	-0.000016
 536	5.3233e+01	18.6797	102.512969	0.000071	0.709354	0.240336	-0.000028
 537	5.3332e+01	18.6332	102.480672	0.000081	0.810691	0.274669	-0.000032
 538	5.3431e+01	18.5963	102.444338	0.000091	0.912027	0.309003	-0.000037
 539	5.3531e+01	18.5594	102.416078	0.000071	0.709354	0.240336	-0.000028
 540	5.3630e+01	18.5289	102.379744	0.000091	0.912027	0.309003	-0.000037
 541	5.3730e+01	18.4824	102.343410	0.000091	0.912027	0.309003	-0.000037
 542	5.3830e+01	18.4358	102.266704	0.000193	1.925390	0.652340	-0.000077
 543	5.3929e+01	18.3957	102.254593	0.000030	0.304009	0.103001	-0.000012
 544	5.4029e+01	18.3637	102.181924	0.000182	1.824054	0.618006	-0.000073
 545	5.4128e+01	18.3268	102.169813	0.000030	0.304009	0.103001	-0.000012
 546	5.4227e+01	18.2883	102.052736	0.000294	2.938753	0.995677	-0.000118
 547	5.4327e+01	18.2417	102.068884	-0.000041	-0.405345	-0.137335	0.000016
 548	5.4426e+01	18.2016	102.012364	0.000142	1.418709	0.480671	-0.000057
 549	5.4526e+01	18.1631	102.000253	0.000030	0.304009	0.103001	-0.000012
 550	5.4626e+01	18.1214	101.911436	0.000223	2.229399	0.755341	-0.000089
 551	5.4725e+01	18.0813	101.862990	0.000122	1.216036	0.412004	-0.000049
 552	5.4825e+01	18.0364	101.818582	0.000111	1.114700	0.377670	-0.000045
 553	5.4924e+01	18.0075	101.774173	0.000111	1.114700	0.377670	-0.000045
 554	5.5023e+01	17.9658	101.729765	0.000111	1.114700	0.377670	-0.000045
 555	5.5123e+01	17.9177	101.665171	0.000162	1.621381	0.549339	-0.000065
 556	5.5222e+01	17.8808	101.600577	0.000162	1.621381	0.549339	-0.000065
 557	5.5322e+01	17.8359	101.580391	0.000051	0.506682	0.171668	-0.000020
 558	5.5422e+01	17.8070	101.491574	0.000223	2.229399	0.755341	-0.000089
 559	5.5521e+01	17.7573	101.422943	0.000172	1.722717	0.583672	-0.000069
 560	5.5620e+01	17.7204	101.362386	0.000152	1.520045	0.515005	-0.000061
 561	5.5720e+01	17.6851	101.334126	0.000071	0.709354	0.240336	-0.000028
 562	5.5819e+01	17.6450	101.285680	0.000122	1.216036	0.412004	-0.000049
 563	5.5919e+01	17.6016	101.217049	0.000172	1.722717	0.583672	-0.000069
 564	5.6019e+01	17.5551	101.180714	0.000091	0.912027	0.309003	-0.000037
 565	5.6118e+01	17.5295	101.108046	0.000182	1.824054	0.618006	-0.000073
 566	5.6218e+01	17.4877	101.011155	0.000243	2.432072	0.824008	-0.000097
 567	5.6317e+01	17.4428	100.990969	0.000051	0.506682	0.171668	-0.000020
 568	5.6416e+01	17.4011	100.946561	0.000111	1.114700	0.377670	-0.000045
 569	5.6516e+01	17.3594	100.833521	0.000284	2.837417	0.961343	-0.000114
 570	5.6615e+01	17.3241	100.801224	0.000081	0.810691	0.274669	-0.000032
 571	5.6715e+01	17.2856	100.720481	0.000203	2.026726	0.686674	-0.000081
 572	5.6815e+01	17.2407	100.680110	0.000101	1.013363	0.343337	-0.000041
 573	5.6914e+01	17.2006	100.591293	0.000223	2.229399	0.755341	-0.000089
 574	5.7014e+01	17.1717	100.506513	0.000213	2.128063	0.721007	-0.000085
 575	5.7113e+01	17.1268	100.425770	0.000203	2.026726	0.686674	-0.000081
 576	5.7212e+01	17.0851	100.349064	0.000193	1.925390	0.652340	-0.000077
 577	5.7312e+01	17.0434	100.300619	0.000122	1.216036	0.412004	-0.000049
 578	5.7411e+01	17.0081	100.219876	0.000203	2.026726	0.686674	-0.000081
 579	5.7511e+01	16.9599	100.122985	0.000243	2.432072	0.824008	-0.000097
 580	5.7611e+01	16.9214	100.066465	0.000142	1.418709	0.480671	-0.000057
 581	5.7710e+01	16.8878	99.973611	0.000233	2.330735	0.789675	-0.000093
 582	5.7809e+01	16.8428	99.880757	0.000233	2.330735	0.789675	-0.000093
 583	5.7909e+01	16.8075	99.832311	0.000122	1.216036	0.412004	-0.000049
 584	5.8008e+01	16.7658	99.755606	0.000193	1.925390	0.652340	-0.000077
 585	5.8108e+01	16.7289	99.666789	0.000223	2.229399	0.755341	-0.000089
 586	5.8208e+01	16.6920	99.610269	0.000142	1.418709	0.480671	-0.000057
 587	5.8307e+01	16.6375	99.529526	0.000203	2.026726	0.686674	-0.000081
 588	5.8407e+01	16.6038	99.404375	0.000314	3.141426	1.064344	-0.000126
 589	5.8506e+01	16.5701	99.311521	0.000233	2.330735	0.789675	-0.000093
 590	5.8605e+01	16.5332	99.275186	0.000091	0.912027	0.309003	-0.000037
 591	5.8705e+01	16.4867	99.137924	0.000345	3.445435	1.167345	-0.000138
 592	5.8804e+01	16.4530	99.101590	0.000091	0.912027	0.309003	-0.000037
 593	5.8904e+01	16.4081	99.004698	0.000243	2.432072	0.824008	-0.000097
 594	5.9004e+01	16.3680	98.911844	0.000233	2.330735	0.789675	-0.000093
 595	5.9103e+01	16.3279	98.823027	0.000223	2.229399	0.755341	-0.000089
 596	5.9203e+01	16.2894	98.738247	0.000213	2.128063	0.721007	-0.000085
 597	5.9302e+01	16.2525	98.641356	0.000243	2.432072	0.824008	-0.000097
 598	5.9401e+01	16.1979	98.556576	0.000213	2.128063	0.721007	-0.000085
 599	5.9501e+01	16.1626	98.419314	0.000345	3.445435	1.167345	-0.000138
 600	5.9600e+01	16.1290	98.378942	0.000101	1.013363	0.343337	-0.000041
 601	5.9700e+01	16.0856	98.278014	0.000253	2.533408	0.858342	-0.000101
 602	5.9800e+01	16.0487	98.140751	0.000345	3.445435	1.167345	-0.000138
 603	5.9899e+01	16.0135	98.051934	0.000223	2.229399	0.755341	-0.000089
 604	5.9998e+01	15.9637	97.951006	0.000253	2.533408	0.858342	-0.000101
 605	6.0098e+01	15.9156	97.882375	0.000172	1.722717	0.583672	-0.000069
 606	6.0197e+01	15.8915	97.801632	0.000203	2.026726	0.686674	-0.000081
 607	6.0297e+01	15.8530	97.676481	0.000314	3.141426	1.064344	-0.000126
 608	6.0397e+01	15.8033	97.595738	0.000203	2.026726	0.686674	-0.000081
 609	6.0496e+01	15.7712	97.486735	0.000274	2.736081	0.927009	-0.000110
 610	6.0596e+01	15.7311	97.405993	0.000203	2.026726	0.686674	-0.000081
 611	6.0695e+01	15.6910	97.288916	0.000294	2.938753	0.995677	-0.000118
 612	6.0794e+01	15.6509	97.179913	0.000274	2.736081	0.927009	-0.000110
 613	6.0894e+01	15.6108	97.074947	0.000263	2.634744	0.892676	-0.000105
 614	6.0993e+01	15.5755	96.990168	0.000213	2.128063	0.721007	-0.000085
 615	6.1093e+01	15.5274	96.865016	0.000314	3.141426	1.064344	-0.000126
 616	6.1193e+01	15.4873	96.800422	0.000162	1.621381	0.549339	-0.000065
 617	6.1292e+01	15.4648	96.675271	0.000314	3.141426	1.064344	-0.000126
 618	6.1392e+01	15.4103	96.566268	0.000274	2.736081	0.927009	-0.000110
 619	6.1491e+01	15.3718	96.433043	0.000334	3.344099	1.133011	-0.000134
 620	6.1590e+01	15.3252	96.356337	0.000193	1.925390	0.652340	-0.000077
 621	6.1690e+01	15.2835	96.251372	0.000263	2.634744	0.892676	-0.000105
 622	6.1789e+01	15.2434	96.138332	0.000284	2.837417	0.961343	-0.000114
 623	6.1889e+01	15.2129	96.049515	0.000223	2.229399	0.755341	-0.000089
 624	6.1989e+01	15.1760	95.920327	0.000324	3.242762	1.098678	-0.000130
 625	6.2088e+01	15.1343	95.839584	0.000203	2.026726	0.686674	-0.000081
 626	6.2188e+01	15.0974	95.665987	0.000436	4.357462	1.476348	-0.000174
 627	6.2287e+01	15.0541	95.577170	0.000223	2.229399	0.755341	-0.000089
 628	6.2386e+01	15.0076	95.508539	0.000172	1.722717	0.583672	-0.000069
 629	6.2486e+01	14.9723	95.359165	0.000375	3.749444	1.270346	-0.000150
 630	6.2586e+01	14.9338	95.250162	0.000274	2.736081	0.927009	-0.000110
 631	6.2685e+01	14.8873	95.141159	0.000274	2.736081	0.927009	-0.000110
 632	6.2785e+01	14.8472	95.016008	0.000314	3.141426	1.064344	-0.000126
 633	6.2884e+01	14.8247	94.898931	0.000294	2.938753	0.995677	-0.000118
 634	6.2983e+01	14.7670	94.806077	0.000233	2.330735	0.789675	-0.000093
 635	6.3083e+01	14.7349	94.697074	0.000274	2.736081	0.927009	-0.000110
 636	6.3182e+01	14.7044	94.588072	0.000274	2.736081	0.927009	-0.000110
 637	6.3282e+01	14.6611	94.475032	0.000284	2.837417	0.961343	-0.000114
 638	6.3382e+01	14.6114	94.325658	0.000375	3.749444	1.270346	-0.000150
 639	6.3481e+01	14.5777	94.244915	0.000203	2.026726	0.686674	-0.000081
 640	6.3581e+01	14.5343	94.123801	0.000304	3.040090	1.030010	-0.000122
 641	6.3680e+01	14.4878	93.942130	0.000456	4.560135	1.545015	-0.000183
 642	6.3779e+01	14.4541	93.853313	0.000223	2.229399	0.755341	-0.000089
 643	6.3879e+01	14.4188	93.712013	0.000355	3.546771	1.201679	-0.000142
 644	6.3978e+01	14.3787	93.619159	0.000233	2.330735	0.789675	-0.000093
 645	6.4078e+01	14.3354	93.485934	0.000334	3.344099	1.133011	-0.000134
 646	6.4177e+01	14.2937	93.340597	0.000365	3.648108	1.236012	-0.000146
 647	6.4277e+01	14.2520	93.191223	0.000375	3.749444	1.270346	-0.000150
 648	6.4376e+01	14.2199	93.102406	0.000223	2.229399	0.755341	-0.000089
 649	6.4476e+01	14.1814	92.928809	0.000436	4.357462	1.476348	-0.000174
 650	6.4576e+01	14.1253	92.839992	0.000223	2.229399	0.755341	-0.000089
 651	6.4675e+01	14.0964	92.706767	0.000334	3.344099	1.133011	-0.000134
 652	6.4775e+01	14.0547	92.589690	0.000294	2.938753	0.995677	-0.000118
 653	6.4874e+01	14.0130	92.504910	0.000213	2.128063	0.721007	-0.000085
 654	6.4974e+01	13.9761	92.343424	0.000405	4.053453	1.373347	-0.000162
 655	6.5073e+01	13.9360	92.202125	0.000355	3.546771	1.201679	-0.000142
 656	6.5172e+01	13.9023	92.048713	0.000385	3.850780	1.304680	-0.000154
 657	6.5272e+01	13.8606	91.931636	0.000294	2.938753	0.995677	-0.000118
 658	6.5371e+01	13.8189	91.778225	0.000385	3.850780	1.304680	-0.000154
 659	6.5471e+01	13.7691	91.649037	0.000324	3.242762	1.098678	-0.000130
 660	6.5570e+01	13.7322	91.544071	0.000263	2.634744	0.892676	-0.000105
 661	6.5670e+01	13.7001	91.402772	0.000355	3.546771	1.201679	-0.000142
 662	6.5769e+01	13.6584	91.257435	0.000365	3.648108	1.236012	-0.000146
 663	6.5869e+01	13.6151	91.144395	0.000284	2.837417	0.961343	-0.000114
 664	6.5969e+01	13.5734	91.027318	0.000294	2.938753	0.995677	-0.000118
 665	6.6068e+01	13.5413	90.873907	0.000385	3.850780	1.304680	-0.000154
 666	6.6168e+01	13.4980	90.712421	0.000405	4.053453	1.373347	-0.000162
 667	6.6267e+01	13.4499	90.599382	0.000284	2.837417	0.961343	-0.000114
 668	6.6367e+01	13.4274	90.486342	0.000284	2.837417	0.961343	-0.000114
 669	6.6466e+01	13.3761	90.304671	0.000456	4.560135	1.545015	-0.000183
 670	6.6566e+01	13.3408	90.203742	0.000253	2.533408	0.858342	-0.000101
 671	6.6665e+01	13.3023	90.066480	0.000345	3.445435	1.167345	-0.000138
 672	6.6764e+01	13.2558	89.900957	0.000415	4.154789	1.407681	-0.000166
 673	6.6864e+01	13.2205	89.751583	0.000375	3.749444	1.270346	-0.000150
 674	6.6963e+01	13.1788	89.622395	0.000324	3.242762	1.098678	-0.000130
 675	6.7063e+01	13.1435	89.493206	0.000324	3.242762	1.098678	-0.000130
 676	6.7162e+01	13.1050	89.372092	0.000304	3.040090	1.030010	-0.000122
 677	6.7262e+01	13.0569	89.190421	0.000456	4.560135	1.545015	-0.000183
 678	6.7362e+01	13.0232	89.069307	0.000304	3.040090	1.030010	-0.000122
 679	6.7461e+01	12.9670	88.919933	0.000375	3.749444	1.270346	-0.000150
 680	6.7561e+01	12.9462	88.778633	0.000355	3.546771	1.201679	-0.000142
 681	6.7660e+01	12.8996	88.633297	0.000365	3.648108	1.236012	-0.000146
 682	6.7760e+01	12.8595	88.516220	0.000294	2.938753	0.995677	-0.000118
 683	6.7859e+01	12.8226	88.358771	0.000395	3.952117	1.339013	-0.000158
 684	6.7959e+01	12.7825	88.229583	0.000324	3.242762	1.098678	-0.000130
 685	6.8058e+01	12.7472	88.068098	0.000405	4.053453	1.373347	-0.000162
 686	6.8157e+01	12.7023	87.910649	0.000395	3.952117	1.339013	-0.000158
 687	6.8257e+01	12.6606	87.797609	0.000284	2.837417	0.961343	-0.000114
 688	6.8356e+01	12.6157	87.656310	0.000355	3.546771	1.201679	-0.000142
 689	6.8456e+01	12.5740	87.498861	0.000395	3.952117	1.339013	-0.000158
 690	6.8555e+01	12.5531	87.345450	0.000385	3.850780	1.304680	-0.000154
 691	6.8655e+01	12.5066	87.212225	0.000334	3.344099	1.133011	-0.000134
 692	6.8754e+01	12.4633	87.050739	0.000405	4.053453	1.373347	-0.000162
 693	6.8854e+01	12.4296	86.917514	0.000334	3.344099	1.133011	-0.000134
 694	6.8954e+01	12.3751	86.768140	0.000375	3.749444	1.270346	-0.000150
 695	6.9053e+01	12.3478	86.606654	0.000405	4.053453	1.373347	-0.000162
 696	6.9153e+01	12.2980	86.461318	0.000365	3.648108	1.236012	-0.000146
 697	6.9252e+01	12.2628	86.328092	0.000334	3.344099	1.133011	-0.000134
 698	6.9352e+01	12.2066	86.174681	0.000385	3.850780	1.304680	-0.000154
 699	6.9451e+01	12.1809	86.025307	0.000375	3.749444	1.270346	-0.000150
 700	6.9550e+01	12.1424	85.871896	0.000385	3.850780	1.304680	-0.000154
 701	6.9650e+01	12.1039	85.714447	0.000395	3.952117	1.339013	-0.000158
 702	6.9749e+01	12.0622	85.540851	0.000436	4.357462	1.476348	-0.000174
 703	6.9849e+01	12.0173	85.419737	0.000304	3.040090	1.030010	-0.000122
 704	6.9948e+01	11.9820	85.250177	0.000426	4.256126	1.442014	-0.000170
 705	7.0048e+01	11.9515	85.108877	0.000355	3.546771	1.201679	-0.000142
 706	7.0147e+01	11.9098	84.939317	0.000426	4.256126	1.442014	-0.000170
 707	7.0247e+01	11.8697	84.806092	0.000334	3.344099	1.133011	-0.000134
 708	7.0347e+01	11.8184	84.636532	0.000426	4.256126	1.442014	-0.000170
 709	7.0446e+01	11.7895	84.487158	0.000375	3.749444	1.270346	-0.000150
 710	7.0546e+01	11.7462	84.313561	0.000436	4.357462	1.476348	-0.000174
 711	7.0645e+01	11.7077	84.176299	0.000345	3.445435	1.167345	-0.000138
 712	7.0745e+01	11.6612	84.002702	0.000436	4.357462	1.476348	-0.000174
 713	7.0844e+01	11.6291	83.812956	0.000476	4.762807	1.613683	-0.000191
 714	7.0944e+01	11.5874	83.659545	0.000385	3.850780	1.304680	-0.000154
 715	7.1043e+01	11.5521	83.542468	0.000294	2.938753	0.995677	-0.000118
 716	7.1142e+01	11.4991	83.393094	0.000375	3.749444	1.270346	-0.000150
 717	7.1242e+01	11.4671	83.235646	0.000395	3.952117	1.339013	-0.000158
 718	7.1341e+01	11.4286	83.025715	0.000527	5.269489	1.785351	-0.000211
 719	7.1441e+01	11.3901	82.880378	0.000365	3.648108	1.236012	-0.000146
 720	7.1540e+01	11.3516	82.739078	0.000355	3.546771	1.201679	-0.000142
 721	7.1640e+01	11.3114	82.561444	0.000446	4.458798	1.510682	-0.000179
 722	7.1740e+01	11.2665	82.420145	0.000355	3.546771	1.201679	-0.000142
 723	7.1839e+01	11.2264	82.250585	0.000426	4.256126	1.442014	-0.000170
 724	7.1939e+01	11.1991	82.089100	0.000405	4.053453	1.373347	-0.000162
 725	7.2038e+01	11.1414	81.939726	0.000375	3.749444	1.270346	-0.000150
 726	7.2138e+01	11.1093	81.766129	0.000436	4.357462	1.476348	-0.000174
 727	7.2237e+01	11.0660	81.616755	0.000375	3.749444	1.270346	-0.000150
 728	7.2337e+01	11.0339	81.467381	0.000375	3.749444	1.270346	-0.000150
 729	7.2436e+01	10.9954	81.265524	0.000507	5.066816	1.716684	-0.000203
 730	7.2535e+01	10.9537	81.136335	0.000324	3.242762	1.098678	-0.000130
 731	7.2635e+01	10.9040	80.966776	0.000426	4.256126	1.442014	-0.000170
 732	7.2734e+01	10.8719	80.813365	0.000385	3.850780	1.304680	-0.000154
 733	7.2834e+01	10.8334	80.659953	0.000385	3.850780	1.304680	-0.000154
 734	7.2933e+01	10.7869	80.482320	0.000446	4.458798	1.510682	-0.000179
 735	7.3033e+01	10.7419	80.276426	0.000517	5.168152	1.751017	-0.000207
 736	7.3132e+01	10.7099	80.155312	0.000304	3.040090	1.030010	-0.000122
 737	7.3232e+01	10.6698	80.018049	0.000345	3.445435	1.167345	-0.000138
 738	7.3332e+01	10.6329	79.832341	0.000466	4.661471	1.579349	-0.000187
 739	7.3431e+01	10.5863	79.658744	0.000436	4.357462	1.476348	-0.000174
 740	7.3531e+01	10.5526	79.489184	0.000426	4.256126	1.442014	-0.000170
 741	7.3630e+01	10.5157	79.311550	0.000446	4.458798	1.510682	-0.000179
 742	7.3730e+01	10.4756	79.150065	0.000405	4.053453	1.373347	-0.000162
 743	7.3829e+01	10.4307	79.004728	0.000365	3.648108	1.236012	-0.000146
 744	7.3928e+01	10.4002	78.823057	0.000456	4.560135	1.545015	-0.000183
 745	7.4028e+01	10.3521	78.701943	0.000304	3.040090	1.030010	-0.000122
 746	7.4127e+01	10.3184	78.524309	0.000446	4.458798	1.510682	-0.000179
 747	7.4227e+01	10.2799	78.290155	0.000588	5.877507	1.991353	-0.000235
 748	7.4326e+01	10.2414	78.132707	0.000395	3.952117	1.339013	-0.000158
 749	7.4426e+01	10.1933	77.967184	0.000415	4.154789	1.407681	-0.000166
 750	7.4525e+01	10.1452	77.801661	0.000415	4.154789	1.407681	-0.000166
 751	7.4625e+01	10.1211	77.607879	0.000486	4.864143	1.648016	-0.000195
 752	7.4725e+01	10.0682	77.462542	0.000365	3.648108	1.236012	-0.000146
 753	7.4824e+01	10.0329	77.252611	0.000527	5.269489	1.785351	-0.000211
 754	7.4924e+01	9.9912	77.123423	0.000324	3.242762	1.098678	-0.000130
 755	7.5023e+01	9.9446	76.965974	0.000395	3.952117	1.339013	-0.000158
 756	7.5123e+01	9.9206	76.788340	0.000446	4.458798	1.510682	-0.000179
 757	7.5222e+01	9.8757	76.610706	0.000446	4.458798	1.510682	-0.000179
 758	7.5322e+01	9.8323	76.404812	0.000517	5.168152	1.751017	-0.000207
 759	7.5421e+01	9.7922	76.206993	0.000497	4.965480	1.682350	-0.000199
 760	7.5520e+01	9.7489	76.057619	0.000375	3.749444	1.270346	-0.000150
 761	7.5620e+01	9.7184	75.888059	0.000426	4.256126	1.442014	-0.000170
 762	7.5719e+01	9.6735	75.714462	0.000436	4.357462	1.476348	-0.000174
 763	7.5819e+01	9.6382	75.540865	0.000436	4.357462	1.476348	-0.000174
 764	7.5918e+01	9.5965	75.375343	0.000415	4.154789	1.407681	-0.000166
 765	7.6018e+01	9.5564	75.201746	0.000436	4.357462	1.476348	-0.000174
 766	7.6118e+01	9.5147	75.003926	0.000497	4.965480	1.682350	-0.000199
 767	7.6217e+01	9.4730	74.818218	0.000466	4.661471	1.579349	-0.000187
 768	7.6317e+01	9.4441	74.664807	0.000385	3.850780	1.304680	-0.000154
 769	7.6416e+01	9.3992	74.503321	0.000405	4.053453	1.373347	-0.000162
 770	7.6516e+01	9.3527	74.261093	0.000608	6.080179	2.060021	-0.000243
 771	7.6615e+01	9.3126	74.144016	0.000294	2.938753	0.995677	-0.000118
 772	7.6715e+01	9.2805	73.930048	0.000537	5.370825	1.819685	-0.000215
 773	7.6814e+01	9.2404	73.724154	0.000517	5.168152	1.751017	-0.000207
 774	7.6913e+01	9.1923	73.546520	0.000446	4.458798	1.510682	-0.000179
 775	7.7013e+01	9.1586	73.352738	0.000486	4.864143	1.648016	-0.000195
 776	7.7112e+01	9.1153	73.219512	0.000334	3.344099	1.133011	-0.000134
 777	7.7212e+01	9.0800	73.037841	0.000456	4.560135	1.545015	-0.000183
 778	7.7311e+01	9.0286	72.807724	0.000578	5.776170	1.957020	-0.000231
 779	7.7411e+01	8.9917	72.617979	0.000476	4.762807	1.613683	-0.000191
 780	7.7510e+01	8.9645	72.464568	0.000385	3.850780	1.304680	-0.000154
 781	7.7610e+01	8.9195	72.290971	0.000436	4.357462	1.476348	-0.000174
 782	7.7710e+01	8.8730	72.093151	0.000497	4.965480	1.682350	-0.000199
 783	7.7809e+01	8.8393	71.915517	0.000446	4.458798	1.510682	-0.000179
 784	7.7909e+01	8.7928	71.717698	0.000497	4.965480	1.682350	-0.000199
 785	7.8008e+01	8.7511	71.536027	0.000456	4.560135	1.545015	-0.000183
 786	7.8108e+01	8.7158	71.374541	0.000405	4.053453	1.373347	-0.000162
 787	7.8207e+01	8.6789	71.152499	0.000557	5.573498	1.888352	-0.000223
 788	7.8306e+01	8.6404	71.031385	0.000304	3.040090	1.030010	-0.000122
 789	7.8406e+01	8.5971	70.797231	0.000588	5.877507	1.991353	-0.000235
 790	7.8505e+01	8.5570	70.631708	0.000415	4.154789	1.407681	-0.000166
 791	7.8605e+01	8.5169	70.450037	0.000456	4.560135	1.545015	-0.000183
 792	7.8704e+01	8.4800	70.256255	0.000486	4.864143	1.648016	-0.000195
 793	7.8804e+01	8.4383	70.058435	0.000497	4.965480	1.682350	-0.000199
 794	7.8903e+01	8.3901	69.876764	0.000456	4.560135	1.545015	-0.000183
 795	7.9003e+01	8.3645	69.666833	0.000527	5.269489	1.785351	-0.000211
 796	7.9103e+01	8.3179	69.501310	0.000415	4.154789	1.407681	-0.000166
 797	7.9202e+01	8.2778	69.283305	0.000547	5.472161	1.854018	-0.000219
 798	7.9302e+01	8.2393	69.121820	0.000405	4.053453	1.373347	-0.000162
 799	7.9401e+01	8.1992	68.956297	0.000415	4.154789	1.407681	-0.000166
 800	7.9501e+01	8.1479	68.718106	0.000598	5.978843	2.025687	-0.000239
 801	7.9600e+01	8.1303	68.572769	0.000365	3.648108	1.236012	-0.000146
 802	7.9700e+01	8.0853	68.346689	0.000567	5.674834	1.922686	-0.000227
 803	7.9799e+01	8.0388	68.177130	0.000426	4.256126	1.442014	-0.000170
 804	7.9898e+01	8.0035	67.967199	0.000527	5.269489	1.785351	-0.000211
 805	7.9998e+01	7.9538	67.797639	0.000426	4.256126	1.442014	-0.000170
 806	8.0097e+01	7.9217	67.595782	0.000507	5.066816	1.716684	-0.000203
 807	8.0197e+01	7.8848	67.385851	0.000527	5.269489	1.785351	-0.000211
 808	8.0296e+01	7.8463	67.220329	0.000415	4.154789	1.407681	-0.000166
 809	8.0396e+01	7.7950	66.986175	0.000588	5.877507	1.991353	-0.000235
 810	8.0496e+01	7.7597	66.816615	0.000426	4.256126	1.442014	-0.000170
 811	8.0595e+01	7.7260	66.614758	0.000507	5.066816	1.716684	-0.000203
 812	8.0695e+01	7.6875	66.408864	0.000517	5.168152	1.751017	-0.000207
 813	8.0794e+01	7.6378	66.211045	0.000497	4.965480	1.682350	-0.000199
 814	8.0894e+01	7.5976	65.989002	0.000557	5.573498	1.888352	-0.000223
 815	8.0993e+01	7.5656	65.815405	0.000436	4.357462	1.476348	-0.000174
 816	8.1093e+01	7.5255	65.565103	0.000628	6.282852	2.128688	-0.000252
 817	8.1192e+01	7.4805	65.431877	0.000334	3.344099	1.133011	-0.000134
 818	8.1291e+01	7.4468	65.234058	0.000497	4.965480	1.682350	-0.000199
 819	8.1391e+01	7.4083	65.024127	0.000527	5.269489	1.785351	-0.000211
 820	8.1490e+01	7.3666	64.818233	0.000517	5.168152	1.751017	-0.000207
 821	8.1590e+01	7.3201	64.596190	0.000557	5.573498	1.888352	-0.000223
 822	8.1689e+01	7.2800	64.430668	0.000415	4.154789	1.407681	-0.000166
 823	8.1789e+01	7.2447	64.220737	0.000527	5.269489	1.785351	-0.000211
 824	8.1888e+01	7.1950	63.970434	0.000628	6.282852	2.128688	-0.000252
 825	8.1988e+01	7.1661	63.776652	0.000486	4.864143	1.648016	-0.000195
 826	8.2088e+01	7.1292	63.619204	0.000395	3.952117	1.339013	-0.000158
 827	8.2187e+01	7.0843	63.356790	0.000659	6.586861	2.231689	-0.000264
 828	8.2287e+01	7.0490	63.211453	0.000365	3.648108	1.236012	-0.000146
 829	8.2386e+01	7.0105	62.997485	0.000537	5.370825	1.819685	-0.000215
 830	8.2486e+01	6.9608	62.799665	0.000497	4.965480	1.682350	-0.000199
 831	8.2585e+01	6.9239	62.577623	0.000557	5.573498	1.888352	-0.000223
 832	8.2684e+01	6.8790	62.391914	0.000466	4.661471	1.579349	-0.000187
 833	8.2784e+01	6.8308	62.177946	0.000537	5.370825	1.819685	-0.000215
 834	8.2883e+01	6.8084	61.951866	0.000567	5.674834	1.922686	-0.000227
 835	8.2983e+01	6.7699	61.774232	0.000446	4.458798	1.510682	-0.000179
 836	8.3082e+01	6.7298	61.556227	0.000547	5.472161	1.854018	-0.000219
 837	8.3182e+01	6.6784	61.338222	0.000547	5.472161	1.854018	-0.000219
 838	8.3281e+01	6.6576	61.128291	0.000527	5.269489	1.785351	-0.000211
 839	8.3381e+01	6.6062	60.942583	0.000466	4.661471	1.579349	-0.000187
 840	8.3481e+01	6.5725	60.728614	0.000537	5.370825	1.819685	-0.000215
 841	8.3580e+01	6.5148	60.506572	0.000557	5.573498	1.888352	-0.000223
 842	8.3680e+01	6.4843	60.332975	0.000436	4.357462	1.476348	-0.000174
 843	8.3779e+01	6.4410	60.147267	0.000466	4.661471	1.579349	-0.000187
 844	8.3879e+01	6.4169	59.892927	0.000638	6.384188	2.163022	-0.000256
 845	8.3978e+01	6.3688	59.678959	0.000537	5.370825	1.819685	-0.000215
 846	8.4078e+01	6.3319	59.473065	0.000517	5.168152	1.751017	-0.000207
 847	8.4177e+01	6.2950	59.279283	0.000486	4.864143	1.648016	-0.000195
 848	8.4276e+01	6.2613	59.073389	0.000517	5.168152	1.751017	-0.000207
 849	8.4376e+01	6.2116	58.855383	0.000547	5.472161	1.854018	-0.000219
 850	8.4475e+01	6.1651	58.653527	0.000507	5.066816	1.716684	-0.000203
 851	8.4575e+01	6.1298	58.463781	0.000476	4.762807	1.613683	-0.000191
 852	8.4674e+01	6.0913	58.225590	0.000598	5.978843	2.025687	-0.000239
 853	8.4774e+01	6.0592	58.056030	0.000426	4.256126	1.442014	-0.000170
 854	8.4874e+01	6.0159	57.797654	0.000649	6.485525	2.197355	-0.000260
 855	8.4973e+01	5.9742	57.579648	0.000547	5.472161	1.854018	-0.000219
 856	8.5073e+01	5.9308	57.393940	0.000466	4.661471	1.579349	-0.000187
 857	8.5172e+01	5.8859	57.196121	0.000497	4.965480	1.682350	-0.000199
 858	8.5272e+01	5.8490	56.957930	0.000598	5.978843	2.025687	-0.000239
 859	8.5371e+01	5.8105	56.743961	0.000537	5.370825	1.819685	-0.000215
 860	8.5471e+01	5.7752	56.554216	0.000476	4.762807	1.613683	-0.000191
 861	8.5570e+01	5.7287	56.324099	0.000578	5.776170	1.957020	-0.000231
 862	8.5669e+01	5.6902	56.077834	0.000618	6.181516	2.094354	-0.000248
 863	8.5769e+01	5.6405	55.924423	0.000385	3.850780	1.304680	-0.000154
 864	8.5868e+01	5.6180	55.662009	0.000659	6.586861	2.231689	-0.000264
 865	8.5968e+01	5.5731	55.484375	0.000446	4.458798	1.510682	-0.000179
 866	8.6067e+01	5.5282	55.230035	0.000638	6.384188	2.163022	-0.000256
 867	8.6167e+01	5.4929	55.016067	0.000537	5.370825	1.819685	-0.000215
 868	8.6266e+01	5.4544	54.814210	0.000507	5.066816	1.716684	-0.000203
 869	8.6366e+01	5.3998	54.604279	0.000527	5.269489	1.785351	-0.000211
 870	8.6466e+01	5.3662	54.382237	0.000557	5.573498	1.888352	-0.000223
 871	8.6565e+01	5.3293	54.164232	0.000547	5.472161	1.854018	-0.000219
 872	8.6665e+01	5.2924	53.950263	0.000537	5.370825	1.819685	-0.000215
 873	8.6764e+01	5.2587	53.744370	0.000517	5.168152	1.751017	-0.000207
 874	8.6864e+01	5.2089	53.514253	0.000578	5.776170	1.957020	-0.000231
 875	8.6963e+01	5.1720	53.255876	0.000649	6.485525	2.197355	-0.000260
 876	8.7063e+01	5.1287	53.074205	0.000456	4.560135	1.545015	-0.000183
 877	8.7162e+01	5.0934	52.852163	0.000557	5.573498	1.888352	-0.000223
 878	8.7261e+01	5.0501	52.634157	0.000547	5.472161	1.854018	-0.000219
 879	8.7361e+01	5.0100	52.420189	0.000537	5.370825	1.819685	-0.000215
 880	8.7460e+01	4.9715	52.161812	0.000649	6.485525	2.197355	-0.000260
 881	8.7560e+01	4.9314	51.947844	0.000537	5.370825	1.819685	-0.000215
 882	8.7659e+01	4.8945	51.766173	0.000456	4.560135	1.545015	-0.000183
 883	8.7759e+01	4.8592	51.487611	0.000699	6.992206	2.369024	-0.000280
 884	8.7859e+01	4.8143	51.277680	0.000527	5.269489	1.785351	-0.000211
 885	8.7958e+01	4.7806	51.063711	0.000537	5.370825	1.819685	-0.000215
 886	8.8058e+01	4.7309	50.845706	0.000547	5.472161	1.854018	-0.000219
 887	8.8157e+01	4.7004	50.647886	0.000497	4.965480	1.682350	-0.000199
 888	8.8257e+01	4.6475	50.381435	0.000669	6.688197	2.266023	-0.000268
 889	8.8356e+01	4.6106	50.159393	0.000557	5.573498	1.888352	-0.000223
 890	8.8456e+01	4.5753	49.949462	0.000527	5.269489	1.785351	-0.000211
 891	8.8555e+01	4.5368	49.747605	0.000507	5.066816	1.716684	-0.000203
 892	8.8654e+01	4.4967	49.497303	0.000628	6.282852	2.128688	-0.000252
 893	8.8754e+01	4.4517	49.255075	0.000608	6.080179	2.060021	-0.000243
 894	8.8853e+01	4.4229	49.033032	0.000557	5.573498	1.888352	-0.000223
 895	8.8953e+01	4.3812	48.823101	0.000527	5.269489	1.785351	-0.000211
 896	8.9052e+01	4.3443	48.621244	0.000507	5.066816	1.716684	-0.000203
 897	8.9152e+01	4.2945	48.395165	0.000567	5.674834	1.922686	-0.000227
 898	8.9251e+01	4.2592	48.189271	0.000517	5.168152	1.751017	-0.000207
 899	8.9351e+01	4.2143	47.951080	0.000598	5.978843	2.025687	-0.000239
 900	8.9451e+01	4.1774	47.692703	0.000649	6.485525	2.197355	-0.000260
 901	8.9550e+01	4.1309	47.446438	0.000618	6.181516	2.094354	-0.000248
 902	8.9650e+01	4.1020	47.256692	0.000476	4.762807	1.613683	-0.000191
 903	8.9749e+01	4.0539	47.066947	0.000476	4.762807	1.613683	-0.000191
 904	8.9849e+01	4.0266	46.808570	0.000649	6.485525	2.197355	-0.000260
 905	8.9948e+01	3.9817	46.590565	0.000547	5.472161	1.854018	-0.000219
 906	9.0047e+01	3.9352	46.364485	0.000567	5.674834	1.922686	-0.000227
 907	9.0147e+01	3.8935	46.154554	0.000527	5.269489	1.785351	-0.000211
 908	9.0246e+01	3.8550	45.920400	0.000588	5.877507	1.991353	-0.000235
 909	9.0346e+01	3.8165	45.690284	0.000578	5.776170	1.957020	-0.000231
 910	9.0445e+01	3.7796	45.480353	0.000527	5.269489	1.785351	-0.000211
 911	9.0545e+01	3.7330	45.213902	0.000669	6.688197	2.266023	-0.000268
 912	9.0644e+01	3.7026	45.003971	0.000527	5.269489	1.785351	-0.000211
 913	9.0744e+01	3.6577	44.777891	0.000567	5.674834	1.922686	-0.000227
 914	9.0844e+01	3.6079	44.547774	0.000578	5.776170	1.957020	-0.000231
 915	9.0943e+01	3.5758	44.289398	0.000649	6.485525	2.197355	-0.000260
 916	9.1043e+01	3.5454	44.095615	0.000486	4.864143	1.648016	-0.000195
 917	9.1142e+01	3.4940	43.833201	0.000659	6.586861	2.231689	-0.000264
 918	9.1242e+01	3.4539	43.595010	0.000598	5.978843	2.025687	-0.000239
 919	9.1341e+01	3.4186	43.389116	0.000517	5.168152	1.751017	-0.000207
 920	9.1441e+01	3.3785	43.130740	0.000649	6.485525	2.197355	-0.000260
 921	9.1540e+01	3.3336	42.884474	0.000618	6.181516	2.094354	-0.000248
 922	9.1639e+01	3.3015	42.634172	0.000628	6.282852	2.128688	-0.000252
 923	9.1739e+01	3.2662	42.436352	0.000497	4.965480	1.682350	-0.000199
 924	9.1838e+01	3.2213	42.198161	0.000598	5.978843	2.025687	-0.000239
 925	9.1938e+01	3.1860	42.000342	0.000497	4.965480	1.682350	-0.000199
 926	9.2037e+01	3.1379	41.725816	0.000689	6.890870	2.334690	-0.000276
 927	9.2137e+01	3.0946	41.487625	0.000598	5.978843	2.025687	-0.000239
 928	9.2237e+01	3.0593	41.265583	0.000557	5.573498	1.888352	-0.000223
 929	9.2336e+01	3.0224	40.978946	0.000719	7.194879	2.437691	-0.000288
 930	9.2436e+01	2.9742	40.756904	0.000557	5.573498	1.888352	-0.000223
 931	9.2535e+01	2.9406	40.555047	0.000507	5.066816	1.716684	-0.000203
 932	9.2635e+01	2.8988	40.320893	0.000588	5.877507	1.991353	-0.000235
 933	9.2734e+01	2.8620	40.018108	0.000760	7.600224	2.575026	-0.000304
 934	9.2834e+01	2.8234	39.828363	0.000476	4.762807	1.613683	-0.000191
 935	9.2933e+01	2.7866	39.578060	0.000628	6.282852	2.128688	-0.000252
 936	9.3032e+01	2.7448	39.327758	0.000628	6.282852	2.128688	-0.000252
 937	9.3132e+01	2.7031	39.069381	0.000649	6.485525	2.197355	-0.000260
 938	9.3231e+01	2.6566	38.867524	0.000507	5.066816	1.716684	-0.000203
 939	9.3331e+01	2.6261	38.629333	0.000598	5.978843	2.025687	-0.000239
 940	9.3430e+01	2.5828	38.395179	0.000588	5.877507	1.991353	-0.000235
 941	9.3530e+01	2.5363	38.152951	0.000608	6.080179	2.060021	-0.000243
 942	9.3629e+01	2.4994	37.894575	0.000649	6.485525	2.197355	-0.000260
 943	9.3729e+01	2.4641	37.624087	0.000679	6.789534	2.300356	-0.000272
 944	9.3829e+01	2.4224	37.398007	0.000567	5.674834	1.922686	-0.000227
 945	9.3928e+01	2.3807	37.151742	0.000618	6.181516	2.094354	-0.000248
 946	9.4028e+01	2.3390	36.953922	0.000497	4.965480	1.682350	-0.000199
 947	9.4127e+01	2.2989	36.699582	0.000638	6.384188	2.163022	-0.000256
 948	9.4227e+01	2.2636	36.425057	0.000689	6.890870	2.334690	-0.000276
 949	9.4326e+01	2.2138	36.186866	0.000598	5.978843	2.025687	-0.000239
 950	9.4425e+01	2.1850	35.948675	0.000598	5.978843	2.025687	-0.000239
 951	9.4525e+01	2.1368	35.686261	0.000659	6.586861	2.231689	-0.000264
 952	9.4624e+01	2.1015	35.407699	0.000699	6.992206	2.369024	-0.000280
 953	9.4724e+01	2.0663	35.173545	0.000588	5.877507	1.991353	-0.000235
 954	9.4823e+01	2.0229	34.951503	0.000557	5.573498	1.888352	-0.000223
 955	9.4923e+01	1.9860	34.725423	0.000567	5.674834	1.922686	-0.000227
 956	9.5022e+01	1.9507	34.426675	0.000750	7.498888	2.540692	-0.000300
 957	9.5122e+01	1.9042	34.180410	0.000618	6.181516	2.094354	-0.000248
 958	9.5222e+01	1.8705	33.978553	0.000507	5.066816	1.716684	-0.000203
 959	9.5321e+01	1.8288	33.732288	0.000618	6.181516	2.094354	-0.000248
 960	9.5421e+01	1.7839	33.441614	0.000730	7.296215	2.472025	-0.000292
 961	9.5520e+01	1.7438	33.239757	0.000507	5.066816	1.716684	-0.000203
 962	9.5620e+01	1.6989	32.977343	0.000659	6.586861	2.231689	-0.000264
 963	9.5719e+01	1.6652	32.710892	0.000669	6.688197	2.266023	-0.000268
 964	9.5819e+01	1.6315	32.488850	0.000557	5.573498	1.888352	-0.000223
 965	9.5918e+01	1.5818	32.238547	0.000628	6.282852	2.128688	-0.000252
 966	9.6017e+01	1.5449	31.964022	0.000689	6.890870	2.334690	-0.000276
 967	9.6117e+01	1.5064	31.741980	0.000557	5.573498	1.888352	-0.000223
 968	9.6216e+01	1.4679	31.503789	0.000598	5.978843	2.025687	-0.000239
 969	9.6316e+01	1.4262	31.229264	0.000689	6.890870	2.334690	-0.000276
 970	9.6415e+01	1.3861	30.962813	0.000669	6.688197	2.266023	-0.000268
 971	9.6515e+01	1.3508	30.716547	0.000618	6.181516	2.094354	-0.000248
 972	9.6615e+01	1.3058	30.478356	0.000598	5.978843	2.025687	-0.000239
 973	9.6714e+01	1.2657	30.224017	0.000638	6.384188	2.163022	-0.000256
 974	9.6814e+01	1.2240	29.945454	0.000699	6.992206	2.369024	-0.000280
 975	9.6913e+01	1.1855	29.707263	0.000598	5.978843	2.025687	-0.000239
 976	9.7013e+01	1.1567	29.424664	0.000709	7.093543	2.403357	-0.000284
 977	9.7112e+01	1.1069	29.154176	0.000679	6.789534	2.300356	-0.000272
 978	9.7212e+01	1.0684	28.903873	0.000628	6.282852	2.128688	-0.000252
 979	9.7311e+01	1.0235	28.669719	0.000588	5.877507	1.991353	-0.000235
 980	9.7410e+01	0.9866	28.407306	0.000659	6.586861	2.231689	-0.000264
 981	9.7510e+01	0.9465	28.132780	0.000689	6.890870	2.334690	-0.000276
 982	9.7609e+01	0.9032	27.890552	0.000608	6.080179	2.060021	-0.000243
 983	9.7709e+01	0.8727	27.603916	0.000719	7.194879	2.437691	-0.000288
 984	9.7808e+01	0.8230	27.385910	0.000547	5.472161	1.854018	-0.000219
 985	9.7908e+01	0.7829	27.066977	0.000801	8.005569	2.712360	-0.000321
 986	9.8007e+01	0.7396	26.853008	0.000537	5.370825	1.819685	-0.000215
 987	9.8107e+01	0.7075	26.562335	0.000730	7.296215	2.472025	-0.000292
 988	9.8207e+01	0.6642	26.324144	0.000598	5.978843	2.025687	-0.000239
 989	9.8306e+01	0.6240	26.041544	0.000709	7.093543	2.403357	-0.000284
 990	9.8406e+01	0.5968	25.771056	0.000679	6.789534	2.300356	-0.000272
 991	9.8505e+01	0.5503	25.528828	0.000608	6.080179	2.060021	-0.000243
 992	9.8605e+01	0.5150	25.282563	0.000618	6.181516	2.094354	-0.000248
 993	9.8704e+01	0.4652	24.979777	0.000760	7.600224	2.575026	-0.000304
 994	9.8803e+01	0.4251	24.753698	0.000567	5.674834	1.922686	-0.000227
 995	9.8903e+01	0.3898	24.454950	0.000750	7.498888	2.540692	-0.000300
 996	9.9002e+01	0.3529	24.196573	0.000649	6.485525	2.197355	-0.000260
 997	9.9102e+01	0.3112	23.913974	0.000709	7.093543	2.403357	-0.000284
 998	9.9201e+01	0.2679	23.691931	0.000557	5.573498	1.888352	-0.000223
 999	9.9301e+01	0.2278	23.417406	0.000689	6.890870	2.334690	-0.000276
1000	9.9400e+01	0.1925	23.126732	0.000730	7.296215	2.472025	-0.000292
1001	9.9500e+01	0.1492	22.872393	0.000638	6.384188	2.163022	-0.000256
1002	9.9600e+01	0.1123	22.634202	0.000598	5.978843	2.025687	-0.000239
1003	9.9699e+01	0.0658	22.343528	0.000730	7.296215	2.472025	-0.000292
1004	9.9799e+01	0.0289	22.052854	0.000730	7.296215	2.472025	-0.000292
1005	9.9898e+01	-0.0016	21.846960	0.000517	5.168152	1.751017	-0.000207
1006	9.9998e+01	-0.0369	21.568398	0.000699	6.992206	2.369024	-0.000280
1007	1.0010e+02	-0.0786	21.305984	0.000659	6.586861	2.231689	-0.000264
1008	1.0020e+02	-0.1171	21.007236	0.000750	7.498888	2.540692	-0.000300
1009	1.0030e+02	-0.1540	20.785193	0.000557	5.573498	1.888352	-0.000223
1010	1.0040e+02	-0.2086	20.494520	0.000730	7.296215	2.472025	-0.000292
1011	1.0050e+02	-0.2390	20.236143	0.000649	6.485525	2.197355	-0.000260
1012	1.0059e+02	-0.2807	19.941432	0.000740	7.397552	2.506358	-0.000296
1013	1.0069e+02	-0.3160	19.683055	0.000649	6.485525	2.197355	-0.000260
1014	1.0079e+02	-0.3577	19.424679	0.000649	6.485525	2.197355	-0.000260
1015	1.0089e+02	-0.3978	19.154191	0.000679	6.789534	2.300356	-0.000272
1016	1.0099e+02	-0.4460	18.903888	0.000628	6.282852	2.128688	-0.000252
1017	1.0109e+02	-0.4813	18.629363	0.000689	6.890870	2.334690	-0.000276
1018	1.0119e+02	-0.5262	18.318503	0.000780	7.802897	2.643693	-0.000312
1019	1.0129e+02	-0.5583	18.096461	0.000557	5.573498	1.888352	-0.000223
1020	1.0139e+02	-0.6032	17.793676	0.000760	7.600224	2.575026	-0.000304
1021	1.0149e+02	-0.6369	17.559522	0.000588	5.877507	1.991353	-0.000235
1022	1.0159e+02	-0.6850	17.256737	0.000760	7.600224	2.575026	-0.000304
1023	1.0169e+02	-0.6978	17.006434	0.000628	6.282852	2.128688	-0.000252
1024	1.0179e+02	-0.7636	16.719798	0.000719	7.194879	2.437691	-0.000288
1025	1.0189e+02	-0.7989	16.453347	0.000669	6.688197	2.266023	-0.000268
1026	1.0199e+02	-0.8406	16.158636	0.000740	7.397552	2.506358	-0.000296
1027	1.0209e+02	-0.8759	15.888148	0.000679	6.789534	2.300356	-0.000272
1028	1.0219e+02	-0.9112	15.625734	0.000659	6.586861	2.231689	-0.000264
1029	1.0229e+02	-0.9690	15.355246	0.000679	6.789534	2.300356	-0.000272
1030	1.0239e+02	-1.0010	15.113018	0.000608	6.080179	2.060021	-0.000243
1031	1.0248e+02	-1.0476	14.866752	0.000618	6.181516	2.094354	-0.000248
1032	1.0258e+02	-1.0748	14.592227	0.000689	6.890870	2.334690	-0.000276
1033	1.0268e+02	-1.1294	14.305590	0.000719	7.194879	2.437691	-0.000288
1034	1.0278e+02	-1.1583	13.966471	0.000851	8.512251	2.884029	-0.000341
1035	1.0288e+02	-1.1935	13.764614	0.000507	5.066816	1.716684	-0.000203
1036	1.0298e+02	-1.2369	13.473941	0.000730	7.296215	2.472025	-0.000292
1037	1.0308e+02	-1.2786	13.199415	0.000689	6.890870	2.334690	-0.000276
1038	1.0318e+02	-1.3123	12.888556	0.000780	7.802897	2.643693	-0.000312
1039	1.0328e+02	-1.3572	12.605956	0.000709	7.093543	2.403357	-0.000284
1040	1.0338e+02	-1.3973	12.339505	0.000669	6.688197	2.266023	-0.000268
1041	1.0348e+02	-1.4358	12.040757	0.000750	7.498888	2.540692	-0.000300
1042	1.0358e+02	-1.4871	11.818715	0.000557	5.573498	1.888352	-0.000223
1043	1.0368e+02	-1.5176	11.515930	0.000760	7.600224	2.575026	-0.000304
1044	1.0378e+02	-1.5609	11.229293	0.000719	7.194879	2.437691	-0.000288
1045	1.0388e+02	-1.5930	10.954768	0.000689	6.890870	2.334690	-0.000276
1046	1.0398e+02	-1.6315	10.676205	0.000699	6.992206	2.369024	-0.000280
1047	1.0408e+02	-1.6732	10.462237	0.000537	5.370825	1.819685	-0.000215
1048	1.0418e+02	-1.7213	10.167526	0.000740	7.397552	2.506358	-0.000296
1049	1.0428e+02	-1.7534	9.880890	0.000719	7.194879	2.437691	-0.000288
1050	1.0438e+02	-1.7999	9.578105	0.000760	7.600224	2.575026	-0.000304
1051	1.0447e+02	-1.8336	9.307616	0.000679	6.789534	2.300356	-0.000272
1052	1.0457e+02	-1.8641	9.061351	0.000618	6.181516	2.094354	-0.000248
1053	1.0467e+02	-1.9219	8.762603	0.000750	7.498888	2.540692	-0.000300
1054	1.0477e+02	-1.9507	8.512301	0.000628	6.282852	2.128688	-0.000252
1055	1.0487e+02	-1.9909	8.221627	0.000730	7.296215	2.472025	-0.000292
1056	1.0497e+02	-2.0374	7.943065	0.000699	6.992206	2.369024	-0.000280
1057	1.0507e+02	-2.0711	7.676614	0.000669	6.688197	2.266023	-0.000268
1058	1.0517e+02	-2.1112	7.422274	0.000638	6.384188	2.163022	-0.000256
1059	1.0527e+02	-2.1481	7.123526	0.000750	7.498888	2.540692	-0.000300
1060	1.0537e+02	-2.1914	6.840927	0.000709	7.093543	2.403357	-0.000284
1061	1.0547e+02	-2.2315	6.586587	0.000638	6.384188	2.163022	-0.000256
1062	1.0557e+02	-2.2764	6.332247	0.000638	6.384188	2.163022	-0.000256
1063	1.0567e+02	-2.3245	6.009277	0.000811	8.106906	2.746694	-0.000325
1064	1.0577e+02	-2.3566	5.779160	0.000578	5.776170	1.957020	-0.000231
1065	1.0587e+02	-2.3919	5.508672	0.000679	6.789534	2.300356	-0.000272
1066	1.0597e+02	-2.4465	5.213961	0.000740	7.397552	2.506358	-0.000296
1067	1.0607e+02	-2.4673	4.939436	0.000689	6.890870	2.334690	-0.000276
1068	1.0617e+02	-2.5122	4.689133	0.000628	6.282852	2.128688	-0.000252
1069	1.0627e+02	-2.5555	4.386348	0.000760	7.600224	2.575026	-0.000304
1070	1.0637e+02	-2.5924	4.083563	0.000760	7.600224	2.575026	-0.000304
1071	1.0647e+02	-2.6229	3.885743	0.000497	4.965480	1.682350	-0.000199
1072	1.0656e+02	-2.6710	3.578921	0.000770	7.701560	2.609359	-0.000308
1073	1.0666e+02	-2.7144	3.280173	0.000750	7.498888	2.540692	-0.000300
1074	1.0676e+02	-2.7497	3.074279	0.000517	5.168152	1.751017	-0.000207
1075	1.0686e+02	-2.7978	2.779568	0.000740	7.397552	2.506358	-0.000296
1076	1.0696e+02	-2.8299	2.557525	0.000557	5.573498	1.888352	-0.000223
1077	1.0706e+02	-2.8844	2.250703	0.000770	7.701560	2.609359	-0.000308
1078	1.0716e+02	-2.9053	1.943881	0.000770	7.701560	2.609359	-0.000308
1079	1.0726e+02	-2.9470	1.677430	0.000669	6.688197	2.266023	-0.000268
1080	1.0736e+02	-2.9951	1.394830	0.000709	7.093543	2.403357	-0.000284
1081	1.0746e+02	-3.0320	1.148565	0.000618	6.181516	2.094354	-0.000248
1082	1.0756e+02	-3.0737	0.902300	0.000618	6.181516	2.094354	-0.000248
1083	1.0766e+02	-3.1170	0.547032	0.000892	8.917596	3.021363	-0.000357
1084	1.0776e+02	-3.1523	0.324989	0.000557	5.573498	1.888352	-0.000223
1085	1.0786e+02	-3.2004	0.034316	0.000730	7.296215	2.472025	-0.000292
1086	1.0796e+02	-3.2341	-0.224061	0.000649	6.485525	2.197355	-0.000260
1087	1.0806e+02	-3.2726	-0.490512	0.000669	6.688197	2.266023	-0.000268
1088	1.0816e+02	-3.3047	-0.744852	0.000638	6.384188	2.163022	-0.000256
1089	1.0826e+02	-3.3545	-1.047637	0.000760	7.600224	2.575026	-0.000304
1090	1.0836e+02	-3.3930	-1.289865	0.000608	6.080179	2.060021	-0.000243
1091	1.0845e+02	-3.4282	-1.604761	0.000790	7.904233	2.678027	-0.000316
1092	1.0855e+02	-3.4748	-1.851027	0.000618	6.181516	2.094354	-0.000248
1093	1.0865e+02	-3.5085	-2.121515	0.000679	6.789534	2.300356	-0.000272
1094	1.0875e+02	-3.5486	-2.383929	0.000659	6.586861	2.231689	-0.000264
1095	1.0885e+02	-3.5887	-2.654417	0.000679	6.789534	2.300356	-0.000272
1096	1.0895e+02	-3.6288	-2.945091	0.000730	7.296215	2.472025	-0.000292
1097	1.0905e+02	-3.6673	-3.207504	0.000659	6.586861	2.231689	-0.000264
1098	1.0915e+02	-3.7042	-3.457807	0.000628	6.282852	2.128688	-0.000252
1099	1.0925e+02	-3.7411	-3.728295	0.000679	6.789534	2.300356	-0.000272
1100	1.0935e+02	-3.7828	-4.023006	0.000740	7.397552	2.506358	-0.000296
1101	1.0945e+02	-3.8357	-4.277345	0.000638	6.384188	2.163022	-0.000256
1102	1.0955e+02	-3.8710	-4.523611	0.000618	6.181516	2.094354	-0.000248
1103	1.0965e+02	-3.9063	-4.838507	0.000790	7.904233	2.678027	-0.000316
1104	1.0975e+02	-3.9496	-5.084772	0.000618	6.181516	2.094354	-0.000248
1105	1.0985e+02	-3.9913	-5.367372	0.000709	7.093543	2.403357	-0.000284
1106	1.0995e+02	-4.0298	-5.621712	0.000638	6.384188	2.163022	-0.000256
1107	1.1005e+02	-4.0748	-5.888162	0.000669	6.688197	2.266023	-0.000268
1108	1.1015e+02	-4.1036	-6.162688	0.000689	6.890870	2.334690	-0.000276
1109	1.1025e+02	-4.1453	-6.400879	0.000598	5.978843	2.025687	-0.000239
1110	1.1035e+02	-4.1919	-6.715775	0.000790	7.904233	2.678027	-0.000316
1111	1.1044e+02	-4.2304	-6.966078	0.000628	6.282852	2.128688	-0.000252
1112	1.1054e+02	-4.2673	-7.256751	0.000730	7.296215	2.472025	-0.000292
1113	1.1064e+02	-4.3026	-7.535314	0.000699	6.992206	2.369024	-0.000280
1114	1.1074e+02	-4.3411	-7.805802	0.000679	6.789534	2.300356	-0.000272
1115	1.1084e+02	-4.3828	-8.027844	0.000557	5.573498	1.888352	-0.000223
1116	1.1094e+02	-4.4261	-8.302370	0.000689	6.890870	2.334690	-0.000276
1117	1.1104e+02	-4.4758	-8.613229	0.000780	7.802897	2.643693	-0.000312
1118	1.1114e+02	-4.5063	-8.855457	0.000608	6.080179	2.060021	-0.000243
1119	1.1124e+02	-4.5400	-9.125945	0.000679	6.789534	2.300356	-0.000272
1120	1.1134e+02	-4.5881	-9.384322	0.000649	6.485525	2.197355	-0.000260
1121	1.1144e+02	-4.6298	-9.658847	0.000689	6.890870	2.334690	-0.000276
1122	1.1154e+02	-4.6603	-9.957595	0.000750	7.498888	2.540692	-0.000300
1123	1.1164e+02	-4.6924	-10.155415	0.000497	4.965480	1.682350	-0.000199
1124	1.1174e+02	-4.7485	-10.466274	0.000780	7.802897	2.643693	-0.000312
1125	1.1184e+02	-4.7918	-10.688317	0.000557	5.573498	1.888352	-0.000223
1126	1.1194e+02	-4.8255	-10.950731	0.000659	6.586861	2.231689	-0.000264
1127	1.1204e+02	-4.8528	-11.233330	0.000709	7.093543	2.403357	-0.000284
1128	1.1214e+02	-4.9041	-11.524004	0.000730	7.296215	2.472025	-0.000292
1129	1.1224e+02	-4.9362	-11.790455	0.000669	6.688197	2.266023	-0.000268
1130	1.1234e+02	-4.9811	-12.000386	0.000527	5.269489	1.785351	-0.000211
1131	1.1244e+02	-5.0245	-12.315283	0.000790	7.904233	2.678027	-0.000316
1132	1.1253e+02	-5.0646	-12.557511	0.000608	6.080179	2.060021	-0.000243
1133	1.1263e+02	-5.1079	-12.827999	0.000679	6.789534	2.300356	-0.000272
1134	1.1273e+02	-5.1448	-13.074264	0.000618	6.181516	2.094354	-0.000248
1135	1.1283e+02	-5.1785	-13.348789	0.000689	6.890870	2.334690	-0.000276
1136	1.1293e+02	-5.2218	-13.639463	0.000730	7.296215	2.472025	-0.000292
1137	1.1303e+02	-5.2667	-13.841320	0.000507	5.066816	1.716684	-0.000203
1138	1.1313e+02	-5.3004	-14.144105	0.000760	7.600224	2.575026	-0.000304
1139	1.1323e+02	-5.3485	-14.394407	0.000628	6.282852	2.128688	-0.000252
1140	1.1333e+02	-5.3774	-14.656821	0.000659	6.586861	2.231689	-0.000264
1141	1.1343e+02	-5.4223	-14.959606	0.000760	7.600224	2.575026	-0.000304
1142	1.1353e+02	-5.4528	-15.197797	0.000598	5.978843	2.025687	-0.000239
1143	1.1363e+02	-5.5025	-15.464248	0.000669	6.688197	2.266023	-0.000268
1144	1.1373e+02	-5.5442	-15.714551	0.000628	6.282852	2.128688	-0.000252
1145	1.1383e+02	-5.5795	-15.981002	0.000669	6.688197	2.266023	-0.000268
1146	1.1393e+02	-5.6164	-16.263601	0.000709	7.093543	2.403357	-0.000284
1147	1.1403e+02	-5.6662	-16.509867	0.000618	6.181516	2.094354	-0.000248
1148	1.1413e+02	-5.6966	-16.792466	0.000709	7.093543	2.403357	-0.000284
1149	1.1423e+02	-5.7448	-17.071028	0.000699	6.992206	2.369024	-0.000280
1150	1.1433e+02	-5.7849	-17.317294	0.000618	6.181516	2.094354	-0.000248
1151	1.1442e+02	-5.8186	-17.583745	0.000669	6.688197	2.266023	-0.000268
1152	1.1452e+02	-5.8571	-17.825973	0.000608	6.080179	2.060021	-0.000243
1153	1.1462e+02	-5.9084	-18.132795	0.000770	7.701560	2.609359	-0.000308
1154	1.1472e+02	-5.9389	-18.350800	0.000547	5.472161	1.854018	-0.000219
1155	1.1482e+02	-5.9886	-18.641474	0.000730	7.296215	2.472025	-0.000292
1156	1.1492e+02	-6.0239	-18.924074	0.000709	7.093543	2.403357	-0.000284
1157	1.1502e+02	-6.0624	-19.186488	0.000659	6.586861	2.231689	-0.000264
1158	1.1512e+02	-6.1009	-19.461013	0.000689	6.890870	2.334690	-0.000276
1159	1.1522e+02	-6.1378	-19.711315	0.000628	6.282852	2.128688	-0.000252
1160	1.1532e+02	-6.1875	-19.985840	0.000689	6.890870	2.334690	-0.000276
1161	1.1542e+02	-6.2068	-20.191734	0.000517	5.168152	1.751017	-0.000207
1162	1.1552e+02	-6.2661	-20.498557	0.000770	7.701560	2.609359	-0.000308
1163	1.1562e+02	-6.2918	-20.773082	0.000689	6.890870	2.334690	-0.000276
1164	1.1572e+02	-6.3399	-21.039533	0.000669	6.688197	2.266023	-0.000268
1165	1.1582e+02	-6.3768	-21.285798	0.000618	6.181516	2.094354	-0.000248
1166	1.1592e+02	-6.4105	-21.536101	0.000628	6.282852	2.128688	-0.000252
1167	1.1602e+02	-6.4635	-21.790440	0.000638	6.384188	2.163022	-0.000256
1168	1.1612e+02	-6.4923	-22.069003	0.000699	6.992206	2.369024	-0.000280
1169	1.1622e+02	-6.5356	-22.323342	0.000638	6.384188	2.163022	-0.000256
1170	1.1632e+02	-6.5693	-22.561533	0.000598	5.978843	2.025687	-0.000239
1171	1.1642e+02	-6.6159	-22.823947	0.000659	6.586861	2.231689	-0.000264
1172	1.1651e+02	-6.6576	-23.082324	0.000649	6.485525	2.197355	-0.000260
1173	1.1661e+02	-6.7073	-23.389146	0.000770	7.701560	2.609359	-0.000308
1174	1.1671e+02	-6.7282	-23.591003	0.000507	5.066816	1.716684	-0.000203
1175	1.1681e+02	-6.7763	-23.857454	0.000669	6.688197	2.266023	-0.000268
1176	1.1691e+02	-6.8116	-24.136016	0.000699	6.992206	2.369024	-0.000280
1177	1.1701e+02	-6.8549	-24.394393	0.000649	6.485525	2.197355	-0.000260
1178	1.1711e+02	-6.8982	-24.640658	0.000618	6.181516	2.094354	-0.000248
1179	1.1721e+02	-6.9287	-24.882886	0.000608	6.080179	2.060021	-0.000243
1180	1.1731e+02	-6.9672	-25.149337	0.000669	6.688197	2.266023	-0.000268
1181	1.1741e+02	-7.0121	-25.419825	0.000679	6.789534	2.300356	-0.000272
1182	1.1751e+02	-7.0426	-25.649942	0.000578	5.776170	1.957020	-0.000231
1183	1.1761e+02	-7.0939	-25.948690	0.000750	7.498888	2.540692	-0.000300
1184	1.1771e+02	-7.1324	-26.227252	0.000699	6.992206	2.369024	-0.000280
1185	1.1781e+02	-7.1822	-26.473518	0.000618	6.181516	2.094354	-0.000248
1186	1.1791e+02	-7.2174	-26.683449	0.000527	5.269489	1.785351	-0.000211
1187	1.1801e+02	-7.2463	-26.937788	0.000638	6.384188	2.163022	-0.000256
1188	1.1811e+02	-7.2912	-27.232499	0.000740	7.397552	2.506358	-0.000296
1189	1.1821e+02	-7.3313	-27.466653	0.000588	5.877507	1.991353	-0.000235
1190	1.1831e+02	-7.3682	-27.745215	0.000699	6.992206	2.369024	-0.000280
1191	1.1841e+02	-7.4116	-27.975332	0.000578	5.776170	1.957020	-0.000231
1192	1.1850e+02	-7.4501	-28.270043	0.000740	7.397552	2.506358	-0.000296
1193	1.1860e+02	-7.4870	-28.512271	0.000608	6.080179	2.060021	-0.000243
1194	1.1870e+02	-7.5351	-28.790834	0.000699	6.992206	2.369024	-0.000280
1195	1.1880e+02	-7.5688	-29.024987	0.000588	5.877507	1.991353	-0.000235
1196	1.1890e+02	-7.6073	-29.295475	0.000679	6.789534	2.300356	-0.000272
1197	1.1900e+02	-7.6522	-29.501369	0.000517	5.168152	1.751017	-0.000207
1198	1.1910e+02	-7.6923	-29.788006	0.000719	7.194879	2.437691	-0.000288
1199	1.1920e+02	-7.7372	-30.034271	0.000618	6.181516	2.094354	-0.000248
1200	1.1930e+02	-7.7709	-30.300722	0.000669	6.688197	2.266023	-0.000268
1201	1.1940e+02	-7.8062	-30.514690	0.000537	5.370825	1.819685	-0.000215
1202	1.1950e+02	-7.8527	-30.781141	0.000669	6.688197	2.266023	-0.000268
1203	1.1960e+02	-7.8864	-31.047592	0.000669	6.688197	2.266023	-0.000268
1204	1.1970e+02	-7.9233	-31.277709	0.000578	5.776170	1.957020	-0.000231
1205	1.1980e+02	-7.9746	-31.588569	0.000780	7.802897	2.643693	-0.000312
1206	1.1990e+02	-8.0019	-31.846945	0.000649	6.485525	2.197355	-0.000260
1207	1.2000e+02	-8.0436	-32.089173	0.000608	6.080179	2.060021	-0.000243
1208	1.2010e+02	-8.0869	-32.339476	0.000628	6.282852	2.128688	-0.000252
1209	1.2020e+02	-8.1270	-32.597853	0.000649	6.485525	2.197355	-0.000260
1210	1.2030e+02	-8.1671	-32.844118	0.000618	6.181516	2.094354	-0.000248
1211	1.2039e+02	-8.2073	-33.110569	0.000669	6.688197	2.266023	-0.000268
1212	1.2049e+02	-8.2506	-33.360871	0.000628	6.282852	2.128688	-0.000252
1213	1.2059e+02	-8.2875	-33.607136	0.000618	6.181516	2.094354	-0.000248
1214	1.2069e+02	-8.3276	-33.893773	0.000719	7.194879	2.437691	-0.000288
1215	1.2079e+02	-8.3709	-34.083518	0.000476	4.762807	1.613683	-0.000191
1216	1.2089e+02	-8.4062	-34.430712	0.000871	8.714924	2.952696	-0.000349
1217	1.2099e+02	-8.4495	-34.608346	0.000446	4.458798	1.510682	-0.000179
1218	1.2109e+02	-8.4896	-34.894983	0.000719	7.194879	2.437691	-0.000288
1219	1.2119e+02	-8.5201	-35.157397	0.000659	6.586861	2.231689	-0.000264
1220	1.2129e+02	-8.5810	-35.371365	0.000537	5.370825	1.819685	-0.000215
1221	1.2139e+02	-8.6035	-35.637816	0.000669	6.688197	2.266023	-0.000268
1222	1.2149e+02	-8.6500	-35.904267	0.000669	6.688197	2.266023	-0.000268
1223	1.2159e+02	-8.6853	-36.170718	0.000669	6.688197	2.266023	-0.000268
1224	1.2169e+02	-8.7286	-36.416983	0.000618	6.181516	2.094354	-0.000248
1225	1.2179e+02	-8.7639	-36.647100	0.000578	5.776170	1.957020	-0.000231
1226	1.2189e+02	-8.8008	-36.869142	0.000557	5.573498	1.888352	-0.000223
1227	1.2199e+02	-8.8441	-37.139630	0.000679	6.789534	2.300356	-0.000272
1228	1.2209e+02	-8.8955	-37.418193	0.000699	6.992206	2.369024	-0.000280
1229	1.2219e+02	-8.9211	-37.640235	0.000557	5.573498	1.888352	-0.000223
1230	1.2229e+02	-8.9596	-37.926872	0.000719	7.194879	2.437691	-0.000288
1231	1.2239e+02	-9.0014	-38.132766	0.000517	5.168152	1.751017	-0.000207
1232	1.2248e+02	-9.0463	-38.366919	0.000588	5.877507	1.991353	-0.000235
1233	1.2258e+02	-9.0896	-38.673742	0.000770	7.701560	2.609359	-0.000308
1234	1.2268e+02	-9.1217	-38.899821	0.000567	5.674834	1.922686	-0.000227
1235	1.2278e+02	-9.1698	-39.125901	0.000567	5.674834	1.922686	-0.000227
1236	1.2288e+02	-9.2099	-39.368129	0.000608	6.080179	2.060021	-0.000243
1237	1.2298e+02	-9.2580	-39.634580	0.000669	6.688197	2.266023	-0.000268
1238	1.2308e+02	-9.2869	-39.852585	0.000547	5.472161	1.854018	-0.000219
1239	1.2318e+02	-9.3254	-40.114999	0.000659	6.586861	2.231689	-0.000264
1240	1.2328e+02	-9.3687	-40.369339	0.000638	6.384188	2.163022	-0.000256
1241	1.2338e+02	-9.4120	-40.599456	0.000578	5.776170	1.957020	-0.000231
1242	1.2348e+02	-9.4393	-40.878018	0.000699	6.992206	2.369024	-0.000280
1243	1.2358e+02	-9.4938	-41.140432	0.000659	6.586861	2.231689	-0.000264
1244	1.2368e+02	-9.5243	-41.342289	0.000507	5.066816	1.716684	-0.000203
1245	1.2378e+02	-9.5644	-41.584517	0.000608	6.080179	2.060021	-0.000243
1246	1.2388e+02	-9.5965	-41.850968	0.000669	6.688197	2.266023	-0.000268
1247	1.2398e+02	-9.6446	-42.073010	0.000557	5.573498	1.888352	-0.000223
1248	1.2408e+02	-9.6864	-42.351572	0.000699	6.992206	2.369024	-0.000280
1249	1.2418e+02	-9.7281	-42.585726	0.000588	5.877507	1.991353	-0.000235
1250	1.2428e+02	-9.7537	-42.811806	0.000567	5.674834	1.922686	-0.000227
1251	1.2438e+02	-9.8083	-43.090368	0.000699	6.992206	2.369024	-0.000280
1252	1.2447e+02	-9.8484	-43.368931	0.000699	6.992206	2.369024	-0.000280
1253	1.2457e+02	-9.8917	-43.623270	0.000638	6.384188	2.163022	-0.000256
1254	1.2467e+02	-9.9142	-43.813016	0.000476	4.762807	1.613683	-0.000191
1255	1.2477e+02	-9.9639	-44.083504	0.000679	6.789534	2.300356	-0.000272
1256	1.2487e+02	-9.9912	-44.329769	0.000618	6.181516	2.094354	-0.000248
1257	1.2497e+02	-10.0457	-44.559886	0.000578	5.776170	1.957020	-0.000231
1258	1.2507e+02	-10.0794	-44.818262	0.000649	6.485525	2.197355	-0.000260
1259	1.2517e+02	-10.1211	-45.060491	0.000608	6.080179	2.060021	-0.000243
1260	1.2527e+02	-10.1580	-45.294644	0.000588	5.877507	1.991353	-0.000235
1261	1.2537e+02	-10.2029	-45.553021	0.000649	6.485525	2.197355	-0.000260
1262	1.2547e+02	-10.2398	-45.807361	0.000638	6.384188	2.163022	-0.000256
1263	1.2557e+02	-10.2847	-46.073812	0.000669	6.688197	2.266023	-0.000268
1264	1.2567e+02	-10.3281	-46.299891	0.000567	5.674834	1.922686	-0.000227
1265	1.2577e+02	-10.3553	-46.509822	0.000527	5.269489	1.785351	-0.000211
1266	1.2587e+02	-10.3970	-46.808570	0.000750	7.498888	2.540692	-0.000300
1267	1.2597e+02	-10.4259	-47.034650	0.000567	5.674834	1.922686	-0.000227
1268	1.2607e+02	-10.4837	-47.280915	0.000618	6.181516	2.094354	-0.000248
1269	1.2617e+02	-10.5061	-47.498921	0.000547	5.472161	1.854018	-0.000219
1270	1.2627e+02	-10.5639	-47.725000	0.000567	5.674834	1.922686	-0.000227
1271	1.2636e+02	-10.6056	-48.023748	0.000750	7.498888	2.540692	-0.000300
1272	1.2646e+02	-10.6441	-48.290199	0.000669	6.688197	2.266023	-0.000268
1273	1.2656e+02	-10.6842	-48.500130	0.000527	5.269489	1.785351	-0.000211
1274	1.2666e+02	-10.7195	-48.746395	0.000618	6.181516	2.094354	-0.000248
1275	1.2676e+02	-10.7692	-49.016884	0.000679	6.789534	2.300356	-0.000272
1276	1.2686e+02	-10.8045	-49.214703	0.000497	4.965480	1.682350	-0.000199
1277	1.2696e+02	-10.8302	-49.473080	0.000649	6.485525	2.197355	-0.000260
1278	1.2706e+02	-10.8767	-49.719345	0.000618	6.181516	2.094354	-0.000248
1279	1.2716e+02	-10.9232	-49.945425	0.000567	5.674834	1.922686	-0.000227
1280	1.2726e+02	-10.9553	-50.236099	0.000730	7.296215	2.472025	-0.000292
1281	1.2736e+02	-11.0082	-50.458141	0.000557	5.573498	1.888352	-0.000223
1282	1.2746e+02	-11.0323	-50.716518	0.000649	6.485525	2.197355	-0.000260
1283	1.2756e+02	-11.0772	-50.966820	0.000628	6.282852	2.128688	-0.000252
1284	1.2766e+02	-11.1157	-51.160603	0.000486	4.864143	1.648016	-0.000195
1285	1.2776e+02	-11.1558	-51.439165	0.000699	6.992206	2.369024	-0.000280
1286	1.2786e+02	-11.1943	-51.681393	0.000608	6.080179	2.060021	-0.000243
1287	1.2796e+02	-11.2425	-51.927658	0.000618	6.181516	2.094354	-0.000248
1288	1.2806e+02	-11.2745	-52.169887	0.000608	6.080179	2.060021	-0.000243
1289	1.2816e+02	-11.3114	-52.400003	0.000578	5.776170	1.957020	-0.000231
1290	1.2826e+02	-11.3564	-52.634157	0.000588	5.877507	1.991353	-0.000235
1291	1.2835e+02	-11.4013	-52.900608	0.000669	6.688197	2.266023	-0.000268
1292	1.2845e+02	-11.4462	-53.150911	0.000628	6.282852	2.128688	-0.000252
1293	1.2855e+02	-11.4767	-53.348730	0.000497	4.965480	1.682350	-0.000199
1294	1.2865e+02	-11.5296	-53.586921	0.000598	5.978843	2.025687	-0.000239
1295	1.2875e+02	-11.5505	-53.861446	0.000689	6.890870	2.334690	-0.000276
1296	1.2885e+02	-11.5922	-54.051192	0.000476	4.762807	1.613683	-0.000191
1297	1.2895e+02	-11.6403	-54.329754	0.000699	6.992206	2.369024	-0.000280
1298	1.2905e+02	-11.6724	-54.555834	0.000567	5.674834	1.922686	-0.000227
1299	1.2915e+02	-11.7189	-54.814210	0.000649	6.485525	2.197355	-0.000260
1300	1.2925e+02	-11.7526	-55.036253	0.000557	5.573498	1.888352	-0.000223
1301	1.2935e+02	-11.7943	-55.286555	0.000628	6.282852	2.128688	-0.000252
1302	1.2945e+02	-11.8280	-55.516672	0.000578	5.776170	1.957020	-0.000231
1303	1.2955e+02	-11.8729	-55.766975	0.000628	6.282852	2.128688	-0.000252
1304	1.2965e+02	-11.9178	-55.964794	0.000497	4.965480	1.682350	-0.000199
1305	1.2975e+02	-11.9563	-56.211059	0.000618	6.181516	2.094354	-0.000248
1306	1.2985e+02	-12.0077	-56.441176	0.000578	5.776170	1.957020	-0.000231
1307	1.2995e+02	-12.0350	-56.691479	0.000628	6.282852	2.128688	-0.000252
1308	1.3005e+02	-12.0670	-56.929670	0.000598	5.978843	2.025687	-0.000239
1309	1.3015e+02	-12.1200	-57.212269	0.000709	7.093543	2.403357	-0.000284
1310	1.3025e+02	-12.1569	-57.434312	0.000557	5.573498	1.888352	-0.000223
1311	1.3034e+02	-12.1938	-57.688651	0.000638	6.384188	2.163022	-0.000256
1312	1.3044e+02	-12.2307	-57.955102	0.000669	6.688197	2.266023	-0.000268
1313	1.3054e+02	-12.2740	-58.197330	0.000608	6.080179	2.060021	-0.000243
1314	1.3064e+02	-12.3189	-58.451670	0.000638	6.384188	2.163022	-0.000256
1315	1.3074e+02	-12.3622	-58.669675	0.000547	5.472161	1.854018	-0.000219
1316	1.3084e+02	-12.4023	-58.887680	0.000547	5.472161	1.854018	-0.000219
1317	1.3094e+02	-12.4344	-59.158169	0.000679	6.789534	2.300356	-0.000272
1318	1.3104e+02	-12.4713	-59.396360	0.000598	5.978843	2.025687	-0.000239
1319	1.3114e+02	-12.5114	-59.650699	0.000638	6.384188	2.163022	-0.000256
1320	1.3124e+02	-12.5579	-59.884853	0.000588	5.877507	1.991353	-0.000235
1321	1.3134e+02	-12.5900	-60.139193	0.000638	6.384188	2.163022	-0.000256
1322	1.3144e+02	-12.6285	-60.361235	0.000557	5.573498	1.888352	-0.000223
1323	1.3154e+02	-12.6750	-60.615575	0.000638	6.384188	2.163022	-0.000256
1324	1.3164e+02	-12.7135	-60.837617	0.000557	5.573498	1.888352	-0.000223
1325	1.3174e+02	-12.7520	-61.083882	0.000618	6.181516	2.094354	-0.000248
1326	1.3184e+02	-12.8018	-61.301888	0.000547	5.472161	1.854018	-0.000219
1327	1.3194e+02	-12.8258	-61.527967	0.000567	5.674834	1.922686	-0.000227
1328	1.3204e+02	-12.8692	-61.806530	0.000699	6.992206	2.369024	-0.000280
1329	1.3214e+02	-12.9157	-62.024535	0.000547	5.472161	1.854018	-0.000219
1330	1.3224e+02	-12.9478	-62.319246	0.000740	7.397552	2.506358	-0.000296
1331	1.3234e+02	-13.0087	-62.504954	0.000466	4.661471	1.579349	-0.000187
1332	1.3243e+02	-13.0312	-62.735071	0.000578	5.776170	1.957020	-0.000231
1333	1.3253e+02	-13.0713	-62.997485	0.000659	6.586861	2.231689	-0.000264
1334	1.3263e+02	-13.1162	-63.239713	0.000608	6.080179	2.060021	-0.000243
1335	1.3273e+02	-13.1531	-63.453681	0.000537	5.370825	1.819685	-0.000215
1336	1.3283e+02	-13.1964	-63.675723	0.000557	5.573498	1.888352	-0.000223
1337	1.3293e+02	-13.2333	-63.934100	0.000649	6.485525	2.197355	-0.000260
1338	1.3303e+02	-13.2590	-64.172291	0.000598	5.978843	2.025687	-0.000239
1339	1.3313e+02	-13.3167	-64.462965	0.000730	7.296215	2.472025	-0.000292
1340	1.3323e+02	-13.3504	-64.656747	0.000486	4.864143	1.648016	-0.000195
1341	1.3333e+02	-13.4050	-64.866678	0.000527	5.269489	1.785351	-0.000211
1342	1.3343e+02	-13.4178	-65.108907	0.000608	6.080179	2.060021	-0.000243
1343	1.3353e+02	-13.4691	-65.371320	0.000659	6.586861	2.231689	-0.000264
1344	1.3363e+02	-13.5044	-65.605474	0.000588	5.877507	1.991353	-0.000235
1345	1.3373e+02	-13.5461	-65.847702	0.000608	6.080179	2.060021	-0.000243
1346	1.3383e+02	-13.5862	-66.069745	0.000557	5.573498	1.888352	-0.000223
1347	1.3393e+02	-13.6247	-66.328122	0.000649	6.485525	2.197355	-0.000260
1348	1.3403e+02	-13.6649	-66.562275	0.000588	5.877507	1.991353	-0.000235
1349	1.3413e+02	-13.7098	-66.804504	0.000608	6.080179	2.060021	-0.000243
1350	1.3423e+02	-13.7451	-67.010398	0.000517	5.168152	1.751017	-0.000207
1351	1.3432e+02	-13.7820	-67.280886	0.000679	6.789534	2.300356	-0.000272
1352	1.3442e+02	-13.8301	-67.527151	0.000618	6.181516	2.094354	-0.000248
1353	1.3452e+02	-13.8734	-67.733045	0.000517	5.168152	1.751017	-0.000207
1354	1.3462e+02	-13.9135	-67.967199	0.000588	5.877507	1.991353	-0.000235
1355	1.3472e+02	-13.9520	-68.205390	0.000598	5.978843	2.025687	-0.000239
1356	1.3482e+02	-13.9825	-68.419358	0.000537	5.370825	1.819685	-0.000215
1357	1.3492e+02	-14.0306	-68.681772	0.000659	6.586861	2.231689	-0.000264
1358	1.3502e+02	-14.0547	-68.924000	0.000608	6.080179	2.060021	-0.000243
1359	1.3512e+02	-14.1108	-69.129894	0.000517	5.168152	1.751017	-0.000207
1360	1.3522e+02	-14.1429	-69.364048	0.000588	5.877507	1.991353	-0.000235
1361	1.3532e+02	-14.1878	-69.578016	0.000537	5.370825	1.819685	-0.000215
1362	1.3542e+02	-14.2199	-69.844467	0.000669	6.688197	2.266023	-0.000268
1363	1.3552e+02	-14.2632	-70.078621	0.000588	5.877507	1.991353	-0.000235
1364	1.3562e+02	-14.3017	-70.332960	0.000638	6.384188	2.163022	-0.000256
1365	1.3572e+02	-14.3563	-70.534817	0.000507	5.066816	1.716684	-0.000203
1366	1.3582e+02	-14.3836	-70.785119	0.000628	6.282852	2.128688	-0.000252
1367	1.3592e+02	-14.4204	-71.007162	0.000557	5.573498	1.888352	-0.000223
1368	1.3602e+02	-14.4654	-71.200944	0.000486	4.864143	1.648016	-0.000195
1369	1.3612e+02	-14.5007	-71.475470	0.000689	6.890870	2.334690	-0.000276
1370	1.3622e+02	-14.5488	-71.697512	0.000557	5.573498	1.888352	-0.000223
1371	1.3631e+02	-14.5825	-71.976075	0.000699	6.992206	2.369024	-0.000280
1372	1.3641e+02	-14.6274	-72.169857	0.000486	4.864143	1.648016	-0.000195
1373	1.3651e+02	-14.6659	-72.391899	0.000557	5.573498	1.888352	-0.000223
1374	1.3661e+02	-14.7108	-72.654313	0.000659	6.586861	2.231689	-0.000264
1375	1.3671e+02	-14.7477	-72.896541	0.000608	6.080179	2.060021	-0.000243
1376	1.3681e+02	-14.7766	-73.106473	0.000527	5.269489	1.785351	-0.000211
1377	1.3691e+02	-14.8199	-73.340626	0.000588	5.877507	1.991353	-0.000235
1378	1.3701e+02	-14.8696	-73.603040	0.000659	6.586861	2.231689	-0.000264
1379	1.3711e+02	-14.9049	-73.808934	0.000517	5.168152	1.751017	-0.000207
1380	1.3721e+02	-14.9547	-74.047125	0.000598	5.978843	2.025687	-0.000239
1381	1.3731e+02	-14.9835	-74.261093	0.000537	5.370825	1.819685	-0.000215
1382	1.3741e+02	-15.0268	-74.491210	0.000578	5.776170	1.957020	-0.000231
1383	1.3751e+02	-15.0637	-74.737475	0.000618	6.181516	2.094354	-0.000248
1384	1.3761e+02	-15.1071	-74.963555	0.000567	5.674834	1.922686	-0.000227
1385	1.3771e+02	-15.1456	-75.234043	0.000679	6.789534	2.300356	-0.000272
1386	1.3781e+02	-15.1841	-75.427826	0.000486	4.864143	1.648016	-0.000195
1387	1.3791e+02	-15.2258	-75.698314	0.000679	6.789534	2.300356	-0.000272
1388	1.3801e+02	-15.2579	-75.912282	0.000537	5.370825	1.819685	-0.000215
1389	1.3811e+02	-15.3076	-76.154510	0.000608	6.080179	2.060021	-0.000243
1390	1.3821e+02	-15.3397	-76.384627	0.000578	5.776170	1.957020	-0.000231
1391	1.3831e+02	-15.3878	-76.582446	0.000497	4.965480	1.682350	-0.000199
1392	1.3840e+02	-15.4263	-76.836786	0.000638	6.384188	2.163022	-0.000256
1393	1.3850e+02	-15.4616	-77.066903	0.000578	5.776170	1.957020	-0.000231
1394	1.3860e+02	-15.4953	-77.313168	0.000618	6.181516	2.094354	-0.000248
1395	1.3870e+02	-15.5386	-77.506950	0.000486	4.864143	1.648016	-0.000195
1396	1.3880e+02	-15.5899	-77.753216	0.000618	6.181516	2.094354	-0.000248
1397	1.3890e+02	-15.6220	-77.955073	0.000507	5.066816	1.716684	-0.000203
1398	1.3900e+02	-15.6573	-78.209412	0.000638	6.384188	2.163022	-0.000256
1399	1.3910e+02	-15.7022	-78.407232	0.000497	4.965480	1.682350	-0.000199
1400	1.3920e+02	-15.7311	-78.661571	0.000638	6.384188	2.163022	-0.000256
1401	1.3930e+02	-15.7808	-78.883614	0.000557	5.573498	1.888352	-0.000223
1402	1.3940e+02	-15.8242	-79.113730	0.000578	5.776170	1.957020	-0.000231
1403	1.3950e+02	-15.8627	-79.311550	0.000497	4.965480	1.682350	-0.000199
1404	1.3960e+02	-15.9076	-79.573964	0.000659	6.586861	2.231689	-0.000264
1405	1.3970e+02	-15.9381	-79.791969	0.000547	5.472161	1.854018	-0.000219
1406	1.3980e+02	-15.9766	-79.989789	0.000497	4.965480	1.682350	-0.000199
1407	1.3990e+02	-16.0247	-80.240091	0.000628	6.282852	2.128688	-0.000252
1408	1.4000e+02	-16.0696	-80.462134	0.000557	5.573498	1.888352	-0.000223
1409	1.4010e+02	-16.1001	-80.716473	0.000638	6.384188	2.163022	-0.000256
1410	1.4020e+02	-16.1322	-80.894107	0.000446	4.458798	1.510682	-0.000179
1411	1.4029e+02	-16.1739	-81.140373	0.000618	6.181516	2.094354	-0.000248
1412	1.4039e+02	-16.2092	-81.342229	0.000507	5.066816	1.716684	-0.000203
1413	1.4049e+02	-16.2589	-81.556198	0.000537	5.370825	1.819685	-0.000215
1414	1.4059e+02	-16.2910	-81.830723	0.000689	6.890870	2.334690	-0.000276
1415	1.4069e+02	-16.3391	-82.036617	0.000517	5.168152	1.751017	-0.000207
1416	1.4079e+02	-16.3792	-82.262696	0.000567	5.674834	1.922686	-0.000227
1417	1.4089e+02	-16.4225	-82.468590	0.000517	5.168152	1.751017	-0.000207
1418	1.4099e+02	-16.4594	-82.698707	0.000578	5.776170	1.957020	-0.000231
1419	1.4109e+02	-16.4995	-82.928824	0.000578	5.776170	1.957020	-0.000231
1420	1.4119e+02	-16.5412	-83.187200	0.000649	6.485525	2.197355	-0.000260
1421	1.4129e+02	-16.5862	-83.372909	0.000466	4.661471	1.579349	-0.000187
1422	1.4139e+02	-16.6150	-83.619174	0.000618	6.181516	2.094354	-0.000248
1423	1.4149e+02	-16.6616	-83.837179	0.000547	5.472161	1.854018	-0.000219
1424	1.4159e+02	-16.6985	-84.071333	0.000588	5.877507	1.991353	-0.000235
1425	1.4169e+02	-16.7434	-84.269153	0.000497	4.965480	1.682350	-0.000199
1426	1.4179e+02	-16.7819	-84.515418	0.000618	6.181516	2.094354	-0.000248
1427	1.4189e+02	-16.8108	-84.733423	0.000547	5.472161	1.854018	-0.000219
1428	1.4199e+02	-16.8541	-84.939317	0.000517	5.168152	1.751017	-0.000207
1429	1.4209e+02	-16.8894	-85.153286	0.000537	5.370825	1.819685	-0.000215
1430	1.4219e+02	-16.9327	-85.407625	0.000638	6.384188	2.163022	-0.000256
1431	1.4228e+02	-16.9728	-85.633705	0.000567	5.674834	1.922686	-0.000227
1432	1.4238e+02	-17.0225	-85.835561	0.000507	5.066816	1.716684	-0.000203
1433	1.4248e+02	-17.0594	-86.073753	0.000598	5.978843	2.025687	-0.000239
1434	1.4258e+02	-17.0851	-86.328092	0.000638	6.384188	2.163022	-0.000256
1435	1.4268e+02	-17.1364	-86.493615	0.000415	4.154789	1.407681	-0.000166
1436	1.4278e+02	-17.1733	-86.756028	0.000659	6.586861	2.231689	-0.000264
1437	1.4288e+02	-17.2198	-86.961922	0.000517	5.168152	1.751017	-0.000207
1438	1.4298e+02	-17.2615	-87.179928	0.000547	5.472161	1.854018	-0.000219
1439	1.4308e+02	-17.2920	-87.389859	0.000527	5.269489	1.785351	-0.000211
1440	1.4318e+02	-17.3418	-87.660347	0.000679	6.789534	2.300356	-0.000272
1441	1.4328e+02	-17.3642	-87.894501	0.000588	5.877507	1.991353	-0.000235
1442	1.4338e+02	-17.4139	-88.039838	0.000365	3.648108	1.236012	-0.000146
1443	1.4348e+02	-17.4492	-88.298214	0.000649	6.485525	2.197355	-0.000260
1444	1.4358e+02	-17.4942	-88.528331	0.000578	5.776170	1.957020	-0.000231
1445	1.4368e+02	-17.5327	-88.742299	0.000537	5.370825	1.819685	-0.000215
1446	1.4378e+02	-17.5680	-88.972416	0.000578	5.776170	1.957020	-0.000231
1447	1.4388e+02	-17.6193	-89.214644	0.000608	6.080179	2.060021	-0.000243
1448	1.4398e+02	-17.6626	-89.420538	0.000517	5.168152	1.751017	-0.000207
1449	1.4408e+02	-17.6915	-89.654692	0.000588	5.877507	1.991353	-0.000235
1450	1.4418e+02	-17.7316	-89.872697	0.000547	5.472161	1.854018	-0.000219
1451	1.4428e+02	-17.7813	-90.082628	0.000527	5.269489	1.785351	-0.000211
1452	1.4437e+02	-17.8166	-90.316782	0.000588	5.877507	1.991353	-0.000235
1453	1.4447e+02	-17.8471	-90.542862	0.000567	5.674834	1.922686	-0.000227
1454	1.4457e+02	-17.8888	-90.744719	0.000507	5.066816	1.716684	-0.000203
1455	1.4467e+02	-17.9305	-90.966761	0.000557	5.573498	1.888352	-0.000223
1456	1.4477e+02	-17.9690	-91.196878	0.000578	5.776170	1.957020	-0.000231
1457	1.4487e+02	-18.0107	-91.386623	0.000476	4.762807	1.613683	-0.000191
1458	1.4497e+02	-18.0572	-91.636926	0.000628	6.282852	2.128688	-0.000252
1459	1.4507e+02	-18.0861	-91.842819	0.000517	5.168152	1.751017	-0.000207
1460	1.4517e+02	-18.1310	-92.048713	0.000517	5.168152	1.751017	-0.000207
1461	1.4527e+02	-18.1695	-92.299016	0.000628	6.282852	2.128688	-0.000252
1462	1.4537e+02	-18.2193	-92.504910	0.000517	5.168152	1.751017	-0.000207
1463	1.4547e+02	-18.2498	-92.710804	0.000517	5.168152	1.751017	-0.000207
1464	1.4557e+02	-18.2883	-92.928809	0.000547	5.472161	1.854018	-0.000219
1465	1.4567e+02	-18.3316	-93.171037	0.000608	6.080179	2.060021	-0.000243
1466	1.4577e+02	-18.3717	-93.352708	0.000456	4.560135	1.545015	-0.000183
1467	1.4587e+02	-18.4086	-93.607048	0.000638	6.384188	2.163022	-0.000256
1468	1.4597e+02	-18.4503	-93.816979	0.000527	5.269489	1.785351	-0.000211
1469	1.4607e+02	-18.4872	-94.075356	0.000649	6.485525	2.197355	-0.000260
1470	1.4617e+02	-18.5193	-94.232804	0.000395	3.952117	1.339013	-0.000158
1471	1.4626e+02	-18.5706	-94.475032	0.000608	6.080179	2.060021	-0.000243
1472	1.4636e+02	-18.6155	-94.664777	0.000476	4.762807	1.613683	-0.000191
1473	1.4646e+02	-18.6444	-94.882783	0.000547	5.472161	1.854018	-0.000219
1474	1.4656e+02	-18.6845	-95.120974	0.000598	5.978843	2.025687	-0.000239
1475	1.4666e+02	-18.7246	-95.343016	0.000557	5.573498	1.888352	-0.000223
1476	1.4676e+02	-18.7663	-95.556984	0.000537	5.370825	1.819685	-0.000215
1477	1.4686e+02	-18.8096	-95.754804	0.000497	4.965480	1.682350	-0.000199
1478	1.4696e+02	-18.8497	-96.017218	0.000659	6.586861	2.231689	-0.000264
1479	1.4706e+02	-18.8850	-96.206963	0.000476	4.762807	1.613683	-0.000191
1480	1.4716e+02	-18.9299	-96.457266	0.000628	6.282852	2.128688	-0.000252
1481	1.4726e+02	-18.9717	-96.642974	0.000466	4.661471	1.579349	-0.000187
1482	1.4736e+02	-19.0150	-96.913462	0.000679	6.789534	2.300356	-0.000272
1483	1.4746e+02	-19.0519	-97.139542	0.000567	5.674834	1.922686	-0.000227
1484	1.4756e+02	-19.0856	-97.325250	0.000466	4.661471	1.579349	-0.000187
1485	1.4766e+02	-19.1257	-97.519032	0.000486	4.864143	1.648016	-0.000195
1486	1.4776e+02	-19.1674	-97.753186	0.000588	5.877507	1.991353	-0.000235
1487	1.4786e+02	-19.2203	-97.979266	0.000567	5.674834	1.922686	-0.000227
1488	1.4796e+02	-19.2524	-98.237642	0.000649	6.485525	2.197355	-0.000260
1489	1.4806e+02	-19.2877	-98.435462	0.000497	4.965480	1.682350	-0.000199
1490	1.4816e+02	-19.3214	-98.641356	0.000517	5.168152	1.751017	-0.000207
1491	1.4825e+02	-19.3727	-98.863399	0.000557	5.573498	1.888352	-0.000223
1492	1.4835e+02	-19.4016	-99.077367	0.000537	5.370825	1.819685	-0.000215
1493	1.4845e+02	-19.4449	-99.307483	0.000578	5.776170	1.957020	-0.000231
1494	1.4855e+02	-19.4802	-99.481080	0.000436	4.357462	1.476348	-0.000174
1495	1.4865e+02	-19.5380	-99.783865	0.000760	7.600224	2.575026	-0.000304
1496	1.4875e+02	-19.5748	-99.965537	0.000456	4.560135	1.545015	-0.000183
1497	1.4885e+02	-19.6069	-100.175468	0.000527	5.269489	1.785351	-0.000211
1498	1.4895e+02	-19.6422	-100.405584	0.000578	5.776170	1.957020	-0.000231
1499	1.4905e+02	-19.6791	-100.611478	0.000517	5.168152	1.751017	-0.000207
1500	1.4915e+02	-19.7160	-100.853706	0.000608	6.080179	2.060021	-0.000243
1501	1.4925e+02	-19.7674	-101.047489	0.000486	4.864143	1.648016	-0.000195
1502	1.4935e+02	-19.7914	-101.273569	0.000567	5.674834	1.922686	-0.000227
1503	1.4945e+02	-19.8444	-101.471388	0.000497	4.965480	1.682350	-0.000199
1504	1.4955e+02	-19.8797	-101.673245	0.000507	5.066816	1.716684	-0.000203
1505	1.4965e+02	-19.9230	-101.899325	0.000567	5.674834	1.922686	-0.000227
1506	1.4975e+02	-19.9518	-102.133478	0.000588	5.877507	1.991353	-0.000235
1507	1.4985e+02	-20.0128	-102.319187	0.000466	4.661471	1.579349	-0.000187
1508	1.4995e+02	-19.9679	-102.403967	-0.000213	-2.128063	-0.721007	-0.000085
1509	1.5005e+02	-19.9278	-102.488746	-0.000213	-2.128063	-0.721007	-0.000085
1510	1.5015e+02	-19.8764	-102.533155	-0.000111	-1.114700	-0.377670	-0.000045
1511	1.5025e+02	-19.8444	-102.553341	-0.000051	-0.506682	-0.171668	-0.000020
1512	1.5034e+02	-19.8043	-102.597749	-0.000111	-1.114700	-0.377670	-0.000045
1513	1.5044e+02	-19.7690	-102.634083	-0.000091	-0.912027	-0.309003	-0.000037
1514	1.5054e+02	-19.7256	-102.686566	-0.000132	-1.317372	-0.446338	-0.000053
1515	1.5064e+02	-19.6920	-102.686566	0.000000	0.000000	0.000000	0.000000
1516	1.5074e+02	-19.6486	-102.718863	-0.000081	-0.810691	-0.274669	-0.000032
1517	1.5084e+02	-19.6085	-102.722900	-0.000010	-0.101336	-0.034334	-0.000004
1518	1.5094e+02	-19.5588	-102.722900	0.000000	0.000000	0.000000	0.000000
1519	1.5104e+02	-19.5235	-102.779420	-0.000142	-1.418709	-0.480671	-0.000057
1520	1.5114e+02	-19.4882	-102.751160	0.000071	0.709354	0.240336	0.000028
1521	1.5124e+02	-19.4481	-102.751160	0.000000	0.000000	0.000000	0.000000
1522	1.5134e+02	-19.4144	-102.799606	-0.000122	-1.216036	-0.412004	-0.000049
1523	1.5144e+02	-19.3727	-102.795569	0.000010	0.101336	0.034334	0.000004
1524	1.5154e+02	-19.3214	-102.791532	0.000010	0.101336	0.034334	0.000004
1525	1.5164e+02	-19.2845	-102.791532	0.000000	0.000000	0.000000	0.000000
1526	1.5174e+02	-19.2540	-102.775383	0.000041	0.405345	0.137335	0.000016
1527	1.5184e+02	-19.2139	-102.775383	0.000000	0.000000	0.000000	0.000000
1528	1.5194e+02	-19.1561	-102.759235	0.000041	0.405345	0.137335	0.000016
1529	1.5204e+02	-19.1337	-102.771346	-0.000030	-0.304009	-0.103001	-0.000012
1530	1.5214e+02	-19.0807	-102.751160	0.000051	0.506682	0.171668	0.000020
1531	1.5224e+02	-19.0551	-102.730975	0.000051	0.506682	0.171668	0.000020
1532	1.5233e+02	-19.0166	-102.747123	-0.000041	-0.405345	-0.137335	-0.000016
1533	1.5243e+02	-18.9684	-102.726937	0.000051	0.506682	0.171668	0.000020
1534	1.5253e+02	-18.9348	-102.682529	0.000111	1.114700	0.377670	0.000045
1535	1.5263e+02	-18.8834	-102.609860	0.000182	1.824054	0.618006	0.000073
1536	1.5273e+02	-18.8545	-102.662343	-0.000132	-1.317372	-0.446338	-0.000053
1537	1.5283e+02	-18.8064	-102.634083	0.000071	0.709354	0.240336	0.000028
1538	1.5293e+02	-18.7647	-102.585638	0.000122	1.216036	0.412004	0.000049
1539	1.5303e+02	-18.7278	-102.561415	0.000061	0.608018	0.206002	0.000024
1540	1.5313e+02	-18.6861	-102.533155	0.000071	0.709354	0.240336	0.000028
1541	1.5323e+02	-18.6540	-102.525081	0.000020	0.202673	0.068667	0.000008
1542	1.5333e+02	-18.6043	-102.521043	0.000010	0.101336	0.034334	0.000004
1543	1.5343e+02	-18.5626	-102.476635	0.000111	1.114700	0.377670	0.000045
1544	1.5353e+02	-18.5321	-102.448375	0.000071	0.709354	0.240336	0.000028
1545	1.5363e+02	-18.4824	-102.436264	0.000030	0.304009	0.103001	0.000012
1546	1.5373e+02	-18.4535	-102.347447	0.000223	2.229399	0.755341	0.000089
1547	1.5383e+02	-18.4086	-102.335335	0.000030	0.304009	0.103001	0.000012
1548	1.5393e+02	-18.3797	-102.294964	0.000101	1.013363	0.343337	0.000041
1549	1.5403e+02	-18.3300	-102.258630	0.000091	0.912027	0.309003	0.000037
1550	1.5413e+02	-18.2899	-102.185961	0.000182	1.824054	0.618006	0.000073
1551	1.5422e+02	-18.2498	-102.169813	0.000041	0.405345	0.137335	0.000016
1552	1.5432e+02	-18.2032	-102.161738	0.000020	0.202673	0.068667	0.000008
1553	1.5442e+02	-18.1744	-102.149627	0.000030	0.304009	0.103001	0.000012
1554	1.5452e+02	-18.1246	-102.072921	0.000193	1.925390	0.652340	0.000077
1555	1.5462e+02	-18.0957	-102.056773	0.000041	0.405345	0.137335	0.000016
1556	1.5472e+02	-18.0556	-102.016402	0.000101	1.013363	0.343337	0.000041
1557	1.5482e+02	-18.0155	-101.984104	0.000081	0.810691	0.274669	0.000032
1558	1.5492e+02	-17.9770	-101.895287	0.000223	2.229399	0.755341	0.000089
1559	1.5502e+02	-17.9241	-101.822619	0.000182	1.824054	0.618006	0.000073
1560	1.5512e+02	-17.8872	-101.774173	0.000122	1.216036	0.412004	0.000049
1561	1.5522e+02	-17.8439	-101.782248	-0.000020	-0.202673	-0.068667	-0.000008
1562	1.5532e+02	-17.8102	-101.705542	0.000193	1.925390	0.652340	0.000077
1563	1.5542e+02	-17.7733	-101.592502	0.000284	2.837417	0.961343	0.000114
1564	1.5552e+02	-17.7300	-101.576354	0.000041	0.405345	0.137335	0.000016
1565	1.5562e+02	-17.6931	-101.552131	0.000061	0.608018	0.206002	0.000024
1566	1.5572e+02	-17.6546	-101.471388	0.000203	2.026726	0.686674	0.000081
1567	1.5582e+02	-17.6097	-101.422943	0.000122	1.216036	0.412004	0.000049
1568	1.5592e+02	-17.5728	-101.350274	0.000182	1.824054	0.618006	0.000073
1569	1.5602e+02	-17.5327	-101.317977	0.000081	0.810691	0.274669	0.000032
1570	1.5612e+02	-17.4910	-101.253383	0.000162	1.621381	0.549339	0.000065
1571	1.5622e+02	-17.4605	-101.140343	0.000284	2.837417	0.961343	0.000114
1572	1.5631e+02	-17.4123	-101.116120	0.000061	0.608018	0.206002	0.000024
1573	1.5641e+02	-17.3722	-101.047489	0.000172	1.722717	0.583672	0.000069
1574	1.5651e+02	-17.3337	-100.974821	0.000182	1.824054	0.618006	0.000073
1575	1.5661e+02	-17.3017	-100.942523	0.000081	0.810691	0.274669	0.000032
1576	1.5671e+02	-17.2375	-100.837558	0.000263	2.634744	0.892676	0.000105
1577	1.5681e+02	-17.2246	-100.777001	0.000152	1.520045	0.515005	0.000061
1578	1.5691e+02	-17.1765	-100.708370	0.000172	1.722717	0.583672	0.000069
1579	1.5701e+02	-17.1412	-100.623590	0.000213	2.128063	0.721007	0.000085
1580	1.5711e+02	-17.0931	-100.554958	0.000172	1.722717	0.583672	0.000069
1581	1.5721e+02	-17.0578	-100.494401	0.000152	1.520045	0.515005	0.000061
1582	1.5731e+02	-17.0113	-100.441919	0.000132	1.317372	0.446338	0.000053
1583	1.5741e+02	-16.9760	-100.393473	0.000122	1.216036	0.412004	0.000049
1584	1.5751e+02	-16.9279	-100.316767	0.000193	1.925390	0.652340	0.000077
1585	1.5761e+02	-16.9022	-100.195653	0.000304	3.040090	1.030010	0.000122
1586	1.5771e+02	-16.8525	-100.179505	0.000041	0.405345	0.137335	0.000016
1587	1.5781e+02	-16.8124	-100.066465	0.000284	2.837417	0.961343	0.000114
1588	1.5791e+02	-16.7835	-100.001871	0.000162	1.621381	0.549339	0.000065
1589	1.5801e+02	-16.7386	-99.904980	0.000243	2.432072	0.824008	0.000097
1590	1.5811e+02	-16.6936	-99.824237	0.000203	2.026726	0.686674	0.000081
1591	1.5821e+02	-16.6471	-99.763680	0.000152	1.520045	0.515005	0.000061
1592	1.5830e+02	-16.6118	-99.674863	0.000223	2.229399	0.755341	0.000089
1593	1.5840e+02	-16.5781	-99.614306	0.000152	1.520045	0.515005	0.000061
1594	1.5850e+02	-16.5412	-99.557786	0.000142	1.418709	0.480671	0.000057
1595	1.5860e+02	-16.4947	-99.448783	0.000274	2.736081	0.927009	0.000110
1596	1.5870e+02	-16.4594	-99.364003	0.000213	2.128063	0.721007	0.000085
1597	1.5880e+02	-16.4097	-99.311521	0.000132	1.317372	0.446338	0.000053
1598	1.5890e+02	-16.3776	-99.214629	0.000243	2.432072	0.824008	0.000097
1599	1.5900e+02	-16.3311	-99.150035	0.000162	1.621381	0.549339	0.000065
1600	1.5910e+02	-16.3006	-99.093515	0.000142	1.418709	0.480671	0.000057
1601	1.5920e+02	-16.2637	-98.968364	0.000314	3.141426	1.064344	0.000126
1602	1.5930e+02	-16.2156	-98.867436	0.000253	2.533408	0.858342	0.000101
1603	1.5940e+02	-16.1851	-98.818990	0.000122	1.216036	0.412004	0.000049
1604	1.5950e+02	-16.1322	-98.734210	0.000213	2.128063	0.721007	0.000085
1605	1.5960e+02	-16.0985	-98.605022	0.000324	3.242762	1.098678	0.000130
1606	1.5970e+02	-16.0600	-98.528316	0.000193	1.925390	0.652340	0.000077
1607	1.5980e+02	-16.0215	-98.483908	0.000111	1.114700	0.377670	0.000045
1608	1.5990e+02	-15.9846	-98.382979	0.000253	2.533408	0.858342	0.000101
1609	1.6000e+02	-15.9397	-98.310311	0.000182	1.824054	0.618006	0.000073
1610	1.6010e+02	-15.8963	-98.209383	0.000253	2.533408	0.858342	0.000101
1611	1.6019e+02	-15.8739	-98.104417	0.000263	2.634744	0.892676	0.000105
1612	1.6029e+02	-15.8193	-98.031749	0.000182	1.824054	0.618006	0.000073
1613	1.6039e+02	-15.7840	-97.922746	0.000274	2.736081	0.927009	0.000110
1614	1.6049e+02	-15.7407	-97.842003	0.000203	2.026726	0.686674	0.000081
1615	1.6059e+02	-15.7022	-97.761260	0.000203	2.026726	0.686674	0.000081
1616	1.6069e+02	-15.6621	-97.623998	0.000345	3.445435	1.167345	0.000138
1617	1.6079e+02	-15.6188	-97.579589	0.000111	1.114700	0.377670	0.000045
1618	1.6089e+02	-15.5771	-97.470587	0.000274	2.736081	0.927009	0.000110
1619	1.6099e+02	-15.5354	-97.357547	0.000284	2.837417	0.961343	0.000114
1620	1.6109e+02	-15.4857	-97.260656	0.000243	2.432072	0.824008	0.000097
1621	1.6119e+02	-15.4616	-97.183950	0.000193	1.925390	0.652340	0.000077
1622	1.6129e+02	-15.4327	-97.091096	0.000233	2.330735	0.789675	0.000093
1623	1.6139e+02	-15.3814	-97.018427	0.000182	1.824054	0.618006	0.000073
1624	1.6149e+02	-15.3333	-96.925573	0.000233	2.330735	0.789675	0.000093
1625	1.6159e+02	-15.3012	-96.772162	0.000385	3.850780	1.304680	0.000154
1626	1.6169e+02	-15.2659	-96.687382	0.000213	2.128063	0.721007	0.000085
1627	1.6179e+02	-15.2178	-96.562231	0.000314	3.141426	1.064344	0.000126
1628	1.6189e+02	-15.1744	-96.501674	0.000152	1.520045	0.515005	0.000061
1629	1.6199e+02	-15.1520	-96.392671	0.000274	2.736081	0.927009	0.000110
1630	1.6209e+02	-15.0958	-96.299817	0.000233	2.330735	0.789675	0.000093
1631	1.6219e+02	-15.0557	-96.146406	0.000385	3.850780	1.304680	0.000154
1632	1.6228e+02	-15.0140	-96.110072	0.000091	0.912027	0.309003	0.000037
1633	1.6238e+02	-14.9755	-95.976846	0.000334	3.344099	1.133011	0.000134
1634	1.6248e+02	-14.9450	-95.875918	0.000253	2.533408	0.858342	0.000101
1635	1.6258e+02	-14.9081	-95.762878	0.000284	2.837417	0.961343	0.000114
1636	1.6268e+02	-14.8632	-95.645801	0.000294	2.938753	0.995677	0.000118
1637	1.6278e+02	-14.8247	-95.516613	0.000324	3.242762	1.098678	0.000130
1638	1.6288e+02	-14.7830	-95.423759	0.000233	2.330735	0.789675	0.000093
1639	1.6298e+02	-14.7365	-95.322830	0.000253	2.533408	0.858342	0.000101
1640	1.6308e+02	-14.7124	-95.157308	0.000415	4.154789	1.407681	0.000166
1641	1.6318e+02	-14.6643	-95.108862	0.000122	1.216036	0.412004	0.000049
1642	1.6328e+02	-14.6130	-95.016008	0.000233	2.330735	0.789675	0.000093
1643	1.6338e+02	-14.5761	-94.898931	0.000294	2.938753	0.995677	0.000118
1644	1.6348e+02	-14.5392	-94.826263	0.000182	1.824054	0.618006	0.000073
1645	1.6358e+02	-14.5087	-94.656703	0.000426	4.256126	1.442014	0.000170
1646	1.6368e+02	-14.4686	-94.571923	0.000213	2.128063	0.721007	0.000085
1647	1.6378e+02	-14.4285	-94.426586	0.000365	3.648108	1.236012	0.000146
1648	1.6388e+02	-14.3739	-94.394289	0.000081	0.810691	0.274669	0.000032
1649	1.6398e+02	-14.3531	-94.192432	0.000507	5.066816	1.716684	0.000203
1650	1.6408e+02	-14.3065	-94.135913	0.000142	1.418709	0.480671	0.000057
1651	1.6418e+02	-14.2648	-93.978464	0.000395	3.952117	1.339013	0.000158
1652	1.6427e+02	-14.2247	-93.934056	0.000111	1.114700	0.377670	0.000045
1653	1.6437e+02	-14.1814	-93.821016	0.000284	2.837417	0.961343	0.000114
1654	1.6447e+02	-14.1445	-93.667605	0.000385	3.850780	1.304680	0.000154
1655	1.6457e+02	-14.1092	-93.546491	0.000304	3.040090	1.030010	0.000122
1656	1.6467e+02	-14.0627	-93.465748	0.000203	2.026726	0.686674	0.000081
1657	1.6477e+02	-14.0242	-93.336560	0.000324	3.242762	1.098678	0.000130
1658	1.6487e+02	-13.9809	-93.239668	0.000243	2.432072	0.824008	0.000097
1659	1.6497e+02	-13.9552	-93.134703	0.000263	2.634744	0.892676	0.000105
1660	1.6507e+02	-13.9039	-93.009552	0.000314	3.141426	1.064344	0.000126
1661	1.6517e+02	-13.8686	-92.888438	0.000304	3.040090	1.030010	0.000122
1662	1.6527e+02	-13.8269	-92.787509	0.000253	2.533408	0.858342	0.000101
1663	1.6537e+02	-13.7916	-92.666395	0.000304	3.040090	1.030010	0.000122
1664	1.6547e+02	-13.7499	-92.549318	0.000294	2.938753	0.995677	0.000118
1665	1.6557e+02	-13.7066	-92.424167	0.000314	3.141426	1.064344	0.000126
1666	1.6567e+02	-13.6793	-92.282867	0.000355	3.546771	1.201679	0.000142
1667	1.6577e+02	-13.6231	-92.181939	0.000253	2.533408	0.858342	0.000101
1668	1.6587e+02	-13.5814	-92.060825	0.000304	3.040090	1.030010	0.000122
1669	1.6597e+02	-13.5542	-91.939711	0.000304	3.040090	1.030010	0.000122
1670	1.6607e+02	-13.5092	-91.834745	0.000263	2.634744	0.892676	0.000105
1671	1.6616e+02	-13.4643	-91.697483	0.000345	3.445435	1.167345	0.000138
1672	1.6626e+02	-13.4194	-91.576369	0.000304	3.040090	1.030010	0.000122
1673	1.6636e+02	-13.3905	-91.443143	0.000334	3.344099	1.133011	0.000134
1674	1.6646e+02	-13.3488	-91.330103	0.000284	2.837417	0.961343	0.000114
1675	1.6656e+02	-13.3103	-91.213026	0.000294	2.938753	0.995677	0.000118
1676	1.6666e+02	-13.2622	-91.112098	0.000253	2.533408	0.858342	0.000101
1677	1.6676e+02	-13.2301	-90.950612	0.000405	4.053453	1.373347	0.000162
1678	1.6686e+02	-13.1964	-90.805276	0.000365	3.648108	1.236012	0.000146
1679	1.6696e+02	-13.1515	-90.708384	0.000243	2.432072	0.824008	0.000097
1680	1.6706e+02	-13.1034	-90.563047	0.000365	3.648108	1.236012	0.000146
1681	1.6716e+02	-13.0633	-90.466156	0.000243	2.432072	0.824008	0.000097
1682	1.6726e+02	-13.0376	-90.292559	0.000436	4.357462	1.476348	0.000174
1683	1.6736e+02	-12.9815	-90.203742	0.000223	2.229399	0.755341	0.000089
1684	1.6746e+02	-12.9542	-90.090703	0.000284	2.837417	0.961343	0.000114
1685	1.6756e+02	-12.9093	-89.941329	0.000375	3.749444	1.270346	0.000150
1686	1.6766e+02	-12.8756	-89.816177	0.000314	3.141426	1.064344	0.000126
1687	1.6776e+02	-12.8355	-89.674878	0.000355	3.546771	1.201679	0.000142
1688	1.6786e+02	-12.7841	-89.586061	0.000223	2.229399	0.755341	0.000089
1689	1.6796e+02	-12.7585	-89.436687	0.000375	3.749444	1.270346	0.000150
1690	1.6806e+02	-12.7007	-89.315573	0.000304	3.040090	1.030010	0.000122
1691	1.6816e+02	-12.6766	-89.190421	0.000314	3.141426	1.064344	0.000126
1692	1.6825e+02	-12.6317	-88.996639	0.000486	4.864143	1.648016	0.000195
1693	1.6835e+02	-12.5964	-88.871488	0.000314	3.141426	1.064344	0.000126
1694	1.6845e+02	-12.5547	-88.782671	0.000223	2.229399	0.755341	0.000089
1695	1.6855e+02	-12.5162	-88.665594	0.000294	2.938753	0.995677	0.000118
1696	1.6865e+02	-12.4777	-88.483923	0.000456	4.560135	1.545015	0.000183
1697	1.6875e+02	-12.4344	-88.366846	0.000294	2.938753	0.995677	0.000118
1698	1.6885e+02	-12.3959	-88.245732	0.000304	3.040090	1.030010	0.000122
1699	1.6895e+02	-12.3574	-88.108469	0.000345	3.445435	1.167345	0.000138
1700	1.6905e+02	-12.3141	-87.951021	0.000395	3.952117	1.339013	0.000158
1701	1.6915e+02	-12.2772	-87.837981	0.000284	2.837417	0.961343	0.000114
1702	1.6925e+02	-12.2226	-87.656310	0.000456	4.560135	1.545015	0.000183
1703	1.6935e+02	-12.1986	-87.543270	0.000284	2.837417	0.961343	0.000114
1704	1.6945e+02	-12.1601	-87.401970	0.000355	3.546771	1.201679	0.000142
1705	1.6955e+02	-12.1200	-87.272782	0.000324	3.242762	1.098678	0.000130
1706	1.6965e+02	-12.0606	-87.143593	0.000324	3.242762	1.098678	0.000130
1707	1.6975e+02	-12.0350	-86.978071	0.000415	4.154789	1.407681	0.000166
1708	1.6985e+02	-12.0077	-86.836771	0.000355	3.546771	1.201679	0.000142
1709	1.6995e+02	-11.9596	-86.731806	0.000263	2.634744	0.892676	0.000105
1710	1.7005e+02	-11.9082	-86.610692	0.000304	3.040090	1.030010	0.000122
1711	1.7015e+02	-11.8681	-86.429020	0.000456	4.560135	1.545015	0.000183
1712	1.7024e+02	-11.8360	-86.315981	0.000284	2.837417	0.961343	0.000114
1713	1.7034e+02	-11.7927	-86.154495	0.000405	4.053453	1.373347	0.000162
1714	1.7044e+02	-11.7558	-86.045493	0.000274	2.736081	0.927009	0.000110
1715	1.7054e+02	-11.7125	-85.851710	0.000486	4.864143	1.648016	0.000195
1716	1.7064e+02	-11.6772	-85.722522	0.000324	3.242762	1.098678	0.000130
1717	1.7074e+02	-11.6339	-85.581222	0.000355	3.546771	1.201679	0.000142
1718	1.7084e+02	-11.5970	-85.460108	0.000304	3.040090	1.030010	0.000122
1719	1.7094e+02	-11.5601	-85.302660	0.000395	3.952117	1.339013	0.000158
1720	1.7104e+02	-11.5136	-85.173471	0.000324	3.242762	1.098678	0.000130
1721	1.7114e+02	-11.4879	-84.995837	0.000446	4.458798	1.510682	0.000179
1722	1.7124e+02	-11.4286	-84.866649	0.000324	3.242762	1.098678	0.000130
1723	1.7134e+02	-11.3917	-84.713238	0.000385	3.850780	1.304680	0.000154
1724	1.7144e+02	-11.3564	-84.559827	0.000385	3.850780	1.304680	0.000154
1725	1.7154e+02	-11.3130	-84.479084	0.000203	2.026726	0.686674	0.000081
1726	1.7164e+02	-11.2794	-84.309524	0.000426	4.256126	1.442014	0.000170
1727	1.7174e+02	-11.2377	-84.164187	0.000365	3.648108	1.236012	0.000146
1728	1.7184e+02	-11.1991	-84.014813	0.000375	3.749444	1.270346	0.000150
1729	1.7194e+02	-11.1574	-83.853328	0.000405	4.053453	1.373347	0.000162
1730	1.7204e+02	-11.1093	-83.683768	0.000426	4.256126	1.442014	0.000170
1731	1.7213e+02	-11.0692	-83.534394	0.000375	3.749444	1.270346	0.000150
1732	1.7223e+02	-11.0500	-83.409243	0.000314	3.141426	1.064344	0.000126
1733	1.7233e+02	-11.0050	-83.255832	0.000385	3.850780	1.304680	0.000154
1734	1.7243e+02	-10.9633	-83.033789	0.000557	5.573498	1.888352	0.000223
1735	1.7253e+02	-10.9088	-82.892490	0.000355	3.546771	1.201679	0.000142
1736	1.7263e+02	-10.8751	-82.795598	0.000243	2.432072	0.824008	0.000097
1737	1.7273e+02	-10.8462	-82.601816	0.000486	4.864143	1.648016	0.000195
1738	1.7283e+02	-10.8045	-82.412070	0.000476	4.762807	1.613683	0.000191
1739	1.7293e+02	-10.7548	-82.323253	0.000223	2.229399	0.755341	0.000089
1740	1.7303e+02	-10.7211	-82.161768	0.000405	4.053453	1.373347	0.000162
1741	1.7313e+02	-10.6890	-81.984134	0.000446	4.458798	1.510682	0.000179
1742	1.7323e+02	-10.6264	-81.871094	0.000284	2.837417	0.961343	0.000114
1743	1.7333e+02	-10.5927	-81.673275	0.000497	4.965480	1.682350	0.000199
1744	1.7343e+02	-10.5623	-81.495641	0.000446	4.458798	1.510682	0.000179
1745	1.7353e+02	-10.5157	-81.330118	0.000415	4.154789	1.407681	0.000166
1746	1.7363e+02	-10.4805	-81.188818	0.000355	3.546771	1.201679	0.000142
1747	1.7373e+02	-10.4452	-81.063667	0.000314	3.141426	1.064344	0.000126
1748	1.7383e+02	-10.4002	-80.898144	0.000415	4.154789	1.407681	0.000166
1749	1.7393e+02	-10.3633	-80.736659	0.000405	4.053453	1.373347	0.000162
1750	1.7403e+02	-10.3200	-80.587285	0.000375	3.749444	1.270346	0.000150
1751	1.7413e+02	-10.2783	-80.409651	0.000446	4.458798	1.510682	0.000179
1752	1.7422e+02	-10.2334	-80.252203	0.000395	3.952117	1.339013	0.000158
1753	1.7432e+02	-10.2045	-80.054383	0.000497	4.965480	1.682350	0.000199
1754	1.7442e+02	-10.1564	-79.896935	0.000395	3.952117	1.339013	0.000158
1755	1.7452e+02	-10.1179	-79.796006	0.000253	2.533408	0.858342	0.000101
1756	1.7462e+02	-10.0794	-79.622410	0.000436	4.357462	1.476348	0.000174
1757	1.7472e+02	-10.0409	-79.464961	0.000395	3.952117	1.339013	0.000158
1758	1.7482e+02	-9.9928	-79.271179	0.000486	4.864143	1.648016	0.000195
1759	1.7492e+02	-9.9671	-79.117768	0.000385	3.850780	1.304680	0.000154
1760	1.7502e+02	-9.9110	-78.923985	0.000486	4.864143	1.648016	0.000195
1761	1.7512e+02	-9.8821	-78.802871	0.000304	3.040090	1.030010	0.000122
1762	1.7522e+02	-9.8372	-78.621200	0.000456	4.560135	1.545015	0.000183
1763	1.7532e+02	-9.8035	-78.475863	0.000365	3.648108	1.236012	0.000146
1764	1.7542e+02	-9.7602	-78.290155	0.000466	4.661471	1.579349	0.000187
1765	1.7552e+02	-9.7168	-78.136744	0.000385	3.850780	1.304680	0.000154
1766	1.7562e+02	-9.6864	-77.999481	0.000345	3.445435	1.167345	0.000138
1767	1.7572e+02	-9.6463	-77.817810	0.000456	4.560135	1.545015	0.000183
1768	1.7582e+02	-9.6110	-77.684584	0.000334	3.344099	1.133011	0.000134
1769	1.7592e+02	-9.5596	-77.486765	0.000497	4.965480	1.682350	0.000199
1770	1.7602e+02	-9.5195	-77.317205	0.000426	4.256126	1.442014	0.000170
1771	1.7612e+02	-9.4826	-77.147645	0.000426	4.256126	1.442014	0.000170
1772	1.7621e+02	-9.4570	-76.957900	0.000476	4.762807	1.613683	0.000191
1773	1.7631e+02	-9.3992	-76.832749	0.000314	3.141426	1.064344	0.000126
1774	1.7641e+02	-9.3623	-76.675301	0.000395	3.952117	1.339013	0.000158
1775	1.7651e+02	-9.3254	-76.481518	0.000486	4.864143	1.648016	0.000195
1776	1.7661e+02	-9.2869	-76.271587	0.000527	5.269489	1.785351	0.000211
1777	1.7671e+02	-9.2548	-76.118176	0.000385	3.850780	1.304680	0.000154
1778	1.7681e+02	-9.2067	-75.956690	0.000405	4.053453	1.373347	0.000162
1779	1.7691e+02	-9.1698	-75.807316	0.000375	3.749444	1.270346	0.000150
1780	1.7701e+02	-9.1249	-75.645831	0.000405	4.053453	1.373347	0.000162
1781	1.7711e+02	-9.0864	-75.448011	0.000497	4.965480	1.682350	0.000199
1782	1.7721e+02	-9.0495	-75.318823	0.000324	3.242762	1.098678	0.000130
1783	1.7731e+02	-9.0046	-75.129078	0.000476	4.762807	1.613683	0.000191
1784	1.7741e+02	-8.9709	-74.943369	0.000466	4.661471	1.579349	0.000187
1785	1.7751e+02	-8.9308	-74.818218	0.000314	3.141426	1.064344	0.000126
1786	1.7761e+02	-8.8858	-74.660770	0.000395	3.952117	1.339013	0.000158
1787	1.7771e+02	-8.8441	-74.450839	0.000527	5.269489	1.785351	0.000211
1788	1.7781e+02	-8.7960	-74.257056	0.000486	4.864143	1.648016	0.000195
1789	1.7791e+02	-8.7687	-74.091534	0.000415	4.154789	1.407681	0.000166
1790	1.7801e+02	-8.7447	-73.938122	0.000385	3.850780	1.304680	0.000154
1791	1.7810e+02	-8.6853	-73.736266	0.000507	5.066816	1.716684	0.000203
1792	1.7820e+02	-8.6452	-73.558632	0.000446	4.458798	1.510682	0.000179
1793	1.7830e+02	-8.6099	-73.372923	0.000466	4.661471	1.579349	0.000187
1794	1.7840e+02	-8.5730	-73.235661	0.000345	3.445435	1.167345	0.000138
1795	1.7850e+02	-8.5329	-73.045915	0.000476	4.762807	1.613683	0.000191
1796	1.7860e+02	-8.4896	-72.827910	0.000547	5.472161	1.854018	0.000219
1797	1.7870e+02	-8.4527	-72.678536	0.000375	3.749444	1.270346	0.000150
1798	1.7880e+02	-8.4142	-72.452457	0.000567	5.674834	1.922686	0.000227
1799	1.7890e+02	-8.3613	-72.327305	0.000314	3.141426	1.064344	0.000126
1800	1.7900e+02	-8.3292	-72.125449	0.000507	5.066816	1.716684	0.000203
1801	1.7910e+02	-8.2891	-71.980112	0.000365	3.648108	1.236012	0.000146
1802	1.7920e+02	-8.2490	-71.782292	0.000497	4.965480	1.682350	0.000199
1803	1.7930e+02	-8.2089	-71.645029	0.000345	3.445435	1.167345	0.000138
1804	1.7940e+02	-8.1704	-71.410876	0.000588	5.877507	1.991353	0.000235
1805	1.7950e+02	-8.1303	-71.253427	0.000395	3.952117	1.339013	0.000158
1806	1.7960e+02	-8.0853	-71.035422	0.000547	5.472161	1.854018	0.000219
1807	1.7970e+02	-8.0532	-70.902196	0.000334	3.344099	1.133011	0.000134
1808	1.7980e+02	-8.0099	-70.696302	0.000517	5.168152	1.751017	0.000207
1809	1.7990e+02	-7.9714	-70.526743	0.000426	4.256126	1.442014	0.000170
1810	1.8000e+02	-7.9377	-70.332960	0.000486	4.864143	1.648016	0.000195
1811	1.8009e+02	-7.8880	-70.151289	0.000456	4.560135	1.545015	0.000183
1812	1.8019e+02	-7.8495	-69.977692	0.000436	4.357462	1.476348	0.000174
1813	1.8029e+02	-7.8094	-69.808133	0.000426	4.256126	1.442014	0.000170
1814	1.8039e+02	-7.7757	-69.650684	0.000395	3.952117	1.339013	0.000158
1815	1.8049e+02	-7.7356	-69.440753	0.000527	5.269489	1.785351	0.000211
1816	1.8059e+02	-7.6955	-69.275231	0.000415	4.154789	1.407681	0.000166
1817	1.8069e+02	-7.6570	-69.077411	0.000497	4.965480	1.682350	0.000199
1818	1.8079e+02	-7.6073	-68.928037	0.000375	3.749444	1.270346	0.000150
1819	1.8089e+02	-7.5720	-68.701957	0.000567	5.674834	1.922686	0.000227
1820	1.8099e+02	-7.5287	-68.520286	0.000456	4.560135	1.545015	0.000183
1821	1.8109e+02	-7.4886	-68.374949	0.000365	3.648108	1.236012	0.000146
1822	1.8119e+02	-7.4533	-68.160981	0.000537	5.370825	1.819685	0.000215
1823	1.8129e+02	-7.4196	-68.015644	0.000365	3.648108	1.236012	0.000146
1824	1.8139e+02	-7.3698	-67.769379	0.000618	6.181516	2.094354	0.000248
1825	1.8149e+02	-7.3378	-67.644228	0.000314	3.141426	1.064344	0.000126
1826	1.8159e+02	-7.2944	-67.442371	0.000507	5.066816	1.716684	0.000203
1827	1.8169e+02	-7.2559	-67.240514	0.000507	5.066816	1.716684	0.000203
1828	1.8179e+02	-7.2046	-67.046732	0.000486	4.864143	1.648016	0.000195
1829	1.8189e+02	-7.1725	-66.869098	0.000446	4.458798	1.510682	0.000179
1830	1.8199e+02	-7.1260	-66.691464	0.000446	4.458798	1.510682	0.000179
1831	1.8209e+02	-7.1035	-66.525941	0.000415	4.154789	1.407681	0.000166
1832	1.8218e+02	-7.0490	-66.316010	0.000527	5.269489	1.785351	0.000211
1833	1.8228e+02	-7.0169	-66.130302	0.000466	4.661471	1.579349	0.000187
1834	1.8238e+02	-6.9688	-65.940557	0.000476	4.762807	1.613683	0.000191
1835	1.8248e+02	-6.9399	-65.734663	0.000517	5.168152	1.751017	0.000207
1836	1.8258e+02	-6.8918	-65.516657	0.000547	5.472161	1.854018	0.000219
1837	1.8268e+02	-6.8565	-65.343060	0.000436	4.357462	1.476348	0.000174
1838	1.8278e+02	-6.8132	-65.173501	0.000426	4.256126	1.442014	0.000170
1839	1.8288e+02	-6.7731	-64.991830	0.000456	4.560135	1.545015	0.000183
1840	1.8298e+02	-6.7265	-64.822270	0.000426	4.256126	1.442014	0.000170
1841	1.8308e+02	-6.7041	-64.628487	0.000486	4.864143	1.648016	0.000195
1842	1.8318e+02	-6.6608	-64.426631	0.000507	5.066816	1.716684	0.000203
1843	1.8328e+02	-6.6223	-64.212662	0.000537	5.370825	1.819685	0.000215
1844	1.8338e+02	-6.5693	-64.026954	0.000466	4.661471	1.579349	0.000187
1845	1.8348e+02	-6.5292	-63.829135	0.000497	4.965480	1.682350	0.000199
1846	1.8358e+02	-6.4987	-63.683798	0.000365	3.648108	1.236012	0.000146
1847	1.8368e+02	-6.4506	-63.441570	0.000608	6.080179	2.060021	0.000243
1848	1.8378e+02	-6.4266	-63.284121	0.000395	3.952117	1.339013	0.000158
1849	1.8388e+02	-6.3865	-63.062079	0.000557	5.573498	1.888352	0.000223
1850	1.8398e+02	-6.3351	-62.945002	0.000294	2.938753	0.995677	0.000118
1851	1.8407e+02	-6.3030	-62.690662	0.000638	6.384188	2.163022	0.000256
1852	1.8417e+02	-6.2517	-62.541288	0.000375	3.749444	1.270346	0.000150
1853	1.8427e+02	-6.2260	-62.315209	0.000567	5.674834	1.922686	0.000227
1854	1.8437e+02	-6.1795	-62.081055	0.000588	5.877507	1.991353	0.000235
1855	1.8447e+02	-6.1378	-61.903421	0.000446	4.458798	1.510682	0.000179
1856	1.8457e+02	-6.1073	-61.705601	0.000497	4.965480	1.682350	0.000199
1857	1.8467e+02	-6.0576	-61.511819	0.000486	4.864143	1.648016	0.000195
1858	1.8477e+02	-6.0143	-61.330148	0.000456	4.560135	1.545015	0.000183
1859	1.8487e+02	-5.9742	-61.128291	0.000507	5.066816	1.716684	0.000203
1860	1.8497e+02	-5.9405	-60.918360	0.000527	5.269489	1.785351	0.000211
1861	1.8507e+02	-5.9084	-60.720540	0.000497	4.965480	1.682350	0.000199
1862	1.8517e+02	-5.8587	-60.482349	0.000598	5.978843	2.025687	0.000239
1863	1.8527e+02	-5.8153	-60.332975	0.000375	3.749444	1.270346	0.000150
1864	1.8537e+02	-5.7720	-60.114970	0.000547	5.472161	1.854018	0.000219
1865	1.8547e+02	-5.7432	-59.929261	0.000466	4.661471	1.579349	0.000187
1866	1.8557e+02	-5.7014	-59.707219	0.000557	5.573498	1.888352	0.000223
1867	1.8567e+02	-5.6597	-59.525548	0.000456	4.560135	1.545015	0.000183
1868	1.8577e+02	-5.6212	-59.311580	0.000537	5.370825	1.819685	0.000215
1869	1.8587e+02	-5.5875	-59.101649	0.000527	5.269489	1.785351	0.000211
1870	1.8597e+02	-5.5394	-58.919978	0.000456	4.560135	1.545015	0.000183
1871	1.8606e+02	-5.4977	-58.738306	0.000456	4.560135	1.545015	0.000183
1872	1.8616e+02	-5.4592	-58.504153	0.000588	5.877507	1.991353	0.000235
1873	1.8626e+02	-5.4239	-58.282110	0.000557	5.573498	1.888352	0.000223
1874	1.8636e+02	-5.3806	-58.084290	0.000497	4.965480	1.682350	0.000199
1875	1.8646e+02	-5.3437	-57.886471	0.000497	4.965480	1.682350	0.000199
1876	1.8656e+02	-5.3004	-57.696725	0.000476	4.762807	1.613683	0.000191
1877	1.8666e+02	-5.2683	-57.519091	0.000446	4.458798	1.510682	0.000179
1878	1.8676e+02	-5.2218	-57.284938	0.000588	5.877507	1.991353	0.000235
1879	1.8686e+02	-5.1929	-57.087118	0.000497	4.965480	1.682350	0.000199
1880	1.8696e+02	-5.1384	-56.877187	0.000527	5.269489	1.785351	0.000211
1881	1.8706e+02	-5.1031	-56.675330	0.000507	5.066816	1.716684	0.000203
1882	1.8716e+02	-5.0646	-56.441176	0.000588	5.877507	1.991353	0.000235
1883	1.8726e+02	-5.0277	-56.231245	0.000527	5.269489	1.785351	0.000211
1884	1.8736e+02	-4.9908	-56.045537	0.000466	4.661471	1.579349	0.000187
1885	1.8746e+02	-4.9362	-55.843680	0.000507	5.066816	1.716684	0.000203
1886	1.8756e+02	-4.9073	-55.633749	0.000527	5.269489	1.785351	0.000211
1887	1.8766e+02	-4.8705	-55.460152	0.000436	4.357462	1.476348	0.000174
1888	1.8776e+02	-4.8159	-55.205813	0.000638	6.384188	2.163022	0.000256
1889	1.8786e+02	-4.7774	-55.020104	0.000466	4.661471	1.579349	0.000187
1890	1.8796e+02	-4.7501	-54.834396	0.000466	4.661471	1.579349	0.000187
1891	1.8806e+02	-4.7036	-54.604279	0.000578	5.776170	1.957020	0.000231
1892	1.8815e+02	-4.6635	-54.394348	0.000527	5.269489	1.785351	0.000211
1893	1.8825e+02	-4.6234	-54.188454	0.000517	5.168152	1.751017	0.000207
1894	1.8835e+02	-4.5961	-53.938152	0.000628	6.282852	2.128688	0.000252
1895	1.8845e+02	-4.5512	-53.752444	0.000466	4.661471	1.579349	0.000187
1896	1.8855e+02	-4.5015	-53.570773	0.000456	4.560135	1.545015	0.000183
1897	1.8865e+02	-4.4678	-53.304322	0.000669	6.688197	2.266023	0.000268
1898	1.8875e+02	-4.4245	-53.122651	0.000456	4.560135	1.545015	0.000183
1899	1.8885e+02	-4.3892	-52.876385	0.000618	6.181516	2.094354	0.000248
1900	1.8895e+02	-4.3459	-52.654343	0.000557	5.573498	1.888352	0.000223
1901	1.8905e+02	-4.3026	-52.404040	0.000628	6.282852	2.128688	0.000252
1902	1.8915e+02	-4.2753	-52.222369	0.000456	4.560135	1.545015	0.000183
1903	1.8925e+02	-4.2272	-51.980141	0.000608	6.080179	2.060021	0.000243
1904	1.8935e+02	-4.1951	-51.778284	0.000507	5.066816	1.716684	0.000203
1905	1.8945e+02	-4.1485	-51.576428	0.000507	5.066816	1.716684	0.000203
1906	1.8955e+02	-4.1052	-51.322088	0.000638	6.384188	2.163022	0.000256
1907	1.8965e+02	-4.0603	-51.152528	0.000426	4.256126	1.442014	0.000170
1908	1.8975e+02	-4.0411	-50.906263	0.000618	6.181516	2.094354	0.000248
1909	1.8985e+02	-3.9961	-50.664035	0.000608	6.080179	2.060021	0.000243
1910	1.8995e+02	-3.9544	-50.462178	0.000507	5.066816	1.716684	0.000203
1911	1.9004e+02	-3.9047	-50.219950	0.000608	6.080179	2.060021	0.000243
1912	1.9014e+02	-3.8694	-50.066539	0.000385	3.850780	1.304680	0.000154
1913	1.9024e+02	-3.8293	-49.739531	0.000821	8.208242	2.781028	0.000329
1914	1.9034e+02	-3.7876	-49.569971	0.000426	4.256126	1.442014	0.000170
1915	1.9044e+02	-3.7459	-49.335817	0.000588	5.877507	1.991353	0.000235
1916	1.9054e+02	-3.7090	-49.101663	0.000588	5.877507	1.991353	0.000235
1917	1.9064e+02	-3.6673	-48.899807	0.000507	5.066816	1.716684	0.000203
1918	1.9074e+02	-3.6304	-48.645467	0.000638	6.384188	2.163022	0.000256
1919	1.9084e+02	-3.5919	-48.475907	0.000426	4.256126	1.442014	0.000170
1920	1.9094e+02	-3.5405	-48.241754	0.000588	5.877507	1.991353	0.000235
1921	1.9104e+02	-3.5085	-47.983377	0.000649	6.485525	2.197355	0.000260
1922	1.9114e+02	-3.4716	-47.785557	0.000497	4.965480	1.682350	0.000199
1923	1.9124e+02	-3.4282	-47.567552	0.000547	5.472161	1.854018	0.000219
1924	1.9134e+02	-3.3833	-47.341472	0.000567	5.674834	1.922686	0.000227
1925	1.9144e+02	-3.3480	-47.107318	0.000588	5.877507	1.991353	0.000235
1926	1.9154e+02	-3.3143	-46.929684	0.000446	4.458798	1.510682	0.000179
1927	1.9164e+02	-3.2678	-46.691493	0.000598	5.978843	2.025687	0.000239
1928	1.9174e+02	-3.2229	-46.425042	0.000669	6.688197	2.266023	0.000268
1929	1.9184e+02	-3.1908	-46.182814	0.000608	6.080179	2.060021	0.000243
1930	1.9194e+02	-3.1587	-45.976920	0.000517	5.168152	1.751017	0.000207
1931	1.9203e+02	-3.1138	-45.771026	0.000517	5.168152	1.751017	0.000207
1932	1.9213e+02	-3.0689	-45.553021	0.000547	5.472161	1.854018	0.000219
1933	1.9223e+02	-3.0304	-45.262347	0.000730	7.296215	2.472025	0.000292
1934	1.9233e+02	-2.9951	-45.052416	0.000527	5.269489	1.785351	0.000211
1935	1.9243e+02	-2.9534	-44.814225	0.000598	5.978843	2.025687	0.000239
1936	1.9253e+02	-2.9133	-44.628517	0.000466	4.661471	1.579349	0.000187
1937	1.9263e+02	-2.8796	-44.353992	0.000689	6.890870	2.334690	0.000276
1938	1.9273e+02	-2.8331	-44.156172	0.000497	4.965480	1.682350	0.000199
1939	1.9283e+02	-2.7962	-43.897795	0.000649	6.485525	2.197355	0.000260
1940	1.9293e+02	-2.7561	-43.663642	0.000588	5.877507	1.991353	0.000235
1941	1.9303e+02	-2.7160	-43.429488	0.000588	5.877507	1.991353	0.000235
1942	1.9313e+02	-2.6775	-43.199371	0.000578	5.776170	1.957020	0.000231
1943	1.9323e+02	-2.6245	-42.949069	0.000628	6.282852	2.128688	0.000252
1944	1.9333e+02	-2.5956	-42.767397	0.000456	4.560135	1.545015	0.000183
1945	1.9343e+02	-2.5604	-42.492872	0.000689	6.890870	2.334690	0.000276
1946	1.9353e+02	-2.5090	-42.246607	0.000618	6.181516	2.094354	0.000248
1947	1.9363e+02	-2.4737	-42.040713	0.000517	5.168152	1.751017	0.000207
1948	1.9373e+02	-2.4352	-41.806559	0.000588	5.877507	1.991353	0.000235
1949	1.9383e+02	-2.3999	-41.540108	0.000669	6.688197	2.266023	0.000268
1950	1.9393e+02	-2.3486	-41.354400	0.000466	4.661471	1.579349	0.000187
1951	1.9403e+02	-2.3101	-41.043540	0.000780	7.802897	2.643693	0.000312
1952	1.9412e+02	-2.2812	-40.849758	0.000486	4.864143	1.648016	0.000195
1953	1.9422e+02	-2.2331	-40.647901	0.000507	5.066816	1.716684	0.000203
1954	1.9432e+02	-2.1898	-40.377413	0.000679	6.789534	2.300356	0.000272
1955	1.9442e+02	-2.1481	-40.163445	0.000537	5.370825	1.819685	0.000215
1956	1.9452e+02	-2.1192	-39.917180	0.000618	6.181516	2.094354	0.000248
1957	1.9462e+02	-2.0823	-39.638617	0.000699	6.992206	2.369024	0.000280
1958	1.9472e+02	-2.0374	-39.400426	0.000598	5.978843	2.025687	0.000239
1959	1.9482e+02	-1.9941	-39.190495	0.000527	5.269489	1.785351	0.000211
1960	1.9492e+02	-1.9411	-38.928081	0.000659	6.586861	2.231689	0.000264
1961	1.9502e+02	-1.9251	-38.669705	0.000649	6.485525	2.197355	0.000260
1962	1.9512e+02	-1.8786	-38.471885	0.000497	4.965480	1.682350	0.000199
1963	1.9522e+02	-1.8385	-38.221583	0.000628	6.282852	2.128688	0.000252
1964	1.9532e+02	-1.7919	-37.938983	0.000709	7.093543	2.403357	0.000284
1965	1.9542e+02	-1.7566	-37.716941	0.000557	5.573498	1.888352	0.000223
1966	1.9552e+02	-1.7213	-37.470675	0.000618	6.181516	2.094354	0.000248
1967	1.9562e+02	-1.6812	-37.208262	0.000659	6.586861	2.231689	0.000264
1968	1.9572e+02	-1.6331	-36.957959	0.000628	6.282852	2.128688	0.000252
1969	1.9582e+02	-1.5946	-36.739954	0.000547	5.472161	1.854018	0.000219
1970	1.9592e+02	-1.5625	-36.485614	0.000638	6.384188	2.163022	0.000256
1971	1.9601e+02	-1.5144	-36.223200	0.000659	6.586861	2.231689	0.000264
1972	1.9611e+02	-1.4743	-35.968861	0.000638	6.384188	2.163022	0.000256
1973	1.9621e+02	-1.4390	-35.710484	0.000649	6.485525	2.197355	0.000260
1974	1.9631e+02	-1.3909	-35.460182	0.000628	6.282852	2.128688	0.000252
1975	1.9641e+02	-1.3540	-35.213916	0.000618	6.181516	2.094354	0.000248
1976	1.9651e+02	-1.3058	-34.927280	0.000719	7.194879	2.437691	0.000288
1977	1.9661e+02	-1.2786	-34.725423	0.000507	5.066816	1.716684	0.000203
1978	1.9671e+02	-1.2321	-34.458972	0.000669	6.688197	2.266023	0.000268
1979	1.9681e+02	-1.1984	-34.224818	0.000588	5.877507	1.991353	0.000235
1980	1.9691e+02	-1.1550	-33.954330	0.000679	6.789534	2.300356	0.000272
1981	1.9701e+02	-1.1182	-33.744399	0.000527	5.269489	1.785351	0.000211
1982	1.9711e+02	-1.0716	-33.477948	0.000669	6.688197	2.266023	0.000268
1983	1.9721e+02	-1.0428	-33.223609	0.000638	6.384188	2.163022	0.000256
1984	1.9731e+02	-0.9898	-32.989455	0.000588	5.877507	1.991353	0.000235
1985	1.9741e+02	-0.9609	-32.723004	0.000669	6.688197	2.266023	0.000268
1986	1.9751e+02	-0.9192	-32.496924	0.000567	5.674834	1.922686	0.000227
1987	1.9761e+02	-0.8807	-32.210287	0.000719	7.194879	2.437691	0.000288
1988	1.9771e+02	-0.8422	-31.964022	0.000618	6.181516	2.094354	0.000248
1989	1.9781e+02	-0.7925	-31.737943	0.000567	5.674834	1.922686	0.000227
1990	1.9791e+02	-0.7508	-31.447269	0.000730	7.296215	2.472025	0.000292
1991	1.9800e+02	-0.7171	-31.184855	0.000659	6.586861	2.231689	0.000264
1992	1.9810e+02	-0.6706	-30.970887	0.000537	5.370825	1.819685	0.000215
1993	1.9820e+02	-0.6385	-30.680213	0.000730	7.296215	2.472025	0.000292
1994	1.9830e+02	-0.5952	-30.498542	0.000456	4.560135	1.545015	0.000183
1995	1.9840e+02	-0.5631	-30.203831	0.000740	7.397552	2.506358	0.000296
1996	1.9850e+02	-0.5230	-29.921232	0.000709	7.093543	2.403357	0.000284
1997	1.9860e+02	-0.4813	-29.674966	0.000618	6.181516	2.094354	0.000248
1998	1.9870e+02	-0.4347	-29.469072	0.000517	5.168152	1.751017	0.000207
1999	1.9880e+02	-0.3995	-29.194547	0.000689	6.890870	2.334690	0.000276
2000	1.9890e+02	-0.3577	-28.915985	0.000699	6.992206	2.369024	0.000280
2001	1.9900e+02	-0.3160	-28.657608	0.000649	6.485525	2.197355	0.000260
2002	1.9910e+02	-0.2888	-28.403268	0.000638	6.384188	2.163022	0.000256
2003	1.9920e+02	-0.2342	-28.128743	0.000689	6.890870	2.334690	0.000276
2004	1.9930e+02	-0.2037	-27.894589	0.000588	5.877507	1.991353	0.000235
2005	1.9940e+02	-0.1572	-27.611990	0.000709	7.093543	2.403357	0.000284
2006	1.9950e+02	-0.1203	-27.337465	0.000689	6.890870	2.334690	0.000276
2007	1.9960e+02	-0.0802	-27.062939	0.000689	6.890870	2.334690	0.000276
2008	1.9970e+02	-0.0353	-26.816674	0.000618	6.181516	2.094354	0.000248
2009	1.9980e+02	-0.0016	-26.570409	0.000618	6.181516	2.094354	0.000248

Center data before PMax,+/-Pr and +/-Vc Calc.

PMax (uC/cm2):	1.02e+02
Pr (uC/cm2):	2.19e+01
-Pr (uC/cm2):	-2.66e+01
PLoss (uC/cm2):	-1.79e+01
Vc:	2.02e+00
-Vc:	-3.20e+00
C (Max-Eff) (nF):	5.12e-01
K (Eff):	1.73e+03
Vert. (+/-Pr) Shift (uC/cm2):	-2.36e+00
Horiz. Shift (+/-Vc):	-5.92e-01
Offset (uC/cm2):	8.64e+00

A (Loop Area - uC/cm2·Volts):	1.36e-01



Hysteresis Version: 5.48.1 - Radiant Technologies, Inc., 1999 - 9/12/24

