»»»»»»»»»»»»»»»»»»»»»»»»»»»»»»»»»»»» Hysteresis ««««««««««««««««««««««««««««««««««««
»»»  Executed Version:	5.48.1
»»»  Vision Version:	5.48.4 (R)
»»»  Vision Compiled:	9/18/24
»»»  Driver Version:	5.47.0
»»»  Windows Version:	Windows 8 or 8.1
»»»  Processor Information:	x86 (AMD or Intel) - 32 Processors
»»»  Tester Name:	PMF21124-494 (100V)
»»»  Tester S/N:	PMF21124-494
»»»  Internal Amp Type:	100V RevK 270k
»»»  Internal Amp S/N:	iAB2-596/K     
»»»  Execution Count:	1
»»»»»»»»»»»»»»»»»»»»»»»»»»»»»»»»»»»»»»»»»»««««««««««««««««««««««««««««««««««««««««««

Stored:	6/4/2025 - 15:43:44
Configured:	06/04/25 01:46:06 PM
Executed:	06/04/25 03:42:00 PM

»»»»»»»»»»»»»»»»»»»»»»»»»»»»»»»»»»» Sample Info ««««««««««««««««««««««««««««««««««««
Sample Name:	
Lot Name:	
Wafer Name:	
Die Row/Column:	0/0
Capacitor Number:	0
Sample Area (cm2):	1.00e-04
Sample Thickness (microns):	3.00e-01

Amplifier:	Internal

»»»»»»»»»»»»»»»»»»»»»»»»»»»»»»»»»»» Tester Info «««««««««««««««««««««««««««««««««««
Tester Name:	PMF21124-494 (100V)
Tester Serial Number:	PMF21124-494
Return Signal Amp. Level:	0.19 [Index: 3]

»»»»»»»»»»»»»»»»»»»»»»»»»»»»»»»» Hysteresis Info ««««««««««««««««««««««««««««««««««
Task Name:	Hyst-37
Volts:	20.00
Field:	666.67 (kV/cm)
DCBias:	0.00
DCField:	0.00 (kV/cm)
Hysteresis Period (ms):	2.00e+02
Preset:	Enabled
Preset Delay (ms):	1.00e+03
Profile:	Standard Bipolar

»»»»»»»»»»»»»»»»»»»»»»»»»»»»»»»»»»»»»» Data «««««««««««««««««««««««««««««««««««««««
Points:	2009

Valid Data

Point	Time (ms)	Drive Voltage	Measured Polarization (uC/cm2)	Capacitance (uF)	Normalized Capacitance (uF/cm2)	Dielectric Constant	Instantaneous Current (mA)
   1	0.0000e+00	0.0048	-1.188936	0.000355	3.546629	1.201630	0.000142
   2	9.9500e-02	0.0273	-1.047637	0.000355	3.546629	1.201630	0.000142
   3	1.9900e-01	0.0626	-0.785223	0.000659	6.586597	2.231599	0.000264
   4	2.9850e-01	0.1123	-0.583366	0.000507	5.066613	1.716615	0.000203
   5	3.9800e-01	0.1428	-0.377472	0.000517	5.167945	1.750947	0.000207
   6	4.9750e-01	0.1861	-0.159467	0.000547	5.471942	1.853944	0.000219
   7	5.9700e-01	0.2310	0.014130	0.000436	4.357287	1.476289	0.000174
   8	6.9650e-01	0.2759	0.304804	0.000730	7.295923	2.471925	0.000292
   9	7.9600e-01	0.3112	0.494549	0.000476	4.762616	1.613618	0.000191
  10	8.9550e-01	0.3433	0.748889	0.000638	6.383932	2.162935	0.000256
  11	9.9500e-01	0.3930	0.938634	0.000476	4.762616	1.613618	0.000191
  12	1.0945e+00	0.4219	1.160677	0.000557	5.573274	1.888276	0.000223
  13	1.1940e+00	0.4716	1.362533	0.000507	5.066613	1.716615	0.000203
  14	1.2935e+00	0.5085	1.568427	0.000517	5.167945	1.750947	0.000207
  15	1.3930e+00	0.5535	1.790470	0.000557	5.573274	1.888276	0.000223
  16	1.4925e+00	0.5888	2.048846	0.000649	6.485265	2.197267	0.000260
  17	1.5920e+00	0.6240	2.287037	0.000598	5.978603	2.025606	0.000239
  18	1.6915e+00	0.6658	2.480820	0.000486	4.863948	1.647950	0.000195
  19	1.7910e+00	0.7187	2.719011	0.000598	5.978603	2.025606	0.000239
  20	1.8905e+00	0.7540	2.949128	0.000578	5.775939	1.956941	0.000231
  21	1.9900e+00	0.7877	3.211541	0.000659	6.586597	2.231599	0.000264
  22	2.0895e+00	0.8198	3.441658	0.000578	5.775939	1.956941	0.000231
  23	2.1890e+00	0.8711	3.619292	0.000446	4.458619	1.510621	0.000179
  24	2.2885e+00	0.9064	3.841335	0.000557	5.573274	1.888276	0.000223
  25	2.3880e+00	0.9481	4.095674	0.000638	6.383932	2.162935	0.000256
  26	2.4875e+00	0.9850	4.354051	0.000649	6.485265	2.197267	0.000260
  27	2.5870e+00	1.0251	4.539759	0.000466	4.661284	1.579286	0.000187
  28	2.6865e+00	1.0700	4.777950	0.000598	5.978603	2.025606	0.000239
  29	2.7860e+00	1.1053	5.040364	0.000659	6.586597	2.231599	0.000264
  30	2.8855e+00	1.1470	5.262406	0.000557	5.573274	1.888276	0.000223
  31	2.9850e+00	1.1823	5.448115	0.000466	4.661284	1.579286	0.000187
  32	3.0845e+00	1.2256	5.690343	0.000608	6.079935	2.059938	0.000243
  33	3.1840e+00	1.2689	5.948720	0.000649	6.485265	2.197267	0.000260
  34	3.2835e+00	1.3074	6.166725	0.000547	5.471942	1.853944	0.000219
  35	3.3830e+00	1.3427	6.412990	0.000618	6.181268	2.094270	0.000248
  36	3.4825e+00	1.3941	6.610810	0.000497	4.965281	1.682283	0.000199
  37	3.5820e+00	1.4230	6.844964	0.000588	5.877271	1.991273	0.000235
  38	3.6815e+00	1.4615	7.050858	0.000517	5.167945	1.750947	0.000207
  39	3.7810e+00	1.4984	7.272900	0.000557	5.573274	1.888276	0.000223
  40	3.8805e+00	1.5561	7.559537	0.000719	7.194590	2.437593	0.000288
  41	3.9800e+00	1.5802	7.773505	0.000537	5.370610	1.819612	0.000215
  42	4.0795e+00	1.6155	7.995547	0.000557	5.573274	1.888276	0.000223
  43	4.1790e+00	1.6700	8.233738	0.000598	5.978603	2.025606	0.000239
  44	4.2785e+00	1.7069	8.480004	0.000618	6.181268	2.094270	0.000248
  45	4.3780e+00	1.7502	8.681860	0.000507	5.066613	1.716615	0.000203
  46	4.4775e+00	1.7871	8.911977	0.000578	5.775939	1.956941	0.000231
  47	4.5770e+00	1.8336	9.146131	0.000588	5.877271	1.991273	0.000235
  48	4.6765e+00	1.8737	9.384322	0.000598	5.978603	2.025606	0.000239
  49	4.7760e+00	1.9090	9.634624	0.000628	6.282600	2.128603	0.000252
  50	4.8755e+00	1.9379	9.860704	0.000567	5.674606	1.922609	0.000227
  51	4.9750e+00	1.9860	10.074672	0.000537	5.370610	1.819612	0.000215
  52	5.0745e+00	2.0181	10.353235	0.000699	6.991926	2.368929	0.000280
  53	5.1740e+00	2.0598	10.551054	0.000497	4.965281	1.682283	0.000199
  54	5.2735e+00	2.1064	10.756948	0.000517	5.167945	1.750947	0.000207
  55	5.3730e+00	2.1449	11.027436	0.000679	6.789261	2.300264	0.000272
  56	5.4725e+00	2.1737	11.261590	0.000588	5.877271	1.991273	0.000235
  57	5.5720e+00	2.2122	11.503818	0.000608	6.079935	2.059938	0.000243
  58	5.6715e+00	2.2620	11.733935	0.000578	5.775939	1.956941	0.000231
  59	5.7710e+00	2.3037	11.960015	0.000567	5.674606	1.922609	0.000227
  60	5.8705e+00	2.3358	12.242614	0.000709	7.093258	2.403261	0.000284
  61	5.9700e+00	2.3775	12.452545	0.000527	5.269277	1.785280	0.000211
  62	6.0695e+00	2.4304	12.702848	0.000628	6.282600	2.128603	0.000252
  63	6.1690e+00	2.4593	12.900667	0.000497	4.965281	1.682283	0.000199
  64	6.2685e+00	2.5058	13.146933	0.000618	6.181268	2.094270	0.000248
  65	6.3680e+00	2.5363	13.421458	0.000689	6.890594	2.334596	0.000276
  66	6.4675e+00	2.5764	13.639463	0.000547	5.471942	1.853944	0.000219
  67	6.5670e+00	2.6245	13.837283	0.000497	4.965281	1.682283	0.000199
  68	6.6665e+00	2.6646	14.071437	0.000588	5.877271	1.991273	0.000235
  69	6.7660e+00	2.6983	14.354036	0.000709	7.093258	2.403261	0.000284
  70	6.8655e+00	2.7432	14.608376	0.000638	6.383932	2.162935	0.000256
  71	6.9650e+00	2.7737	14.814270	0.000517	5.167945	1.750947	0.000207
  72	7.0645e+00	2.8331	15.060535	0.000618	6.181268	2.094270	0.000248
  73	7.1640e+00	2.8571	15.310837	0.000628	6.282600	2.128603	0.000252
  74	7.2635e+00	2.8988	15.532880	0.000557	5.573274	1.888276	0.000223
  75	7.3630e+00	2.9422	15.738774	0.000517	5.167945	1.750947	0.000207
  76	7.4625e+00	2.9742	15.997150	0.000649	6.485265	2.197267	0.000260
  77	7.5620e+00	3.0192	16.207081	0.000527	5.269277	1.785280	0.000211
  78	7.6615e+00	3.0689	16.477570	0.000679	6.789261	2.300264	0.000272
  79	7.7610e+00	3.0994	16.699612	0.000557	5.573274	1.888276	0.000223
  80	7.8605e+00	3.1363	16.933766	0.000588	5.877271	1.991273	0.000235
  81	7.9600e+00	3.1764	17.208291	0.000689	6.890594	2.334596	0.000276
  82	8.0595e+00	3.2197	17.430334	0.000557	5.573274	1.888276	0.000223
  83	8.1590e+00	3.2566	17.652376	0.000557	5.573274	1.888276	0.000223
  84	8.2585e+00	3.2999	17.902678	0.000628	6.282600	2.128603	0.000252
  85	8.3580e+00	3.3400	18.148944	0.000618	6.181268	2.094270	0.000248
  86	8.4575e+00	3.3833	18.379060	0.000578	5.775939	1.956941	0.000231
  87	8.5570e+00	3.4266	18.613214	0.000588	5.877271	1.991273	0.000235
  88	8.6565e+00	3.4603	18.847368	0.000588	5.877271	1.991273	0.000235
  89	8.7560e+00	3.5052	19.117856	0.000679	6.789261	2.300264	0.000272
  90	8.8555e+00	3.5454	19.319713	0.000507	5.066613	1.716615	0.000203
  91	8.9550e+00	3.5678	19.565978	0.000618	6.181268	2.094270	0.000248
  92	9.0545e+00	3.6159	19.783984	0.000547	5.471942	1.853944	0.000219
  93	9.1540e+00	3.6577	20.074657	0.000730	7.295923	2.471925	0.000292
  94	9.2535e+00	3.6994	20.288626	0.000537	5.370610	1.819612	0.000215
  95	9.3530e+00	3.7347	20.559114	0.000679	6.789261	2.300264	0.000272
  96	9.4525e+00	3.7812	20.740785	0.000456	4.559952	1.544953	0.000183
  97	9.5520e+00	3.8165	21.023384	0.000709	7.093258	2.403261	0.000284
  98	9.6515e+00	3.8502	21.225241	0.000507	5.066613	1.716615	0.000203
  99	9.7510e+00	3.8951	21.499766	0.000689	6.890594	2.334596	0.000276
 100	9.8505e+00	3.9336	21.717772	0.000547	5.471942	1.853944	0.000219
 101	9.9500e+00	3.9705	22.016520	0.000750	7.498587	2.540590	0.000300
 102	1.0050e+01	4.0138	22.202228	0.000466	4.661284	1.579286	0.000187
 103	1.0149e+01	4.0603	22.448493	0.000618	6.181268	2.094270	0.000248
 104	1.0248e+01	4.0924	22.646313	0.000497	4.965281	1.682283	0.000199
 105	1.0348e+01	4.1453	22.896615	0.000628	6.282600	2.128603	0.000252
 106	1.0447e+01	4.1726	23.134806	0.000598	5.978603	2.025606	0.000239
 107	1.0547e+01	4.2127	23.372997	0.000598	5.978603	2.025606	0.000239
 108	1.0646e+01	4.2624	23.631374	0.000649	6.485265	2.197267	0.000260
 109	1.0746e+01	4.2961	23.853417	0.000557	5.573274	1.888276	0.000223
 110	1.0845e+01	4.3378	24.123905	0.000679	6.789261	2.300264	0.000272
 111	1.0945e+01	4.3715	24.349984	0.000567	5.674606	1.922609	0.000227
 112	1.1044e+01	4.4165	24.588175	0.000598	5.978603	2.025606	0.000239
 113	1.1144e+01	4.4598	24.850589	0.000659	6.586597	2.231599	0.000264
 114	1.1243e+01	4.5031	25.084743	0.000588	5.877271	1.991273	0.000235
 115	1.1343e+01	4.5336	25.310823	0.000567	5.674606	1.922609	0.000227
 116	1.1443e+01	4.5721	25.573236	0.000659	6.586597	2.231599	0.000264
 117	1.1542e+01	4.6186	25.742796	0.000426	4.255955	1.441957	0.000170
 118	1.1642e+01	4.6619	26.037507	0.000740	7.397255	2.506258	0.000296
 119	1.1741e+01	4.6908	26.251475	0.000537	5.370610	1.819612	0.000215
 120	1.1841e+01	4.7309	26.493703	0.000608	6.079935	2.059938	0.000243
 121	1.1940e+01	4.7806	26.768229	0.000689	6.890594	2.334596	0.000276
 122	1.2040e+01	4.8143	26.970085	0.000507	5.066613	1.716615	0.000203
 123	1.2139e+01	4.8496	27.216351	0.000618	6.181268	2.094270	0.000248
 124	1.2239e+01	4.8913	27.478764	0.000659	6.586597	2.231599	0.000264
 125	1.2338e+01	4.9314	27.700807	0.000557	5.573274	1.888276	0.000223
 126	1.2438e+01	4.9763	27.995518	0.000740	7.397255	2.506258	0.000296
 127	1.2537e+01	5.0164	28.205449	0.000527	5.269277	1.785280	0.000211
 128	1.2636e+01	5.0485	28.463826	0.000649	6.485265	2.197267	0.000260
 129	1.2736e+01	5.1047	28.681831	0.000547	5.471942	1.853944	0.000219
 130	1.2835e+01	5.1287	28.903873	0.000557	5.573274	1.888276	0.000223
 131	1.2935e+01	5.1753	29.150139	0.000618	6.181268	2.094270	0.000248
 132	1.3034e+01	5.2122	29.396404	0.000618	6.181268	2.094270	0.000248
 133	1.3134e+01	5.2571	29.626521	0.000578	5.775939	1.956941	0.000231
 134	1.3233e+01	5.2876	29.897009	0.000679	6.789261	2.300264	0.000272
 135	1.3333e+01	5.3228	30.143274	0.000618	6.181268	2.094270	0.000248
 136	1.3432e+01	5.3597	30.328982	0.000466	4.661284	1.579286	0.000187
 137	1.3532e+01	5.4207	30.615619	0.000719	7.194590	2.437593	0.000288
 138	1.3632e+01	5.4464	30.833624	0.000547	5.471942	1.853944	0.000219
 139	1.3731e+01	5.5025	31.096038	0.000659	6.586597	2.231599	0.000264
 140	1.3831e+01	5.5298	31.305969	0.000527	5.269277	1.785280	0.000211
 141	1.3930e+01	5.5747	31.560309	0.000638	6.383932	2.162935	0.000256
 142	1.4030e+01	5.6116	31.798500	0.000598	5.978603	2.025606	0.000239
 143	1.4129e+01	5.6517	32.024579	0.000567	5.674606	1.922609	0.000227
 144	1.4229e+01	5.6934	32.238547	0.000537	5.370610	1.819612	0.000215
 145	1.4328e+01	5.7319	32.476738	0.000598	5.978603	2.025606	0.000239
 146	1.4428e+01	5.7624	32.739152	0.000659	6.586597	2.231599	0.000264
 147	1.4527e+01	5.8186	33.017715	0.000699	6.991926	2.368929	0.000280
 148	1.4627e+01	5.8506	33.219571	0.000507	5.066613	1.716615	0.000203
 149	1.4726e+01	5.8907	33.457762	0.000598	5.978603	2.025606	0.000239
 150	1.4825e+01	5.9357	33.683842	0.000567	5.674606	1.922609	0.000227
 151	1.4925e+01	5.9613	33.930107	0.000618	6.181268	2.094270	0.000248
 152	1.5024e+01	6.0062	34.164261	0.000588	5.877271	1.991273	0.000235
 153	1.5124e+01	6.0447	34.406489	0.000608	6.079935	2.059938	0.000243
 154	1.5223e+01	6.0945	34.652755	0.000618	6.181268	2.094270	0.000248
 155	1.5323e+01	6.1298	34.890946	0.000598	5.978603	2.025606	0.000239
 156	1.5422e+01	6.1683	35.117025	0.000567	5.674606	1.922609	0.000227
 157	1.5522e+01	6.2068	35.391550	0.000689	6.890594	2.334596	0.000276
 158	1.5621e+01	6.2324	35.621667	0.000578	5.775939	1.956941	0.000231
 159	1.5721e+01	6.2918	35.867932	0.000618	6.181268	2.094270	0.000248
 160	1.5820e+01	6.3367	36.094012	0.000567	5.674606	1.922609	0.000227
 161	1.5920e+01	6.3656	36.283757	0.000476	4.762616	1.613618	0.000191
 162	1.6020e+01	6.4105	36.550208	0.000669	6.687929	2.265932	0.000268
 163	1.6119e+01	6.4426	36.776288	0.000567	5.674606	1.922609	0.000227
 164	1.6218e+01	6.4875	37.010442	0.000588	5.877271	1.991273	0.000235
 165	1.6318e+01	6.5292	37.248633	0.000598	5.978603	2.025606	0.000239
 166	1.6418e+01	6.5758	37.474712	0.000567	5.674606	1.922609	0.000227
 167	1.6517e+01	6.6046	37.716941	0.000608	6.079935	2.059938	0.000243
 168	1.6616e+01	6.6431	37.999540	0.000709	7.093258	2.403261	0.000284
 169	1.6716e+01	6.6864	38.197360	0.000497	4.965281	1.682283	0.000199
 170	1.6816e+01	6.7282	38.431514	0.000588	5.877271	1.991273	0.000235
 171	1.6915e+01	6.7699	38.629333	0.000497	4.965281	1.682283	0.000199
 172	1.7015e+01	6.8019	38.903859	0.000689	6.890594	2.334596	0.000276
 173	1.7114e+01	6.8372	39.113790	0.000527	5.269277	1.785280	0.000211
 174	1.7213e+01	6.8838	39.364092	0.000628	6.282600	2.128603	0.000252
 175	1.7313e+01	6.9319	39.626506	0.000659	6.586597	2.231599	0.000264
 176	1.7413e+01	6.9704	39.856623	0.000578	5.775939	1.956941	0.000231
 177	1.7512e+01	6.9961	40.058479	0.000507	5.066613	1.716615	0.000203
 178	1.7611e+01	7.0458	40.292633	0.000588	5.877271	1.991273	0.000235
 179	1.7711e+01	7.0859	40.530824	0.000598	5.978603	2.025606	0.000239
 180	1.7811e+01	7.1180	40.805349	0.000689	6.890594	2.334596	0.000276
 181	1.7910e+01	7.1629	41.047578	0.000608	6.079935	2.059938	0.000243
 182	1.8009e+01	7.2014	41.229249	0.000456	4.559952	1.544953	0.000183
 183	1.8109e+01	7.2367	41.499737	0.000679	6.789261	2.300264	0.000272
 184	1.8209e+01	7.2800	41.713705	0.000537	5.370610	1.819612	0.000215
 185	1.8308e+01	7.3265	41.955933	0.000608	6.079935	2.059938	0.000243
 186	1.8407e+01	7.3602	42.206236	0.000628	6.282600	2.128603	0.000252
 187	1.8507e+01	7.3971	42.420204	0.000537	5.370610	1.819612	0.000215
 188	1.8607e+01	7.4372	42.654358	0.000588	5.877271	1.991273	0.000235
 189	1.8706e+01	7.4805	42.924846	0.000679	6.789261	2.300264	0.000272
 190	1.8805e+01	7.5190	43.179185	0.000638	6.383932	2.162935	0.000256
 191	1.8905e+01	7.5543	43.344708	0.000415	4.154623	1.407624	0.000166
 192	1.9005e+01	7.6025	43.611159	0.000669	6.687929	2.265932	0.000268
 193	1.9104e+01	7.6378	43.857424	0.000618	6.181268	2.094270	0.000248
 194	1.9203e+01	7.6827	44.075429	0.000547	5.471942	1.853944	0.000219
 195	1.9303e+01	7.7244	44.301509	0.000567	5.674606	1.922609	0.000227
 196	1.9402e+01	7.7629	44.503366	0.000507	5.066613	1.716615	0.000203
 197	1.9502e+01	7.8030	44.781928	0.000699	6.991926	2.368929	0.000280
 198	1.9602e+01	7.8399	44.995896	0.000537	5.370610	1.819612	0.000215
 199	1.9701e+01	7.8816	45.238125	0.000608	6.079935	2.059938	0.000243
 200	1.9800e+01	7.9265	45.496501	0.000649	6.485265	2.197267	0.000260
 201	1.9900e+01	7.9634	45.686247	0.000476	4.762616	1.613618	0.000191
 202	2.0000e+01	7.9971	45.912326	0.000567	5.674606	1.922609	0.000227
 203	2.0099e+01	8.0436	46.170703	0.000649	6.485265	2.197267	0.000260
 204	2.0198e+01	8.0757	46.425042	0.000638	6.383932	2.162935	0.000256
 205	2.0298e+01	8.1190	46.651122	0.000567	5.674606	1.922609	0.000227
 206	2.0398e+01	8.1591	46.844905	0.000486	4.863948	1.647950	0.000195
 207	2.0497e+01	8.1992	47.066947	0.000557	5.573274	1.888276	0.000223
 208	2.0596e+01	8.2425	47.333398	0.000669	6.687929	2.265932	0.000268
 209	2.0696e+01	8.2907	47.559478	0.000567	5.674606	1.922609	0.000227
 210	2.0796e+01	8.3163	47.793631	0.000588	5.877271	1.991273	0.000235
 211	2.0895e+01	8.3661	47.983377	0.000476	4.762616	1.613618	0.000191
 212	2.0994e+01	8.4014	48.233679	0.000628	6.282600	2.128603	0.000252
 213	2.1094e+01	8.4351	48.463796	0.000578	5.775939	1.956941	0.000231
 214	2.1194e+01	8.4736	48.722173	0.000649	6.485265	2.197267	0.000260
 215	2.1293e+01	8.5169	48.932104	0.000527	5.269277	1.785280	0.000211
 216	2.1392e+01	8.5698	49.150109	0.000547	5.471942	1.853944	0.000219
 217	2.1492e+01	8.6019	49.388300	0.000598	5.978603	2.025606	0.000239
 218	2.1591e+01	8.6356	49.622454	0.000588	5.877271	1.991273	0.000235
 219	2.1691e+01	8.6805	49.848534	0.000567	5.674606	1.922609	0.000227
 220	2.1791e+01	8.7270	50.062502	0.000537	5.370610	1.819612	0.000215
 221	2.1890e+01	8.7575	50.300693	0.000598	5.978603	2.025606	0.000239
 222	2.1989e+01	8.7960	50.546958	0.000618	6.181268	2.094270	0.000248
 223	2.2089e+01	8.8249	50.760926	0.000537	5.370610	1.819612	0.000215
 224	2.2189e+01	8.8794	50.942597	0.000456	4.559952	1.544953	0.000183
 225	2.2288e+01	8.9260	51.200974	0.000649	6.485265	2.197267	0.000260
 226	2.2387e+01	8.9580	51.447239	0.000618	6.181268	2.094270	0.000248
 227	2.2487e+01	8.9997	51.661207	0.000537	5.370610	1.819612	0.000215
 228	2.2587e+01	9.0382	51.895361	0.000588	5.877271	1.991273	0.000235
 229	2.2686e+01	9.0767	52.117404	0.000557	5.573274	1.888276	0.000223
 230	2.2785e+01	9.1153	52.359632	0.000608	6.079935	2.059938	0.000243
 231	2.2885e+01	9.1618	52.609934	0.000628	6.282600	2.128603	0.000252
 232	2.2985e+01	9.2019	52.783531	0.000436	4.357287	1.476289	0.000174
 233	2.3084e+01	9.2404	53.070168	0.000719	7.194590	2.437593	0.000288
 234	2.3183e+01	9.2757	53.259913	0.000476	4.762616	1.613618	0.000191
 235	2.3283e+01	9.3238	53.494067	0.000588	5.877271	1.991273	0.000235
 236	2.3383e+01	9.3559	53.732258	0.000598	5.978603	2.025606	0.000239
 237	2.3482e+01	9.3944	54.006783	0.000689	6.890594	2.334596	0.000276
 238	2.3581e+01	9.4441	54.180380	0.000436	4.357287	1.476289	0.000174
 239	2.3681e+01	9.4730	54.426645	0.000618	6.181268	2.094270	0.000248
 240	2.3780e+01	9.5211	54.660799	0.000588	5.877271	1.991273	0.000235
 241	2.3880e+01	9.5644	54.886879	0.000567	5.674606	1.922609	0.000227
 242	2.3980e+01	9.6029	55.108921	0.000557	5.573274	1.888276	0.000223
 243	2.4079e+01	9.6318	55.298667	0.000476	4.762616	1.613618	0.000191
 244	2.4178e+01	9.6735	55.528784	0.000578	5.775939	1.956941	0.000231
 245	2.4278e+01	9.7104	55.754863	0.000567	5.674606	1.922609	0.000227
 246	2.4378e+01	9.7521	55.997091	0.000608	6.079935	2.059938	0.000243
 247	2.4477e+01	9.7906	56.215097	0.000547	5.471942	1.853944	0.000219
 248	2.4576e+01	9.8307	56.416953	0.000507	5.066613	1.716615	0.000203
 249	2.4676e+01	9.8741	56.719739	0.000760	7.599919	2.574922	0.000304
 250	2.4776e+01	9.9142	56.905447	0.000466	4.661284	1.579286	0.000187
 251	2.4875e+01	9.9575	57.151712	0.000618	6.181268	2.094270	0.000248
 252	2.4974e+01	9.9976	57.341457	0.000476	4.762616	1.613618	0.000191
 253	2.5074e+01	10.0345	57.620020	0.000699	6.991926	2.368929	0.000280
 254	2.5174e+01	10.0746	57.769394	0.000375	3.749294	1.270295	0.000150
 255	2.5273e+01	10.1195	58.031808	0.000659	6.586597	2.231599	0.000264
 256	2.5372e+01	10.1516	58.225590	0.000486	4.863948	1.647950	0.000195
 257	2.5472e+01	10.1853	58.467818	0.000608	6.079935	2.059938	0.000243
 258	2.5572e+01	10.2238	58.710046	0.000608	6.079935	2.059938	0.000243
 259	2.5671e+01	10.2767	58.911903	0.000507	5.066613	1.716615	0.000203
 260	2.5770e+01	10.3152	59.142020	0.000578	5.775939	1.956941	0.000231
 261	2.5870e+01	10.3489	59.360025	0.000547	5.471942	1.853944	0.000219
 262	2.5970e+01	10.3970	59.586105	0.000567	5.674606	1.922609	0.000227
 263	2.6069e+01	10.4307	59.840444	0.000638	6.383932	2.162935	0.000256
 264	2.6169e+01	10.4740	60.058450	0.000547	5.471942	1.853944	0.000219
 265	2.6268e+01	10.5190	60.276455	0.000547	5.471942	1.853944	0.000219
 266	2.6367e+01	10.5494	60.478312	0.000507	5.066613	1.716615	0.000203
 267	2.6467e+01	10.5960	60.716503	0.000598	5.978603	2.025606	0.000239
 268	2.6567e+01	10.6329	60.938545	0.000557	5.573274	1.888276	0.000223
 269	2.6666e+01	10.6649	61.128291	0.000476	4.762616	1.613618	0.000191
 270	2.6765e+01	10.7083	61.386667	0.000649	6.485265	2.197267	0.000260
 271	2.6865e+01	10.7612	61.592561	0.000517	5.167945	1.750947	0.000207
 272	2.6965e+01	10.7933	61.798455	0.000517	5.167945	1.750947	0.000207
 273	2.7064e+01	10.8334	62.040683	0.000608	6.079935	2.059938	0.000243
 274	2.7163e+01	10.8735	62.286949	0.000618	6.181268	2.094270	0.000248
 275	2.7263e+01	10.9168	62.456508	0.000426	4.255955	1.441957	0.000170
 276	2.7363e+01	10.9553	62.690662	0.000588	5.877271	1.991273	0.000235
 277	2.7462e+01	10.9906	62.920779	0.000578	5.775939	1.956941	0.000231
 278	2.7561e+01	11.0371	63.134747	0.000537	5.370610	1.819612	0.000215
 279	2.7661e+01	11.0628	63.368901	0.000588	5.877271	1.991273	0.000235
 280	2.7761e+01	11.1093	63.590944	0.000557	5.573274	1.888276	0.000223
 281	2.7860e+01	11.1478	63.804912	0.000537	5.370610	1.819612	0.000215
 282	2.7959e+01	11.1959	64.022917	0.000547	5.471942	1.853944	0.000219
 283	2.8059e+01	11.2280	64.236885	0.000537	5.370610	1.819612	0.000215
 284	2.8159e+01	11.2713	64.458928	0.000557	5.573274	1.888276	0.000223
 285	2.8258e+01	11.3050	64.685007	0.000567	5.674606	1.922609	0.000227
 286	2.8358e+01	11.3532	64.935310	0.000628	6.282600	2.128603	0.000252
 287	2.8457e+01	11.3852	65.173501	0.000598	5.978603	2.025606	0.000239
 288	2.8556e+01	11.4253	65.355172	0.000456	4.559952	1.544953	0.000183
 289	2.8656e+01	11.4655	65.589326	0.000588	5.877271	1.991273	0.000235
 290	2.8756e+01	11.4975	65.819443	0.000578	5.775939	1.956941	0.000231
 291	2.8855e+01	11.5489	66.033411	0.000537	5.370610	1.819612	0.000215
 292	2.8954e+01	11.5890	66.235267	0.000507	5.066613	1.716615	0.000203
 293	2.9054e+01	11.6291	66.437124	0.000507	5.066613	1.716615	0.000203
 294	2.9154e+01	11.6660	66.687427	0.000628	6.282600	2.128603	0.000252
 295	2.9253e+01	11.7141	66.901395	0.000537	5.370610	1.819612	0.000215
 296	2.9352e+01	11.7366	67.163809	0.000659	6.586597	2.231599	0.000264
 297	2.9452e+01	11.7895	67.365665	0.000507	5.066613	1.716615	0.000203
 298	2.9552e+01	11.8296	67.555411	0.000476	4.762616	1.613618	0.000191
 299	2.9651e+01	11.8633	67.785528	0.000578	5.775939	1.956941	0.000231
 300	2.9750e+01	11.9130	67.991422	0.000517	5.167945	1.750947	0.000207
 301	2.9850e+01	11.9499	68.229613	0.000598	5.978603	2.025606	0.000239
 302	2.9950e+01	11.9852	68.431469	0.000507	5.066613	1.716615	0.000203
 303	3.0049e+01	12.0237	68.661586	0.000578	5.775939	1.956941	0.000231
 304	3.0148e+01	12.0606	68.863443	0.000507	5.066613	1.716615	0.000203
 305	3.0248e+01	12.1216	69.113745	0.000628	6.282600	2.128603	0.000252
 306	3.0348e+01	12.1505	69.319639	0.000517	5.167945	1.750947	0.000207
 307	3.0447e+01	12.1793	69.545719	0.000567	5.674606	1.922609	0.000227
 308	3.0547e+01	12.2307	69.771798	0.000567	5.674606	1.922609	0.000227
 309	3.0646e+01	12.2644	69.949432	0.000446	4.458619	1.510621	0.000179
 310	3.0745e+01	12.3077	70.179549	0.000578	5.775939	1.956941	0.000231
 311	3.0845e+01	12.3414	70.409666	0.000578	5.775939	1.956941	0.000231
 312	3.0945e+01	12.3959	70.623634	0.000537	5.370610	1.819612	0.000215
 313	3.1044e+01	12.4264	70.869899	0.000618	6.181268	2.094270	0.000248
 314	3.1143e+01	12.4569	71.047533	0.000446	4.458619	1.510621	0.000179
 315	3.1243e+01	12.5034	71.261501	0.000537	5.370610	1.819612	0.000215
 316	3.1343e+01	12.5419	71.495655	0.000588	5.877271	1.991273	0.000235
 317	3.1442e+01	12.5868	71.733846	0.000598	5.978603	2.025606	0.000239
 318	3.1541e+01	12.6301	71.935703	0.000507	5.066613	1.716615	0.000203
 319	3.1641e+01	12.6702	72.133523	0.000497	4.965281	1.682283	0.000199
 320	3.1741e+01	12.7039	72.339417	0.000517	5.167945	1.750947	0.000207
 321	3.1840e+01	12.7376	72.553385	0.000537	5.370610	1.819612	0.000215
 322	3.1939e+01	12.7809	72.803687	0.000628	6.282600	2.128603	0.000252
 323	3.2039e+01	12.8162	72.985358	0.000456	4.559952	1.544953	0.000183
 324	3.2139e+01	12.8692	73.199327	0.000537	5.370610	1.819612	0.000215
 325	3.2238e+01	12.9028	73.421369	0.000557	5.573274	1.888276	0.000223
 326	3.2337e+01	12.9397	73.639374	0.000547	5.471942	1.853944	0.000219
 327	3.2437e+01	12.9750	73.821046	0.000456	4.559952	1.544953	0.000183
 328	3.2536e+01	13.0183	74.071348	0.000628	6.282600	2.128603	0.000252
 329	3.2636e+01	13.0552	74.285316	0.000537	5.370610	1.819612	0.000215
 330	3.2736e+01	13.0970	74.479099	0.000486	4.863948	1.647950	0.000195
 331	3.2835e+01	13.1467	74.697104	0.000547	5.471942	1.853944	0.000219
 332	3.2934e+01	13.1756	74.907035	0.000527	5.269277	1.785280	0.000211
 333	3.3034e+01	13.2221	75.100818	0.000486	4.863948	1.647950	0.000195
 334	3.3133e+01	13.2638	75.359194	0.000649	6.485265	2.197267	0.000260
 335	3.3233e+01	13.3039	75.532791	0.000436	4.357287	1.476289	0.000174
 336	3.3333e+01	13.3344	75.779056	0.000618	6.181268	2.094270	0.000248
 337	3.3432e+01	13.3777	75.972839	0.000486	4.863948	1.647950	0.000195
 338	3.3532e+01	13.4194	76.190844	0.000547	5.471942	1.853944	0.000219
 339	3.3631e+01	13.4627	76.408850	0.000547	5.471942	1.853944	0.000219
 340	3.3730e+01	13.5076	76.614743	0.000517	5.167945	1.750947	0.000207
 341	3.3830e+01	13.5381	76.840823	0.000567	5.674606	1.922609	0.000227
 342	3.3929e+01	13.5814	77.062866	0.000557	5.573274	1.888276	0.000223
 343	3.4029e+01	13.6151	77.268759	0.000517	5.167945	1.750947	0.000207
 344	3.4129e+01	13.6584	77.474653	0.000517	5.167945	1.750947	0.000207
 345	3.4228e+01	13.6969	77.648250	0.000436	4.357287	1.476289	0.000174
 346	3.4328e+01	13.7386	77.898553	0.000628	6.282600	2.128603	0.000252
 347	3.4427e+01	13.7804	78.112521	0.000537	5.370610	1.819612	0.000215
 348	3.4526e+01	13.8189	78.294192	0.000456	4.559952	1.544953	0.000183
 349	3.4626e+01	13.8542	78.548531	0.000638	6.383932	2.162935	0.000256
 350	3.4725e+01	13.8959	78.701943	0.000385	3.850626	1.304627	0.000154
 351	3.4825e+01	13.9376	78.952245	0.000628	6.282600	2.128603	0.000252
 352	3.4925e+01	13.9793	79.186399	0.000588	5.877271	1.991273	0.000235
 353	3.5024e+01	14.0242	79.384219	0.000497	4.965281	1.682283	0.000199
 354	3.5123e+01	14.0627	79.594150	0.000527	5.269277	1.785280	0.000211
 355	3.5223e+01	14.0852	79.828304	0.000588	5.877271	1.991273	0.000235
 356	3.5322e+01	14.1429	80.026123	0.000497	4.965281	1.682283	0.000199
 357	3.5422e+01	14.1782	80.227980	0.000507	5.066613	1.716615	0.000203
 358	3.5522e+01	14.2087	80.417725	0.000476	4.762616	1.613618	0.000191
 359	3.5621e+01	14.2488	80.631694	0.000537	5.370610	1.819612	0.000215
 360	3.5721e+01	14.2953	80.833550	0.000507	5.066613	1.716615	0.000203
 361	3.5820e+01	14.3418	81.047519	0.000537	5.370610	1.819612	0.000215
 362	3.5919e+01	14.3803	81.277635	0.000578	5.775939	1.956941	0.000231
 363	3.6019e+01	14.4172	81.511789	0.000588	5.877271	1.991273	0.000235
 364	3.6118e+01	14.4573	81.689423	0.000446	4.458619	1.510621	0.000179
 365	3.6218e+01	14.4926	81.911466	0.000557	5.573274	1.888276	0.000223
 366	3.6318e+01	14.5311	82.105248	0.000486	4.863948	1.647950	0.000195
 367	3.6417e+01	14.5745	82.327291	0.000557	5.573274	1.888276	0.000223
 368	3.6517e+01	14.6097	82.541259	0.000537	5.370610	1.819612	0.000215
 369	3.6616e+01	14.6499	82.763301	0.000557	5.573274	1.888276	0.000223
 370	3.6715e+01	14.6980	82.973232	0.000527	5.269277	1.785280	0.000211
 371	3.6815e+01	14.7333	83.158940	0.000466	4.661284	1.579286	0.000187
 372	3.6914e+01	14.7814	83.336574	0.000446	4.458619	1.510621	0.000179
 373	3.7014e+01	14.8119	83.598988	0.000659	6.586597	2.231599	0.000264
 374	3.7114e+01	14.8424	83.752399	0.000385	3.850626	1.304627	0.000154
 375	3.7213e+01	14.8905	83.966368	0.000537	5.370610	1.819612	0.000215
 376	3.7313e+01	14.9338	84.168224	0.000507	5.066613	1.716615	0.000203
 377	3.7412e+01	14.9739	84.374118	0.000517	5.167945	1.750947	0.000207
 378	3.7511e+01	15.0156	84.588087	0.000537	5.370610	1.819612	0.000215
 379	3.7611e+01	15.0461	84.757646	0.000426	4.255955	1.441957	0.000170
 380	3.7711e+01	15.0990	84.955466	0.000497	4.965281	1.682283	0.000199
 381	3.7810e+01	15.1311	85.205768	0.000628	6.282600	2.128603	0.000252
 382	3.7910e+01	15.1744	85.411662	0.000517	5.167945	1.750947	0.000207
 383	3.8009e+01	15.2017	85.581222	0.000426	4.255955	1.441957	0.000170
 384	3.8108e+01	15.2482	85.803264	0.000557	5.573274	1.888276	0.000223
 385	3.8208e+01	15.2964	86.021270	0.000547	5.471942	1.853944	0.000219
 386	3.8307e+01	15.3365	86.255424	0.000588	5.877271	1.991273	0.000235
 387	3.8407e+01	15.3718	86.433058	0.000446	4.458619	1.510621	0.000179
 388	3.8507e+01	15.4071	86.618766	0.000466	4.661284	1.579286	0.000187
 389	3.8606e+01	15.4568	86.848883	0.000578	5.775939	1.956941	0.000231
 390	3.8706e+01	15.4937	87.006331	0.000395	3.951958	1.338960	0.000158
 391	3.8805e+01	15.5306	87.220299	0.000537	5.370610	1.819612	0.000215
 392	3.8904e+01	15.5691	87.446379	0.000567	5.674606	1.922609	0.000227
 393	3.9004e+01	15.5996	87.656310	0.000527	5.269277	1.785280	0.000211
 394	3.9103e+01	15.6525	87.817795	0.000405	4.053290	1.373292	0.000162
 395	3.9203e+01	15.7022	88.043875	0.000567	5.674606	1.922609	0.000227
 396	3.9303e+01	15.7407	88.237657	0.000486	4.863948	1.647950	0.000195
 397	3.9402e+01	15.7664	88.443551	0.000517	5.167945	1.750947	0.000207
 398	3.9502e+01	15.8033	88.681742	0.000598	5.978603	2.025606	0.000239
 399	3.9601e+01	15.8450	88.831116	0.000375	3.749294	1.270295	0.000150
 400	3.9700e+01	15.8883	89.057196	0.000567	5.674606	1.922609	0.000227
 401	3.9800e+01	15.9316	89.287313	0.000578	5.775939	1.956941	0.000231
 402	3.9900e+01	15.9605	89.440724	0.000385	3.850626	1.304627	0.000154
 403	3.9999e+01	16.0054	89.654692	0.000537	5.370610	1.819612	0.000215
 404	4.0099e+01	16.0520	89.860586	0.000517	5.167945	1.750947	0.000207
 405	4.0198e+01	16.0840	90.098777	0.000598	5.978603	2.025606	0.000239
 406	4.0297e+01	16.1177	90.260262	0.000405	4.053290	1.373292	0.000162
 407	4.0397e+01	16.1675	90.454045	0.000486	4.863948	1.647950	0.000195
 408	4.0496e+01	16.2092	90.659939	0.000517	5.167945	1.750947	0.000207
 409	4.0596e+01	16.2541	90.877944	0.000547	5.471942	1.853944	0.000219
 410	4.0696e+01	16.2958	91.083838	0.000517	5.167945	1.750947	0.000207
 411	4.0795e+01	16.3263	91.261472	0.000446	4.458619	1.510621	0.000179
 412	4.0895e+01	16.3680	91.443143	0.000456	4.559952	1.544953	0.000183
 413	4.0994e+01	16.4081	91.693445	0.000628	6.282600	2.128603	0.000252
 414	4.1093e+01	16.4578	91.903377	0.000527	5.269277	1.785280	0.000211
 415	4.1193e+01	16.4867	92.072936	0.000426	4.255955	1.441957	0.000170
 416	4.1292e+01	16.5300	92.270756	0.000497	4.965281	1.682283	0.000199
 417	4.1392e+01	16.5701	92.488761	0.000547	5.471942	1.853944	0.000219
 418	4.1492e+01	16.6118	92.674469	0.000466	4.661284	1.579286	0.000187
 419	4.1591e+01	16.6439	92.868252	0.000486	4.863948	1.647950	0.000195
 420	4.1691e+01	16.6856	93.082220	0.000537	5.370610	1.819612	0.000215
 421	4.1790e+01	16.7225	93.267928	0.000466	4.661284	1.579286	0.000187
 422	4.1889e+01	16.7594	93.502082	0.000588	5.877271	1.991273	0.000235
 423	4.1989e+01	16.8059	93.699902	0.000497	4.965281	1.682283	0.000199
 424	4.2089e+01	16.8477	93.873499	0.000436	4.357287	1.476289	0.000174
 425	4.2188e+01	16.8797	94.055170	0.000456	4.559952	1.544953	0.000183
 426	4.2288e+01	16.9198	94.257027	0.000507	5.066613	1.716615	0.000203
 427	4.2387e+01	16.9696	94.499255	0.000608	6.079935	2.059938	0.000243
 428	4.2486e+01	17.0001	94.660740	0.000405	4.053290	1.373292	0.000162
 429	4.2586e+01	17.0337	94.850486	0.000476	4.762616	1.613618	0.000191
 430	4.2685e+01	17.0979	95.088677	0.000598	5.978603	2.025606	0.000239
 431	4.2785e+01	17.1220	95.242088	0.000385	3.850626	1.304627	0.000154
 432	4.2885e+01	17.1621	95.460093	0.000547	5.471942	1.853944	0.000219
 433	4.2984e+01	17.1942	95.657913	0.000497	4.965281	1.682283	0.000199
 434	4.3084e+01	17.2471	95.843621	0.000466	4.661284	1.579286	0.000187
 435	4.3183e+01	17.2904	96.033366	0.000476	4.762616	1.613618	0.000191
 436	4.3282e+01	17.3337	96.251372	0.000547	5.471942	1.853944	0.000219
 437	4.3382e+01	17.3594	96.445154	0.000486	4.863948	1.647950	0.000195
 438	4.3481e+01	17.4027	96.622788	0.000446	4.458619	1.510621	0.000179
 439	4.3581e+01	17.4492	96.820608	0.000497	4.965281	1.682283	0.000199
 440	4.3681e+01	17.4877	97.018427	0.000497	4.965281	1.682283	0.000199
 441	4.3780e+01	17.5182	97.228359	0.000527	5.269277	1.785280	0.000211
 442	4.3880e+01	17.5583	97.442327	0.000537	5.370610	1.819612	0.000215
 443	4.3979e+01	17.6032	97.591701	0.000375	3.749294	1.270295	0.000150
 444	4.4078e+01	17.6434	97.757223	0.000415	4.154623	1.407624	0.000166
 445	4.4178e+01	17.6899	97.999451	0.000608	6.079935	2.059938	0.000243
 446	4.4278e+01	17.7188	98.160937	0.000405	4.053290	1.373292	0.000162
 447	4.4377e+01	17.7605	98.395091	0.000588	5.877271	1.991273	0.000235
 448	4.4477e+01	17.8054	98.580799	0.000466	4.661284	1.579286	0.000187
 449	4.4576e+01	17.8455	98.782656	0.000507	5.066613	1.716615	0.000203
 450	4.4675e+01	17.8792	98.968364	0.000466	4.661284	1.579286	0.000187
 451	4.4775e+01	17.9209	99.174258	0.000517	5.167945	1.750947	0.000207
 452	4.4874e+01	17.9578	99.400338	0.000567	5.674606	1.922609	0.000227
 453	4.4974e+01	17.9979	99.561823	0.000405	4.053290	1.373292	0.000162
 454	4.5074e+01	18.0396	99.755606	0.000486	4.863948	1.647950	0.000195
 455	4.5173e+01	18.0813	99.937277	0.000456	4.559952	1.544953	0.000183
 456	4.5273e+01	18.1214	100.127022	0.000476	4.762616	1.613618	0.000191
 457	4.5372e+01	18.1663	100.361176	0.000588	5.877271	1.991273	0.000235
 458	4.5471e+01	18.2032	100.534773	0.000436	4.357287	1.476289	0.000174
 459	4.5571e+01	18.2369	100.728555	0.000486	4.863948	1.647950	0.000195
 460	4.5670e+01	18.2738	100.918301	0.000476	4.762616	1.613618	0.000191
 461	4.5770e+01	18.3284	101.108046	0.000476	4.762616	1.613618	0.000191
 462	4.5870e+01	18.3588	101.346237	0.000598	5.978603	2.025606	0.000239
 463	4.5969e+01	18.3973	101.515797	0.000426	4.255955	1.441957	0.000170
 464	4.6069e+01	18.4455	101.713616	0.000497	4.965281	1.682283	0.000199
 465	4.6168e+01	18.4792	101.867028	0.000385	3.850626	1.304627	0.000154
 466	4.6267e+01	18.5177	102.105219	0.000598	5.978603	2.025606	0.000239
 467	4.6367e+01	18.5578	102.282852	0.000446	4.458619	1.510621	0.000179
 468	4.6467e+01	18.6059	102.492784	0.000527	5.269277	1.785280	0.000211
 469	4.6566e+01	18.6364	102.634083	0.000355	3.546629	1.201630	0.000142
 470	4.6666e+01	18.6749	102.872274	0.000598	5.978603	2.025606	0.000239
 471	4.6765e+01	18.7150	103.062020	0.000476	4.762616	1.613618	0.000191
 472	4.6864e+01	18.7567	103.275988	0.000537	5.370610	1.819612	0.000215
 473	4.6964e+01	18.7968	103.449585	0.000436	4.357287	1.476289	0.000174
 474	4.7063e+01	18.8385	103.647404	0.000497	4.965281	1.682283	0.000199
 475	4.7163e+01	18.8690	103.869447	0.000557	5.573274	1.888276	0.000223
 476	4.7263e+01	18.9171	104.051118	0.000456	4.559952	1.544953	0.000183
 477	4.7362e+01	18.9604	104.220678	0.000426	4.255955	1.441957	0.000170
 478	4.7462e+01	19.0086	104.442720	0.000557	5.573274	1.888276	0.000223
 479	4.7561e+01	19.0342	104.592094	0.000375	3.749294	1.270295	0.000150
 480	4.7660e+01	19.0775	104.785877	0.000486	4.863948	1.647950	0.000195
 481	4.7760e+01	19.1176	104.963511	0.000446	4.458619	1.510621	0.000179
 482	4.7859e+01	19.1497	105.149219	0.000466	4.661284	1.579286	0.000187
 483	4.7959e+01	19.2027	105.334927	0.000466	4.661284	1.579286	0.000187
 484	4.8059e+01	19.2331	105.544858	0.000527	5.269277	1.785280	0.000211
 485	4.8158e+01	19.2829	105.750752	0.000517	5.167945	1.750947	0.000207
 486	4.8258e+01	19.3182	105.936460	0.000466	4.661284	1.579286	0.000187
 487	4.8357e+01	19.3615	106.126206	0.000476	4.762616	1.613618	0.000191
 488	4.8456e+01	19.3936	106.311914	0.000466	4.661284	1.579286	0.000187
 489	4.8556e+01	19.4417	106.461288	0.000375	3.749294	1.270295	0.000150
 490	4.8656e+01	19.4642	106.675256	0.000537	5.370610	1.819612	0.000215
 491	4.8755e+01	19.5203	106.856927	0.000456	4.559952	1.544953	0.000183
 492	4.8855e+01	19.5492	107.066858	0.000527	5.269277	1.785280	0.000211
 493	4.8954e+01	19.5989	107.232381	0.000415	4.154623	1.407624	0.000166
 494	4.9053e+01	19.6294	107.446349	0.000537	5.370610	1.819612	0.000215
 495	4.9153e+01	19.6695	107.660317	0.000537	5.370610	1.819612	0.000215
 496	4.9252e+01	19.7176	107.809691	0.000375	3.749294	1.270295	0.000150
 497	4.9352e+01	19.7545	108.007511	0.000497	4.965281	1.682283	0.000199
 498	4.9452e+01	19.7978	108.189182	0.000456	4.559952	1.544953	0.000183
 499	4.9551e+01	19.8251	108.399113	0.000527	5.269277	1.785280	0.000211
 500	4.9651e+01	19.8668	108.609044	0.000527	5.269277	1.785280	0.000211
 501	4.9750e+01	19.9149	108.778604	0.000426	4.255955	1.441957	0.000170
 502	4.9849e+01	19.9583	108.956238	0.000446	4.458619	1.510621	0.000179
 503	4.9949e+01	19.9968	109.129835	0.000436	4.357287	1.476289	0.000174
 504	5.0048e+01	19.9567	109.036981	0.000233	2.330642	0.789643	-0.000093
 505	5.0148e+01	19.9133	108.919904	0.000294	2.938635	0.995637	-0.000118
 506	5.0248e+01	19.8652	108.770530	0.000375	3.749294	1.270295	-0.000150
 507	5.0347e+01	19.8299	108.689787	0.000203	2.026645	0.686646	-0.000081
 508	5.0447e+01	19.7962	108.548487	0.000355	3.546629	1.201630	-0.000142
 509	5.0546e+01	19.7561	108.471782	0.000193	1.925313	0.652314	-0.000077
 510	5.0645e+01	19.7064	108.294148	0.000446	4.458619	1.510621	-0.000179
 511	5.0745e+01	19.6807	108.181108	0.000284	2.837303	0.961304	-0.000114
 512	5.0844e+01	19.6278	108.039808	0.000355	3.546629	1.201630	-0.000142
 513	5.0944e+01	19.6005	107.942917	0.000243	2.431974	0.823975	-0.000097
 514	5.1044e+01	19.5556	107.809691	0.000334	3.343965	1.132966	-0.000134
 515	5.1143e+01	19.5251	107.660317	0.000375	3.749294	1.270295	-0.000150
 516	5.1242e+01	19.4738	107.547277	0.000284	2.837303	0.961304	-0.000114
 517	5.1342e+01	19.4337	107.438275	0.000274	2.735971	0.926972	-0.000110
 518	5.1441e+01	19.3984	107.296975	0.000355	3.546629	1.201630	-0.000142
 519	5.1541e+01	19.3535	107.163750	0.000334	3.343965	1.132966	-0.000134
 520	5.1641e+01	19.3102	107.042636	0.000304	3.039968	1.029969	-0.000122
 521	5.1740e+01	19.2749	106.889224	0.000385	3.850626	1.304627	-0.000154
 522	5.1840e+01	19.2364	106.784259	0.000263	2.634639	0.892640	-0.000105
 523	5.1939e+01	19.2027	106.622773	0.000405	4.053290	1.373292	-0.000162
 524	5.2038e+01	19.1594	106.497622	0.000314	3.141300	1.064301	-0.000126
 525	5.2138e+01	19.1048	106.372471	0.000314	3.141300	1.064301	-0.000126
 526	5.2237e+01	19.0759	106.239246	0.000334	3.343965	1.132966	-0.000134
 527	5.2337e+01	19.0406	106.097946	0.000355	3.546629	1.201630	-0.000142
 528	5.2437e+01	18.9941	105.976832	0.000304	3.039968	1.029969	-0.000122
 529	5.2536e+01	18.9604	105.831495	0.000365	3.647961	1.235963	-0.000146
 530	5.2636e+01	18.9171	105.657898	0.000436	4.357287	1.476289	-0.000174
 531	5.2735e+01	18.8882	105.516598	0.000355	3.546629	1.201630	-0.000142
 532	5.2834e+01	18.8385	105.399521	0.000294	2.938635	0.995637	-0.000118
 533	5.2934e+01	18.8016	105.254184	0.000365	3.647961	1.235963	-0.000146
 534	5.3033e+01	18.7567	105.116922	0.000345	3.445297	1.167298	-0.000138
 535	5.3133e+01	18.7214	104.995808	0.000304	3.039968	1.029969	-0.000122
 536	5.3233e+01	18.6877	104.810099	0.000466	4.661284	1.579286	-0.000187
 537	5.3332e+01	18.6364	104.680911	0.000324	3.242632	1.098634	-0.000130
 538	5.3431e+01	18.5963	104.535574	0.000365	3.647961	1.235963	-0.000146
 539	5.3531e+01	18.5626	104.422534	0.000284	2.837303	0.961304	-0.000114
 540	5.3630e+01	18.5305	104.257012	0.000415	4.154623	1.407624	-0.000166
 541	5.3730e+01	18.4792	104.079378	0.000446	4.458619	1.510621	-0.000179
 542	5.3830e+01	18.4342	103.934041	0.000365	3.647961	1.235963	-0.000146
 543	5.3929e+01	18.3957	103.780630	0.000385	3.850626	1.304627	-0.000154
 544	5.4029e+01	18.3637	103.671627	0.000274	2.735971	0.926972	-0.000110
 545	5.4128e+01	18.3155	103.502067	0.000426	4.255955	1.441957	-0.000170
 546	5.4227e+01	18.2786	103.348656	0.000385	3.850626	1.304627	-0.000154
 547	5.4327e+01	18.2401	103.199282	0.000375	3.749294	1.270295	-0.000150
 548	5.4426e+01	18.1984	103.053945	0.000365	3.647961	1.235963	-0.000146
 549	5.4526e+01	18.1599	102.932831	0.000304	3.039968	1.029969	-0.000122
 550	5.4626e+01	18.1262	102.763272	0.000426	4.255955	1.441957	-0.000170
 551	5.4725e+01	18.0829	102.621972	0.000355	3.546629	1.201630	-0.000142
 552	5.4825e+01	18.0396	102.452412	0.000426	4.255955	1.441957	-0.000170
 553	5.4924e+01	18.0027	102.278815	0.000436	4.357287	1.476289	-0.000174
 554	5.5023e+01	17.9642	102.129441	0.000375	3.749294	1.270295	-0.000150
 555	5.5123e+01	17.9273	101.996216	0.000334	3.343965	1.132966	-0.000134
 556	5.5222e+01	17.8824	101.871065	0.000314	3.141300	1.064301	-0.000126
 557	5.5322e+01	17.8503	101.717653	0.000385	3.850626	1.304627	-0.000154
 558	5.5422e+01	17.7958	101.564242	0.000385	3.850626	1.304627	-0.000154
 559	5.5521e+01	17.7637	101.386608	0.000446	4.458619	1.510621	-0.000179
 560	5.5620e+01	17.7188	101.253383	0.000334	3.343965	1.132966	-0.000134
 561	5.5720e+01	17.6835	101.099972	0.000385	3.850626	1.304627	-0.000154
 562	5.5819e+01	17.6417	100.922338	0.000446	4.458619	1.510621	-0.000179
 563	5.5919e+01	17.6032	100.781038	0.000355	3.546629	1.201630	-0.000142
 564	5.6019e+01	17.5631	100.663961	0.000294	2.938635	0.995637	-0.000118
 565	5.6118e+01	17.5246	100.486327	0.000446	4.458619	1.510621	-0.000179
 566	5.6218e+01	17.4813	100.312730	0.000436	4.357287	1.476289	-0.000174
 567	5.6317e+01	17.4476	100.183542	0.000324	3.242632	1.098634	-0.000130
 568	5.6416e+01	17.4075	100.030131	0.000385	3.850626	1.304627	-0.000154
 569	5.6516e+01	17.3690	99.848460	0.000456	4.559952	1.544953	-0.000183
 570	5.6615e+01	17.3225	99.707160	0.000355	3.546629	1.201630	-0.000142
 571	5.6715e+01	17.2808	99.565860	0.000355	3.546629	1.201630	-0.000142
 572	5.6815e+01	17.2487	99.392263	0.000436	4.357287	1.476289	-0.000174
 573	5.6914e+01	17.2006	99.226741	0.000415	4.154623	1.407624	-0.000166
 574	5.7014e+01	17.1621	99.065255	0.000405	4.053290	1.373292	-0.000162
 575	5.7113e+01	17.1220	98.948178	0.000294	2.938635	0.995637	-0.000118
 576	5.7212e+01	17.0851	98.778619	0.000426	4.255955	1.441957	-0.000170
 577	5.7312e+01	17.0402	98.621170	0.000395	3.951958	1.338960	-0.000158
 578	5.7411e+01	17.0049	98.459685	0.000405	4.053290	1.373292	-0.000162
 579	5.7511e+01	16.9712	98.278014	0.000456	4.559952	1.544953	-0.000183
 580	5.7611e+01	16.9263	98.120566	0.000395	3.951958	1.338960	-0.000158
 581	5.7710e+01	16.8846	97.995414	0.000314	3.141300	1.064301	-0.000126
 582	5.7809e+01	16.8444	97.837966	0.000395	3.951958	1.338960	-0.000158
 583	5.7909e+01	16.8124	97.676481	0.000405	4.053290	1.373292	-0.000162
 584	5.8008e+01	16.7674	97.555367	0.000304	3.039968	1.029969	-0.000122
 585	5.8108e+01	16.7241	97.365621	0.000476	4.762616	1.613618	-0.000191
 586	5.8208e+01	16.6920	97.167802	0.000497	4.965281	1.682283	-0.000199
 587	5.8307e+01	16.6503	97.038613	0.000324	3.242632	1.098634	-0.000130
 588	5.8407e+01	16.6102	96.869053	0.000426	4.255955	1.441957	-0.000170
 589	5.8506e+01	16.5653	96.655085	0.000537	5.370610	1.819612	-0.000215
 590	5.8605e+01	16.5332	96.550120	0.000263	2.634639	0.892640	-0.000105
 591	5.8705e+01	16.4787	96.328077	0.000557	5.573274	1.888276	-0.000223
 592	5.8804e+01	16.4530	96.247335	0.000203	2.026645	0.686646	-0.000081
 593	5.8904e+01	16.4081	96.065663	0.000456	4.559952	1.544953	-0.000183
 594	5.9004e+01	16.3664	95.896104	0.000426	4.255955	1.441957	-0.000170
 595	5.9103e+01	16.3311	95.750767	0.000365	3.647961	1.235963	-0.000146
 596	5.9203e+01	16.2958	95.561021	0.000476	4.762616	1.613618	-0.000191
 597	5.9302e+01	16.2477	95.403573	0.000395	3.951958	1.338960	-0.000158
 598	5.9401e+01	16.2076	95.254199	0.000375	3.749294	1.270295	-0.000150
 599	5.9501e+01	16.1642	95.056380	0.000497	4.965281	1.682283	-0.000199
 600	5.9600e+01	16.1257	94.935265	0.000304	3.039968	1.029969	-0.000122
 601	5.9700e+01	16.0856	94.798003	0.000345	3.445297	1.167298	-0.000138
 602	5.9800e+01	16.0487	94.596146	0.000507	5.066613	1.716615	-0.000203
 603	5.9899e+01	16.0135	94.426586	0.000426	4.255955	1.441957	-0.000170
 604	5.9998e+01	15.9669	94.269138	0.000395	3.951958	1.338960	-0.000158
 605	6.0098e+01	15.9348	94.075356	0.000486	4.863948	1.647950	-0.000195
 606	6.0197e+01	15.8883	93.946167	0.000324	3.242632	1.098634	-0.000130
 607	6.0297e+01	15.8418	93.748348	0.000497	4.965281	1.682283	-0.000199
 608	6.0397e+01	15.8145	93.594936	0.000385	3.850626	1.304627	-0.000154
 609	6.0496e+01	15.7696	93.437488	0.000395	3.951958	1.338960	-0.000158
 610	6.0596e+01	15.7343	93.312337	0.000314	3.141300	1.064301	-0.000126
 611	6.0695e+01	15.6878	93.086257	0.000567	5.674606	1.922609	-0.000227
 612	6.0794e+01	15.6653	92.900549	0.000466	4.661284	1.579286	-0.000187
 613	6.0894e+01	15.6108	92.783472	0.000294	2.938635	0.995637	-0.000118
 614	6.0993e+01	15.5675	92.609875	0.000436	4.357287	1.476289	-0.000174
 615	6.1093e+01	15.5338	92.452427	0.000395	3.951958	1.338960	-0.000158
 616	6.1193e+01	15.4873	92.258644	0.000486	4.863948	1.647950	-0.000195
 617	6.1292e+01	15.4568	92.064862	0.000486	4.863948	1.647950	-0.000195
 618	6.1392e+01	15.3990	91.911451	0.000385	3.850626	1.304627	-0.000154
 619	6.1491e+01	15.3734	91.754002	0.000395	3.951958	1.338960	-0.000158
 620	6.1590e+01	15.3365	91.580406	0.000436	4.357287	1.476289	-0.000174
 621	6.1690e+01	15.2964	91.422957	0.000395	3.951958	1.338960	-0.000158
 622	6.1789e+01	15.2514	91.253398	0.000426	4.255955	1.441957	-0.000170
 623	6.1889e+01	15.2145	91.051541	0.000507	5.066613	1.716615	-0.000203
 624	6.1989e+01	15.1680	90.906204	0.000365	3.647961	1.235963	-0.000146
 625	6.2088e+01	15.1311	90.736644	0.000426	4.255955	1.441957	-0.000170
 626	6.2188e+01	15.0942	90.579196	0.000395	3.951958	1.338960	-0.000158
 627	6.2287e+01	15.0509	90.421748	0.000395	3.951958	1.338960	-0.000158
 628	6.2386e+01	15.0076	90.264299	0.000395	3.951958	1.338960	-0.000158
 629	6.2486e+01	14.9771	90.066480	0.000497	4.965281	1.682283	-0.000199
 630	6.2586e+01	14.9306	89.929217	0.000345	3.445297	1.167298	-0.000138
 631	6.2685e+01	14.8969	89.743509	0.000466	4.661284	1.579286	-0.000187
 632	6.2785e+01	14.8584	89.569912	0.000436	4.357287	1.476289	-0.000174
 633	6.2884e+01	14.8231	89.392278	0.000446	4.458619	1.510621	-0.000179
 634	6.2983e+01	14.7750	89.246941	0.000365	3.647961	1.235963	-0.000146
 635	6.3083e+01	14.7429	89.028936	0.000547	5.471942	1.853944	-0.000219
 636	6.3182e+01	14.6996	88.903785	0.000314	3.141300	1.064301	-0.000126
 637	6.3282e+01	14.6579	88.726151	0.000446	4.458619	1.510621	-0.000179
 638	6.3382e+01	14.6146	88.532368	0.000486	4.863948	1.647950	-0.000195
 639	6.3481e+01	14.5696	88.330511	0.000507	5.066613	1.716615	-0.000203
 640	6.3581e+01	14.5392	88.197286	0.000334	3.343965	1.132966	-0.000134
 641	6.3680e+01	14.4958	88.003503	0.000486	4.863948	1.647950	-0.000195
 642	6.3779e+01	14.4509	87.833944	0.000426	4.255955	1.441957	-0.000170
 643	6.3879e+01	14.4188	87.652273	0.000456	4.559952	1.544953	-0.000183
 644	6.3978e+01	14.3819	87.543270	0.000274	2.735971	0.926972	-0.000110
 645	6.4078e+01	14.3370	87.280856	0.000659	6.586597	2.231599	-0.000264
 646	6.4177e+01	14.3049	87.167816	0.000284	2.837303	0.961304	-0.000114
 647	6.4277e+01	14.2584	86.969997	0.000497	4.965281	1.682283	-0.000199
 648	6.4376e+01	14.2151	86.780251	0.000476	4.762616	1.613618	-0.000191
 649	6.4476e+01	14.1750	86.626840	0.000385	3.850626	1.304627	-0.000154
 650	6.4576e+01	14.1365	86.461318	0.000415	4.154623	1.407624	-0.000166
 651	6.4675e+01	14.0964	86.287721	0.000436	4.357287	1.476289	-0.000174
 652	6.4775e+01	14.0515	86.077790	0.000527	5.269277	1.785280	-0.000211
 653	6.4874e+01	14.0130	85.924378	0.000385	3.850626	1.304627	-0.000154
 654	6.4974e+01	13.9681	85.718485	0.000517	5.167945	1.750947	-0.000207
 655	6.5073e+01	13.9392	85.520665	0.000497	4.965281	1.682283	-0.000199
 656	6.5172e+01	13.8991	85.379365	0.000355	3.546629	1.201630	-0.000142
 657	6.5272e+01	13.8526	85.221917	0.000395	3.951958	1.338960	-0.000158
 658	6.5371e+01	13.8205	85.028134	0.000486	4.863948	1.647950	-0.000195
 659	6.5471e+01	13.7884	84.866649	0.000405	4.053290	1.373292	-0.000162
 660	6.5570e+01	13.7338	84.660755	0.000517	5.167945	1.750947	-0.000207
 661	6.5670e+01	13.7018	84.495232	0.000415	4.154623	1.407624	-0.000166
 662	6.5769e+01	13.6616	84.345858	0.000375	3.749294	1.270295	-0.000150
 663	6.5869e+01	13.6167	84.168224	0.000446	4.458619	1.510621	-0.000179
 664	6.5969e+01	13.5814	83.954256	0.000537	5.370610	1.819612	-0.000215
 665	6.6068e+01	13.5381	83.788734	0.000415	4.154623	1.407624	-0.000166
 666	6.6168e+01	13.4948	83.635323	0.000385	3.850626	1.304627	-0.000154
 667	6.6267e+01	13.4643	83.477874	0.000395	3.951958	1.338960	-0.000158
 668	6.6367e+01	13.4242	83.259869	0.000547	5.471942	1.853944	-0.000219
 669	6.6466e+01	13.3777	83.074161	0.000466	4.661284	1.579286	-0.000187
 670	6.6566e+01	13.3408	82.904601	0.000426	4.255955	1.441957	-0.000170
 671	6.6665e+01	13.2959	82.686596	0.000547	5.471942	1.853944	-0.000219
 672	6.6764e+01	13.2590	82.545296	0.000355	3.546629	1.201630	-0.000142
 673	6.6864e+01	13.2141	82.335365	0.000527	5.269277	1.785280	-0.000211
 674	6.6963e+01	13.1868	82.181954	0.000385	3.850626	1.304627	-0.000154
 675	6.7063e+01	13.1451	81.976060	0.000517	5.167945	1.750947	-0.000207
 676	6.7162e+01	13.1002	81.818611	0.000395	3.951958	1.338960	-0.000158
 677	6.7262e+01	13.0601	81.632903	0.000466	4.661284	1.579286	-0.000187
 678	6.7362e+01	13.0135	81.435084	0.000497	4.965281	1.682283	-0.000199
 679	6.7461e+01	12.9798	81.265524	0.000426	4.255955	1.441957	-0.000170
 680	6.7561e+01	12.9397	81.112113	0.000385	3.850626	1.304627	-0.000154
 681	6.7660e+01	12.9028	80.934479	0.000446	4.458619	1.510621	-0.000179
 682	6.7760e+01	12.8692	80.728585	0.000517	5.167945	1.750947	-0.000207
 683	6.7859e+01	12.8226	80.530765	0.000497	4.965281	1.682283	-0.000199
 684	6.7959e+01	12.7873	80.336983	0.000486	4.863948	1.647950	-0.000195
 685	6.8058e+01	12.7472	80.143200	0.000486	4.863948	1.647950	-0.000195
 686	6.8157e+01	12.6975	79.993826	0.000375	3.749294	1.270295	-0.000150
 687	6.8257e+01	12.6606	79.775821	0.000547	5.471942	1.853944	-0.000219
 688	6.8356e+01	12.6349	79.618372	0.000395	3.951958	1.338960	-0.000158
 689	6.8456e+01	12.5868	79.412479	0.000517	5.167945	1.750947	-0.000207
 690	6.8555e+01	12.5435	79.226770	0.000466	4.661284	1.579286	-0.000187
 691	6.8655e+01	12.5050	79.045099	0.000456	4.559952	1.544953	-0.000183
 692	6.8754e+01	12.4633	78.871502	0.000436	4.357287	1.476289	-0.000174
 693	6.8854e+01	12.4328	78.673683	0.000497	4.965281	1.682283	-0.000199
 694	6.8954e+01	12.3847	78.524309	0.000375	3.749294	1.270295	-0.000150
 695	6.9053e+01	12.3382	78.318415	0.000517	5.167945	1.750947	-0.000207
 696	6.9153e+01	12.2997	78.144818	0.000436	4.357287	1.476289	-0.000174
 697	6.9252e+01	12.2628	77.946998	0.000497	4.965281	1.682283	-0.000199
 698	6.9352e+01	12.2355	77.769364	0.000446	4.458619	1.510621	-0.000179
 699	6.9451e+01	12.1906	77.575582	0.000486	4.863948	1.647950	-0.000195
 700	6.9550e+01	12.1408	77.369688	0.000517	5.167945	1.750947	-0.000207
 701	6.9650e+01	12.1071	77.175905	0.000486	4.863948	1.647950	-0.000195
 702	6.9749e+01	12.0670	77.014420	0.000405	4.053290	1.373292	-0.000162
 703	6.9849e+01	12.0141	76.824675	0.000476	4.762616	1.613618	-0.000191
 704	6.9948e+01	11.9884	76.578409	0.000618	6.181268	2.094270	-0.000248
 705	7.0048e+01	11.9387	76.449221	0.000324	3.242632	1.098634	-0.000130
 706	7.0147e+01	11.9002	76.206993	0.000608	6.079935	2.059938	-0.000243
 707	7.0247e+01	11.8761	76.053582	0.000385	3.850626	1.304627	-0.000154
 708	7.0347e+01	11.8280	75.892096	0.000405	4.053290	1.373292	-0.000162
 709	7.0446e+01	11.7815	75.674091	0.000547	5.471942	1.853944	-0.000219
 710	7.0546e+01	11.7446	75.476271	0.000497	4.965281	1.682283	-0.000199
 711	7.0645e+01	11.7093	75.294600	0.000456	4.559952	1.544953	-0.000183
 712	7.0745e+01	11.6612	75.096780	0.000497	4.965281	1.682283	-0.000199
 713	7.0844e+01	11.6307	74.886849	0.000527	5.269277	1.785280	-0.000211
 714	7.0944e+01	11.5826	74.693067	0.000486	4.863948	1.647950	-0.000195
 715	7.1043e+01	11.5457	74.535619	0.000395	3.951958	1.338960	-0.000158
 716	7.1142e+01	11.5072	74.309539	0.000567	5.674606	1.922609	-0.000227
 717	7.1242e+01	11.4638	74.139979	0.000426	4.255955	1.441957	-0.000170
 718	7.1341e+01	11.4237	73.917937	0.000557	5.573274	1.888276	-0.000223
 719	7.1441e+01	11.3868	73.748377	0.000426	4.255955	1.441957	-0.000170
 720	7.1540e+01	11.3467	73.554595	0.000486	4.863948	1.647950	-0.000195
 721	7.1640e+01	11.3114	73.356775	0.000497	4.965281	1.682283	-0.000199
 722	7.1740e+01	11.2601	73.171067	0.000466	4.661284	1.579286	-0.000187
 723	7.1839e+01	11.2248	72.969210	0.000507	5.066613	1.716615	-0.000203
 724	7.1939e+01	11.1943	72.755242	0.000537	5.370610	1.819612	-0.000215
 725	7.2038e+01	11.1526	72.597793	0.000395	3.951958	1.338960	-0.000158
 726	7.2138e+01	11.1141	72.404011	0.000486	4.863948	1.647950	-0.000195
 727	7.2237e+01	11.0708	72.181968	0.000557	5.573274	1.888276	-0.000223
 728	7.2337e+01	11.0371	72.024520	0.000395	3.951958	1.338960	-0.000158
 729	7.2436e+01	10.9970	71.818626	0.000517	5.167945	1.750947	-0.000207
 730	7.2535e+01	10.9489	71.620807	0.000497	4.965281	1.682283	-0.000199
 731	7.2635e+01	10.9104	71.431061	0.000476	4.762616	1.613618	-0.000191
 732	7.2734e+01	10.8703	71.200944	0.000578	5.775939	1.956941	-0.000231
 733	7.2834e+01	10.8302	71.031385	0.000426	4.255955	1.441957	-0.000170
 734	7.2933e+01	10.7933	70.857788	0.000436	4.357287	1.476289	-0.000174
 735	7.3033e+01	10.7500	70.611523	0.000618	6.181268	2.094270	-0.000248
 736	7.3132e+01	10.7099	70.401592	0.000527	5.269277	1.785280	-0.000211
 737	7.3232e+01	10.6714	70.187623	0.000537	5.370610	1.819612	-0.000215
 738	7.3332e+01	10.6296	70.050361	0.000345	3.445297	1.167298	-0.000138
 739	7.3431e+01	10.5879	69.832355	0.000547	5.471942	1.853944	-0.000219
 740	7.3531e+01	10.5494	69.638573	0.000486	4.863948	1.647950	-0.000195
 741	7.3630e+01	10.5029	69.448828	0.000476	4.762616	1.613618	-0.000191
 742	7.3730e+01	10.4628	69.275231	0.000436	4.357287	1.476289	-0.000174
 743	7.3829e+01	10.4307	68.992631	0.000709	7.093258	2.403261	-0.000284
 744	7.3928e+01	10.3906	68.855369	0.000345	3.445297	1.167298	-0.000138
 745	7.4028e+01	10.3425	68.641400	0.000537	5.370610	1.819612	-0.000215
 746	7.4127e+01	10.3120	68.431469	0.000527	5.269277	1.785280	-0.000211
 747	7.4227e+01	10.2751	68.249798	0.000456	4.559952	1.544953	-0.000183
 748	7.4326e+01	10.2238	68.027756	0.000557	5.573274	1.888276	-0.000223
 749	7.4426e+01	10.1901	67.821862	0.000517	5.167945	1.750947	-0.000207
 750	7.4525e+01	10.1548	67.632116	0.000476	4.762616	1.613618	-0.000191
 751	7.4625e+01	10.1195	67.450445	0.000456	4.559952	1.544953	-0.000183
 752	7.4725e+01	10.0826	67.200143	0.000628	6.282600	2.128603	-0.000252
 753	7.4824e+01	10.0297	67.050769	0.000375	3.749294	1.270295	-0.000150
 754	7.4924e+01	9.9896	66.836801	0.000537	5.370610	1.819612	-0.000215
 755	7.5023e+01	9.9495	66.651092	0.000466	4.661284	1.579286	-0.000187
 756	7.5123e+01	9.9110	66.416939	0.000588	5.877271	1.991273	-0.000235
 757	7.5222e+01	9.8741	66.243342	0.000436	4.357287	1.476289	-0.000174
 758	7.5322e+01	9.8291	66.025336	0.000547	5.471942	1.853944	-0.000219
 759	7.5421e+01	9.8019	65.855777	0.000426	4.255955	1.441957	-0.000170
 760	7.5520e+01	9.7537	65.633734	0.000557	5.573274	1.888276	-0.000223
 761	7.5620e+01	9.7136	65.435915	0.000497	4.965281	1.682283	-0.000199
 762	7.5719e+01	9.6751	65.217909	0.000547	5.471942	1.853944	-0.000219
 763	7.5819e+01	9.6302	65.060461	0.000395	3.951958	1.338960	-0.000158
 764	7.5918e+01	9.5997	64.789973	0.000679	6.789261	2.300264	-0.000272
 765	7.6018e+01	9.5628	64.644636	0.000365	3.647961	1.235963	-0.000146
 766	7.6118e+01	9.5019	64.471039	0.000436	4.357287	1.476289	-0.000174
 767	7.6217e+01	9.4842	64.192477	0.000699	6.991926	2.368929	-0.000280
 768	7.6317e+01	9.4441	64.006769	0.000466	4.661284	1.579286	-0.000187
 769	7.6416e+01	9.3992	63.808949	0.000497	4.965281	1.682283	-0.000199
 770	7.6516e+01	9.3559	63.586906	0.000557	5.573274	1.888276	-0.000223
 771	7.6615e+01	9.3158	63.397161	0.000476	4.762616	1.613618	-0.000191
 772	7.6715e+01	9.2789	63.207416	0.000476	4.762616	1.613618	-0.000191
 773	7.6814e+01	9.2404	62.977299	0.000578	5.775939	1.956941	-0.000231
 774	7.6913e+01	9.1971	62.767368	0.000527	5.269277	1.785280	-0.000211
 775	7.7013e+01	9.1505	62.545325	0.000557	5.573274	1.888276	-0.000223
 776	7.7112e+01	9.1201	62.355580	0.000476	4.762616	1.613618	-0.000191
 777	7.7212e+01	9.0800	62.137575	0.000547	5.471942	1.853944	-0.000219
 778	7.7311e+01	9.0447	61.951866	0.000466	4.661284	1.579286	-0.000187
 779	7.7411e+01	8.9981	61.717713	0.000588	5.877271	1.991273	-0.000235
 780	7.7510e+01	8.9500	61.507782	0.000527	5.269277	1.785280	-0.000211
 781	7.7610e+01	8.9227	61.313999	0.000486	4.863948	1.647950	-0.000195
 782	7.7710e+01	8.8842	61.083882	0.000578	5.775939	1.956941	-0.000231
 783	7.7809e+01	8.8329	60.890100	0.000486	4.863948	1.647950	-0.000195
 784	7.7909e+01	8.7944	60.668057	0.000557	5.573274	1.888276	-0.000223
 785	7.8008e+01	8.7623	60.486386	0.000456	4.559952	1.544953	-0.000183
 786	7.8108e+01	8.7206	60.284529	0.000507	5.066613	1.716615	-0.000203
 787	7.8207e+01	8.6693	60.070561	0.000537	5.370610	1.819612	-0.000215
 788	7.8306e+01	8.6404	59.868704	0.000507	5.066613	1.716615	-0.000203
 789	7.8406e+01	8.5907	59.646662	0.000557	5.573274	1.888276	-0.000223
 790	7.8505e+01	8.5698	59.424619	0.000557	5.573274	1.888276	-0.000223
 791	7.8605e+01	8.5201	59.230837	0.000486	4.863948	1.647950	-0.000195
 792	7.8704e+01	8.4832	59.073389	0.000395	3.951958	1.338960	-0.000158
 793	7.8804e+01	8.4351	58.794826	0.000699	6.991926	2.368929	-0.000280
 794	7.8903e+01	8.3966	58.649489	0.000365	3.647961	1.235963	-0.000146
 795	7.9003e+01	8.3581	58.427447	0.000557	5.573274	1.888276	-0.000223
 796	7.9103e+01	8.3147	58.225590	0.000507	5.066613	1.716615	-0.000203
 797	7.9202e+01	8.2810	57.979325	0.000618	6.181268	2.094270	-0.000248
 798	7.9302e+01	8.2409	57.785542	0.000486	4.863948	1.647950	-0.000195
 799	7.9401e+01	8.1944	57.599834	0.000466	4.661284	1.579286	-0.000187
 800	7.9501e+01	8.1655	57.361643	0.000598	5.978603	2.025606	-0.000239
 801	7.9600e+01	8.1190	57.155749	0.000517	5.167945	1.750947	-0.000207
 802	7.9700e+01	8.0757	56.945818	0.000527	5.269277	1.785280	-0.000211
 803	7.9799e+01	8.0356	56.727813	0.000547	5.471942	1.853944	-0.000219
 804	7.9898e+01	8.0019	56.497696	0.000578	5.775939	1.956941	-0.000231
 805	7.9998e+01	7.9586	56.344285	0.000385	3.850626	1.304627	-0.000154
 806	8.0097e+01	7.9201	56.102057	0.000608	6.079935	2.059938	-0.000243
 807	8.0197e+01	7.8832	55.916349	0.000466	4.661284	1.579286	-0.000187
 808	8.0296e+01	7.8415	55.666046	0.000628	6.282600	2.128603	-0.000252
 809	8.0396e+01	7.7950	55.460152	0.000517	5.167945	1.750947	-0.000207
 810	8.0496e+01	7.7517	55.221961	0.000598	5.978603	2.025606	-0.000239
 811	8.0595e+01	7.7196	55.007993	0.000537	5.370610	1.819612	-0.000215
 812	8.0695e+01	7.6779	54.781913	0.000567	5.674606	1.922609	-0.000227
 813	8.0794e+01	7.6410	54.616391	0.000415	4.154623	1.407624	-0.000166
 814	8.0894e+01	7.6025	54.386274	0.000578	5.775939	1.956941	-0.000231
 815	8.0993e+01	7.5656	54.160194	0.000567	5.674606	1.922609	-0.000227
 816	8.1093e+01	7.5222	54.002746	0.000395	3.951958	1.338960	-0.000158
 817	8.1192e+01	7.4870	53.768592	0.000588	5.877271	1.991273	-0.000235
 818	8.1291e+01	7.4436	53.518290	0.000628	6.282600	2.128603	-0.000252
 819	8.1391e+01	7.4003	53.316433	0.000507	5.066613	1.716615	-0.000203
 820	8.1490e+01	7.3618	53.094391	0.000557	5.573274	1.888276	-0.000223
 821	8.1590e+01	7.3265	52.860237	0.000588	5.877271	1.991273	-0.000235
 822	8.1689e+01	7.2880	52.678566	0.000456	4.559952	1.544953	-0.000183
 823	8.1789e+01	7.2335	52.448449	0.000578	5.775939	1.956941	-0.000231
 824	8.1888e+01	7.1998	52.250629	0.000497	4.965281	1.682283	-0.000199
 825	8.1988e+01	7.1645	52.020513	0.000578	5.775939	1.956941	-0.000231
 826	8.2088e+01	7.1244	51.810581	0.000527	5.269277	1.785280	-0.000211
 827	8.2187e+01	7.0827	51.600650	0.000527	5.269277	1.785280	-0.000211
 828	8.2287e+01	7.0378	51.362459	0.000598	5.978603	2.025606	-0.000239
 829	8.2386e+01	7.0041	51.136380	0.000567	5.674606	1.922609	-0.000227
 830	8.2486e+01	6.9640	50.966820	0.000426	4.255955	1.441957	-0.000170
 831	8.2585e+01	6.9207	50.712481	0.000638	6.383932	2.162935	-0.000256
 832	8.2684e+01	6.8822	50.490438	0.000557	5.573274	1.888276	-0.000223
 833	8.2784e+01	6.8501	50.256284	0.000588	5.877271	1.991273	-0.000235
 834	8.2883e+01	6.7987	50.058465	0.000497	4.965281	1.682283	-0.000199
 835	8.2983e+01	6.7618	49.812199	0.000618	6.181268	2.094270	-0.000248
 836	8.3082e+01	6.7249	49.654751	0.000395	3.951958	1.338960	-0.000158
 837	8.3182e+01	6.6784	49.412523	0.000608	6.079935	2.059938	-0.000243
 838	8.3281e+01	6.6447	49.166258	0.000618	6.181268	2.094270	-0.000248
 839	8.3381e+01	6.6014	48.960364	0.000517	5.167945	1.750947	-0.000207
 840	8.3481e+01	6.5661	48.730247	0.000578	5.775939	1.956941	-0.000231
 841	8.3580e+01	6.5180	48.524353	0.000517	5.167945	1.750947	-0.000207
 842	8.3680e+01	6.4939	48.286162	0.000598	5.978603	2.025606	-0.000239
 843	8.3779e+01	6.4394	48.056045	0.000578	5.775939	1.956941	-0.000231
 844	8.3879e+01	6.4169	47.842077	0.000537	5.370610	1.819612	-0.000215
 845	8.3978e+01	6.3704	47.620035	0.000557	5.573274	1.888276	-0.000223
 846	8.4078e+01	6.3303	47.397992	0.000557	5.573274	1.888276	-0.000223
 847	8.4177e+01	6.2886	47.196135	0.000507	5.066613	1.716615	-0.000203
 848	8.4276e+01	6.2549	46.986204	0.000527	5.269277	1.785280	-0.000211
 849	8.4376e+01	6.2116	46.739939	0.000618	6.181268	2.094270	-0.000248
 850	8.4475e+01	6.1651	46.530008	0.000527	5.269277	1.785280	-0.000211
 851	8.4575e+01	6.1362	46.287780	0.000608	6.079935	2.059938	-0.000243
 852	8.4674e+01	6.0929	46.106109	0.000456	4.559952	1.544953	-0.000183
 853	8.4774e+01	6.0544	45.847732	0.000649	6.485265	2.197267	-0.000260
 854	8.4874e+01	6.0143	45.617615	0.000578	5.775939	1.956941	-0.000231
 855	8.4973e+01	5.9677	45.399610	0.000547	5.471942	1.853944	-0.000219
 856	8.5073e+01	5.9244	45.189679	0.000527	5.269277	1.785280	-0.000211
 857	8.5172e+01	5.8988	44.963599	0.000567	5.674606	1.922609	-0.000227
 858	8.5272e+01	5.8506	44.765780	0.000497	4.965281	1.682283	-0.000199
 859	8.5371e+01	5.8073	44.495292	0.000679	6.789261	2.300264	-0.000272
 860	8.5471e+01	5.7656	44.337843	0.000395	3.951958	1.338960	-0.000158
 861	8.5570e+01	5.7255	44.051207	0.000719	7.194590	2.437593	-0.000288
 862	8.5669e+01	5.6854	43.897795	0.000385	3.850626	1.304627	-0.000154
 863	8.5769e+01	5.6533	43.635382	0.000659	6.586597	2.231599	-0.000264
 864	8.5868e+01	5.6052	43.409302	0.000567	5.674606	1.922609	-0.000227
 865	8.5968e+01	5.5731	43.183222	0.000567	5.674606	1.922609	-0.000227
 866	8.6067e+01	5.5298	42.945031	0.000598	5.978603	2.025606	-0.000239
 867	8.6167e+01	5.4993	42.686655	0.000649	6.485265	2.197267	-0.000260
 868	8.6266e+01	5.4544	42.492872	0.000486	4.863948	1.647950	-0.000195
 869	8.6366e+01	5.4127	42.270830	0.000557	5.573274	1.888276	-0.000223
 870	8.6466e+01	5.3774	42.064936	0.000517	5.167945	1.750947	-0.000207
 871	8.6565e+01	5.3309	41.826745	0.000598	5.978603	2.025606	-0.000239
 872	8.6665e+01	5.2859	41.596628	0.000578	5.775939	1.956941	-0.000231
 873	8.6764e+01	5.2619	41.370548	0.000567	5.674606	1.922609	-0.000227
 874	8.6864e+01	5.2170	41.132357	0.000598	5.978603	2.025606	-0.000239
 875	8.6963e+01	5.1753	40.890129	0.000608	6.079935	2.059938	-0.000243
 876	8.7063e+01	5.1319	40.647901	0.000608	6.079935	2.059938	-0.000243
 877	8.7162e+01	5.0918	40.462193	0.000466	4.661284	1.579286	-0.000187
 878	8.7261e+01	5.0485	40.219965	0.000608	6.079935	2.059938	-0.000243
 879	8.7361e+01	5.0180	39.965625	0.000638	6.383932	2.162935	-0.000256
 880	8.7460e+01	4.9811	39.759731	0.000517	5.167945	1.750947	-0.000207
 881	8.7560e+01	4.9314	39.485206	0.000689	6.890594	2.334596	-0.000276
 882	8.7659e+01	4.8881	39.299498	0.000466	4.661284	1.579286	-0.000187
 883	8.7759e+01	4.8544	39.049195	0.000628	6.282600	2.128603	-0.000252
 884	8.7859e+01	4.8143	38.839264	0.000527	5.269277	1.785280	-0.000211
 885	8.7958e+01	4.7646	38.580888	0.000649	6.485265	2.197267	-0.000260
 886	8.8058e+01	4.7341	38.326548	0.000638	6.383932	2.162935	-0.000256
 887	8.8157e+01	4.6940	38.084320	0.000608	6.079935	2.059938	-0.000243
 888	8.8257e+01	4.6491	37.898612	0.000466	4.661284	1.579286	-0.000187
 889	8.8356e+01	4.6138	37.684644	0.000537	5.370610	1.819612	-0.000215
 890	8.8456e+01	4.5753	37.438378	0.000618	6.181268	2.094270	-0.000248
 891	8.8555e+01	4.5432	37.180002	0.000649	6.485265	2.197267	-0.000260
 892	8.8654e+01	4.4983	37.002368	0.000446	4.458619	1.510621	-0.000179
 893	8.8754e+01	4.4534	36.764177	0.000598	5.978603	2.025606	-0.000239
 894	8.8853e+01	4.4197	36.477540	0.000719	7.194590	2.437593	-0.000288
 895	8.8953e+01	4.3844	36.275683	0.000507	5.066613	1.716615	-0.000203
 896	8.9052e+01	4.3362	36.053641	0.000557	5.573274	1.888276	-0.000223
 897	8.9152e+01	4.3074	35.819487	0.000588	5.877271	1.991273	-0.000235
 898	8.9251e+01	4.2576	35.561110	0.000649	6.485265	2.197267	-0.000260
 899	8.9351e+01	4.2175	35.355216	0.000517	5.167945	1.750947	-0.000207
 900	8.9451e+01	4.1726	35.092802	0.000659	6.586597	2.231599	-0.000264
 901	8.9550e+01	4.1389	34.874797	0.000547	5.471942	1.853944	-0.000219
 902	8.9650e+01	4.0988	34.608346	0.000669	6.687929	2.265932	-0.000268
 903	8.9749e+01	4.0555	34.410526	0.000497	4.965281	1.682283	-0.000199
 904	8.9849e+01	4.0154	34.136001	0.000689	6.890594	2.334596	-0.000276
 905	8.9948e+01	3.9785	33.917996	0.000547	5.471942	1.853944	-0.000219
 906	9.0047e+01	3.9288	33.667693	0.000628	6.282600	2.128603	-0.000252
 907	9.0147e+01	3.9015	33.433540	0.000588	5.877271	1.991273	-0.000235
 908	9.0246e+01	3.8566	33.215534	0.000547	5.471942	1.853944	-0.000219
 909	9.0346e+01	3.8165	32.981380	0.000588	5.877271	1.991273	-0.000235
 910	9.0445e+01	3.7780	32.775486	0.000517	5.167945	1.750947	-0.000207
 911	9.0545e+01	3.7347	32.500961	0.000689	6.890594	2.334596	-0.000276
 912	9.0644e+01	3.6962	32.246622	0.000638	6.383932	2.162935	-0.000256
 913	9.0744e+01	3.6560	32.036691	0.000527	5.269277	1.785280	-0.000211
 914	9.0844e+01	3.6159	31.778314	0.000649	6.485265	2.197267	-0.000260
 915	9.0943e+01	3.5774	31.544160	0.000588	5.877271	1.991273	-0.000235
 916	9.1043e+01	3.5405	31.342303	0.000507	5.066613	1.716615	-0.000203
 917	9.1142e+01	3.5004	31.071815	0.000679	6.789261	2.300264	-0.000272
 918	9.1242e+01	3.4603	30.853810	0.000547	5.471942	1.853944	-0.000219
 919	9.1341e+01	3.4186	30.619656	0.000588	5.877271	1.991273	-0.000235
 920	9.1441e+01	3.3785	30.365316	0.000638	6.383932	2.162935	-0.000256
 921	9.1540e+01	3.3432	30.171534	0.000486	4.863948	1.647950	-0.000195
 922	9.1639e+01	3.3063	29.925269	0.000618	6.181268	2.094270	-0.000248
 923	9.1739e+01	3.2662	29.654781	0.000679	6.789261	2.300264	-0.000272
 924	9.1838e+01	3.2181	29.400441	0.000638	6.383932	2.162935	-0.000256
 925	9.1938e+01	3.1748	29.162250	0.000598	5.978603	2.025606	-0.000239
 926	9.2037e+01	3.1507	28.960393	0.000507	5.066613	1.716615	-0.000203
 927	9.2137e+01	3.1090	28.706054	0.000638	6.383932	2.162935	-0.000256
 928	9.2237e+01	3.0721	28.459788	0.000618	6.181268	2.094270	-0.000248
 929	9.2336e+01	3.0111	28.205449	0.000638	6.383932	2.162935	-0.000256
 930	9.2436e+01	2.9839	27.955146	0.000628	6.282600	2.128603	-0.000252
 931	9.2535e+01	2.9374	27.704844	0.000628	6.282600	2.128603	-0.000252
 932	9.2635e+01	2.8972	27.502987	0.000507	5.066613	1.716615	-0.000203
 933	9.2734e+01	2.8555	27.212313	0.000730	7.295923	2.471925	-0.000292
 934	9.2834e+01	2.8234	26.974122	0.000598	5.978603	2.025606	-0.000239
 935	9.2933e+01	2.7849	26.800526	0.000436	4.357287	1.476289	-0.000174
 936	9.3032e+01	2.7432	26.526000	0.000689	6.890594	2.334596	-0.000276
 937	9.3132e+01	2.6919	26.247438	0.000699	6.991926	2.368929	-0.000280
 938	9.3231e+01	2.6630	26.061730	0.000466	4.661284	1.579286	-0.000187
 939	9.3331e+01	2.6085	25.779130	0.000709	7.093258	2.403261	-0.000284
 940	9.3430e+01	2.5764	25.557088	0.000557	5.573274	1.888276	-0.000223
 941	9.3530e+01	2.5395	25.326971	0.000578	5.775939	1.956941	-0.000231
 942	9.3629e+01	2.5138	25.108966	0.000547	5.471942	1.853944	-0.000219
 943	9.3729e+01	2.4609	24.834440	0.000689	6.890594	2.334596	-0.000276
 944	9.3829e+01	2.4208	24.539730	0.000740	7.397255	2.506258	-0.000296
 945	9.3928e+01	2.3855	24.313650	0.000567	5.674606	1.922609	-0.000227
 946	9.4028e+01	2.3470	24.059310	0.000638	6.383932	2.162935	-0.000256
 947	9.4127e+01	2.3005	23.821119	0.000598	5.978603	2.025606	-0.000239
 948	9.4227e+01	2.2636	23.582928	0.000598	5.978603	2.025606	-0.000239
 949	9.4326e+01	2.2235	23.320515	0.000659	6.586597	2.231599	-0.000264
 950	9.4425e+01	2.1753	23.122695	0.000497	4.965281	1.682283	-0.000199
 951	9.4525e+01	2.1497	22.884504	0.000598	5.978603	2.025606	-0.000239
 952	9.4624e+01	2.1112	22.597867	0.000719	7.194590	2.437593	-0.000288
 953	9.4724e+01	2.0646	22.379862	0.000547	5.471942	1.853944	-0.000219
 954	9.4823e+01	2.0229	22.133597	0.000618	6.181268	2.094270	-0.000248
 955	9.4923e+01	1.9860	21.867146	0.000669	6.687929	2.265932	-0.000268
 956	9.5022e+01	1.9459	21.632992	0.000588	5.877271	1.991273	-0.000235
 957	9.5122e+01	1.8978	21.366541	0.000669	6.687929	2.265932	-0.000268
 958	9.5222e+01	1.8657	21.132387	0.000588	5.877271	1.991273	-0.000235
 959	9.5321e+01	1.8304	20.894196	0.000598	5.978603	2.025606	-0.000239
 960	9.5421e+01	1.7839	20.619671	0.000689	6.890594	2.334596	-0.000276
 961	9.5520e+01	1.7422	20.433963	0.000466	4.661284	1.579286	-0.000187
 962	9.5620e+01	1.6973	20.119066	0.000790	7.903916	2.677919	-0.000316
 963	9.5719e+01	1.6732	19.884912	0.000588	5.877271	1.991273	-0.000235
 964	9.5819e+01	1.6283	19.650758	0.000588	5.877271	1.991273	-0.000235
 965	9.5918e+01	1.5850	19.436790	0.000537	5.370610	1.819612	-0.000215
 966	9.6017e+01	1.5481	19.162265	0.000689	6.890594	2.334596	-0.000276
 967	9.6117e+01	1.5016	18.891777	0.000679	6.789261	2.300264	-0.000272
 968	9.6216e+01	1.4663	18.649549	0.000608	6.079935	2.059938	-0.000243
 969	9.6316e+01	1.4262	18.439617	0.000527	5.269277	1.785280	-0.000211
 970	9.6415e+01	1.3780	18.157018	0.000709	7.093258	2.403261	-0.000284
 971	9.6515e+01	1.3411	17.874418	0.000709	7.093258	2.403261	-0.000284
 972	9.6615e+01	1.3058	17.648339	0.000567	5.674606	1.922609	-0.000227
 973	9.6714e+01	1.2657	17.422259	0.000567	5.674606	1.922609	-0.000227
 974	9.6814e+01	1.2240	17.147734	0.000689	6.890594	2.334596	-0.000276
 975	9.6913e+01	1.1903	16.949914	0.000497	4.965281	1.682283	-0.000199
 976	9.7013e+01	1.1406	16.651166	0.000750	7.498587	2.540590	-0.000300
 977	9.7112e+01	1.1037	16.417012	0.000588	5.877271	1.991273	-0.000235
 978	9.7212e+01	1.0668	16.154599	0.000659	6.586597	2.231599	-0.000264
 979	9.7311e+01	1.0299	15.900259	0.000638	6.383932	2.162935	-0.000256
 980	9.7410e+01	0.9914	15.682254	0.000547	5.471942	1.853944	-0.000219
 981	9.7510e+01	0.9449	15.391580	0.000730	7.295923	2.471925	-0.000292
 982	9.7609e+01	0.8984	15.141278	0.000628	6.282600	2.128603	-0.000252
 983	9.7709e+01	0.8615	14.886938	0.000638	6.383932	2.162935	-0.000256
 984	9.7808e+01	0.8326	14.640673	0.000618	6.181268	2.094270	-0.000248
 985	9.7908e+01	0.7845	14.398445	0.000608	6.079935	2.059938	-0.000243
 986	9.8007e+01	0.7444	14.095659	0.000760	7.599919	2.574922	-0.000304
 987	9.8107e+01	0.7139	13.881691	0.000537	5.370610	1.819612	-0.000215
 988	9.8207e+01	0.6722	13.655612	0.000567	5.674606	1.922609	-0.000227
 989	9.8306e+01	0.6224	13.332641	0.000811	8.106581	2.746584	-0.000325
 990	9.8406e+01	0.5904	13.130784	0.000507	5.066613	1.716615	-0.000203
 991	9.8505e+01	0.5438	12.876444	0.000638	6.383932	2.162935	-0.000256
 992	9.8605e+01	0.5134	12.630179	0.000618	6.181268	2.094270	-0.000248
 993	9.8704e+01	0.4668	12.371802	0.000649	6.485265	2.197267	-0.000260
 994	9.8803e+01	0.4331	12.077092	0.000740	7.397255	2.506258	-0.000296
 995	9.8903e+01	0.3834	11.846975	0.000578	5.775939	1.956941	-0.000231
 996	9.9002e+01	0.3465	11.576487	0.000679	6.789261	2.300264	-0.000272
 997	9.9102e+01	0.3128	11.366556	0.000527	5.269277	1.785280	-0.000211
 998	9.9201e+01	0.2663	11.059733	0.000770	7.701252	2.609255	-0.000308
 999	9.9301e+01	0.2262	10.801357	0.000649	6.485265	2.197267	-0.000260
1000	9.9400e+01	0.1845	10.563166	0.000598	5.978603	2.025606	-0.000239
1001	9.9500e+01	0.1508	10.341123	0.000557	5.573274	1.888276	-0.000223
1002	9.9600e+01	0.1203	10.050449	0.000730	7.295923	2.471925	-0.000292
1003	9.9699e+01	0.0690	9.816296	0.000588	5.877271	1.991273	-0.000235
1004	9.9799e+01	0.0305	9.553882	0.000659	6.586597	2.231599	-0.000264
1005	9.9898e+01	0.0064	9.360099	0.000486	4.863948	1.647950	-0.000195
1006	9.9998e+01	-0.0465	9.077500	0.000709	7.093258	2.403261	-0.000284
1007	1.0010e+02	-0.0834	8.782789	0.000740	7.397255	2.506258	-0.000296
1008	1.0020e+02	-0.1251	8.580932	0.000507	5.066613	1.716615	-0.000203
1009	1.0030e+02	-0.1717	8.294295	0.000719	7.194590	2.437593	-0.000288
1010	1.0040e+02	-0.1989	8.035919	0.000649	6.485265	2.197267	-0.000260
1011	1.0050e+02	-0.2246	7.789653	0.000618	6.181268	2.094270	-0.000248
1012	1.0059e+02	-0.2872	7.519165	0.000679	6.789261	2.300264	-0.000272
1013	1.0069e+02	-0.3305	7.305197	0.000537	5.370610	1.819612	-0.000215
1014	1.0079e+02	-0.3610	6.998375	0.000770	7.701252	2.609255	-0.000308
1015	1.0089e+02	-0.3995	6.744035	0.000638	6.383932	2.162935	-0.000256
1016	1.0099e+02	-0.4347	6.457399	0.000719	7.194590	2.437593	-0.000288
1017	1.0109e+02	-0.4829	6.251505	0.000517	5.167945	1.750947	-0.000207
1018	1.0119e+02	-0.5230	5.940645	0.000780	7.802584	2.643587	-0.000312
1019	1.0129e+02	-0.5599	5.698417	0.000608	6.079935	2.059938	-0.000243
1020	1.0139e+02	-0.5952	5.468300	0.000578	5.775939	1.956941	-0.000231
1021	1.0149e+02	-0.6337	5.217998	0.000628	6.282600	2.128603	-0.000252
1022	1.0159e+02	-0.6850	4.907138	0.000780	7.802584	2.643587	-0.000312
1023	1.0169e+02	-0.7219	4.697207	0.000527	5.269277	1.785280	-0.000211
1024	1.0179e+02	-0.7524	4.426719	0.000679	6.789261	2.300264	-0.000272
1025	1.0189e+02	-0.7973	4.176417	0.000628	6.282600	2.128603	-0.000252
1026	1.0199e+02	-0.8374	3.914003	0.000659	6.586597	2.231599	-0.000264
1027	1.0209e+02	-0.8791	3.663701	0.000628	6.282600	2.128603	-0.000252
1028	1.0219e+02	-0.9112	3.385138	0.000699	6.991926	2.368929	-0.000280
1029	1.0229e+02	-0.9674	3.138873	0.000618	6.181268	2.094270	-0.000248
1030	1.0239e+02	-0.9994	2.864348	0.000689	6.890594	2.334596	-0.000276
1031	1.0248e+02	-1.0444	2.597897	0.000669	6.687929	2.265932	-0.000268
1032	1.0258e+02	-1.0829	2.335483	0.000659	6.586597	2.231599	-0.000264
1033	1.0268e+02	-1.1133	2.085181	0.000628	6.282600	2.128603	-0.000252
1034	1.0278e+02	-1.1567	1.838915	0.000618	6.181268	2.094270	-0.000248
1035	1.0288e+02	-1.1984	1.624947	0.000537	5.370610	1.819612	-0.000215
1036	1.0298e+02	-1.2337	1.338310	0.000719	7.194590	2.437593	-0.000288
1037	1.0308e+02	-1.2706	1.063785	0.000689	6.890594	2.334596	-0.000276
1038	1.0318e+02	-1.3235	0.777149	0.000719	7.194590	2.437593	-0.000288
1039	1.0328e+02	-1.3540	0.506661	0.000679	6.789261	2.300264	-0.000272
1040	1.0338e+02	-1.3941	0.276544	0.000578	5.775939	1.956941	-0.000231
1041	1.0348e+02	-1.4310	0.022204	0.000638	6.383932	2.162935	-0.000256
1042	1.0358e+02	-1.4855	-0.256358	0.000699	6.991926	2.368929	-0.000280
1043	1.0368e+02	-1.5192	-0.514735	0.000649	6.485265	2.197267	-0.000260
1044	1.0378e+02	-1.5529	-0.781186	0.000669	6.687929	2.265932	-0.000268
1045	1.0388e+02	-1.6058	-1.031488	0.000628	6.282600	2.128603	-0.000252
1046	1.0398e+02	-1.6395	-1.245456	0.000537	5.370610	1.819612	-0.000215
1047	1.0408e+02	-1.6652	-1.560353	0.000790	7.903916	2.677919	-0.000316
1048	1.0418e+02	-1.7117	-1.834878	0.000689	6.890594	2.334596	-0.000276
1049	1.0428e+02	-1.7582	-2.032698	0.000497	4.965281	1.682283	-0.000199
1050	1.0438e+02	-1.7855	-2.287037	0.000638	6.383932	2.162935	-0.000256
1051	1.0447e+02	-1.8368	-2.618083	0.000831	8.309245	2.815248	-0.000333
1052	1.0457e+02	-1.8753	-2.844162	0.000567	5.674606	1.922609	-0.000227
1053	1.0467e+02	-1.9203	-3.106576	0.000659	6.586597	2.231599	-0.000264
1054	1.0477e+02	-1.9556	-3.385138	0.000699	6.991926	2.368929	-0.000280
1055	1.0487e+02	-1.9941	-3.639478	0.000638	6.383932	2.162935	-0.000256
1056	1.0497e+02	-2.0326	-3.893817	0.000638	6.383932	2.162935	-0.000256
1057	1.0507e+02	-2.0775	-4.152194	0.000649	6.485265	2.197267	-0.000260
1058	1.0517e+02	-2.1160	-4.430756	0.000699	6.991926	2.368929	-0.000280
1059	1.0527e+02	-2.1449	-4.652799	0.000557	5.573274	1.888276	-0.000223
1060	1.0537e+02	-2.1882	-4.915213	0.000659	6.586597	2.231599	-0.000264
1061	1.0547e+02	-2.2347	-5.161478	0.000618	6.181268	2.094270	-0.000248
1062	1.0557e+02	-2.2700	-5.492523	0.000831	8.309245	2.815248	-0.000333
1063	1.0567e+02	-2.3069	-5.678231	0.000466	4.661284	1.579286	-0.000187
1064	1.0577e+02	-2.3550	-5.976979	0.000750	7.498587	2.540590	-0.000300
1065	1.0587e+02	-2.3967	-6.219208	0.000608	6.079935	2.059938	-0.000243
1066	1.0597e+02	-2.4288	-6.497770	0.000699	6.991926	2.368929	-0.000280
1067	1.0607e+02	-2.4737	-6.699627	0.000507	5.066613	1.716615	-0.000203
1068	1.0617e+02	-2.5219	-6.982226	0.000709	7.093258	2.403261	-0.000284
1069	1.0627e+02	-2.5507	-7.236566	0.000638	6.383932	2.162935	-0.000256
1070	1.0637e+02	-2.5973	-7.486868	0.000628	6.282600	2.128603	-0.000252
1071	1.0647e+02	-2.6325	-7.737171	0.000628	6.282600	2.128603	-0.000252
1072	1.0656e+02	-2.6630	-8.019770	0.000709	7.093258	2.403261	-0.000284
1073	1.0666e+02	-2.7095	-8.245850	0.000567	5.674606	1.922609	-0.000227
1074	1.0676e+02	-2.7497	-8.504226	0.000649	6.485265	2.197267	-0.000260
1075	1.0686e+02	-2.7866	-8.778752	0.000689	6.890594	2.334596	-0.000276
1076	1.0696e+02	-2.8251	-9.037128	0.000649	6.485265	2.197267	-0.000260
1077	1.0706e+02	-2.8796	-9.247059	0.000527	5.269277	1.785280	-0.000211
1078	1.0716e+02	-2.9117	-9.521585	0.000689	6.890594	2.334596	-0.000276
1079	1.0726e+02	-2.9502	-9.824370	0.000760	7.599919	2.574922	-0.000304
1080	1.0736e+02	-2.9903	-10.026227	0.000507	5.066613	1.716615	-0.000203
1081	1.0746e+02	-3.0336	-10.288640	0.000659	6.586597	2.231599	-0.000264
1082	1.0756e+02	-3.0641	-10.542980	0.000638	6.383932	2.162935	-0.000256
1083	1.0766e+02	-3.1074	-10.805394	0.000659	6.586597	2.231599	-0.000264
1084	1.0776e+02	-3.1411	-11.071845	0.000669	6.687929	2.265932	-0.000268
1085	1.0786e+02	-3.1940	-11.293887	0.000557	5.573274	1.888276	-0.000223
1086	1.0796e+02	-3.2309	-11.519967	0.000567	5.674606	1.922609	-0.000227
1087	1.0806e+02	-3.2566	-11.818715	0.000750	7.498587	2.540590	-0.000300
1088	1.0816e+02	-3.3063	-12.048832	0.000578	5.775939	1.956941	-0.000231
1089	1.0826e+02	-3.3464	-12.262800	0.000537	5.370610	1.819612	-0.000215
1090	1.0836e+02	-3.3865	-12.597882	0.000841	8.410577	2.849581	-0.000337
1091	1.0845e+02	-3.4218	-12.819925	0.000557	5.573274	1.888276	-0.000223
1092	1.0855e+02	-3.4700	-13.066190	0.000618	6.181268	2.094270	-0.000248
1093	1.0865e+02	-3.5069	-13.348789	0.000709	7.093258	2.403261	-0.000284
1094	1.0875e+02	-3.5518	-13.582943	0.000588	5.877271	1.991273	-0.000235
1095	1.0885e+02	-3.5871	-13.804986	0.000557	5.573274	1.888276	-0.000223
1096	1.0895e+02	-3.6256	-14.075474	0.000679	6.789261	2.300264	-0.000272
1097	1.0905e+02	-3.6753	-14.337888	0.000659	6.586597	2.231599	-0.000264
1098	1.0915e+02	-3.7122	-14.563967	0.000567	5.674606	1.922609	-0.000227
1099	1.0925e+02	-3.7491	-14.830418	0.000669	6.687929	2.265932	-0.000268
1100	1.0935e+02	-3.7924	-15.076683	0.000618	6.181268	2.094270	-0.000248
1101	1.0945e+02	-3.8245	-15.310837	0.000588	5.877271	1.991273	-0.000235
1102	1.0955e+02	-3.8646	-15.524805	0.000537	5.370610	1.819612	-0.000215
1103	1.0965e+02	-3.9015	-15.803368	0.000699	6.991926	2.368929	-0.000280
1104	1.0975e+02	-3.9496	-16.005225	0.000507	5.066613	1.716615	-0.000203
1105	1.0985e+02	-3.9881	-16.283787	0.000699	6.991926	2.368929	-0.000280
1106	1.0995e+02	-4.0379	-16.542164	0.000649	6.485265	2.197267	-0.000260
1107	1.1005e+02	-4.0651	-16.792466	0.000628	6.282600	2.128603	-0.000252
1108	1.1015e+02	-4.1084	-17.010471	0.000547	5.471942	1.853944	-0.000219
1109	1.1025e+02	-4.1421	-17.272885	0.000659	6.586597	2.231599	-0.000264
1110	1.1035e+02	-4.1790	-17.551448	0.000699	6.991926	2.368929	-0.000280
1111	1.1044e+02	-4.2352	-17.757342	0.000517	5.167945	1.750947	-0.000207
1112	1.1054e+02	-4.2705	-17.979384	0.000557	5.573274	1.888276	-0.000223
1113	1.1064e+02	-4.3106	-18.278132	0.000750	7.498587	2.540590	-0.000300
1114	1.1074e+02	-4.3539	-18.540546	0.000659	6.586597	2.231599	-0.000264
1115	1.1084e+02	-4.3924	-18.766625	0.000567	5.674606	1.922609	-0.000227
1116	1.1094e+02	-4.4181	-19.020965	0.000638	6.383932	2.162935	-0.000256
1117	1.1104e+02	-4.4598	-19.267230	0.000618	6.181268	2.094270	-0.000248
1118	1.1114e+02	-4.4999	-19.549830	0.000709	7.093258	2.403261	-0.000284
1119	1.1124e+02	-4.5512	-19.735538	0.000466	4.661284	1.579286	-0.000187
1120	1.1134e+02	-4.5929	-19.981803	0.000618	6.181268	2.094270	-0.000248
1121	1.1144e+02	-4.6314	-20.215957	0.000588	5.877271	1.991273	-0.000235
1122	1.1154e+02	-4.6667	-20.506631	0.000730	7.295923	2.471925	-0.000292
1123	1.1164e+02	-4.7180	-20.708488	0.000507	5.066613	1.716615	-0.000203
1124	1.1174e+02	-4.7405	-20.946679	0.000598	5.978603	2.025606	-0.000239
1125	1.1184e+02	-4.7870	-21.209093	0.000659	6.586597	2.231599	-0.000264
1126	1.1194e+02	-4.8175	-21.463432	0.000638	6.383932	2.162935	-0.000256
1127	1.1204e+02	-4.8688	-21.689512	0.000567	5.674606	1.922609	-0.000227
1128	1.1214e+02	-4.9041	-21.939814	0.000628	6.282600	2.128603	-0.000252
1129	1.1224e+02	-4.9394	-22.113411	0.000436	4.357287	1.476289	-0.000174
1130	1.1234e+02	-4.9908	-22.355639	0.000608	6.079935	2.059938	-0.000243
1131	1.1244e+02	-5.0309	-22.638239	0.000709	7.093258	2.403261	-0.000284
1132	1.1253e+02	-5.0614	-22.872393	0.000588	5.877271	1.991273	-0.000235
1133	1.1263e+02	-5.0950	-23.098472	0.000567	5.674606	1.922609	-0.000227
1134	1.1273e+02	-5.1432	-23.348775	0.000628	6.282600	2.128603	-0.000252
1135	1.1283e+02	-5.1801	-23.595040	0.000618	6.181268	2.094270	-0.000248
1136	1.1293e+02	-5.2202	-23.841305	0.000618	6.181268	2.094270	-0.000248
1137	1.1303e+02	-5.2683	-24.055273	0.000537	5.370610	1.819612	-0.000215
1138	1.1313e+02	-5.3164	-24.289427	0.000588	5.877271	1.991273	-0.000235
1139	1.1323e+02	-5.3325	-24.555878	0.000669	6.687929	2.265932	-0.000268
1140	1.1333e+02	-5.3678	-24.725438	0.000426	4.255955	1.441957	-0.000170
1141	1.1343e+02	-5.4175	-24.987852	0.000659	6.586597	2.231599	-0.000264
1142	1.1353e+02	-5.4624	-25.230080	0.000608	6.079935	2.059938	-0.000243
1143	1.1363e+02	-5.5041	-25.492494	0.000659	6.586597	2.231599	-0.000264
1144	1.1373e+02	-5.5474	-25.742796	0.000628	6.282600	2.128603	-0.000252
1145	1.1383e+02	-5.5763	-25.948690	0.000517	5.167945	1.750947	-0.000207
1146	1.1393e+02	-5.6260	-26.154584	0.000517	5.167945	1.750947	-0.000207
1147	1.1403e+02	-5.6597	-26.477555	0.000811	8.106581	2.746584	-0.000325
1148	1.1413e+02	-5.6918	-26.675374	0.000497	4.965281	1.682283	-0.000199
1149	1.1423e+02	-5.7399	-26.905491	0.000578	5.775939	1.956941	-0.000231
1150	1.1433e+02	-5.7768	-27.119459	0.000537	5.370610	1.819612	-0.000215
1151	1.1442e+02	-5.8169	-27.377836	0.000649	6.485265	2.197267	-0.000260
1152	1.1452e+02	-5.8554	-27.632176	0.000638	6.383932	2.162935	-0.000256
1153	1.1462e+02	-5.9004	-27.850181	0.000547	5.471942	1.853944	-0.000219
1154	1.1472e+02	-5.9421	-28.080298	0.000578	5.775939	1.956941	-0.000231
1155	1.1482e+02	-5.9758	-28.326563	0.000618	6.181268	2.094270	-0.000248
1156	1.1492e+02	-6.0223	-28.540531	0.000537	5.370610	1.819612	-0.000215
1157	1.1502e+02	-6.0768	-28.802945	0.000659	6.586597	2.231599	-0.000264
1158	1.1512e+02	-6.0993	-29.020950	0.000547	5.471942	1.853944	-0.000219
1159	1.1522e+02	-6.1378	-29.230881	0.000527	5.269277	1.785280	-0.000211
1160	1.1532e+02	-6.1843	-29.489258	0.000649	6.485265	2.197267	-0.000260
1161	1.1542e+02	-6.2180	-29.683041	0.000486	4.863948	1.647950	-0.000195
1162	1.1552e+02	-6.2613	-30.030234	0.000871	8.714574	2.952578	-0.000349
1163	1.1562e+02	-6.2982	-30.215942	0.000466	4.661284	1.579286	-0.000187
1164	1.1572e+02	-6.3367	-30.417799	0.000507	5.066613	1.716615	-0.000203
1165	1.1582e+02	-6.3752	-30.660027	0.000608	6.079935	2.059938	-0.000243
1166	1.1592e+02	-6.4185	-30.890144	0.000578	5.775939	1.956941	-0.000231
1167	1.1602e+02	-6.4474	-31.104112	0.000537	5.370610	1.819612	-0.000215
1168	1.1612e+02	-6.5020	-31.326155	0.000557	5.573274	1.888276	-0.000223
1169	1.1622e+02	-6.5356	-31.536086	0.000527	5.269277	1.785280	-0.000211
1170	1.1632e+02	-6.5741	-31.810611	0.000689	6.890594	2.334596	-0.000276
1171	1.1642e+02	-6.6239	-32.064951	0.000638	6.383932	2.162935	-0.000256
1172	1.1651e+02	-6.6511	-32.266807	0.000507	5.066613	1.716615	-0.000203
1173	1.1661e+02	-6.6945	-32.504998	0.000598	5.978603	2.025606	-0.000239
1174	1.1671e+02	-6.7394	-32.739152	0.000588	5.877271	1.991273	-0.000235
1175	1.1681e+02	-6.7715	-32.973306	0.000588	5.877271	1.991273	-0.000235
1176	1.1691e+02	-6.8100	-33.211497	0.000598	5.978603	2.025606	-0.000239
1177	1.1701e+02	-6.8501	-33.449688	0.000598	5.978603	2.025606	-0.000239
1178	1.1711e+02	-6.8966	-33.611174	0.000405	4.053290	1.373292	-0.000162
1179	1.1721e+02	-6.9335	-33.881662	0.000679	6.789261	2.300264	-0.000272
1180	1.1731e+02	-6.9752	-34.119853	0.000598	5.978603	2.025606	-0.000239
1181	1.1741e+02	-7.0073	-34.329784	0.000527	5.269277	1.785280	-0.000211
1182	1.1751e+02	-7.0538	-34.559900	0.000578	5.775939	1.956941	-0.000231
1183	1.1761e+02	-7.0955	-34.810203	0.000628	6.282600	2.128603	-0.000252
1184	1.1771e+02	-7.1292	-35.032245	0.000557	5.573274	1.888276	-0.000223
1185	1.1781e+02	-7.1741	-35.230065	0.000497	4.965281	1.682283	-0.000199
1186	1.1791e+02	-7.2158	-35.464219	0.000588	5.877271	1.991273	-0.000235
1187	1.1801e+02	-7.2559	-35.726633	0.000659	6.586597	2.231599	-0.000264
1188	1.1811e+02	-7.2961	-35.968861	0.000608	6.079935	2.059938	-0.000243
1189	1.1821e+02	-7.3281	-36.166681	0.000497	4.965281	1.682283	-0.000199
1190	1.1831e+02	-7.3714	-36.416983	0.000628	6.282600	2.128603	-0.000252
1191	1.1841e+02	-7.4148	-36.643063	0.000567	5.674606	1.922609	-0.000227
1192	1.1850e+02	-7.4549	-36.877216	0.000588	5.877271	1.991273	-0.000235
1193	1.1860e+02	-7.4918	-37.046776	0.000426	4.255955	1.441957	-0.000170
1194	1.1870e+02	-7.5351	-37.309190	0.000659	6.586597	2.231599	-0.000264
1195	1.1880e+02	-7.5656	-37.559492	0.000628	6.282600	2.128603	-0.000252
1196	1.1890e+02	-7.6169	-37.720978	0.000405	4.053290	1.373292	-0.000162
1197	1.1900e+02	-7.6506	-37.955132	0.000588	5.877271	1.991273	-0.000235
1198	1.1910e+02	-7.6907	-38.185248	0.000578	5.775939	1.956941	-0.000231
1199	1.1920e+02	-7.7324	-38.403254	0.000547	5.471942	1.853944	-0.000219
1200	1.1930e+02	-7.7709	-38.592999	0.000476	4.762616	1.613618	-0.000191
1201	1.1940e+02	-7.8094	-38.887710	0.000740	7.397255	2.506258	-0.000296
1202	1.1950e+02	-7.8479	-39.109752	0.000557	5.573274	1.888276	-0.000223
1203	1.1960e+02	-7.8928	-39.319684	0.000527	5.269277	1.785280	-0.000211
1204	1.1970e+02	-7.9281	-39.509429	0.000476	4.762616	1.613618	-0.000191
1205	1.1980e+02	-7.9698	-39.755694	0.000618	6.181268	2.094270	-0.000248
1206	1.1990e+02	-8.0131	-39.985811	0.000578	5.775939	1.956941	-0.000231
1207	1.2000e+02	-8.0468	-40.244188	0.000649	6.485265	2.197267	-0.000260
1208	1.2010e+02	-8.0934	-40.454119	0.000527	5.269277	1.785280	-0.000211
1209	1.2020e+02	-8.1319	-40.684235	0.000578	5.775939	1.956941	-0.000231
1210	1.2030e+02	-8.1671	-40.902241	0.000547	5.471942	1.853944	-0.000219
1211	1.2039e+02	-8.2153	-41.132357	0.000578	5.775939	1.956941	-0.000231
1212	1.2049e+02	-8.2425	-41.362474	0.000578	5.775939	1.956941	-0.000231
1213	1.2059e+02	-8.2875	-41.580480	0.000547	5.471942	1.853944	-0.000219
1214	1.2069e+02	-8.3276	-41.814633	0.000588	5.877271	1.991273	-0.000235
1215	1.2079e+02	-8.3789	-42.052824	0.000598	5.978603	2.025606	-0.000239
1216	1.2089e+02	-8.3982	-42.266793	0.000537	5.370610	1.819612	-0.000215
1217	1.2099e+02	-8.4367	-42.480761	0.000537	5.370610	1.819612	-0.000215
1218	1.2109e+02	-8.4832	-42.666469	0.000466	4.661284	1.579286	-0.000187
1219	1.2119e+02	-8.5281	-42.969254	0.000760	7.599919	2.574922	-0.000304
1220	1.2129e+02	-8.5714	-43.150925	0.000456	4.559952	1.544953	-0.000183
1221	1.2139e+02	-8.6083	-43.409302	0.000649	6.485265	2.197267	-0.000260
1222	1.2149e+02	-8.6372	-43.643456	0.000588	5.877271	1.991273	-0.000235
1223	1.2159e+02	-8.6837	-43.800904	0.000395	3.951958	1.338960	-0.000158
1224	1.2169e+02	-8.7302	-44.043132	0.000608	6.079935	2.059938	-0.000243
1225	1.2179e+02	-8.7639	-44.261138	0.000547	5.471942	1.853944	-0.000219
1226	1.2189e+02	-8.7976	-44.523551	0.000659	6.586597	2.231599	-0.000264
1227	1.2199e+02	-8.8522	-44.713297	0.000476	4.762616	1.613618	-0.000191
1228	1.2209e+02	-8.8842	-44.927265	0.000537	5.370610	1.819612	-0.000215
1229	1.2219e+02	-8.9195	-45.161419	0.000588	5.877271	1.991273	-0.000235
1230	1.2229e+02	-8.9661	-45.375387	0.000537	5.370610	1.819612	-0.000215
1231	1.2239e+02	-9.0094	-45.593392	0.000547	5.471942	1.853944	-0.000219
1232	1.2248e+02	-9.0479	-45.851769	0.000649	6.485265	2.197267	-0.000260
1233	1.2258e+02	-9.0800	-46.057663	0.000517	5.167945	1.750947	-0.000207
1234	1.2268e+02	-9.1265	-46.267594	0.000527	5.269277	1.785280	-0.000211
1235	1.2278e+02	-9.1618	-46.469451	0.000507	5.066613	1.716615	-0.000203
1236	1.2288e+02	-9.2019	-46.707642	0.000598	5.978603	2.025606	-0.000239
1237	1.2298e+02	-9.2388	-46.953907	0.000618	6.181268	2.094270	-0.000248
1238	1.2308e+02	-9.2901	-47.139615	0.000466	4.661284	1.579286	-0.000187
1239	1.2318e+02	-9.3270	-47.369732	0.000578	5.775939	1.956941	-0.000231
1240	1.2328e+02	-9.3607	-47.559478	0.000476	4.762616	1.613618	-0.000191
1241	1.2338e+02	-9.4056	-47.850151	0.000730	7.295923	2.471925	-0.000292
1242	1.2348e+02	-9.4473	-48.031822	0.000456	4.559952	1.544953	-0.000183
1243	1.2358e+02	-9.4842	-48.237716	0.000517	5.167945	1.750947	-0.000207
1244	1.2368e+02	-9.5179	-48.463796	0.000567	5.674606	1.922609	-0.000227
1245	1.2378e+02	-9.5596	-48.689876	0.000567	5.674606	1.922609	-0.000227
1246	1.2388e+02	-9.5981	-48.875584	0.000466	4.661284	1.579286	-0.000187
1247	1.2398e+02	-9.6479	-49.105701	0.000578	5.775939	1.956941	-0.000231
1248	1.2408e+02	-9.6799	-49.335817	0.000578	5.775939	1.956941	-0.000231
1249	1.2418e+02	-9.7345	-49.541711	0.000517	5.167945	1.750947	-0.000207
1250	1.2428e+02	-9.7634	-49.767791	0.000567	5.674606	1.922609	-0.000227
1251	1.2438e+02	-9.8083	-49.985796	0.000547	5.471942	1.853944	-0.000219
1252	1.2447e+02	-9.8323	-50.232061	0.000618	6.181268	2.094270	-0.000248
1253	1.2457e+02	-9.8724	-50.413733	0.000456	4.559952	1.544953	-0.000183
1254	1.2467e+02	-9.9254	-50.651924	0.000598	5.978603	2.025606	-0.000239
1255	1.2477e+02	-9.9607	-50.861855	0.000527	5.269277	1.785280	-0.000211
1256	1.2487e+02	-10.0056	-51.100046	0.000598	5.978603	2.025606	-0.000239
1257	1.2497e+02	-10.0441	-51.289791	0.000476	4.762616	1.613618	-0.000191
1258	1.2507e+02	-10.0842	-51.491648	0.000507	5.066613	1.716615	-0.000203
1259	1.2517e+02	-10.1195	-51.754062	0.000659	6.586597	2.231599	-0.000264
1260	1.2527e+02	-10.1612	-51.980141	0.000567	5.674606	1.922609	-0.000227
1261	1.2537e+02	-10.1997	-52.105292	0.000314	3.141300	1.064301	-0.000126
1262	1.2547e+02	-10.2478	-52.404040	0.000750	7.498587	2.540590	-0.000300
1263	1.2557e+02	-10.2799	-52.585712	0.000456	4.559952	1.544953	-0.000183
1264	1.2567e+02	-10.3264	-52.787568	0.000507	5.066613	1.716615	-0.000203
1265	1.2577e+02	-10.3601	-52.989425	0.000507	5.066613	1.716615	-0.000203
1266	1.2587e+02	-10.4018	-53.255876	0.000669	6.687929	2.265932	-0.000268
1267	1.2597e+02	-10.4339	-53.485993	0.000578	5.775939	1.956941	-0.000231
1268	1.2607e+02	-10.4853	-53.679775	0.000486	4.863948	1.647950	-0.000195
1269	1.2617e+02	-10.5190	-53.901818	0.000557	5.573274	1.888276	-0.000223
1270	1.2627e+02	-10.5575	-54.095600	0.000486	4.863948	1.647950	-0.000195
1271	1.2636e+02	-10.5992	-54.289383	0.000486	4.863948	1.647950	-0.000195
1272	1.2646e+02	-10.6361	-54.531611	0.000608	6.079935	2.059938	-0.000243
1273	1.2656e+02	-10.6826	-54.777876	0.000618	6.181268	2.094270	-0.000248
1274	1.2666e+02	-10.7211	-54.983770	0.000517	5.167945	1.750947	-0.000207
1275	1.2676e+02	-10.7612	-55.153330	0.000426	4.255955	1.441957	-0.000170
1276	1.2686e+02	-10.8013	-55.359224	0.000517	5.167945	1.750947	-0.000207
1277	1.2696e+02	-10.8398	-55.577229	0.000547	5.471942	1.853944	-0.000219
1278	1.2706e+02	-10.8751	-55.807346	0.000578	5.775939	1.956941	-0.000231
1279	1.2716e+02	-10.9216	-56.045537	0.000598	5.978603	2.025606	-0.000239
1280	1.2726e+02	-10.9553	-56.263542	0.000547	5.471942	1.853944	-0.000219
1281	1.2736e+02	-11.0018	-56.489622	0.000567	5.674606	1.922609	-0.000227
1282	1.2746e+02	-11.0371	-56.667256	0.000446	4.458619	1.510621	-0.000179
1283	1.2756e+02	-11.0788	-56.913521	0.000618	6.181268	2.094270	-0.000248
1284	1.2766e+02	-11.1125	-57.135564	0.000557	5.573274	1.888276	-0.000223
1285	1.2776e+02	-11.1623	-57.321272	0.000466	4.661284	1.579286	-0.000187
1286	1.2786e+02	-11.2008	-57.579648	0.000649	6.485265	2.197267	-0.000260
1287	1.2796e+02	-11.2377	-57.749208	0.000426	4.255955	1.441957	-0.000170
1288	1.2806e+02	-11.2826	-57.934916	0.000466	4.661284	1.579286	-0.000187
1289	1.2816e+02	-11.3195	-58.156959	0.000557	5.573274	1.888276	-0.000223
1290	1.2826e+02	-11.3580	-58.354779	0.000497	4.965281	1.682283	-0.000199
1291	1.2835e+02	-11.3917	-58.564710	0.000527	5.269277	1.785280	-0.000211
1292	1.2845e+02	-11.4366	-58.827123	0.000659	6.586597	2.231599	-0.000264
1293	1.2855e+02	-11.4783	-59.008795	0.000456	4.559952	1.544953	-0.000183
1294	1.2865e+02	-11.5200	-59.198540	0.000476	4.762616	1.613618	-0.000191
1295	1.2875e+02	-11.5553	-59.432694	0.000588	5.877271	1.991273	-0.000235
1296	1.2885e+02	-11.5938	-59.630513	0.000497	4.965281	1.682283	-0.000199
1297	1.2895e+02	-11.6355	-59.824296	0.000486	4.863948	1.647950	-0.000195
1298	1.2905e+02	-11.6724	-60.018078	0.000486	4.863948	1.647950	-0.000195
1299	1.2915e+02	-11.7173	-60.228010	0.000527	5.269277	1.785280	-0.000211
1300	1.2925e+02	-11.7526	-60.462163	0.000588	5.877271	1.991273	-0.000235
1301	1.2935e+02	-11.8023	-60.672094	0.000527	5.269277	1.785280	-0.000211
1302	1.2945e+02	-11.8360	-60.869914	0.000497	4.965281	1.682283	-0.000199
1303	1.2955e+02	-11.8809	-61.087919	0.000547	5.471942	1.853944	-0.000219
1304	1.2965e+02	-11.9275	-61.289776	0.000507	5.066613	1.716615	-0.000203
1305	1.2975e+02	-11.9563	-61.515856	0.000567	5.674606	1.922609	-0.000227
1306	1.2985e+02	-11.9884	-61.725787	0.000527	5.269277	1.785280	-0.000211
1307	1.2995e+02	-12.0398	-61.939755	0.000537	5.370610	1.819612	-0.000215
1308	1.3005e+02	-12.0799	-62.145649	0.000517	5.167945	1.750947	-0.000207
1309	1.3015e+02	-12.1184	-62.359617	0.000537	5.370610	1.819612	-0.000215
1310	1.3025e+02	-12.1601	-62.553400	0.000486	4.863948	1.647950	-0.000195
1311	1.3034e+02	-12.1954	-62.751219	0.000497	4.965281	1.682283	-0.000199
1312	1.3044e+02	-12.2291	-62.957113	0.000517	5.167945	1.750947	-0.000207
1313	1.3054e+02	-12.2804	-63.195304	0.000598	5.978603	2.025606	-0.000239
1314	1.3064e+02	-12.3189	-63.385050	0.000476	4.762616	1.613618	-0.000191
1315	1.3074e+02	-12.3494	-63.582869	0.000497	4.965281	1.682283	-0.000199
1316	1.3084e+02	-12.3879	-63.788763	0.000517	5.167945	1.750947	-0.000207
1317	1.3094e+02	-12.4328	-63.986583	0.000497	4.965281	1.682283	-0.000199
1318	1.3104e+02	-12.4681	-64.208625	0.000557	5.573274	1.888276	-0.000223
1319	1.3114e+02	-12.5130	-64.434705	0.000567	5.674606	1.922609	-0.000227
1320	1.3124e+02	-12.5483	-64.664822	0.000578	5.775939	1.956941	-0.000231
1321	1.3134e+02	-12.5980	-64.822270	0.000395	3.951958	1.338960	-0.000158
1322	1.3144e+02	-12.6333	-65.064498	0.000608	6.079935	2.059938	-0.000243
1323	1.3154e+02	-12.6783	-65.234058	0.000426	4.255955	1.441957	-0.000170
1324	1.3164e+02	-12.7103	-65.439952	0.000517	5.167945	1.750947	-0.000207
1325	1.3174e+02	-12.7504	-65.670068	0.000578	5.775939	1.956941	-0.000231
1326	1.3184e+02	-12.7873	-65.888074	0.000547	5.471942	1.853944	-0.000219
1327	1.3194e+02	-12.8290	-66.057634	0.000426	4.255955	1.441957	-0.000170
1328	1.3204e+02	-12.8643	-66.316010	0.000649	6.485265	2.197267	-0.000260
1329	1.3214e+02	-12.8980	-66.465384	0.000375	3.749294	1.270295	-0.000150
1330	1.3224e+02	-12.9413	-66.703575	0.000598	5.978603	2.025606	-0.000239
1331	1.3234e+02	-12.9975	-66.873135	0.000426	4.255955	1.441957	-0.000170
1332	1.3243e+02	-13.0167	-67.087103	0.000537	5.370610	1.819612	-0.000215
1333	1.3253e+02	-13.0729	-67.272811	0.000466	4.661284	1.579286	-0.000187
1334	1.3263e+02	-13.1098	-67.523114	0.000628	6.282600	2.128603	-0.000252
1335	1.3273e+02	-13.1419	-67.700748	0.000446	4.458619	1.510621	-0.000179
1336	1.3283e+02	-13.1900	-67.922790	0.000557	5.573274	1.888276	-0.000223
1337	1.3293e+02	-13.2285	-68.076201	0.000385	3.850626	1.304627	-0.000154
1338	1.3303e+02	-13.2686	-68.346689	0.000679	6.789261	2.300264	-0.000272
1339	1.3313e+02	-13.3167	-68.516249	0.000426	4.255955	1.441957	-0.000170
1340	1.3323e+02	-13.3360	-68.722143	0.000517	5.167945	1.750947	-0.000207
1341	1.3333e+02	-13.3841	-68.940148	0.000547	5.471942	1.853944	-0.000219
1342	1.3343e+02	-13.4306	-69.150079	0.000527	5.269277	1.785280	-0.000211
1343	1.3353e+02	-13.4659	-69.279268	0.000324	3.242632	1.098634	-0.000130
1344	1.3363e+02	-13.5141	-69.578016	0.000750	7.498587	2.540590	-0.000300
1345	1.3373e+02	-13.5510	-69.731427	0.000385	3.850626	1.304627	-0.000154
1346	1.3383e+02	-13.5814	-69.937321	0.000517	5.167945	1.750947	-0.000207
1347	1.3393e+02	-13.6199	-70.147252	0.000527	5.269277	1.785280	-0.000211
1348	1.3403e+02	-13.6745	-70.373332	0.000567	5.674606	1.922609	-0.000227
1349	1.3413e+02	-13.7034	-70.542891	0.000426	4.255955	1.441957	-0.000170
1350	1.3423e+02	-13.7563	-70.797231	0.000638	6.383932	2.162935	-0.000256
1351	1.3432e+02	-13.7836	-70.991013	0.000486	4.863948	1.647950	-0.000195
1352	1.3442e+02	-13.8301	-71.213056	0.000557	5.573274	1.888276	-0.000223
1353	1.3452e+02	-13.8670	-71.342244	0.000324	3.242632	1.098634	-0.000130
1354	1.3462e+02	-13.9135	-71.552175	0.000527	5.269277	1.785280	-0.000211
1355	1.3472e+02	-13.9488	-71.782292	0.000578	5.775939	1.956941	-0.000231
1356	1.3482e+02	-13.9873	-72.016446	0.000588	5.877271	1.991273	-0.000235
1357	1.3492e+02	-14.0210	-72.198117	0.000456	4.559952	1.544953	-0.000183
1358	1.3502e+02	-14.0675	-72.363640	0.000415	4.154623	1.407624	-0.000166
1359	1.3512e+02	-14.1060	-72.593756	0.000578	5.775939	1.956941	-0.000231
1360	1.3522e+02	-14.1429	-72.823873	0.000578	5.775939	1.956941	-0.000231
1361	1.3532e+02	-14.1926	-72.981321	0.000395	3.951958	1.338960	-0.000158
1362	1.3542e+02	-14.2247	-73.187215	0.000517	5.167945	1.750947	-0.000207
1363	1.3552e+02	-14.2648	-73.397146	0.000527	5.269277	1.785280	-0.000211
1364	1.3562e+02	-14.2985	-73.607077	0.000527	5.269277	1.785280	-0.000211
1365	1.3572e+02	-14.3450	-73.792786	0.000466	4.661284	1.579286	-0.000187
1366	1.3582e+02	-14.3836	-73.994642	0.000507	5.066613	1.716615	-0.000203
1367	1.3592e+02	-14.4301	-74.184388	0.000476	4.762616	1.613618	-0.000191
1368	1.3602e+02	-14.4622	-74.390282	0.000517	5.167945	1.750947	-0.000207
1369	1.3612e+02	-14.5055	-74.584064	0.000486	4.863948	1.647950	-0.000195
1370	1.3622e+02	-14.5456	-74.789958	0.000517	5.167945	1.750947	-0.000207
1371	1.3631e+02	-14.5809	-74.971629	0.000456	4.559952	1.544953	-0.000183
1372	1.3641e+02	-14.6210	-75.169449	0.000497	4.965281	1.682283	-0.000199
1373	1.3651e+02	-14.6579	-75.415714	0.000618	6.181268	2.094270	-0.000248
1374	1.3661e+02	-14.7060	-75.609497	0.000486	4.863948	1.647950	-0.000195
1375	1.3671e+02	-14.7349	-75.770982	0.000405	4.053290	1.373292	-0.000162
1376	1.3681e+02	-14.7862	-76.013210	0.000608	6.079935	2.059938	-0.000243
1377	1.3691e+02	-14.8279	-76.186807	0.000436	4.357287	1.476289	-0.000174
1378	1.3701e+02	-14.8568	-76.416924	0.000578	5.775939	1.956941	-0.000231
1379	1.3711e+02	-14.8937	-76.582446	0.000415	4.154623	1.407624	-0.000166
1380	1.3721e+02	-14.9402	-76.873120	0.000730	7.295923	2.471925	-0.000292
1381	1.3731e+02	-14.9851	-76.965974	0.000233	2.330642	0.789643	-0.000093
1382	1.3741e+02	-15.0124	-77.212240	0.000618	6.181268	2.094270	-0.000248
1383	1.3751e+02	-15.0686	-77.393911	0.000456	4.559952	1.544953	-0.000183
1384	1.3761e+02	-15.0942	-77.640176	0.000618	6.181268	2.094270	-0.000248
1385	1.3771e+02	-15.1440	-77.837996	0.000497	4.965281	1.682283	-0.000199
1386	1.3781e+02	-15.1809	-78.023704	0.000466	4.661284	1.579286	-0.000187
1387	1.3791e+02	-15.2145	-78.269969	0.000618	6.181268	2.094270	-0.000248
1388	1.3801e+02	-15.2579	-78.443566	0.000436	4.357287	1.476289	-0.000174
1389	1.3811e+02	-15.3044	-78.580829	0.000345	3.445297	1.167298	-0.000138
1390	1.3821e+02	-15.3413	-78.827094	0.000618	6.181268	2.094270	-0.000248
1391	1.3831e+02	-15.3766	-79.061248	0.000588	5.877271	1.991273	-0.000235
1392	1.3840e+02	-15.4183	-79.275216	0.000537	5.370610	1.819612	-0.000215
1393	1.3850e+02	-15.4664	-79.440738	0.000415	4.154623	1.407624	-0.000166
1394	1.3860e+02	-15.5033	-79.634521	0.000486	4.863948	1.647950	-0.000195
1395	1.3870e+02	-15.5434	-79.864638	0.000578	5.775939	1.956941	-0.000231
1396	1.3880e+02	-15.5803	-80.046309	0.000456	4.559952	1.544953	-0.000183
1397	1.3890e+02	-15.6172	-80.264314	0.000547	5.471942	1.853944	-0.000219
1398	1.3900e+02	-15.6605	-80.433874	0.000426	4.255955	1.441957	-0.000170
1399	1.3910e+02	-15.6958	-80.680139	0.000618	6.181268	2.094270	-0.000248
1400	1.3920e+02	-15.7391	-80.886033	0.000517	5.167945	1.750947	-0.000207
1401	1.3930e+02	-15.7744	-81.079816	0.000486	4.863948	1.647950	-0.000195
1402	1.3940e+02	-15.8242	-81.297821	0.000547	5.471942	1.853944	-0.000219
1403	1.3950e+02	-15.8514	-81.507752	0.000527	5.269277	1.785280	-0.000211
1404	1.3960e+02	-15.9012	-81.685386	0.000446	4.458619	1.510621	-0.000179
1405	1.3970e+02	-15.9364	-81.915503	0.000578	5.775939	1.956941	-0.000231
1406	1.3980e+02	-15.9717	-82.173879	0.000649	6.485265	2.197267	-0.000260
1407	1.3990e+02	-16.0151	-82.331328	0.000395	3.951958	1.338960	-0.000158
1408	1.4000e+02	-16.0552	-82.569519	0.000598	5.978603	2.025606	-0.000239
1409	1.4010e+02	-16.0985	-82.747153	0.000446	4.458619	1.510621	-0.000179
1410	1.4020e+02	-16.1418	-82.973232	0.000567	5.674606	1.922609	-0.000227
1411	1.4029e+02	-16.1787	-83.187200	0.000537	5.370610	1.819612	-0.000215
1412	1.4039e+02	-16.2092	-83.417317	0.000578	5.775939	1.956941	-0.000231
1413	1.4049e+02	-16.2525	-83.598988	0.000456	4.559952	1.544953	-0.000183
1414	1.4059e+02	-16.2942	-83.877551	0.000699	6.991926	2.368929	-0.000280
1415	1.4069e+02	-16.3359	-84.063259	0.000466	4.661284	1.579286	-0.000187
1416	1.4079e+02	-16.3744	-84.273190	0.000527	5.269277	1.785280	-0.000211
1417	1.4089e+02	-16.4177	-84.507344	0.000588	5.877271	1.991273	-0.000235
1418	1.4099e+02	-16.4626	-84.721312	0.000537	5.370610	1.819612	-0.000215
1419	1.4109e+02	-16.5043	-84.947392	0.000567	5.674606	1.922609	-0.000227
1420	1.4119e+02	-16.5412	-85.177508	0.000578	5.775939	1.956941	-0.000231
1421	1.4129e+02	-16.5749	-85.419737	0.000608	6.079935	2.059938	-0.000243
1422	1.4139e+02	-16.6166	-85.625630	0.000517	5.167945	1.750947	-0.000207
1423	1.4149e+02	-16.6503	-85.859784	0.000588	5.877271	1.991273	-0.000235
1424	1.4159e+02	-16.6936	-86.085864	0.000567	5.674606	1.922609	-0.000227
1425	1.4169e+02	-16.7402	-86.336166	0.000628	6.282600	2.128603	-0.000252
1426	1.4179e+02	-16.7835	-86.525912	0.000476	4.762616	1.613618	-0.000191
1427	1.4189e+02	-16.8124	-86.788326	0.000659	6.586597	2.231599	-0.000264
1428	1.4199e+02	-16.8621	-86.998257	0.000527	5.269277	1.785280	-0.000211
1429	1.4209e+02	-16.8942	-87.224336	0.000567	5.674606	1.922609	-0.000227
1430	1.4219e+02	-16.9375	-87.498861	0.000689	6.890594	2.334596	-0.000276
1431	1.4228e+02	-16.9728	-87.712830	0.000537	5.370610	1.819612	-0.000215
1432	1.4238e+02	-17.0257	-87.971206	0.000649	6.485265	2.197267	-0.000260
1433	1.4248e+02	-17.0514	-88.205360	0.000588	5.877271	1.991273	-0.000235
1434	1.4258e+02	-17.0851	-88.475848	0.000679	6.789261	2.300264	-0.000272
1435	1.4268e+02	-17.1364	-88.685779	0.000527	5.269277	1.785280	-0.000211
1436	1.4278e+02	-17.1749	-88.928007	0.000608	6.079935	2.059938	-0.000243
1437	1.4288e+02	-17.2134	-89.194458	0.000669	6.687929	2.265932	-0.000268
1438	1.4298e+02	-17.2567	-89.384204	0.000476	4.762616	1.613618	-0.000191
1439	1.4308e+02	-17.2984	-89.686989	0.000760	7.599919	2.574922	-0.000304
1440	1.4318e+02	-17.3385	-89.925180	0.000598	5.978603	2.025606	-0.000239
1441	1.4328e+02	-17.3819	-90.175482	0.000628	6.282600	2.128603	-0.000252
1442	1.4338e+02	-17.4188	-90.441933	0.000669	6.687929	2.265932	-0.000268
1443	1.4348e+02	-17.4605	-90.700310	0.000649	6.485265	2.197267	-0.000260
1444	1.4358e+02	-17.4910	-90.946575	0.000618	6.181268	2.094270	-0.000248
1445	1.4368e+02	-17.5311	-91.204952	0.000649	6.485265	2.197267	-0.000260
1446	1.4378e+02	-17.5744	-91.463329	0.000649	6.485265	2.197267	-0.000260
1447	1.4388e+02	-17.6177	-91.737854	0.000689	6.890594	2.334596	-0.000276
1448	1.4398e+02	-17.6482	-91.976045	0.000598	5.978603	2.025606	-0.000239
1449	1.4408e+02	-17.7011	-92.250570	0.000689	6.890594	2.334596	-0.000276
1450	1.4418e+02	-17.7220	-92.484724	0.000588	5.877271	1.991273	-0.000235
1451	1.4428e+02	-17.7765	-92.767324	0.000709	7.093258	2.403261	-0.000284
1452	1.4437e+02	-17.8134	-93.033775	0.000669	6.687929	2.265932	-0.000268
1453	1.4447e+02	-17.8519	-93.304263	0.000679	6.789261	2.300264	-0.000272
1454	1.4457e+02	-17.8968	-93.558602	0.000638	6.383932	2.162935	-0.000256
1455	1.4467e+02	-17.9321	-93.816979	0.000649	6.485265	2.197267	-0.000260
1456	1.4477e+02	-17.9658	-94.115727	0.000750	7.498587	2.540590	-0.000300
1457	1.4487e+02	-18.0139	-94.357955	0.000608	6.079935	2.059938	-0.000243
1458	1.4497e+02	-18.0492	-94.628443	0.000679	6.789261	2.300264	-0.000272
1459	1.4507e+02	-18.0797	-94.874708	0.000618	6.181268	2.094270	-0.000248
1460	1.4517e+02	-18.1359	-95.145197	0.000679	6.789261	2.300264	-0.000272
1461	1.4527e+02	-18.1727	-95.488353	0.000861	8.613242	2.918245	-0.000345
1462	1.4537e+02	-18.2080	-95.674061	0.000466	4.661284	1.579286	-0.000187
1463	1.4547e+02	-18.2481	-95.936475	0.000659	6.586597	2.231599	-0.000264
1464	1.4557e+02	-18.2866	-96.243297	0.000770	7.701252	2.609255	-0.000308
1465	1.4567e+02	-18.3235	-96.493600	0.000628	6.282600	2.128603	-0.000252
1466	1.4577e+02	-18.3717	-96.780236	0.000719	7.194590	2.437593	-0.000288
1467	1.4587e+02	-18.4134	-97.070910	0.000730	7.295923	2.471925	-0.000292
1468	1.4597e+02	-18.4519	-97.341398	0.000679	6.789261	2.300264	-0.000272
1469	1.4607e+02	-18.4920	-97.640146	0.000750	7.498587	2.540590	-0.000300
1470	1.4617e+02	-18.5273	-97.894486	0.000638	6.383932	2.162935	-0.000256
1471	1.4626e+02	-18.5754	-98.209383	0.000790	7.903916	2.677919	-0.000316
1472	1.4636e+02	-18.6027	-98.471796	0.000659	6.586597	2.231599	-0.000264
1473	1.4646e+02	-18.6508	-98.730173	0.000649	6.485265	2.197267	-0.000260
1474	1.4656e+02	-18.7021	-99.036995	0.000770	7.701252	2.609255	-0.000308
1475	1.4666e+02	-18.7246	-99.295372	0.000649	6.485265	2.197267	-0.000260
1476	1.4676e+02	-18.7695	-99.610269	0.000790	7.903916	2.677919	-0.000316
1477	1.4686e+02	-18.8064	-99.913054	0.000760	7.599919	2.574922	-0.000304
1478	1.4696e+02	-18.8513	-100.163356	0.000628	6.282600	2.128603	-0.000252
1479	1.4706e+02	-18.8834	-100.478253	0.000790	7.903916	2.677919	-0.000316
1480	1.4716e+02	-18.9171	-100.801224	0.000811	8.106581	2.746584	-0.000325
1481	1.4726e+02	-18.9749	-101.079786	0.000699	6.991926	2.368929	-0.000280
1482	1.4736e+02	-19.0102	-101.342200	0.000659	6.586597	2.231599	-0.000264
1483	1.4746e+02	-19.0390	-101.665171	0.000811	8.106581	2.746584	-0.000325
1484	1.4756e+02	-19.0888	-101.939696	0.000689	6.890594	2.334596	-0.000276
1485	1.4766e+02	-19.1209	-102.258630	0.000801	8.005248	2.712252	-0.000321
1486	1.4776e+02	-19.1674	-102.545266	0.000719	7.194590	2.437593	-0.000288
1487	1.4786e+02	-19.2123	-102.872274	0.000821	8.207913	2.780916	-0.000329
1488	1.4796e+02	-19.2460	-103.102391	0.000578	5.775939	1.956941	-0.000231
1489	1.4806e+02	-19.2813	-103.441510	0.000851	8.511910	2.883913	-0.000341
1490	1.4816e+02	-19.3294	-103.744296	0.000760	7.599919	2.574922	-0.000304
1491	1.4825e+02	-19.3711	-104.047081	0.000760	7.599919	2.574922	-0.000304
1492	1.4835e+02	-19.4064	-104.386200	0.000851	8.511910	2.883913	-0.000341
1493	1.4845e+02	-19.4401	-104.672837	0.000719	7.194590	2.437593	-0.000288
1494	1.4855e+02	-19.4754	-104.943325	0.000679	6.789261	2.300264	-0.000272
1495	1.4865e+02	-19.5235	-105.262259	0.000801	8.005248	2.712252	-0.000321
1496	1.4875e+02	-19.5572	-105.605415	0.000861	8.613242	2.918245	-0.000345
1497	1.4885e+02	-19.6037	-105.867829	0.000659	6.586597	2.231599	-0.000264
1498	1.4895e+02	-19.6390	-106.215023	0.000871	8.714574	2.952578	-0.000349
1499	1.4905e+02	-19.6759	-106.517808	0.000760	7.599919	2.574922	-0.000304
1500	1.4915e+02	-19.7208	-106.828667	0.000780	7.802584	2.643587	-0.000312
1501	1.4925e+02	-19.7674	-107.192010	0.000912	9.119903	3.089907	-0.000365
1502	1.4935e+02	-19.8075	-107.466535	0.000689	6.890594	2.334596	-0.000276
1503	1.4945e+02	-19.8331	-107.781431	0.000790	7.903916	2.677919	-0.000316
1504	1.4955e+02	-19.8877	-108.100365	0.000801	8.005248	2.712252	-0.000321
1505	1.4965e+02	-19.9262	-108.419299	0.000801	8.005248	2.712252	-0.000321
1506	1.4975e+02	-19.9599	-108.746307	0.000821	8.207913	2.780916	-0.000329
1507	1.4985e+02	-20.0064	-109.101575	0.000892	8.917239	3.021242	-0.000357
1508	1.4995e+02	-19.9663	-109.101575	0.000000	0.000000	0.000000	0.000000
1509	1.5005e+02	-19.9214	-109.129835	-0.000071	-0.709326	-0.240326	-0.000028
1510	1.5015e+02	-19.8797	-109.101575	0.000071	0.709326	0.240326	0.000028
1511	1.5025e+02	-19.8492	-109.101575	0.000000	0.000000	0.000000	0.000000
1512	1.5034e+02	-19.8026	-109.089463	0.000030	0.303997	0.102997	0.000012
1513	1.5044e+02	-19.7641	-109.012758	0.000193	1.925313	0.652314	0.000077
1514	1.5054e+02	-19.7273	-108.968349	0.000111	1.114655	0.377655	0.000045
1515	1.5064e+02	-19.6823	-108.944126	0.000061	0.607994	0.205994	0.000024
1516	1.5074e+02	-19.6454	-108.883569	0.000152	1.519984	0.514984	0.000061
1517	1.5084e+02	-19.6085	-108.827050	0.000142	1.418652	0.480652	0.000057
1518	1.5094e+02	-19.5684	-108.746307	0.000203	2.026645	0.686646	0.000081
1519	1.5104e+02	-19.5171	-108.673638	0.000182	1.823981	0.617981	0.000073
1520	1.5114e+02	-19.4770	-108.600970	0.000182	1.823981	0.617981	0.000073
1521	1.5124e+02	-19.4401	-108.491967	0.000274	2.735971	0.926972	0.000110
1522	1.5134e+02	-19.4048	-108.463707	0.000071	0.709326	0.240326	0.000028
1523	1.5144e+02	-19.3679	-108.326445	0.000345	3.445297	1.167298	0.000138
1524	1.5154e+02	-19.3262	-108.253776	0.000182	1.823981	0.617981	0.000073
1525	1.5164e+02	-19.2861	-108.181108	0.000182	1.823981	0.617981	0.000073
1526	1.5174e+02	-19.2556	-108.076142	0.000263	2.634639	0.892640	0.000105
1527	1.5184e+02	-19.2059	-108.015585	0.000152	1.519984	0.514984	0.000061
1528	1.5194e+02	-19.1722	-107.878323	0.000345	3.445297	1.167298	0.000138
1529	1.5204e+02	-19.1257	-107.749134	0.000324	3.242632	1.098634	0.000130
1530	1.5214e+02	-19.0807	-107.660317	0.000223	2.229310	0.755311	0.000089
1531	1.5224e+02	-19.0503	-107.555352	0.000263	2.634639	0.892640	0.000105
1532	1.5233e+02	-19.0134	-107.474609	0.000203	2.026645	0.686646	0.000081
1533	1.5243e+02	-18.9636	-107.349458	0.000314	3.141300	1.064301	0.000126
1534	1.5253e+02	-18.9380	-107.252567	0.000243	2.431974	0.823975	0.000097
1535	1.5263e+02	-18.8898	-107.131453	0.000304	3.039968	1.029969	0.000122
1536	1.5273e+02	-18.8497	-107.026487	0.000263	2.634639	0.892640	0.000105
1537	1.5283e+02	-18.8032	-106.844816	0.000456	4.559952	1.544953	0.000183
1538	1.5293e+02	-18.7663	-106.768110	0.000193	1.925313	0.652314	0.000077
1539	1.5303e+02	-18.7326	-106.691405	0.000193	1.925313	0.652314	0.000077
1540	1.5313e+02	-18.6861	-106.570291	0.000304	3.039968	1.029969	0.000122
1541	1.5323e+02	-18.6444	-106.420917	0.000375	3.749294	1.270295	0.000150
1542	1.5333e+02	-18.6043	-106.348248	0.000182	1.823981	0.617981	0.000073
1543	1.5343e+02	-18.5754	-106.182726	0.000415	4.154623	1.407624	0.000166
1544	1.5353e+02	-18.5337	-106.089871	0.000233	2.330642	0.789643	0.000093
1545	1.5363e+02	-18.4840	-105.972795	0.000294	2.938635	0.995637	0.000118
1546	1.5373e+02	-18.4423	-105.823421	0.000375	3.749294	1.270295	0.000150
1547	1.5383e+02	-18.4118	-105.678084	0.000365	3.647961	1.235963	0.000146
1548	1.5393e+02	-18.3685	-105.589267	0.000223	2.229310	0.755311	0.000089
1549	1.5403e+02	-18.3300	-105.484301	0.000263	2.634639	0.892640	0.000105
1550	1.5413e+02	-18.2931	-105.375298	0.000274	2.735971	0.926972	0.000110
1551	1.5422e+02	-18.2546	-105.278407	0.000243	2.431974	0.823975	0.000097
1552	1.5432e+02	-18.2129	-105.124996	0.000385	3.850626	1.304627	0.000154
1553	1.5442e+02	-18.1631	-105.007919	0.000294	2.938635	0.995637	0.000118
1554	1.5452e+02	-18.1294	-104.862582	0.000365	3.647961	1.235963	0.000146
1555	1.5462e+02	-18.0861	-104.709171	0.000385	3.850626	1.304627	0.000154
1556	1.5472e+02	-18.0428	-104.612280	0.000243	2.431974	0.823975	0.000097
1557	1.5482e+02	-18.0187	-104.503277	0.000274	2.735971	0.926972	0.000110
1558	1.5492e+02	-17.9706	-104.329680	0.000436	4.357287	1.476289	0.000174
1559	1.5502e+02	-17.9353	-104.228752	0.000253	2.533306	0.858307	0.000101
1560	1.5512e+02	-17.8904	-104.087452	0.000355	3.546629	1.201630	0.000142
1561	1.5522e+02	-17.8567	-103.978450	0.000274	2.735971	0.926972	0.000110
1562	1.5532e+02	-17.8102	-103.784667	0.000486	4.863948	1.647950	0.000195
1563	1.5542e+02	-17.7621	-103.703924	0.000203	2.026645	0.686646	0.000081
1564	1.5552e+02	-17.7316	-103.546476	0.000395	3.951958	1.338960	0.000158
1565	1.5562e+02	-17.6867	-103.421325	0.000314	3.141300	1.064301	0.000126
1566	1.5572e+02	-17.6530	-103.308285	0.000284	2.837303	0.961304	0.000114
1567	1.5582e+02	-17.6113	-103.138725	0.000426	4.255955	1.441957	0.000170
1568	1.5592e+02	-17.5647	-103.029723	0.000274	2.735971	0.926972	0.000110
1569	1.5602e+02	-17.5311	-102.896497	0.000334	3.343965	1.132966	0.000134
1570	1.5612e+02	-17.4942	-102.739049	0.000395	3.951958	1.338960	0.000158
1571	1.5622e+02	-17.4541	-102.638120	0.000253	2.533306	0.858307	0.000101
1572	1.5631e+02	-17.4204	-102.496821	0.000355	3.546629	1.201630	0.000142
1573	1.5641e+02	-17.3738	-102.343410	0.000385	3.850626	1.304627	0.000154
1574	1.5651e+02	-17.3434	-102.198073	0.000365	3.647961	1.235963	0.000146
1575	1.5661e+02	-17.3000	-102.085033	0.000284	2.837303	0.961304	0.000114
1576	1.5671e+02	-17.2567	-101.955844	0.000324	3.242632	1.098634	0.000130
1577	1.5681e+02	-17.2150	-101.782248	0.000436	4.357287	1.476289	0.000174
1578	1.5691e+02	-17.1749	-101.697468	0.000213	2.127977	0.720978	0.000085
1579	1.5701e+02	-17.1332	-101.531945	0.000415	4.154623	1.407624	0.000166
1580	1.5711e+02	-17.0947	-101.402757	0.000324	3.242632	1.098634	0.000130
1581	1.5721e+02	-17.0578	-101.229160	0.000436	4.357287	1.476289	0.000174
1582	1.5731e+02	-17.0129	-101.128232	0.000253	2.533306	0.858307	0.000101
1583	1.5741e+02	-16.9744	-100.970783	0.000395	3.951958	1.338960	0.000158
1584	1.5751e+02	-16.9343	-100.833521	0.000345	3.445297	1.167298	0.000138
1585	1.5761e+02	-16.8958	-100.696258	0.000345	3.445297	1.167298	0.000138
1586	1.5771e+02	-16.8621	-100.579181	0.000294	2.938635	0.995637	0.000118
1587	1.5781e+02	-16.8236	-100.458067	0.000304	3.039968	1.029969	0.000122
1588	1.5791e+02	-16.7723	-100.288507	0.000426	4.255955	1.441957	0.000170
1589	1.5801e+02	-16.7418	-100.159319	0.000324	3.242632	1.098634	0.000130
1590	1.5811e+02	-16.6920	-99.969574	0.000476	4.762616	1.613618	0.000191
1591	1.5821e+02	-16.6632	-99.808088	0.000405	4.053290	1.373292	0.000162
1592	1.5830e+02	-16.6134	-99.711197	0.000243	2.431974	0.823975	0.000097
1593	1.5840e+02	-16.5749	-99.549712	0.000405	4.053290	1.373292	0.000162
1594	1.5850e+02	-16.5332	-99.428598	0.000304	3.039968	1.029969	0.000122
1595	1.5860e+02	-16.5060	-99.267112	0.000405	4.053290	1.373292	0.000162
1596	1.5870e+02	-16.4530	-99.113701	0.000385	3.850626	1.304627	0.000154
1597	1.5880e+02	-16.4161	-99.004698	0.000274	2.735971	0.926972	0.000110
1598	1.5890e+02	-16.3824	-98.855324	0.000375	3.749294	1.270295	0.000150
1599	1.5900e+02	-16.3343	-98.681727	0.000436	4.357287	1.476289	0.000174
1600	1.5910e+02	-16.2878	-98.548502	0.000334	3.343965	1.132966	0.000134
1601	1.5920e+02	-16.2669	-98.423351	0.000314	3.141300	1.064301	0.000126
1602	1.5930e+02	-16.2156	-98.273977	0.000375	3.749294	1.270295	0.000150
1603	1.5940e+02	-16.1803	-98.116528	0.000395	3.951958	1.338960	0.000158
1604	1.5950e+02	-16.1386	-97.963117	0.000385	3.850626	1.304627	0.000154
1605	1.5960e+02	-16.1049	-97.821818	0.000355	3.546629	1.201630	0.000142
1606	1.5970e+02	-16.0616	-97.632072	0.000476	4.762616	1.613618	0.000191
1607	1.5980e+02	-16.0247	-97.563441	0.000172	1.722648	0.583649	0.000069
1608	1.5990e+02	-15.9621	-97.381770	0.000456	4.559952	1.544953	0.000183
1609	1.6000e+02	-15.9381	-97.224321	0.000395	3.951958	1.338960	0.000158
1610	1.6010e+02	-15.8979	-97.091096	0.000334	3.343965	1.132966	0.000134
1611	1.6019e+02	-15.8562	-96.929611	0.000405	4.053290	1.373292	0.000162
1612	1.6029e+02	-15.8145	-96.788311	0.000355	3.546629	1.201630	0.000142
1613	1.6039e+02	-15.7760	-96.667197	0.000304	3.039968	1.029969	0.000122
1614	1.6049e+02	-15.7488	-96.457266	0.000527	5.269277	1.785280	0.000211
1615	1.6059e+02	-15.7038	-96.372486	0.000213	2.127977	0.720978	0.000085
1616	1.6069e+02	-15.6605	-96.247335	0.000314	3.141300	1.064301	0.000126
1617	1.6079e+02	-15.6188	-96.037404	0.000527	5.269277	1.785280	0.000211
1618	1.6089e+02	-15.5707	-95.940512	0.000243	2.431974	0.823975	0.000097
1619	1.6099e+02	-15.5354	-95.754804	0.000466	4.661284	1.579286	0.000187
1620	1.6109e+02	-15.4985	-95.617541	0.000345	3.445297	1.167298	0.000138
1621	1.6119e+02	-15.4648	-95.484316	0.000334	3.343965	1.132966	0.000134
1622	1.6129e+02	-15.4247	-95.294571	0.000476	4.762616	1.613618	0.000191
1623	1.6139e+02	-15.3846	-95.169419	0.000314	3.141300	1.064301	0.000126
1624	1.6149e+02	-15.3300	-94.979674	0.000476	4.762616	1.613618	0.000191
1625	1.6159e+02	-15.3060	-94.842411	0.000345	3.445297	1.167298	0.000138
1626	1.6169e+02	-15.2579	-94.656703	0.000466	4.661284	1.579286	0.000187
1627	1.6179e+02	-15.2226	-94.547700	0.000274	2.735971	0.926972	0.000110
1628	1.6189e+02	-15.1825	-94.390252	0.000395	3.951958	1.338960	0.000158
1629	1.6199e+02	-15.1488	-94.176284	0.000537	5.370610	1.819612	0.000215
1630	1.6209e+02	-15.1022	-94.039021	0.000345	3.445297	1.167298	0.000138
1631	1.6219e+02	-15.0621	-93.857350	0.000456	4.559952	1.544953	0.000183
1632	1.6228e+02	-15.0124	-93.764496	0.000233	2.330642	0.789643	0.000093
1633	1.6238e+02	-14.9851	-93.570714	0.000486	4.863948	1.647950	0.000195
1634	1.6248e+02	-14.9482	-93.445562	0.000314	3.141300	1.064301	0.000126
1635	1.6258e+02	-14.9001	-93.276003	0.000426	4.255955	1.441957	0.000170
1636	1.6268e+02	-14.8664	-93.078183	0.000497	4.965281	1.682283	0.000199
1637	1.6278e+02	-14.8231	-92.973217	0.000263	2.634639	0.892640	0.000105
1638	1.6288e+02	-14.7702	-92.807695	0.000415	4.154623	1.407624	0.000166
1639	1.6298e+02	-14.7365	-92.621987	0.000466	4.661284	1.579286	0.000187
1640	1.6308e+02	-14.7012	-92.500873	0.000304	3.039968	1.029969	0.000122
1641	1.6318e+02	-14.6675	-92.311127	0.000476	4.762616	1.613618	0.000191
1642	1.6328e+02	-14.6210	-92.157716	0.000385	3.850626	1.304627	0.000154
1643	1.6338e+02	-14.5777	-92.020453	0.000345	3.445297	1.167298	0.000138
1644	1.6348e+02	-14.5343	-91.899339	0.000304	3.039968	1.029969	0.000122
1645	1.6358e+02	-14.5055	-91.705557	0.000486	4.863948	1.647950	0.000195
1646	1.6368e+02	-14.4573	-91.523886	0.000456	4.559952	1.544953	0.000183
1647	1.6378e+02	-14.4237	-91.346252	0.000446	4.458619	1.510621	0.000179
1648	1.6388e+02	-14.3916	-91.221101	0.000314	3.141300	1.064301	0.000126
1649	1.6398e+02	-14.3386	-91.063652	0.000395	3.951958	1.338960	0.000158
1650	1.6408e+02	-14.3098	-90.877944	0.000466	4.661284	1.579286	0.000187
1651	1.6418e+02	-14.2600	-90.700310	0.000446	4.458619	1.510621	0.000179
1652	1.6427e+02	-14.2167	-90.575159	0.000314	3.141300	1.064301	0.000126
1653	1.6437e+02	-14.1878	-90.429822	0.000365	3.647961	1.235963	0.000146
1654	1.6447e+02	-14.1509	-90.248151	0.000456	4.559952	1.544953	0.000183
1655	1.6457e+02	-14.1108	-90.118963	0.000324	3.242632	1.098634	0.000130
1656	1.6467e+02	-14.0627	-89.925180	0.000486	4.863948	1.647950	0.000195
1657	1.6477e+02	-14.0194	-89.791955	0.000334	3.343965	1.132966	0.000134
1658	1.6487e+02	-13.9873	-89.610283	0.000456	4.559952	1.544953	0.000183
1659	1.6497e+02	-13.9488	-89.460909	0.000375	3.749294	1.270295	0.000150
1660	1.6507e+02	-13.9007	-89.259053	0.000507	5.066613	1.716615	0.000203
1661	1.6517e+02	-13.8606	-89.097567	0.000405	4.053290	1.373292	0.000162
1662	1.6527e+02	-13.8317	-88.956267	0.000355	3.546629	1.201630	0.000142
1663	1.6537e+02	-13.7916	-88.810931	0.000365	3.647961	1.235963	0.000146
1664	1.6547e+02	-13.7547	-88.629259	0.000456	4.559952	1.544953	0.000183
1665	1.6557e+02	-13.7018	-88.455663	0.000436	4.357287	1.476289	0.000174
1666	1.6567e+02	-13.6745	-88.306289	0.000375	3.749294	1.270295	0.000150
1667	1.6577e+02	-13.6280	-88.136729	0.000426	4.255955	1.441957	0.000170
1668	1.6587e+02	-13.5927	-87.975243	0.000405	4.053290	1.373292	0.000162
1669	1.6597e+02	-13.5526	-87.833944	0.000355	3.546629	1.201630	0.000142
1670	1.6607e+02	-13.5125	-87.611901	0.000557	5.573274	1.888276	0.000223
1671	1.6616e+02	-13.4772	-87.470601	0.000355	3.546629	1.201630	0.000142
1672	1.6626e+02	-13.4162	-87.353525	0.000294	2.938635	0.995637	0.000118
1673	1.6636e+02	-13.3873	-87.151668	0.000507	5.066613	1.716615	0.000203
1674	1.6646e+02	-13.3456	-86.986145	0.000415	4.154623	1.407624	0.000166
1675	1.6656e+02	-13.3039	-86.820623	0.000415	4.154623	1.407624	0.000166
1676	1.6666e+02	-13.2734	-86.655100	0.000415	4.154623	1.407624	0.000166
1677	1.6676e+02	-13.2269	-86.453243	0.000507	5.066613	1.716615	0.000203
1678	1.6686e+02	-13.1868	-86.307906	0.000365	3.647961	1.235963	0.000146
1679	1.6696e+02	-13.1531	-86.142384	0.000415	4.154623	1.407624	0.000166
1680	1.6706e+02	-13.1082	-85.988973	0.000385	3.850626	1.304627	0.000154
1681	1.6716e+02	-13.0665	-85.803264	0.000466	4.661284	1.579286	0.000187
1682	1.6726e+02	-13.0376	-85.686187	0.000294	2.938635	0.995637	0.000118
1683	1.6736e+02	-12.9895	-85.464145	0.000557	5.573274	1.888276	0.000223
1684	1.6746e+02	-12.9542	-85.294585	0.000426	4.255955	1.441957	0.000170
1685	1.6756e+02	-12.9077	-85.157323	0.000345	3.445297	1.167298	0.000138
1686	1.6766e+02	-12.8611	-84.991800	0.000415	4.154623	1.407624	0.000166
1687	1.6776e+02	-12.8339	-84.777832	0.000537	5.370610	1.819612	0.000215
1688	1.6786e+02	-12.7954	-84.640569	0.000345	3.445297	1.167298	0.000138
1689	1.6796e+02	-12.7617	-84.442750	0.000497	4.965281	1.682283	0.000199
1690	1.6806e+02	-12.7023	-84.293376	0.000375	3.749294	1.270295	0.000150
1691	1.6816e+02	-12.6734	-84.107667	0.000466	4.661284	1.579286	0.000187
1692	1.6825e+02	-12.6301	-83.946182	0.000405	4.053290	1.373292	0.000162
1693	1.6835e+02	-12.5964	-83.792771	0.000385	3.850626	1.304627	0.000154
1694	1.6845e+02	-12.5531	-83.582840	0.000527	5.269277	1.785280	0.000211
1695	1.6855e+02	-12.5194	-83.449614	0.000334	3.343965	1.132966	0.000134
1696	1.6865e+02	-12.4761	-83.296203	0.000385	3.850626	1.304627	0.000154
1697	1.6875e+02	-12.4312	-83.114532	0.000456	4.559952	1.544953	0.000183
1698	1.6885e+02	-12.3927	-82.896527	0.000547	5.471942	1.853944	0.000219
1699	1.6895e+02	-12.3574	-82.755227	0.000355	3.546629	1.201630	0.000142
1700	1.6905e+02	-12.3109	-82.569519	0.000466	4.661284	1.579286	0.000187
1701	1.6915e+02	-12.2804	-82.408033	0.000405	4.053290	1.373292	0.000162
1702	1.6925e+02	-12.2387	-82.242511	0.000415	4.154623	1.407624	0.000166
1703	1.6935e+02	-12.1938	-82.020468	0.000557	5.573274	1.888276	0.000223
1704	1.6945e+02	-12.1489	-81.883206	0.000345	3.445297	1.167298	0.000138
1705	1.6955e+02	-12.1184	-81.685386	0.000497	4.965281	1.682283	0.000199
1706	1.6965e+02	-12.0735	-81.536012	0.000375	3.749294	1.270295	0.000150
1707	1.6975e+02	-12.0334	-81.358378	0.000446	4.458619	1.510621	0.000179
1708	1.6985e+02	-12.0013	-81.160558	0.000497	4.965281	1.682283	0.000199
1709	1.6995e+02	-11.9628	-81.019259	0.000355	3.546629	1.201630	0.000142
1710	1.7005e+02	-11.9178	-80.849699	0.000426	4.255955	1.441957	0.000170
1711	1.7015e+02	-11.8793	-80.655916	0.000486	4.863948	1.647950	0.000195
1712	1.7024e+02	-11.8216	-80.474245	0.000456	4.559952	1.544953	0.000183
1713	1.7034e+02	-11.7879	-80.336983	0.000345	3.445297	1.167298	0.000138
1714	1.7044e+02	-11.7526	-80.127052	0.000527	5.269277	1.785280	0.000211
1715	1.7054e+02	-11.7141	-80.005937	0.000304	3.039968	1.029969	0.000122
1716	1.7064e+02	-11.6804	-79.824266	0.000456	4.559952	1.544953	0.000183
1717	1.7074e+02	-11.6355	-79.618372	0.000517	5.167945	1.750947	0.000207
1718	1.7084e+02	-11.6002	-79.436701	0.000456	4.559952	1.544953	0.000183
1719	1.7094e+02	-11.5649	-79.303476	0.000334	3.343965	1.132966	0.000134
1720	1.7104e+02	-11.5168	-79.085471	0.000547	5.471942	1.853944	0.000219
1721	1.7114e+02	-11.4783	-78.919948	0.000415	4.154623	1.407624	0.000166
1722	1.7124e+02	-11.4478	-78.746351	0.000436	4.357287	1.476289	0.000174
1723	1.7134e+02	-11.4013	-78.588903	0.000395	3.951958	1.338960	0.000158
1724	1.7144e+02	-11.3644	-78.383009	0.000517	5.167945	1.750947	0.000207
1725	1.7154e+02	-11.3243	-78.249783	0.000334	3.343965	1.132966	0.000134
1726	1.7164e+02	-11.2842	-78.072149	0.000446	4.458619	1.510621	0.000179
1727	1.7174e+02	-11.2377	-77.898553	0.000436	4.357287	1.476289	0.000174
1728	1.7184e+02	-11.1991	-77.700733	0.000497	4.965281	1.682283	0.000199
1729	1.7194e+02	-11.1542	-77.510988	0.000476	4.762616	1.613618	0.000191
1730	1.7204e+02	-11.1157	-77.329316	0.000456	4.559952	1.544953	0.000183
1731	1.7213e+02	-11.0756	-77.135534	0.000486	4.863948	1.647950	0.000195
1732	1.7223e+02	-11.0371	-76.945789	0.000476	4.762616	1.613618	0.000191
1733	1.7233e+02	-10.9954	-76.788340	0.000395	3.951958	1.338960	0.000158
1734	1.7243e+02	-10.9569	-76.638966	0.000375	3.749294	1.270295	0.000150
1735	1.7253e+02	-10.9136	-76.429035	0.000527	5.269277	1.785280	0.000211
1736	1.7263e+02	-10.8783	-76.263513	0.000415	4.154623	1.407624	0.000166
1737	1.7273e+02	-10.8446	-76.069730	0.000486	4.863948	1.647950	0.000195
1738	1.7283e+02	-10.8045	-75.879985	0.000476	4.762616	1.613618	0.000191
1739	1.7293e+02	-10.7612	-75.706388	0.000436	4.357287	1.476289	0.000174
1740	1.7303e+02	-10.7131	-75.520680	0.000466	4.661284	1.579286	0.000187
1741	1.7313e+02	-10.6826	-75.302674	0.000547	5.471942	1.853944	0.000219
1742	1.7323e+02	-10.6361	-75.153300	0.000375	3.749294	1.270295	0.000150
1743	1.7333e+02	-10.5944	-74.967592	0.000466	4.661284	1.579286	0.000187
1744	1.7343e+02	-10.5607	-74.802070	0.000415	4.154623	1.407624	0.000166
1745	1.7353e+02	-10.5254	-74.608287	0.000486	4.863948	1.647950	0.000195
1746	1.7363e+02	-10.4756	-74.426616	0.000456	4.559952	1.544953	0.000183
1747	1.7373e+02	-10.4355	-74.232833	0.000486	4.863948	1.647950	0.000195
1748	1.7383e+02	-10.4002	-74.047125	0.000466	4.661284	1.579286	0.000187
1749	1.7393e+02	-10.3649	-73.893714	0.000385	3.850626	1.304627	0.000154
1750	1.7403e+02	-10.3248	-73.667634	0.000567	5.674606	1.922609	0.000227
1751	1.7413e+02	-10.2799	-73.481926	0.000466	4.661284	1.579286	0.000187
1752	1.7422e+02	-10.2350	-73.328515	0.000385	3.850626	1.304627	0.000154
1753	1.7432e+02	-10.1997	-73.150881	0.000446	4.458619	1.510621	0.000179
1754	1.7442e+02	-10.1660	-72.981321	0.000426	4.255955	1.441957	0.000170
1755	1.7452e+02	-10.1179	-72.799650	0.000456	4.559952	1.544953	0.000183
1756	1.7462e+02	-10.0922	-72.577608	0.000557	5.573274	1.888276	0.000223
1757	1.7472e+02	-10.0345	-72.379788	0.000497	4.965281	1.682283	0.000199
1758	1.7482e+02	-9.9976	-72.214266	0.000415	4.154623	1.407624	0.000166
1759	1.7492e+02	-9.9639	-72.064891	0.000375	3.749294	1.270295	0.000150
1760	1.7502e+02	-9.9254	-71.822663	0.000608	6.079935	2.059938	0.000243
1761	1.7512e+02	-9.8869	-71.665215	0.000395	3.951958	1.338960	0.000158
1762	1.7522e+02	-9.8452	-71.491618	0.000436	4.357287	1.476289	0.000174
1763	1.7532e+02	-9.7970	-71.326096	0.000415	4.154623	1.407624	0.000166
1764	1.7542e+02	-9.7634	-71.104053	0.000557	5.573274	1.888276	0.000223
1765	1.7552e+02	-9.7217	-70.934493	0.000426	4.255955	1.441957	0.000170
1766	1.7562e+02	-9.6864	-70.744748	0.000476	4.762616	1.613618	0.000191
1767	1.7572e+02	-9.6430	-70.567114	0.000446	4.458619	1.510621	0.000179
1768	1.7582e+02	-9.6078	-70.341035	0.000567	5.674606	1.922609	0.000227
1769	1.7592e+02	-9.5612	-70.127066	0.000537	5.370610	1.819612	0.000215
1770	1.7602e+02	-9.5147	-69.953470	0.000436	4.357287	1.476289	0.000174
1771	1.7612e+02	-9.4858	-69.779873	0.000436	4.357287	1.476289	0.000174
1772	1.7621e+02	-9.4361	-69.594164	0.000466	4.661284	1.579286	0.000187
1773	1.7631e+02	-9.4104	-69.396345	0.000497	4.965281	1.682283	0.000199
1774	1.7641e+02	-9.3735	-69.174302	0.000557	5.573274	1.888276	0.000223
1775	1.7651e+02	-9.3270	-69.037040	0.000345	3.445297	1.167298	0.000138
1776	1.7661e+02	-9.2805	-68.863443	0.000436	4.357287	1.476289	0.000174
1777	1.7671e+02	-9.2468	-68.645438	0.000547	5.471942	1.853944	0.000219
1778	1.7681e+02	-9.2035	-68.471841	0.000436	4.357287	1.476289	0.000174
1779	1.7691e+02	-9.1602	-68.286132	0.000466	4.661284	1.579286	0.000187
1780	1.7701e+02	-9.1233	-68.088313	0.000497	4.965281	1.682283	0.000199
1781	1.7711e+02	-9.0880	-67.878382	0.000527	5.269277	1.785280	0.000211
1782	1.7721e+02	-9.0399	-67.688636	0.000476	4.762616	1.613618	0.000191
1783	1.7731e+02	-9.0062	-67.494854	0.000486	4.863948	1.647950	0.000195
1784	1.7741e+02	-8.9693	-67.341443	0.000385	3.850626	1.304627	0.000154
1785	1.7751e+02	-8.9243	-67.115363	0.000567	5.674606	1.922609	0.000227
1786	1.7761e+02	-8.8858	-66.970026	0.000365	3.647961	1.235963	0.000146
1787	1.7771e+02	-8.8570	-66.699538	0.000679	6.789261	2.300264	0.000272
1788	1.7781e+02	-8.8024	-66.525941	0.000436	4.357287	1.476289	0.000174
1789	1.7791e+02	-8.7671	-66.332159	0.000486	4.863948	1.647950	0.000195
1790	1.7801e+02	-8.7286	-66.150488	0.000456	4.559952	1.544953	0.000183
1791	1.7810e+02	-8.6821	-65.976891	0.000436	4.357287	1.476289	0.000174
1792	1.7820e+02	-8.6404	-65.758885	0.000547	5.471942	1.853944	0.000219
1793	1.7830e+02	-8.6131	-65.569140	0.000476	4.762616	1.613618	0.000191
1794	1.7840e+02	-8.5698	-65.367283	0.000507	5.066613	1.716615	0.000203
1795	1.7850e+02	-8.5297	-65.197724	0.000426	4.255955	1.441957	0.000170
1796	1.7860e+02	-8.4864	-64.963570	0.000588	5.877271	1.991273	0.000235
1797	1.7870e+02	-8.4383	-64.785936	0.000446	4.458619	1.510621	0.000179
1798	1.7880e+02	-8.4110	-64.576005	0.000527	5.269277	1.785280	0.000211
1799	1.7890e+02	-8.3677	-64.414519	0.000405	4.053290	1.373292	0.000162
1800	1.7900e+02	-8.3260	-64.248997	0.000415	4.154623	1.407624	0.000166
1801	1.7910e+02	-8.2891	-63.970434	0.000699	6.991926	2.368929	0.000280
1802	1.7920e+02	-8.2425	-63.784726	0.000466	4.661284	1.579286	0.000187
1803	1.7930e+02	-8.2073	-63.586906	0.000497	4.965281	1.682283	0.000199
1804	1.7940e+02	-8.1655	-63.401198	0.000466	4.661284	1.579286	0.000187
1805	1.7950e+02	-8.1270	-63.179156	0.000557	5.573274	1.888276	0.000223
1806	1.7960e+02	-8.0934	-63.013633	0.000415	4.154623	1.407624	0.000166
1807	1.7970e+02	-8.0500	-62.803702	0.000527	5.269277	1.785280	0.000211
1808	1.7980e+02	-8.0083	-62.634142	0.000426	4.255955	1.441957	0.000170
1809	1.7990e+02	-7.9682	-62.420174	0.000537	5.370610	1.819612	0.000215
1810	1.8000e+02	-7.9265	-62.222355	0.000497	4.965281	1.682283	0.000199
1811	1.8009e+02	-7.8880	-62.008386	0.000537	5.370610	1.819612	0.000215
1812	1.8019e+02	-7.8527	-61.786344	0.000557	5.573274	1.888276	0.000223
1813	1.8029e+02	-7.8126	-61.624858	0.000405	4.053290	1.373292	0.000162
1814	1.8039e+02	-7.7757	-61.406853	0.000547	5.471942	1.853944	0.000219
1815	1.8049e+02	-7.7324	-61.221145	0.000466	4.661284	1.579286	0.000187
1816	1.8059e+02	-7.6939	-61.007177	0.000537	5.370610	1.819612	0.000215
1817	1.8069e+02	-7.6490	-60.817431	0.000476	4.762616	1.613618	0.000191
1818	1.8079e+02	-7.6121	-60.615575	0.000507	5.066613	1.716615	0.000203
1819	1.8089e+02	-7.5704	-60.397569	0.000547	5.471942	1.853944	0.000219
1820	1.8099e+02	-7.5335	-60.215898	0.000456	4.559952	1.544953	0.000183
1821	1.8109e+02	-7.4886	-60.042301	0.000436	4.357287	1.476289	0.000174
1822	1.8119e+02	-7.4517	-59.812185	0.000578	5.775939	1.956941	0.000231
1823	1.8129e+02	-7.4083	-59.610328	0.000507	5.066613	1.716615	0.000203
1824	1.8139e+02	-7.3731	-59.400397	0.000527	5.269277	1.785280	0.000211
1825	1.8149e+02	-7.3297	-59.186428	0.000537	5.370610	1.819612	0.000215
1826	1.8159e+02	-7.2993	-59.020906	0.000415	4.154623	1.407624	0.000166
1827	1.8169e+02	-7.2592	-58.782715	0.000598	5.978603	2.025606	0.000239
1828	1.8179e+02	-7.2158	-58.556635	0.000567	5.674606	1.922609	0.000227
1829	1.8189e+02	-7.1757	-58.411298	0.000365	3.647961	1.235963	0.000146
1830	1.8199e+02	-7.1356	-58.189256	0.000557	5.573274	1.888276	0.000223
1831	1.8209e+02	-7.0923	-57.975288	0.000537	5.370610	1.819612	0.000215
1832	1.8218e+02	-7.0522	-57.785542	0.000476	4.762616	1.613618	0.000191
1833	1.8228e+02	-7.0057	-57.486794	0.000750	7.498587	2.540590	0.000300
1834	1.8238e+02	-6.9800	-57.361643	0.000314	3.141300	1.064301	0.000126
1835	1.8248e+02	-6.9303	-57.131526	0.000578	5.775939	1.956941	0.000231
1836	1.8258e+02	-6.8918	-56.957930	0.000436	4.357287	1.476289	0.000174
1837	1.8268e+02	-6.8549	-56.719739	0.000598	5.978603	2.025606	0.000239
1838	1.8278e+02	-6.8132	-56.525956	0.000486	4.863948	1.647950	0.000195
1839	1.8288e+02	-6.7731	-56.311988	0.000537	5.370610	1.819612	0.000215
1840	1.8298e+02	-6.7346	-56.134354	0.000446	4.458619	1.510621	0.000179
1841	1.8308e+02	-6.6961	-55.900200	0.000588	5.877271	1.991273	0.000235
1842	1.8318e+02	-6.6528	-55.690269	0.000527	5.269277	1.785280	0.000211
1843	1.8328e+02	-6.6143	-55.540895	0.000375	3.749294	1.270295	0.000150
1844	1.8338e+02	-6.5838	-55.298667	0.000608	6.079935	2.059938	0.000243
1845	1.8348e+02	-6.5324	-55.084699	0.000537	5.370610	1.819612	0.000215
1846	1.8358e+02	-6.4907	-54.878805	0.000517	5.167945	1.750947	0.000207
1847	1.8368e+02	-6.4474	-54.664836	0.000537	5.370610	1.819612	0.000215
1848	1.8378e+02	-6.4169	-54.515462	0.000375	3.749294	1.270295	0.000150
1849	1.8388e+02	-6.3736	-54.261123	0.000638	6.383932	2.162935	0.000256
1850	1.8398e+02	-6.3367	-54.071378	0.000476	4.762616	1.613618	0.000191
1851	1.8407e+02	-6.3030	-53.829149	0.000608	6.079935	2.059938	0.000243
1852	1.8417e+02	-6.2613	-53.635367	0.000486	4.863948	1.647950	0.000195
1853	1.8427e+02	-6.2228	-53.433510	0.000507	5.066613	1.716615	0.000203
1854	1.8437e+02	-6.1731	-53.207430	0.000567	5.674606	1.922609	0.000227
1855	1.8447e+02	-6.1378	-53.058056	0.000375	3.749294	1.270295	0.000150
1856	1.8457e+02	-6.0961	-52.767383	0.000730	7.295923	2.471925	0.000292
1857	1.8467e+02	-6.0592	-52.593786	0.000436	4.357287	1.476289	0.000174
1858	1.8477e+02	-6.0271	-52.400003	0.000486	4.863948	1.647950	0.000195
1859	1.8487e+02	-5.9742	-52.141627	0.000649	6.485265	2.197267	0.000260
1860	1.8497e+02	-5.9357	-51.947844	0.000486	4.863948	1.647950	0.000195
1861	1.8507e+02	-5.9036	-51.689467	0.000649	6.485265	2.197267	0.000260
1862	1.8517e+02	-5.8587	-51.523945	0.000415	4.154623	1.407624	0.000166
1863	1.8527e+02	-5.8105	-51.318051	0.000517	5.167945	1.750947	0.000207
1864	1.8537e+02	-5.7897	-51.100046	0.000547	5.471942	1.853944	0.000219
1865	1.8547e+02	-5.7448	-50.934523	0.000415	4.154623	1.407624	0.000166
1866	1.8557e+02	-5.6998	-50.672109	0.000659	6.586597	2.231599	0.000264
1867	1.8567e+02	-5.6629	-50.446030	0.000567	5.674606	1.922609	0.000227
1868	1.8577e+02	-5.6212	-50.232061	0.000537	5.370610	1.819612	0.000215
1869	1.8587e+02	-5.5827	-50.018093	0.000537	5.370610	1.819612	0.000215
1870	1.8597e+02	-5.5410	-49.828348	0.000476	4.762616	1.613618	0.000191
1871	1.8606e+02	-5.5073	-49.618417	0.000527	5.269277	1.785280	0.000211
1872	1.8616e+02	-5.4656	-49.335817	0.000709	7.093258	2.403261	0.000284
1873	1.8626e+02	-5.4271	-49.154146	0.000456	4.559952	1.544953	0.000183
1874	1.8636e+02	-5.3854	-48.948252	0.000517	5.167945	1.750947	0.000207
1875	1.8646e+02	-5.3357	-48.722173	0.000567	5.674606	1.922609	0.000227
1876	1.8656e+02	-5.2924	-48.528390	0.000486	4.863948	1.647950	0.000195
1877	1.8666e+02	-5.2603	-48.342682	0.000466	4.661284	1.579286	0.000187
1878	1.8676e+02	-5.2250	-48.072194	0.000679	6.789261	2.300264	0.000272
1879	1.8686e+02	-5.1897	-47.862263	0.000527	5.269277	1.785280	0.000211
1880	1.8696e+02	-5.1384	-47.652332	0.000527	5.269277	1.785280	0.000211
1881	1.8706e+02	-5.1047	-47.442401	0.000527	5.269277	1.785280	0.000211
1882	1.8716e+02	-5.0581	-47.256692	0.000466	4.661284	1.579286	0.000187
1883	1.8726e+02	-5.0164	-47.014464	0.000608	6.079935	2.059938	0.000243
1884	1.8736e+02	-4.9795	-46.796459	0.000547	5.471942	1.853944	0.000219
1885	1.8746e+02	-4.9378	-46.582491	0.000537	5.370610	1.819612	0.000215
1886	1.8756e+02	-4.9025	-46.380634	0.000507	5.066613	1.716615	0.000203
1887	1.8766e+02	-4.8640	-46.110146	0.000679	6.789261	2.300264	0.000272
1888	1.8776e+02	-4.8191	-45.928475	0.000456	4.559952	1.544953	0.000183
1889	1.8786e+02	-4.7838	-45.710469	0.000547	5.471942	1.853944	0.000219
1890	1.8796e+02	-4.7437	-45.476316	0.000588	5.877271	1.991273	0.000235
1891	1.8806e+02	-4.7020	-45.278496	0.000497	4.965281	1.682283	0.000199
1892	1.8815e+02	-4.6651	-45.096825	0.000456	4.559952	1.544953	0.000183
1893	1.8825e+02	-4.6314	-44.842485	0.000638	6.383932	2.162935	0.000256
1894	1.8835e+02	-4.5817	-44.592183	0.000628	6.282600	2.128603	0.000252
1895	1.8845e+02	-4.5496	-44.382252	0.000527	5.269277	1.785280	0.000211
1896	1.8855e+02	-4.5047	-44.168284	0.000537	5.370610	1.819612	0.000215
1897	1.8865e+02	-4.4598	-43.974501	0.000486	4.863948	1.647950	0.000195
1898	1.8875e+02	-4.4309	-43.768607	0.000517	5.167945	1.750947	0.000207
1899	1.8885e+02	-4.3860	-43.510230	0.000649	6.485265	2.197267	0.000260
1900	1.8895e+02	-4.3411	-43.308374	0.000507	5.066613	1.716615	0.000203
1901	1.8905e+02	-4.3058	-43.082294	0.000567	5.674606	1.922609	0.000227
1902	1.8915e+02	-4.2544	-42.860252	0.000557	5.573274	1.888276	0.000223
1903	1.8925e+02	-4.2288	-42.605912	0.000638	6.383932	2.162935	0.000256
1904	1.8935e+02	-4.1887	-42.412129	0.000486	4.863948	1.647950	0.000195
1905	1.8945e+02	-4.1534	-42.186050	0.000567	5.674606	1.922609	0.000227
1906	1.8955e+02	-4.1116	-41.943822	0.000608	6.079935	2.059938	0.000243
1907	1.8965e+02	-4.0587	-41.729854	0.000537	5.370610	1.819612	0.000215
1908	1.8975e+02	-4.0250	-41.491663	0.000598	5.978603	2.025606	0.000239
1909	1.8985e+02	-3.9929	-41.273657	0.000547	5.471942	1.853944	0.000219
1910	1.8995e+02	-3.9448	-41.083912	0.000476	4.762616	1.613618	0.000191
1911	1.9004e+02	-3.9063	-40.837647	0.000618	6.181268	2.094270	0.000248
1912	1.9014e+02	-3.8598	-40.591381	0.000618	6.181268	2.094270	0.000248
1913	1.9024e+02	-3.8213	-40.393562	0.000497	4.965281	1.682283	0.000199
1914	1.9034e+02	-3.7860	-40.167482	0.000567	5.674606	1.922609	0.000227
1915	1.9044e+02	-3.7443	-39.905068	0.000659	6.586597	2.231599	0.000264
1916	1.9054e+02	-3.7074	-39.695137	0.000527	5.269277	1.785280	0.000211
1917	1.9064e+02	-3.6705	-39.485206	0.000527	5.269277	1.785280	0.000211
1918	1.9074e+02	-3.6224	-39.234904	0.000628	6.282600	2.128603	0.000252
1919	1.9084e+02	-3.6015	-39.024973	0.000527	5.269277	1.785280	0.000211
1920	1.9094e+02	-3.5486	-38.798893	0.000567	5.674606	1.922609	0.000227
1921	1.9104e+02	-3.5133	-38.576851	0.000557	5.573274	1.888276	0.000223
1922	1.9114e+02	-3.4667	-38.322511	0.000638	6.383932	2.162935	0.000256
1923	1.9124e+02	-3.4250	-38.092394	0.000578	5.775939	1.956941	0.000231
1924	1.9134e+02	-3.3833	-37.870352	0.000557	5.573274	1.888276	0.000223
1925	1.9144e+02	-3.3448	-37.607938	0.000659	6.586597	2.231599	0.000264
1926	1.9154e+02	-3.3047	-37.466638	0.000355	3.546629	1.201630	0.000142
1927	1.9164e+02	-3.2791	-37.175964	0.000730	7.295923	2.471925	0.000292
1928	1.9174e+02	-3.2277	-36.961996	0.000537	5.370610	1.819612	0.000215
1929	1.9184e+02	-3.1956	-36.715731	0.000618	6.181268	2.094270	0.000248
1930	1.9194e+02	-3.1587	-36.513874	0.000507	5.066613	1.716615	0.000203
1931	1.9203e+02	-3.1138	-36.259535	0.000638	6.383932	2.162935	0.000256
1932	1.9213e+02	-3.0657	-36.017306	0.000608	6.079935	2.059938	0.000243
1933	1.9223e+02	-3.0304	-35.795264	0.000557	5.573274	1.888276	0.000223
1934	1.9233e+02	-2.9919	-35.565147	0.000578	5.775939	1.956941	0.000231
1935	1.9243e+02	-2.9470	-35.335031	0.000578	5.775939	1.956941	0.000231
1936	1.9253e+02	-2.9165	-35.096840	0.000598	5.978603	2.025606	0.000239
1937	1.9263e+02	-2.8716	-34.862686	0.000588	5.877271	1.991273	0.000235
1938	1.9273e+02	-2.8315	-34.640643	0.000557	5.573274	1.888276	0.000223
1939	1.9283e+02	-2.7898	-34.410526	0.000578	5.775939	1.956941	0.000231
1940	1.9293e+02	-2.7529	-34.168298	0.000608	6.079935	2.059938	0.000243
1941	1.9303e+02	-2.7112	-33.913959	0.000638	6.383932	2.162935	0.000256
1942	1.9313e+02	-2.6775	-33.712102	0.000507	5.066613	1.716615	0.000203
1943	1.9323e+02	-2.6245	-33.481985	0.000578	5.775939	1.956941	0.000231
1944	1.9333e+02	-2.5892	-33.167089	0.000790	7.903916	2.677919	0.000316
1945	1.9343e+02	-2.5571	-32.993492	0.000436	4.357287	1.476289	0.000174
1946	1.9353e+02	-2.5090	-32.751264	0.000608	6.079935	2.059938	0.000243
1947	1.9363e+02	-2.4705	-32.500961	0.000628	6.282600	2.128603	0.000252
1948	1.9373e+02	-2.4352	-32.299104	0.000507	5.066613	1.716615	0.000203
1949	1.9383e+02	-2.3999	-32.052839	0.000618	6.181268	2.094270	0.000248
1950	1.9393e+02	-2.3534	-31.838871	0.000537	5.370610	1.819612	0.000215
1951	1.9403e+02	-2.3229	-31.552234	0.000719	7.194590	2.437593	0.000288
1952	1.9412e+02	-2.2700	-31.346340	0.000517	5.167945	1.750947	0.000207
1953	1.9422e+02	-2.2251	-31.059704	0.000719	7.194590	2.437593	0.000288
1954	1.9432e+02	-2.1930	-30.878033	0.000456	4.559952	1.544953	0.000183
1955	1.9442e+02	-2.1561	-30.615619	0.000659	6.586597	2.231599	0.000264
1956	1.9452e+02	-2.1160	-30.369354	0.000618	6.181268	2.094270	0.000248
1957	1.9462e+02	-2.0743	-30.123088	0.000618	6.181268	2.094270	0.000248
1958	1.9472e+02	-2.0278	-29.880860	0.000608	6.079935	2.059938	0.000243
1959	1.9482e+02	-1.9973	-29.646706	0.000588	5.877271	1.991273	0.000235
1960	1.9492e+02	-1.9507	-29.448887	0.000497	4.965281	1.682283	0.000199
1961	1.9502e+02	-1.9219	-29.186473	0.000659	6.586597	2.231599	0.000264
1962	1.9512e+02	-1.8802	-28.920022	0.000669	6.687929	2.265932	0.000268
1963	1.9522e+02	-1.8417	-28.657608	0.000659	6.586597	2.231599	0.000264
1964	1.9532e+02	-1.7903	-28.415380	0.000608	6.079935	2.059938	0.000243
1965	1.9542e+02	-1.7614	-28.189300	0.000567	5.674606	1.922609	0.000227
1966	1.9552e+02	-1.7133	-27.947072	0.000608	6.079935	2.059938	0.000243
1967	1.9562e+02	-1.6700	-27.708881	0.000598	5.978603	2.025606	0.000239
1968	1.9572e+02	-1.6315	-27.450504	0.000649	6.485265	2.197267	0.000260
1969	1.9582e+02	-1.5914	-27.224425	0.000567	5.674606	1.922609	0.000227
1970	1.9592e+02	-1.5577	-26.966048	0.000649	6.485265	2.197267	0.000260
1971	1.9601e+02	-1.5192	-26.715746	0.000628	6.282600	2.128603	0.000252
1972	1.9611e+02	-1.4727	-26.469480	0.000618	6.181268	2.094270	0.000248
1973	1.9621e+02	-1.4342	-26.227252	0.000608	6.079935	2.059938	0.000243
1974	1.9631e+02	-1.3941	-25.972913	0.000638	6.383932	2.162935	0.000256
1975	1.9641e+02	-1.3604	-25.706462	0.000669	6.687929	2.265932	0.000268
1976	1.9651e+02	-1.3155	-25.427899	0.000699	6.991926	2.368929	0.000280
1977	1.9661e+02	-1.2818	-25.246228	0.000456	4.559952	1.544953	0.000183
1978	1.9671e+02	-1.2417	-24.979777	0.000669	6.687929	2.265932	0.000268
1979	1.9681e+02	-1.1952	-24.737549	0.000608	6.079935	2.059938	0.000243
1980	1.9691e+02	-1.1518	-24.479173	0.000649	6.485265	2.197267	0.000260
1981	1.9701e+02	-1.1149	-24.265204	0.000537	5.370610	1.819612	0.000215
1982	1.9711e+02	-1.0780	-23.978568	0.000719	7.194590	2.437593	0.000288
1983	1.9721e+02	-1.0379	-23.744414	0.000588	5.877271	1.991273	0.000235
1984	1.9731e+02	-0.9898	-23.490074	0.000638	6.383932	2.162935	0.000256
1985	1.9741e+02	-0.9577	-23.235735	0.000638	6.383932	2.162935	0.000256
1986	1.9751e+02	-0.9272	-22.997544	0.000598	5.978603	2.025606	0.000239
1987	1.9761e+02	-0.8807	-22.718981	0.000699	6.991926	2.368929	0.000280
1988	1.9771e+02	-0.8358	-22.480790	0.000598	5.978603	2.025606	0.000239
1989	1.9781e+02	-0.7957	-22.202228	0.000699	6.991926	2.368929	0.000280
1990	1.9791e+02	-0.7684	-21.939814	0.000659	6.586597	2.231599	0.000264
1991	1.9800e+02	-0.7171	-21.693549	0.000618	6.181268	2.094270	0.000248
1992	1.9810e+02	-0.6738	-21.511878	0.000456	4.559952	1.544953	0.000183
1993	1.9820e+02	-0.6369	-21.229278	0.000709	7.093258	2.403261	0.000284
1994	1.9830e+02	-0.6032	-20.962827	0.000669	6.687929	2.265932	0.000268
1995	1.9840e+02	-0.5663	-20.716562	0.000618	6.181268	2.094270	0.000248
1996	1.9850e+02	-0.5150	-20.446074	0.000679	6.789261	2.300264	0.000272
1997	1.9860e+02	-0.4845	-20.167512	0.000699	6.991926	2.368929	0.000280
1998	1.9870e+02	-0.4347	-19.949506	0.000547	5.471942	1.853944	0.000219
1999	1.9880e+02	-0.3962	-19.679018	0.000679	6.789261	2.300264	0.000272
2000	1.9890e+02	-0.3561	-19.424679	0.000638	6.383932	2.162935	0.000256
2001	1.9900e+02	-0.3289	-19.186488	0.000598	5.978603	2.025606	0.000239
2002	1.9910e+02	-0.2856	-18.936185	0.000628	6.282600	2.128603	0.000252
2003	1.9920e+02	-0.2310	-18.641474	0.000740	7.397255	2.506258	0.000296
2004	1.9930e+02	-0.2086	-18.419432	0.000557	5.573274	1.888276	0.000223
2005	1.9940e+02	-0.1652	-18.136832	0.000709	7.093258	2.403261	0.000284
2006	1.9950e+02	-0.1267	-17.914790	0.000557	5.573274	1.888276	0.000223
2007	1.9960e+02	-0.0818	-17.644302	0.000679	6.789261	2.300264	0.000272
2008	1.9970e+02	-0.0449	-17.385925	0.000649	6.485265	2.197267	0.000260
2009	1.9980e+02	-0.0016	-17.139660	0.000649	6.485265	2.197267	0.000248

Center data before PMax,+/-Pr and +/-Vc Calc.

PMax (uC/cm2):	1.09e+02
Pr (uC/cm2):	9.33e+00
-Pr (uC/cm2):	-1.71e+01
PLoss (uC/cm2):	-1.60e+01
Vc:	2.27e-01
-Vc:	-1.44e+00
C (Max-Eff) (nF):	5.46e-01
K (Eff):	1.85e+03
Vert. (+/-Pr) Shift (uC/cm2):	-3.91e+00
Horiz. Shift (+/-Vc):	-6.04e-01
Offset (uC/cm2):	1.18e+00

A (Loop Area - uC/cm2·Volts):	1.68e-01



Hysteresis Version: 5.48.1 - Radiant Technologies, Inc., 1999 - 9/12/24

