»»»»»»»»»»»»»»»»»»»»»»»»»»»»»»»»»»»» Hysteresis ««««««««««««««««««««««««««««««««««««
»»»  Executed Version:	5.48.1
»»»  Vision Version:	5.48.4 (R)
»»»  Vision Compiled:	9/18/24
»»»  Driver Version:	5.47.0
»»»  Windows Version:	Windows 8 or 8.1
»»»  Processor Information:	x86 (AMD or Intel) - 32 Processors
»»»  Tester Name:	PMF21124-494 (100V)
»»»  Tester S/N:	PMF21124-494
»»»  Internal Amp Type:	100V RevK 270k
»»»  Internal Amp S/N:	iAB2-596/K     
»»»  Execution Count:	1
»»»»»»»»»»»»»»»»»»»»»»»»»»»»»»»»»»»»»»»»»»««««««««««««««««««««««««««««««««««««««««««

Stored:	6/4/2025 - 15:49:5
Configured:	06/04/25 01:46:06 PM
Executed:	06/04/25 03:48:24 PM

»»»»»»»»»»»»»»»»»»»»»»»»»»»»»»»»»»» Sample Info ««««««««««««««««««««««««««««««««««««
Sample Name:	
Lot Name:	
Wafer Name:	
Die Row/Column:	0/0
Capacitor Number:	0
Sample Area (cm2):	1.00e-04
Sample Thickness (microns):	3.00e-01

Amplifier:	Internal

»»»»»»»»»»»»»»»»»»»»»»»»»»»»»»»»»»» Tester Info «««««««««««««««««««««««««««««««««««
Tester Name:	PMF21124-494 (100V)
Tester Serial Number:	PMF21124-494
Return Signal Amp. Level:	0.19 [Index: 3]

»»»»»»»»»»»»»»»»»»»»»»»»»»»»»»»» Hysteresis Info ««««««««««««««««««««««««««««««««««
Task Name:	Hyst-37
Volts:	20.00
Field:	666.67 (kV/cm)
DCBias:	0.00
DCField:	0.00 (kV/cm)
Hysteresis Period (ms):	2.00e+02
Preset:	Enabled
Preset Delay (ms):	1.00e+03
Profile:	Standard Bipolar

»»»»»»»»»»»»»»»»»»»»»»»»»»»»»»»»»»»»»» Data «««««««««««««««««««««««««««««««««««««««
Points:	2009

Valid Data

Point	Time (ms)	Drive Voltage	Measured Polarization (uC/cm2)	Capacitance (uF)	Normalized Capacitance (uF/cm2)	Dielectric Constant	Instantaneous Current (mA)
   1	0.0000e+00	-0.0080	-1.651189	0.000517	5.168360	1.751088	0.000207
   2	9.9500e-02	0.0305	-1.445295	0.000517	5.168360	1.751088	0.000207
   3	1.9900e-01	0.0674	-1.247475	0.000497	4.965679	1.682418	0.000199
   4	2.9850e-01	0.1091	-1.041581	0.000517	5.168360	1.751088	0.000207
   5	3.9800e-01	0.1508	-0.823576	0.000547	5.472381	1.854093	0.000219
   6	4.9750e-01	0.1973	-0.577310	0.000618	6.181764	2.094438	0.000248
   7	5.9700e-01	0.2294	-0.339119	0.000598	5.979083	2.025768	0.000239
   8	6.9650e-01	0.2695	-0.100928	0.000598	5.979083	2.025768	0.000239
   9	7.9600e-01	0.3064	0.100928	0.000507	5.067019	1.716753	0.000203
  10	8.9550e-01	0.3626	0.335082	0.000588	5.877742	1.991433	0.000235
  11	9.9500e-01	0.3914	0.532902	0.000497	4.965679	1.682418	0.000199
  12	1.0945e+00	0.4364	0.767056	0.000588	5.877742	1.991433	0.000235
  13	1.1940e+00	0.4620	0.989098	0.000557	5.573721	1.888428	0.000223
  14	1.2935e+00	0.5085	1.255549	0.000669	6.688466	2.266113	0.000268
  15	1.3930e+00	0.5535	1.481629	0.000568	5.675062	1.922763	0.000227
  16	1.4925e+00	0.5839	1.687523	0.000517	5.168360	1.751088	0.000207
  17	1.5920e+00	0.6257	1.949937	0.000659	6.587125	2.231778	0.000264
  18	1.6915e+00	0.6609	2.184090	0.000588	5.877742	1.991433	0.000235
  19	1.7910e+00	0.7123	2.385947	0.000507	5.067019	1.716753	0.000203
  20	1.8905e+00	0.7524	2.628175	0.000608	6.080423	2.060103	0.000243
  21	1.9900e+00	0.7813	2.846181	0.000547	5.472381	1.854093	0.000219
  22	2.0895e+00	0.8358	3.104557	0.000649	6.485785	2.197443	0.000260
  23	2.1890e+00	0.8679	3.346786	0.000608	6.080423	2.060103	0.000243
  24	2.2885e+00	0.9144	3.584977	0.000598	5.979083	2.025768	0.000239
  25	2.3880e+00	0.9481	3.831242	0.000618	6.181764	2.094438	0.000248
  26	2.4875e+00	0.9930	4.033099	0.000507	5.067019	1.716753	0.000203
  27	2.5870e+00	1.0187	4.299550	0.000669	6.688466	2.266113	0.000268
  28	2.6865e+00	1.0588	4.533703	0.000588	5.877742	1.991433	0.000235
  29	2.7860e+00	1.1085	4.731523	0.000497	4.965679	1.682418	0.000199
  30	2.8855e+00	1.1422	4.957603	0.000568	5.675062	1.922763	0.000227
  31	2.9850e+00	1.1791	5.191757	0.000588	5.877742	1.991433	0.000235
  32	3.0845e+00	1.2401	5.450133	0.000649	6.485785	2.197443	0.000260
  33	3.1840e+00	1.2657	5.716584	0.000669	6.688466	2.266113	0.000268
  34	3.2835e+00	1.3107	5.910367	0.000486	4.864339	1.648083	0.000195
  35	3.3830e+00	1.3443	6.160669	0.000628	6.283104	2.128773	0.000252
  36	3.4825e+00	1.3909	6.410972	0.000628	6.283104	2.128773	0.000252
  37	3.5820e+00	1.4197	6.633014	0.000557	5.573721	1.888428	0.000223
  38	3.6815e+00	1.4663	6.883316	0.000628	6.283104	2.128773	0.000252
  39	3.7810e+00	1.5064	7.129582	0.000618	6.181764	2.094438	0.000248
  40	3.8805e+00	1.5481	7.343550	0.000537	5.371041	1.819758	0.000215
  41	3.9800e+00	1.5978	7.597889	0.000638	6.384444	2.163108	0.000256
  42	4.0795e+00	1.6187	7.840118	0.000608	6.080423	2.060103	0.000243
  43	4.1790e+00	1.6684	8.058123	0.000547	5.472381	1.854093	0.000219
  44	4.2785e+00	1.7085	8.292277	0.000588	5.877742	1.991433	0.000235
  45	4.3780e+00	1.7422	8.514319	0.000557	5.573721	1.888428	0.000223
  46	4.4775e+00	1.7743	8.780770	0.000669	6.688466	2.266113	0.000268
  47	4.5770e+00	1.8256	9.039147	0.000649	6.485785	2.197443	0.000260
  48	4.6765e+00	1.8593	9.232929	0.000486	4.864339	1.648083	0.000195
  49	4.7760e+00	1.9026	9.446898	0.000537	5.371041	1.819758	0.000215
  50	4.8755e+00	1.9395	9.685089	0.000598	5.979083	2.025768	0.000239
  51	4.9750e+00	1.9812	9.959614	0.000689	6.891146	2.334784	0.000276
  52	5.0745e+00	2.0149	10.173582	0.000537	5.371041	1.819758	0.000215
  53	5.1740e+00	2.0630	10.435996	0.000659	6.587125	2.231778	0.000264
  54	5.2735e+00	2.1048	10.654001	0.000547	5.472381	1.854093	0.000219
  55	5.3730e+00	2.1384	10.904304	0.000628	6.283104	2.128773	0.000252
  56	5.4725e+00	2.1818	11.162680	0.000649	6.485785	2.197443	0.000260
  57	5.5720e+00	2.2154	11.368574	0.000517	5.168360	1.751088	0.000207
  58	5.6715e+00	2.2620	11.630988	0.000659	6.587125	2.231778	0.000264
  59	5.7710e+00	2.2973	11.853031	0.000557	5.573721	1.888428	0.000223
  60	5.8705e+00	2.3470	12.054887	0.000507	5.067019	1.716753	0.000203
  61	5.9700e+00	2.3791	12.289041	0.000588	5.877742	1.991433	0.000235
  62	6.0695e+00	2.4160	12.583752	0.000740	7.397848	2.506459	0.000296
  63	6.1690e+00	2.4641	12.809832	0.000568	5.675062	1.922763	0.000227
  64	6.2685e+00	2.5074	13.023800	0.000537	5.371041	1.819758	0.000215
  65	6.3680e+00	2.5347	13.270065	0.000618	6.181764	2.094438	0.000248
  66	6.4675e+00	2.5844	13.520368	0.000628	6.283104	2.128773	0.000252
  67	6.5670e+00	2.6293	13.718187	0.000497	4.965679	1.682418	0.000199
  68	6.6665e+00	2.6630	13.960415	0.000608	6.080423	2.060103	0.000243
  69	6.7660e+00	2.6967	14.202644	0.000608	6.080423	2.060103	0.000243
  70	6.8655e+00	2.7432	14.444872	0.000608	6.080423	2.060103	0.000243
  71	6.9650e+00	2.7866	14.683063	0.000598	5.979083	2.025768	0.000239
  72	7.0645e+00	2.8202	14.905105	0.000557	5.573721	1.888428	0.000223
  73	7.1640e+00	2.8620	15.131185	0.000568	5.675062	1.922763	0.000227
  74	7.2635e+00	2.9053	15.381487	0.000628	6.283104	2.128773	0.000252
  75	7.3630e+00	2.9438	15.619678	0.000598	5.979083	2.025768	0.000239
  76	7.4625e+00	2.9839	15.861906	0.000608	6.080423	2.060103	0.000243
  77	7.5620e+00	3.0176	16.092023	0.000578	5.776402	1.957098	0.000231
  78	7.6615e+00	3.0480	16.346363	0.000638	6.384444	2.163108	0.000256
  79	7.7610e+00	3.1010	16.596665	0.000628	6.283104	2.128773	0.000252
  80	7.8605e+00	3.1443	16.766225	0.000426	4.256296	1.442072	0.000170
  81	7.9600e+00	3.1764	17.089196	0.000811	8.107231	2.746804	0.000325
  82	8.0595e+00	3.2165	17.303164	0.000537	5.371041	1.819758	0.000215
  83	8.1590e+00	3.2582	17.529243	0.000568	5.675062	1.922763	0.000227
  84	8.2585e+00	3.3047	17.747249	0.000547	5.472381	1.854093	0.000219
  85	8.3580e+00	3.3320	17.989477	0.000608	6.080423	2.060103	0.000243
  86	8.4575e+00	3.3817	18.247854	0.000649	6.485785	2.197443	0.000260
  87	8.5570e+00	3.4186	18.469896	0.000557	5.573721	1.888428	0.000223
  88	8.6565e+00	3.4555	18.716161	0.000618	6.181764	2.094438	0.000248
  89	8.7560e+00	3.5052	18.974538	0.000649	6.485785	2.197443	0.000260
  90	8.8555e+00	3.5438	19.200618	0.000568	5.675062	1.922763	0.000227
  91	8.9550e+00	3.5678	19.402474	0.000507	5.067019	1.716753	0.000203
  92	9.0545e+00	3.6159	19.672962	0.000679	6.789806	2.300449	0.000272
  93	9.1540e+00	3.6577	19.919228	0.000618	6.181764	2.094438	0.000248
  94	9.2535e+00	3.6945	20.125122	0.000517	5.168360	1.751088	0.000207
  95	9.3530e+00	3.7347	20.440018	0.000790	7.904550	2.678134	0.000316
  96	9.4525e+00	3.7764	20.670135	0.000578	5.776402	1.957098	0.000231
  97	9.5520e+00	3.8213	20.867955	0.000497	4.965679	1.682418	0.000199
  98	9.6515e+00	3.8566	21.102109	0.000588	5.877742	1.991433	0.000235
  99	9.7510e+00	3.8951	21.348374	0.000618	6.181764	2.094438	0.000248
 100	9.8505e+00	3.9320	21.594639	0.000618	6.181764	2.094438	0.000248
 101	9.9500e+00	3.9769	21.840904	0.000618	6.181764	2.094438	0.000248
 102	1.0050e+01	4.0138	22.075058	0.000588	5.877742	1.991433	0.000235
 103	1.0149e+01	4.0587	22.337472	0.000659	6.587125	2.231778	0.000264
 104	1.0248e+01	4.0988	22.535292	0.000497	4.965679	1.682418	0.000199
 105	1.0348e+01	4.1357	22.785594	0.000628	6.283104	2.128773	0.000252
 106	1.0447e+01	4.1806	23.035897	0.000628	6.283104	2.128773	0.000252
 107	1.0547e+01	4.2207	23.253902	0.000547	5.472381	1.854093	0.000219
 108	1.0646e+01	4.2592	23.516316	0.000659	6.587125	2.231778	0.000264
 109	1.0746e+01	4.2993	23.746432	0.000578	5.776402	1.957098	0.000231
 110	1.0845e+01	4.3362	23.980586	0.000588	5.877742	1.991433	0.000235
 111	1.0945e+01	4.3731	24.238963	0.000649	6.485785	2.197443	0.000260
 112	1.1044e+01	4.4116	24.456968	0.000547	5.472381	1.854093	0.000219
 113	1.1144e+01	4.4517	24.711308	0.000638	6.384444	2.163108	0.000256
 114	1.1243e+01	4.4902	24.961610	0.000628	6.283104	2.128773	0.000252
 115	1.1343e+01	4.5368	25.163467	0.000507	5.067019	1.716753	0.000203
 116	1.1443e+01	4.5737	25.385510	0.000557	5.573721	1.888428	0.000223
 117	1.1542e+01	4.6122	25.647923	0.000659	6.587125	2.231778	0.000264
 118	1.1642e+01	4.6571	25.886114	0.000598	5.979083	2.025768	0.000239
 119	1.1741e+01	4.7052	26.128342	0.000608	6.080423	2.060103	0.000243
 120	1.1841e+01	4.7277	26.310014	0.000456	4.560317	1.545077	0.000183
 121	1.1940e+01	4.7662	26.564353	0.000638	6.384444	2.163108	0.000256
 122	1.2040e+01	4.8175	26.826767	0.000659	6.587125	2.231778	0.000264
 123	1.2139e+01	4.8512	27.032661	0.000517	5.168360	1.751088	0.000207
 124	1.2239e+01	4.8993	27.291038	0.000649	6.485785	2.197443	0.000260
 125	1.2338e+01	4.9282	27.529229	0.000598	5.979083	2.025768	0.000239
 126	1.2438e+01	4.9795	27.787605	0.000649	6.485785	2.197443	0.000260
 127	1.2537e+01	5.0052	27.993499	0.000517	5.168360	1.751088	0.000207
 128	1.2636e+01	5.0598	28.280136	0.000720	7.195167	2.437789	0.000288
 129	1.2736e+01	5.0934	28.473918	0.000486	4.864339	1.648083	0.000195
 130	1.2835e+01	5.1287	28.687887	0.000537	5.371041	1.819758	0.000215
 131	1.2935e+01	5.1785	28.958375	0.000679	6.789806	2.300449	0.000272
 132	1.3034e+01	5.2170	29.168306	0.000527	5.269700	1.785423	0.000211
 133	1.3134e+01	5.2571	29.414571	0.000618	6.181764	2.094438	0.000248
 134	1.3233e+01	5.3020	29.644688	0.000578	5.776402	1.957098	0.000231
 135	1.3333e+01	5.3309	29.886916	0.000608	6.080423	2.060103	0.000243
 136	1.3432e+01	5.3694	30.108958	0.000557	5.573721	1.888428	0.000223
 137	1.3532e+01	5.4159	30.363298	0.000638	6.384444	2.163108	0.000256
 138	1.3632e+01	5.4400	30.589377	0.000568	5.675062	1.922763	0.000227
 139	1.3731e+01	5.4961	30.827568	0.000598	5.979083	2.025768	0.000239
 140	1.3831e+01	5.5234	31.081908	0.000638	6.384444	2.163108	0.000256
 141	1.3930e+01	5.5779	31.307988	0.000568	5.675062	1.922763	0.000227
 142	1.4030e+01	5.6004	31.546179	0.000598	5.979083	2.025768	0.000239
 143	1.4129e+01	5.6485	31.788407	0.000608	6.080423	2.060103	0.000243
 144	1.4229e+01	5.6950	32.038709	0.000628	6.283104	2.128773	0.000252
 145	1.4328e+01	5.7287	32.309197	0.000679	6.789806	2.300449	0.000272
 146	1.4428e+01	5.7624	32.474720	0.000415	4.154956	1.407737	0.000166
 147	1.4527e+01	5.8137	32.737134	0.000659	6.587125	2.231778	0.000264
 148	1.4627e+01	5.8410	32.983399	0.000618	6.181764	2.094438	0.000248
 149	1.4726e+01	5.8891	33.265998	0.000709	7.093827	2.403454	0.000284
 150	1.4825e+01	5.9308	33.463818	0.000497	4.965679	1.682418	0.000199
 151	1.4925e+01	5.9597	33.730269	0.000669	6.688466	2.266113	0.000268
 152	1.5024e+01	6.0046	33.932126	0.000507	5.067019	1.716753	0.000203
 153	1.5124e+01	6.0431	34.182428	0.000628	6.283104	2.128773	0.000252
 154	1.5223e+01	6.0897	34.452916	0.000679	6.789806	2.300449	0.000272
 155	1.5323e+01	6.1410	34.654773	0.000507	5.067019	1.716753	0.000203
 156	1.5422e+01	6.1731	34.848556	0.000486	4.864339	1.648083	0.000195
 157	1.5522e+01	6.2116	35.123081	0.000689	6.891146	2.334784	0.000276
 158	1.5621e+01	6.2357	35.397606	0.000689	6.891146	2.334784	0.000276
 159	1.5721e+01	6.2854	35.595426	0.000497	4.965679	1.682418	0.000199
 160	1.5820e+01	6.3223	35.853802	0.000649	6.485785	2.197443	0.000260
 161	1.5920e+01	6.3752	36.039511	0.000466	4.661658	1.579412	0.000187
 162	1.6020e+01	6.4089	36.285776	0.000618	6.181764	2.094438	0.000248
 163	1.6119e+01	6.4506	36.556264	0.000679	6.789806	2.300449	0.000272
 164	1.6218e+01	6.4875	36.705638	0.000375	3.749594	1.270397	0.000150
 165	1.6318e+01	6.5324	36.988238	0.000709	7.093827	2.403454	0.000284
 166	1.6418e+01	6.5581	37.226429	0.000598	5.979083	2.025768	0.000239
 167	1.6517e+01	6.6094	37.456545	0.000578	5.776402	1.957098	0.000231
 168	1.6616e+01	6.6399	37.714922	0.000649	6.485785	2.197443	0.000260
 169	1.6716e+01	6.6897	37.924853	0.000527	5.269700	1.785423	0.000211
 170	1.6816e+01	6.7169	38.159007	0.000588	5.877742	1.991433	0.000235
 171	1.6915e+01	6.7650	38.389124	0.000578	5.776402	1.957098	0.000231
 172	1.7015e+01	6.8100	38.659612	0.000679	6.789806	2.300449	0.000272
 173	1.7114e+01	6.8308	38.885691	0.000568	5.675062	1.922763	0.000227
 174	1.7213e+01	6.8757	39.043140	0.000395	3.952275	1.339067	0.000158
 175	1.7313e+01	6.9191	39.317665	0.000689	6.891146	2.334784	0.000276
 176	1.7413e+01	6.9640	39.535670	0.000547	5.472381	1.854093	0.000219
 177	1.7512e+01	7.0009	39.773861	0.000598	5.979083	2.025768	0.000239
 178	1.7611e+01	7.0506	40.056461	0.000709	7.093827	2.403454	0.000284
 179	1.7711e+01	7.0731	40.246206	0.000476	4.762998	1.613747	0.000191
 180	1.7811e+01	7.1084	40.435952	0.000476	4.762998	1.613747	0.000191
 181	1.7910e+01	7.1645	40.690291	0.000638	6.384444	2.163108	0.000256
 182	1.8009e+01	7.2062	40.948668	0.000649	6.485785	2.197443	0.000260
 183	1.8109e+01	7.2431	41.162636	0.000537	5.371041	1.819758	0.000215
 184	1.8209e+01	7.2880	41.416976	0.000638	6.384444	2.163108	0.000256
 185	1.8308e+01	7.3249	41.630944	0.000537	5.371041	1.819758	0.000215
 186	1.8407e+01	7.3650	41.885283	0.000638	6.384444	2.163108	0.000256
 187	1.8507e+01	7.4083	42.087140	0.000507	5.067019	1.716753	0.000203
 188	1.8607e+01	7.4356	42.325331	0.000598	5.979083	2.025768	0.000239
 189	1.8706e+01	7.4870	42.555448	0.000578	5.776402	1.957098	0.000231
 190	1.8805e+01	7.5174	42.825936	0.000679	6.789806	2.300449	0.000272
 191	1.8905e+01	7.5575	42.995496	0.000426	4.256296	1.442072	0.000170
 192	1.9005e+01	7.6025	43.249835	0.000638	6.384444	2.163108	0.000256
 193	1.9104e+01	7.6345	43.471878	0.000557	5.573721	1.888428	0.000223
 194	1.9203e+01	7.6763	43.714106	0.000608	6.080423	2.060103	0.000243
 195	1.9303e+01	7.7196	43.920000	0.000517	5.168360	1.751088	0.000207
 196	1.9402e+01	7.7597	44.162228	0.000608	6.080423	2.060103	0.000243
 197	1.9502e+01	7.7982	44.412530	0.000628	6.283104	2.128773	0.000252
 198	1.9602e+01	7.8431	44.606313	0.000486	4.864339	1.648083	0.000195
 199	1.9701e+01	7.8816	44.832392	0.000568	5.675062	1.922763	0.000227
 200	1.9800e+01	7.9169	45.078658	0.000618	6.181764	2.094438	0.000248
 201	1.9900e+01	7.9634	45.337034	0.000649	6.485785	2.197443	0.000260
 202	2.0000e+01	7.9955	45.551003	0.000537	5.371041	1.819758	0.000215
 203	2.0099e+01	8.0372	45.781119	0.000578	5.776402	1.957098	0.000231
 204	2.0198e+01	8.0805	45.982976	0.000507	5.067019	1.716753	0.000203
 205	2.0298e+01	8.1190	46.209056	0.000568	5.675062	1.922763	0.000227
 206	2.0398e+01	8.1511	46.451284	0.000608	6.080423	2.060103	0.000243
 207	2.0497e+01	8.2008	46.669289	0.000547	5.472381	1.854093	0.000219
 208	2.0596e+01	8.2377	46.887294	0.000547	5.472381	1.854093	0.000219
 209	2.0696e+01	8.2746	47.125485	0.000598	5.979083	2.025768	0.000239
 210	2.0796e+01	8.3260	47.400011	0.000689	6.891146	2.334784	0.000276
 211	2.0895e+01	8.3484	47.630127	0.000578	5.776402	1.957098	0.000231
 212	2.0994e+01	8.4078	47.819873	0.000476	4.762998	1.613747	0.000191
 213	2.1094e+01	8.4399	48.005581	0.000466	4.661658	1.579412	0.000187
 214	2.1194e+01	8.4768	48.251846	0.000618	6.181764	2.094438	0.000248
 215	2.1293e+01	8.5185	48.486000	0.000588	5.877742	1.991433	0.000235
 216	2.1392e+01	8.5602	48.720154	0.000588	5.877742	1.991433	0.000235
 217	2.1492e+01	8.6003	48.934122	0.000537	5.371041	1.819758	0.000215
 218	2.1591e+01	8.6388	49.144053	0.000527	5.269700	1.785423	0.000211
 219	2.1691e+01	8.6789	49.345910	0.000507	5.067019	1.716753	0.000203
 220	2.1791e+01	8.7206	49.604287	0.000649	6.485785	2.197443	0.000260
 221	2.1890e+01	8.7655	49.822292	0.000547	5.472381	1.854093	0.000219
 222	2.1989e+01	8.7992	50.056446	0.000588	5.877742	1.991433	0.000235
 223	2.2089e+01	8.8409	50.234080	0.000446	4.458977	1.510742	0.000179
 224	2.2189e+01	8.8826	50.504568	0.000679	6.789806	2.300449	0.000272
 225	2.2288e+01	8.9211	50.678165	0.000436	4.357637	1.476407	0.000174
 226	2.2387e+01	8.9532	50.940579	0.000659	6.587125	2.231778	0.000264
 227	2.2487e+01	8.9933	51.138398	0.000497	4.965679	1.682418	0.000199
 228	2.2587e+01	9.0334	51.372552	0.000588	5.877742	1.991433	0.000235
 229	2.2686e+01	9.0751	51.582483	0.000527	5.269700	1.785423	0.000211
 230	2.2785e+01	9.1185	51.792414	0.000527	5.269700	1.785423	0.000211
 231	2.2885e+01	9.1505	52.034643	0.000608	6.080423	2.060103	0.000243
 232	2.2985e+01	9.1987	52.252648	0.000547	5.472381	1.854093	0.000219
 233	2.3084e+01	9.2388	52.442393	0.000476	4.762998	1.613747	0.000191
 234	2.3183e+01	9.2757	52.664436	0.000557	5.573721	1.888428	0.000223
 235	2.3283e+01	9.3142	52.902627	0.000598	5.979083	2.025768	0.000239
 236	2.3383e+01	9.3543	53.112558	0.000527	5.269700	1.785423	0.000211
 237	2.3482e+01	9.3880	53.306340	0.000486	4.864339	1.648083	0.000195
 238	2.3581e+01	9.4329	53.540494	0.000588	5.877742	1.991433	0.000235
 239	2.3681e+01	9.4730	53.722165	0.000456	4.560317	1.545077	0.000183
 240	2.3780e+01	9.5051	53.948245	0.000568	5.675062	1.922763	0.000227
 241	2.3880e+01	9.5564	54.198547	0.000628	6.283104	2.128773	0.000252
 242	2.3980e+01	9.6013	54.432701	0.000588	5.877742	1.991433	0.000235
 243	2.4079e+01	9.6334	54.638595	0.000517	5.168360	1.751088	0.000207
 244	2.4178e+01	9.6815	54.836415	0.000497	4.965679	1.682418	0.000199
 245	2.4278e+01	9.7265	55.082680	0.000618	6.181764	2.094438	0.000248
 246	2.4378e+01	9.7489	55.308760	0.000568	5.675062	1.922763	0.000227
 247	2.4477e+01	9.7970	55.482356	0.000436	4.357637	1.476407	0.000174
 248	2.4576e+01	9.8388	55.716510	0.000588	5.877742	1.991433	0.000235
 249	2.4676e+01	9.8724	55.938553	0.000557	5.573721	1.888428	0.000223
 250	2.4776e+01	9.9190	56.100038	0.000405	4.053615	1.373402	0.000162
 251	2.4875e+01	9.9559	56.390712	0.000730	7.296508	2.472124	0.000292
 252	2.4974e+01	9.9847	56.592569	0.000507	5.067019	1.716753	0.000203
 253	2.5074e+01	10.0345	56.786351	0.000486	4.864339	1.648083	0.000195
 254	2.5174e+01	10.0698	57.012431	0.000568	5.675062	1.922763	0.000227
 255	2.5273e+01	10.1195	57.230436	0.000547	5.472381	1.854093	0.000219
 256	2.5372e+01	10.1564	57.456516	0.000568	5.675062	1.922763	0.000227
 257	2.5472e+01	10.1933	57.690670	0.000588	5.877742	1.991433	0.000235
 258	2.5572e+01	10.2254	57.892526	0.000507	5.067019	1.716753	0.000203
 259	2.5671e+01	10.2671	58.086309	0.000486	4.864339	1.648083	0.000195
 260	2.5770e+01	10.3136	58.312389	0.000568	5.675062	1.922763	0.000227
 261	2.5870e+01	10.3473	58.522320	0.000527	5.269700	1.785423	0.000211
 262	2.5970e+01	10.3986	58.740325	0.000547	5.472381	1.854093	0.000219
 263	2.6069e+01	10.4307	58.966405	0.000568	5.675062	1.922763	0.000227
 264	2.6169e+01	10.4708	59.156150	0.000476	4.762998	1.613747	0.000191
 265	2.6268e+01	10.5045	59.374155	0.000547	5.472381	1.854093	0.000219
 266	2.6367e+01	10.5478	59.624458	0.000628	6.283104	2.128773	0.000252
 267	2.6467e+01	10.5815	59.789980	0.000415	4.154956	1.407737	0.000166
 268	2.6567e+01	10.6264	60.040283	0.000628	6.283104	2.128773	0.000252
 269	2.6666e+01	10.6601	60.278474	0.000598	5.979083	2.025768	0.000239
 270	2.6765e+01	10.7147	60.456108	0.000446	4.458977	1.510742	0.000179
 271	2.6865e+01	10.7548	60.625667	0.000426	4.256296	1.442072	0.000170
 272	2.6965e+01	10.7965	60.896155	0.000679	6.789806	2.300449	0.000272
 273	2.7064e+01	10.8286	61.110124	0.000537	5.371041	1.819758	0.000215
 274	2.7163e+01	10.8767	61.303906	0.000486	4.864339	1.648083	0.000195
 275	2.7263e+01	10.9136	61.513837	0.000527	5.269700	1.785423	0.000211
 276	2.7363e+01	10.9425	61.727805	0.000537	5.371041	1.819758	0.000215
 277	2.7462e+01	10.9858	61.957922	0.000578	5.776402	1.957098	0.000231
 278	2.7561e+01	11.0243	62.139593	0.000456	4.560317	1.545077	0.000183
 279	2.7661e+01	11.0644	62.353561	0.000537	5.371041	1.819758	0.000215
 280	2.7761e+01	11.1173	62.583678	0.000578	5.776402	1.957098	0.000231
 281	2.7860e+01	11.1510	62.797646	0.000537	5.371041	1.819758	0.000215
 282	2.7959e+01	11.1879	63.023726	0.000568	5.675062	1.922763	0.000227
 283	2.8059e+01	11.2280	63.201360	0.000446	4.458977	1.510742	0.000179
 284	2.8159e+01	11.2569	63.403217	0.000507	5.067019	1.716753	0.000203
 285	2.8258e+01	11.3098	63.617185	0.000537	5.371041	1.819758	0.000215
 286	2.8358e+01	11.3532	63.827116	0.000527	5.269700	1.785423	0.000211
 287	2.8457e+01	11.3884	64.041084	0.000537	5.371041	1.819758	0.000215
 288	2.8556e+01	11.4286	64.255052	0.000537	5.371041	1.819758	0.000215
 289	2.8656e+01	11.4687	64.440761	0.000466	4.661658	1.579412	0.000187
 290	2.8756e+01	11.5072	64.662803	0.000557	5.573721	1.888428	0.000223
 291	2.8855e+01	11.5457	64.880808	0.000547	5.472381	1.854093	0.000219
 292	2.8954e+01	11.5826	65.046331	0.000415	4.154956	1.407737	0.000166
 293	2.9054e+01	11.6275	65.296633	0.000628	6.283104	2.128773	0.000252
 294	2.9154e+01	11.6628	65.437933	0.000355	3.546914	1.201727	0.000142
 295	2.9253e+01	11.7077	65.680161	0.000608	6.080423	2.060103	0.000243
 296	2.9352e+01	11.7510	65.918352	0.000598	5.979083	2.025768	0.000239
 297	2.9452e+01	11.7831	66.140395	0.000557	5.573721	1.888428	0.000223
 298	2.9552e+01	11.8280	66.334177	0.000486	4.864339	1.648083	0.000195
 299	2.9651e+01	11.8649	66.540071	0.000517	5.168360	1.751088	0.000207
 300	2.9750e+01	11.9114	66.721742	0.000456	4.560317	1.545077	0.000183
 301	2.9850e+01	11.9499	66.943785	0.000557	5.573721	1.888428	0.000223
 302	2.9950e+01	11.9820	67.165827	0.000557	5.573721	1.888428	0.000223
 303	3.0049e+01	12.0301	67.359610	0.000486	4.864339	1.648083	0.000195
 304	3.0148e+01	12.0670	67.577615	0.000547	5.472381	1.854093	0.000219
 305	3.0248e+01	12.1007	67.767360	0.000476	4.762998	1.613747	0.000191
 306	3.0348e+01	12.1456	68.025737	0.000649	6.485785	2.197443	0.000260
 307	3.0447e+01	12.1761	68.211445	0.000466	4.661658	1.579412	0.000187
 308	3.0547e+01	12.2259	68.425414	0.000537	5.371041	1.819758	0.000215
 309	3.0646e+01	12.2612	68.655530	0.000578	5.776402	1.957098	0.000231
 310	3.0745e+01	12.3061	68.821053	0.000415	4.154956	1.407737	0.000166
 311	3.0845e+01	12.3510	69.035021	0.000537	5.371041	1.819758	0.000215
 312	3.0945e+01	12.3927	69.285324	0.000628	6.283104	2.128773	0.000252
 313	3.1044e+01	12.4216	69.475069	0.000476	4.762998	1.613747	0.000191
 314	3.1143e+01	12.4649	69.648666	0.000436	4.357637	1.476407	0.000174
 315	3.1243e+01	12.4970	69.886857	0.000598	5.979083	2.025768	0.000239
 316	3.1343e+01	12.5499	70.092751	0.000517	5.168360	1.751088	0.000207
 317	3.1442e+01	12.5836	70.294607	0.000507	5.067019	1.716753	0.000203
 318	3.1541e+01	12.6189	70.532798	0.000598	5.979083	2.025768	0.000239
 319	3.1641e+01	12.6638	70.738692	0.000517	5.168360	1.751088	0.000207
 320	3.1741e+01	12.7039	70.948623	0.000527	5.269700	1.785423	0.000211
 321	3.1840e+01	12.7504	71.134332	0.000466	4.661658	1.579412	0.000187
 322	3.1939e+01	12.7922	71.340226	0.000517	5.168360	1.751088	0.000207
 323	3.2039e+01	12.8114	71.538045	0.000497	4.965679	1.682418	0.000199
 324	3.2139e+01	12.8595	71.760088	0.000557	5.573721	1.888428	0.000223
 325	3.2238e+01	12.9044	71.965982	0.000517	5.168360	1.751088	0.000207
 326	3.2337e+01	12.9413	72.175913	0.000527	5.269700	1.785423	0.000211
 327	3.2437e+01	12.9782	72.365658	0.000476	4.762998	1.613747	0.000191
 328	3.2536e+01	13.0183	72.579626	0.000537	5.371041	1.819758	0.000215
 329	3.2636e+01	13.0585	72.777446	0.000497	4.965679	1.682418	0.000199
 330	3.2736e+01	13.1034	72.955080	0.000446	4.458977	1.510742	0.000179
 331	3.2835e+01	13.1435	73.181160	0.000568	5.675062	1.922763	0.000227
 332	3.2934e+01	13.1740	73.395128	0.000537	5.371041	1.819758	0.000215
 333	3.3034e+01	13.2141	73.580836	0.000466	4.661658	1.579412	0.000187
 334	3.3133e+01	13.2622	73.802878	0.000557	5.573721	1.888428	0.000223
 335	3.3233e+01	13.2959	73.980512	0.000446	4.458977	1.510742	0.000179
 336	3.3333e+01	13.3344	74.170258	0.000476	4.762998	1.613747	0.000191
 337	3.3432e+01	13.3841	74.384226	0.000537	5.371041	1.819758	0.000215
 338	3.3532e+01	13.4114	74.590120	0.000517	5.168360	1.751088	0.000207
 339	3.3631e+01	13.4627	74.820237	0.000578	5.776402	1.957098	0.000231
 340	3.3730e+01	13.4916	74.997871	0.000446	4.458977	1.510742	0.000179
 341	3.3830e+01	13.5413	75.191653	0.000486	4.864339	1.648083	0.000195
 342	3.3929e+01	13.5766	75.413696	0.000557	5.573721	1.888428	0.000223
 343	3.4029e+01	13.6183	75.611515	0.000497	4.965679	1.682418	0.000199
 344	3.4129e+01	13.6600	75.817409	0.000517	5.168360	1.751088	0.000207
 345	3.4228e+01	13.6969	76.007155	0.000476	4.762998	1.613747	0.000191
 346	3.4328e+01	13.7354	76.233234	0.000568	5.675062	1.922763	0.000227
 347	3.4427e+01	13.7691	76.362422	0.000324	3.242892	1.098722	0.000130
 348	3.4526e+01	13.8221	76.600613	0.000598	5.979083	2.025768	0.000239
 349	3.4626e+01	13.8574	76.822656	0.000557	5.573721	1.888428	0.000223
 350	3.4725e+01	13.8911	77.036624	0.000537	5.371041	1.819758	0.000215
 351	3.4825e+01	13.9376	77.198110	0.000405	4.053615	1.373402	0.000162
 352	3.4925e+01	13.9761	77.387855	0.000476	4.762998	1.613747	0.000191
 353	3.5024e+01	14.0162	77.605860	0.000547	5.472381	1.854093	0.000219
 354	3.5123e+01	14.0627	77.799643	0.000486	4.864339	1.648083	0.000195
 355	3.5223e+01	14.0964	77.997462	0.000497	4.965679	1.682418	0.000199
 356	3.5322e+01	14.1397	78.187208	0.000476	4.762998	1.613747	0.000191
 357	3.5422e+01	14.1782	78.409250	0.000557	5.573721	1.888428	0.000223
 358	3.5522e+01	14.2167	78.586884	0.000446	4.458977	1.510742	0.000179
 359	3.5621e+01	14.2600	78.800852	0.000537	5.371041	1.819758	0.000215
 360	3.5721e+01	14.3001	78.970412	0.000426	4.256296	1.442072	0.000170
 361	3.5820e+01	14.3322	79.200529	0.000578	5.776402	1.957098	0.000231
 362	3.5919e+01	14.3787	79.382200	0.000456	4.560317	1.545077	0.000183
 363	3.6019e+01	14.4108	79.596168	0.000537	5.371041	1.819758	0.000215
 364	3.6118e+01	14.4622	79.793988	0.000497	4.965679	1.682418	0.000199
 365	3.6218e+01	14.4878	79.999882	0.000517	5.168360	1.751088	0.000207
 366	3.6318e+01	14.5472	80.229999	0.000578	5.776402	1.957098	0.000231
 367	3.6417e+01	14.5793	80.375335	0.000365	3.648254	1.236062	0.000146
 368	3.6517e+01	14.6226	80.593341	0.000547	5.472381	1.854093	0.000219
 369	3.6616e+01	14.6547	80.791160	0.000497	4.965679	1.682418	0.000199
 370	3.6715e+01	14.6948	80.964757	0.000436	4.357637	1.476407	0.000174
 371	3.6815e+01	14.7381	81.170651	0.000517	5.168360	1.751088	0.000207
 372	3.6914e+01	14.7734	81.348285	0.000446	4.458977	1.510742	0.000179
 373	3.7014e+01	14.8103	81.582439	0.000588	5.877742	1.991433	0.000235
 374	3.7114e+01	14.8552	81.796407	0.000537	5.371041	1.819758	0.000215
 375	3.7213e+01	14.9001	81.941744	0.000365	3.648254	1.236062	0.000146
 376	3.7313e+01	14.9338	82.131489	0.000476	4.762998	1.613747	0.000191
 377	3.7412e+01	14.9707	82.365643	0.000588	5.877742	1.991433	0.000235
 378	3.7511e+01	15.0172	82.543277	0.000446	4.458977	1.510742	0.000179
 379	3.7611e+01	15.0557	82.733023	0.000476	4.762998	1.613747	0.000191
 380	3.7711e+01	15.1022	82.938917	0.000517	5.168360	1.751088	0.000207
 381	3.7810e+01	15.1327	83.144811	0.000517	5.168360	1.751088	0.000207
 382	3.7910e+01	15.1664	83.370890	0.000568	5.675062	1.922763	0.000227
 383	3.8009e+01	15.2113	83.512190	0.000355	3.546914	1.201727	0.000142
 384	3.8108e+01	15.2482	83.722121	0.000527	5.269700	1.785423	0.000211
 385	3.8208e+01	15.2883	83.899755	0.000446	4.458977	1.510742	0.000179
 386	3.8307e+01	15.3317	84.093537	0.000486	4.864339	1.648083	0.000195
 387	3.8407e+01	15.3686	84.323654	0.000578	5.776402	1.957098	0.000231
 388	3.8507e+01	15.4054	84.452843	0.000324	3.242892	1.098722	0.000130
 389	3.8606e+01	15.4584	84.658736	0.000517	5.168360	1.751088	0.000207
 390	3.8706e+01	15.4889	84.868667	0.000527	5.269700	1.785423	0.000211
 391	3.8805e+01	15.5226	85.018042	0.000375	3.749594	1.270397	0.000150
 392	3.8904e+01	15.5611	85.248158	0.000578	5.776402	1.957098	0.000231
 393	3.9004e+01	15.6092	85.433866	0.000466	4.661658	1.579412	0.000187
 394	3.9103e+01	15.6477	85.631686	0.000497	4.965679	1.682418	0.000199
 395	3.9203e+01	15.6958	85.833543	0.000507	5.067019	1.716753	0.000203
 396	3.9303e+01	15.7247	86.023288	0.000476	4.762998	1.613747	0.000191
 397	3.9402e+01	15.7792	86.192848	0.000426	4.256296	1.442072	0.000170
 398	3.9502e+01	15.8097	86.370482	0.000446	4.458977	1.510742	0.000179
 399	3.9601e+01	15.8450	86.612710	0.000608	6.080423	2.060103	0.000243
 400	3.9700e+01	15.8835	86.733824	0.000304	3.040212	1.030052	0.000122
 401	3.9800e+01	15.9316	86.911458	0.000446	4.458977	1.510742	0.000179
 402	3.9900e+01	15.9701	87.137538	0.000568	5.675062	1.922763	0.000227
 403	3.9999e+01	16.0086	87.299023	0.000405	4.053615	1.373402	0.000162
 404	4.0099e+01	16.0536	87.512991	0.000537	5.371041	1.819758	0.000215
 405	4.0198e+01	16.0824	87.714848	0.000507	5.067019	1.716753	0.000203
 406	4.0297e+01	16.1209	87.896519	0.000456	4.560317	1.545077	0.000183
 407	4.0397e+01	16.1514	88.021670	0.000314	3.141552	1.064387	0.000126
 408	4.0496e+01	16.2124	88.239676	0.000547	5.472381	1.854093	0.000219
 409	4.0596e+01	16.2557	88.441533	0.000507	5.067019	1.716753	0.000203
 410	4.0696e+01	16.2846	88.635315	0.000486	4.864339	1.648083	0.000195
 411	4.0795e+01	16.3327	88.833135	0.000497	4.965679	1.682418	0.000199
 412	4.0895e+01	16.3696	88.978472	0.000365	3.648254	1.236062	0.000146
 413	4.0994e+01	16.4033	89.168217	0.000476	4.762998	1.613747	0.000191
 414	4.1093e+01	16.4498	89.378148	0.000527	5.269700	1.785423	0.000211
 415	4.1193e+01	16.4867	89.555782	0.000446	4.458977	1.510742	0.000179
 416	4.1292e+01	16.5236	89.733416	0.000446	4.458977	1.510742	0.000179
 417	4.1392e+01	16.5653	89.927199	0.000486	4.864339	1.648083	0.000195
 418	4.1492e+01	16.5990	90.100795	0.000436	4.357637	1.476407	0.000174
 419	4.1591e+01	16.6423	90.282467	0.000456	4.560317	1.545077	0.000183
 420	4.1691e+01	16.6920	90.464138	0.000456	4.560317	1.545077	0.000183
 421	4.1790e+01	16.7257	90.670032	0.000517	5.168360	1.751088	0.000207
 422	4.1889e+01	16.7642	90.867851	0.000497	4.965679	1.682418	0.000199
 423	4.1989e+01	16.8011	91.045485	0.000446	4.458977	1.510742	0.000179
 424	4.2089e+01	16.8428	91.239268	0.000486	4.864339	1.648083	0.000195
 425	4.2188e+01	16.8862	91.429013	0.000476	4.762998	1.613747	0.000191
 426	4.2288e+01	16.9214	91.602610	0.000436	4.357637	1.476407	0.000174
 427	4.2387e+01	16.9599	91.800430	0.000497	4.965679	1.682418	0.000199
 428	4.2486e+01	16.9936	91.953841	0.000385	3.850935	1.304732	0.000154
 429	4.2586e+01	17.0434	92.175883	0.000557	5.573721	1.888428	0.000223
 430	4.2685e+01	17.0883	92.313146	0.000345	3.445573	1.167392	0.000138
 431	4.2785e+01	17.1284	92.494817	0.000456	4.560317	1.545077	0.000183
 432	4.2885e+01	17.1605	92.688599	0.000486	4.864339	1.648083	0.000195
 433	4.2984e+01	17.1926	92.898530	0.000527	5.269700	1.785423	0.000211
 434	4.3084e+01	17.2407	93.043867	0.000365	3.648254	1.236062	0.000146
 435	4.3183e+01	17.2824	93.241687	0.000497	4.965679	1.682418	0.000199
 436	4.3282e+01	17.3161	93.439507	0.000497	4.965679	1.682418	0.000199
 437	4.3382e+01	17.3706	93.617141	0.000446	4.458977	1.510742	0.000179
 438	4.3481e+01	17.3979	93.798812	0.000456	4.560317	1.545077	0.000183
 439	4.3581e+01	17.4412	94.008743	0.000527	5.269700	1.785423	0.000211
 440	4.3681e+01	17.4926	94.154080	0.000365	3.648254	1.236062	0.000146
 441	4.3780e+01	17.5311	94.347862	0.000486	4.864339	1.648083	0.000195
 442	4.3880e+01	17.5615	94.545682	0.000497	4.965679	1.682418	0.000199
 443	4.3979e+01	17.5968	94.747539	0.000507	5.067019	1.716753	0.000203
 444	4.4078e+01	17.6450	94.921135	0.000436	4.357637	1.476407	0.000174
 445	4.4178e+01	17.6835	95.106844	0.000466	4.661658	1.579412	0.000187
 446	4.4278e+01	17.7220	95.288515	0.000456	4.560317	1.545077	0.000183
 447	4.4377e+01	17.7653	95.466149	0.000446	4.458977	1.510742	0.000179
 448	4.4477e+01	17.8070	95.623597	0.000395	3.952275	1.339067	0.000158
 449	4.4576e+01	17.8439	95.837565	0.000537	5.371041	1.819758	0.000215
 450	4.4675e+01	17.8808	95.995014	0.000395	3.952275	1.339067	0.000158
 451	4.4775e+01	17.9241	96.152462	0.000395	3.952275	1.339067	0.000158
 452	4.4874e+01	17.9578	96.346244	0.000486	4.864339	1.648083	0.000195
 453	4.4974e+01	18.0011	96.540027	0.000486	4.864339	1.648083	0.000195
 454	4.5074e+01	18.0412	96.717661	0.000446	4.458977	1.510742	0.000179
 455	4.5173e+01	18.0813	96.862998	0.000365	3.648254	1.236062	0.000146
 456	4.5273e+01	18.1230	97.093114	0.000578	5.776402	1.957098	0.000231
 457	4.5372e+01	18.1647	97.250563	0.000395	3.952275	1.339067	0.000158
 458	4.5471e+01	18.1952	97.428197	0.000446	4.458977	1.510742	0.000179
 459	4.5571e+01	18.2417	97.609868	0.000456	4.560317	1.545077	0.000183
 460	4.5670e+01	18.2866	97.799613	0.000476	4.762998	1.613747	0.000191
 461	4.5770e+01	18.3219	97.953024	0.000385	3.850935	1.304732	0.000154
 462	4.5870e+01	18.3669	98.138733	0.000466	4.661658	1.579412	0.000187
 463	4.5969e+01	18.4006	98.332515	0.000486	4.864339	1.648083	0.000195
 464	4.6069e+01	18.4423	98.489963	0.000395	3.952275	1.339067	0.000158
 465	4.6168e+01	18.4856	98.687783	0.000497	4.965679	1.682418	0.000199
 466	4.6267e+01	18.5289	98.865417	0.000446	4.458977	1.510742	0.000179
 467	4.6367e+01	18.5530	99.063237	0.000497	4.965679	1.682418	0.000199
 468	4.6467e+01	18.5947	99.212611	0.000375	3.749594	1.270397	0.000150
 469	4.6566e+01	18.6428	99.406393	0.000486	4.864339	1.648083	0.000195
 470	4.6666e+01	18.6829	99.592102	0.000466	4.661658	1.579412	0.000187
 471	4.6765e+01	18.7278	99.781847	0.000476	4.762998	1.613747	0.000191
 472	4.6864e+01	18.7647	99.927184	0.000365	3.648254	1.236062	0.000146
 473	4.6964e+01	18.7936	100.125003	0.000497	4.965679	1.682418	0.000199
 474	4.7063e+01	18.8241	100.314749	0.000476	4.762998	1.613747	0.000191
 475	4.7163e+01	18.8786	100.488346	0.000436	4.357637	1.476407	0.000174
 476	4.7263e+01	18.9235	100.698277	0.000527	5.269700	1.785423	0.000211
 477	4.7362e+01	18.9556	100.823428	0.000314	3.141552	1.064387	0.000126
 478	4.7462e+01	19.0021	101.053545	0.000578	5.776402	1.957098	0.000231
 479	4.7561e+01	19.0406	101.206956	0.000385	3.850935	1.304732	0.000154
 480	4.7660e+01	19.0856	101.404775	0.000497	4.965679	1.682418	0.000199
 481	4.7760e+01	19.1144	101.590484	0.000466	4.661658	1.579412	0.000187
 482	4.7859e+01	19.1577	101.772155	0.000456	4.560317	1.545077	0.000183
 483	4.7959e+01	19.1995	101.949789	0.000446	4.458977	1.510742	0.000179
 484	4.8059e+01	19.2380	102.127423	0.000446	4.458977	1.510742	0.000179
 485	4.8158e+01	19.2749	102.321205	0.000486	4.864339	1.648083	0.000195
 486	4.8258e+01	19.3278	102.490765	0.000426	4.256296	1.442072	0.000170
 487	4.8357e+01	19.3535	102.672436	0.000456	4.560317	1.545077	0.000183
 488	4.8456e+01	19.3968	102.862181	0.000476	4.762998	1.613747	0.000191
 489	4.8556e+01	19.4337	103.055964	0.000486	4.864339	1.648083	0.000195
 490	4.8656e+01	19.4642	103.189189	0.000334	3.344233	1.133057	0.000134
 491	4.8755e+01	19.5123	103.366823	0.000446	4.458977	1.510742	0.000179
 492	4.8855e+01	19.5588	103.556569	0.000476	4.762998	1.613747	0.000191
 493	4.8954e+01	19.6005	103.750351	0.000486	4.864339	1.648083	0.000195
 494	4.9053e+01	19.6278	103.932022	0.000456	4.560317	1.545077	0.000183
 495	4.9153e+01	19.6743	104.085434	0.000385	3.850935	1.304732	0.000154
 496	4.9252e+01	19.7128	104.271142	0.000466	4.661658	1.579412	0.000187
 497	4.9352e+01	19.7481	104.464924	0.000486	4.864339	1.648083	0.000195
 498	4.9452e+01	19.7898	104.670818	0.000517	5.168360	1.751088	0.000207
 499	4.9551e+01	19.8347	104.808081	0.000345	3.445573	1.167392	0.000138
 500	4.9651e+01	19.8797	104.973603	0.000415	4.154956	1.407737	0.000166
 501	4.9750e+01	19.9069	105.147200	0.000436	4.357637	1.476407	0.000174
 502	4.9849e+01	19.9502	105.357131	0.000527	5.269700	1.785423	0.000211
 503	4.9949e+01	19.9903	105.522654	0.000415	4.154956	1.407737	0.000166
 504	5.0048e+01	19.9438	105.357131	0.000415	4.154956	1.407737	-0.000166
 505	5.0148e+01	19.9182	105.292537	0.000162	1.621446	0.549361	-0.000065
 506	5.0248e+01	19.8668	105.175460	0.000294	2.938871	0.995717	-0.000118
 507	5.0347e+01	19.8363	105.030123	0.000365	3.648254	1.236062	-0.000146
 508	5.0447e+01	19.7914	104.925158	0.000263	2.634850	0.892711	-0.000105
 509	5.0546e+01	19.7577	104.739450	0.000466	4.661658	1.579412	-0.000187
 510	5.0645e+01	19.7176	104.622373	0.000294	2.938871	0.995717	-0.000118
 511	5.0745e+01	19.6743	104.493184	0.000324	3.242892	1.098722	-0.000130
 512	5.0844e+01	19.6310	104.368033	0.000314	3.141552	1.064387	-0.000126
 513	5.0944e+01	19.5941	104.222696	0.000365	3.648254	1.236062	-0.000146
 514	5.1044e+01	19.5556	104.073322	0.000375	3.749594	1.270397	-0.000150
 515	5.1143e+01	19.5139	103.956245	0.000294	2.938871	0.995717	-0.000118
 516	5.1242e+01	19.4722	103.835131	0.000304	3.040212	1.030052	-0.000122
 517	5.1342e+01	19.4369	103.685757	0.000375	3.749594	1.270397	-0.000150
 518	5.1441e+01	19.3920	103.560606	0.000314	3.141552	1.064387	-0.000126
 519	5.1541e+01	19.3487	103.427380	0.000334	3.344233	1.133057	-0.000134
 520	5.1641e+01	19.3214	103.306266	0.000304	3.040212	1.030052	-0.000122
 521	5.1740e+01	19.2797	103.136707	0.000426	4.256296	1.442072	-0.000170
 522	5.1840e+01	19.2380	102.999444	0.000345	3.445573	1.167392	-0.000138
 523	5.1939e+01	19.1930	102.870256	0.000324	3.242892	1.098722	-0.000130
 524	5.2038e+01	19.1626	102.728956	0.000355	3.546914	1.201727	-0.000142
 525	5.2138e+01	19.1241	102.567471	0.000405	4.053615	1.373402	-0.000162
 526	5.2237e+01	19.0807	102.422134	0.000365	3.648254	1.236062	-0.000146
 527	5.2337e+01	19.0438	102.309094	0.000284	2.837531	0.961381	-0.000114
 528	5.2437e+01	18.9989	102.167794	0.000355	3.546914	1.201727	-0.000142
 529	5.2536e+01	18.9556	101.982086	0.000466	4.661658	1.579412	-0.000187
 530	5.2636e+01	18.9267	101.889232	0.000233	2.330829	0.789706	-0.000093
 531	5.2735e+01	18.8738	101.719672	0.000426	4.256296	1.442072	-0.000170
 532	5.2834e+01	18.8513	101.538001	0.000456	4.560317	1.545077	-0.000183
 533	5.2934e+01	18.7968	101.433035	0.000263	2.634850	0.892711	-0.000105
 534	5.3033e+01	18.7615	101.247327	0.000466	4.661658	1.579412	-0.000187
 535	5.3133e+01	18.7294	101.110065	0.000345	3.445573	1.167392	-0.000138
 536	5.3233e+01	18.6877	100.980876	0.000324	3.242892	1.098722	-0.000130
 537	5.3332e+01	18.6380	100.859762	0.000304	3.040212	1.030052	-0.000122
 538	5.3431e+01	18.5979	100.674054	0.000466	4.661658	1.579412	-0.000187
 539	5.3531e+01	18.5626	100.552940	0.000304	3.040212	1.030052	-0.000122
 540	5.3630e+01	18.5209	100.399529	0.000385	3.850935	1.304732	-0.000154
 541	5.3730e+01	18.4792	100.250155	0.000375	3.749594	1.270397	-0.000150
 542	5.3830e+01	18.4471	100.096743	0.000385	3.850935	1.304732	-0.000154
 543	5.3929e+01	18.3989	99.951407	0.000365	3.648254	1.236062	-0.000146
 544	5.4029e+01	18.3444	99.810107	0.000355	3.546914	1.201727	-0.000142
 545	5.4128e+01	18.3155	99.652659	0.000395	3.952275	1.339067	-0.000158
 546	5.4227e+01	18.2818	99.531544	0.000304	3.040212	1.030052	-0.000122
 547	5.4327e+01	18.2305	99.378133	0.000385	3.850935	1.304732	-0.000154
 548	5.4426e+01	18.1968	99.212611	0.000415	4.154956	1.407737	-0.000166
 549	5.4526e+01	18.1631	99.034977	0.000446	4.458977	1.510742	-0.000179
 550	5.4626e+01	18.1262	98.853306	0.000456	4.560317	1.545077	-0.000183
 551	5.4725e+01	18.0653	98.756414	0.000243	2.432169	0.824041	-0.000097
 552	5.4825e+01	18.0380	98.603003	0.000385	3.850935	1.304732	-0.000154
 553	5.4924e+01	17.9931	98.457666	0.000365	3.648254	1.236062	-0.000146
 554	5.5023e+01	17.9626	98.304255	0.000385	3.850935	1.304732	-0.000154
 555	5.5123e+01	17.9225	98.179104	0.000314	3.141552	1.064387	-0.000126
 556	5.5222e+01	17.8840	98.013581	0.000415	4.154956	1.407737	-0.000166
 557	5.5322e+01	17.8439	97.787502	0.000568	5.675062	1.922763	-0.000227
 558	5.5422e+01	17.8038	97.666388	0.000304	3.040212	1.030052	-0.000122
 559	5.5521e+01	17.7540	97.512977	0.000385	3.850935	1.304732	-0.000154
 560	5.5620e+01	17.7268	97.359565	0.000385	3.850935	1.304732	-0.000154
 561	5.5720e+01	17.6802	97.210191	0.000375	3.749594	1.270397	-0.000150
 562	5.5819e+01	17.6417	97.016409	0.000486	4.864339	1.648083	-0.000195
 563	5.5919e+01	17.6000	96.895295	0.000304	3.040212	1.030052	-0.000122
 564	5.6019e+01	17.5519	96.701512	0.000486	4.864339	1.648083	-0.000195
 565	5.6118e+01	17.5214	96.572324	0.000324	3.242892	1.098722	-0.000130
 566	5.6218e+01	17.4861	96.386616	0.000466	4.661658	1.579412	-0.000187
 567	5.6317e+01	17.4428	96.257427	0.000324	3.242892	1.098722	-0.000130
 568	5.6416e+01	17.4027	96.079793	0.000446	4.458977	1.510742	-0.000179
 569	5.6516e+01	17.3594	95.902159	0.000446	4.458977	1.510742	-0.000179
 570	5.6615e+01	17.3289	95.789120	0.000284	2.837531	0.961381	-0.000114
 571	5.6715e+01	17.2760	95.603411	0.000466	4.661658	1.579412	-0.000187
 572	5.6815e+01	17.2391	95.450000	0.000385	3.850935	1.304732	-0.000154
 573	5.6914e+01	17.1974	95.272366	0.000446	4.458977	1.510742	-0.000179
 574	5.7014e+01	17.1541	95.147215	0.000314	3.141552	1.064387	-0.000126
 575	5.7113e+01	17.1220	94.961507	0.000466	4.661658	1.579412	-0.000187
 576	5.7212e+01	17.0883	94.775799	0.000466	4.661658	1.579412	-0.000187
 577	5.7312e+01	17.0498	94.646610	0.000324	3.242892	1.098722	-0.000130
 578	5.7411e+01	17.0033	94.489162	0.000395	3.952275	1.339067	-0.000158
 579	5.7511e+01	16.9632	94.319602	0.000426	4.256296	1.442072	-0.000170
 580	5.7611e+01	16.9214	94.174265	0.000365	3.648254	1.236062	-0.000146
 581	5.7710e+01	16.8846	93.996631	0.000446	4.458977	1.510742	-0.000179
 582	5.7809e+01	16.8412	93.843220	0.000385	3.850935	1.304732	-0.000154
 583	5.7909e+01	16.8059	93.681735	0.000405	4.053615	1.373402	-0.000162
 584	5.8008e+01	16.7723	93.520249	0.000405	4.053615	1.373402	-0.000162
 585	5.8108e+01	16.7225	93.334541	0.000466	4.661658	1.579412	-0.000187
 586	5.8208e+01	16.6920	93.185167	0.000375	3.749594	1.270397	-0.000150
 587	5.8307e+01	16.6551	93.051942	0.000334	3.344233	1.133057	-0.000134
 588	5.8407e+01	16.6118	92.866233	0.000466	4.661658	1.579412	-0.000187
 589	5.8506e+01	16.5733	92.700711	0.000415	4.154956	1.407737	-0.000166
 590	5.8605e+01	16.5220	92.543263	0.000395	3.952275	1.339067	-0.000158
 591	5.8705e+01	16.4915	92.397926	0.000365	3.648254	1.236062	-0.000146
 592	5.8804e+01	16.4498	92.208180	0.000476	4.762998	1.613747	-0.000191
 593	5.8904e+01	16.4081	92.042658	0.000415	4.154956	1.407737	-0.000166
 594	5.9004e+01	16.3664	91.881172	0.000405	4.053615	1.373402	-0.000162
 595	5.9103e+01	16.3327	91.727761	0.000385	3.850935	1.304732	-0.000154
 596	5.9203e+01	16.2942	91.570313	0.000395	3.952275	1.339067	-0.000158
 597	5.9302e+01	16.2477	91.388642	0.000456	4.560317	1.545077	-0.000183
 598	5.9401e+01	16.2044	91.227156	0.000405	4.053615	1.373402	-0.000162
 599	5.9501e+01	16.1723	91.081819	0.000365	3.648254	1.236062	-0.000146
 600	5.9600e+01	16.1322	90.912260	0.000426	4.256296	1.442072	-0.000170
 601	5.9700e+01	16.0872	90.758849	0.000385	3.850935	1.304732	-0.000154
 602	5.9800e+01	16.0487	90.593326	0.000415	4.154956	1.407737	-0.000166
 603	5.9899e+01	16.0070	90.407618	0.000466	4.661658	1.579412	-0.000187
 604	5.9998e+01	15.9653	90.250169	0.000395	3.952275	1.339067	-0.000158
 605	6.0098e+01	15.9300	90.064461	0.000466	4.661658	1.579412	-0.000187
 606	6.0197e+01	15.8931	89.915087	0.000375	3.749594	1.270397	-0.000150
 607	6.0297e+01	15.8514	89.761676	0.000385	3.850935	1.304732	-0.000154
 608	6.0397e+01	15.7953	89.588079	0.000436	4.357637	1.476407	-0.000174
 609	6.0496e+01	15.7696	89.422557	0.000415	4.154956	1.407737	-0.000166
 610	6.0596e+01	15.7263	89.281257	0.000355	3.546914	1.201727	-0.000142
 611	6.0695e+01	15.6894	89.067289	0.000537	5.371041	1.819758	-0.000215
 612	6.0794e+01	15.6429	88.897729	0.000426	4.256296	1.442072	-0.000170
 613	6.0894e+01	15.6108	88.752392	0.000365	3.648254	1.236062	-0.000146
 614	6.0993e+01	15.5755	88.574758	0.000446	4.458977	1.510742	-0.000179
 615	6.1093e+01	15.5322	88.401161	0.000436	4.357637	1.476407	-0.000174
 616	6.1193e+01	15.4841	88.227564	0.000436	4.357637	1.476407	-0.000174
 617	6.1292e+01	15.4456	88.045893	0.000456	4.560317	1.545077	-0.000183
 618	6.1392e+01	15.4006	87.928816	0.000294	2.938871	0.995717	-0.000118
 619	6.1491e+01	15.3669	87.759257	0.000426	4.256296	1.442072	-0.000170
 620	6.1590e+01	15.3300	87.553363	0.000517	5.168360	1.751088	-0.000207
 621	6.1690e+01	15.2883	87.399952	0.000385	3.850935	1.304732	-0.000154
 622	6.1789e+01	15.2514	87.222318	0.000446	4.458977	1.510742	-0.000179
 623	6.1889e+01	15.2097	87.068906	0.000385	3.850935	1.304732	-0.000154
 624	6.1989e+01	15.1712	86.883198	0.000466	4.661658	1.579412	-0.000187
 625	6.2088e+01	15.1311	86.689416	0.000486	4.864339	1.648083	-0.000195
 626	6.2188e+01	15.0878	86.519856	0.000426	4.256296	1.442072	-0.000170
 627	6.2287e+01	15.0573	86.382593	0.000345	3.445573	1.167392	-0.000138
 628	6.2386e+01	15.0140	86.180737	0.000507	5.067019	1.716753	-0.000203
 629	6.2486e+01	14.9755	85.982917	0.000497	4.965679	1.682418	-0.000199
 630	6.2586e+01	14.9370	85.829506	0.000385	3.850935	1.304732	-0.000154
 631	6.2685e+01	14.8873	85.643798	0.000466	4.661658	1.579412	-0.000187
 632	6.2785e+01	14.8536	85.510572	0.000334	3.344233	1.133057	-0.000134
 633	6.2884e+01	14.8199	85.336975	0.000436	4.357637	1.476407	-0.000174
 634	6.2983e+01	14.7750	85.139156	0.000497	4.965679	1.682418	-0.000199
 635	6.3083e+01	14.7349	85.001893	0.000345	3.445573	1.167392	-0.000138
 636	6.3182e+01	14.6932	84.816185	0.000466	4.661658	1.579412	-0.000187
 637	6.3282e+01	14.6563	84.646625	0.000426	4.256296	1.442072	-0.000170
 638	6.3382e+01	14.6097	84.468991	0.000446	4.458977	1.510742	-0.000179
 639	6.3481e+01	14.5745	84.283283	0.000466	4.661658	1.579412	-0.000187
 640	6.3581e+01	14.5327	84.137946	0.000365	3.648254	1.236062	-0.000146
 641	6.3680e+01	14.5023	83.944163	0.000486	4.864339	1.648083	-0.000195
 642	6.3779e+01	14.4573	83.802864	0.000355	3.546914	1.201727	-0.000142
 643	6.3879e+01	14.4108	83.621193	0.000456	4.560317	1.545077	-0.000183
 644	6.3978e+01	14.3707	83.431447	0.000476	4.762998	1.613747	-0.000191
 645	6.4078e+01	14.3418	83.286110	0.000365	3.648254	1.236062	-0.000146
 646	6.4177e+01	14.2905	83.100402	0.000466	4.661658	1.579412	-0.000187
 647	6.4277e+01	14.2600	82.946991	0.000385	3.850935	1.304732	-0.000154
 648	6.4376e+01	14.2167	82.741097	0.000517	5.168360	1.751088	-0.000207
 649	6.4476e+01	14.1718	82.603834	0.000345	3.445573	1.167392	-0.000138
 650	6.4576e+01	14.1429	82.393903	0.000527	5.269700	1.785423	-0.000211
 651	6.4675e+01	14.0964	82.268752	0.000314	3.141552	1.064387	-0.000126
 652	6.4775e+01	14.0595	82.091118	0.000446	4.458977	1.510742	-0.000179
 653	6.4874e+01	14.0146	81.885224	0.000517	5.168360	1.751088	-0.000207
 654	6.4974e+01	13.9777	81.735850	0.000375	3.749594	1.270397	-0.000150
 655	6.5073e+01	13.9424	81.546105	0.000476	4.762998	1.613747	-0.000191
 656	6.5172e+01	13.8927	81.340211	0.000517	5.168360	1.751088	-0.000207
 657	6.5272e+01	13.8590	81.202948	0.000345	3.445573	1.167392	-0.000138
 658	6.5371e+01	13.8253	81.041463	0.000405	4.053615	1.373402	-0.000162
 659	6.5471e+01	13.7884	80.871903	0.000426	4.256296	1.442072	-0.000170
 660	6.5570e+01	13.7354	80.714455	0.000395	3.952275	1.339067	-0.000158
 661	6.5670e+01	13.6889	80.536821	0.000446	4.458977	1.510742	-0.000179
 662	6.5769e+01	13.6552	80.318816	0.000547	5.472381	1.854093	-0.000219
 663	6.5869e+01	13.6199	80.181553	0.000345	3.445573	1.167392	-0.000138
 664	6.5969e+01	13.5782	79.995845	0.000466	4.661658	1.579412	-0.000187
 665	6.6068e+01	13.5397	79.802062	0.000486	4.864339	1.648083	-0.000195
 666	6.6168e+01	13.4948	79.608280	0.000486	4.864339	1.648083	-0.000195
 667	6.6267e+01	13.4547	79.434683	0.000436	4.357637	1.476407	-0.000174
 668	6.6367e+01	13.4226	79.273197	0.000405	4.053615	1.373402	-0.000162
 669	6.6466e+01	13.3745	79.107675	0.000415	4.154956	1.407737	-0.000166
 670	6.6566e+01	13.3520	78.881595	0.000568	5.675062	1.922763	-0.000227
 671	6.6665e+01	13.2975	78.740295	0.000355	3.546914	1.201727	-0.000142
 672	6.6764e+01	13.2654	78.566699	0.000436	4.357637	1.476407	-0.000174
 673	6.6864e+01	13.2285	78.385027	0.000456	4.560317	1.545077	-0.000183
 674	6.6963e+01	13.1724	78.183171	0.000507	5.067019	1.716753	-0.000203
 675	6.7063e+01	13.1371	77.993425	0.000476	4.762998	1.613747	-0.000191
 676	6.7162e+01	13.1018	77.823866	0.000426	4.256296	1.442072	-0.000170
 677	6.7262e+01	13.0520	77.666417	0.000395	3.952275	1.339067	-0.000158
 678	6.7362e+01	13.0183	77.484746	0.000456	4.560317	1.545077	-0.000183
 679	6.7461e+01	12.9782	77.295001	0.000476	4.762998	1.613747	-0.000191
 680	6.7561e+01	12.9397	77.165812	0.000324	3.242892	1.098722	-0.000130
 681	6.7660e+01	12.8980	76.955881	0.000527	5.269700	1.785423	-0.000211
 682	6.7760e+01	12.8627	76.725765	0.000578	5.776402	1.957098	-0.000231
 683	6.7859e+01	12.8258	76.596576	0.000324	3.242892	1.098722	-0.000130
 684	6.7959e+01	12.7841	76.414905	0.000456	4.560317	1.545077	-0.000183
 685	6.8058e+01	12.7488	76.237271	0.000446	4.458977	1.510742	-0.000179
 686	6.8157e+01	12.7184	76.075786	0.000405	4.053615	1.373402	-0.000162
 687	6.8257e+01	12.6654	75.890078	0.000466	4.661658	1.579412	-0.000187
 688	6.8356e+01	12.6221	75.684184	0.000517	5.168360	1.751088	-0.000207
 689	6.8456e+01	12.5868	75.490401	0.000486	4.864339	1.648083	-0.000195
 690	6.8555e+01	12.5403	75.296619	0.000486	4.864339	1.648083	-0.000195
 691	6.8655e+01	12.5018	75.159356	0.000345	3.445573	1.167392	-0.000138
 692	6.8754e+01	12.4601	74.937314	0.000557	5.573721	1.888428	-0.000223
 693	6.8854e+01	12.4248	74.796014	0.000355	3.546914	1.201727	-0.000142
 694	6.8954e+01	12.3831	74.586083	0.000527	5.269700	1.785423	-0.000211
 695	6.9053e+01	12.3382	74.400375	0.000466	4.661658	1.579412	-0.000187
 696	6.9153e+01	12.2932	74.214666	0.000466	4.661658	1.579412	-0.000187
 697	6.9252e+01	12.2676	74.057218	0.000395	3.952275	1.339067	-0.000158
 698	6.9352e+01	12.2226	73.847287	0.000527	5.269700	1.785423	-0.000211
 699	6.9451e+01	12.1793	73.673690	0.000436	4.357637	1.476407	-0.000174
 700	6.9550e+01	12.1456	73.492019	0.000456	4.560317	1.545077	-0.000183
 701	6.9650e+01	12.1120	73.302274	0.000476	4.762998	1.613747	-0.000191
 702	6.9749e+01	12.0622	73.124640	0.000446	4.458977	1.510742	-0.000179
 703	6.9849e+01	12.0269	72.963154	0.000405	4.053615	1.373402	-0.000162
 704	6.9948e+01	11.9740	72.753223	0.000527	5.269700	1.785423	-0.000211
 705	7.0048e+01	11.9419	72.555403	0.000497	4.965679	1.682418	-0.000199
 706	7.0147e+01	11.9114	72.361621	0.000486	4.864339	1.648083	-0.000195
 707	7.0247e+01	11.8697	72.171876	0.000476	4.762998	1.613747	-0.000191
 708	7.0347e+01	11.8264	72.006353	0.000415	4.154956	1.407737	-0.000166
 709	7.0446e+01	11.7863	71.832756	0.000436	4.357637	1.476407	-0.000174
 710	7.0546e+01	11.7430	71.647048	0.000466	4.661658	1.579412	-0.000187
 711	7.0645e+01	11.7125	71.437117	0.000527	5.269700	1.785423	-0.000211
 712	7.0745e+01	11.6660	71.255446	0.000456	4.560317	1.545077	-0.000183
 713	7.0844e+01	11.6419	71.085886	0.000426	4.256296	1.442072	-0.000170
 714	7.0944e+01	11.5890	70.892104	0.000486	4.864339	1.648083	-0.000195
 715	7.1043e+01	11.5473	70.714470	0.000446	4.458977	1.510742	-0.000179
 716	7.1142e+01	11.5007	70.508576	0.000517	5.168360	1.751088	-0.000207
 717	7.1242e+01	11.4719	70.334979	0.000436	4.357637	1.476407	-0.000174
 718	7.1341e+01	11.4221	70.145233	0.000476	4.762998	1.613747	-0.000191
 719	7.1441e+01	11.3901	69.951451	0.000486	4.864339	1.648083	-0.000195
 720	7.1540e+01	11.3499	69.725371	0.000568	5.675062	1.922763	-0.000227
 721	7.1640e+01	11.3147	69.567923	0.000395	3.952275	1.339067	-0.000158
 722	7.1740e+01	11.2649	69.341843	0.000568	5.675062	1.922763	-0.000227
 723	7.1839e+01	11.2280	69.160172	0.000456	4.560317	1.545077	-0.000183
 724	7.1939e+01	11.1863	68.982538	0.000446	4.458977	1.510742	-0.000179
 725	7.2038e+01	11.1510	68.772607	0.000527	5.269700	1.785423	-0.000211
 726	7.2138e+01	11.1173	68.590936	0.000456	4.560317	1.545077	-0.000183
 727	7.2237e+01	11.0740	68.405228	0.000466	4.661658	1.579412	-0.000187
 728	7.2337e+01	11.0387	68.183185	0.000557	5.573721	1.888428	-0.000223
 729	7.2436e+01	10.9922	68.005552	0.000446	4.458977	1.510742	-0.000179
 730	7.2535e+01	10.9409	67.823880	0.000456	4.560317	1.545077	-0.000183
 731	7.2635e+01	10.9056	67.634135	0.000476	4.762998	1.613747	-0.000191
 732	7.2734e+01	10.8783	67.416130	0.000547	5.472381	1.854093	-0.000219
 733	7.2834e+01	10.8318	67.206199	0.000527	5.269700	1.785423	-0.000211
 734	7.2933e+01	10.7917	67.077010	0.000324	3.242892	1.098722	-0.000130
 735	7.3033e+01	10.7435	66.810559	0.000669	6.688466	2.266113	-0.000268
 736	7.3132e+01	10.7099	66.649074	0.000405	4.053615	1.373402	-0.000162
 737	7.3232e+01	10.6778	66.463366	0.000466	4.661658	1.579412	-0.000187
 738	7.3332e+01	10.6296	66.229212	0.000588	5.877742	1.991433	-0.000235
 739	7.3431e+01	10.5863	66.051578	0.000446	4.458977	1.510742	-0.000179
 740	7.3531e+01	10.5542	65.849721	0.000507	5.067019	1.716753	-0.000203
 741	7.3630e+01	10.5141	65.655939	0.000486	4.864339	1.648083	-0.000195
 742	7.3730e+01	10.4740	65.454082	0.000507	5.067019	1.716753	-0.000203
 743	7.3829e+01	10.4275	65.236076	0.000547	5.472381	1.854093	-0.000219
 744	7.3928e+01	10.3858	65.082665	0.000385	3.850935	1.304732	-0.000154
 745	7.4028e+01	10.3505	64.880808	0.000507	5.067019	1.716753	-0.000203
 746	7.4127e+01	10.3200	64.662803	0.000547	5.472381	1.854093	-0.000219
 747	7.4227e+01	10.2751	64.428649	0.000588	5.877742	1.991433	-0.000235
 748	7.4326e+01	10.2254	64.263127	0.000415	4.154956	1.407737	-0.000166
 749	7.4426e+01	10.1837	64.069344	0.000486	4.864339	1.648083	-0.000195
 750	7.4525e+01	10.1516	63.859413	0.000527	5.269700	1.785423	-0.000211
 751	7.4625e+01	10.1147	63.657556	0.000507	5.067019	1.716753	-0.000203
 752	7.4725e+01	10.0794	63.451662	0.000517	5.168360	1.751088	-0.000207
 753	7.4824e+01	10.0329	63.298251	0.000385	3.850935	1.304732	-0.000154
 754	7.4924e+01	9.9944	63.031800	0.000669	6.688466	2.266113	-0.000268
 755	7.5023e+01	9.9559	62.874352	0.000395	3.952275	1.339067	-0.000158
 756	7.5123e+01	9.9142	62.648272	0.000568	5.675062	1.922763	-0.000227
 757	7.5222e+01	9.8724	62.442378	0.000517	5.168360	1.751088	-0.000207
 758	7.5322e+01	9.8323	62.276856	0.000415	4.154956	1.407737	-0.000166
 759	7.5421e+01	9.7906	62.066925	0.000527	5.269700	1.785423	-0.000211
 760	7.5520e+01	9.7602	61.852957	0.000537	5.371041	1.819758	-0.000215
 761	7.5620e+01	9.7136	61.667248	0.000466	4.661658	1.579412	-0.000187
 762	7.5719e+01	9.6783	61.465392	0.000507	5.067019	1.716753	-0.000203
 763	7.5819e+01	9.6350	61.283721	0.000456	4.560317	1.545077	-0.000183
 764	7.5918e+01	9.5901	61.089938	0.000486	4.864339	1.648083	-0.000195
 765	7.6018e+01	9.5644	60.871933	0.000547	5.472381	1.854093	-0.000219
 766	7.6118e+01	9.5083	60.653927	0.000547	5.472381	1.854093	-0.000219
 767	7.6217e+01	9.4714	60.452071	0.000507	5.067019	1.716753	-0.000203
 768	7.6317e+01	9.4297	60.274437	0.000446	4.458977	1.510742	-0.000179
 769	7.6416e+01	9.3928	60.048357	0.000568	5.675062	1.922763	-0.000227
 770	7.6516e+01	9.3607	59.870723	0.000446	4.458977	1.510742	-0.000179
 771	7.6615e+01	9.3318	59.632532	0.000598	5.979083	2.025768	-0.000239
 772	7.6715e+01	9.2789	59.442787	0.000476	4.762998	1.613747	-0.000191
 773	7.6814e+01	9.2308	59.261115	0.000456	4.560317	1.545077	-0.000183
 774	7.6913e+01	9.2035	59.026962	0.000588	5.877742	1.991433	-0.000235
 775	7.7013e+01	9.1505	58.849328	0.000446	4.458977	1.510742	-0.000179
 776	7.7112e+01	9.1120	58.611137	0.000598	5.979083	2.025768	-0.000239
 777	7.7212e+01	9.0800	58.421391	0.000476	4.762998	1.613747	-0.000191
 778	7.7311e+01	9.0334	58.223572	0.000497	4.965679	1.682418	-0.000199
 779	7.7411e+01	8.9949	57.993455	0.000578	5.776402	1.957098	-0.000231
 780	7.7510e+01	8.9661	57.819858	0.000436	4.357637	1.476407	-0.000174
 781	7.7610e+01	8.9147	57.622038	0.000497	4.965679	1.682418	-0.000199
 782	7.7710e+01	8.8778	57.363662	0.000649	6.485785	2.197443	-0.000260
 783	7.7809e+01	8.8425	57.149694	0.000537	5.371041	1.819758	-0.000215
 784	7.7909e+01	8.7992	56.972060	0.000446	4.458977	1.510742	-0.000179
 785	7.8008e+01	8.7623	56.794426	0.000446	4.458977	1.510742	-0.000179
 786	7.8108e+01	8.7158	56.576420	0.000547	5.472381	1.854093	-0.000219
 787	7.8207e+01	8.6741	56.378601	0.000497	4.965679	1.682418	-0.000199
 788	7.8306e+01	8.6308	56.160595	0.000547	5.472381	1.854093	-0.000219
 789	7.8406e+01	8.5987	55.954701	0.000517	5.168360	1.751088	-0.000207
 790	7.8505e+01	8.5618	55.680176	0.000689	6.891146	2.334784	-0.000276
 791	7.8605e+01	8.5185	55.498505	0.000456	4.560317	1.545077	-0.000183
 792	7.8704e+01	8.4752	55.316834	0.000456	4.560317	1.545077	-0.000183
 793	7.8804e+01	8.4431	55.070569	0.000618	6.181764	2.094438	-0.000248
 794	7.8903e+01	8.3966	54.888897	0.000456	4.560317	1.545077	-0.000183
 795	7.9003e+01	8.3613	54.678966	0.000527	5.269700	1.785423	-0.000211
 796	7.9103e+01	8.3163	54.473073	0.000517	5.168360	1.751088	-0.000207
 797	7.9202e+01	8.2859	54.246993	0.000568	5.675062	1.922763	-0.000227
 798	7.9302e+01	8.2409	54.008802	0.000598	5.979083	2.025768	-0.000239
 799	7.9401e+01	8.1864	53.851354	0.000395	3.952275	1.339067	-0.000158
 800	7.9501e+01	8.1575	53.584903	0.000669	6.688466	2.266113	-0.000268
 801	7.9600e+01	8.1222	53.435529	0.000375	3.749594	1.270397	-0.000150
 802	7.9700e+01	8.0773	53.177152	0.000649	6.485785	2.197443	-0.000260
 803	7.9799e+01	8.0388	53.011629	0.000415	4.154956	1.407737	-0.000166
 804	7.9898e+01	7.9955	52.793624	0.000547	5.472381	1.854093	-0.000219
 805	7.9998e+01	7.9570	52.571582	0.000557	5.573721	1.888428	-0.000223
 806	8.0097e+01	7.9233	52.365688	0.000517	5.168360	1.751088	-0.000207
 807	8.0197e+01	7.8864	52.184017	0.000456	4.560317	1.545077	-0.000183
 808	8.0296e+01	7.8447	51.941788	0.000608	6.080423	2.060103	-0.000243
 809	8.0396e+01	7.7982	51.784340	0.000395	3.952275	1.339067	-0.000158
 810	8.0496e+01	7.7549	51.517889	0.000669	6.688466	2.266113	-0.000268
 811	8.0595e+01	7.7180	51.352367	0.000415	4.154956	1.407737	-0.000166
 812	8.0695e+01	7.6795	51.126287	0.000568	5.675062	1.922763	-0.000227
 813	8.0794e+01	7.6490	50.944616	0.000456	4.560317	1.545077	-0.000183
 814	8.0894e+01	7.6025	50.698351	0.000618	6.181764	2.094438	-0.000248
 815	8.0993e+01	7.5591	50.496494	0.000507	5.067019	1.716753	-0.000203
 816	8.1093e+01	7.5287	50.302711	0.000486	4.864339	1.648083	-0.000195
 817	8.1192e+01	7.4805	50.060483	0.000608	6.080423	2.060103	-0.000243
 818	8.1291e+01	7.4372	49.854589	0.000517	5.168360	1.751088	-0.000207
 819	8.1391e+01	7.4051	49.680992	0.000436	4.357637	1.476407	-0.000174
 820	8.1490e+01	7.3602	49.458950	0.000557	5.573721	1.888428	-0.000223
 821	8.1590e+01	7.3297	49.220759	0.000598	5.979083	2.025768	-0.000239
 822	8.1689e+01	7.2832	49.026976	0.000486	4.864339	1.648083	-0.000195
 823	8.1789e+01	7.2415	48.792823	0.000588	5.877742	1.991433	-0.000235
 824	8.1888e+01	7.1998	48.582891	0.000527	5.269700	1.785423	-0.000211
 825	8.1988e+01	7.1645	48.344700	0.000598	5.979083	2.025768	-0.000239
 826	8.2088e+01	7.1276	48.122658	0.000557	5.573721	1.888428	-0.000223
 827	8.2187e+01	7.0795	47.928875	0.000486	4.864339	1.648083	-0.000195
 828	8.2287e+01	7.0522	47.735093	0.000486	4.864339	1.648083	-0.000195
 829	8.2386e+01	7.0089	47.565533	0.000426	4.256296	1.442072	-0.000170
 830	8.2486e+01	6.9624	47.291008	0.000689	6.891146	2.334784	-0.000276
 831	8.2585e+01	6.9223	47.060891	0.000578	5.776402	1.957098	-0.000231
 832	8.2684e+01	6.8918	46.915554	0.000365	3.648254	1.236062	-0.000146
 833	8.2784e+01	6.8437	46.649103	0.000669	6.688466	2.266113	-0.000268
 834	8.2883e+01	6.8100	46.439172	0.000527	5.269700	1.785423	-0.000211
 835	8.2983e+01	6.7667	46.196944	0.000608	6.080423	2.060103	-0.000243
 836	8.3082e+01	6.7282	46.011236	0.000466	4.661658	1.579412	-0.000187
 837	8.3182e+01	6.6864	45.781119	0.000578	5.776402	1.957098	-0.000231
 838	8.3281e+01	6.6479	45.595411	0.000466	4.661658	1.579412	-0.000187
 839	8.3381e+01	6.5982	45.381443	0.000537	5.371041	1.819758	-0.000215
 840	8.3481e+01	6.5613	45.155363	0.000568	5.675062	1.922763	-0.000227
 841	8.3580e+01	6.5308	44.933321	0.000557	5.573721	1.888428	-0.000223
 842	8.3680e+01	6.4795	44.723390	0.000527	5.269700	1.785423	-0.000211
 843	8.3779e+01	6.4474	44.489236	0.000588	5.877742	1.991433	-0.000235
 844	8.3879e+01	6.4137	44.287379	0.000507	5.067019	1.716753	-0.000203
 845	8.3978e+01	6.3672	44.061299	0.000568	5.675062	1.922763	-0.000227
 846	8.4078e+01	6.3287	43.810997	0.000628	6.283104	2.128773	-0.000252
 847	8.4177e+01	6.2902	43.613177	0.000497	4.965679	1.682418	-0.000199
 848	8.4276e+01	6.2533	43.383061	0.000578	5.776402	1.957098	-0.000231
 849	8.4376e+01	6.2036	43.185241	0.000497	4.965679	1.682418	-0.000199
 850	8.4475e+01	6.1731	42.959161	0.000568	5.675062	1.922763	-0.000227
 851	8.4575e+01	6.1298	42.737119	0.000557	5.573721	1.888428	-0.000223
 852	8.4674e+01	6.0849	42.494891	0.000608	6.080423	2.060103	-0.000243
 853	8.4774e+01	6.0480	42.288997	0.000517	5.168360	1.751088	-0.000207
 854	8.4874e+01	6.0111	42.042732	0.000618	6.181764	2.094438	-0.000248
 855	8.4973e+01	5.9677	41.852986	0.000476	4.762998	1.613747	-0.000191
 856	8.5073e+01	5.9276	41.651129	0.000507	5.067019	1.716753	-0.000203
 857	8.5172e+01	5.8988	41.429087	0.000557	5.573721	1.888428	-0.000223
 858	8.5272e+01	5.8587	41.182822	0.000618	6.181764	2.094438	-0.000248
 859	8.5371e+01	5.8105	40.980965	0.000507	5.067019	1.716753	-0.000203
 860	8.5471e+01	5.7672	40.746811	0.000588	5.877742	1.991433	-0.000235
 861	8.5570e+01	5.7287	40.524769	0.000557	5.573721	1.888428	-0.000223
 862	8.5669e+01	5.6870	40.274466	0.000628	6.283104	2.128773	-0.000252
 863	8.5769e+01	5.6485	40.064535	0.000527	5.269700	1.785423	-0.000211
 864	8.5868e+01	5.6116	39.830381	0.000588	5.877742	1.991433	-0.000235
 865	8.5968e+01	5.5651	39.636599	0.000486	4.864339	1.648083	-0.000195
 866	8.6067e+01	5.5250	39.378222	0.000649	6.485785	2.197443	-0.000260
 867	8.6167e+01	5.4865	39.176365	0.000507	5.067019	1.716753	-0.000203
 868	8.6266e+01	5.4560	38.978546	0.000497	4.965679	1.682418	-0.000199
 869	8.6366e+01	5.4079	38.740355	0.000598	5.979083	2.025768	-0.000239
 870	8.6466e+01	5.3678	38.498126	0.000608	6.080423	2.060103	-0.000243
 871	8.6565e+01	5.3277	38.308381	0.000476	4.762998	1.613747	-0.000191
 872	8.6665e+01	5.3004	38.062116	0.000618	6.181764	2.094438	-0.000248
 873	8.6764e+01	5.2539	37.864296	0.000497	4.965679	1.682418	-0.000199
 874	8.6864e+01	5.2105	37.601882	0.000659	6.587125	2.231778	-0.000264
 875	8.6963e+01	5.1753	37.379840	0.000557	5.573721	1.888428	-0.000223
 876	8.7063e+01	5.1303	37.186057	0.000486	4.864339	1.648083	-0.000195
 877	8.7162e+01	5.0886	36.947866	0.000598	5.979083	2.025768	-0.000239
 878	8.7261e+01	5.0581	36.705638	0.000608	6.080423	2.060103	-0.000243
 879	8.7361e+01	5.0132	36.475521	0.000578	5.776402	1.957098	-0.000231
 880	8.7460e+01	4.9731	36.261553	0.000537	5.371041	1.819758	-0.000215
 881	8.7560e+01	4.9234	36.059696	0.000507	5.067019	1.716753	-0.000203
 882	8.7659e+01	4.8961	35.817468	0.000608	6.080423	2.060103	-0.000243
 883	8.7759e+01	4.8544	35.607537	0.000527	5.269700	1.785423	-0.000211
 884	8.7859e+01	4.8095	35.357235	0.000628	6.283104	2.128773	-0.000252
 885	8.7958e+01	4.7774	35.110970	0.000618	6.181764	2.094438	-0.000248
 886	8.8058e+01	4.7245	34.876816	0.000588	5.877742	1.991433	-0.000235
 887	8.8157e+01	4.6860	34.654773	0.000557	5.573721	1.888428	-0.000223
 888	8.8257e+01	4.6523	34.444842	0.000527	5.269700	1.785423	-0.000211
 889	8.8356e+01	4.6138	34.202614	0.000608	6.080423	2.060103	-0.000243
 890	8.8456e+01	4.5656	33.964423	0.000598	5.979083	2.025768	-0.000239
 891	8.8555e+01	4.5400	33.738343	0.000568	5.675062	1.922763	-0.000227
 892	8.8654e+01	4.4902	33.475930	0.000659	6.587125	2.231778	-0.000264
 893	8.8754e+01	4.4469	33.294258	0.000456	4.560317	1.545077	-0.000183
 894	8.8853e+01	4.4100	33.072216	0.000557	5.573721	1.888428	-0.000223
 895	8.8953e+01	4.3780	32.805765	0.000669	6.688466	2.266113	-0.000268
 896	8.9052e+01	4.3330	32.587760	0.000547	5.472381	1.854093	-0.000219
 897	8.9152e+01	4.2977	32.353606	0.000588	5.877742	1.991433	-0.000235
 898	8.9251e+01	4.2544	32.075043	0.000699	6.992487	2.369119	-0.000280
 899	8.9351e+01	4.2143	31.832815	0.000608	6.080423	2.060103	-0.000243
 900	8.9451e+01	4.1710	31.634996	0.000497	4.965679	1.682418	-0.000199
 901	8.9550e+01	4.1357	31.433139	0.000507	5.067019	1.716753	-0.000203
 902	8.9650e+01	4.0940	31.146502	0.000720	7.195167	2.437789	-0.000288
 903	8.9749e+01	4.0523	30.896200	0.000628	6.283104	2.128773	-0.000252
 904	8.9849e+01	4.0202	30.666083	0.000578	5.776402	1.957098	-0.000231
 905	8.9948e+01	3.9737	30.456152	0.000527	5.269700	1.785423	-0.000211
 906	9.0047e+01	3.9368	30.246221	0.000527	5.269700	1.785423	-0.000211
 907	9.0147e+01	3.8871	29.999956	0.000618	6.181764	2.094438	-0.000248
 908	9.0246e+01	3.8566	29.757728	0.000608	6.080423	2.060103	-0.000243
 909	9.0346e+01	3.8165	29.507425	0.000628	6.283104	2.128773	-0.000252
 910	9.0445e+01	3.7748	29.273271	0.000588	5.877742	1.991433	-0.000235
 911	9.0545e+01	3.7347	29.059303	0.000537	5.371041	1.819758	-0.000215
 912	9.0644e+01	3.6962	28.796889	0.000659	6.587125	2.231778	-0.000264
 913	9.0744e+01	3.6577	28.590995	0.000517	5.168360	1.751088	-0.000207
 914	9.0844e+01	3.6208	28.320507	0.000679	6.789806	2.300449	-0.000272
 915	9.0943e+01	3.5694	28.126725	0.000486	4.864339	1.648083	-0.000195
 916	9.1043e+01	3.5421	27.827977	0.000750	7.499189	2.540794	-0.000300
 917	9.1142e+01	3.5069	27.618046	0.000527	5.269700	1.785423	-0.000211
 918	9.1242e+01	3.4523	27.371780	0.000618	6.181764	2.094438	-0.000248
 919	9.1341e+01	3.4170	27.141664	0.000578	5.776402	1.957098	-0.000231
 920	9.1441e+01	3.3801	26.927695	0.000537	5.371041	1.819758	-0.000215
 921	9.1540e+01	3.3368	26.693541	0.000588	5.877742	1.991433	-0.000235
 922	9.1639e+01	3.2967	26.419016	0.000689	6.891146	2.334784	-0.000276
 923	9.1739e+01	3.2582	26.176788	0.000608	6.080423	2.060103	-0.000243
 924	9.1838e+01	3.2213	25.922449	0.000638	6.384444	2.163108	-0.000256
 925	9.1938e+01	3.1748	25.716555	0.000517	5.168360	1.751088	-0.000207
 926	9.2037e+01	3.1363	25.494512	0.000557	5.573721	1.888428	-0.000223
 927	9.2137e+01	3.0978	25.236135	0.000649	6.485785	2.197443	-0.000260
 928	9.2237e+01	3.0657	24.969685	0.000669	6.688466	2.266113	-0.000268
 929	9.2336e+01	3.0192	24.775902	0.000486	4.864339	1.648083	-0.000195
 930	9.2436e+01	2.9903	24.509451	0.000669	6.688466	2.266113	-0.000268
 931	9.2535e+01	2.9438	24.319706	0.000476	4.762998	1.613747	-0.000191
 932	9.2635e+01	2.9005	24.069403	0.000628	6.283104	2.128773	-0.000252
 933	9.2734e+01	2.8555	23.766618	0.000760	7.600529	2.575129	-0.000304
 934	9.2834e+01	2.8170	23.536501	0.000578	5.776402	1.957098	-0.000231
 935	9.2933e+01	2.7866	23.334645	0.000507	5.067019	1.716753	-0.000203
 936	9.3032e+01	2.7448	23.112602	0.000557	5.573721	1.888428	-0.000223
 937	9.3132e+01	2.7047	22.834040	0.000699	6.992487	2.369119	-0.000280
 938	9.3231e+01	2.6646	22.559515	0.000689	6.891146	2.334784	-0.000276
 939	9.3331e+01	2.6213	22.357658	0.000507	5.067019	1.716753	-0.000203
 940	9.3430e+01	2.5796	22.111392	0.000618	6.181764	2.094438	-0.000248
 941	9.3530e+01	2.5443	21.881276	0.000578	5.776402	1.957098	-0.000231
 942	9.3629e+01	2.5074	21.635010	0.000618	6.181764	2.094438	-0.000248
 943	9.3729e+01	2.4529	21.372597	0.000659	6.587125	2.231778	-0.000264
 944	9.3829e+01	2.4256	21.174777	0.000497	4.965679	1.682418	-0.000199
 945	9.3928e+01	2.3759	20.912363	0.000659	6.587125	2.231778	-0.000264
 946	9.4028e+01	2.3550	20.625726	0.000720	7.195167	2.437789	-0.000288
 947	9.4127e+01	2.3021	20.415795	0.000527	5.269700	1.785423	-0.000211
 948	9.4227e+01	2.2636	20.189716	0.000568	5.675062	1.922763	-0.000227
 949	9.4326e+01	2.2203	19.911153	0.000699	6.992487	2.369119	-0.000280
 950	9.4425e+01	2.1818	19.717371	0.000486	4.864339	1.648083	-0.000195
 951	9.4525e+01	2.1481	19.454957	0.000659	6.587125	2.231778	-0.000264
 952	9.4624e+01	2.1048	19.212729	0.000608	6.080423	2.060103	-0.000243
 953	9.4724e+01	2.0679	18.946278	0.000669	6.688466	2.266113	-0.000268
 954	9.4823e+01	2.0213	18.716161	0.000578	5.776402	1.957098	-0.000231
 955	9.4923e+01	1.9780	18.449710	0.000669	6.688466	2.266113	-0.000268
 956	9.5022e+01	1.9379	18.203445	0.000618	6.181764	2.094438	-0.000248
 957	9.5122e+01	1.8978	17.965254	0.000598	5.979083	2.025768	-0.000239
 958	9.5222e+01	1.8673	17.710914	0.000638	6.384444	2.163108	-0.000256
 959	9.5321e+01	1.8240	17.500983	0.000527	5.269700	1.785423	-0.000211
 960	9.5421e+01	1.7903	17.222421	0.000699	6.992487	2.369119	-0.000280
 961	9.5520e+01	1.7534	16.992304	0.000578	5.776402	1.957098	-0.000231
 962	9.5620e+01	1.7021	16.713742	0.000699	6.992487	2.369119	-0.000280
 963	9.5719e+01	1.6652	16.463440	0.000628	6.283104	2.128773	-0.000252
 964	9.5819e+01	1.6187	16.221211	0.000608	6.080423	2.060103	-0.000243
 965	9.5918e+01	1.5834	15.970909	0.000628	6.283104	2.128773	-0.000252
 966	9.6017e+01	1.5465	15.712532	0.000649	6.485785	2.197443	-0.000260
 967	9.6117e+01	1.5016	15.486453	0.000568	5.675062	1.922763	-0.000227
 968	9.6216e+01	1.4679	15.260373	0.000568	5.675062	1.922763	-0.000227
 969	9.6316e+01	1.4278	14.985848	0.000689	6.891146	2.334784	-0.000276
 970	9.6415e+01	1.3845	14.759768	0.000568	5.675062	1.922763	-0.000227
 971	9.6515e+01	1.3411	14.493317	0.000669	6.688466	2.266113	-0.000268
 972	9.6615e+01	1.3042	14.267238	0.000568	5.675062	1.922763	-0.000227
 973	9.6714e+01	1.2689	14.008861	0.000649	6.485785	2.197443	-0.000260
 974	9.6814e+01	1.2321	13.750484	0.000649	6.485785	2.197443	-0.000260
 975	9.6913e+01	1.1791	13.512293	0.000598	5.979083	2.025768	-0.000239
 976	9.7013e+01	1.1390	13.266028	0.000618	6.181764	2.094438	-0.000248
 977	9.7112e+01	1.1037	13.019763	0.000618	6.181764	2.094438	-0.000248
 978	9.7212e+01	1.0748	12.761386	0.000649	6.485785	2.197443	-0.000260
 979	9.7311e+01	1.0315	12.470712	0.000730	7.296508	2.472124	-0.000292
 980	9.7410e+01	0.9834	12.268856	0.000507	5.067019	1.716753	-0.000203
 981	9.7510e+01	0.9385	12.030664	0.000598	5.979083	2.025768	-0.000239
 982	9.7609e+01	0.8920	11.796511	0.000588	5.877742	1.991433	-0.000235
 983	9.7709e+01	0.8743	11.554282	0.000608	6.080423	2.060103	-0.000243
 984	9.7808e+01	0.8246	11.283794	0.000679	6.789806	2.300449	-0.000272
 985	9.7908e+01	0.7861	11.029455	0.000638	6.384444	2.163108	-0.000256
 986	9.8007e+01	0.7460	10.791264	0.000598	5.979083	2.025768	-0.000239
 987	9.8107e+01	0.7010	10.540961	0.000628	6.283104	2.128773	-0.000252
 988	9.8207e+01	0.6625	10.290659	0.000628	6.283104	2.128773	-0.000252
 989	9.8306e+01	0.6273	10.056505	0.000588	5.877742	1.991433	-0.000235
 990	9.8406e+01	0.5871	9.798128	0.000649	6.485785	2.197443	-0.000260
 991	9.8505e+01	0.5486	9.527640	0.000679	6.789806	2.300449	-0.000272
 992	9.8605e+01	0.4989	9.309635	0.000547	5.472381	1.854093	-0.000219
 993	9.8704e+01	0.4668	9.027036	0.000709	7.093827	2.403454	-0.000284
 994	9.8803e+01	0.4299	8.784807	0.000608	6.080423	2.060103	-0.000243
 995	9.8903e+01	0.3866	8.546616	0.000598	5.979083	2.025768	-0.000239
 996	9.9002e+01	0.3385	8.255943	0.000730	7.296508	2.472124	-0.000292
 997	9.9102e+01	0.3128	8.029863	0.000568	5.675062	1.922763	-0.000227
 998	9.9201e+01	0.2679	7.799746	0.000578	5.776402	1.957098	-0.000231
 999	9.9301e+01	0.2278	7.557518	0.000608	6.080423	2.060103	-0.000243
1000	9.9400e+01	0.1797	7.311253	0.000618	6.181764	2.094438	-0.000248
1001	9.9500e+01	0.1492	7.024616	0.000720	7.195167	2.437789	-0.000288
1002	9.9600e+01	0.1107	6.770277	0.000638	6.384444	2.163108	-0.000256
1003	9.9699e+01	0.0658	6.515937	0.000638	6.384444	2.163108	-0.000256
1004	9.9799e+01	0.0321	6.241412	0.000689	6.891146	2.334784	-0.000276
1005	9.9898e+01	0.0096	6.047629	0.000486	4.864339	1.648083	-0.000195
1006	9.9998e+01	-0.0417	5.789253	0.000649	6.485785	2.197443	-0.000260
1007	1.0010e+02	-0.0786	5.530876	0.000649	6.485785	2.197443	-0.000260
1008	1.0020e+02	-0.1219	5.312871	0.000547	5.472381	1.854093	-0.000219
1009	1.0030e+02	-0.1652	5.026234	0.000720	7.195167	2.437789	-0.000288
1010	1.0040e+02	-0.2021	4.796117	0.000578	5.776402	1.957098	-0.000231
1011	1.0050e+02	-0.2438	4.537741	0.000649	6.485785	2.197443	-0.000260
1012	1.0059e+02	-0.2791	4.299550	0.000598	5.979083	2.025768	-0.000239
1013	1.0069e+02	-0.3241	4.025024	0.000689	6.891146	2.334784	-0.000276
1014	1.0079e+02	-0.3626	3.786833	0.000598	5.979083	2.025768	-0.000239
1015	1.0089e+02	-0.3962	3.508271	0.000699	6.992487	2.369119	-0.000280
1016	1.0099e+02	-0.4412	3.241820	0.000669	6.688466	2.266113	-0.000268
1017	1.0109e+02	-0.4716	3.011703	0.000578	5.776402	1.957098	-0.000231
1018	1.0119e+02	-0.5069	2.749289	0.000659	6.587125	2.231778	-0.000264
1019	1.0129e+02	-0.5567	2.490913	0.000649	6.485785	2.197443	-0.000260
1020	1.0139e+02	-0.5871	2.252722	0.000598	5.979083	2.025768	-0.000239
1021	1.0149e+02	-0.6417	1.998382	0.000638	6.384444	2.163108	-0.000256
1022	1.0159e+02	-0.6690	1.735968	0.000659	6.587125	2.231778	-0.000264
1023	1.0169e+02	-0.7203	1.477592	0.000649	6.485785	2.197443	-0.000260
1024	1.0179e+02	-0.7588	1.194992	0.000709	7.093827	2.403454	-0.000284
1025	1.0189e+02	-0.7973	0.981024	0.000537	5.371041	1.819758	-0.000215
1026	1.0199e+02	-0.8390	0.670165	0.000780	7.803210	2.643799	-0.000312
1027	1.0209e+02	-0.8855	0.460233	0.000527	5.269700	1.785423	-0.000211
1028	1.0219e+02	-0.9208	0.193783	0.000669	6.688466	2.266113	-0.000268
1029	1.0229e+02	-0.9657	-0.036334	0.000578	5.776402	1.957098	-0.000231
1030	1.0239e+02	-0.9978	-0.294711	0.000649	6.485785	2.197443	-0.000260
1031	1.0248e+02	-1.0395	-0.585385	0.000730	7.296508	2.472124	-0.000292
1032	1.0258e+02	-1.0716	-0.819539	0.000588	5.877742	1.991433	-0.000235
1033	1.0268e+02	-1.1262	-1.073878	0.000638	6.384444	2.163108	-0.000256
1034	1.0278e+02	-1.1599	-1.320143	0.000618	6.181764	2.094438	-0.000248
1035	1.0288e+02	-1.2032	-1.570446	0.000628	6.283104	2.128773	-0.000252
1036	1.0298e+02	-1.2401	-1.816711	0.000618	6.181764	2.094438	-0.000248
1037	1.0308e+02	-1.2914	-2.075088	0.000649	6.485785	2.197443	-0.000260
1038	1.0318e+02	-1.3107	-2.321353	0.000618	6.181764	2.094438	-0.000248
1039	1.0328e+02	-1.3588	-2.616064	0.000740	7.397848	2.506459	-0.000296
1040	1.0338e+02	-1.4053	-2.858292	0.000608	6.080423	2.060103	-0.000243
1041	1.0348e+02	-1.4406	-3.072260	0.000537	5.371041	1.819758	-0.000215
1042	1.0358e+02	-1.4759	-3.391194	0.000801	8.005891	2.712469	-0.000321
1043	1.0368e+02	-1.5112	-3.629385	0.000598	5.979083	2.025768	-0.000239
1044	1.0378e+02	-1.5625	-3.883725	0.000638	6.384444	2.163108	-0.000256
1045	1.0388e+02	-1.6010	-4.134027	0.000628	6.283104	2.128773	-0.000252
1046	1.0398e+02	-1.6395	-4.364144	0.000578	5.776402	1.957098	-0.000231
1047	1.0408e+02	-1.6764	-4.646743	0.000709	7.093827	2.403454	-0.000284
1048	1.0418e+02	-1.7278	-4.852637	0.000517	5.168360	1.751088	-0.000207
1049	1.0428e+02	-1.7663	-5.163497	0.000780	7.803210	2.643799	-0.000312
1050	1.0438e+02	-1.7935	-5.365353	0.000507	5.067019	1.716753	-0.000203
1051	1.0447e+02	-1.8352	-5.651990	0.000720	7.195167	2.437789	-0.000288
1052	1.0457e+02	-1.8818	-5.882107	0.000578	5.776402	1.957098	-0.000231
1053	1.0467e+02	-1.9171	-6.168743	0.000720	7.195167	2.437789	-0.000288
1054	1.0477e+02	-1.9524	-6.398860	0.000578	5.776402	1.957098	-0.000231
1055	1.0487e+02	-1.9892	-6.624940	0.000568	5.675062	1.922763	-0.000227
1056	1.0497e+02	-2.0326	-6.960022	0.000841	8.411252	2.849809	-0.000337
1057	1.0507e+02	-2.0727	-7.165916	0.000517	5.168360	1.751088	-0.000207
1058	1.0517e+02	-2.1064	-7.412181	0.000618	6.181764	2.094438	-0.000248
1059	1.0527e+02	-2.1577	-7.674595	0.000659	6.587125	2.231778	-0.000264
1060	1.0537e+02	-2.1994	-7.965269	0.000730	7.296508	2.472124	-0.000292
1061	1.0547e+02	-2.2331	-8.167126	0.000507	5.067019	1.716753	-0.000203
1062	1.0557e+02	-2.2748	-8.449725	0.000709	7.093827	2.403454	-0.000284
1063	1.0567e+02	-2.3133	-8.700028	0.000628	6.283104	2.128773	-0.000252
1064	1.0577e+02	-2.3582	-9.014924	0.000790	7.904550	2.678134	-0.000316
1065	1.0587e+02	-2.3807	-9.164298	0.000375	3.749594	1.270397	-0.000150
1066	1.0597e+02	-2.4352	-9.467083	0.000760	7.600529	2.575129	-0.000304
1067	1.0607e+02	-2.4689	-9.701237	0.000588	5.877742	1.991433	-0.000235
1068	1.0617e+02	-2.5202	-9.947502	0.000618	6.181764	2.094438	-0.000248
1069	1.0627e+02	-2.5507	-10.226065	0.000699	6.992487	2.369119	-0.000280
1070	1.0637e+02	-2.5940	-10.528850	0.000760	7.600529	2.575129	-0.000304
1071	1.0647e+02	-2.6358	-10.702447	0.000436	4.357637	1.476407	-0.000174
1072	1.0656e+02	-2.6710	-10.981009	0.000699	6.992487	2.369119	-0.000280
1073	1.0666e+02	-2.7160	-11.223237	0.000608	6.080423	2.060103	-0.000243
1074	1.0676e+02	-2.7464	-11.485651	0.000659	6.587125	2.231778	-0.000264
1075	1.0686e+02	-2.7930	-11.776325	0.000730	7.296508	2.472124	-0.000292
1076	1.0696e+02	-2.8299	-11.998367	0.000557	5.573721	1.888428	-0.000223
1077	1.0706e+02	-2.8603	-12.212336	0.000537	5.371041	1.819758	-0.000215
1078	1.0716e+02	-2.9149	-12.507047	0.000740	7.397848	2.506459	-0.000296
1079	1.0726e+02	-2.9486	-12.797720	0.000730	7.296508	2.472124	-0.000292
1080	1.0736e+02	-2.9887	-13.019763	0.000557	5.573721	1.888428	-0.000223
1081	1.0746e+02	-3.0240	-13.261991	0.000608	6.080423	2.060103	-0.000243
1082	1.0756e+02	-3.0705	-13.512293	0.000628	6.283104	2.128773	-0.000252
1083	1.0766e+02	-3.1106	-13.681853	0.000426	4.256296	1.442072	-0.000170
1084	1.0776e+02	-3.1427	-13.996750	0.000790	7.904550	2.678134	-0.000316
1085	1.0786e+02	-3.1892	-14.214755	0.000547	5.472381	1.854093	-0.000219
1086	1.0796e+02	-3.2277	-14.517540	0.000760	7.600529	2.575129	-0.000304
1087	1.0806e+02	-3.2774	-14.727471	0.000527	5.269700	1.785423	-0.000211
1088	1.0816e+02	-3.2999	-14.961625	0.000588	5.877742	1.991433	-0.000235
1089	1.0826e+02	-3.3577	-15.232113	0.000679	6.789806	2.300449	-0.000272
1090	1.0836e+02	-3.3833	-15.478378	0.000618	6.181764	2.094438	-0.000248
1091	1.0845e+02	-3.4170	-15.732718	0.000638	6.384444	2.163108	-0.000256
1092	1.0855e+02	-3.4651	-15.995132	0.000659	6.587125	2.231778	-0.000264
1093	1.0865e+02	-3.5117	-16.221211	0.000568	5.675062	1.922763	-0.000227
1094	1.0875e+02	-3.5421	-16.414994	0.000486	4.864339	1.648083	-0.000195
1095	1.0885e+02	-3.5983	-16.669333	0.000638	6.384444	2.163108	-0.000256
1096	1.0895e+02	-3.6208	-16.955970	0.000720	7.195167	2.437789	-0.000288
1097	1.0905e+02	-3.6673	-17.194161	0.000598	5.979083	2.025768	-0.000239
1098	1.0915e+02	-3.7026	-17.428315	0.000588	5.877742	1.991433	-0.000235
1099	1.0925e+02	-3.7411	-17.674580	0.000618	6.181764	2.094438	-0.000248
1100	1.0935e+02	-3.7972	-17.904697	0.000578	5.776402	1.957098	-0.000231
1101	1.0945e+02	-3.8277	-18.154999	0.000628	6.283104	2.128773	-0.000252
1102	1.0955e+02	-3.8710	-18.393190	0.000598	5.979083	2.025768	-0.000239
1103	1.0965e+02	-3.9111	-18.627344	0.000588	5.877742	1.991433	-0.000235
1104	1.0975e+02	-3.9496	-18.889758	0.000659	6.587125	2.231778	-0.000264
1105	1.0985e+02	-3.9849	-19.107763	0.000547	5.472381	1.854093	-0.000219
1106	1.0995e+02	-4.0330	-19.354029	0.000618	6.181764	2.094438	-0.000248
1107	1.1005e+02	-4.0683	-19.588183	0.000588	5.877742	1.991433	-0.000235
1108	1.1015e+02	-4.1036	-19.862708	0.000689	6.891146	2.334784	-0.000276
1109	1.1025e+02	-4.1502	-20.096862	0.000588	5.877742	1.991433	-0.000235
1110	1.1035e+02	-4.1887	-20.310830	0.000537	5.371041	1.819758	-0.000215
1111	1.1044e+02	-4.2288	-20.581318	0.000679	6.789806	2.300449	-0.000272
1112	1.1054e+02	-4.2689	-20.799323	0.000547	5.472381	1.854093	-0.000219
1113	1.1064e+02	-4.3138	-21.021366	0.000557	5.573721	1.888428	-0.000223
1114	1.1074e+02	-4.3427	-21.263594	0.000608	6.080423	2.060103	-0.000243
1115	1.1084e+02	-4.3860	-21.513896	0.000628	6.283104	2.128773	-0.000252
1116	1.1094e+02	-4.4293	-21.764199	0.000628	6.283104	2.128773	-0.000252
1117	1.1104e+02	-4.4662	-22.022575	0.000649	6.485785	2.197443	-0.000260
1118	1.1114e+02	-4.5127	-22.256729	0.000588	5.877742	1.991433	-0.000235
1119	1.1124e+02	-4.5432	-22.470698	0.000537	5.371041	1.819758	-0.000215
1120	1.1134e+02	-4.5801	-22.676591	0.000517	5.168360	1.751088	-0.000207
1121	1.1144e+02	-4.6298	-22.890560	0.000537	5.371041	1.819758	-0.000215
1122	1.1154e+02	-4.6539	-23.189308	0.000750	7.499189	2.540794	-0.000300
1123	1.1164e+02	-4.7100	-23.419424	0.000578	5.776402	1.957098	-0.000231
1124	1.1174e+02	-4.7389	-23.633393	0.000537	5.371041	1.819758	-0.000215
1125	1.1184e+02	-4.7838	-23.867546	0.000588	5.877742	1.991433	-0.000235
1126	1.1194e+02	-4.8336	-24.150146	0.000709	7.093827	2.403454	-0.000284
1127	1.1204e+02	-4.8721	-24.384300	0.000588	5.877742	1.991433	-0.000235
1128	1.1214e+02	-4.9073	-24.618454	0.000588	5.877742	1.991433	-0.000235
1129	1.1224e+02	-4.9410	-24.840496	0.000557	5.573721	1.888428	-0.000223
1130	1.1234e+02	-4.9763	-25.090799	0.000628	6.283104	2.128773	-0.000252
1131	1.1244e+02	-5.0277	-25.316878	0.000568	5.675062	1.922763	-0.000227
1132	1.1253e+02	-5.0694	-25.551032	0.000588	5.877742	1.991433	-0.000235
1133	1.1263e+02	-5.1047	-25.785186	0.000588	5.877742	1.991433	-0.000235
1134	1.1273e+02	-5.1512	-26.023377	0.000598	5.979083	2.025768	-0.000239
1135	1.1283e+02	-5.1833	-26.273679	0.000628	6.283104	2.128773	-0.000252
1136	1.1293e+02	-5.2202	-26.463425	0.000476	4.762998	1.613747	-0.000191
1137	1.1303e+02	-5.2587	-26.725839	0.000659	6.587125	2.231778	-0.000264
1138	1.1313e+02	-5.2972	-26.951918	0.000568	5.675062	1.922763	-0.000227
1139	1.1323e+02	-5.3405	-27.165886	0.000537	5.371041	1.819758	-0.000215
1140	1.1333e+02	-5.3838	-27.408115	0.000608	6.080423	2.060103	-0.000243
1141	1.1343e+02	-5.4111	-27.630157	0.000557	5.573721	1.888428	-0.000223
1142	1.1353e+02	-5.4608	-27.852199	0.000557	5.573721	1.888428	-0.000223
1143	1.1363e+02	-5.4945	-28.114613	0.000659	6.587125	2.231778	-0.000264
1144	1.1373e+02	-5.5346	-28.316470	0.000507	5.067019	1.716753	-0.000203
1145	1.1383e+02	-5.5795	-28.558698	0.000608	6.080423	2.060103	-0.000243
1146	1.1393e+02	-5.6116	-28.772666	0.000537	5.371041	1.819758	-0.000215
1147	1.1403e+02	-5.6581	-29.010857	0.000598	5.979083	2.025768	-0.000239
1148	1.1413e+02	-5.6998	-29.249048	0.000598	5.979083	2.025768	-0.000239
1149	1.1423e+02	-5.7399	-29.499351	0.000628	6.283104	2.128773	-0.000252
1150	1.1433e+02	-5.7833	-29.668911	0.000426	4.256296	1.442072	-0.000170
1151	1.1442e+02	-5.8153	-29.907102	0.000598	5.979083	2.025768	-0.000239
1152	1.1452e+02	-5.8619	-30.149330	0.000608	6.080423	2.060103	-0.000243
1153	1.1462e+02	-5.9100	-30.351186	0.000507	5.067019	1.716753	-0.000203
1154	1.1472e+02	-5.9421	-30.621675	0.000679	6.789806	2.300449	-0.000272
1155	1.1482e+02	-5.9854	-30.787197	0.000415	4.154956	1.407737	-0.000166
1156	1.1492e+02	-6.0207	-30.997128	0.000527	5.269700	1.785423	-0.000211
1157	1.1502e+02	-6.0688	-31.247431	0.000628	6.283104	2.128773	-0.000252
1158	1.1512e+02	-6.0977	-31.481584	0.000588	5.877742	1.991433	-0.000235
1159	1.1522e+02	-6.1314	-31.687478	0.000517	5.168360	1.751088	-0.000207
1160	1.1532e+02	-6.1891	-31.945855	0.000649	6.485785	2.197443	-0.000260
1161	1.1542e+02	-6.2276	-32.163860	0.000547	5.472381	1.854093	-0.000219
1162	1.1552e+02	-6.2677	-32.377829	0.000537	5.371041	1.819758	-0.000215
1163	1.1562e+02	-6.2902	-32.587760	0.000527	5.269700	1.785423	-0.000211
1164	1.1572e+02	-6.3367	-32.829988	0.000608	6.080423	2.060103	-0.000243
1165	1.1582e+02	-6.3800	-33.047993	0.000547	5.472381	1.854093	-0.000219
1166	1.1592e+02	-6.4266	-33.274073	0.000568	5.675062	1.922763	-0.000227
1167	1.1602e+02	-6.4570	-33.475930	0.000507	5.067019	1.716753	-0.000203
1168	1.1612e+02	-6.5020	-33.710083	0.000588	5.877742	1.991433	-0.000235
1169	1.1622e+02	-6.5372	-33.936163	0.000568	5.675062	1.922763	-0.000227
1170	1.1632e+02	-6.5774	-34.166280	0.000578	5.776402	1.957098	-0.000231
1171	1.1642e+02	-6.6175	-34.347951	0.000456	4.560317	1.545077	-0.000183
1172	1.1651e+02	-6.6560	-34.610365	0.000659	6.587125	2.231778	-0.000264
1173	1.1661e+02	-6.6880	-34.820296	0.000527	5.269700	1.785423	-0.000211
1174	1.1671e+02	-6.7330	-35.042338	0.000557	5.573721	1.888428	-0.000223
1175	1.1681e+02	-6.7699	-35.276492	0.000588	5.877742	1.991433	-0.000235
1176	1.1691e+02	-6.8180	-35.478349	0.000507	5.067019	1.716753	-0.000203
1177	1.1701e+02	-6.8613	-35.647909	0.000426	4.256296	1.442072	-0.000170
1178	1.1711e+02	-6.8950	-35.914360	0.000669	6.688466	2.266113	-0.000268
1179	1.1721e+02	-6.9319	-36.148513	0.000588	5.877742	1.991433	-0.000235
1180	1.1731e+02	-6.9640	-36.334222	0.000466	4.661658	1.579412	-0.000187
1181	1.1741e+02	-7.0137	-36.576450	0.000608	6.080423	2.060103	-0.000243
1182	1.1751e+02	-7.0538	-36.826752	0.000628	6.283104	2.128773	-0.000252
1183	1.1761e+02	-7.0907	-37.004386	0.000446	4.458977	1.510742	-0.000179
1184	1.1771e+02	-7.1324	-37.238540	0.000588	5.877742	1.991433	-0.000235
1185	1.1781e+02	-7.1741	-37.452508	0.000537	5.371041	1.819758	-0.000215
1186	1.1791e+02	-7.2126	-37.666476	0.000537	5.371041	1.819758	-0.000215
1187	1.1801e+02	-7.2592	-37.908705	0.000608	6.080423	2.060103	-0.000243
1188	1.1811e+02	-7.2896	-38.130747	0.000557	5.573721	1.888428	-0.000223
1189	1.1821e+02	-7.3346	-38.316455	0.000466	4.661658	1.579412	-0.000187
1190	1.1831e+02	-7.3731	-38.562721	0.000618	6.181764	2.094438	-0.000248
1191	1.1841e+02	-7.4132	-38.736317	0.000436	4.357637	1.476407	-0.000174
1192	1.1850e+02	-7.4661	-39.006806	0.000679	6.789806	2.300449	-0.000272
1193	1.1860e+02	-7.4854	-39.204625	0.000497	4.965679	1.682418	-0.000199
1194	1.1870e+02	-7.5335	-39.406482	0.000507	5.067019	1.716753	-0.000203
1195	1.1880e+02	-7.5624	-39.608339	0.000507	5.067019	1.716753	-0.000203
1196	1.1890e+02	-7.6089	-39.862678	0.000638	6.384444	2.163108	-0.000256
1197	1.1900e+02	-7.6634	-40.080684	0.000547	5.472381	1.854093	-0.000219
1198	1.1910e+02	-7.6907	-40.298689	0.000547	5.472381	1.854093	-0.000219
1199	1.1920e+02	-7.7356	-40.520731	0.000557	5.573721	1.888428	-0.000223
1200	1.1930e+02	-7.7661	-40.702403	0.000456	4.560317	1.545077	-0.000183
1201	1.1940e+02	-7.8142	-40.952705	0.000628	6.283104	2.128773	-0.000252
1202	1.1950e+02	-7.8527	-41.130339	0.000446	4.458977	1.510742	-0.000179
1203	1.1960e+02	-7.8896	-41.336233	0.000517	5.168360	1.751088	-0.000207
1204	1.1970e+02	-7.9361	-41.578461	0.000608	6.080423	2.060103	-0.000243
1205	1.1980e+02	-7.9650	-41.812615	0.000588	5.877742	1.991433	-0.000235
1206	1.1990e+02	-8.0180	-42.006397	0.000486	4.864339	1.648083	-0.000195
1207	1.2000e+02	-8.0468	-42.184031	0.000446	4.458977	1.510742	-0.000179
1208	1.2010e+02	-8.0918	-42.458557	0.000689	6.891146	2.334784	-0.000276
1209	1.2020e+02	-8.1319	-42.644265	0.000466	4.661658	1.579412	-0.000187
1210	1.2030e+02	-8.1655	-42.870344	0.000568	5.675062	1.922763	-0.000227
1211	1.2039e+02	-8.2040	-43.088350	0.000547	5.472381	1.854093	-0.000219
1212	1.2049e+02	-8.2458	-43.282132	0.000486	4.864339	1.648083	-0.000195
1213	1.2059e+02	-8.2971	-43.475915	0.000486	4.864339	1.648083	-0.000195
1214	1.2069e+02	-8.3324	-43.714106	0.000598	5.979083	2.025768	-0.000239
1215	1.2079e+02	-8.3645	-43.911925	0.000497	4.965679	1.682418	-0.000199
1216	1.2089e+02	-8.4030	-44.138005	0.000568	5.675062	1.922763	-0.000227
1217	1.2099e+02	-8.4511	-44.380233	0.000608	6.080423	2.060103	-0.000243
1218	1.2109e+02	-8.4912	-44.574016	0.000486	4.864339	1.648083	-0.000195
1219	1.2119e+02	-8.5249	-44.779910	0.000517	5.168360	1.751088	-0.000207
1220	1.2129e+02	-8.5602	-45.014063	0.000588	5.877742	1.991433	-0.000235
1221	1.2139e+02	-8.6035	-45.167475	0.000385	3.850935	1.304732	-0.000154
1222	1.2149e+02	-8.6532	-45.429888	0.000659	6.587125	2.231778	-0.000264
1223	1.2159e+02	-8.6885	-45.655968	0.000568	5.675062	1.922763	-0.000227
1224	1.2169e+02	-8.7270	-45.845713	0.000476	4.762998	1.613747	-0.000191
1225	1.2179e+02	-8.7639	-46.023347	0.000446	4.458977	1.510742	-0.000179
1226	1.2189e+02	-8.7992	-46.281724	0.000649	6.485785	2.197443	-0.000260
1227	1.2199e+02	-8.8473	-46.475507	0.000486	4.864339	1.648083	-0.000195
1228	1.2209e+02	-8.8923	-46.701586	0.000568	5.675062	1.922763	-0.000227
1229	1.2219e+02	-8.9308	-46.891332	0.000476	4.762998	1.613747	-0.000191
1230	1.2229e+02	-8.9596	-47.161820	0.000679	6.789806	2.300449	-0.000272
1231	1.2239e+02	-9.0078	-47.339454	0.000446	4.458977	1.510742	-0.000179
1232	1.2248e+02	-9.0511	-47.553422	0.000537	5.371041	1.819758	-0.000215
1233	1.2258e+02	-9.0832	-47.775464	0.000557	5.573721	1.888428	-0.000223
1234	1.2268e+02	-9.1265	-47.977321	0.000507	5.067019	1.716753	-0.000203
1235	1.2278e+02	-9.1570	-48.187252	0.000527	5.269700	1.785423	-0.000211
1236	1.2288e+02	-9.2067	-48.393146	0.000517	5.168360	1.751088	-0.000207
1237	1.2298e+02	-9.2404	-48.603077	0.000527	5.269700	1.785423	-0.000211
1238	1.2308e+02	-9.2853	-48.821082	0.000547	5.472381	1.854093	-0.000219
1239	1.2318e+02	-9.3318	-49.035051	0.000537	5.371041	1.819758	-0.000215
1240	1.2328e+02	-9.3655	-49.253056	0.000547	5.472381	1.854093	-0.000219
1241	1.2338e+02	-9.4056	-49.450876	0.000497	4.965679	1.682418	-0.000199
1242	1.2348e+02	-9.4441	-49.640621	0.000476	4.762998	1.613747	-0.000191
1243	1.2358e+02	-9.4874	-49.907072	0.000669	6.688466	2.266113	-0.000268
1244	1.2368e+02	-9.5211	-50.080669	0.000436	4.357637	1.476407	-0.000174
1245	1.2378e+02	-9.5612	-50.322897	0.000608	6.080423	2.060103	-0.000243
1246	1.2388e+02	-9.6078	-50.536865	0.000537	5.371041	1.819758	-0.000215
1247	1.2398e+02	-9.6495	-50.734685	0.000497	4.965679	1.682418	-0.000199
1248	1.2408e+02	-9.6767	-50.936542	0.000507	5.067019	1.716753	-0.000203
1249	1.2418e+02	-9.7345	-51.118213	0.000456	4.560317	1.545077	-0.000183
1250	1.2428e+02	-9.7666	-51.336218	0.000547	5.472381	1.854093	-0.000219
1251	1.2438e+02	-9.8131	-51.554223	0.000547	5.472381	1.854093	-0.000219
1252	1.2447e+02	-9.8452	-51.727820	0.000436	4.357637	1.476407	-0.000174
1253	1.2457e+02	-9.8853	-51.953900	0.000568	5.675062	1.922763	-0.000227
1254	1.2467e+02	-9.9254	-52.167868	0.000537	5.371041	1.819758	-0.000215
1255	1.2477e+02	-9.9575	-52.361651	0.000486	4.864339	1.648083	-0.000195
1256	1.2487e+02	-9.9912	-52.555433	0.000486	4.864339	1.648083	-0.000195
1257	1.2497e+02	-10.0393	-52.809773	0.000638	6.384444	2.163108	-0.000256
1258	1.2507e+02	-10.0842	-52.971258	0.000405	4.053615	1.373402	-0.000162
1259	1.2517e+02	-10.1163	-53.193300	0.000557	5.573721	1.888428	-0.000223
1260	1.2527e+02	-10.1548	-53.419380	0.000568	5.675062	1.922763	-0.000227
1261	1.2537e+02	-10.1949	-53.625274	0.000517	5.168360	1.751088	-0.000207
1262	1.2547e+02	-10.2398	-53.798871	0.000436	4.357637	1.476407	-0.000174
1263	1.2557e+02	-10.2735	-54.004765	0.000517	5.168360	1.751088	-0.000207
1264	1.2567e+02	-10.3281	-54.242956	0.000598	5.979083	2.025768	-0.000239
1265	1.2577e+02	-10.3569	-54.436738	0.000486	4.864339	1.648083	-0.000195
1266	1.2587e+02	-10.4034	-54.646669	0.000527	5.269700	1.785423	-0.000211
1267	1.2597e+02	-10.4452	-54.824303	0.000446	4.458977	1.510742	-0.000179
1268	1.2607e+02	-10.4772	-55.042309	0.000547	5.472381	1.854093	-0.000219
1269	1.2617e+02	-10.5238	-55.236091	0.000486	4.864339	1.648083	-0.000195
1270	1.2627e+02	-10.5559	-55.458134	0.000557	5.573721	1.888428	-0.000223
1271	1.2636e+02	-10.5992	-55.668065	0.000527	5.269700	1.785423	-0.000211
1272	1.2646e+02	-10.6441	-55.873959	0.000517	5.168360	1.751088	-0.000207
1273	1.2656e+02	-10.6826	-56.043518	0.000426	4.256296	1.442072	-0.000170
1274	1.2666e+02	-10.7195	-56.273635	0.000578	5.776402	1.957098	-0.000231
1275	1.2676e+02	-10.7628	-56.495678	0.000557	5.573721	1.888428	-0.000223
1276	1.2686e+02	-10.7997	-56.677349	0.000456	4.560317	1.545077	-0.000183
1277	1.2696e+02	-10.8398	-56.875168	0.000497	4.965679	1.682418	-0.000199
1278	1.2706e+02	-10.8687	-57.072988	0.000497	4.965679	1.682418	-0.000199
1279	1.2716e+02	-10.9152	-57.282919	0.000527	5.269700	1.785423	-0.000211
1280	1.2726e+02	-10.9601	-57.521110	0.000598	5.979083	2.025768	-0.000239
1281	1.2736e+02	-10.9906	-57.690670	0.000426	4.256296	1.442072	-0.000170
1282	1.2746e+02	-11.0307	-57.868304	0.000446	4.458977	1.510742	-0.000179
1283	1.2756e+02	-11.0708	-58.082272	0.000537	5.371041	1.819758	-0.000215
1284	1.2766e+02	-11.1189	-58.308351	0.000568	5.675062	1.922763	-0.000227
1285	1.2776e+02	-11.1639	-58.518283	0.000527	5.269700	1.785423	-0.000211
1286	1.2786e+02	-11.1959	-58.699954	0.000456	4.560317	1.545077	-0.000183
1287	1.2796e+02	-11.2457	-58.934108	0.000588	5.877742	1.991433	-0.000235
1288	1.2806e+02	-11.2778	-59.107704	0.000436	4.357637	1.476407	-0.000174
1289	1.2816e+02	-11.3195	-59.353970	0.000618	6.181764	2.094438	-0.000248
1290	1.2826e+02	-11.3644	-59.507381	0.000385	3.850935	1.304732	-0.000154
1291	1.2835e+02	-11.3868	-59.685015	0.000446	4.458977	1.510742	-0.000179
1292	1.2845e+02	-11.4414	-59.866686	0.000456	4.560317	1.545077	-0.000183
1293	1.2855e+02	-11.4815	-60.096803	0.000578	5.776402	1.957098	-0.000231
1294	1.2865e+02	-11.5200	-60.314808	0.000547	5.472381	1.854093	-0.000219
1295	1.2875e+02	-11.5553	-60.484368	0.000426	4.256296	1.442072	-0.000170
1296	1.2885e+02	-11.5906	-60.718522	0.000588	5.877742	1.991433	-0.000235
1297	1.2895e+02	-11.6355	-60.912304	0.000486	4.864339	1.648083	-0.000195
1298	1.2905e+02	-11.6724	-61.093975	0.000456	4.560317	1.545077	-0.000183
1299	1.2915e+02	-11.7189	-61.303906	0.000527	5.269700	1.785423	-0.000211
1300	1.2925e+02	-11.7606	-61.525949	0.000557	5.573721	1.888428	-0.000223
1301	1.2935e+02	-11.7943	-61.723768	0.000497	4.965679	1.682418	-0.000199
1302	1.2945e+02	-11.8312	-61.897365	0.000436	4.357637	1.476407	-0.000174
1303	1.2955e+02	-11.8649	-62.058851	0.000405	4.053615	1.373402	-0.000162
1304	1.2965e+02	-11.9146	-62.280893	0.000557	5.573721	1.888428	-0.000223
1305	1.2975e+02	-11.9531	-62.494861	0.000537	5.371041	1.819758	-0.000215
1306	1.2985e+02	-11.9884	-62.704792	0.000527	5.269700	1.785423	-0.000211
1307	1.2995e+02	-12.0350	-62.922798	0.000547	5.472381	1.854093	-0.000219
1308	1.3005e+02	-12.0815	-63.072172	0.000375	3.749594	1.270397	-0.000150
1309	1.3015e+02	-12.1200	-63.306326	0.000588	5.877742	1.991433	-0.000235
1310	1.3025e+02	-12.1473	-63.504145	0.000497	4.965679	1.682418	-0.000199
1311	1.3034e+02	-12.1938	-63.685816	0.000456	4.560317	1.545077	-0.000183
1312	1.3044e+02	-12.2387	-63.827116	0.000355	3.546914	1.201727	-0.000142
1313	1.3054e+02	-12.2692	-64.028973	0.000507	5.067019	1.716753	-0.000203
1314	1.3064e+02	-12.3141	-64.263127	0.000588	5.877742	1.991433	-0.000235
1315	1.3074e+02	-12.3510	-64.416538	0.000385	3.850935	1.304732	-0.000154
1316	1.3084e+02	-12.3927	-64.634543	0.000547	5.472381	1.854093	-0.000219
1317	1.3094e+02	-12.4280	-64.783917	0.000375	3.749594	1.270397	-0.000150
1318	1.3104e+02	-12.4649	-64.977700	0.000486	4.864339	1.648083	-0.000195
1319	1.3114e+02	-12.5178	-65.171482	0.000486	4.864339	1.648083	-0.000195
1320	1.3124e+02	-12.5515	-65.413710	0.000608	6.080423	2.060103	-0.000243
1321	1.3134e+02	-12.5916	-65.607493	0.000486	4.864339	1.648083	-0.000195
1322	1.3144e+02	-12.6333	-65.793201	0.000466	4.661658	1.579412	-0.000187
1323	1.3154e+02	-12.6590	-65.950649	0.000395	3.952275	1.339067	-0.000158
1324	1.3164e+02	-12.7168	-66.152506	0.000507	5.067019	1.716753	-0.000203
1325	1.3174e+02	-12.7553	-66.390697	0.000598	5.979083	2.025768	-0.000239
1326	1.3184e+02	-12.7938	-66.584480	0.000486	4.864339	1.648083	-0.000195
1327	1.3194e+02	-12.8290	-66.725779	0.000355	3.546914	1.201727	-0.000142
1328	1.3204e+02	-12.8627	-66.927636	0.000507	5.067019	1.716753	-0.000203
1329	1.3214e+02	-12.9125	-67.133530	0.000517	5.168360	1.751088	-0.000207
1330	1.3224e+02	-12.9510	-67.303090	0.000426	4.256296	1.442072	-0.000170
1331	1.3234e+02	-12.9927	-67.508984	0.000517	5.168360	1.751088	-0.000207
1332	1.3243e+02	-13.0280	-67.694692	0.000466	4.661658	1.579412	-0.000187
1333	1.3253e+02	-13.0729	-67.904623	0.000527	5.269700	1.785423	-0.000211
1334	1.3263e+02	-13.1130	-68.138777	0.000588	5.877742	1.991433	-0.000235
1335	1.3273e+02	-13.1499	-68.243743	0.000263	2.634850	0.892711	-0.000105
1336	1.3283e+02	-13.1916	-68.485971	0.000608	6.080423	2.060103	-0.000243
1337	1.3293e+02	-13.2269	-68.659567	0.000436	4.357637	1.476407	-0.000174
1338	1.3303e+02	-13.2782	-68.889684	0.000578	5.776402	1.957098	-0.000231
1339	1.3313e+02	-13.3103	-69.043095	0.000385	3.850935	1.304732	-0.000154
1340	1.3323e+02	-13.3440	-69.253026	0.000527	5.269700	1.785423	-0.000211
1341	1.3333e+02	-13.3953	-69.450846	0.000497	4.965679	1.682418	-0.000199
1342	1.3343e+02	-13.4274	-69.584072	0.000334	3.344233	1.133057	-0.000134
1343	1.3353e+02	-13.4643	-69.834374	0.000628	6.283104	2.128773	-0.000252
1344	1.3363e+02	-13.5076	-69.991822	0.000395	3.952275	1.339067	-0.000158
1345	1.3373e+02	-13.5526	-70.201753	0.000527	5.269700	1.785423	-0.000211
1346	1.3383e+02	-13.5846	-70.330942	0.000324	3.242892	1.098722	-0.000130
1347	1.3393e+02	-13.6328	-70.577207	0.000618	6.181764	2.094438	-0.000248
1348	1.3403e+02	-13.6633	-70.754841	0.000446	4.458977	1.510742	-0.000179
1349	1.3413e+02	-13.7130	-71.017255	0.000659	6.587125	2.231778	-0.000264
1350	1.3423e+02	-13.7451	-71.182777	0.000415	4.154956	1.407737	-0.000166
1351	1.3432e+02	-13.7900	-71.348300	0.000415	4.154956	1.407737	-0.000166
1352	1.3442e+02	-13.8237	-71.517860	0.000426	4.256296	1.442072	-0.000170
1353	1.3452e+02	-13.8686	-71.703568	0.000466	4.661658	1.579412	-0.000187
1354	1.3462e+02	-13.9055	-71.905425	0.000507	5.067019	1.716753	-0.000203
1355	1.3472e+02	-13.9344	-72.127467	0.000557	5.573721	1.888428	-0.000223
1356	1.3482e+02	-13.9873	-72.305101	0.000446	4.458977	1.510742	-0.000179
1357	1.3492e+02	-14.0258	-72.466586	0.000405	4.053615	1.373402	-0.000162
1358	1.3502e+02	-14.0691	-72.668443	0.000507	5.067019	1.716753	-0.000203
1359	1.3512e+02	-14.1172	-72.906634	0.000598	5.979083	2.025768	-0.000239
1360	1.3522e+02	-14.1445	-73.104454	0.000497	4.965679	1.682418	-0.000199
1361	1.3532e+02	-14.1894	-73.249791	0.000365	3.648254	1.236062	-0.000146
1362	1.3542e+02	-14.2247	-73.459722	0.000527	5.269700	1.785423	-0.000211
1363	1.3552e+02	-14.2584	-73.669653	0.000527	5.269700	1.785423	-0.000211
1364	1.3562e+02	-14.2953	-73.863435	0.000486	4.864339	1.648083	-0.000195
1365	1.3572e+02	-14.3515	-74.061255	0.000497	4.965679	1.682418	-0.000199
1366	1.3582e+02	-14.3819	-74.259075	0.000497	4.965679	1.682418	-0.000199
1367	1.3592e+02	-14.4156	-74.404412	0.000365	3.648254	1.236062	-0.000146
1368	1.3602e+02	-14.4638	-74.634528	0.000578	5.776402	1.957098	-0.000231
1369	1.3612e+02	-14.4958	-74.808125	0.000436	4.357637	1.476407	-0.000174
1370	1.3622e+02	-14.5392	-75.042279	0.000588	5.877742	1.991433	-0.000235
1371	1.3631e+02	-14.5841	-75.175505	0.000334	3.344233	1.133057	-0.000134
1372	1.3641e+02	-14.6162	-75.377361	0.000507	5.067019	1.716753	-0.000203
1373	1.3651e+02	-14.6723	-75.579218	0.000507	5.067019	1.716753	-0.000203
1374	1.3661e+02	-14.7140	-75.773001	0.000486	4.864339	1.648083	-0.000195
1375	1.3671e+02	-14.7397	-75.946598	0.000436	4.357637	1.476407	-0.000174
1376	1.3681e+02	-14.7830	-76.136343	0.000476	4.762998	1.613747	-0.000191
1377	1.3691e+02	-14.8199	-76.334163	0.000497	4.965679	1.682418	-0.000199
1378	1.3701e+02	-14.8520	-76.556205	0.000557	5.573721	1.888428	-0.000223
1379	1.3711e+02	-14.9017	-76.709616	0.000385	3.850935	1.304732	-0.000154
1380	1.3721e+02	-14.9434	-76.959919	0.000628	6.283104	2.128773	-0.000252
1381	1.3731e+02	-14.9787	-77.072958	0.000284	2.837531	0.961381	-0.000114
1382	1.3741e+02	-15.0252	-77.307112	0.000588	5.877742	1.991433	-0.000235
1383	1.3751e+02	-15.0589	-77.545303	0.000598	5.979083	2.025768	-0.000239
1384	1.3761e+02	-15.1022	-77.670454	0.000314	3.141552	1.064387	-0.000126
1385	1.3771e+02	-15.1424	-77.876348	0.000517	5.168360	1.751088	-0.000207
1386	1.3781e+02	-15.1841	-78.106465	0.000578	5.776402	1.957098	-0.000231
1387	1.3791e+02	-15.2161	-78.332545	0.000568	5.675062	1.922763	-0.000227
1388	1.3801e+02	-15.2627	-78.485956	0.000385	3.850935	1.304732	-0.000154
1389	1.3811e+02	-15.3124	-78.707998	0.000557	5.573721	1.888428	-0.000223
1390	1.3821e+02	-15.3445	-78.893707	0.000466	4.661658	1.579412	-0.000187
1391	1.3831e+02	-15.3846	-79.095563	0.000507	5.067019	1.716753	-0.000203
1392	1.3840e+02	-15.4183	-79.281272	0.000466	4.661658	1.579412	-0.000187
1393	1.3850e+02	-15.4536	-79.491203	0.000527	5.269700	1.785423	-0.000211
1394	1.3860e+02	-15.4969	-79.672874	0.000456	4.560317	1.545077	-0.000183
1395	1.3870e+02	-15.5434	-79.927213	0.000638	6.384444	2.163108	-0.000256
1396	1.3880e+02	-15.5803	-80.084662	0.000395	3.952275	1.339067	-0.000158
1397	1.3890e+02	-15.6252	-80.318816	0.000588	5.877742	1.991433	-0.000235
1398	1.3900e+02	-15.6621	-80.520672	0.000507	5.067019	1.716753	-0.000203
1399	1.3910e+02	-15.7054	-80.698306	0.000446	4.458977	1.510742	-0.000179
1400	1.3920e+02	-15.7343	-80.888052	0.000476	4.762998	1.613747	-0.000191
1401	1.3930e+02	-15.7792	-81.106057	0.000547	5.472381	1.854093	-0.000219
1402	1.3940e+02	-15.8113	-81.336174	0.000578	5.776402	1.957098	-0.000231
1403	1.3950e+02	-15.8610	-81.529956	0.000486	4.864339	1.648083	-0.000195
1404	1.3960e+02	-15.8931	-81.731813	0.000507	5.067019	1.716753	-0.000203
1405	1.3970e+02	-15.9348	-81.957893	0.000568	5.675062	1.922763	-0.000227
1406	1.3980e+02	-15.9733	-82.155712	0.000497	4.965679	1.682418	-0.000199
1407	1.3990e+02	-16.0311	-82.377755	0.000557	5.573721	1.888428	-0.000223
1408	1.4000e+02	-16.0584	-82.547314	0.000426	4.256296	1.442072	-0.000170
1409	1.4010e+02	-16.1001	-82.761283	0.000537	5.371041	1.819758	-0.000215
1410	1.4020e+02	-16.1386	-82.999474	0.000598	5.979083	2.025768	-0.000239
1411	1.4029e+02	-16.1835	-83.173070	0.000436	4.357637	1.476407	-0.000174
1412	1.4039e+02	-16.2140	-83.366853	0.000486	4.864339	1.648083	-0.000195
1413	1.4049e+02	-16.2605	-83.588895	0.000557	5.573721	1.888428	-0.000223
1414	1.4059e+02	-16.2926	-83.831124	0.000608	6.080423	2.060103	-0.000243
1415	1.4069e+02	-16.3327	-83.992609	0.000405	4.053615	1.373402	-0.000162
1416	1.4079e+02	-16.3808	-84.222726	0.000578	5.776402	1.957098	-0.000231
1417	1.4089e+02	-16.4273	-84.448805	0.000568	5.675062	1.922763	-0.000227
1418	1.4099e+02	-16.4610	-84.678922	0.000578	5.776402	1.957098	-0.000231
1419	1.4109e+02	-16.4995	-84.868667	0.000476	4.762998	1.613747	-0.000191
1420	1.4119e+02	-16.5445	-85.090710	0.000557	5.573721	1.888428	-0.000223
1421	1.4129e+02	-16.5781	-85.288530	0.000497	4.965679	1.682418	-0.000199
1422	1.4139e+02	-16.6166	-85.482312	0.000486	4.864339	1.648083	-0.000195
1423	1.4149e+02	-16.6471	-85.692243	0.000527	5.269700	1.785423	-0.000211
1424	1.4159e+02	-16.7049	-85.926397	0.000588	5.877742	1.991433	-0.000235
1425	1.4169e+02	-16.7418	-86.120180	0.000486	4.864339	1.648083	-0.000195
1426	1.4179e+02	-16.7803	-86.350296	0.000578	5.776402	1.957098	-0.000231
1427	1.4189e+02	-16.8220	-86.596562	0.000618	6.181764	2.094438	-0.000248
1428	1.4199e+02	-16.8653	-86.782270	0.000466	4.661658	1.579412	-0.000187
1429	1.4209e+02	-16.8926	-86.992201	0.000527	5.269700	1.785423	-0.000211
1430	1.4219e+02	-16.9343	-87.202132	0.000527	5.269700	1.785423	-0.000211
1431	1.4228e+02	-16.9712	-87.424174	0.000557	5.573721	1.888428	-0.000223
1432	1.4238e+02	-17.0161	-87.646217	0.000557	5.573721	1.888428	-0.000223
1433	1.4248e+02	-17.0514	-87.839999	0.000486	4.864339	1.648083	-0.000195
1434	1.4258e+02	-17.0963	-88.045893	0.000517	5.168360	1.751088	-0.000207
1435	1.4268e+02	-17.1284	-88.223527	0.000446	4.458977	1.510742	-0.000179
1436	1.4278e+02	-17.1765	-88.510164	0.000720	7.195167	2.437789	-0.000288
1437	1.4288e+02	-17.2166	-88.683761	0.000436	4.357637	1.476407	-0.000174
1438	1.4298e+02	-17.2583	-88.942137	0.000649	6.485785	2.197443	-0.000260
1439	1.4308e+02	-17.2952	-89.184366	0.000608	6.080423	2.060103	-0.000243
1440	1.4318e+02	-17.3385	-89.382185	0.000497	4.965679	1.682418	-0.000199
1441	1.4328e+02	-17.3770	-89.608265	0.000568	5.675062	1.922763	-0.000227
1442	1.4338e+02	-17.4075	-89.806084	0.000497	4.965679	1.682418	-0.000199
1443	1.4348e+02	-17.4508	-90.003904	0.000497	4.965679	1.682418	-0.000199
1444	1.4358e+02	-17.4958	-90.254207	0.000628	6.283104	2.128773	-0.000252
1445	1.4368e+02	-17.5327	-90.464138	0.000527	5.269700	1.785423	-0.000211
1446	1.4378e+02	-17.5824	-90.714440	0.000628	6.283104	2.128773	-0.000252
1447	1.4388e+02	-17.6161	-90.920334	0.000517	5.168360	1.751088	-0.000207
1448	1.4398e+02	-17.6546	-91.150451	0.000578	5.776402	1.957098	-0.000231
1449	1.4408e+02	-17.6947	-91.388642	0.000598	5.979083	2.025768	-0.000239
1450	1.4418e+02	-17.7268	-91.594536	0.000517	5.168360	1.751088	-0.000207
1451	1.4428e+02	-17.7669	-91.804467	0.000527	5.269700	1.785423	-0.000211
1452	1.4437e+02	-17.8102	-92.062843	0.000649	6.485785	2.197443	-0.000260
1453	1.4447e+02	-17.8551	-92.272774	0.000527	5.269700	1.785423	-0.000211
1454	1.4457e+02	-17.8888	-92.502891	0.000578	5.776402	1.957098	-0.000231
1455	1.4467e+02	-17.9321	-92.801639	0.000750	7.499189	2.540794	-0.000300
1456	1.4477e+02	-17.9754	-92.902568	0.000253	2.533510	0.858376	-0.000101
1457	1.4487e+02	-18.0059	-93.205353	0.000760	7.600529	2.575129	-0.000304
1458	1.4497e+02	-18.0492	-93.447581	0.000608	6.080423	2.060103	-0.000243
1459	1.4507e+02	-18.0845	-93.661549	0.000537	5.371041	1.819758	-0.000215
1460	1.4517e+02	-18.1278	-93.899740	0.000598	5.979083	2.025768	-0.000239
1461	1.4527e+02	-18.1711	-94.137931	0.000598	5.979083	2.025768	-0.000239
1462	1.4537e+02	-18.2064	-94.347862	0.000527	5.269700	1.785423	-0.000211
1463	1.4547e+02	-18.2465	-94.586053	0.000598	5.979083	2.025768	-0.000239
1464	1.4557e+02	-18.2915	-94.824244	0.000598	5.979083	2.025768	-0.000239
1465	1.4567e+02	-18.3284	-95.094732	0.000679	6.789806	2.300449	-0.000272
1466	1.4577e+02	-18.3701	-95.336960	0.000608	6.080423	2.060103	-0.000243
1467	1.4587e+02	-18.4070	-95.518632	0.000456	4.560317	1.545077	-0.000183
1468	1.4597e+02	-18.4455	-95.781045	0.000659	6.587125	2.231778	-0.000264
1469	1.4607e+02	-18.4952	-96.011162	0.000578	5.776402	1.957098	-0.000231
1470	1.4617e+02	-18.5273	-96.245316	0.000588	5.877742	1.991433	-0.000235
1471	1.4626e+02	-18.5626	-96.511767	0.000669	6.688466	2.266113	-0.000268
1472	1.4636e+02	-18.6043	-96.717661	0.000517	5.168360	1.751088	-0.000207
1473	1.4646e+02	-18.6556	-96.980075	0.000659	6.587125	2.231778	-0.000264
1474	1.4656e+02	-18.6909	-97.214229	0.000588	5.877742	1.991433	-0.000235
1475	1.4666e+02	-18.7246	-97.452420	0.000598	5.979083	2.025768	-0.000239
1476	1.4676e+02	-18.7759	-97.670425	0.000547	5.472381	1.854093	-0.000219
1477	1.4686e+02	-18.8048	-97.936876	0.000669	6.688466	2.266113	-0.000268
1478	1.4696e+02	-18.8529	-98.195253	0.000649	6.485785	2.197443	-0.000260
1479	1.4706e+02	-18.8930	-98.421332	0.000568	5.675062	1.922763	-0.000227
1480	1.4716e+02	-18.9364	-98.651449	0.000578	5.776402	1.957098	-0.000231
1481	1.4726e+02	-18.9588	-98.917900	0.000669	6.688466	2.266113	-0.000268
1482	1.4736e+02	-19.0021	-99.156091	0.000598	5.979083	2.025768	-0.000239
1483	1.4746e+02	-19.0422	-99.402356	0.000618	6.181764	2.094438	-0.000248
1484	1.4756e+02	-19.0904	-99.656696	0.000638	6.384444	2.163108	-0.000256
1485	1.4766e+02	-19.1241	-99.886812	0.000578	5.776402	1.957098	-0.000231
1486	1.4776e+02	-19.1690	-100.141152	0.000638	6.384444	2.163108	-0.000256
1487	1.4786e+02	-19.2059	-100.407603	0.000669	6.688466	2.266113	-0.000268
1488	1.4796e+02	-19.2492	-100.609460	0.000507	5.067019	1.716753	-0.000203
1489	1.4806e+02	-19.2909	-100.843614	0.000588	5.877742	1.991433	-0.000235
1490	1.4816e+02	-19.3230	-101.101990	0.000649	6.485785	2.197443	-0.000260
1491	1.4825e+02	-19.3663	-101.384590	0.000709	7.093827	2.403454	-0.000284
1492	1.4835e+02	-19.4064	-101.578372	0.000486	4.864339	1.648083	-0.000195
1493	1.4845e+02	-19.4497	-101.941715	0.000912	9.120635	3.090155	-0.000365
1494	1.4855e+02	-19.4818	-102.163757	0.000557	5.573721	1.888428	-0.000223
1495	1.4865e+02	-19.5283	-102.349465	0.000466	4.661658	1.579412	-0.000187
1496	1.4875e+02	-19.5684	-102.591693	0.000608	6.080423	2.060103	-0.000243
1497	1.4885e+02	-19.6053	-102.882367	0.000730	7.296508	2.472124	-0.000292
1498	1.4895e+02	-19.6390	-103.144781	0.000659	6.587125	2.231778	-0.000264
1499	1.4905e+02	-19.6871	-103.415269	0.000679	6.789806	2.300449	-0.000272
1500	1.4915e+02	-19.7224	-103.669609	0.000638	6.384444	2.163108	-0.000256
1501	1.4925e+02	-19.7690	-103.911837	0.000608	6.080423	2.060103	-0.000243
1502	1.4935e+02	-19.7962	-104.182325	0.000679	6.789806	2.300449	-0.000272
1503	1.4945e+02	-19.8412	-104.477036	0.000740	7.397848	2.506459	-0.000296
1504	1.4955e+02	-19.8861	-104.699078	0.000557	5.573721	1.888428	-0.000223
1505	1.4965e+02	-19.9246	-105.018012	0.000801	8.005891	2.712469	-0.000321
1506	1.4975e+02	-19.9599	-105.288500	0.000679	6.789806	2.300449	-0.000272
1507	1.4985e+02	-20.0016	-105.522654	0.000588	5.877742	1.991433	-0.000235
1508	1.4995e+02	-19.9631	-105.514580	0.000020	0.202681	0.068670	0.000008
1509	1.5005e+02	-19.9262	-105.474208	0.000101	1.013404	0.343351	0.000041
1510	1.5015e+02	-19.8732	-105.445948	0.000071	0.709383	0.240345	0.000028
1511	1.5025e+02	-19.8395	-105.389428	0.000142	1.418765	0.480691	0.000057
1512	1.5034e+02	-19.7994	-105.288500	0.000253	2.533510	0.858376	0.000101
1513	1.5044e+02	-19.7609	-105.272352	0.000041	0.405362	0.137340	0.000016
1514	1.5054e+02	-19.7208	-105.207757	0.000162	1.621446	0.549361	0.000065
1515	1.5064e+02	-19.6904	-105.114903	0.000233	2.330829	0.789706	0.000093
1516	1.5074e+02	-19.6422	-105.046272	0.000172	1.722787	0.583696	0.000069
1517	1.5084e+02	-19.6005	-105.005901	0.000101	1.013404	0.343351	0.000041
1518	1.5094e+02	-19.5668	-104.929195	0.000193	1.925467	0.652366	0.000077
1519	1.5104e+02	-19.5219	-104.816155	0.000284	2.837531	0.961381	0.000114
1520	1.5114e+02	-19.4882	-104.711190	0.000263	2.634850	0.892711	0.000105
1521	1.5124e+02	-19.4385	-104.622373	0.000223	2.229489	0.755371	0.000089
1522	1.5134e+02	-19.4112	-104.590076	0.000081	0.810723	0.274680	0.000032
1523	1.5144e+02	-19.3711	-104.440702	0.000375	3.749594	1.270397	0.000150
1524	1.5154e+02	-19.3246	-104.351885	0.000223	2.229489	0.755371	0.000089
1525	1.5164e+02	-19.2845	-104.271142	0.000203	2.026808	0.686701	0.000081
1526	1.5174e+02	-19.2476	-104.182325	0.000223	2.229489	0.755371	0.000089
1527	1.5184e+02	-19.2107	-104.061211	0.000304	3.040212	1.030052	0.000122
1528	1.5194e+02	-19.1642	-103.984505	0.000193	1.925467	0.652366	0.000077
1529	1.5204e+02	-19.1401	-103.847243	0.000345	3.445573	1.167392	0.000138
1530	1.5214e+02	-19.0872	-103.754388	0.000233	2.330829	0.789706	0.000093
1531	1.5224e+02	-19.0519	-103.629237	0.000314	3.141552	1.064387	0.000126
1532	1.5233e+02	-19.0005	-103.540420	0.000223	2.229489	0.755371	0.000089
1533	1.5243e+02	-18.9684	-103.423343	0.000294	2.938871	0.995717	0.000118
1534	1.5253e+02	-18.9219	-103.290118	0.000334	3.344233	1.133057	0.000134
1535	1.5263e+02	-18.8866	-103.197264	0.000233	2.330829	0.789706	0.000093
1536	1.5273e+02	-18.8562	-103.068075	0.000324	3.242892	1.098722	0.000130
1537	1.5283e+02	-18.8096	-102.938887	0.000324	3.242892	1.098722	0.000130
1538	1.5293e+02	-18.7679	-102.825847	0.000284	2.837531	0.961381	0.000114
1539	1.5303e+02	-18.7310	-102.700696	0.000314	3.141552	1.064387	0.000126
1540	1.5313e+02	-18.6845	-102.571508	0.000324	3.242892	1.098722	0.000130
1541	1.5323e+02	-18.6556	-102.434245	0.000345	3.445573	1.167392	0.000138
1542	1.5333e+02	-18.5979	-102.309094	0.000314	3.141552	1.064387	0.000126
1543	1.5343e+02	-18.5674	-102.220277	0.000223	2.229489	0.755371	0.000089
1544	1.5353e+02	-18.5337	-102.091089	0.000324	3.242892	1.098722	0.000130
1545	1.5363e+02	-18.4872	-101.933640	0.000395	3.952275	1.339067	0.000158
1546	1.5373e+02	-18.4535	-101.836749	0.000243	2.432169	0.824041	0.000097
1547	1.5383e+02	-18.3941	-101.711598	0.000314	3.141552	1.064387	0.000126
1548	1.5393e+02	-18.3733	-101.594521	0.000294	2.938871	0.995717	0.000118
1549	1.5403e+02	-18.3268	-101.433035	0.000405	4.053615	1.373402	0.000162
1550	1.5413e+02	-18.2866	-101.315958	0.000294	2.938871	0.995717	0.000118
1551	1.5422e+02	-18.2498	-101.178696	0.000345	3.445573	1.167392	0.000138
1552	1.5432e+02	-18.2161	-101.093916	0.000213	2.128148	0.721036	0.000085
1553	1.5442e+02	-18.1711	-100.904171	0.000476	4.762998	1.613747	0.000191
1554	1.5452e+02	-18.1294	-100.787094	0.000294	2.938871	0.995717	0.000118
1555	1.5462e+02	-18.0941	-100.661942	0.000314	3.141552	1.064387	0.000126
1556	1.5472e+02	-18.0572	-100.508531	0.000385	3.850935	1.304732	0.000154
1557	1.5482e+02	-18.0107	-100.395492	0.000284	2.837531	0.961381	0.000114
1558	1.5492e+02	-17.9690	-100.254192	0.000355	3.546914	1.201727	0.000142
1559	1.5502e+02	-17.9321	-100.165375	0.000223	2.229489	0.755371	0.000089
1560	1.5512e+02	-17.8824	-100.036186	0.000324	3.242892	1.098722	0.000130
1561	1.5522e+02	-17.8503	-99.842404	0.000486	4.864339	1.648083	0.000195
1562	1.5532e+02	-17.8118	-99.721290	0.000304	3.040212	1.030052	0.000122
1563	1.5542e+02	-17.7717	-99.620361	0.000253	2.533510	0.858376	0.000101
1564	1.5552e+02	-17.7316	-99.450802	0.000426	4.256296	1.442072	0.000170
1565	1.5562e+02	-17.6979	-99.329688	0.000304	3.040212	1.030052	0.000122
1566	1.5572e+02	-17.6578	-99.212611	0.000294	2.938871	0.995717	0.000118
1567	1.5582e+02	-17.6145	-99.111682	0.000253	2.533510	0.858376	0.000101
1568	1.5592e+02	-17.5792	-98.954234	0.000395	3.952275	1.339067	0.000158
1569	1.5602e+02	-17.5391	-98.792749	0.000405	4.053615	1.373402	0.000162
1570	1.5612e+02	-17.4910	-98.683746	0.000274	2.736190	0.927046	0.000110
1571	1.5622e+02	-17.4460	-98.542446	0.000355	3.546914	1.201727	0.000142
1572	1.5631e+02	-17.4220	-98.409221	0.000334	3.344233	1.133057	0.000134
1573	1.5641e+02	-17.3754	-98.251772	0.000395	3.952275	1.339067	0.000158
1574	1.5651e+02	-17.3337	-98.146807	0.000263	2.634850	0.892711	0.000105
1575	1.5661e+02	-17.2824	-97.973210	0.000436	4.357637	1.476407	0.000174
1576	1.5671e+02	-17.2615	-97.860170	0.000284	2.837531	0.961381	0.000114
1577	1.5681e+02	-17.2295	-97.735019	0.000314	3.141552	1.064387	0.000126
1578	1.5691e+02	-17.1797	-97.605831	0.000324	3.242892	1.098722	0.000130
1579	1.5701e+02	-17.1380	-97.440308	0.000415	4.154956	1.407737	0.000166
1580	1.5711e+02	-17.0995	-97.278823	0.000405	4.053615	1.373402	0.000162
1581	1.5721e+02	-17.0562	-97.153672	0.000314	3.141552	1.064387	0.000126
1582	1.5731e+02	-17.0113	-97.101189	0.000132	1.317425	0.446356	0.000053
1583	1.5741e+02	-16.9744	-96.899332	0.000507	5.067019	1.716753	0.000203
1584	1.5751e+02	-16.9279	-96.758032	0.000355	3.546914	1.201727	0.000142
1585	1.5761e+02	-16.8958	-96.616732	0.000355	3.546914	1.201727	0.000142
1586	1.5771e+02	-16.8557	-96.495618	0.000304	3.040212	1.030052	0.000122
1587	1.5781e+02	-16.8140	-96.305873	0.000476	4.762998	1.613747	0.000191
1588	1.5791e+02	-16.7723	-96.196870	0.000274	2.736190	0.927046	0.000110
1589	1.5801e+02	-16.7466	-96.051533	0.000365	3.648254	1.236062	0.000146
1590	1.5811e+02	-16.7001	-95.930419	0.000304	3.040212	1.030052	0.000122
1591	1.5821e+02	-16.6519	-95.756823	0.000436	4.357637	1.476407	0.000174
1592	1.5830e+02	-16.6215	-95.643783	0.000284	2.837531	0.961381	0.000114
1593	1.5840e+02	-16.5765	-95.470186	0.000436	4.357637	1.476407	0.000174
1594	1.5850e+02	-16.5396	-95.332923	0.000345	3.445573	1.167392	0.000138
1595	1.5860e+02	-16.4995	-95.167401	0.000415	4.154956	1.407737	0.000166
1596	1.5870e+02	-16.4482	-95.018027	0.000375	3.749594	1.270397	0.000150
1597	1.5880e+02	-16.4177	-94.896913	0.000304	3.040212	1.030052	0.000122
1598	1.5890e+02	-16.3744	-94.763687	0.000334	3.344233	1.133057	0.000134
1599	1.5900e+02	-16.3375	-94.594127	0.000426	4.256296	1.442072	0.000170
1600	1.5910e+02	-16.2926	-94.436679	0.000395	3.952275	1.339067	0.000158
1601	1.5920e+02	-16.2557	-94.287305	0.000375	3.749594	1.270397	0.000150
1602	1.5930e+02	-16.2204	-94.166191	0.000304	3.040212	1.030052	0.000122
1603	1.5940e+02	-16.1835	-94.032966	0.000334	3.344233	1.133057	0.000134
1604	1.5950e+02	-16.1386	-93.863406	0.000426	4.256296	1.442072	0.000170
1605	1.5960e+02	-16.0985	-93.709995	0.000385	3.850935	1.304732	0.000154
1606	1.5970e+02	-16.0520	-93.584844	0.000314	3.141552	1.064387	0.000126
1607	1.5980e+02	-16.0167	-93.431432	0.000385	3.850935	1.304732	0.000154
1608	1.5990e+02	-15.9766	-93.269947	0.000405	4.053615	1.373402	0.000162
1609	1.6000e+02	-15.9381	-93.169019	0.000253	2.533510	0.858376	0.000101
1610	1.6010e+02	-15.9028	-92.971199	0.000497	4.965679	1.682418	0.000199
1611	1.6019e+02	-15.8643	-92.793565	0.000446	4.458977	1.510742	0.000179
1612	1.6029e+02	-15.8242	-92.684562	0.000274	2.736190	0.927046	0.000110
1613	1.6039e+02	-15.7744	-92.535188	0.000375	3.749594	1.270397	0.000150
1614	1.6049e+02	-15.7375	-92.369666	0.000415	4.154956	1.407737	0.000166
1615	1.6059e+02	-15.6926	-92.220292	0.000375	3.749594	1.270397	0.000150
1616	1.6069e+02	-15.6653	-92.066881	0.000385	3.850935	1.304732	0.000154
1617	1.6079e+02	-15.6204	-91.921544	0.000365	3.648254	1.236062	0.000146
1618	1.6089e+02	-15.5835	-91.772170	0.000375	3.749594	1.270397	0.000150
1619	1.6099e+02	-15.5338	-91.634907	0.000345	3.445573	1.167392	0.000138
1620	1.6109e+02	-15.5113	-91.473422	0.000405	4.053615	1.373402	0.000162
1621	1.6119e+02	-15.4616	-91.283676	0.000476	4.762998	1.613747	0.000191
1622	1.6129e+02	-15.4263	-91.170636	0.000284	2.837531	0.961381	0.000114
1623	1.6139e+02	-15.3750	-91.029337	0.000355	3.546914	1.201727	0.000142
1624	1.6149e+02	-15.3429	-90.888037	0.000355	3.546914	1.201727	0.000142
1625	1.6159e+02	-15.3012	-90.706366	0.000456	4.560317	1.545077	0.000183
1626	1.6169e+02	-15.2579	-90.556992	0.000375	3.749594	1.270397	0.000150
1627	1.6179e+02	-15.2210	-90.399543	0.000395	3.952275	1.339067	0.000158
1628	1.6189e+02	-15.1776	-90.238058	0.000405	4.053615	1.373402	0.000162
1629	1.6199e+02	-15.1472	-90.092721	0.000365	3.648254	1.236062	0.000146
1630	1.6209e+02	-15.0958	-89.927199	0.000415	4.154956	1.407737	0.000166
1631	1.6219e+02	-15.0621	-89.781862	0.000365	3.648254	1.236062	0.000146
1632	1.6228e+02	-15.0268	-89.648636	0.000334	3.344233	1.133057	0.000134
1633	1.6238e+02	-14.9867	-89.479076	0.000426	4.256296	1.442072	0.000170
1634	1.6248e+02	-14.9418	-89.333740	0.000365	3.648254	1.236062	0.000146
1635	1.6258e+02	-14.8953	-89.152069	0.000456	4.560317	1.545077	0.000183
1636	1.6268e+02	-14.8552	-89.034992	0.000294	2.938871	0.995717	0.000118
1637	1.6278e+02	-14.8183	-88.877543	0.000395	3.952275	1.339067	0.000158
1638	1.6288e+02	-14.7862	-88.687798	0.000476	4.762998	1.613747	0.000191
1639	1.6298e+02	-14.7365	-88.498053	0.000476	4.762998	1.613747	0.000191
1640	1.6308e+02	-14.7060	-88.421347	0.000193	1.925467	0.652366	0.000077
1641	1.6318e+02	-14.6691	-88.203342	0.000547	5.472381	1.854093	0.000219
1642	1.6328e+02	-14.6146	-88.094339	0.000274	2.736190	0.927046	0.000110
1643	1.6338e+02	-14.5825	-87.912668	0.000456	4.560317	1.545077	0.000183
1644	1.6348e+02	-14.5456	-87.771368	0.000355	3.546914	1.201727	0.000142
1645	1.6358e+02	-14.4975	-87.601808	0.000426	4.256296	1.442072	0.000170
1646	1.6368e+02	-14.4670	-87.448397	0.000385	3.850935	1.304732	0.000154
1647	1.6378e+02	-14.4285	-87.262689	0.000466	4.661658	1.579412	0.000187
1648	1.6388e+02	-14.3803	-87.129463	0.000334	3.344233	1.133057	0.000134
1649	1.6398e+02	-14.3467	-86.951830	0.000446	4.458977	1.510742	0.000179
1650	1.6408e+02	-14.3065	-86.790344	0.000405	4.053615	1.373402	0.000162
1651	1.6418e+02	-14.2568	-86.632896	0.000395	3.952275	1.339067	0.000158
1652	1.6427e+02	-14.2279	-86.443150	0.000476	4.762998	1.613747	0.000191
1653	1.6437e+02	-14.1782	-86.309925	0.000334	3.344233	1.133057	0.000134
1654	1.6447e+02	-14.1445	-86.128254	0.000456	4.560317	1.545077	0.000183
1655	1.6457e+02	-14.0948	-85.974843	0.000385	3.850935	1.304732	0.000154
1656	1.6467e+02	-14.0643	-85.785097	0.000476	4.762998	1.613747	0.000191
1657	1.6477e+02	-14.0258	-85.639760	0.000365	3.648254	1.236062	0.000146
1658	1.6487e+02	-13.9921	-85.486349	0.000385	3.850935	1.304732	0.000154
1659	1.6497e+02	-13.9456	-85.324864	0.000405	4.053615	1.373402	0.000162
1660	1.6507e+02	-13.9087	-85.131081	0.000486	4.864339	1.648083	0.000195
1661	1.6517e+02	-13.8638	-84.949410	0.000456	4.560317	1.545077	0.000183
1662	1.6527e+02	-13.8285	-84.828296	0.000304	3.040212	1.030052	0.000122
1663	1.6537e+02	-13.7948	-84.670848	0.000395	3.952275	1.339067	0.000158
1664	1.6547e+02	-13.7451	-84.477065	0.000486	4.864339	1.648083	0.000195
1665	1.6557e+02	-13.7018	-84.299431	0.000446	4.458977	1.510742	0.000179
1666	1.6567e+02	-13.6584	-84.162169	0.000345	3.445573	1.167392	0.000138
1667	1.6577e+02	-13.6280	-83.976460	0.000466	4.661658	1.579412	0.000187
1668	1.6587e+02	-13.5927	-83.851309	0.000314	3.141552	1.064387	0.000126
1669	1.6597e+02	-13.5397	-83.649452	0.000507	5.067019	1.716753	0.000203
1670	1.6607e+02	-13.5157	-83.508153	0.000355	3.546914	1.201727	0.000142
1671	1.6616e+02	-13.4772	-83.354742	0.000385	3.850935	1.304732	0.000154
1672	1.6626e+02	-13.4258	-83.189219	0.000415	4.154956	1.407737	0.000166
1673	1.6636e+02	-13.3873	-83.027734	0.000405	4.053615	1.373402	0.000162
1674	1.6646e+02	-13.3456	-82.801654	0.000568	5.675062	1.922763	0.000227
1675	1.6656e+02	-13.3135	-82.660354	0.000355	3.546914	1.201727	0.000142
1676	1.6666e+02	-13.2622	-82.506943	0.000385	3.850935	1.304732	0.000154
1677	1.6676e+02	-13.2333	-82.325272	0.000456	4.560317	1.545077	0.000183
1678	1.6686e+02	-13.1852	-82.143601	0.000456	4.560317	1.545077	0.000183
1679	1.6696e+02	-13.1531	-81.990190	0.000385	3.850935	1.304732	0.000154
1680	1.6706e+02	-13.1002	-81.840816	0.000375	3.749594	1.270397	0.000150
1681	1.6716e+02	-13.0745	-81.642996	0.000497	4.965679	1.682418	0.000199
1682	1.6726e+02	-13.0312	-81.481511	0.000405	4.053615	1.373402	0.000162
1683	1.6736e+02	-12.9879	-81.328099	0.000385	3.850935	1.304732	0.000154
1684	1.6746e+02	-12.9494	-81.130280	0.000497	4.965679	1.682418	0.000199
1685	1.6756e+02	-12.9061	-80.976869	0.000385	3.850935	1.304732	0.000154
1686	1.6766e+02	-12.8708	-80.843643	0.000334	3.344233	1.133057	0.000134
1687	1.6776e+02	-12.8371	-80.661972	0.000456	4.560317	1.545077	0.000183
1688	1.6786e+02	-12.7938	-80.496449	0.000415	4.154956	1.407737	0.000166
1689	1.6796e+02	-12.7504	-80.294593	0.000507	5.067019	1.716753	0.000203
1690	1.6806e+02	-12.7119	-80.181553	0.000284	2.837531	0.961381	0.000114
1691	1.6816e+02	-12.6702	-79.971622	0.000527	5.269700	1.785423	0.000211
1692	1.6825e+02	-12.6317	-79.838396	0.000334	3.344233	1.133057	0.000134
1693	1.6835e+02	-12.5868	-79.640577	0.000497	4.965679	1.682418	0.000199
1694	1.6845e+02	-12.5499	-79.483128	0.000395	3.952275	1.339067	0.000158
1695	1.6855e+02	-12.5034	-79.293383	0.000476	4.762998	1.613747	0.000191
1696	1.6865e+02	-12.4729	-79.144009	0.000375	3.749594	1.270397	0.000150
1697	1.6875e+02	-12.4344	-78.954264	0.000476	4.762998	1.613747	0.000191
1698	1.6885e+02	-12.3959	-78.796815	0.000395	3.952275	1.339067	0.000158
1699	1.6895e+02	-12.3574	-78.590921	0.000517	5.168360	1.751088	0.000207
1700	1.6905e+02	-12.3125	-78.465770	0.000314	3.141552	1.064387	0.000126
1701	1.6915e+02	-12.2644	-78.263913	0.000507	5.067019	1.716753	0.000203
1702	1.6925e+02	-12.2355	-78.114539	0.000375	3.749594	1.270397	0.000150
1703	1.6935e+02	-12.1874	-77.936905	0.000446	4.458977	1.510742	0.000179
1704	1.6945e+02	-12.1553	-77.739086	0.000497	4.965679	1.682418	0.000199
1705	1.6955e+02	-12.1136	-77.577600	0.000405	4.053615	1.373402	0.000162
1706	1.6965e+02	-12.0783	-77.424189	0.000385	3.850935	1.304732	0.000154
1707	1.6975e+02	-12.0317	-77.210221	0.000537	5.371041	1.819758	0.000215
1708	1.6985e+02	-11.9948	-77.024513	0.000466	4.661658	1.579412	0.000187
1709	1.6995e+02	-11.9547	-76.879176	0.000365	3.648254	1.236062	0.000146
1710	1.7005e+02	-11.9194	-76.657133	0.000557	5.573721	1.888428	0.000223
1711	1.7015e+02	-11.8617	-76.511797	0.000365	3.648254	1.236062	0.000146
1712	1.7024e+02	-11.8328	-76.338200	0.000436	4.357637	1.476407	0.000174
1713	1.7034e+02	-11.7959	-76.184789	0.000385	3.850935	1.304732	0.000154
1714	1.7044e+02	-11.7638	-75.982932	0.000507	5.067019	1.716753	0.000203
1715	1.7054e+02	-11.7141	-75.801261	0.000456	4.560317	1.545077	0.000183
1716	1.7064e+02	-11.6740	-75.623627	0.000446	4.458977	1.510742	0.000179
1717	1.7074e+02	-11.6291	-75.494438	0.000324	3.242892	1.098722	0.000130
1718	1.7084e+02	-11.6002	-75.292582	0.000507	5.067019	1.716753	0.000203
1719	1.7094e+02	-11.5633	-75.110910	0.000456	4.560317	1.545077	0.000183
1720	1.7104e+02	-11.5184	-74.884831	0.000568	5.675062	1.922763	0.000227
1721	1.7114e+02	-11.4751	-74.747568	0.000345	3.445573	1.167392	0.000138
1722	1.7124e+02	-11.4253	-74.590120	0.000395	3.952275	1.339067	0.000158
1723	1.7134e+02	-11.4045	-74.432672	0.000395	3.952275	1.339067	0.000158
1724	1.7144e+02	-11.3564	-74.218703	0.000537	5.371041	1.819758	0.000215
1725	1.7154e+02	-11.3227	-74.008772	0.000527	5.269700	1.785423	0.000211
1726	1.7164e+02	-11.2745	-73.863435	0.000365	3.648254	1.236062	0.000146
1727	1.7174e+02	-11.2344	-73.665616	0.000497	4.965679	1.682418	0.000199
1728	1.7184e+02	-11.1911	-73.508168	0.000395	3.952275	1.339067	0.000158
1729	1.7194e+02	-11.1558	-73.330534	0.000446	4.458977	1.510742	0.000179
1730	1.7204e+02	-11.1173	-73.144825	0.000466	4.661658	1.579412	0.000187
1731	1.7213e+02	-11.0740	-72.983340	0.000405	4.053615	1.373402	0.000162
1732	1.7223e+02	-11.0387	-72.850114	0.000334	3.344233	1.133057	0.000134
1733	1.7233e+02	-10.9922	-72.611923	0.000598	5.979083	2.025768	0.000239
1734	1.7243e+02	-10.9585	-72.486772	0.000314	3.141552	1.064387	0.000126
1735	1.7253e+02	-10.9200	-72.321250	0.000415	4.154956	1.407737	0.000166
1736	1.7263e+02	-10.8831	-72.087096	0.000588	5.877742	1.991433	0.000235
1737	1.7273e+02	-10.8382	-71.941759	0.000365	3.648254	1.236062	0.000146
1738	1.7283e+02	-10.7981	-71.788348	0.000385	3.850935	1.304732	0.000154
1739	1.7293e+02	-10.7596	-71.554194	0.000588	5.877742	1.991433	0.000235
1740	1.7303e+02	-10.7195	-71.408857	0.000365	3.648254	1.236062	0.000146
1741	1.7313e+02	-10.6826	-71.190852	0.000547	5.472381	1.854093	0.000219
1742	1.7323e+02	-10.6377	-71.037440	0.000385	3.850935	1.304732	0.000154
1743	1.7333e+02	-10.5944	-70.859806	0.000446	4.458977	1.510742	0.000179
1744	1.7343e+02	-10.5591	-70.706395	0.000385	3.850935	1.304732	0.000154
1745	1.7353e+02	-10.5238	-70.532798	0.000436	4.357637	1.476407	0.000174
1746	1.7363e+02	-10.4805	-70.326905	0.000517	5.168360	1.751088	0.000207
1747	1.7373e+02	-10.4323	-70.153308	0.000436	4.357637	1.476407	0.000174
1748	1.7383e+02	-10.4083	-69.979711	0.000436	4.357637	1.476407	0.000174
1749	1.7393e+02	-10.3569	-69.814188	0.000415	4.154956	1.407737	0.000166
1750	1.7403e+02	-10.3136	-69.596183	0.000547	5.472381	1.854093	0.000219
1751	1.7413e+02	-10.2751	-69.390289	0.000517	5.168360	1.751088	0.000207
1752	1.7422e+02	-10.2302	-69.257064	0.000334	3.344233	1.133057	0.000134
1753	1.7432e+02	-10.1997	-69.051170	0.000517	5.168360	1.751088	0.000207
1754	1.7442e+02	-10.1580	-68.889684	0.000405	4.053615	1.373402	0.000162
1755	1.7452e+02	-10.1259	-68.699939	0.000476	4.762998	1.613747	0.000191
1756	1.7462e+02	-10.0778	-68.481934	0.000547	5.472381	1.854093	0.000219
1757	1.7472e+02	-10.0489	-68.376968	0.000263	2.634850	0.892711	0.000105
1758	1.7482e+02	-9.9944	-68.130703	0.000618	6.181764	2.094438	0.000248
1759	1.7492e+02	-9.9671	-67.977292	0.000385	3.850935	1.304732	0.000154
1760	1.7502e+02	-9.9238	-67.783509	0.000486	4.864339	1.648083	0.000195
1761	1.7512e+02	-9.8805	-67.565504	0.000547	5.472381	1.854093	0.000219
1762	1.7522e+02	-9.8420	-67.387870	0.000446	4.458977	1.510742	0.000179
1763	1.7532e+02	-9.8067	-67.258681	0.000324	3.242892	1.098722	0.000130
1764	1.7542e+02	-9.7602	-67.036639	0.000557	5.573721	1.888428	0.000223
1765	1.7552e+02	-9.7217	-66.838819	0.000497	4.965679	1.682418	0.000199
1766	1.7562e+02	-9.6880	-66.685408	0.000385	3.850935	1.304732	0.000154
1767	1.7572e+02	-9.6430	-66.487588	0.000497	4.965679	1.682418	0.000199
1768	1.7582e+02	-9.5965	-66.277657	0.000527	5.269700	1.785423	0.000211
1769	1.7592e+02	-9.5644	-66.095986	0.000456	4.560317	1.545077	0.000183
1770	1.7602e+02	-9.5179	-65.926427	0.000426	4.256296	1.442072	0.000170
1771	1.7612e+02	-9.4890	-65.752830	0.000436	4.357637	1.476407	0.000174
1772	1.7621e+02	-9.4409	-65.575196	0.000446	4.458977	1.510742	0.000179
1773	1.7631e+02	-9.4104	-65.353153	0.000557	5.573721	1.888428	0.000223
1774	1.7641e+02	-9.3607	-65.167445	0.000466	4.661658	1.579412	0.000187
1775	1.7651e+02	-9.3270	-64.977700	0.000476	4.762998	1.613747	0.000191
1776	1.7661e+02	-9.2805	-64.820251	0.000395	3.952275	1.339067	0.000158
1777	1.7671e+02	-9.2420	-64.630506	0.000476	4.762998	1.613747	0.000191
1778	1.7681e+02	-9.2067	-64.420575	0.000527	5.269700	1.785423	0.000211
1779	1.7691e+02	-9.1698	-64.271201	0.000375	3.749594	1.270397	0.000150
1780	1.7701e+02	-9.1281	-64.077418	0.000486	4.864339	1.648083	0.000195
1781	1.7711e+02	-9.0767	-63.819042	0.000649	6.485785	2.197443	0.000260
1782	1.7721e+02	-9.0399	-63.649482	0.000426	4.256296	1.442072	0.000170
1783	1.7731e+02	-9.0078	-63.463774	0.000466	4.661658	1.579412	0.000187
1784	1.7741e+02	-8.9741	-63.274028	0.000476	4.762998	1.613747	0.000191
1785	1.7751e+02	-8.9340	-63.064097	0.000527	5.269700	1.785423	0.000211
1786	1.7761e+02	-8.8826	-62.894538	0.000426	4.256296	1.442072	0.000170
1787	1.7771e+02	-8.8506	-62.720941	0.000436	4.357637	1.476407	0.000174
1788	1.7781e+02	-8.8056	-62.543307	0.000446	4.458977	1.510742	0.000179
1789	1.7791e+02	-8.7687	-62.313190	0.000578	5.776402	1.957098	0.000231
1790	1.7801e+02	-8.7254	-62.167853	0.000365	3.648254	1.236062	0.000146
1791	1.7810e+02	-8.6789	-62.014442	0.000385	3.850935	1.304732	0.000154
1792	1.7820e+02	-8.6452	-61.768177	0.000618	6.181764	2.094438	0.000248
1793	1.7830e+02	-8.6067	-61.558246	0.000527	5.269700	1.785423	0.000211
1794	1.7840e+02	-8.5666	-61.420983	0.000345	3.445573	1.167392	0.000138
1795	1.7850e+02	-8.5265	-61.227201	0.000486	4.864339	1.648083	0.000195
1796	1.7860e+02	-8.4880	-61.009195	0.000547	5.472381	1.854093	0.000219
1797	1.7870e+02	-8.4447	-60.811376	0.000497	4.965679	1.682418	0.000199
1798	1.7880e+02	-8.4126	-60.645853	0.000415	4.154956	1.407737	0.000166
1799	1.7890e+02	-8.3789	-60.431885	0.000537	5.371041	1.819758	0.000215
1800	1.7900e+02	-8.3324	-60.242139	0.000476	4.762998	1.613747	0.000191
1801	1.7910e+02	-8.2875	-60.020097	0.000557	5.573721	1.888428	0.000223
1802	1.7920e+02	-8.2474	-59.846500	0.000436	4.357637	1.476407	0.000174
1803	1.7930e+02	-8.2073	-59.652718	0.000486	4.864339	1.648083	0.000195
1804	1.7940e+02	-8.1591	-59.499307	0.000385	3.850935	1.304732	0.000154
1805	1.7950e+02	-8.1383	-59.265153	0.000588	5.877742	1.991433	0.000235
1806	1.7960e+02	-8.0853	-59.087519	0.000446	4.458977	1.510742	0.000179
1807	1.7970e+02	-8.0484	-58.865476	0.000557	5.573721	1.888428	0.000223
1808	1.7980e+02	-8.0115	-58.708028	0.000395	3.952275	1.339067	0.000158
1809	1.7990e+02	-7.9682	-58.469837	0.000598	5.979083	2.025768	0.000239
1810	1.8000e+02	-7.9233	-58.259906	0.000527	5.269700	1.785423	0.000211
1811	1.8009e+02	-7.8912	-58.078235	0.000456	4.560317	1.545077	0.000183
1812	1.8019e+02	-7.8463	-57.860229	0.000547	5.472381	1.854093	0.000219
1813	1.8029e+02	-7.8126	-57.694707	0.000415	4.154956	1.407737	0.000166
1814	1.8039e+02	-7.7709	-57.468627	0.000568	5.675062	1.922763	0.000227
1815	1.8049e+02	-7.7324	-57.250622	0.000547	5.472381	1.854093	0.000219
1816	1.8059e+02	-7.6827	-57.064914	0.000466	4.661658	1.579412	0.000187
1817	1.8069e+02	-7.6378	-56.854983	0.000527	5.269700	1.785423	0.000211
1818	1.8079e+02	-7.6105	-56.661200	0.000486	4.864339	1.648083	0.000195
1819	1.8089e+02	-7.5736	-56.503752	0.000395	3.952275	1.339067	0.000158
1820	1.8099e+02	-7.5367	-56.265561	0.000598	5.979083	2.025768	0.000239
1821	1.8109e+02	-7.4918	-56.087927	0.000446	4.458977	1.510742	0.000179
1822	1.8119e+02	-7.4468	-55.890107	0.000497	4.965679	1.682418	0.000199
1823	1.8129e+02	-7.4132	-55.627693	0.000659	6.587125	2.231778	0.000264
1824	1.8139e+02	-7.3682	-55.429874	0.000497	4.965679	1.682418	0.000199
1825	1.8149e+02	-7.3362	-55.288574	0.000355	3.546914	1.201727	0.000142
1826	1.8159e+02	-7.2896	-55.062494	0.000568	5.675062	1.922763	0.000227
1827	1.8169e+02	-7.2463	-54.848526	0.000537	5.371041	1.819758	0.000215
1828	1.8179e+02	-7.2046	-54.638595	0.000527	5.269700	1.785423	0.000211
1829	1.8189e+02	-7.1789	-54.464998	0.000436	4.357637	1.476407	0.000174
1830	1.8199e+02	-7.1260	-54.226807	0.000598	5.979083	2.025768	0.000239
1831	1.8209e+02	-7.0923	-54.045136	0.000456	4.560317	1.545077	0.000183
1832	1.8218e+02	-7.0506	-53.766574	0.000699	6.992487	2.369119	0.000280
1833	1.8228e+02	-7.0121	-53.609125	0.000395	3.952275	1.339067	0.000158
1834	1.8238e+02	-6.9688	-53.411306	0.000497	4.965679	1.682418	0.000199
1835	1.8248e+02	-6.9319	-53.205412	0.000517	5.168360	1.751088	0.000207
1836	1.8258e+02	-6.8918	-52.979332	0.000568	5.675062	1.922763	0.000227
1837	1.8268e+02	-6.8581	-52.813810	0.000415	4.154956	1.407737	0.000166
1838	1.8278e+02	-6.8100	-52.587730	0.000568	5.675062	1.922763	0.000227
1839	1.8288e+02	-6.7715	-52.377799	0.000527	5.269700	1.785423	0.000211
1840	1.8298e+02	-6.7314	-52.175942	0.000507	5.067019	1.716753	0.000203
1841	1.8308e+02	-6.6913	-51.978123	0.000497	4.965679	1.682418	0.000199
1842	1.8318e+02	-6.6640	-51.796452	0.000456	4.560317	1.545077	0.000183
1843	1.8328e+02	-6.6126	-51.578446	0.000547	5.472381	1.854093	0.000219
1844	1.8338e+02	-6.5677	-51.352367	0.000568	5.675062	1.922763	0.000227
1845	1.8348e+02	-6.5389	-51.154547	0.000497	4.965679	1.682418	0.000199
1846	1.8358e+02	-6.4859	-50.948653	0.000517	5.168360	1.751088	0.000207
1847	1.8368e+02	-6.4490	-50.766982	0.000456	4.560317	1.545077	0.000183
1848	1.8378e+02	-6.4233	-50.561088	0.000517	5.168360	1.751088	0.000207
1849	1.8388e+02	-6.3832	-50.379417	0.000456	4.560317	1.545077	0.000183
1850	1.8398e+02	-6.3351	-50.161412	0.000547	5.472381	1.854093	0.000219
1851	1.8407e+02	-6.2934	-49.947443	0.000537	5.371041	1.819758	0.000215
1852	1.8417e+02	-6.2581	-49.757698	0.000476	4.762998	1.613747	0.000191
1853	1.8427e+02	-6.2244	-49.523544	0.000588	5.877742	1.991433	0.000235
1854	1.8437e+02	-6.1811	-49.333799	0.000476	4.762998	1.613747	0.000191
1855	1.8447e+02	-6.1426	-49.071385	0.000659	6.587125	2.231778	0.000264
1856	1.8457e+02	-6.1025	-48.909899	0.000405	4.053615	1.373402	0.000162
1857	1.8467e+02	-6.0672	-48.663634	0.000618	6.181764	2.094438	0.000248
1858	1.8477e+02	-6.0271	-48.473889	0.000476	4.762998	1.613747	0.000191
1859	1.8487e+02	-5.9806	-48.259921	0.000537	5.371041	1.819758	0.000215
1860	1.8497e+02	-5.9501	-48.054027	0.000517	5.168360	1.751088	0.000207
1861	1.8507e+02	-5.8972	-47.836021	0.000547	5.472381	1.854093	0.000219
1862	1.8517e+02	-5.8458	-47.618016	0.000547	5.472381	1.854093	0.000219
1863	1.8527e+02	-5.8250	-47.412122	0.000517	5.168360	1.751088	0.000207
1864	1.8537e+02	-5.7817	-47.206228	0.000517	5.168360	1.751088	0.000207
1865	1.8547e+02	-5.7432	-47.028594	0.000446	4.458977	1.510742	0.000179
1866	1.8557e+02	-5.6998	-46.814626	0.000537	5.371041	1.819758	0.000215
1867	1.8567e+02	-5.6758	-46.588546	0.000568	5.675062	1.922763	0.000227
1868	1.8577e+02	-5.6116	-46.346318	0.000608	6.080423	2.060103	0.000243
1869	1.8587e+02	-5.5891	-46.156573	0.000476	4.762998	1.613747	0.000191
1870	1.8597e+02	-5.5378	-45.934530	0.000557	5.573721	1.888428	0.000223
1871	1.8606e+02	-5.5057	-45.716525	0.000547	5.472381	1.854093	0.000219
1872	1.8616e+02	-5.4608	-45.522743	0.000486	4.864339	1.648083	0.000195
1873	1.8626e+02	-5.4223	-45.280514	0.000608	6.080423	2.060103	0.000243
1874	1.8636e+02	-5.3902	-45.082695	0.000497	4.965679	1.682418	0.000199
1875	1.8646e+02	-5.3405	-44.832392	0.000628	6.283104	2.128773	0.000252
1876	1.8656e+02	-5.2956	-44.626498	0.000517	5.168360	1.751088	0.000207
1877	1.8666e+02	-5.2651	-44.428679	0.000497	4.965679	1.682418	0.000199
1878	1.8676e+02	-5.2330	-44.170302	0.000649	6.485785	2.197443	0.000260
1879	1.8686e+02	-5.1769	-43.992668	0.000446	4.458977	1.510742	0.000179
1880	1.8696e+02	-5.1464	-43.754477	0.000598	5.979083	2.025768	0.000239
1881	1.8706e+02	-5.1079	-43.556657	0.000497	4.965679	1.682418	0.000199
1882	1.8716e+02	-5.0710	-43.334615	0.000557	5.573721	1.888428	0.000223
1883	1.8726e+02	-5.0245	-43.080275	0.000638	6.384444	2.163108	0.000256
1884	1.8736e+02	-4.9827	-42.898604	0.000456	4.560317	1.545077	0.000183
1885	1.8746e+02	-4.9442	-42.672525	0.000568	5.675062	1.922763	0.000227
1886	1.8756e+02	-4.9041	-42.470668	0.000507	5.067019	1.716753	0.000203
1887	1.8766e+02	-4.8640	-42.256700	0.000537	5.371041	1.819758	0.000215
1888	1.8776e+02	-4.8159	-42.042732	0.000537	5.371041	1.819758	0.000215
1889	1.8786e+02	-4.7886	-41.804541	0.000598	5.979083	2.025768	0.000239
1890	1.8796e+02	-4.7405	-41.610758	0.000486	4.864339	1.648083	0.000195
1891	1.8806e+02	-4.6988	-41.396790	0.000537	5.371041	1.819758	0.000215
1892	1.8815e+02	-4.6651	-41.170710	0.000568	5.675062	1.922763	0.000227
1893	1.8825e+02	-4.6202	-40.944631	0.000568	5.675062	1.922763	0.000227
1894	1.8835e+02	-4.5865	-40.682217	0.000659	6.587125	2.231778	0.000264
1895	1.8845e+02	-4.5480	-40.528806	0.000385	3.850935	1.304732	0.000154
1896	1.8855e+02	-4.5063	-40.306763	0.000557	5.573721	1.888428	0.000223
1897	1.8865e+02	-4.4726	-40.052424	0.000638	6.384444	2.163108	0.000256
1898	1.8875e+02	-4.4261	-39.846530	0.000517	5.168360	1.751088	0.000207
1899	1.8885e+02	-4.3844	-39.656784	0.000476	4.762998	1.613747	0.000191
1900	1.8895e+02	-4.3507	-39.450890	0.000517	5.168360	1.751088	0.000207
1901	1.8905e+02	-4.3138	-39.208662	0.000608	6.080423	2.060103	0.000243
1902	1.8915e+02	-4.2657	-38.974508	0.000588	5.877742	1.991433	0.000235
1903	1.8925e+02	-4.2255	-38.744392	0.000578	5.776402	1.957098	0.000231
1904	1.8935e+02	-4.1822	-38.570795	0.000436	4.357637	1.476407	0.000174
1905	1.8945e+02	-4.1437	-38.304344	0.000669	6.688466	2.266113	0.000268
1906	1.8955e+02	-4.0956	-38.130747	0.000436	4.357637	1.476407	0.000174
1907	1.8965e+02	-4.0699	-37.876407	0.000638	6.384444	2.163108	0.000256
1908	1.8975e+02	-4.0266	-37.674551	0.000507	5.067019	1.716753	0.000203
1909	1.8985e+02	-3.9897	-37.420211	0.000638	6.384444	2.163108	0.000256
1910	1.8995e+02	-3.9560	-37.222392	0.000497	4.965679	1.682418	0.000199
1911	1.9004e+02	-3.9127	-36.976126	0.000618	6.181764	2.094438	0.000248
1912	1.9014e+02	-3.8598	-36.766195	0.000527	5.269700	1.785423	0.000211
1913	1.9024e+02	-3.8245	-36.560301	0.000517	5.168360	1.751088	0.000207
1914	1.9034e+02	-3.7908	-36.342296	0.000547	5.472381	1.854093	0.000219
1915	1.9044e+02	-3.7507	-36.116216	0.000568	5.675062	1.922763	0.000227
1916	1.9054e+02	-3.7042	-35.894174	0.000557	5.573721	1.888428	0.000223
1917	1.9064e+02	-3.6705	-35.676169	0.000547	5.472381	1.854093	0.000219
1918	1.9074e+02	-3.6320	-35.425866	0.000628	6.283104	2.128773	0.000252
1919	1.9084e+02	-3.5919	-35.236121	0.000476	4.762998	1.613747	0.000191
1920	1.9094e+02	-3.5421	-34.953521	0.000709	7.093827	2.403454	0.000284
1921	1.9104e+02	-3.5133	-34.783962	0.000426	4.256296	1.442072	0.000170
1922	1.9114e+02	-3.4716	-34.533659	0.000628	6.283104	2.128773	0.000252
1923	1.9124e+02	-3.4363	-34.319691	0.000537	5.371041	1.819758	0.000215
1924	1.9134e+02	-3.3849	-34.073426	0.000618	6.181764	2.094438	0.000248
1925	1.9144e+02	-3.3432	-33.867532	0.000517	5.168360	1.751088	0.000207
1926	1.9154e+02	-3.3127	-33.649526	0.000547	5.472381	1.854093	0.000219
1927	1.9164e+02	-3.2646	-33.403261	0.000618	6.181764	2.094438	0.000248
1928	1.9174e+02	-3.2293	-33.148922	0.000638	6.384444	2.163108	0.000256
1929	1.9184e+02	-3.1844	-32.930916	0.000547	5.472381	1.854093	0.000219
1930	1.9194e+02	-3.1491	-32.712911	0.000547	5.472381	1.854093	0.000219
1931	1.9203e+02	-3.1154	-32.490868	0.000557	5.573721	1.888428	0.000223
1932	1.9213e+02	-3.0673	-32.268826	0.000557	5.573721	1.888428	0.000223
1933	1.9223e+02	-3.0352	-32.071006	0.000497	4.965679	1.682418	0.000199
1934	1.9233e+02	-2.9903	-31.784370	0.000720	7.195167	2.437789	0.000288
1935	1.9243e+02	-2.9502	-31.590587	0.000486	4.864339	1.648083	0.000195
1936	1.9253e+02	-2.9117	-31.324136	0.000669	6.688466	2.266113	0.000268
1937	1.9263e+02	-2.8748	-31.053648	0.000679	6.789806	2.300449	0.000272
1938	1.9273e+02	-2.8299	-30.867940	0.000466	4.661658	1.579412	0.000187
1939	1.9283e+02	-2.7978	-30.633786	0.000588	5.877742	1.991433	0.000235
1940	1.9293e+02	-2.7513	-30.456152	0.000446	4.458977	1.510742	0.000179
1941	1.9303e+02	-2.7015	-30.165478	0.000730	7.296508	2.472124	0.000292
1942	1.9313e+02	-2.6775	-29.955547	0.000527	5.269700	1.785423	0.000211
1943	1.9323e+02	-2.6325	-29.672948	0.000709	7.093827	2.403454	0.000284
1944	1.9333e+02	-2.5940	-29.471091	0.000507	5.067019	1.716753	0.000203
1945	1.9343e+02	-2.5507	-29.257123	0.000537	5.371041	1.819758	0.000215
1946	1.9353e+02	-2.5058	-29.002783	0.000638	6.384444	2.163108	0.000256
1947	1.9363e+02	-2.4801	-28.768629	0.000588	5.877742	1.991433	0.000235
1948	1.9373e+02	-2.4320	-28.502178	0.000669	6.688466	2.266113	0.000268
1949	1.9383e+02	-2.3871	-28.300322	0.000507	5.067019	1.716753	0.000203
1950	1.9393e+02	-2.3566	-28.021759	0.000699	6.992487	2.369119	0.000280
1951	1.9403e+02	-2.3069	-27.815865	0.000517	5.168360	1.751088	0.000207
1952	1.9412e+02	-2.2732	-27.597860	0.000547	5.472381	1.854093	0.000219
1953	1.9422e+02	-2.2379	-27.351595	0.000618	6.181764	2.094438	0.000248
1954	1.9432e+02	-2.1962	-27.089181	0.000659	6.587125	2.231778	0.000264
1955	1.9442e+02	-2.1625	-26.879250	0.000527	5.269700	1.785423	0.000211
1956	1.9452e+02	-2.1064	-26.624910	0.000638	6.384444	2.163108	0.000256
1957	1.9462e+02	-2.0663	-26.358459	0.000669	6.688466	2.266113	0.000268
1958	1.9472e+02	-2.0326	-26.188900	0.000426	4.256296	1.442072	0.000170
1959	1.9482e+02	-1.9973	-25.918411	0.000679	6.789806	2.300449	0.000272
1960	1.9492e+02	-1.9540	-25.676183	0.000608	6.080423	2.060103	0.000243
1961	1.9502e+02	-1.9219	-25.425881	0.000628	6.283104	2.128773	0.000252
1962	1.9512e+02	-1.8689	-25.199801	0.000568	5.675062	1.922763	0.000227
1963	1.9522e+02	-1.8433	-24.961610	0.000598	5.979083	2.025768	0.000239
1964	1.9532e+02	-1.7951	-24.731494	0.000578	5.776402	1.957098	0.000231
1965	1.9542e+02	-1.7582	-24.485228	0.000618	6.181764	2.094438	0.000248
1966	1.9552e+02	-1.7262	-24.283371	0.000507	5.067019	1.716753	0.000203
1967	1.9562e+02	-1.6780	-24.004809	0.000699	6.992487	2.369119	0.000280
1968	1.9572e+02	-1.6363	-23.766618	0.000598	5.979083	2.025768	0.000239
1969	1.9582e+02	-1.5962	-23.520353	0.000618	6.181764	2.094438	0.000248
1970	1.9592e+02	-1.5673	-23.270050	0.000628	6.283104	2.128773	0.000252
1971	1.9601e+02	-1.5224	-23.019748	0.000628	6.283104	2.128773	0.000252
1972	1.9611e+02	-1.4727	-22.785594	0.000588	5.877742	1.991433	0.000235
1973	1.9621e+02	-1.4278	-22.527217	0.000649	6.485785	2.197443	0.000260
1974	1.9631e+02	-1.4005	-22.293064	0.000588	5.877742	1.991433	0.000235
1975	1.9641e+02	-1.3556	-22.046798	0.000618	6.181764	2.094438	0.000248
1976	1.9651e+02	-1.3123	-21.816682	0.000578	5.776402	1.957098	0.000231
1977	1.9661e+02	-1.2834	-21.554268	0.000659	6.587125	2.231778	0.000264
1978	1.9671e+02	-1.2385	-21.299928	0.000638	6.384444	2.163108	0.000256
1979	1.9681e+02	-1.1919	-21.061737	0.000598	5.979083	2.025768	0.000239
1980	1.9691e+02	-1.1615	-20.803360	0.000649	6.485785	2.197443	0.000260
1981	1.9701e+02	-1.1198	-20.544984	0.000649	6.485785	2.197443	0.000260
1982	1.9711e+02	-1.0780	-20.306793	0.000598	5.979083	2.025768	0.000239
1983	1.9721e+02	-1.0444	-20.080713	0.000568	5.675062	1.922763	0.000227
1984	1.9731e+02	-0.9914	-19.834448	0.000618	6.181764	2.094438	0.000248
1985	1.9741e+02	-0.9561	-19.563960	0.000679	6.789806	2.300449	0.000272
1986	1.9751e+02	-0.9160	-19.305583	0.000649	6.485785	2.197443	0.000260
1987	1.9761e+02	-0.8759	-19.047206	0.000649	6.485785	2.197443	0.000260
1988	1.9771e+02	-0.8422	-18.800941	0.000618	6.181764	2.094438	0.000248
1989	1.9781e+02	-0.7941	-18.526416	0.000689	6.891146	2.334784	0.000276
1990	1.9791e+02	-0.7620	-18.292262	0.000588	5.877742	1.991433	0.000235
1991	1.9800e+02	-0.7155	-18.037922	0.000638	6.384444	2.163108	0.000256
1992	1.9810e+02	-0.6818	-17.759360	0.000699	6.992487	2.369119	0.000280
1993	1.9820e+02	-0.6369	-17.537318	0.000557	5.573721	1.888428	0.000223
1994	1.9830e+02	-0.6048	-17.274904	0.000659	6.587125	2.231778	0.000264
1995	1.9840e+02	-0.5599	-17.024601	0.000628	6.283104	2.128773	0.000252
1996	1.9850e+02	-0.5182	-16.733928	0.000730	7.296508	2.472124	0.000292
1997	1.9860e+02	-0.4829	-16.487662	0.000618	6.181764	2.094438	0.000248
1998	1.9870e+02	-0.4460	-16.281768	0.000517	5.168360	1.751088	0.000207
1999	1.9880e+02	-0.4043	-16.047615	0.000588	5.877742	1.991433	0.000235
2000	1.9890e+02	-0.3561	-15.740792	0.000770	7.701869	2.609464	0.000308
2001	1.9900e+02	-0.3208	-15.450118	0.000730	7.296508	2.472124	0.000292
2002	1.9910e+02	-0.2920	-15.248262	0.000507	5.067019	1.716753	0.000203
2003	1.9920e+02	-0.2454	-14.969699	0.000699	6.992487	2.369119	0.000280
2004	1.9930e+02	-0.2005	-14.735545	0.000588	5.877742	1.991433	0.000235
2005	1.9940e+02	-0.1604	-14.469094	0.000669	6.688466	2.266113	0.000268
2006	1.9950e+02	-0.1235	-14.218792	0.000628	6.283104	2.128773	0.000252
2007	1.9960e+02	-0.0834	-13.948304	0.000679	6.789806	2.300449	0.000272
2008	1.9970e+02	-0.0353	-13.726262	0.000557	5.573721	1.888428	0.000223
2009	1.9980e+02	0.0016	-13.447699	0.000557	5.573721	1.888428	0.000280

Center data before PMax,+/-Pr and +/-Vc Calc.

PMax (uC/cm2):	1.06e+02
Pr (uC/cm2):	6.00e+00
-Pr (uC/cm2):	-1.34e+01
PLoss (uC/cm2):	-1.18e+01
Vc:	2.88e-01
-Vc:	-9.59e-01
C (Max-Eff) (nF):	5.28e-01
K (Eff):	1.79e+03
Vert. (+/-Pr) Shift (uC/cm2):	-3.72e+00
Horiz. Shift (+/-Vc):	-3.35e-01
Offset (uC/cm2):	1.64e+00

A (Loop Area - uC/cm2·Volts):	1.27e-01



Hysteresis Version: 5.48.1 - Radiant Technologies, Inc., 1999 - 9/12/24

