»»»»»»»»»»»»»»»»»»»»»»»»»»»»»»»»»»»» Hysteresis ««««««««««««««««««««««««««««««««««««
»»»  Executed Version:	5.48.1
»»»  Vision Version:	5.48.4 (R)
»»»  Vision Compiled:	9/18/24
»»»  Driver Version:	5.47.0
»»»  Windows Version:	Windows 8 or 8.1
»»»  Processor Information:	x86 (AMD or Intel) - 32 Processors
»»»  Tester Name:	PMF21124-494 (100V)
»»»  Tester S/N:	PMF21124-494
»»»  Internal Amp Type:	100V RevK 270k
»»»  Internal Amp S/N:	iAB2-596/K     
»»»  Execution Count:	1
»»»»»»»»»»»»»»»»»»»»»»»»»»»»»»»»»»»»»»»»»»««««««««««««««««««««««««««««««««««««««««««

Stored:	6/5/2025 - 10:47:32
Configured:	06/05/25 10:43:40 AM
Executed:	06/05/25 10:46:55 AM

»»»»»»»»»»»»»»»»»»»»»»»»»»»»»»»»»»» Sample Info ««««««««««««««««««««««««««««««««««««
Sample Name:	
Lot Name:	
Wafer Name:	
Die Row/Column:	0/0
Capacitor Number:	0
Sample Area (cm2):	1.00e-04
Sample Thickness (microns):	3.00e-01

Amplifier:	Internal

»»»»»»»»»»»»»»»»»»»»»»»»»»»»»»»»»»» Tester Info «««««««««««««««««««««««««««««««««««
Tester Name:	PMF21124-494 (100V)
Tester Serial Number:	PMF21124-494
Return Signal Amp. Level:	0.19 [Index: 3]

»»»»»»»»»»»»»»»»»»»»»»»»»»»»»»»» Hysteresis Info ««««««««««««««««««««««««««««««««««
Task Name:	Hyst-187
Volts:	20.00
Field:	666.67 (kV/cm)
DCBias:	0.00
DCField:	0.00 (kV/cm)
Hysteresis Period (ms):	2.00e+02
Preset:	Enabled
Preset Delay (ms):	1.00e+03
Profile:	Standard Bipolar

»»»»»»»»»»»»»»»»»»»»»»»»»»»»»»»»»»»»»» Data «««««««««««««««««««««««««««««««««««««««
Points:	2009

Valid Data

Point	Time (ms)	Drive Voltage	Measured Polarization (uC/cm2)	Capacitance (uF)	Normalized Capacitance (uF/cm2)	Dielectric Constant	Instantaneous Current (mA)
   1	0.0000e+00	-0.0369	-1.069841	0.000375	3.749820	1.270473	0.000150
   2	9.9500e-02	-0.0080	-0.920467	0.000375	3.749820	1.270473	0.000150
   3	1.9900e-01	0.0433	-0.654016	0.000669	6.688868	2.266250	0.000268
   4	2.9850e-01	0.0754	-0.448122	0.000517	5.168671	1.751193	0.000207
   5	3.9800e-01	0.1155	-0.169560	0.000699	6.992907	2.369261	0.000280
   6	4.9750e-01	0.1572	0.040371	0.000527	5.270017	1.785530	0.000211
   7	5.9700e-01	0.2102	0.262414	0.000557	5.574057	1.888542	0.000223
   8	6.9650e-01	0.2390	0.528865	0.000669	6.688868	2.266250	0.000268
   9	7.9600e-01	0.2775	0.742833	0.000537	5.371364	1.819867	0.000215
  10	8.9550e-01	0.3176	0.968913	0.000568	5.675403	1.922879	0.000227
  11	9.9500e-01	0.3690	1.223252	0.000638	6.384829	2.163238	0.000256
  12	1.0945e+00	0.4027	1.473555	0.000628	6.283482	2.128901	0.000252
  13	1.1940e+00	0.4364	1.711746	0.000598	5.979443	2.025890	0.000239
  14	1.2935e+00	0.4845	1.921677	0.000527	5.270017	1.785530	0.000211
  15	1.3930e+00	0.5198	2.167942	0.000618	6.182136	2.094564	0.000248
  16	1.4925e+00	0.5631	2.438430	0.000679	6.790214	2.300587	0.000272
  17	1.5920e+00	0.5920	2.680658	0.000608	6.080789	2.060227	0.000243
  18	1.6915e+00	0.6289	2.898663	0.000547	5.472710	1.854204	0.000219
  19	1.7910e+00	0.6786	3.181263	0.000709	7.094254	2.403598	0.000284
  20	1.8905e+00	0.7171	3.387157	0.000517	5.168671	1.751193	0.000207
  21	1.9900e+00	0.7572	3.617274	0.000578	5.776750	1.957216	0.000231
  22	2.0895e+00	0.7925	3.863539	0.000618	6.182136	2.094564	0.000248
  23	2.1890e+00	0.8374	4.085581	0.000557	5.574057	1.888542	0.000223
  24	2.2885e+00	0.8711	4.311661	0.000568	5.675403	1.922879	0.000227
  25	2.3880e+00	0.9128	4.537741	0.000568	5.675403	1.922879	0.000227
  26	2.4875e+00	0.9625	4.812266	0.000689	6.891561	2.334924	0.000276
  27	2.5870e+00	0.9962	5.054494	0.000608	6.080789	2.060227	0.000243
  28	2.6865e+00	1.0347	5.280574	0.000568	5.675403	1.922879	0.000227
  29	2.7860e+00	1.0845	5.551062	0.000679	6.790214	2.300587	0.000272
  30	2.8855e+00	1.1182	5.797327	0.000618	6.182136	2.094564	0.000248
  31	2.9850e+00	1.1518	6.031481	0.000588	5.878096	1.991553	0.000235
  32	3.0845e+00	1.1968	6.277746	0.000618	6.182136	2.094564	0.000248
  33	3.1840e+00	1.2369	6.495751	0.000547	5.472710	1.854204	0.000219
  34	3.2835e+00	1.2754	6.733942	0.000598	5.979443	2.025890	0.000239
  35	3.3830e+00	1.3219	6.996356	0.000659	6.587521	2.231913	0.000264
  36	3.4825e+00	1.3572	7.234547	0.000598	5.979443	2.025890	0.000239
  37	3.5820e+00	1.4037	7.424293	0.000476	4.763285	1.613845	0.000191
  38	3.6815e+00	1.4294	7.678632	0.000638	6.384829	2.163238	0.000256
  39	3.7810e+00	1.4727	7.989492	0.000780	7.803679	2.643958	0.000312
  40	3.8805e+00	1.5112	8.211534	0.000557	5.574057	1.888542	0.000223
  41	3.9800e+00	1.5449	8.429539	0.000547	5.472710	1.854204	0.000219
  42	4.0795e+00	1.5930	8.687916	0.000649	6.486175	2.197576	0.000260
  43	4.1790e+00	1.6331	8.901884	0.000537	5.371364	1.819867	0.000215
  44	4.2785e+00	1.6668	9.152187	0.000628	6.283482	2.128901	0.000252
  45	4.3780e+00	1.7165	9.430749	0.000699	6.992907	2.369261	0.000280
  46	4.4775e+00	1.7598	9.664903	0.000588	5.878096	1.991553	0.000235
  47	4.5770e+00	1.7887	9.858685	0.000486	4.864631	1.648182	0.000195
  48	4.6765e+00	1.8368	10.161471	0.000760	7.600986	2.575284	0.000304
  49	4.7760e+00	1.8753	10.363327	0.000507	5.067324	1.716856	0.000203
  50	4.8755e+00	1.9138	10.601518	0.000598	5.979443	2.025890	0.000239
  51	4.9750e+00	1.9540	10.872007	0.000679	6.790214	2.300587	0.000272
  52	5.0745e+00	1.9892	11.090012	0.000547	5.472710	1.854204	0.000219
  53	5.1740e+00	2.0342	11.376649	0.000720	7.195600	2.437935	0.000288
  54	5.2735e+00	2.0727	11.570431	0.000486	4.864631	1.648182	0.000195
  55	5.3730e+00	2.1080	11.812659	0.000608	6.080789	2.060227	0.000243
  56	5.4725e+00	2.1545	12.079110	0.000669	6.688868	2.266250	0.000268
  57	5.5720e+00	2.1882	12.301153	0.000557	5.574057	1.888542	0.000223
  58	5.6715e+00	2.2267	12.551455	0.000628	6.283482	2.128901	0.000252
  59	5.7710e+00	2.2764	12.749275	0.000497	4.965978	1.682519	0.000199
  60	5.8705e+00	2.3149	13.060134	0.000780	7.803679	2.643958	0.000312
  61	5.9700e+00	2.3534	13.257954	0.000497	4.965978	1.682519	0.000199
  62	6.0695e+00	2.3951	13.528442	0.000679	6.790214	2.300587	0.000272
  63	6.1690e+00	2.4304	13.766633	0.000598	5.979443	2.025890	0.000239
  64	6.2685e+00	2.4769	13.988675	0.000557	5.574057	1.888542	0.000223
  65	6.3680e+00	2.5010	14.259163	0.000679	6.790214	2.300587	0.000272
  66	6.4675e+00	2.5443	14.465057	0.000517	5.168671	1.751193	0.000207
  67	6.5670e+00	2.5828	14.735545	0.000679	6.790214	2.300587	0.000272
  68	6.6665e+00	2.6277	14.981811	0.000618	6.182136	2.094564	0.000248
  69	6.7660e+00	2.6646	15.195779	0.000537	5.371364	1.819867	0.000215
  70	6.8655e+00	2.7047	15.502601	0.000770	7.702333	2.609621	0.000308
  71	6.9650e+00	2.7593	15.736755	0.000588	5.878096	1.991553	0.000235
  72	7.0645e+00	2.7882	15.934575	0.000497	4.965978	1.682519	0.000199
  73	7.1640e+00	2.8331	16.213137	0.000699	6.992907	2.369261	0.000280
  74	7.2635e+00	2.8780	16.459402	0.000618	6.182136	2.094564	0.000248
  75	7.3630e+00	2.9133	16.693556	0.000588	5.878096	1.991553	0.000235
  76	7.4625e+00	2.9438	16.887339	0.000486	4.864631	1.648182	0.000195
  77	7.5620e+00	2.9967	17.173975	0.000720	7.195600	2.437935	0.000288
  78	7.6615e+00	3.0272	17.424278	0.000628	6.283482	2.128901	0.000252
  79	7.7610e+00	3.0689	17.650357	0.000568	5.675403	1.922879	0.000227
  80	7.8605e+00	3.1170	17.949105	0.000750	7.499640	2.540947	0.000300
  81	7.9600e+00	3.1507	18.187296	0.000598	5.979443	2.025890	0.000239
  82	8.0595e+00	3.1844	18.401265	0.000537	5.371364	1.819867	0.000215
  83	8.1590e+00	3.2277	18.659641	0.000649	6.486175	2.197576	0.000260
  84	8.2585e+00	3.2646	18.857461	0.000497	4.965978	1.682519	0.000199
  85	8.3580e+00	3.3079	19.168320	0.000780	7.803679	2.643958	0.000312
  86	8.4575e+00	3.3528	19.398437	0.000578	5.776750	1.957216	0.000231
  87	8.5570e+00	3.3946	19.612405	0.000537	5.371364	1.819867	0.000215
  88	8.6565e+00	3.4234	19.874819	0.000659	6.587521	2.231913	0.000264
  89	8.7560e+00	3.4651	20.129159	0.000638	6.384829	2.163238	0.000256
  90	8.8555e+00	3.5052	20.359276	0.000578	5.776750	1.957216	0.000231
  91	8.9550e+00	3.5486	20.565169	0.000517	5.168671	1.751193	0.000207
  92	9.0545e+00	3.5871	20.851806	0.000720	7.195600	2.437935	0.000288
  93	9.1540e+00	3.6256	21.089997	0.000598	5.979443	2.025890	0.000239
  94	9.2535e+00	3.6609	21.348374	0.000649	6.486175	2.197576	0.000260
  95	9.3530e+00	3.7138	21.594639	0.000618	6.182136	2.094564	0.000248
  96	9.4525e+00	3.7523	21.844941	0.000628	6.283482	2.128901	0.000252
  97	9.5520e+00	3.7828	22.103318	0.000649	6.486175	2.197576	0.000260
  98	9.6515e+00	3.8309	22.297101	0.000486	4.864631	1.648182	0.000195
  99	9.7510e+00	3.8662	22.575663	0.000699	6.992907	2.369261	0.000280
 100	9.8505e+00	3.9063	22.813854	0.000598	5.979443	2.025890	0.000239
 101	9.9500e+00	3.9512	23.035897	0.000557	5.574057	1.888542	0.000223
 102	1.0050e+01	3.9801	23.298310	0.000659	6.587521	2.231913	0.000264
 103	1.0149e+01	4.0250	23.544576	0.000618	6.182136	2.094564	0.000248
 104	1.0248e+01	4.0603	23.778729	0.000588	5.878096	1.991553	0.000235
 105	1.0348e+01	4.1052	24.016921	0.000598	5.979443	2.025890	0.000239
 106	1.0447e+01	4.1550	24.283371	0.000669	6.688868	2.266250	0.000268
 107	1.0547e+01	4.1854	24.553860	0.000679	6.790214	2.300587	0.000272
 108	1.0646e+01	4.2239	24.775902	0.000557	5.574057	1.888542	0.000223
 109	1.0746e+01	4.2657	25.026204	0.000628	6.283482	2.128901	0.000252
 110	1.0845e+01	4.3074	25.280544	0.000638	6.384829	2.163238	0.000256
 111	1.0945e+01	4.3427	25.506624	0.000568	5.675403	1.922879	0.000227
 112	1.1044e+01	4.3844	25.724629	0.000547	5.472710	1.854204	0.000219
 113	1.1144e+01	4.4213	26.031451	0.000770	7.702333	2.609621	0.000308
 114	1.1243e+01	4.4710	26.269642	0.000598	5.979443	2.025890	0.000239
 115	1.1343e+01	4.5111	26.544167	0.000689	6.891561	2.334924	0.000276
 116	1.1443e+01	4.5480	26.750061	0.000517	5.168671	1.751193	0.000207
 117	1.1542e+01	4.5817	26.988252	0.000598	5.979443	2.025890	0.000239
 118	1.1642e+01	4.6186	27.242592	0.000638	6.384829	2.163238	0.000256
 119	1.1741e+01	4.6715	27.509043	0.000669	6.688868	2.266250	0.000268
 120	1.1841e+01	4.6972	27.743197	0.000588	5.878096	1.991553	0.000235
 121	1.1940e+01	4.7293	27.981388	0.000598	5.979443	2.025890	0.000239
 122	1.2040e+01	4.7774	28.219579	0.000598	5.979443	2.025890	0.000239
 123	1.2139e+01	4.8303	28.465844	0.000618	6.182136	2.094564	0.000248
 124	1.2239e+01	4.8624	28.732295	0.000669	6.688868	2.266250	0.000268
 125	1.2338e+01	4.9057	28.958375	0.000568	5.675403	1.922879	0.000227
 126	1.2438e+01	4.9475	29.200603	0.000608	6.080789	2.060227	0.000243
 127	1.2537e+01	4.9827	29.414571	0.000537	5.371364	1.819867	0.000215
 128	1.2636e+01	5.0261	29.741579	0.000821	8.209065	2.781307	0.000329
 129	1.2736e+01	5.0646	29.947473	0.000517	5.168671	1.751193	0.000207
 130	1.2835e+01	5.1015	30.209887	0.000659	6.587521	2.231913	0.000264
 131	1.2935e+01	5.1368	30.407706	0.000497	4.965978	1.682519	0.000199
 132	1.3034e+01	5.1801	30.674157	0.000669	6.688868	2.266250	0.000268
 133	1.3134e+01	5.2266	30.948683	0.000689	6.891561	2.334924	0.000276
 134	1.3233e+01	5.2571	31.170725	0.000557	5.574057	1.888542	0.000223
 135	1.3333e+01	5.2988	31.433139	0.000659	6.587521	2.231913	0.000264
 136	1.3432e+01	5.3421	31.655181	0.000557	5.574057	1.888542	0.000223
 137	1.3532e+01	5.3806	31.905484	0.000628	6.283482	2.128901	0.000252
 138	1.3632e+01	5.4287	32.139638	0.000588	5.878096	1.991553	0.000235
 139	1.3731e+01	5.4608	32.369754	0.000578	5.776750	1.957216	0.000231
 140	1.3831e+01	5.5073	32.672540	0.000760	7.600986	2.575284	0.000304
 141	1.3930e+01	5.5410	32.906693	0.000588	5.878096	1.991553	0.000235
 142	1.4030e+01	5.5827	33.132773	0.000568	5.675403	1.922879	0.000227
 143	1.4129e+01	5.6196	33.407298	0.000689	6.891561	2.334924	0.000276
 144	1.4229e+01	5.6662	33.641452	0.000588	5.878096	1.991553	0.000235
 145	1.4328e+01	5.7030	33.887717	0.000618	6.182136	2.094564	0.000248
 146	1.4428e+01	5.7448	34.133983	0.000618	6.182136	2.094564	0.000248
 147	1.4527e+01	5.7865	34.368137	0.000588	5.878096	1.991553	0.000235
 148	1.4627e+01	5.8169	34.638625	0.000679	6.790214	2.300587	0.000272
 149	1.4726e+01	5.8538	34.864704	0.000568	5.675403	1.922879	0.000227
 150	1.4825e+01	5.9004	35.135192	0.000679	6.790214	2.300587	0.000272
 151	1.4925e+01	5.9501	35.373383	0.000598	5.979443	2.025890	0.000239
 152	1.5024e+01	5.9806	35.567166	0.000486	4.864631	1.648182	0.000195
 153	1.5124e+01	6.0127	35.853802	0.000720	7.195600	2.437935	0.000288
 154	1.5223e+01	6.0608	36.083919	0.000578	5.776750	1.957216	0.000231
 155	1.5323e+01	6.1009	36.309999	0.000568	5.675403	1.922879	0.000227
 156	1.5422e+01	6.1362	36.568376	0.000649	6.486175	2.197576	0.000260
 157	1.5522e+01	6.1811	36.782344	0.000537	5.371364	1.819867	0.000215
 158	1.5621e+01	6.2180	37.036683	0.000638	6.384829	2.163238	0.000256
 159	1.5721e+01	6.2629	37.278911	0.000608	6.080789	2.060227	0.000243
 160	1.5820e+01	6.3078	37.529214	0.000628	6.283482	2.128901	0.000252
 161	1.5920e+01	6.3287	37.771442	0.000608	6.080789	2.060227	0.000243
 162	1.6020e+01	6.3800	38.017707	0.000618	6.182136	2.094564	0.000248
 163	1.6119e+01	6.4153	38.231675	0.000537	5.371364	1.819867	0.000215
 164	1.6218e+01	6.4538	38.490052	0.000649	6.486175	2.197576	0.000260
 165	1.6318e+01	6.4987	38.752466	0.000659	6.587521	2.231913	0.000264
 166	1.6418e+01	6.5372	38.974508	0.000557	5.574057	1.888542	0.000223
 167	1.6517e+01	6.5822	39.168291	0.000486	4.864631	1.648182	0.000195
 168	1.6616e+01	6.6175	39.442816	0.000689	6.891561	2.334924	0.000276
 169	1.6716e+01	6.6576	39.620450	0.000446	4.459245	1.510833	0.000179
 170	1.6816e+01	6.7041	39.935347	0.000791	7.905026	2.678295	0.000316
 171	1.6915e+01	6.7378	40.165463	0.000578	5.776750	1.957216	0.000231
 172	1.7015e+01	6.7747	40.427877	0.000659	6.587521	2.231913	0.000264
 173	1.7114e+01	6.8100	40.653957	0.000568	5.675403	1.922879	0.000227
 174	1.7213e+01	6.8597	40.880036	0.000568	5.675403	1.922879	0.000227
 175	1.7313e+01	6.9078	41.106116	0.000568	5.675403	1.922879	0.000227
 176	1.7413e+01	6.9271	41.360456	0.000638	6.384829	2.163238	0.000256
 177	1.7512e+01	6.9672	41.590572	0.000578	5.776750	1.957216	0.000231
 178	1.7611e+01	7.0057	41.820689	0.000578	5.776750	1.957216	0.000231
 179	1.7711e+01	7.0506	42.050806	0.000578	5.776750	1.957216	0.000231
 180	1.7811e+01	7.1003	42.284960	0.000588	5.878096	1.991553	0.000235
 181	1.7910e+01	7.1292	42.539299	0.000638	6.384829	2.163238	0.000256
 182	1.8009e+01	7.1661	42.797676	0.000649	6.486175	2.197576	0.000260
 183	1.8109e+01	7.2158	43.011644	0.000537	5.371364	1.819867	0.000215
 184	1.8209e+01	7.2543	43.306355	0.000740	7.398293	2.506610	0.000296
 185	1.8308e+01	7.2928	43.492063	0.000466	4.661938	1.579507	0.000187
 186	1.8407e+01	7.3313	43.738329	0.000618	6.182136	2.094564	0.000248
 187	1.8507e+01	7.3650	43.992668	0.000638	6.384829	2.163238	0.000256
 188	1.8607e+01	7.4132	44.218748	0.000568	5.675403	1.922879	0.000227
 189	1.8706e+01	7.4549	44.497310	0.000699	6.992907	2.369261	0.000280
 190	1.8805e+01	7.4950	44.707241	0.000527	5.270017	1.785530	0.000211
 191	1.8905e+01	7.5367	44.933321	0.000568	5.675403	1.922879	0.000227
 192	1.9005e+01	7.5672	45.175549	0.000608	6.080789	2.060227	0.000243
 193	1.9104e+01	7.6137	45.417777	0.000608	6.080789	2.060227	0.000243
 194	1.9203e+01	7.6474	45.643857	0.000568	5.675403	1.922879	0.000227
 195	1.9303e+01	7.6939	45.861862	0.000547	5.472710	1.854204	0.000219
 196	1.9402e+01	7.7356	46.067756	0.000517	5.168671	1.751193	0.000207
 197	1.9502e+01	7.7789	46.378615	0.000780	7.803679	2.643958	0.000312
 198	1.9602e+01	7.8142	46.584509	0.000517	5.168671	1.751193	0.000207
 199	1.9701e+01	7.8543	46.822700	0.000598	5.979443	2.025890	0.000239
 200	1.9800e+01	7.8944	47.032631	0.000527	5.270017	1.785530	0.000211
 201	1.9900e+01	7.9265	47.291008	0.000649	6.486175	2.197576	0.000260
 202	2.0000e+01	7.9714	47.484791	0.000486	4.864631	1.648182	0.000195
 203	2.0099e+01	8.0083	47.751242	0.000669	6.688868	2.266250	0.000268
 204	2.0198e+01	8.0484	47.977321	0.000568	5.675403	1.922879	0.000227
 205	2.0298e+01	8.0950	48.195326	0.000547	5.472710	1.854204	0.000219
 206	2.0398e+01	8.1270	48.421406	0.000568	5.675403	1.922879	0.000227
 207	2.0497e+01	8.1688	48.655560	0.000588	5.878096	1.991553	0.000235
 208	2.0596e+01	8.2057	48.849342	0.000486	4.864631	1.648182	0.000195
 209	2.0696e+01	8.2522	49.107719	0.000649	6.486175	2.197576	0.000260
 210	2.0796e+01	8.2955	49.366096	0.000649	6.486175	2.197576	0.000260
 211	2.0895e+01	8.3276	49.559878	0.000486	4.864631	1.648182	0.000195
 212	2.0994e+01	8.3741	49.826329	0.000669	6.688868	2.266250	0.000268
 213	2.1094e+01	8.4126	50.032223	0.000517	5.168671	1.751193	0.000207
 214	2.1194e+01	8.4511	50.286563	0.000638	6.384829	2.163238	0.000256
 215	2.1293e+01	8.4912	50.496494	0.000527	5.270017	1.785530	0.000211
 216	2.1392e+01	8.5265	50.714499	0.000547	5.472710	1.854204	0.000219
 217	2.1492e+01	8.5682	50.980950	0.000669	6.688868	2.266250	0.000268
 218	2.1591e+01	8.6051	51.198955	0.000547	5.472710	1.854204	0.000219
 219	2.1691e+01	8.6420	51.372552	0.000436	4.357899	1.476496	0.000174
 220	2.1791e+01	8.6901	51.659189	0.000720	7.195600	2.437935	0.000288
 221	2.1890e+01	8.7318	51.869120	0.000527	5.270017	1.785530	0.000211
 222	2.1989e+01	8.7719	52.079051	0.000527	5.270017	1.785530	0.000211
 223	2.2089e+01	8.8024	52.288982	0.000527	5.270017	1.785530	0.000211
 224	2.2189e+01	8.8425	52.539284	0.000628	6.283482	2.128901	0.000252
 225	2.2288e+01	8.8858	52.753253	0.000537	5.371364	1.819867	0.000215
 226	2.2387e+01	8.9227	52.991444	0.000598	5.979443	2.025890	0.000239
 227	2.2487e+01	8.9596	53.225598	0.000588	5.878096	1.991553	0.000235
 228	2.2587e+01	9.0158	53.391120	0.000416	4.155206	1.407822	0.000166
 229	2.2686e+01	9.0447	53.641423	0.000628	6.283482	2.128901	0.000252
 230	2.2785e+01	9.0848	53.879614	0.000598	5.979443	2.025890	0.000239
 231	2.2885e+01	9.1297	54.089545	0.000527	5.270017	1.785530	0.000211
 232	2.2985e+01	9.1666	54.343884	0.000638	6.384829	2.163238	0.000256
 233	2.3084e+01	9.2147	54.561889	0.000547	5.472710	1.854204	0.000219
 234	2.3183e+01	9.2532	54.751635	0.000476	4.763285	1.613845	0.000191
 235	2.3283e+01	9.2853	54.969640	0.000547	5.472710	1.854204	0.000219
 236	2.3383e+01	9.3270	55.236091	0.000669	6.688868	2.266250	0.000268
 237	2.3482e+01	9.3671	55.421799	0.000466	4.661938	1.579507	0.000187
 238	2.3581e+01	9.4056	55.684213	0.000659	6.587521	2.231913	0.000264
 239	2.3681e+01	9.4377	55.873959	0.000476	4.763285	1.613845	0.000191
 240	2.3780e+01	9.4858	56.091964	0.000547	5.472710	1.854204	0.000219
 241	2.3880e+01	9.5195	56.358415	0.000669	6.688868	2.266250	0.000268
 242	2.3980e+01	9.5596	56.588532	0.000578	5.776750	1.957216	0.000231
 243	2.4079e+01	9.6013	56.810574	0.000557	5.574057	1.888542	0.000223
 244	2.4178e+01	9.6414	56.972060	0.000405	4.053859	1.373485	0.000162
 245	2.4278e+01	9.6912	57.258696	0.000720	7.195600	2.437935	0.000288
 246	2.4378e+01	9.7217	57.468627	0.000527	5.270017	1.785530	0.000211
 247	2.4477e+01	9.7714	57.706818	0.000598	5.979443	2.025890	0.000239
 248	2.4576e+01	9.8067	57.908675	0.000507	5.067324	1.716856	0.000203
 249	2.4676e+01	9.8420	58.134755	0.000568	5.675403	1.922879	0.000227
 250	2.4776e+01	9.8853	58.352760	0.000547	5.472710	1.854204	0.000219
 251	2.4875e+01	9.9238	58.574802	0.000557	5.574057	1.888542	0.000223
 252	2.4974e+01	9.9623	58.772622	0.000497	4.965978	1.682519	0.000199
 253	2.5074e+01	9.9992	59.002739	0.000578	5.776750	1.957216	0.000231
 254	2.5174e+01	10.0361	59.236893	0.000588	5.878096	1.991553	0.000235
 255	2.5273e+01	10.0890	59.418564	0.000456	4.560592	1.545170	0.000183
 256	2.5372e+01	10.1179	59.632532	0.000537	5.371364	1.819867	0.000215
 257	2.5472e+01	10.1628	59.890909	0.000649	6.486175	2.197576	0.000260
 258	2.5572e+01	10.2077	60.084691	0.000486	4.864631	1.648182	0.000195
 259	2.5671e+01	10.2446	60.318845	0.000588	5.878096	1.991553	0.000235
 260	2.5770e+01	10.2847	60.548962	0.000578	5.776750	1.957216	0.000231
 261	2.5870e+01	10.3152	60.754856	0.000517	5.168671	1.751193	0.000207
 262	2.5970e+01	10.3730	60.980935	0.000568	5.675403	1.922879	0.000227
 263	2.6069e+01	10.4034	61.211052	0.000578	5.776750	1.957216	0.000231
 264	2.6169e+01	10.4436	61.433095	0.000557	5.574057	1.888542	0.000223
 265	2.6268e+01	10.4805	61.634951	0.000507	5.067324	1.716856	0.000203
 266	2.6367e+01	10.5238	61.852957	0.000547	5.472710	1.854204	0.000219
 267	2.6467e+01	10.5542	62.074999	0.000557	5.574057	1.888542	0.000223
 268	2.6567e+01	10.5911	62.297042	0.000557	5.574057	1.888542	0.000223
 269	2.6666e+01	10.6296	62.478713	0.000456	4.560592	1.545170	0.000183
 270	2.6765e+01	10.6778	62.700755	0.000557	5.574057	1.888542	0.000223
 271	2.6865e+01	10.7163	62.951058	0.000628	6.283482	2.128901	0.000252
 272	2.6965e+01	10.7612	63.148877	0.000497	4.965978	1.682519	0.000199
 273	2.7064e+01	10.8125	63.354771	0.000517	5.168671	1.751193	0.000207
 274	2.7163e+01	10.8414	63.609111	0.000638	6.384829	2.163238	0.000256
 275	2.7263e+01	10.8863	63.839227	0.000578	5.776750	1.957216	0.000231
 276	2.7363e+01	10.9248	64.008787	0.000426	4.256552	1.442159	0.000170
 277	2.7462e+01	10.9585	64.246978	0.000598	5.979443	2.025890	0.000239
 278	2.7561e+01	10.9938	64.464983	0.000547	5.472710	1.854204	0.000219
 279	2.7661e+01	11.0339	64.727397	0.000659	6.587521	2.231913	0.000264
 280	2.7761e+01	11.0885	64.917143	0.000476	4.763285	1.613845	0.000191
 281	2.7860e+01	11.1189	65.090740	0.000436	4.357899	1.476496	0.000174
 282	2.7959e+01	11.1671	65.349116	0.000649	6.486175	2.197576	0.000260
 283	2.8059e+01	11.2040	65.571159	0.000557	5.574057	1.888542	0.000223
 284	2.8159e+01	11.2377	65.764941	0.000486	4.864631	1.648182	0.000195
 285	2.8258e+01	11.2745	66.011206	0.000618	6.182136	2.094564	0.000248
 286	2.8358e+01	11.3179	66.188840	0.000446	4.459245	1.510833	0.000179
 287	2.8457e+01	11.3708	66.471440	0.000709	7.094254	2.403598	0.000284
 288	2.8556e+01	11.4029	66.673297	0.000507	5.067324	1.716856	0.000203
 289	2.8656e+01	11.4398	66.842856	0.000426	4.256552	1.442159	0.000170
 290	2.8756e+01	11.4799	67.077010	0.000588	5.878096	1.991553	0.000235
 291	2.8855e+01	11.5184	67.278867	0.000507	5.067324	1.716856	0.000203
 292	2.8954e+01	11.5585	67.496872	0.000547	5.472710	1.854204	0.000219
 293	2.9054e+01	11.5986	67.710841	0.000537	5.371364	1.819867	0.000215
 294	2.9154e+01	11.6355	67.932883	0.000557	5.574057	1.888542	0.000223
 295	2.9253e+01	11.6692	68.138777	0.000517	5.168671	1.751193	0.000207
 296	2.9352e+01	11.7157	68.336597	0.000497	4.965978	1.682519	0.000199
 297	2.9452e+01	11.7574	68.594973	0.000649	6.486175	2.197576	0.000260
 298	2.9552e+01	11.8007	68.776644	0.000456	4.560592	1.545170	0.000183
 299	2.9651e+01	11.8392	69.010798	0.000588	5.878096	1.991553	0.000235
 300	2.9750e+01	11.8826	69.240915	0.000578	5.776750	1.957216	0.000231
 301	2.9850e+01	11.9162	69.438735	0.000497	4.965978	1.682519	0.000199
 302	2.9950e+01	11.9435	69.656740	0.000547	5.472710	1.854204	0.000219
 303	3.0049e+01	11.9948	69.870708	0.000537	5.371364	1.819867	0.000215
 304	3.0148e+01	12.0366	70.068528	0.000497	4.965978	1.682519	0.000199
 305	3.0248e+01	12.0719	70.347090	0.000699	6.992907	2.369261	0.000280
 306	3.0348e+01	12.1184	70.524724	0.000446	4.459245	1.510833	0.000179
 307	3.0447e+01	12.1489	70.754841	0.000578	5.776750	1.957216	0.000231
 308	3.0547e+01	12.2002	70.956698	0.000507	5.067324	1.716856	0.000203
 309	3.0646e+01	12.2259	71.182777	0.000568	5.675403	1.922879	0.000227
 310	3.0745e+01	12.2708	71.376560	0.000486	4.864631	1.648182	0.000195
 311	3.0845e+01	12.3141	71.647048	0.000679	6.790214	2.300587	0.000272
 312	3.0945e+01	12.3574	71.836793	0.000476	4.763285	1.613845	0.000191
 313	3.1044e+01	12.3975	72.054799	0.000547	5.472710	1.854204	0.000219
 314	3.1143e+01	12.4344	72.240507	0.000466	4.661938	1.579507	0.000187
 315	3.1243e+01	12.4761	72.458512	0.000547	5.472710	1.854204	0.000219
 316	3.1343e+01	12.5146	72.664406	0.000517	5.168671	1.751193	0.000207
 317	3.1442e+01	12.5595	72.902597	0.000598	5.979443	2.025890	0.000239
 318	3.1541e+01	12.6029	73.116565	0.000537	5.371364	1.819867	0.000215
 319	3.1641e+01	12.6333	73.310348	0.000486	4.864631	1.648182	0.000195
 320	3.1741e+01	12.6766	73.536427	0.000568	5.675403	1.922879	0.000227
 321	3.1840e+01	12.7087	73.738284	0.000507	5.067324	1.716856	0.000203
 322	3.1939e+01	12.7488	73.936104	0.000497	4.965978	1.682519	0.000199
 323	3.2039e+01	12.7889	74.186406	0.000628	6.283482	2.128901	0.000252
 324	3.2139e+01	12.8290	74.384226	0.000497	4.965978	1.682519	0.000199
 325	3.2238e+01	12.8659	74.602231	0.000547	5.472710	1.854204	0.000219
 326	3.2337e+01	12.9061	74.796014	0.000486	4.864631	1.648182	0.000195
 327	3.2437e+01	12.9478	74.997871	0.000507	5.067324	1.716856	0.000203
 328	3.2536e+01	12.9911	75.187616	0.000476	4.763285	1.613845	0.000191
 329	3.2636e+01	13.0280	75.433881	0.000618	6.182136	2.094564	0.000248
 330	3.2736e+01	13.0633	75.607478	0.000436	4.357899	1.476496	0.000174
 331	3.2835e+01	13.1050	75.805298	0.000497	4.965978	1.682519	0.000199
 332	3.2934e+01	13.1547	76.003117	0.000497	4.965978	1.682519	0.000199
 333	3.3034e+01	13.1932	76.217086	0.000537	5.371364	1.819867	0.000215
 334	3.3133e+01	13.2205	76.455277	0.000598	5.979443	2.025890	0.000239
 335	3.3233e+01	13.2766	76.624836	0.000426	4.256552	1.442159	0.000170
 336	3.3333e+01	13.3119	76.863027	0.000598	5.979443	2.025890	0.000239
 337	3.3432e+01	13.3440	77.085070	0.000557	5.574057	1.888542	0.000223
 338	3.3532e+01	13.3905	77.290964	0.000517	5.168671	1.751193	0.000207
 339	3.3631e+01	13.4274	77.484746	0.000486	4.864631	1.648182	0.000195
 340	3.3730e+01	13.4563	77.710826	0.000568	5.675403	1.922879	0.000227
 341	3.3830e+01	13.5092	77.900571	0.000476	4.763285	1.613845	0.000191
 342	3.3929e+01	13.5413	78.106465	0.000517	5.168671	1.751193	0.000207
 343	3.4029e+01	13.5895	78.324470	0.000547	5.472710	1.854204	0.000219
 344	3.4129e+01	13.6312	78.514216	0.000476	4.763285	1.613845	0.000191
 345	3.4228e+01	13.6616	78.724147	0.000527	5.270017	1.785530	0.000211
 346	3.4328e+01	13.7082	78.946189	0.000557	5.574057	1.888542	0.000223
 347	3.4427e+01	13.7467	79.148046	0.000507	5.067324	1.716856	0.000203
 348	3.4526e+01	13.7884	79.374126	0.000568	5.675403	1.922879	0.000227
 349	3.4626e+01	13.8253	79.575983	0.000507	5.067324	1.716856	0.000203
 350	3.4725e+01	13.8702	79.773802	0.000497	4.965978	1.682519	0.000199
 351	3.4825e+01	13.9055	79.983733	0.000527	5.270017	1.785530	0.000211
 352	3.4925e+01	13.9440	80.169441	0.000466	4.661938	1.579507	0.000187
 353	3.5024e+01	13.9921	80.383410	0.000537	5.371364	1.819867	0.000215
 354	3.5123e+01	14.0210	80.585266	0.000507	5.067324	1.716856	0.000203
 355	3.5223e+01	14.0675	80.823457	0.000598	5.979443	2.025890	0.000239
 356	3.5322e+01	14.0980	80.972831	0.000375	3.749820	1.270473	0.000150
 357	3.5422e+01	14.1525	81.231208	0.000649	6.486175	2.197576	0.000260
 358	3.5522e+01	14.1862	81.400768	0.000426	4.256552	1.442159	0.000170
 359	3.5621e+01	14.2199	81.606662	0.000517	5.168671	1.751193	0.000207
 360	3.5721e+01	14.2648	81.788333	0.000456	4.560592	1.545170	0.000183
 361	3.5820e+01	14.3049	82.034598	0.000618	6.182136	2.094564	0.000248
 362	3.5919e+01	14.3595	82.220306	0.000466	4.661938	1.579507	0.000187
 363	3.6019e+01	14.3868	82.373718	0.000385	3.851166	1.304810	0.000154
 364	3.6118e+01	14.4285	82.587686	0.000537	5.371364	1.819867	0.000215
 365	3.6218e+01	14.4606	82.789543	0.000507	5.067324	1.716856	0.000203
 366	3.6318e+01	14.4942	83.027734	0.000598	5.979443	2.025890	0.000239
 367	3.6417e+01	14.5488	83.164996	0.000345	3.445780	1.167462	0.000138
 368	3.6517e+01	14.5873	83.407224	0.000608	6.080789	2.060227	0.000243
 369	3.6616e+01	14.6210	83.609081	0.000507	5.067324	1.716856	0.000203
 370	3.6715e+01	14.6659	83.794789	0.000466	4.661938	1.579507	0.000187
 371	3.6815e+01	14.7028	84.016832	0.000557	5.574057	1.888542	0.000223
 372	3.6914e+01	14.7461	84.218689	0.000507	5.067324	1.716856	0.000203
 373	3.7014e+01	14.7942	84.416508	0.000497	4.965978	1.682519	0.000199
 374	3.7114e+01	14.8215	84.626439	0.000527	5.270017	1.785530	0.000211
 375	3.7213e+01	14.8680	84.820222	0.000486	4.864631	1.648182	0.000195
 376	3.7313e+01	14.8921	84.957484	0.000345	3.445780	1.167462	0.000138
 377	3.7412e+01	14.9514	85.199713	0.000608	6.080789	2.060227	0.000243
 378	3.7511e+01	14.9835	85.385421	0.000466	4.661938	1.579507	0.000187
 379	3.7611e+01	15.0285	85.603426	0.000547	5.472710	1.854204	0.000219
 380	3.7711e+01	15.0525	85.777023	0.000436	4.357899	1.476496	0.000174
 381	3.7810e+01	15.1006	85.974843	0.000497	4.965978	1.682519	0.000199
 382	3.7910e+01	15.1440	86.164588	0.000476	4.763285	1.613845	0.000191
 383	3.8009e+01	15.1760	86.354333	0.000476	4.763285	1.613845	0.000191
 384	3.8108e+01	15.2129	86.556190	0.000507	5.067324	1.716856	0.000203
 385	3.8208e+01	15.2675	86.770158	0.000537	5.371364	1.819867	0.000215
 386	3.8307e+01	15.3028	86.972015	0.000507	5.067324	1.716856	0.000203
 387	3.8407e+01	15.3477	87.145612	0.000436	4.357899	1.476496	0.000174
 388	3.8507e+01	15.3782	87.327283	0.000456	4.560592	1.545170	0.000183
 389	3.8606e+01	15.4183	87.504917	0.000446	4.459245	1.510833	0.000179
 390	3.8706e+01	15.4632	87.690625	0.000466	4.661938	1.579507	0.000187
 391	3.8805e+01	15.4969	87.908631	0.000547	5.472710	1.854204	0.000219
 392	3.8904e+01	15.5370	88.102413	0.000486	4.864631	1.648182	0.000195
 393	3.9004e+01	15.5803	88.284084	0.000456	4.560592	1.545170	0.000183
 394	3.9103e+01	15.6140	88.489978	0.000517	5.168671	1.751193	0.000207
 395	3.9203e+01	15.6589	88.691835	0.000507	5.067324	1.716856	0.000203
 396	3.9303e+01	15.7038	88.865432	0.000436	4.357899	1.476496	0.000174
 397	3.9402e+01	15.7231	89.087474	0.000557	5.574057	1.888542	0.000223
 398	3.9502e+01	15.7776	89.240885	0.000385	3.851166	1.304810	0.000154
 399	3.9601e+01	15.8113	89.479076	0.000598	5.979443	2.025890	0.000239
 400	3.9700e+01	15.8643	89.624413	0.000365	3.648473	1.236136	0.000146
 401	3.9800e+01	15.8963	89.810122	0.000466	4.661938	1.579507	0.000187
 402	3.9900e+01	15.9364	90.016016	0.000517	5.168671	1.751193	0.000207
 403	3.9999e+01	15.9782	90.258244	0.000608	6.080789	2.060227	0.000243
 404	4.0099e+01	16.0167	90.407618	0.000375	3.749820	1.270473	0.000150
 405	4.0198e+01	16.0616	90.625623	0.000547	5.472710	1.854204	0.000219
 406	4.0297e+01	16.1049	90.799220	0.000436	4.357899	1.476496	0.000174
 407	4.0397e+01	16.1370	91.001077	0.000507	5.067324	1.716856	0.000203
 408	4.0496e+01	16.1771	91.150451	0.000375	3.749820	1.270473	0.000150
 409	4.0596e+01	16.2252	91.348270	0.000497	4.965978	1.682519	0.000199
 410	4.0696e+01	16.2621	91.550127	0.000507	5.067324	1.716856	0.000203
 411	4.0795e+01	16.3006	91.731798	0.000456	4.560592	1.545170	0.000183
 412	4.0895e+01	16.3423	91.945766	0.000537	5.371364	1.819867	0.000215
 413	4.0994e+01	16.3760	92.107252	0.000405	4.053859	1.373485	0.000162
 414	4.1093e+01	16.4225	92.337369	0.000578	5.776750	1.957216	0.000231
 415	4.1193e+01	16.4530	92.490780	0.000385	3.851166	1.304810	0.000154
 416	4.1292e+01	16.5011	92.664377	0.000436	4.357899	1.476496	0.000174
 417	4.1392e+01	16.5364	92.866233	0.000507	5.067324	1.716856	0.000203
 418	4.1492e+01	16.5814	93.080202	0.000537	5.371364	1.819867	0.000215
 419	4.1591e+01	16.6215	93.253798	0.000436	4.357899	1.476496	0.000174
 420	4.1691e+01	16.6600	93.451618	0.000497	4.965978	1.682519	0.000199
 421	4.1790e+01	16.7017	93.661549	0.000527	5.270017	1.785530	0.000211
 422	4.1889e+01	16.7354	93.843220	0.000456	4.560592	1.545170	0.000183
 423	4.1989e+01	16.7851	94.012780	0.000426	4.256552	1.442159	0.000170
 424	4.2089e+01	16.8204	94.242897	0.000578	5.776750	1.957216	0.000231
 425	4.2188e+01	16.8412	94.392271	0.000375	3.749820	1.270473	0.000150
 426	4.2288e+01	16.8910	94.573942	0.000456	4.560592	1.545170	0.000183
 427	4.2387e+01	16.9327	94.795984	0.000557	5.574057	1.888542	0.000223
 428	4.2486e+01	16.9664	94.949395	0.000385	3.851166	1.304810	0.000154
 429	4.2586e+01	17.0161	95.155289	0.000517	5.168671	1.751193	0.000207
 430	4.2685e+01	17.0642	95.320812	0.000416	4.155206	1.407822	0.000166
 431	4.2785e+01	17.0995	95.506520	0.000466	4.661938	1.579507	0.000187
 432	4.2885e+01	17.1268	95.716451	0.000527	5.270017	1.785530	0.000211
 433	4.2984e+01	17.1685	95.877937	0.000405	4.053859	1.373485	0.000162
 434	4.3084e+01	17.2134	96.051533	0.000436	4.357899	1.476496	0.000174
 435	4.3183e+01	17.2551	96.253390	0.000507	5.067324	1.716856	0.000203
 436	4.3282e+01	17.2888	96.467358	0.000537	5.371364	1.819867	0.000215
 437	4.3382e+01	17.3321	96.628844	0.000405	4.053859	1.373485	0.000162
 438	4.3481e+01	17.3770	96.778218	0.000375	3.749820	1.270473	0.000150
 439	4.3581e+01	17.4139	96.988149	0.000527	5.270017	1.785530	0.000211
 440	4.3681e+01	17.4541	97.194043	0.000517	5.168671	1.751193	0.000207
 441	4.3780e+01	17.5022	97.424160	0.000578	5.776750	1.957216	0.000231
 442	4.3880e+01	17.5311	97.537199	0.000284	2.837702	0.961439	0.000114
 443	4.3979e+01	17.5680	97.747130	0.000527	5.270017	1.785530	0.000211
 444	4.4078e+01	17.6129	97.932839	0.000466	4.661938	1.579507	0.000187
 445	4.4178e+01	17.6466	98.122584	0.000476	4.763285	1.613845	0.000191
 446	4.4278e+01	17.6883	98.292144	0.000426	4.256552	1.442159	0.000170
 447	4.4377e+01	17.7268	98.522261	0.000578	5.776750	1.957216	0.000231
 448	4.4477e+01	17.7685	98.712006	0.000476	4.763285	1.613845	0.000191
 449	4.4576e+01	17.8086	98.881566	0.000426	4.256552	1.442159	0.000170
 450	4.4675e+01	17.8455	99.079385	0.000497	4.965978	1.682519	0.000199
 451	4.4775e+01	17.8888	99.252982	0.000436	4.357899	1.476496	0.000174
 452	4.4874e+01	17.9321	99.438690	0.000466	4.661938	1.579507	0.000187
 453	4.4974e+01	17.9722	99.604213	0.000416	4.155206	1.407822	0.000166
 454	4.5074e+01	18.0107	99.826255	0.000557	5.574057	1.888542	0.000223
 455	4.5173e+01	18.0588	100.007927	0.000456	4.560592	1.545170	0.000183
 456	4.5273e+01	18.0861	100.169412	0.000405	4.053859	1.373485	0.000162
 457	4.5372e+01	18.1359	100.359157	0.000476	4.763285	1.613845	0.000191
 458	4.5471e+01	18.1727	100.536791	0.000446	4.459245	1.510833	0.000179
 459	4.5571e+01	18.2080	100.730574	0.000486	4.864631	1.648182	0.000195
 460	4.5670e+01	18.2465	100.916282	0.000466	4.661938	1.579507	0.000187
 461	4.5770e+01	18.2770	101.101990	0.000466	4.661938	1.579507	0.000187
 462	4.5870e+01	18.3348	101.291736	0.000476	4.763285	1.613845	0.000191
 463	4.5969e+01	18.3572	101.477444	0.000466	4.661938	1.579507	0.000187
 464	4.6069e+01	18.4198	101.671226	0.000486	4.864631	1.648182	0.000195
 465	4.6168e+01	18.4503	101.832712	0.000405	4.053859	1.373485	0.000162
 466	4.6267e+01	18.4888	102.054754	0.000557	5.574057	1.888542	0.000223
 467	4.6367e+01	18.5289	102.216240	0.000405	4.053859	1.373485	0.000162
 468	4.6467e+01	18.5706	102.389837	0.000436	4.357899	1.476496	0.000174
 469	4.6566e+01	18.5963	102.559396	0.000426	4.256552	1.442159	0.000170
 470	4.6666e+01	18.6444	102.757216	0.000497	4.965978	1.682519	0.000199
 471	4.6765e+01	18.6861	102.971184	0.000537	5.371364	1.819867	0.000215
 472	4.6864e+01	18.7198	103.136707	0.000416	4.155206	1.407822	0.000166
 473	4.6964e+01	18.7663	103.342601	0.000517	5.168671	1.751193	0.000207
 474	4.7063e+01	18.8080	103.532346	0.000476	4.763285	1.613845	0.000191
 475	4.7163e+01	18.8513	103.726129	0.000486	4.864631	1.648182	0.000195
 476	4.7263e+01	18.8947	103.919911	0.000486	4.864631	1.648182	0.000195
 477	4.7362e+01	18.9203	104.061211	0.000355	3.547127	1.201799	0.000142
 478	4.7462e+01	18.9668	104.263068	0.000507	5.067324	1.716856	0.000203
 479	4.7561e+01	19.0134	104.456850	0.000486	4.864631	1.648182	0.000195
 480	4.7660e+01	19.0406	104.642558	0.000466	4.661938	1.579507	0.000187
 481	4.7760e+01	19.0807	104.832304	0.000476	4.763285	1.613845	0.000191
 482	4.7859e+01	19.1321	105.030123	0.000497	4.965978	1.682519	0.000199
 483	4.7959e+01	19.1658	105.231980	0.000507	5.067324	1.716856	0.000203
 484	4.8059e+01	19.2155	105.409614	0.000446	4.459245	1.510833	0.000179
 485	4.8158e+01	19.2460	105.603397	0.000486	4.864631	1.648182	0.000195
 486	4.8258e+01	19.2909	105.781031	0.000446	4.459245	1.510833	0.000179
 487	4.8357e+01	19.3262	105.958665	0.000446	4.459245	1.510833	0.000179
 488	4.8456e+01	19.3647	106.108039	0.000375	3.749820	1.270473	0.000150
 489	4.8556e+01	19.4112	106.330081	0.000557	5.574057	1.888542	0.000223
 490	4.8656e+01	19.4449	106.495604	0.000416	4.155206	1.407822	0.000166
 491	4.8755e+01	19.4770	106.673238	0.000446	4.459245	1.510833	0.000179
 492	4.8855e+01	19.5315	106.867020	0.000486	4.864631	1.648182	0.000195
 493	4.8954e+01	19.5668	107.056766	0.000476	4.763285	1.613845	0.000191
 494	4.9053e+01	19.5957	107.165768	0.000274	2.736355	0.927102	0.000110
 495	4.9153e+01	19.6342	107.416071	0.000628	6.283482	2.128901	0.000252
 496	4.9252e+01	19.6871	107.565445	0.000375	3.749820	1.270473	0.000150
 497	4.9352e+01	19.7273	107.759227	0.000486	4.864631	1.648182	0.000195
 498	4.9452e+01	19.7593	107.936861	0.000446	4.459245	1.510833	0.000179
 499	4.9551e+01	19.8010	108.106421	0.000426	4.256552	1.442159	0.000170
 500	4.9651e+01	19.8347	108.292129	0.000466	4.661938	1.579507	0.000187
 501	4.9750e+01	19.8813	108.493986	0.000507	5.067324	1.716856	0.000203
 502	4.9849e+01	19.9166	108.647397	0.000385	3.851166	1.304810	0.000154
 503	4.9949e+01	19.9615	108.853291	0.000517	5.168671	1.751193	0.000207
 504	5.0048e+01	19.9182	108.716028	0.000345	3.445780	1.167462	-0.000138
 505	5.0148e+01	19.8764	108.602988	0.000284	2.837702	0.961439	-0.000114
 506	5.0248e+01	19.8444	108.473800	0.000324	3.243087	1.098788	-0.000130
 507	5.0347e+01	19.7946	108.336538	0.000345	3.445780	1.167462	-0.000138
 508	5.0447e+01	19.7641	108.227535	0.000274	2.736355	0.927102	-0.000110
 509	5.0546e+01	19.7273	108.098347	0.000324	3.243087	1.098788	-0.000130
 510	5.0645e+01	19.6920	107.948972	0.000375	3.749820	1.270473	-0.000150
 511	5.0745e+01	19.6502	107.807673	0.000355	3.547127	1.201799	-0.000142
 512	5.0844e+01	19.6021	107.678484	0.000324	3.243087	1.098788	-0.000130
 513	5.0944e+01	19.5636	107.565445	0.000284	2.837702	0.961439	-0.000114
 514	5.1044e+01	19.5235	107.432219	0.000334	3.344434	1.133125	-0.000134
 515	5.1143e+01	19.4834	107.258622	0.000436	4.357899	1.476496	-0.000174
 516	5.1242e+01	19.4401	107.105211	0.000385	3.851166	1.304810	-0.000154
 517	5.1342e+01	19.4032	106.996208	0.000274	2.736355	0.927102	-0.000110
 518	5.1441e+01	19.3695	106.871057	0.000314	3.141741	1.064451	-0.000126
 519	5.1541e+01	19.3214	106.758017	0.000284	2.837702	0.961439	-0.000114
 520	5.1641e+01	19.2845	106.596532	0.000405	4.053859	1.373485	-0.000162
 521	5.1740e+01	19.2444	106.439084	0.000395	3.952513	1.339148	-0.000158
 522	5.1840e+01	19.2059	106.305858	0.000334	3.344434	1.133125	-0.000134
 523	5.1939e+01	19.1722	106.156484	0.000375	3.749820	1.270473	-0.000150
 524	5.2038e+01	19.1305	106.023259	0.000334	3.344434	1.133125	-0.000134
 525	5.2138e+01	19.0823	105.865810	0.000395	3.952513	1.339148	-0.000158
 526	5.2237e+01	19.0535	105.728548	0.000345	3.445780	1.167462	-0.000138
 527	5.2337e+01	19.0086	105.558988	0.000426	4.256552	1.442159	-0.000170
 528	5.2437e+01	18.9701	105.474208	0.000213	2.128276	0.721079	-0.000085
 529	5.2536e+01	18.9235	105.300611	0.000436	4.357899	1.476496	-0.000174
 530	5.2636e+01	18.8930	105.110866	0.000476	4.763285	1.613845	-0.000191
 531	5.2735e+01	18.8481	105.005901	0.000264	2.635009	0.892765	-0.000105
 532	5.2834e+01	18.8112	104.876712	0.000324	3.243087	1.098788	-0.000130
 533	5.2934e+01	18.7663	104.711190	0.000416	4.155206	1.407822	-0.000166
 534	5.3033e+01	18.7310	104.541630	0.000426	4.256552	1.442159	-0.000170
 535	5.3133e+01	18.6877	104.396293	0.000365	3.648473	1.236136	-0.000146
 536	5.3233e+01	18.6540	104.271142	0.000314	3.141741	1.064451	-0.000126
 537	5.3332e+01	18.6155	104.085434	0.000466	4.661938	1.579507	-0.000187
 538	5.3431e+01	18.5834	103.944134	0.000355	3.547127	1.201799	-0.000142
 539	5.3531e+01	18.5337	103.786686	0.000395	3.952513	1.339148	-0.000158
 540	5.3630e+01	18.4888	103.669609	0.000294	2.939048	0.995776	-0.000118
 541	5.3730e+01	18.4535	103.467752	0.000507	5.067324	1.716856	-0.000203
 542	5.3830e+01	18.4102	103.306266	0.000405	4.053859	1.373485	-0.000162
 543	5.3929e+01	18.3717	103.148818	0.000395	3.952513	1.339148	-0.000158
 544	5.4029e+01	18.3284	103.031741	0.000294	2.939048	0.995776	-0.000118
 545	5.4128e+01	18.2866	102.846033	0.000466	4.661938	1.579507	-0.000187
 546	5.4227e+01	18.2465	102.696659	0.000375	3.749820	1.270473	-0.000150
 547	5.4327e+01	18.2064	102.527099	0.000426	4.256552	1.442159	-0.000170
 548	5.4426e+01	18.1727	102.401948	0.000314	3.141741	1.064451	-0.000126
 549	5.4526e+01	18.1278	102.260648	0.000355	3.547127	1.201799	-0.000142
 550	5.4626e+01	18.0845	102.091089	0.000426	4.256552	1.442159	-0.000170
 551	5.4725e+01	18.0428	101.937677	0.000385	3.851166	1.304810	-0.000154
 552	5.4825e+01	18.0203	101.808489	0.000324	3.243087	1.098788	-0.000130
 553	5.4924e+01	17.9754	101.622781	0.000466	4.661938	1.579507	-0.000187
 554	5.5023e+01	17.9337	101.449184	0.000436	4.357899	1.476496	-0.000174
 555	5.5123e+01	17.8904	101.303847	0.000365	3.648473	1.236136	-0.000146
 556	5.5222e+01	17.8503	101.178696	0.000314	3.141741	1.064451	-0.000126
 557	5.5322e+01	17.8022	101.017210	0.000405	4.053859	1.373485	-0.000162
 558	5.5422e+01	17.7685	100.827465	0.000476	4.763285	1.613845	-0.000191
 559	5.5521e+01	17.7332	100.633683	0.000486	4.864631	1.648182	-0.000195
 560	5.5620e+01	17.6819	100.504494	0.000324	3.243087	1.098788	-0.000130
 561	5.5720e+01	17.6466	100.359157	0.000365	3.648473	1.236136	-0.000146
 562	5.5819e+01	17.6113	100.169412	0.000476	4.763285	1.613845	-0.000191
 563	5.5919e+01	17.5760	100.007927	0.000405	4.053859	1.373485	-0.000162
 564	5.6019e+01	17.5375	99.793958	0.000537	5.371364	1.819867	-0.000215
 565	5.6118e+01	17.4958	99.697067	0.000243	2.432316	0.824091	-0.000097
 566	5.6218e+01	17.4524	99.507322	0.000476	4.763285	1.613845	-0.000191
 567	5.6317e+01	17.4156	99.374096	0.000334	3.344434	1.133125	-0.000134
 568	5.6416e+01	17.3770	99.232796	0.000355	3.547127	1.201799	-0.000142
 569	5.6516e+01	17.3337	99.043051	0.000476	4.763285	1.613845	-0.000191
 570	5.6615e+01	17.2904	98.885603	0.000395	3.952513	1.339148	-0.000158
 571	5.6715e+01	17.2471	98.707969	0.000446	4.459245	1.510833	-0.000179
 572	5.6815e+01	17.2150	98.550521	0.000395	3.952513	1.339148	-0.000158
 573	5.6914e+01	17.1621	98.389035	0.000405	4.053859	1.373485	-0.000162
 574	5.7014e+01	17.1412	98.239661	0.000375	3.749820	1.270473	-0.000150
 575	5.7113e+01	17.0995	98.062027	0.000446	4.459245	1.510833	-0.000179
 576	5.7212e+01	17.0514	97.892467	0.000426	4.256552	1.442159	-0.000170
 577	5.7312e+01	17.0081	97.763279	0.000324	3.243087	1.098788	-0.000130
 578	5.7411e+01	16.9744	97.581608	0.000456	4.560592	1.545170	-0.000183
 579	5.7511e+01	16.9263	97.387825	0.000486	4.864631	1.648182	-0.000195
 580	5.7611e+01	16.8926	97.214229	0.000436	4.357899	1.476496	-0.000174
 581	5.7710e+01	16.8589	97.068892	0.000365	3.648473	1.236136	-0.000146
 582	5.7809e+01	16.8108	96.923555	0.000365	3.648473	1.236136	-0.000146
 583	5.7909e+01	16.7835	96.737847	0.000466	4.661938	1.579507	-0.000187
 584	5.8008e+01	16.7386	96.592510	0.000365	3.648473	1.236136	-0.000146
 585	5.8108e+01	16.6872	96.451210	0.000355	3.547127	1.201799	-0.000142
 586	5.8208e+01	16.6616	96.253390	0.000497	4.965978	1.682519	-0.000199
 587	5.8307e+01	16.6134	96.108053	0.000365	3.648473	1.236136	-0.000146
 588	5.8407e+01	16.5733	95.914271	0.000486	4.864631	1.648182	-0.000195
 589	5.8506e+01	16.5332	95.768934	0.000365	3.648473	1.236136	-0.000146
 590	5.8605e+01	16.4995	95.591300	0.000446	4.459245	1.510833	-0.000179
 591	5.8705e+01	16.4514	95.417703	0.000436	4.357899	1.476496	-0.000174
 592	5.8804e+01	16.4161	95.260255	0.000395	3.952513	1.339148	-0.000158
 593	5.8904e+01	16.3808	95.074547	0.000466	4.661938	1.579507	-0.000187
 594	5.9004e+01	16.3359	94.921135	0.000385	3.851166	1.304810	-0.000154
 595	5.9103e+01	16.3022	94.747539	0.000436	4.357899	1.476496	-0.000174
 596	5.9203e+01	16.2621	94.533570	0.000537	5.371364	1.819867	-0.000215
 597	5.9302e+01	16.2252	94.424568	0.000274	2.736355	0.927102	-0.000110
 598	5.9401e+01	16.1835	94.242897	0.000456	4.560592	1.545170	-0.000183
 599	5.9501e+01	16.1354	94.041040	0.000507	5.067324	1.716856	-0.000203
 600	5.9600e+01	16.0969	93.867443	0.000436	4.357899	1.476496	-0.000174
 601	5.9700e+01	16.0552	93.754403	0.000284	2.837702	0.961439	-0.000114
 602	5.9800e+01	16.0215	93.540435	0.000537	5.371364	1.819867	-0.000215
 603	5.9899e+01	15.9798	93.391061	0.000375	3.749820	1.270473	-0.000150
 604	5.9998e+01	15.9268	93.233613	0.000395	3.952513	1.339148	-0.000158
 605	6.0098e+01	15.9060	93.043867	0.000476	4.763285	1.613845	-0.000191
 606	6.0197e+01	15.8530	92.878345	0.000416	4.155206	1.407822	-0.000166
 607	6.0297e+01	15.8242	92.712822	0.000416	4.155206	1.407822	-0.000166
 608	6.0397e+01	15.7840	92.575560	0.000345	3.445780	1.167462	-0.000138
 609	6.0496e+01	15.7375	92.393889	0.000456	4.560592	1.545170	-0.000183
 610	6.0596e+01	15.6974	92.216255	0.000446	4.459245	1.510833	-0.000179
 611	6.0695e+01	15.6621	91.998249	0.000547	5.472710	1.854204	-0.000219
 612	6.0794e+01	15.6140	91.877135	0.000304	3.040395	1.030114	-0.000122
 613	6.0894e+01	15.5723	91.711613	0.000416	4.155206	1.407822	-0.000166
 614	6.0993e+01	15.5434	91.525904	0.000466	4.661938	1.579507	-0.000187
 615	6.1093e+01	15.4969	91.408827	0.000294	2.939048	0.995776	-0.000118
 616	6.1193e+01	15.4664	91.174674	0.000588	5.878096	1.991553	-0.000235
 617	6.1292e+01	15.4183	90.988965	0.000466	4.661938	1.579507	-0.000187
 618	6.1392e+01	15.3798	90.851703	0.000345	3.445780	1.167462	-0.000138
 619	6.1491e+01	15.3461	90.678106	0.000436	4.357899	1.476496	-0.000174
 620	6.1590e+01	15.3028	90.504509	0.000436	4.357899	1.476496	-0.000174
 621	6.1690e+01	15.2563	90.351098	0.000385	3.851166	1.304810	-0.000154
 622	6.1789e+01	15.2226	90.153278	0.000497	4.965978	1.682519	-0.000199
 623	6.1889e+01	15.1873	89.971607	0.000456	4.560592	1.545170	-0.000183
 624	6.1989e+01	15.1424	89.834344	0.000345	3.445780	1.167462	-0.000138
 625	6.2088e+01	15.0942	89.620376	0.000537	5.371364	1.819867	-0.000215
 626	6.2188e+01	15.0589	89.475039	0.000365	3.648473	1.236136	-0.000146
 627	6.2287e+01	15.0172	89.309517	0.000416	4.155206	1.407822	-0.000166
 628	6.2386e+01	14.9867	89.131883	0.000446	4.459245	1.510833	-0.000179
 629	6.2486e+01	14.9386	88.942137	0.000476	4.763285	1.613845	-0.000191
 630	6.2586e+01	14.8969	88.768541	0.000436	4.357899	1.476496	-0.000174
 631	6.2685e+01	14.8648	88.578795	0.000476	4.763285	1.613845	-0.000191
 632	6.2785e+01	14.8199	88.409236	0.000426	4.256552	1.442159	-0.000170
 633	6.2884e+01	14.7878	88.263899	0.000365	3.648473	1.236136	-0.000146
 634	6.2983e+01	14.7493	88.066079	0.000497	4.965978	1.682519	-0.000199
 635	6.3083e+01	14.7044	87.928816	0.000345	3.445780	1.167462	-0.000138
 636	6.3182e+01	14.6675	87.759257	0.000426	4.256552	1.442159	-0.000170
 637	6.3282e+01	14.6338	87.593734	0.000416	4.155206	1.407822	-0.000166
 638	6.3382e+01	14.5761	87.395914	0.000497	4.965978	1.682519	-0.000199
 639	6.3481e+01	14.5343	87.238466	0.000395	3.952513	1.339148	-0.000158
 640	6.3581e+01	14.5087	87.056795	0.000456	4.560592	1.545170	-0.000183
 641	6.3680e+01	14.4557	86.907421	0.000375	3.749820	1.270473	-0.000150
 642	6.3779e+01	14.4317	86.717676	0.000476	4.763285	1.613845	-0.000191
 643	6.3879e+01	14.3852	86.560227	0.000395	3.952513	1.339148	-0.000158
 644	6.3978e+01	14.3531	86.378556	0.000456	4.560592	1.545170	-0.000183
 645	6.4078e+01	14.3065	86.168625	0.000527	5.270017	1.785530	-0.000211
 646	6.4177e+01	14.2616	85.999065	0.000426	4.256552	1.442159	-0.000170
 647	6.4277e+01	14.2263	85.833543	0.000416	4.155206	1.407822	-0.000166
 648	6.4376e+01	14.1782	85.684169	0.000375	3.749820	1.270473	-0.000150
 649	6.4476e+01	14.1493	85.486349	0.000497	4.965978	1.682519	-0.000199
 650	6.4576e+01	14.1076	85.357161	0.000324	3.243087	1.098788	-0.000130
 651	6.4675e+01	14.0643	85.147230	0.000527	5.270017	1.785530	-0.000211
 652	6.4775e+01	14.0274	84.981707	0.000416	4.155206	1.407822	-0.000166
 653	6.4874e+01	13.9889	84.812148	0.000426	4.256552	1.442159	-0.000170
 654	6.4974e+01	13.9520	84.634514	0.000446	4.459245	1.510833	-0.000179
 655	6.5073e+01	13.8991	84.464954	0.000426	4.256552	1.442159	-0.000170
 656	6.5172e+01	13.8686	84.242911	0.000557	5.574057	1.888542	-0.000223
 657	6.5272e+01	13.8253	84.093537	0.000375	3.749820	1.270473	-0.000150
 658	6.5371e+01	13.7852	83.919941	0.000436	4.357899	1.476496	-0.000174
 659	6.5471e+01	13.7419	83.766529	0.000385	3.851166	1.304810	-0.000154
 660	6.5570e+01	13.7082	83.528338	0.000598	5.979443	2.025890	-0.000239
 661	6.5670e+01	13.6697	83.407224	0.000304	3.040395	1.030114	-0.000122
 662	6.5769e+01	13.6247	83.217479	0.000476	4.763285	1.613845	-0.000191
 663	6.5869e+01	13.5911	82.975251	0.000608	6.080789	2.060227	-0.000243
 664	6.5969e+01	13.5477	82.829914	0.000365	3.648473	1.236136	-0.000146
 665	6.6068e+01	13.5060	82.628057	0.000507	5.067324	1.716856	-0.000203
 666	6.6168e+01	13.4788	82.474646	0.000385	3.851166	1.304810	-0.000154
 667	6.6267e+01	13.4258	82.309123	0.000416	4.155206	1.407822	-0.000166
 668	6.6367e+01	13.3889	82.131489	0.000446	4.459245	1.510833	-0.000179
 669	6.6466e+01	13.3424	81.941744	0.000476	4.763285	1.613845	-0.000191
 670	6.6566e+01	13.3103	81.723739	0.000547	5.472710	1.854204	-0.000219
 671	6.6665e+01	13.2574	81.558216	0.000416	4.155206	1.407822	-0.000166
 672	6.6764e+01	13.2317	81.404805	0.000385	3.851166	1.304810	-0.000154
 673	6.6864e+01	13.1852	81.227171	0.000446	4.459245	1.510833	-0.000179
 674	6.6963e+01	13.1403	81.029351	0.000497	4.965978	1.682519	-0.000199
 675	6.7063e+01	13.1162	80.847680	0.000456	4.560592	1.545170	-0.000183
 676	6.7162e+01	13.0681	80.653898	0.000486	4.864631	1.648182	-0.000195
 677	6.7262e+01	13.0264	80.448004	0.000517	5.168671	1.751193	-0.000207
 678	6.7362e+01	12.9847	80.282481	0.000416	4.155206	1.407822	-0.000166
 679	6.7461e+01	12.9446	80.064476	0.000547	5.472710	1.854204	-0.000219
 680	6.7561e+01	12.9093	79.927213	0.000345	3.445780	1.167462	-0.000138
 681	6.7660e+01	12.8724	79.749579	0.000446	4.459245	1.510833	-0.000179
 682	6.7760e+01	12.8371	79.555797	0.000486	4.864631	1.648182	-0.000195
 683	6.7859e+01	12.7938	79.414497	0.000355	3.547127	1.201799	-0.000142
 684	6.7959e+01	12.7553	79.224752	0.000476	4.763285	1.613845	-0.000191
 685	6.8058e+01	12.7216	79.010784	0.000537	5.371364	1.819867	-0.000215
 686	6.8157e+01	12.6590	78.849298	0.000405	4.053859	1.373485	-0.000162
 687	6.8257e+01	12.6398	78.631293	0.000547	5.472710	1.854204	-0.000219
 688	6.8356e+01	12.5916	78.473844	0.000395	3.952513	1.339148	-0.000158
 689	6.8456e+01	12.5435	78.280062	0.000486	4.864631	1.648182	-0.000195
 690	6.8555e+01	12.5146	78.106465	0.000436	4.357899	1.476496	-0.000174
 691	6.8655e+01	12.4761	77.884423	0.000557	5.574057	1.888542	-0.000223
 692	6.8754e+01	12.4344	77.710826	0.000436	4.357899	1.476496	-0.000174
 693	6.8854e+01	12.3831	77.545303	0.000416	4.155206	1.407822	-0.000166
 694	6.8954e+01	12.3526	77.307112	0.000598	5.979443	2.025890	-0.000239
 695	6.9053e+01	12.3157	77.157738	0.000375	3.749820	1.270473	-0.000150
 696	6.9153e+01	12.2772	76.947807	0.000527	5.270017	1.785530	-0.000211
 697	6.9252e+01	12.2323	76.770173	0.000446	4.459245	1.510833	-0.000179
 698	6.9352e+01	12.1970	76.608688	0.000405	4.053859	1.373485	-0.000162
 699	6.9451e+01	12.1585	76.390682	0.000547	5.472710	1.854204	-0.000219
 700	6.9550e+01	12.1168	76.213048	0.000446	4.459245	1.510833	-0.000179
 701	6.9650e+01	12.0783	76.035414	0.000446	4.459245	1.510833	-0.000179
 702	6.9749e+01	12.0253	75.829521	0.000517	5.168671	1.751193	-0.000207
 703	6.9849e+01	11.9932	75.647849	0.000456	4.560592	1.545170	-0.000183
 704	6.9948e+01	11.9531	75.433881	0.000537	5.371364	1.819867	-0.000215
 705	7.0048e+01	11.9194	75.236062	0.000497	4.965978	1.682519	-0.000199
 706	7.0147e+01	11.8809	75.018056	0.000547	5.472710	1.854204	-0.000219
 707	7.0247e+01	11.8328	74.836385	0.000456	4.560592	1.545170	-0.000183
 708	7.0347e+01	11.7959	74.654714	0.000456	4.560592	1.545170	-0.000183
 709	7.0446e+01	11.7558	74.501303	0.000385	3.851166	1.304810	-0.000154
 710	7.0546e+01	11.7173	74.242926	0.000649	6.486175	2.197576	-0.000260
 711	7.0645e+01	11.6756	74.077404	0.000416	4.155206	1.407822	-0.000166
 712	7.0745e+01	11.6419	73.879584	0.000497	4.965978	1.682519	-0.000199
 713	7.0844e+01	11.5954	73.689839	0.000476	4.763285	1.613845	-0.000191
 714	7.0944e+01	11.5521	73.500093	0.000476	4.763285	1.613845	-0.000191
 715	7.1043e+01	11.5184	73.298236	0.000507	5.067324	1.716856	-0.000203
 716	7.1142e+01	11.4847	73.116565	0.000456	4.560592	1.545170	-0.000183
 717	7.1242e+01	11.4430	72.914709	0.000507	5.067324	1.716856	-0.000203
 718	7.1341e+01	11.3981	72.704778	0.000527	5.270017	1.785530	-0.000211
 719	7.1441e+01	11.3548	72.523106	0.000456	4.560592	1.545170	-0.000183
 720	7.1540e+01	11.3147	72.333361	0.000476	4.763285	1.613845	-0.000191
 721	7.1640e+01	11.2794	72.119393	0.000537	5.371364	1.819867	-0.000215
 722	7.1740e+01	11.2328	71.945796	0.000436	4.357899	1.476496	-0.000174
 723	7.1839e+01	11.1895	71.719716	0.000568	5.675403	1.922879	-0.000227
 724	7.1939e+01	11.1558	71.566305	0.000385	3.851166	1.304810	-0.000154
 725	7.2038e+01	11.1077	71.332151	0.000588	5.878096	1.991553	-0.000235
 726	7.2138e+01	11.0724	71.130295	0.000507	5.067324	1.716856	-0.000203
 727	7.2237e+01	11.0467	70.948623	0.000456	4.560592	1.545170	-0.000183
 728	7.2337e+01	10.9986	70.746767	0.000507	5.067324	1.716856	-0.000203
 729	7.2436e+01	10.9617	70.516650	0.000578	5.776750	1.957216	-0.000231
 730	7.2535e+01	10.9184	70.355165	0.000405	4.053859	1.373485	-0.000162
 731	7.2635e+01	10.8815	70.141196	0.000537	5.371364	1.819867	-0.000215
 732	7.2734e+01	10.8350	69.935302	0.000517	5.168671	1.751193	-0.000207
 733	7.2834e+01	10.8061	69.749594	0.000466	4.661938	1.579507	-0.000187
 734	7.2933e+01	10.7596	69.507366	0.000608	6.080789	2.060227	-0.000243
 735	7.3033e+01	10.7115	69.321658	0.000466	4.661938	1.579507	-0.000187
 736	7.3132e+01	10.6746	69.095578	0.000568	5.675403	1.922879	-0.000227
 737	7.3232e+01	10.6377	68.909870	0.000466	4.661938	1.579507	-0.000187
 738	7.3332e+01	10.6136	68.720125	0.000476	4.763285	1.613845	-0.000191
 739	7.3431e+01	10.5591	68.538453	0.000456	4.560592	1.545170	-0.000183
 740	7.3531e+01	10.5286	68.308337	0.000578	5.776750	1.957216	-0.000231
 741	7.3630e+01	10.4869	68.102443	0.000517	5.168671	1.751193	-0.000207
 742	7.3730e+01	10.4355	67.920772	0.000456	4.560592	1.545170	-0.000183
 743	7.3829e+01	10.4002	67.726989	0.000486	4.864631	1.648182	-0.000195
 744	7.3928e+01	10.3537	67.513021	0.000537	5.371364	1.819867	-0.000215
 745	7.4028e+01	10.3248	67.290978	0.000557	5.574057	1.888542	-0.000223
 746	7.4127e+01	10.2831	67.097196	0.000486	4.864631	1.648182	-0.000195
 747	7.4227e+01	10.2430	66.919562	0.000446	4.459245	1.510833	-0.000179
 748	7.4326e+01	10.1997	66.665222	0.000638	6.384829	2.163238	-0.000256
 749	7.4426e+01	10.1628	66.471440	0.000486	4.864631	1.648182	-0.000195
 750	7.4525e+01	10.1147	66.257472	0.000537	5.371364	1.819867	-0.000215
 751	7.4625e+01	10.0762	66.104061	0.000385	3.851166	1.304810	-0.000154
 752	7.4725e+01	10.0505	65.882018	0.000557	5.574057	1.888542	-0.000223
 753	7.4824e+01	10.0024	65.692273	0.000476	4.763285	1.613845	-0.000191
 754	7.4924e+01	9.9623	65.510602	0.000456	4.560592	1.545170	-0.000183
 755	7.5023e+01	9.9206	65.244151	0.000669	6.688868	2.266250	-0.000268
 756	7.5123e+01	9.8724	65.050368	0.000486	4.864631	1.648182	-0.000195
 757	7.5222e+01	9.8404	64.880808	0.000426	4.256552	1.442159	-0.000170
 758	7.5322e+01	9.7938	64.658766	0.000557	5.574057	1.888542	-0.000223
 759	7.5421e+01	9.7569	64.464983	0.000486	4.864631	1.648182	-0.000195
 760	7.5520e+01	9.7168	64.190458	0.000689	6.891561	2.334924	-0.000276
 761	7.5620e+01	9.6880	64.000713	0.000476	4.763285	1.613845	-0.000191
 762	7.5719e+01	9.6398	63.823079	0.000446	4.459245	1.510833	-0.000179
 763	7.5819e+01	9.5981	63.605074	0.000547	5.472710	1.854204	-0.000219
 764	7.5918e+01	9.5725	63.395142	0.000527	5.270017	1.785530	-0.000211
 765	7.6018e+01	9.5307	63.197323	0.000497	4.965978	1.682519	-0.000199
 766	7.6118e+01	9.4906	62.955095	0.000608	6.080789	2.060227	-0.000243
 767	7.6217e+01	9.4425	62.769386	0.000466	4.661938	1.579507	-0.000187
 768	7.6317e+01	9.4040	62.567530	0.000507	5.067324	1.716856	-0.000203
 769	7.6416e+01	9.3591	62.345487	0.000557	5.574057	1.888542	-0.000223
 770	7.6516e+01	9.3302	62.139593	0.000517	5.168671	1.751193	-0.000207
 771	7.6615e+01	9.2853	61.921588	0.000547	5.472710	1.854204	-0.000219
 772	7.6715e+01	9.2436	61.715694	0.000517	5.168671	1.751193	-0.000207
 773	7.6814e+01	9.2067	61.513837	0.000507	5.067324	1.716856	-0.000203
 774	7.6913e+01	9.1570	61.295832	0.000547	5.472710	1.854204	-0.000219
 775	7.7013e+01	9.1249	61.106087	0.000476	4.763285	1.613845	-0.000191
 776	7.7112e+01	9.0816	60.867896	0.000598	5.979443	2.025890	-0.000239
 777	7.7212e+01	9.0463	60.666039	0.000507	5.067324	1.716856	-0.000203
 778	7.7311e+01	9.0078	60.484368	0.000456	4.560592	1.545170	-0.000183
 779	7.7411e+01	8.9709	60.254251	0.000578	5.776750	1.957216	-0.000231
 780	7.7510e+01	8.9292	60.048357	0.000517	5.168671	1.751193	-0.000207
 781	7.7610e+01	8.8874	59.890909	0.000395	3.952513	1.339148	-0.000158
 782	7.7710e+01	8.8457	59.624458	0.000669	6.688868	2.266250	-0.000268
 783	7.7809e+01	8.8169	59.418564	0.000517	5.168671	1.751193	-0.000207
 784	7.7909e+01	8.7784	59.208633	0.000527	5.270017	1.785530	-0.000211
 785	7.8008e+01	8.7222	59.014850	0.000486	4.864631	1.648182	-0.000195
 786	7.8108e+01	8.6853	58.796845	0.000547	5.472710	1.854204	-0.000219
 787	7.8207e+01	8.6452	58.586914	0.000527	5.270017	1.785530	-0.000211
 788	7.8306e+01	8.6115	58.401206	0.000466	4.661938	1.579507	-0.000187
 789	7.8406e+01	8.5762	58.150903	0.000628	6.283482	2.128901	-0.000252
 790	7.8505e+01	8.5313	57.989418	0.000405	4.053859	1.373485	-0.000162
 791	7.8605e+01	8.4864	57.751227	0.000598	5.979443	2.025890	-0.000239
 792	7.8704e+01	8.4495	57.553407	0.000497	4.965978	1.682519	-0.000199
 793	7.8804e+01	8.4046	57.331365	0.000557	5.574057	1.888542	-0.000223
 794	7.8903e+01	8.3645	57.097211	0.000588	5.878096	1.991553	-0.000235
 795	7.9003e+01	8.3260	56.859020	0.000598	5.979443	2.025890	-0.000239
 796	7.9103e+01	8.3019	56.705609	0.000385	3.851166	1.304810	-0.000154
 797	7.9202e+01	8.2458	56.483566	0.000557	5.574057	1.888542	-0.000223
 798	7.9302e+01	8.2089	56.225189	0.000649	6.486175	2.197576	-0.000260
 799	7.9401e+01	8.1704	56.027370	0.000497	4.965978	1.682519	-0.000199
 800	7.9501e+01	8.1286	55.813402	0.000537	5.371364	1.819867	-0.000215
 801	7.9600e+01	8.0885	55.611545	0.000507	5.067324	1.716856	-0.000203
 802	7.9700e+01	8.0516	55.381428	0.000578	5.776750	1.957216	-0.000231
 803	7.9799e+01	7.9971	55.207831	0.000436	4.357899	1.476496	-0.000174
 804	7.9898e+01	7.9682	54.949455	0.000649	6.486175	2.197576	-0.000260
 805	7.9998e+01	7.9281	54.759709	0.000476	4.763285	1.613845	-0.000191
 806	8.0097e+01	7.8928	54.565927	0.000486	4.864631	1.648182	-0.000195
 807	8.0197e+01	7.8527	54.368107	0.000497	4.965978	1.682519	-0.000199
 808	8.0296e+01	7.8110	54.150102	0.000547	5.472710	1.854204	-0.000219
 809	8.0396e+01	7.7805	53.891725	0.000649	6.486175	2.197576	-0.000260
 810	8.0496e+01	7.7324	53.718128	0.000436	4.357899	1.476496	-0.000174
 811	8.0595e+01	7.6923	53.471863	0.000618	6.182136	2.094564	-0.000248
 812	8.0695e+01	7.6474	53.274043	0.000497	4.965978	1.682519	-0.000199
 813	8.0794e+01	7.6185	53.084298	0.000476	4.763285	1.613845	-0.000191
 814	8.0894e+01	7.5736	52.890515	0.000486	4.864631	1.648182	-0.000195
 815	8.0993e+01	7.5287	52.615990	0.000689	6.891561	2.334924	-0.000276
 816	8.1093e+01	7.4837	52.393948	0.000557	5.574057	1.888542	-0.000223
 817	8.1192e+01	7.4597	52.204202	0.000476	4.763285	1.613845	-0.000191
 818	8.1291e+01	7.4148	51.998308	0.000517	5.168671	1.751193	-0.000207
 819	8.1391e+01	7.3666	51.788377	0.000527	5.270017	1.785530	-0.000211
 820	8.1490e+01	7.3249	51.525963	0.000659	6.587521	2.231913	-0.000264
 821	8.1590e+01	7.2993	51.344292	0.000456	4.560592	1.545170	-0.000183
 822	8.1689e+01	7.2463	51.110138	0.000588	5.878096	1.991553	-0.000235
 823	8.1789e+01	7.2239	50.896170	0.000537	5.371364	1.819867	-0.000215
 824	8.1888e+01	7.1789	50.686239	0.000527	5.270017	1.785530	-0.000211
 825	8.1988e+01	7.1436	50.480345	0.000517	5.168671	1.751193	-0.000207
 826	8.2088e+01	7.0987	50.230043	0.000628	6.283482	2.128901	-0.000252
 827	8.2187e+01	7.0554	50.036260	0.000486	4.864631	1.648182	-0.000195
 828	8.2287e+01	7.0169	49.802106	0.000588	5.878096	1.991553	-0.000235
 829	8.2386e+01	6.9768	49.576027	0.000568	5.675403	1.922879	-0.000227
 830	8.2486e+01	6.9383	49.313613	0.000659	6.587521	2.231913	-0.000264
 831	8.2585e+01	6.8918	49.123868	0.000476	4.763285	1.613845	-0.000191
 832	8.2684e+01	6.8533	48.934122	0.000476	4.763285	1.613845	-0.000191
 833	8.2784e+01	6.8084	48.708043	0.000568	5.675403	1.922879	-0.000227
 834	8.2883e+01	6.7795	48.457740	0.000628	6.283482	2.128901	-0.000252
 835	8.2983e+01	6.7362	48.251846	0.000517	5.168671	1.751193	-0.000207
 836	8.3082e+01	6.7025	48.017692	0.000588	5.878096	1.991553	-0.000235
 837	8.3182e+01	6.6576	47.787576	0.000578	5.776750	1.957216	-0.000231
 838	8.3281e+01	6.6143	47.577645	0.000527	5.270017	1.785530	-0.000211
 839	8.3381e+01	6.5725	47.351565	0.000568	5.675403	1.922879	-0.000227
 840	8.3481e+01	6.5308	47.137597	0.000537	5.371364	1.819867	-0.000215
 841	8.3580e+01	6.4907	46.931703	0.000517	5.168671	1.751193	-0.000207
 842	8.3680e+01	6.4586	46.705623	0.000568	5.675403	1.922879	-0.000227
 843	8.3779e+01	6.4201	46.463395	0.000608	6.080789	2.060227	-0.000243
 844	8.3879e+01	6.3848	46.257501	0.000517	5.168671	1.751193	-0.000207
 845	8.3978e+01	6.3367	46.055644	0.000507	5.067324	1.716856	-0.000203
 846	8.4078e+01	6.3062	45.845713	0.000527	5.270017	1.785530	-0.000211
 847	8.4177e+01	6.2629	45.607522	0.000598	5.979443	2.025890	-0.000239
 848	8.4276e+01	6.2132	45.361257	0.000618	6.182136	2.094564	-0.000248
 849	8.4376e+01	6.1731	45.127103	0.000588	5.878096	1.991553	-0.000235
 850	8.4475e+01	6.1346	44.917172	0.000527	5.270017	1.785530	-0.000211
 851	8.4575e+01	6.0945	44.719353	0.000497	4.965978	1.682519	-0.000199
 852	8.4674e+01	6.0544	44.469050	0.000628	6.283482	2.128901	-0.000252
 853	8.4774e+01	6.0207	44.251045	0.000547	5.472710	1.854204	-0.000219
 854	8.4874e+01	5.9886	44.008817	0.000608	6.080789	2.060227	-0.000243
 855	8.4973e+01	5.9341	43.810997	0.000497	4.965978	1.682519	-0.000199
 856	8.5073e+01	5.9084	43.584917	0.000568	5.675403	1.922879	-0.000227
 857	8.5172e+01	5.8587	43.350764	0.000588	5.878096	1.991553	-0.000235
 858	8.5272e+01	5.8218	43.104498	0.000618	6.182136	2.094564	-0.000248
 859	8.5371e+01	5.7801	42.902641	0.000507	5.067324	1.716856	-0.000203
 860	8.5471e+01	5.7351	42.672525	0.000578	5.776750	1.957216	-0.000231
 861	8.5570e+01	5.6982	42.450482	0.000557	5.574057	1.888542	-0.000223
 862	8.5669e+01	5.6678	42.163846	0.000720	7.195600	2.437935	-0.000288
 863	8.5769e+01	5.6276	41.966026	0.000497	4.965978	1.682519	-0.000199
 864	8.5868e+01	5.5795	41.711686	0.000638	6.384829	2.163238	-0.000256
 865	8.5968e+01	5.5394	41.497718	0.000537	5.371364	1.819867	-0.000215
 866	8.6067e+01	5.4945	41.271639	0.000568	5.675403	1.922879	-0.000227
 867	8.6167e+01	5.4528	41.037485	0.000588	5.878096	1.991553	-0.000235
 868	8.6266e+01	5.4239	40.823517	0.000537	5.371364	1.819867	-0.000215
 869	8.6366e+01	5.3822	40.569177	0.000638	6.384829	2.163238	-0.000256
 870	8.6466e+01	5.3549	40.347135	0.000557	5.574057	1.888542	-0.000223
 871	8.6565e+01	5.3036	40.125092	0.000557	5.574057	1.888542	-0.000223
 872	8.6665e+01	5.2651	39.899012	0.000568	5.675403	1.922879	-0.000227
 873	8.6764e+01	5.2234	39.648710	0.000628	6.283482	2.128901	-0.000252
 874	8.6864e+01	5.1785	39.382259	0.000669	6.688868	2.266250	-0.000268
 875	8.6963e+01	5.1448	39.180402	0.000507	5.067324	1.716856	-0.000203
 876	8.7063e+01	5.1143	38.958360	0.000557	5.574057	1.888542	-0.000223
 877	8.7162e+01	5.0614	38.627315	0.000831	8.310412	2.815644	-0.000333
 878	8.7261e+01	5.0309	38.486015	0.000355	3.547127	1.201799	-0.000142
 879	8.7361e+01	4.9763	38.199378	0.000720	7.195600	2.437935	-0.000288
 880	8.7460e+01	4.9394	37.993484	0.000517	5.168671	1.751193	-0.000207
 881	8.7560e+01	4.8977	37.763368	0.000578	5.776750	1.957216	-0.000231
 882	8.7659e+01	4.8737	37.557474	0.000517	5.168671	1.751193	-0.000207
 883	8.7759e+01	4.8191	37.291023	0.000669	6.688868	2.266250	-0.000268
 884	8.7859e+01	4.7822	37.073017	0.000547	5.472710	1.854204	-0.000219
 885	8.7958e+01	4.7389	36.859049	0.000537	5.371364	1.819867	-0.000215
 886	8.8058e+01	4.6940	36.564338	0.000740	7.398293	2.506610	-0.000296
 887	8.8157e+01	4.6603	36.358444	0.000517	5.168671	1.751193	-0.000207
 888	8.8257e+01	4.6266	36.112179	0.000618	6.182136	2.094564	-0.000248
 889	8.8356e+01	4.5785	35.857840	0.000638	6.384829	2.163238	-0.000256
 890	8.8456e+01	4.5544	35.635797	0.000557	5.574057	1.888542	-0.000223
 891	8.8555e+01	4.5095	35.373383	0.000659	6.587521	2.231913	-0.000264
 892	8.8654e+01	4.4662	35.123081	0.000628	6.283482	2.128901	-0.000252
 893	8.8754e+01	4.4213	34.897001	0.000568	5.675403	1.922879	-0.000227
 894	8.8853e+01	4.3860	34.662847	0.000588	5.878096	1.991553	-0.000235
 895	8.8953e+01	4.3394	34.432731	0.000578	5.776750	1.957216	-0.000231
 896	8.9052e+01	4.3009	34.182428	0.000628	6.283482	2.128901	-0.000252
 897	8.9152e+01	4.2641	33.924052	0.000649	6.486175	2.197576	-0.000260
 898	8.9251e+01	4.2223	33.710083	0.000537	5.371364	1.819867	-0.000215
 899	8.9351e+01	4.1806	33.475930	0.000588	5.878096	1.991553	-0.000235
 900	8.9451e+01	4.1534	33.189293	0.000720	7.195600	2.437935	-0.000288
 901	8.9550e+01	4.1020	32.987436	0.000507	5.067324	1.716856	-0.000203
 902	8.9650e+01	4.0715	32.737134	0.000628	6.283482	2.128901	-0.000252
 903	8.9749e+01	4.0202	32.490868	0.000618	6.182136	2.094564	-0.000248
 904	8.9849e+01	3.9801	32.252677	0.000598	5.979443	2.025890	-0.000239
 905	8.9948e+01	3.9432	31.982189	0.000679	6.790214	2.300587	-0.000272
 906	9.0047e+01	3.9031	31.756110	0.000568	5.675403	1.922879	-0.000227
 907	9.0147e+01	3.8598	31.509844	0.000618	6.182136	2.094564	-0.000248
 908	9.0246e+01	3.8245	31.243393	0.000669	6.688868	2.266250	-0.000268
 909	9.0346e+01	3.7828	31.033462	0.000527	5.270017	1.785530	-0.000211
 910	9.0445e+01	3.7443	30.795271	0.000598	5.979443	2.025890	-0.000239
 911	9.0545e+01	3.7042	30.557080	0.000598	5.979443	2.025890	-0.000239
 912	9.0644e+01	3.6769	30.290629	0.000669	6.688868	2.266250	-0.000268
 913	9.0744e+01	3.6240	30.088773	0.000507	5.067324	1.716856	-0.000203
 914	9.0844e+01	3.5871	29.802136	0.000720	7.195600	2.437935	-0.000288
 915	9.0943e+01	3.5486	29.580094	0.000557	5.574057	1.888542	-0.000223
 916	9.1043e+01	3.5133	29.345940	0.000588	5.878096	1.991553	-0.000235
 917	9.1142e+01	3.4684	29.075452	0.000679	6.790214	2.300587	-0.000272
 918	9.1242e+01	3.4218	28.833223	0.000608	6.080789	2.060227	-0.000243
 919	9.1341e+01	3.3865	28.586958	0.000618	6.182136	2.094564	-0.000248
 920	9.1441e+01	3.3464	28.340693	0.000618	6.182136	2.094564	-0.000248
 921	9.1540e+01	3.3047	28.082316	0.000649	6.486175	2.197576	-0.000260
 922	9.1639e+01	3.2646	27.844125	0.000598	5.979443	2.025890	-0.000239
 923	9.1739e+01	3.2293	27.597860	0.000618	6.182136	2.094564	-0.000248
 924	9.1838e+01	3.1924	27.363706	0.000588	5.878096	1.991553	-0.000235
 925	9.1938e+01	3.1475	27.105329	0.000649	6.486175	2.197576	-0.000260
 926	9.2037e+01	3.1106	26.879250	0.000568	5.675403	1.922879	-0.000227
 927	9.2137e+01	3.0673	26.608762	0.000679	6.790214	2.300587	-0.000272
 928	9.2237e+01	3.0304	26.378645	0.000578	5.776750	1.957216	-0.000231
 929	9.2336e+01	2.9775	26.087971	0.000730	7.296947	2.472273	-0.000292
 930	9.2436e+01	2.9566	25.922449	0.000416	4.155206	1.407822	-0.000166
 931	9.2535e+01	2.9133	25.619663	0.000760	7.600986	2.575284	-0.000304
 932	9.2635e+01	2.8668	25.393584	0.000568	5.675403	1.922879	-0.000227
 933	9.2734e+01	2.8283	25.131170	0.000659	6.587521	2.231913	-0.000264
 934	9.2834e+01	2.7866	24.864719	0.000669	6.688868	2.266250	-0.000268
 935	9.2933e+01	2.7448	24.606342	0.000649	6.486175	2.197576	-0.000260
 936	9.3032e+01	2.7208	24.400448	0.000517	5.168671	1.751193	-0.000207
 937	9.3132e+01	2.6743	24.150146	0.000628	6.283482	2.128901	-0.000252
 938	9.3231e+01	2.6325	23.867546	0.000709	7.094254	2.403598	-0.000284
 939	9.3331e+01	2.5973	23.641467	0.000568	5.675403	1.922879	-0.000227
 940	9.3430e+01	2.5523	23.387127	0.000638	6.384829	2.163238	-0.000256
 941	9.3530e+01	2.5122	23.120676	0.000669	6.688868	2.266250	-0.000268
 942	9.3629e+01	2.4689	22.902671	0.000547	5.472710	1.854204	-0.000219
 943	9.3729e+01	2.4272	22.676591	0.000568	5.675403	1.922879	-0.000227
 944	9.3829e+01	2.3871	22.389955	0.000720	7.195600	2.437935	-0.000288
 945	9.3928e+01	2.3422	22.155801	0.000588	5.878096	1.991553	-0.000235
 946	9.4028e+01	2.3149	21.937796	0.000547	5.472710	1.854204	-0.000219
 947	9.4127e+01	2.2796	21.639048	0.000750	7.499640	2.540947	-0.000300
 948	9.4227e+01	2.2331	21.408931	0.000578	5.776750	1.957216	-0.000231
 949	9.4326e+01	2.1946	21.162666	0.000618	6.182136	2.094564	-0.000248
 950	9.4425e+01	2.1529	20.920437	0.000608	6.080789	2.060227	-0.000243
 951	9.4525e+01	2.1112	20.629764	0.000730	7.296947	2.472273	-0.000292
 952	9.4624e+01	2.0743	20.383498	0.000618	6.182136	2.094564	-0.000248
 953	9.4724e+01	2.0326	20.137233	0.000618	6.182136	2.094564	-0.000248
 954	9.4823e+01	1.9909	19.947488	0.000476	4.763285	1.613845	-0.000191
 955	9.4923e+01	1.9459	19.656814	0.000730	7.296947	2.472273	-0.000292
 956	9.5022e+01	1.9090	19.414586	0.000608	6.080789	2.060227	-0.000243
 957	9.5122e+01	1.8770	19.127949	0.000720	7.195600	2.437935	-0.000288
 958	9.5222e+01	1.8417	18.865535	0.000659	6.587521	2.231913	-0.000264
 959	9.5321e+01	1.7951	18.651567	0.000537	5.371364	1.819867	-0.000215
 960	9.5421e+01	1.7582	18.377042	0.000689	6.891561	2.334924	-0.000276
 961	9.5520e+01	1.7133	18.138851	0.000598	5.979443	2.025890	-0.000239
 962	9.5620e+01	1.6812	17.908734	0.000578	5.776750	1.957216	-0.000231
 963	9.5719e+01	1.6299	17.642283	0.000669	6.688868	2.266250	-0.000268
 964	9.5819e+01	1.5946	17.387944	0.000638	6.384829	2.163238	-0.000256
 965	9.5918e+01	1.5577	17.141678	0.000618	6.182136	2.094564	-0.000248
 966	9.6017e+01	1.5208	16.859079	0.000709	7.094254	2.403598	-0.000284
 967	9.6117e+01	1.4743	16.641074	0.000547	5.472710	1.854204	-0.000219
 968	9.6216e+01	1.4374	16.354437	0.000720	7.195600	2.437935	-0.000288
 969	9.6316e+01	1.3877	16.132394	0.000557	5.574057	1.888542	-0.000223
 970	9.6415e+01	1.3572	15.837684	0.000740	7.398293	2.506610	-0.000296
 971	9.6515e+01	1.3251	15.611604	0.000568	5.675403	1.922879	-0.000227
 972	9.6615e+01	1.2738	15.361301	0.000628	6.283482	2.128901	-0.000252
 973	9.6714e+01	1.2288	15.123110	0.000598	5.979443	2.025890	-0.000239
 974	9.6814e+01	1.1919	14.840511	0.000709	7.094254	2.403598	-0.000284
 975	9.6913e+01	1.1583	14.622506	0.000547	5.472710	1.854204	-0.000219
 976	9.7013e+01	1.1198	14.360092	0.000659	6.587521	2.231913	-0.000264
 977	9.7112e+01	1.0684	14.089604	0.000679	6.790214	2.300587	-0.000272
 978	9.7212e+01	1.0428	13.867561	0.000557	5.574057	1.888542	-0.000223
 979	9.7311e+01	0.9930	13.625333	0.000608	6.080789	2.060227	-0.000243
 980	9.7410e+01	0.9561	13.370994	0.000638	6.384829	2.163238	-0.000256
 981	9.7510e+01	0.9128	13.080320	0.000730	7.296947	2.472273	-0.000292
 982	9.7609e+01	0.8695	12.870389	0.000527	5.270017	1.785530	-0.000211
 983	9.7709e+01	0.8358	12.559529	0.000780	7.803679	2.643958	-0.000312
 984	9.7808e+01	0.7957	12.313264	0.000618	6.182136	2.094564	-0.000248
 985	9.7908e+01	0.7540	12.050850	0.000659	6.587521	2.231913	-0.000264
 986	9.8007e+01	0.7171	11.824771	0.000568	5.675403	1.922879	-0.000227
 987	9.8107e+01	0.6754	11.546208	0.000699	6.992907	2.369261	-0.000280
 988	9.8207e+01	0.6208	11.303980	0.000608	6.080789	2.060227	-0.000243
 989	9.8306e+01	0.5936	11.029455	0.000689	6.891561	2.334924	-0.000276
 990	9.8406e+01	0.5535	10.795301	0.000588	5.878096	1.991553	-0.000235
 991	9.8505e+01	0.5069	10.500590	0.000740	7.398293	2.506610	-0.000296
 992	9.8605e+01	0.4797	10.254325	0.000618	6.182136	2.094564	-0.000248
 993	9.8704e+01	0.4331	9.999985	0.000638	6.384829	2.163238	-0.000256
 994	9.8803e+01	0.3914	9.753720	0.000618	6.182136	2.094564	-0.000248
 995	9.8903e+01	0.3561	9.495343	0.000649	6.486175	2.197576	-0.000260
 996	9.9002e+01	0.3192	9.232929	0.000659	6.587521	2.231913	-0.000264
 997	9.9102e+01	0.2807	8.974553	0.000649	6.486175	2.197576	-0.000260
 998	9.9201e+01	0.2374	8.720213	0.000638	6.384829	2.163238	-0.000256
 999	9.9301e+01	0.1957	8.461837	0.000649	6.486175	2.197576	-0.000260
1000	9.9400e+01	0.1636	8.207497	0.000638	6.384829	2.163238	-0.000256
1001	9.9500e+01	0.1171	7.920860	0.000720	7.195600	2.437935	-0.000288
1002	9.9600e+01	0.0818	7.646335	0.000689	6.891561	2.334924	-0.000276
1003	9.9699e+01	0.0401	7.408144	0.000598	5.979443	2.025890	-0.000239
1004	9.9799e+01	-0.0032	7.145730	0.000659	6.587521	2.231913	-0.000264
1005	9.9898e+01	-0.0337	6.972133	0.000436	4.357899	1.476496	-0.000174
1006	9.9998e+01	-0.0674	6.669348	0.000760	7.600986	2.575284	-0.000304
1007	1.0010e+02	-0.1075	6.415009	0.000638	6.384829	2.163238	-0.000256
1008	1.0020e+02	-0.1444	6.192966	0.000557	5.574057	1.888542	-0.000223
1009	1.0030e+02	-0.1813	5.898255	0.000740	7.398293	2.506610	-0.000296
1010	1.0040e+02	-0.2294	5.627767	0.000679	6.790214	2.300587	-0.000272
1011	1.0050e+02	-0.2711	5.393613	0.000588	5.878096	1.991553	-0.000235
1012	1.0059e+02	-0.3096	5.123125	0.000679	6.790214	2.300587	-0.000272
1013	1.0069e+02	-0.3401	4.856674	0.000669	6.688868	2.266250	-0.000268
1014	1.0079e+02	-0.3978	4.618483	0.000598	5.979443	2.025890	-0.000239
1015	1.0089e+02	-0.4315	4.376255	0.000608	6.080789	2.060227	-0.000243
1016	1.0099e+02	-0.4765	4.037136	0.000851	8.513105	2.884318	-0.000341
1017	1.0109e+02	-0.5101	3.798945	0.000598	5.979443	2.025890	-0.000239
1018	1.0119e+02	-0.5503	3.593051	0.000517	5.168671	1.751193	-0.000207
1019	1.0129e+02	-0.5920	3.310451	0.000709	7.094254	2.403598	-0.000284
1020	1.0139e+02	-0.6337	3.019778	0.000730	7.296947	2.472273	-0.000292
1021	1.0149e+02	-0.6674	2.781587	0.000598	5.979443	2.025890	-0.000239
1022	1.0159e+02	-0.7139	2.470727	0.000780	7.803679	2.643958	-0.000312
1023	1.0169e+02	-0.7476	2.244647	0.000568	5.675403	1.922879	-0.000227
1024	1.0179e+02	-0.7893	1.970122	0.000689	6.891561	2.334924	-0.000276
1025	1.0189e+02	-0.8278	1.748080	0.000557	5.574057	1.888542	-0.000223
1026	1.0199e+02	-0.8727	1.412998	0.000841	8.411758	2.849981	-0.000337
1027	1.0209e+02	-0.9128	1.186918	0.000568	5.675403	1.922879	-0.000227
1028	1.0219e+02	-0.9577	0.924504	0.000659	6.587521	2.231913	-0.000264
1029	1.0229e+02	-0.9946	0.658053	0.000669	6.688868	2.266250	-0.000268
1030	1.0239e+02	-1.0251	0.415825	0.000608	6.080789	2.060227	-0.000243
1031	1.0248e+02	-1.0700	0.076706	0.000851	8.513105	2.884318	-0.000341
1032	1.0258e+02	-1.0989	-0.141300	0.000547	5.472710	1.854204	-0.000219
1033	1.0268e+02	-1.1534	-0.411788	0.000679	6.790214	2.300587	-0.000272
1034	1.0278e+02	-1.1903	-0.633830	0.000557	5.574057	1.888542	-0.000223
1035	1.0288e+02	-1.2369	-0.940653	0.000770	7.702333	2.609621	-0.000308
1036	1.0298e+02	-1.2609	-1.178844	0.000598	5.979443	2.025890	-0.000239
1037	1.0308e+02	-1.3074	-1.429146	0.000628	6.283482	2.128901	-0.000252
1038	1.0318e+02	-1.3476	-1.703671	0.000689	6.891561	2.334924	-0.000276
1039	1.0328e+02	-1.3925	-1.994345	0.000730	7.296947	2.472273	-0.000292
1040	1.0338e+02	-1.4326	-2.224462	0.000578	5.776750	1.957216	-0.000231
1041	1.0348e+02	-1.4631	-2.511098	0.000720	7.195600	2.437935	-0.000288
1042	1.0358e+02	-1.5096	-2.737178	0.000568	5.675403	1.922879	-0.000227
1043	1.0368e+02	-1.5513	-3.076297	0.000851	8.513105	2.884318	-0.000341
1044	1.0378e+02	-1.5850	-3.338711	0.000659	6.587521	2.231913	-0.000264
1045	1.0388e+02	-1.6219	-3.564791	0.000568	5.675403	1.922879	-0.000227
1046	1.0398e+02	-1.6588	-3.831242	0.000669	6.688868	2.266250	-0.000268
1047	1.0408e+02	-1.7117	-4.101730	0.000679	6.790214	2.300587	-0.000272
1048	1.0418e+02	-1.7582	-4.368181	0.000669	6.688868	2.266250	-0.000268
1049	1.0428e+02	-1.7919	-4.606372	0.000598	5.979443	2.025890	-0.000239
1050	1.0438e+02	-1.8304	-4.884934	0.000699	6.992907	2.369261	-0.000280
1051	1.0447e+02	-1.8625	-5.187719	0.000760	7.600986	2.575284	-0.000304
1052	1.0457e+02	-1.9042	-5.458208	0.000679	6.790214	2.300587	-0.000272
1053	1.0467e+02	-1.9475	-5.672176	0.000537	5.371364	1.819867	-0.000215
1054	1.0477e+02	-1.9780	-5.934590	0.000659	6.587521	2.231913	-0.000264
1055	1.0487e+02	-2.0181	-6.188929	0.000638	6.384829	2.163238	-0.000256
1056	1.0497e+02	-2.0695	-6.479603	0.000730	7.296947	2.472273	-0.000292
1057	1.0507e+02	-2.1080	-6.750091	0.000679	6.790214	2.300587	-0.000272
1058	1.0517e+02	-2.1368	-7.028653	0.000699	6.992907	2.369261	-0.000280
1059	1.0527e+02	-2.1866	-7.246659	0.000547	5.472710	1.854204	-0.000219
1060	1.0537e+02	-2.2219	-7.529258	0.000709	7.094254	2.403598	-0.000284
1061	1.0547e+02	-2.2620	-7.828006	0.000750	7.499640	2.540947	-0.000300
1062	1.0557e+02	-2.3069	-8.078309	0.000628	6.283482	2.128901	-0.000252
1063	1.0567e+02	-2.3518	-8.336685	0.000649	6.486175	2.197576	-0.000260
1064	1.0577e+02	-2.3791	-8.619285	0.000709	7.094254	2.403598	-0.000284
1065	1.0587e+02	-2.4272	-8.865550	0.000618	6.182136	2.094564	-0.000248
1066	1.0597e+02	-2.4657	-9.136038	0.000679	6.790214	2.300587	-0.000272
1067	1.0607e+02	-2.5058	-9.406526	0.000679	6.790214	2.300587	-0.000272
1068	1.0617e+02	-2.5427	-9.664903	0.000649	6.486175	2.197576	-0.000260
1069	1.0627e+02	-2.5844	-9.903094	0.000598	5.979443	2.025890	-0.000239
1070	1.0637e+02	-2.6197	-10.161471	0.000649	6.486175	2.197576	-0.000260
1071	1.0647e+02	-2.6598	-10.419847	0.000649	6.486175	2.197576	-0.000260
1072	1.0656e+02	-2.6887	-10.686298	0.000669	6.688868	2.266250	-0.000268
1073	1.0666e+02	-2.7272	-10.981009	0.000740	7.398293	2.506610	-0.000296
1074	1.0676e+02	-2.7785	-11.215163	0.000588	5.878096	1.991553	-0.000235
1075	1.0686e+02	-2.8267	-11.481614	0.000669	6.688868	2.266250	-0.000268
1076	1.0696e+02	-2.8668	-11.739991	0.000649	6.486175	2.197576	-0.000260
1077	1.0706e+02	-2.8988	-12.006442	0.000669	6.688868	2.266250	-0.000268
1078	1.0716e+02	-2.9502	-12.293078	0.000720	7.195600	2.437935	-0.000288
1079	1.0726e+02	-2.9839	-12.535306	0.000608	6.080789	2.060227	-0.000243
1080	1.0736e+02	-3.0160	-12.753312	0.000547	5.472710	1.854204	-0.000219
1081	1.0746e+02	-3.0625	-13.019763	0.000669	6.688868	2.266250	-0.000268
1082	1.0756e+02	-3.0994	-13.278139	0.000649	6.486175	2.197576	-0.000260
1083	1.0766e+02	-3.1427	-13.532479	0.000638	6.384829	2.163238	-0.000256
1084	1.0776e+02	-3.1764	-13.794893	0.000659	6.587521	2.231913	-0.000264
1085	1.0786e+02	-3.2229	-14.057307	0.000659	6.587521	2.231913	-0.000264
1086	1.0796e+02	-3.2550	-14.327795	0.000679	6.790214	2.300587	-0.000272
1087	1.0806e+02	-3.3015	-14.541763	0.000537	5.371364	1.819867	-0.000215
1088	1.0816e+02	-3.3416	-14.812251	0.000679	6.790214	2.300587	-0.000272
1089	1.0826e+02	-3.3817	-15.070628	0.000649	6.486175	2.197576	-0.000260
1090	1.0836e+02	-3.4250	-15.304782	0.000588	5.878096	1.991553	-0.000235
1091	1.0845e+02	-3.4635	-15.591418	0.000720	7.195600	2.437935	-0.000288
1092	1.0855e+02	-3.5004	-15.853832	0.000659	6.587521	2.231913	-0.000264
1093	1.0865e+02	-3.5341	-16.104134	0.000628	6.283482	2.128901	-0.000252
1094	1.0875e+02	-3.5758	-16.318103	0.000537	5.371364	1.819867	-0.000215
1095	1.0885e+02	-3.6240	-16.616851	0.000750	7.499640	2.540947	-0.000300
1096	1.0895e+02	-3.6593	-16.842930	0.000568	5.675403	1.922879	-0.000227
1097	1.0905e+02	-3.7026	-17.121493	0.000699	6.992907	2.369261	-0.000280
1098	1.0915e+02	-3.7395	-17.391981	0.000679	6.790214	2.300587	-0.000272
1099	1.0925e+02	-3.7876	-17.618060	0.000568	5.675403	1.922879	-0.000227
1100	1.0935e+02	-3.8165	-17.836066	0.000547	5.472710	1.854204	-0.000219
1101	1.0945e+02	-3.8582	-18.122702	0.000720	7.195600	2.437935	-0.000288
1102	1.0955e+02	-3.8983	-18.368968	0.000618	6.182136	2.094564	-0.000248
1103	1.0965e+02	-3.9384	-18.611196	0.000608	6.080789	2.060227	-0.000243
1104	1.0975e+02	-3.9817	-18.869572	0.000649	6.486175	2.197576	-0.000260
1105	1.0985e+02	-4.0186	-19.140061	0.000679	6.790214	2.300587	-0.000272
1106	1.0995e+02	-4.0731	-19.354029	0.000537	5.371364	1.819867	-0.000215
1107	1.1005e+02	-4.0924	-19.608368	0.000638	6.384829	2.163238	-0.000256
1108	1.1015e+02	-4.1421	-19.846559	0.000598	5.979443	2.025890	-0.000239
1109	1.1025e+02	-4.1790	-20.129159	0.000709	7.094254	2.403598	-0.000284
1110	1.1035e+02	-4.2207	-20.367350	0.000598	5.979443	2.025890	-0.000239
1111	1.1044e+02	-4.2576	-20.617652	0.000628	6.283482	2.128901	-0.000252
1112	1.1054e+02	-4.2993	-20.863917	0.000618	6.182136	2.094564	-0.000248
1113	1.1064e+02	-4.3346	-21.085960	0.000557	5.574057	1.888542	-0.000223
1114	1.1074e+02	-4.3699	-21.384708	0.000750	7.499640	2.540947	-0.000300
1115	1.1084e+02	-4.4132	-21.614825	0.000578	5.776750	1.957216	-0.000231
1116	1.1094e+02	-4.4534	-21.869164	0.000638	6.384829	2.163238	-0.000256
1117	1.1104e+02	-4.4919	-22.087170	0.000547	5.472710	1.854204	-0.000219
1118	1.1114e+02	-4.5239	-22.345546	0.000649	6.486175	2.197576	-0.000260
1119	1.1124e+02	-4.5737	-22.603923	0.000649	6.486175	2.197576	-0.000260
1120	1.1134e+02	-4.6186	-22.830003	0.000568	5.675403	1.922879	-0.000227
1121	1.1144e+02	-4.6507	-23.019748	0.000476	4.763285	1.613845	-0.000191
1122	1.1154e+02	-4.6876	-23.298310	0.000699	6.992907	2.369261	-0.000280
1123	1.1164e+02	-4.7389	-23.564761	0.000669	6.688868	2.266250	-0.000268
1124	1.1174e+02	-4.7742	-23.746432	0.000456	4.560592	1.545170	-0.000183
1125	1.1184e+02	-4.8063	-24.029032	0.000709	7.094254	2.403598	-0.000284
1126	1.1194e+02	-4.8528	-24.271260	0.000608	6.080789	2.060227	-0.000243
1127	1.1204e+02	-4.8945	-24.505414	0.000588	5.878096	1.991553	-0.000235
1128	1.1214e+02	-4.9378	-24.743605	0.000598	5.979443	2.025890	-0.000239
1129	1.1224e+02	-4.9635	-24.989870	0.000618	6.182136	2.094564	-0.000248
1130	1.1234e+02	-5.0212	-25.199801	0.000527	5.270017	1.785530	-0.000211
1131	1.1244e+02	-5.0517	-25.442029	0.000608	6.080789	2.060227	-0.000243
1132	1.1253e+02	-5.0854	-25.732703	0.000730	7.296947	2.472273	-0.000292
1133	1.1263e+02	-5.1335	-25.934560	0.000507	5.067324	1.716856	-0.000203
1134	1.1273e+02	-5.1753	-26.192937	0.000649	6.486175	2.197576	-0.000260
1135	1.1283e+02	-5.2170	-26.414979	0.000557	5.574057	1.888542	-0.000223
1136	1.1293e+02	-5.2555	-26.653170	0.000598	5.979443	2.025890	-0.000239
1137	1.1303e+02	-5.2908	-26.879250	0.000568	5.675403	1.922879	-0.000227
1138	1.1313e+02	-5.3244	-27.157812	0.000699	6.992907	2.369261	-0.000280
1139	1.1323e+02	-5.3854	-27.408115	0.000628	6.283482	2.128901	-0.000252
1140	1.1333e+02	-5.4143	-27.626120	0.000547	5.472710	1.854204	-0.000219
1141	1.1343e+02	-5.4480	-27.836051	0.000527	5.270017	1.785530	-0.000211
1142	1.1353e+02	-5.4801	-28.062131	0.000568	5.675403	1.922879	-0.000227
1143	1.1363e+02	-5.5378	-28.328581	0.000669	6.688868	2.266250	-0.000268
1144	1.1373e+02	-5.5763	-28.510253	0.000456	4.560592	1.545170	-0.000183
1145	1.1383e+02	-5.6180	-28.784778	0.000689	6.891561	2.334924	-0.000276
1146	1.1393e+02	-5.6453	-28.978560	0.000486	4.864631	1.648182	-0.000195
1147	1.1403e+02	-5.6966	-29.232900	0.000638	6.384829	2.163238	-0.000256
1148	1.1413e+02	-5.7319	-29.463017	0.000578	5.776750	1.957216	-0.000231
1149	1.1423e+02	-5.7720	-29.697170	0.000588	5.878096	1.991553	-0.000235
1150	1.1433e+02	-5.8153	-29.907102	0.000527	5.270017	1.785530	-0.000211
1151	1.1442e+02	-5.8474	-30.149330	0.000608	6.080789	2.060227	-0.000243
1152	1.1452e+02	-5.8891	-30.391558	0.000608	6.080789	2.060227	-0.000243
1153	1.1462e+02	-5.9357	-30.601489	0.000527	5.270017	1.785530	-0.000211
1154	1.1472e+02	-5.9726	-30.847754	0.000618	6.182136	2.094564	-0.000248
1155	1.1482e+02	-6.0271	-31.094019	0.000618	6.182136	2.094564	-0.000248
1156	1.1492e+02	-6.0592	-31.295876	0.000507	5.067324	1.716856	-0.000203
1157	1.1502e+02	-6.0816	-31.542142	0.000618	6.182136	2.094564	-0.000248
1158	1.1512e+02	-6.1282	-31.788407	0.000618	6.182136	2.094564	-0.000248
1159	1.1522e+02	-6.1683	-32.006412	0.000547	5.472710	1.854204	-0.000219
1160	1.1532e+02	-6.2100	-32.224417	0.000547	5.472710	1.854204	-0.000219
1161	1.1542e+02	-6.2581	-32.466646	0.000608	6.080789	2.060227	-0.000243
1162	1.1552e+02	-6.2934	-32.688688	0.000557	5.574057	1.888542	-0.000223
1163	1.1562e+02	-6.3303	-32.898619	0.000527	5.270017	1.785530	-0.000211
1164	1.1572e+02	-6.3624	-33.132773	0.000588	5.878096	1.991553	-0.000235
1165	1.1582e+02	-6.4073	-33.354815	0.000557	5.574057	1.888542	-0.000223
1166	1.1592e+02	-6.4522	-33.637415	0.000709	7.094254	2.403598	-0.000284
1167	1.1602e+02	-6.4779	-33.798900	0.000405	4.053859	1.373485	-0.000162
1168	1.1612e+02	-6.5212	-34.077463	0.000699	6.992907	2.369261	-0.000280
1169	1.1622e+02	-6.5661	-34.271245	0.000486	4.864631	1.648182	-0.000195
1170	1.1632e+02	-6.5982	-34.541733	0.000679	6.790214	2.300587	-0.000272
1171	1.1642e+02	-6.6415	-34.731479	0.000476	4.763285	1.613845	-0.000191
1172	1.1651e+02	-6.6897	-34.965633	0.000588	5.878096	1.991553	-0.000235
1173	1.1661e+02	-6.7298	-35.167489	0.000507	5.067324	1.716856	-0.000203
1174	1.1671e+02	-6.7602	-35.421829	0.000638	6.384829	2.163238	-0.000256
1175	1.1681e+02	-6.7955	-35.664057	0.000608	6.080789	2.060227	-0.000243
1176	1.1691e+02	-6.8485	-35.861877	0.000497	4.965978	1.682519	-0.000199
1177	1.1701e+02	-6.8757	-36.079882	0.000547	5.472710	1.854204	-0.000219
1178	1.1711e+02	-6.9287	-36.346333	0.000669	6.688868	2.266250	-0.000268
1179	1.1721e+02	-6.9624	-36.552227	0.000517	5.168671	1.751193	-0.000207
1180	1.1731e+02	-7.0073	-36.770232	0.000547	5.472710	1.854204	-0.000219
1181	1.1741e+02	-7.0474	-37.044758	0.000689	6.891561	2.334924	-0.000276
1182	1.1751e+02	-7.0811	-37.218354	0.000436	4.357899	1.476496	-0.000174
1183	1.1761e+02	-7.1308	-37.456545	0.000598	5.979443	2.025890	-0.000239
1184	1.1771e+02	-7.1581	-37.666476	0.000527	5.270017	1.785530	-0.000211
1185	1.1781e+02	-7.1998	-37.900630	0.000588	5.878096	1.991553	-0.000235
1186	1.1791e+02	-7.2495	-38.110561	0.000527	5.270017	1.785530	-0.000211
1187	1.1801e+02	-7.2784	-38.348752	0.000598	5.979443	2.025890	-0.000239
1188	1.1811e+02	-7.3169	-38.574832	0.000568	5.675403	1.922879	-0.000227
1189	1.1821e+02	-7.3602	-38.776689	0.000507	5.067324	1.716856	-0.000203
1190	1.1831e+02	-7.3923	-38.966434	0.000476	4.763285	1.613845	-0.000191
1191	1.1841e+02	-7.4436	-39.240959	0.000689	6.891561	2.334924	-0.000276
1192	1.1850e+02	-7.4789	-39.458965	0.000547	5.472710	1.854204	-0.000219
1193	1.1860e+02	-7.5239	-39.685044	0.000568	5.675403	1.922879	-0.000227
1194	1.1870e+02	-7.5656	-39.907087	0.000557	5.574057	1.888542	-0.000223
1195	1.1880e+02	-7.5976	-40.137204	0.000578	5.776750	1.957216	-0.000231
1196	1.1890e+02	-7.6410	-40.359246	0.000557	5.574057	1.888542	-0.000223
1197	1.1900e+02	-7.6923	-40.585326	0.000568	5.675403	1.922879	-0.000227
1198	1.1910e+02	-7.7212	-40.799294	0.000537	5.371364	1.819867	-0.000215
1199	1.1920e+02	-7.7597	-41.041522	0.000608	6.080789	2.060227	-0.000243
1200	1.1930e+02	-7.8046	-41.267602	0.000568	5.675403	1.922879	-0.000227
1201	1.1940e+02	-7.8351	-41.497718	0.000578	5.776750	1.957216	-0.000231
1202	1.1950e+02	-7.8848	-41.731872	0.000588	5.878096	1.991553	-0.000235
1203	1.1960e+02	-7.9153	-41.933729	0.000507	5.067324	1.716856	-0.000203
1204	1.1970e+02	-7.9538	-42.127511	0.000486	4.864631	1.648182	-0.000195
1205	1.1980e+02	-7.9971	-42.357628	0.000578	5.776750	1.957216	-0.000231
1206	1.1990e+02	-8.0372	-42.616005	0.000649	6.486175	2.197576	-0.000260
1207	1.2000e+02	-8.0821	-42.813825	0.000497	4.965978	1.682519	-0.000199
1208	1.2010e+02	-8.1270	-43.052016	0.000598	5.979443	2.025890	-0.000239
1209	1.2020e+02	-8.1559	-43.257909	0.000517	5.168671	1.751193	-0.000207
1210	1.2030e+02	-8.2105	-43.447655	0.000476	4.763285	1.613845	-0.000191
1211	1.2039e+02	-8.2345	-43.718143	0.000679	6.790214	2.300587	-0.000272
1212	1.2049e+02	-8.2762	-43.899814	0.000456	4.560592	1.545170	-0.000183
1213	1.2059e+02	-8.3212	-44.117819	0.000547	5.472710	1.854204	-0.000219
1214	1.2069e+02	-8.3613	-44.364085	0.000618	6.182136	2.094564	-0.000248
1215	1.2079e+02	-8.3998	-44.561904	0.000497	4.965978	1.682519	-0.000199
1216	1.2089e+02	-8.4286	-44.796058	0.000588	5.878096	1.991553	-0.000235
1217	1.2099e+02	-8.4687	-44.997915	0.000507	5.067324	1.716856	-0.000203
1218	1.2109e+02	-8.5217	-45.276477	0.000699	6.992907	2.369261	-0.000280
1219	1.2119e+02	-8.5586	-45.474297	0.000497	4.965978	1.682519	-0.000199
1220	1.2129e+02	-8.6019	-45.684228	0.000527	5.270017	1.785530	-0.000211
1221	1.2139e+02	-8.6500	-45.906270	0.000557	5.574057	1.888542	-0.000223
1222	1.2149e+02	-8.6805	-46.116202	0.000527	5.270017	1.785530	-0.000211
1223	1.2159e+02	-8.7110	-46.346318	0.000578	5.776750	1.957216	-0.000231
1224	1.2169e+02	-8.7735	-46.580472	0.000588	5.878096	1.991553	-0.000235
1225	1.2179e+02	-8.7944	-46.778292	0.000497	4.965978	1.682519	-0.000199
1226	1.2189e+02	-8.8297	-47.000334	0.000557	5.574057	1.888542	-0.000223
1227	1.2199e+02	-8.8762	-47.238525	0.000598	5.979443	2.025890	-0.000239
1228	1.2209e+02	-8.9179	-47.444419	0.000517	5.168671	1.751193	-0.000207
1229	1.2219e+02	-8.9580	-47.654350	0.000527	5.270017	1.785530	-0.000211
1230	1.2229e+02	-8.9917	-47.896578	0.000608	6.080789	2.060227	-0.000243
1231	1.2239e+02	-9.0334	-48.078250	0.000456	4.560592	1.545170	-0.000183
1232	1.2248e+02	-9.0767	-48.328552	0.000628	6.283482	2.128901	-0.000252
1233	1.2258e+02	-9.1185	-48.566743	0.000598	5.979443	2.025890	-0.000239
1234	1.2268e+02	-9.1602	-48.808971	0.000608	6.080789	2.060227	-0.000243
1235	1.2278e+02	-9.2035	-48.974494	0.000416	4.155206	1.407822	-0.000166
1236	1.2288e+02	-9.2388	-49.204610	0.000578	5.776750	1.957216	-0.000231
1237	1.2298e+02	-9.2773	-49.450876	0.000618	6.182136	2.094564	-0.000248
1238	1.2308e+02	-9.3190	-49.596213	0.000365	3.648473	1.236136	-0.000146
1239	1.2318e+02	-9.3591	-49.890923	0.000740	7.398293	2.506610	-0.000296
1240	1.2328e+02	-9.4008	-50.108929	0.000547	5.472710	1.854204	-0.000219
1241	1.2338e+02	-9.4473	-50.278488	0.000426	4.256552	1.442159	-0.000170
1242	1.2348e+02	-9.4762	-50.528791	0.000628	6.283482	2.128901	-0.000252
1243	1.2358e+02	-9.5131	-50.734685	0.000517	5.168671	1.751193	-0.000207
1244	1.2368e+02	-9.5436	-50.916356	0.000456	4.560592	1.545170	-0.000183
1245	1.2378e+02	-9.5901	-51.166658	0.000628	6.283482	2.128901	-0.000252
1246	1.2388e+02	-9.6446	-51.384664	0.000547	5.472710	1.854204	-0.000219
1247	1.2398e+02	-9.6719	-51.590558	0.000517	5.168671	1.751193	-0.000207
1248	1.2408e+02	-9.7056	-51.780303	0.000476	4.763285	1.613845	-0.000191
1249	1.2418e+02	-9.7650	-51.990234	0.000527	5.270017	1.785530	-0.000211
1250	1.2428e+02	-9.7938	-52.208239	0.000547	5.472710	1.854204	-0.000219
1251	1.2438e+02	-9.8243	-52.422208	0.000537	5.371364	1.819867	-0.000215
1252	1.2447e+02	-9.8708	-52.624064	0.000507	5.067324	1.716856	-0.000203
1253	1.2457e+02	-9.9174	-52.870330	0.000618	6.182136	2.094564	-0.000248
1254	1.2467e+02	-9.9543	-53.076224	0.000517	5.168671	1.751193	-0.000207
1255	1.2477e+02	-9.9863	-53.310377	0.000588	5.878096	1.991553	-0.000235
1256	1.2487e+02	-10.0265	-53.488011	0.000446	4.459245	1.510833	-0.000179
1257	1.2497e+02	-10.0698	-53.693905	0.000517	5.168671	1.751193	-0.000207
1258	1.2507e+02	-10.0938	-53.952282	0.000649	6.486175	2.197576	-0.000260
1259	1.2517e+02	-10.1452	-54.142027	0.000476	4.763285	1.613845	-0.000191
1260	1.2527e+02	-10.1933	-54.343884	0.000507	5.067324	1.716856	-0.000203
1261	1.2537e+02	-10.2334	-54.557852	0.000537	5.371364	1.819867	-0.000215
1262	1.2547e+02	-10.2655	-54.796043	0.000598	5.979443	2.025890	-0.000239
1263	1.2557e+02	-10.3136	-54.993863	0.000497	4.965978	1.682519	-0.000199
1264	1.2567e+02	-10.3553	-55.207831	0.000537	5.371364	1.819867	-0.000215
1265	1.2577e+02	-10.3874	-55.413725	0.000517	5.168671	1.751193	-0.000207
1266	1.2587e+02	-10.4323	-55.603471	0.000476	4.763285	1.613845	-0.000191
1267	1.2597e+02	-10.4692	-55.801290	0.000497	4.965978	1.682519	-0.000199
1268	1.2607e+02	-10.5125	-56.039481	0.000598	5.979443	2.025890	-0.000239
1269	1.2617e+02	-10.5559	-56.285746	0.000618	6.182136	2.094564	-0.000248
1270	1.2627e+02	-10.5927	-56.459343	0.000436	4.357899	1.476496	-0.000174
1271	1.2636e+02	-10.6361	-56.669274	0.000527	5.270017	1.785530	-0.000211
1272	1.2646e+02	-10.6665	-56.846908	0.000446	4.459245	1.510833	-0.000179
1273	1.2656e+02	-10.7083	-57.117396	0.000679	6.790214	2.300587	-0.000272
1274	1.2666e+02	-10.7452	-57.355587	0.000598	5.979443	2.025890	-0.000239
1275	1.2676e+02	-10.7869	-57.513036	0.000395	3.952513	1.339148	-0.000158
1276	1.2686e+02	-10.8270	-57.727004	0.000537	5.371364	1.819867	-0.000215
1277	1.2696e+02	-10.8591	-57.949046	0.000557	5.574057	1.888542	-0.000223
1278	1.2706e+02	-10.9120	-58.114569	0.000416	4.155206	1.407822	-0.000166
1279	1.2716e+02	-10.9553	-58.360834	0.000618	6.182136	2.094564	-0.000248
1280	1.2726e+02	-10.9874	-58.542505	0.000456	4.560592	1.545170	-0.000183
1281	1.2736e+02	-11.0323	-58.760511	0.000547	5.472710	1.854204	-0.000219
1282	1.2746e+02	-11.0676	-58.946219	0.000466	4.661938	1.579507	-0.000187
1283	1.2756e+02	-11.1109	-59.172299	0.000568	5.675403	1.922879	-0.000227
1284	1.2766e+02	-11.1558	-59.390304	0.000547	5.472710	1.854204	-0.000219
1285	1.2776e+02	-11.1927	-59.563901	0.000436	4.357899	1.476496	-0.000174
1286	1.2786e+02	-11.2280	-59.794017	0.000578	5.776750	1.957216	-0.000231
1287	1.2796e+02	-11.2633	-59.999911	0.000517	5.168671	1.751193	-0.000207
1288	1.2806e+02	-11.3066	-60.173508	0.000436	4.357899	1.476496	-0.000174
1289	1.2816e+02	-11.3564	-60.395551	0.000557	5.574057	1.888542	-0.000223
1290	1.2826e+02	-11.3820	-60.573185	0.000446	4.459245	1.510833	-0.000179
1291	1.2835e+02	-11.4302	-60.775041	0.000507	5.067324	1.716856	-0.000203
1292	1.2845e+02	-11.4558	-61.057641	0.000709	7.094254	2.403598	-0.000284
1293	1.2855e+02	-11.5200	-61.198941	0.000355	3.547127	1.201799	-0.000142
1294	1.2865e+02	-11.5489	-61.404835	0.000517	5.168671	1.751193	-0.000207
1295	1.2875e+02	-11.5906	-61.586506	0.000456	4.560592	1.545170	-0.000183
1296	1.2885e+02	-11.6243	-61.792400	0.000517	5.168671	1.751193	-0.000207
1297	1.2895e+02	-11.6628	-62.010405	0.000547	5.472710	1.854204	-0.000219
1298	1.2905e+02	-11.7029	-62.208225	0.000497	4.965978	1.682519	-0.000199
1299	1.2915e+02	-11.7478	-62.418156	0.000527	5.270017	1.785530	-0.000211
1300	1.2925e+02	-11.7911	-62.571567	0.000385	3.851166	1.304810	-0.000154
1301	1.2935e+02	-11.8248	-62.821869	0.000628	6.283482	2.128901	-0.000252
1302	1.2945e+02	-11.8681	-63.051986	0.000578	5.776750	1.957216	-0.000231
1303	1.2955e+02	-11.9082	-63.201360	0.000375	3.749820	1.270473	-0.000150
1304	1.2965e+02	-11.9355	-63.387068	0.000466	4.661938	1.579507	-0.000187
1305	1.2975e+02	-11.9900	-63.584888	0.000497	4.965978	1.682519	-0.000199
1306	1.2985e+02	-12.0317	-63.770596	0.000466	4.661938	1.579507	-0.000187
1307	1.2995e+02	-12.0606	-63.972453	0.000507	5.067324	1.716856	-0.000203
1308	1.3005e+02	-12.1023	-64.206607	0.000588	5.878096	1.991553	-0.000235
1309	1.3015e+02	-12.1473	-64.412501	0.000517	5.168671	1.751193	-0.000207
1310	1.3025e+02	-12.1890	-64.582060	0.000426	4.256552	1.442159	-0.000170
1311	1.3034e+02	-12.2243	-64.771806	0.000476	4.763285	1.613845	-0.000191
1312	1.3044e+02	-12.2644	-64.993848	0.000557	5.574057	1.888542	-0.000223
1313	1.3054e+02	-12.3061	-65.155334	0.000405	4.053859	1.373485	-0.000162
1314	1.3064e+02	-12.3478	-65.421785	0.000669	6.688868	2.266250	-0.000268
1315	1.3074e+02	-12.3847	-65.575196	0.000385	3.851166	1.304810	-0.000154
1316	1.3084e+02	-12.4264	-65.801275	0.000568	5.675403	1.922879	-0.000227
1317	1.3094e+02	-12.4665	-65.966798	0.000416	4.155206	1.407822	-0.000166
1318	1.3104e+02	-12.5002	-66.196915	0.000578	5.776750	1.957216	-0.000231
1319	1.3114e+02	-12.5451	-66.370512	0.000436	4.357899	1.476496	-0.000174
1320	1.3124e+02	-12.5884	-66.552183	0.000456	4.560592	1.545170	-0.000183
1321	1.3134e+02	-12.6173	-66.794411	0.000608	6.080789	2.060227	-0.000243
1322	1.3144e+02	-12.6670	-66.988193	0.000486	4.864631	1.648182	-0.000195
1323	1.3154e+02	-12.7023	-67.165827	0.000446	4.459245	1.510833	-0.000179
1324	1.3164e+02	-12.7408	-67.375758	0.000527	5.270017	1.785530	-0.000211
1325	1.3174e+02	-12.7761	-67.537244	0.000405	4.053859	1.373485	-0.000162
1326	1.3184e+02	-12.8258	-67.747175	0.000527	5.270017	1.785530	-0.000211
1327	1.3194e+02	-12.8659	-67.953069	0.000517	5.168671	1.751193	-0.000207
1328	1.3204e+02	-12.9028	-68.171074	0.000547	5.472710	1.854204	-0.000219
1329	1.3214e+02	-12.9349	-68.340634	0.000426	4.256552	1.442159	-0.000170
1330	1.3224e+02	-12.9847	-68.530379	0.000476	4.763285	1.613845	-0.000191
1331	1.3234e+02	-13.0135	-68.752422	0.000557	5.574057	1.888542	-0.000223
1332	1.3243e+02	-13.0472	-68.913907	0.000405	4.053859	1.373485	-0.000162
1333	1.3253e+02	-13.0970	-69.127875	0.000537	5.371364	1.819867	-0.000215
1334	1.3263e+02	-13.1322	-69.317621	0.000476	4.763285	1.613845	-0.000191
1335	1.3273e+02	-13.1788	-69.547737	0.000578	5.776750	1.957216	-0.000231
1336	1.3283e+02	-13.2093	-69.737483	0.000476	4.763285	1.613845	-0.000191
1337	1.3293e+02	-13.2702	-69.919154	0.000456	4.560592	1.545170	-0.000183
1338	1.3303e+02	-13.2975	-70.112936	0.000486	4.864631	1.648182	-0.000195
1339	1.3313e+02	-13.3376	-70.286533	0.000436	4.357899	1.476496	-0.000174
1340	1.3323e+02	-13.3777	-70.520687	0.000588	5.878096	1.991553	-0.000235
1341	1.3333e+02	-13.4162	-70.726581	0.000517	5.168671	1.751193	-0.000207
1342	1.3343e+02	-13.4499	-70.879992	0.000385	3.851166	1.304810	-0.000154
1343	1.3353e+02	-13.5092	-71.130295	0.000628	6.283482	2.128901	-0.000252
1344	1.3363e+02	-13.5381	-71.267557	0.000345	3.445780	1.167462	-0.000138
1345	1.3373e+02	-13.5734	-71.457303	0.000476	4.763285	1.613845	-0.000191
1346	1.3383e+02	-13.6103	-71.651085	0.000486	4.864631	1.648182	-0.000195
1347	1.3393e+02	-13.6729	-71.905425	0.000638	6.384829	2.163238	-0.000256
1348	1.3403e+02	-13.6985	-72.103244	0.000497	4.965978	1.682519	-0.000199
1349	1.3413e+02	-13.7403	-72.268767	0.000416	4.155206	1.407822	-0.000166
1350	1.3423e+02	-13.7755	-72.414104	0.000365	3.648473	1.236136	-0.000146
1351	1.3432e+02	-13.8221	-72.615961	0.000507	5.067324	1.716856	-0.000203
1352	1.3442e+02	-13.8509	-72.870300	0.000638	6.384829	2.163238	-0.000256
1353	1.3452e+02	-13.9007	-73.043897	0.000436	4.357899	1.476496	-0.000174
1354	1.3462e+02	-13.9408	-73.241717	0.000497	4.965978	1.682519	-0.000199
1355	1.3472e+02	-13.9793	-73.431462	0.000476	4.763285	1.613845	-0.000191
1356	1.3482e+02	-14.0114	-73.592947	0.000405	4.053859	1.373485	-0.000162
1357	1.3492e+02	-14.0595	-73.798841	0.000517	5.168671	1.751193	-0.000207
1358	1.3502e+02	-14.0980	-74.004735	0.000517	5.168671	1.751193	-0.000207
1359	1.3512e+02	-14.1333	-74.210629	0.000517	5.168671	1.751193	-0.000207
1360	1.3522e+02	-14.1750	-74.432672	0.000557	5.574057	1.888542	-0.000223
1361	1.3532e+02	-14.2151	-74.638566	0.000517	5.168671	1.751193	-0.000207
1362	1.3542e+02	-14.2520	-74.840422	0.000507	5.067324	1.716856	-0.000203
1363	1.3552e+02	-14.2953	-75.014019	0.000436	4.357899	1.476496	-0.000174
1364	1.3562e+02	-14.3306	-75.215876	0.000507	5.067324	1.716856	-0.000203
1365	1.3572e+02	-14.3787	-75.429844	0.000537	5.371364	1.819867	-0.000215
1366	1.3582e+02	-14.4092	-75.651887	0.000557	5.574057	1.888542	-0.000223
1367	1.3592e+02	-14.4525	-75.833558	0.000456	4.560592	1.545170	-0.000183
1368	1.3602e+02	-14.4894	-76.075786	0.000608	6.080789	2.060227	-0.000243
1369	1.3612e+02	-14.5360	-76.261494	0.000466	4.661938	1.579507	-0.000187
1370	1.3622e+02	-14.5761	-76.451239	0.000476	4.763285	1.613845	-0.000191
1371	1.3631e+02	-14.6130	-76.632911	0.000456	4.560592	1.545170	-0.000183
1372	1.3641e+02	-14.6579	-76.867064	0.000588	5.878096	1.991553	-0.000235
1373	1.3651e+02	-14.6932	-77.032587	0.000416	4.155206	1.407822	-0.000166
1374	1.3661e+02	-14.7285	-77.278852	0.000618	6.182136	2.094564	-0.000248
1375	1.3671e+02	-14.7814	-77.432263	0.000385	3.851166	1.304810	-0.000154
1376	1.3681e+02	-14.8103	-77.634120	0.000507	5.067324	1.716856	-0.000203
1377	1.3691e+02	-14.8536	-77.835977	0.000507	5.067324	1.716856	-0.000203
1378	1.3701e+02	-14.9001	-78.082242	0.000618	6.182136	2.094564	-0.000248
1379	1.3711e+02	-14.9290	-78.276025	0.000486	4.864631	1.648182	-0.000195
1380	1.3721e+02	-14.9771	-78.477882	0.000507	5.067324	1.716856	-0.000203
1381	1.3731e+02	-15.0076	-78.699924	0.000557	5.574057	1.888542	-0.000223
1382	1.3741e+02	-15.0589	-78.913892	0.000537	5.371364	1.819867	-0.000215
1383	1.3751e+02	-15.0974	-79.091526	0.000446	4.459245	1.510833	-0.000179
1384	1.3761e+02	-15.1263	-79.325680	0.000588	5.878096	1.991553	-0.000235
1385	1.3771e+02	-15.1664	-79.555797	0.000578	5.776750	1.957216	-0.000231
1386	1.3781e+02	-15.2226	-79.713245	0.000395	3.952513	1.339148	-0.000158
1387	1.3791e+02	-15.2402	-79.898953	0.000466	4.661938	1.579507	-0.000187
1388	1.3801e+02	-15.2932	-80.137144	0.000598	5.979443	2.025890	-0.000239
1389	1.3811e+02	-15.3268	-80.375335	0.000598	5.979443	2.025890	-0.000239
1390	1.3821e+02	-15.3734	-80.573155	0.000497	4.965978	1.682519	-0.000199
1391	1.3831e+02	-15.4151	-80.738678	0.000416	4.155206	1.407822	-0.000166
1392	1.3840e+02	-15.4504	-80.997054	0.000649	6.486175	2.197576	-0.000260
1393	1.3850e+02	-15.4873	-81.174688	0.000446	4.459245	1.510833	-0.000179
1394	1.3860e+02	-15.5290	-81.384619	0.000527	5.270017	1.785530	-0.000211
1395	1.3870e+02	-15.5755	-81.634922	0.000628	6.283482	2.128901	-0.000252
1396	1.3880e+02	-15.6124	-81.840816	0.000517	5.168671	1.751193	-0.000207
1397	1.3890e+02	-15.6445	-82.058821	0.000547	5.472710	1.854204	-0.000219
1398	1.3900e+02	-15.6990	-82.276826	0.000547	5.472710	1.854204	-0.000219
1399	1.3910e+02	-15.7263	-82.510980	0.000588	5.878096	1.991553	-0.000235
1400	1.3920e+02	-15.7696	-82.696688	0.000466	4.661938	1.579507	-0.000187
1401	1.3930e+02	-15.8081	-82.890471	0.000486	4.864631	1.648182	-0.000195
1402	1.3940e+02	-15.8562	-83.144811	0.000638	6.384829	2.163238	-0.000256
1403	1.3950e+02	-15.8931	-83.366853	0.000557	5.574057	1.888542	-0.000223
1404	1.3960e+02	-15.9332	-83.572747	0.000517	5.168671	1.751193	-0.000207
1405	1.3970e+02	-15.9685	-83.786715	0.000537	5.371364	1.819867	-0.000215
1406	1.3980e+02	-16.0102	-84.004720	0.000547	5.472710	1.854204	-0.000219
1407	1.3990e+02	-16.0503	-84.194466	0.000476	4.763285	1.613845	-0.000191
1408	1.4000e+02	-16.0872	-84.432657	0.000598	5.979443	2.025890	-0.000239
1409	1.4010e+02	-16.1290	-84.642588	0.000527	5.270017	1.785530	-0.000211
1410	1.4020e+02	-16.1755	-84.884816	0.000608	6.080789	2.060227	-0.000243
1411	1.4029e+02	-16.2172	-85.066487	0.000456	4.560592	1.545170	-0.000183
1412	1.4039e+02	-16.2445	-85.304678	0.000598	5.979443	2.025890	-0.000239
1413	1.4049e+02	-16.2894	-85.530758	0.000568	5.675403	1.922879	-0.000227
1414	1.4059e+02	-16.3295	-85.756837	0.000568	5.675403	1.922879	-0.000227
1415	1.4069e+02	-16.3616	-85.978880	0.000557	5.574057	1.888542	-0.000223
1416	1.4079e+02	-16.4177	-86.192848	0.000537	5.371364	1.819867	-0.000215
1417	1.4089e+02	-16.4482	-86.427002	0.000588	5.878096	1.991553	-0.000235
1418	1.4099e+02	-16.4819	-86.632896	0.000517	5.168671	1.751193	-0.000207
1419	1.4109e+02	-16.5268	-86.830715	0.000497	4.965978	1.682519	-0.000199
1420	1.4119e+02	-16.5717	-87.068906	0.000598	5.979443	2.025890	-0.000239
1421	1.4129e+02	-16.6038	-87.319209	0.000628	6.283482	2.128901	-0.000252
1422	1.4139e+02	-16.6519	-87.561437	0.000608	6.080789	2.060227	-0.000243
1423	1.4149e+02	-16.6840	-87.726960	0.000416	4.155206	1.407822	-0.000166
1424	1.4159e+02	-16.7225	-87.944965	0.000547	5.472710	1.854204	-0.000219
1425	1.4169e+02	-16.7658	-88.191230	0.000618	6.182136	2.094564	-0.000248
1426	1.4179e+02	-16.8092	-88.393087	0.000507	5.067324	1.716856	-0.000203
1427	1.4189e+02	-16.8396	-88.647427	0.000638	6.384829	2.163238	-0.000256
1428	1.4199e+02	-16.8862	-88.873506	0.000568	5.675403	1.922879	-0.000227
1429	1.4209e+02	-16.9198	-89.075363	0.000507	5.067324	1.716856	-0.000203
1430	1.4219e+02	-16.9632	-89.349888	0.000689	6.891561	2.334924	-0.000276
1431	1.4228e+02	-17.0145	-89.547708	0.000497	4.965978	1.682519	-0.000199
1432	1.4238e+02	-17.0418	-89.806084	0.000649	6.486175	2.197576	-0.000260
1433	1.4248e+02	-17.0803	-90.024090	0.000547	5.472710	1.854204	-0.000219
1434	1.4258e+02	-17.1220	-90.254207	0.000578	5.776750	1.957216	-0.000231
1435	1.4268e+02	-17.1653	-90.496435	0.000608	6.080789	2.060227	-0.000243
1436	1.4278e+02	-17.2022	-90.734626	0.000598	5.979443	2.025890	-0.000239
1437	1.4288e+02	-17.2407	-90.952631	0.000547	5.472710	1.854204	-0.000219
1438	1.4298e+02	-17.2888	-91.158525	0.000517	5.168671	1.751193	-0.000207
1439	1.4308e+02	-17.3241	-91.437087	0.000699	6.992907	2.369261	-0.000280
1440	1.4318e+02	-17.3706	-91.630870	0.000486	4.864631	1.648182	-0.000195
1441	1.4328e+02	-17.4075	-91.889247	0.000649	6.486175	2.197576	-0.000260
1442	1.4338e+02	-17.4508	-92.107252	0.000547	5.472710	1.854204	-0.000219
1443	1.4348e+02	-17.4797	-92.365629	0.000649	6.486175	2.197576	-0.000260
1444	1.4358e+02	-17.5214	-92.579597	0.000537	5.371364	1.819867	-0.000215
1445	1.4368e+02	-17.5663	-92.817788	0.000598	5.979443	2.025890	-0.000239
1446	1.4378e+02	-17.5888	-93.068090	0.000628	6.283482	2.128901	-0.000252
1447	1.4388e+02	-17.6401	-93.282058	0.000537	5.371364	1.819867	-0.000215
1448	1.4398e+02	-17.6819	-93.524287	0.000608	6.080789	2.060227	-0.000243
1449	1.4408e+02	-17.7204	-93.790737	0.000669	6.688868	2.266250	-0.000268
1450	1.4418e+02	-17.7653	-93.996631	0.000517	5.168671	1.751193	-0.000207
1451	1.4428e+02	-17.8022	-94.226748	0.000578	5.776750	1.957216	-0.000231
1452	1.4437e+02	-17.8519	-94.456865	0.000578	5.776750	1.957216	-0.000231
1453	1.4447e+02	-17.8808	-94.699093	0.000608	6.080789	2.060227	-0.000243
1454	1.4457e+02	-17.9177	-94.925173	0.000568	5.675403	1.922879	-0.000227
1455	1.4467e+02	-17.9562	-95.203735	0.000699	6.992907	2.369261	-0.000280
1456	1.4477e+02	-17.9979	-95.462112	0.000649	6.486175	2.197576	-0.000260
1457	1.4487e+02	-18.0396	-95.688191	0.000568	5.675403	1.922879	-0.000227
1458	1.4497e+02	-18.0877	-95.930419	0.000608	6.080789	2.060227	-0.000243
1459	1.4507e+02	-18.1182	-96.176685	0.000618	6.182136	2.094564	-0.000248
1460	1.4517e+02	-18.1583	-96.410839	0.000588	5.878096	1.991553	-0.000235
1461	1.4527e+02	-18.2000	-96.653067	0.000608	6.080789	2.060227	-0.000243
1462	1.4537e+02	-18.2417	-96.947778	0.000740	7.398293	2.506610	-0.000296
1463	1.4547e+02	-18.2866	-97.141560	0.000486	4.864631	1.648182	-0.000195
1464	1.4557e+02	-18.3171	-97.424160	0.000709	7.094254	2.403598	-0.000284
1465	1.4567e+02	-18.3701	-97.654276	0.000578	5.776750	1.957216	-0.000231
1466	1.4577e+02	-18.4006	-97.896505	0.000608	6.080789	2.060227	-0.000243
1467	1.4587e+02	-18.4439	-98.130658	0.000588	5.878096	1.991553	-0.000235
1468	1.4597e+02	-18.4888	-98.376924	0.000618	6.182136	2.094564	-0.000248
1469	1.4607e+02	-18.5145	-98.667597	0.000730	7.296947	2.472273	-0.000292
1470	1.4617e+02	-18.5546	-98.913863	0.000618	6.182136	2.094564	-0.000248
1471	1.4626e+02	-18.6059	-99.176277	0.000659	6.587521	2.231913	-0.000264
1472	1.4636e+02	-18.6428	-99.402356	0.000568	5.675403	1.922879	-0.000227
1473	1.4646e+02	-18.6797	-99.656696	0.000638	6.384829	2.163238	-0.000256
1474	1.4656e+02	-18.7230	-99.963518	0.000770	7.702333	2.609621	-0.000308
1475	1.4666e+02	-18.7599	-100.185560	0.000557	5.574057	1.888542	-0.000223
1476	1.4676e+02	-18.8000	-100.443937	0.000649	6.486175	2.197576	-0.000260
1477	1.4686e+02	-18.8417	-100.633683	0.000476	4.763285	1.613845	-0.000191
1478	1.4696e+02	-18.8722	-100.912245	0.000699	6.992907	2.369261	-0.000280
1479	1.4706e+02	-18.9251	-101.202919	0.000730	7.296947	2.472273	-0.000292
1480	1.4716e+02	-18.9556	-101.497630	0.000740	7.398293	2.506610	-0.000296
1481	1.4726e+02	-19.0037	-101.727746	0.000578	5.776750	1.957216	-0.000231
1482	1.4736e+02	-19.0294	-101.965937	0.000598	5.979443	2.025890	-0.000239
1483	1.4746e+02	-19.0759	-102.228351	0.000659	6.587521	2.231913	-0.000264
1484	1.4756e+02	-19.1128	-102.494802	0.000669	6.688868	2.266250	-0.000268
1485	1.4766e+02	-19.1465	-102.773364	0.000699	6.992907	2.369261	-0.000280
1486	1.4776e+02	-19.1979	-102.999444	0.000568	5.675403	1.922879	-0.000227
1487	1.4786e+02	-19.2396	-103.286081	0.000720	7.195600	2.437935	-0.000288
1488	1.4796e+02	-19.2877	-103.588866	0.000760	7.600986	2.575284	-0.000304
1489	1.4806e+02	-19.3102	-103.843205	0.000638	6.384829	2.163238	-0.000256
1490	1.4816e+02	-19.3535	-104.113694	0.000679	6.790214	2.300587	-0.000272
1491	1.4825e+02	-19.4016	-104.347847	0.000588	5.878096	1.991553	-0.000235
1492	1.4835e+02	-19.4449	-104.618336	0.000679	6.790214	2.300587	-0.000272
1493	1.4845e+02	-19.4850	-104.892861	0.000689	6.891561	2.334924	-0.000276
1494	1.4855e+02	-19.5203	-105.167386	0.000689	6.891561	2.334924	-0.000276
1495	1.4865e+02	-19.5668	-105.474208	0.000770	7.702333	2.609621	-0.000308
1496	1.4875e+02	-19.5909	-105.732585	0.000649	6.486175	2.197576	-0.000260
1497	1.4885e+02	-19.6342	-105.990962	0.000649	6.486175	2.197576	-0.000260
1498	1.4895e+02	-19.6647	-106.241264	0.000628	6.283482	2.128901	-0.000252
1499	1.4905e+02	-19.7064	-106.588458	0.000872	8.715798	2.952992	-0.000349
1500	1.4915e+02	-19.7561	-106.854909	0.000669	6.688868	2.266250	-0.000268
1501	1.4925e+02	-19.7962	-107.125397	0.000679	6.790214	2.300587	-0.000272
1502	1.4935e+02	-19.8299	-107.367625	0.000608	6.080789	2.060227	-0.000243
1503	1.4945e+02	-19.8780	-107.706744	0.000851	8.513105	2.884318	-0.000341
1504	1.4955e+02	-19.9149	-107.969158	0.000659	6.587521	2.231913	-0.000264
1505	1.4965e+02	-19.9583	-108.235609	0.000669	6.688868	2.266250	-0.000268
1506	1.4975e+02	-19.9936	-108.546469	0.000780	7.803679	2.643958	-0.000312
1507	1.4985e+02	-20.0288	-108.825031	0.000699	6.992907	2.369261	-0.000280
1508	1.4995e+02	-20.0016	-108.853291	-0.000071	-0.709425	-0.240360	-0.000028
1509	1.5005e+02	-19.9534	-108.812920	0.000101	1.013465	0.343371	0.000041
1510	1.5015e+02	-19.9101	-108.800808	0.000030	0.304039	0.103011	0.000012
1511	1.5025e+02	-19.8700	-108.760437	0.000101	1.013465	0.343371	0.000041
1512	1.5034e+02	-19.8283	-108.732177	0.000071	0.709425	0.240360	0.000028
1513	1.5044e+02	-19.7962	-108.695843	0.000091	0.912118	0.309034	0.000037
1514	1.5054e+02	-19.7497	-108.582803	0.000284	2.837702	0.961439	0.000114
1515	1.5064e+02	-19.7112	-108.534357	0.000122	1.216158	0.412045	0.000049
1516	1.5074e+02	-19.6695	-108.477837	0.000142	1.418851	0.480720	0.000057
1517	1.5084e+02	-19.6342	-108.376909	0.000253	2.533662	0.858428	0.000101
1518	1.5094e+02	-19.5925	-108.316352	0.000152	1.520197	0.515057	0.000061
1519	1.5104e+02	-19.5572	-108.235609	0.000203	2.026930	0.686742	0.000081
1520	1.5114e+02	-19.5203	-108.154866	0.000203	2.026930	0.686742	0.000081
1521	1.5124e+02	-19.4770	-108.102384	0.000132	1.317504	0.446383	0.000053
1522	1.5134e+02	-19.4385	-107.993381	0.000274	2.736355	0.927102	0.000110
1523	1.5144e+02	-19.3968	-107.864193	0.000324	3.243087	1.098788	0.000130
1524	1.5154e+02	-19.3535	-107.775376	0.000223	2.229623	0.755417	0.000089
1525	1.5164e+02	-19.3198	-107.751153	0.000061	0.608079	0.206023	0.000024
1526	1.5174e+02	-19.2765	-107.617927	0.000334	3.344434	1.133125	0.000134
1527	1.5184e+02	-19.2267	-107.504888	0.000284	2.837702	0.961439	0.000114
1528	1.5194e+02	-19.1995	-107.395885	0.000274	2.736355	0.927102	0.000110
1529	1.5204e+02	-19.1626	-107.303031	0.000233	2.330969	0.789754	0.000093
1530	1.5214e+02	-19.1128	-107.210177	0.000233	2.330969	0.789754	0.000093
1531	1.5224e+02	-19.0711	-107.129434	0.000203	2.026930	0.686742	0.000081
1532	1.5233e+02	-19.0406	-107.016394	0.000284	2.837702	0.961439	0.000114
1533	1.5243e+02	-18.9957	-106.883169	0.000334	3.344434	1.133125	0.000134
1534	1.5253e+02	-18.9540	-106.794352	0.000223	2.229623	0.755417	0.000089
1535	1.5263e+02	-18.9187	-106.669200	0.000314	3.141741	1.064451	0.000126
1536	1.5273e+02	-18.8690	-106.535975	0.000334	3.344434	1.133125	0.000134
1537	1.5283e+02	-18.8401	-106.435047	0.000253	2.533662	0.858428	0.000101
1538	1.5293e+02	-18.7920	-106.285673	0.000375	3.749820	1.270473	0.000150
1539	1.5303e+02	-18.7567	-106.204930	0.000203	2.026930	0.686742	0.000081
1540	1.5313e+02	-18.7166	-106.091890	0.000284	2.837702	0.961439	0.000114
1541	1.5323e+02	-18.6797	-105.962702	0.000324	3.243087	1.098788	0.000130
1542	1.5333e+02	-18.6412	-105.833513	0.000324	3.243087	1.098788	0.000130
1543	1.5343e+02	-18.6107	-105.720474	0.000284	2.837702	0.961439	0.000114
1544	1.5353e+02	-18.5594	-105.623582	0.000243	2.432316	0.824091	0.000097
1545	1.5363e+02	-18.5241	-105.502468	0.000304	3.040395	1.030114	0.000122
1546	1.5373e+02	-18.4824	-105.340983	0.000405	4.053859	1.373485	0.000162
1547	1.5383e+02	-18.4326	-105.191609	0.000375	3.749820	1.270473	0.000150
1548	1.5393e+02	-18.4038	-105.090680	0.000253	2.533662	0.858428	0.000101
1549	1.5403e+02	-18.3524	-104.977641	0.000284	2.837702	0.961439	0.000114
1550	1.5413e+02	-18.3171	-104.876712	0.000253	2.533662	0.858428	0.000101
1551	1.5422e+02	-18.2770	-104.751561	0.000314	3.141741	1.064451	0.000126
1552	1.5432e+02	-18.2498	-104.638521	0.000284	2.837702	0.961439	0.000114
1553	1.5442e+02	-18.2000	-104.472999	0.000416	4.155206	1.407822	0.000166
1554	1.5452e+02	-18.1551	-104.351885	0.000304	3.040395	1.030114	0.000122
1555	1.5462e+02	-18.1198	-104.214622	0.000345	3.445780	1.167462	0.000138
1556	1.5472e+02	-18.0829	-104.101582	0.000284	2.837702	0.961439	0.000114
1557	1.5482e+02	-18.0444	-103.960282	0.000355	3.547127	1.201799	0.000142
1558	1.5492e+02	-17.9947	-103.806871	0.000385	3.851166	1.304810	0.000154
1559	1.5502e+02	-17.9546	-103.709980	0.000243	2.432316	0.824091	0.000097
1560	1.5512e+02	-17.9193	-103.568680	0.000355	3.547127	1.201799	0.000142
1561	1.5522e+02	-17.8792	-103.447566	0.000304	3.040395	1.030114	0.000122
1562	1.5532e+02	-17.8503	-103.302229	0.000365	3.648473	1.236136	0.000146
1563	1.5542e+02	-17.8070	-103.197264	0.000264	2.635009	0.892765	0.000105
1564	1.5552e+02	-17.7621	-103.023667	0.000436	4.357899	1.476496	0.000174
1565	1.5562e+02	-17.7380	-102.906590	0.000294	2.939048	0.995776	0.000118
1566	1.5572e+02	-17.6770	-102.777402	0.000324	3.243087	1.098788	0.000130
1567	1.5582e+02	-17.6401	-102.615916	0.000405	4.053859	1.373485	0.000162
1568	1.5592e+02	-17.6081	-102.514988	0.000253	2.533662	0.858428	0.000101
1569	1.5602e+02	-17.5551	-102.397911	0.000294	2.939048	0.995776	0.000118
1570	1.5612e+02	-17.5262	-102.256611	0.000355	3.547127	1.201799	0.000142
1571	1.5622e+02	-17.4910	-102.131460	0.000314	3.141741	1.064451	0.000126
1572	1.5631e+02	-17.4380	-101.945752	0.000466	4.661938	1.579507	0.000187
1573	1.5641e+02	-17.4027	-101.885195	0.000152	1.520197	0.515057	0.000061
1574	1.5651e+02	-17.3626	-101.719672	0.000416	4.155206	1.407822	0.000166
1575	1.5661e+02	-17.3289	-101.562224	0.000395	3.952513	1.339148	0.000158
1576	1.5671e+02	-17.2760	-101.420924	0.000355	3.547127	1.201799	0.000142
1577	1.5681e+02	-17.2455	-101.275587	0.000365	3.648473	1.236136	0.000146
1578	1.5691e+02	-17.2086	-101.130250	0.000365	3.648473	1.236136	0.000146
1579	1.5701e+02	-17.1685	-101.001062	0.000324	3.243087	1.098788	0.000130
1580	1.5711e+02	-17.1332	-100.888022	0.000284	2.837702	0.961439	0.000114
1581	1.5721e+02	-17.0867	-100.754797	0.000334	3.344434	1.133125	0.000134
1582	1.5731e+02	-17.0466	-100.593311	0.000405	4.053859	1.373485	0.000162
1583	1.5741e+02	-17.0049	-100.423751	0.000426	4.256552	1.442159	0.000170
1584	1.5751e+02	-16.9583	-100.347046	0.000193	1.925583	0.652405	0.000077
1585	1.5761e+02	-16.9311	-100.129041	0.000547	5.472710	1.854204	0.000219
1586	1.5771e+02	-16.8765	-100.028112	0.000253	2.533662	0.858428	0.000101
1587	1.5781e+02	-16.8509	-99.878738	0.000375	3.749820	1.270473	0.000150
1588	1.5791e+02	-16.8011	-99.721290	0.000395	3.952513	1.339148	0.000158
1589	1.5801e+02	-16.7642	-99.551730	0.000426	4.256552	1.442159	0.000170
1590	1.5811e+02	-16.7305	-99.410430	0.000355	3.547127	1.201799	0.000142
1591	1.5821e+02	-16.6904	-99.341799	0.000172	1.722890	0.583731	0.000069
1592	1.5830e+02	-16.6503	-99.168202	0.000436	4.357899	1.476496	0.000174
1593	1.5840e+02	-16.6022	-99.002680	0.000416	4.155206	1.407822	0.000166
1594	1.5850e+02	-16.5605	-98.849269	0.000385	3.851166	1.304810	0.000154
1595	1.5860e+02	-16.5284	-98.695857	0.000385	3.851166	1.304810	0.000154
1596	1.5870e+02	-16.4835	-98.594929	0.000253	2.533662	0.858428	0.000101
1597	1.5880e+02	-16.4514	-98.465741	0.000324	3.243087	1.098788	0.000130
1598	1.5890e+02	-16.4065	-98.271958	0.000486	4.864631	1.648182	0.000195
1599	1.5900e+02	-16.3760	-98.118547	0.000385	3.851166	1.304810	0.000154
1600	1.5910e+02	-16.3279	-98.009544	0.000274	2.736355	0.927102	0.000110
1601	1.5920e+02	-16.2846	-97.860170	0.000375	3.749820	1.270473	0.000150
1602	1.5930e+02	-16.2461	-97.698685	0.000405	4.053859	1.373485	0.000162
1603	1.5940e+02	-16.2060	-97.545274	0.000385	3.851166	1.304810	0.000154
1604	1.5950e+02	-16.1610	-97.412048	0.000334	3.344434	1.133125	0.000134
1605	1.5960e+02	-16.1402	-97.242489	0.000426	4.256552	1.442159	0.000170
1606	1.5970e+02	-16.0808	-97.097152	0.000365	3.648473	1.236136	0.000146
1607	1.5980e+02	-16.0487	-96.939703	0.000395	3.952513	1.339148	0.000158
1608	1.5990e+02	-16.0151	-96.786292	0.000385	3.851166	1.304810	0.000154
1609	1.6000e+02	-15.9717	-96.673252	0.000284	2.837702	0.961439	0.000114
1610	1.6010e+02	-15.9332	-96.519841	0.000385	3.851166	1.304810	0.000154
1611	1.6019e+02	-15.8867	-96.326059	0.000486	4.864631	1.648182	0.000195
1612	1.6029e+02	-15.8338	-96.188796	0.000345	3.445780	1.167462	0.000138
1613	1.6039e+02	-15.8097	-96.035385	0.000385	3.851166	1.304810	0.000154
1614	1.6049e+02	-15.7632	-95.922345	0.000284	2.837702	0.961439	0.000114
1615	1.6059e+02	-15.7391	-95.748748	0.000436	4.357899	1.476496	0.000174
1616	1.6069e+02	-15.6926	-95.591300	0.000395	3.952513	1.339148	0.000158
1617	1.6079e+02	-15.6445	-95.437889	0.000385	3.851166	1.304810	0.000154
1618	1.6089e+02	-15.6060	-95.272366	0.000416	4.155206	1.407822	0.000166
1619	1.6099e+02	-15.5739	-95.090695	0.000456	4.560592	1.545170	0.000183
1620	1.6109e+02	-15.5370	-94.977655	0.000284	2.837702	0.961439	0.000114
1621	1.6119e+02	-15.4905	-94.804059	0.000436	4.357899	1.476496	0.000174
1622	1.6129e+02	-15.4504	-94.674870	0.000324	3.243087	1.098788	0.000130
1623	1.6139e+02	-15.4071	-94.509348	0.000416	4.155206	1.407822	0.000166
1624	1.6149e+02	-15.3702	-94.339788	0.000426	4.256552	1.442159	0.000170
1625	1.6159e+02	-15.3397	-94.214637	0.000314	3.141741	1.064451	0.000126
1626	1.6169e+02	-15.2932	-94.045077	0.000426	4.256552	1.442159	0.000170
1627	1.6179e+02	-15.2498	-93.928000	0.000294	2.939048	0.995776	0.000118
1628	1.6189e+02	-15.2097	-93.718069	0.000527	5.270017	1.785530	0.000211
1629	1.6199e+02	-15.1776	-93.568695	0.000375	3.749820	1.270473	0.000150
1630	1.6209e+02	-15.1311	-93.395098	0.000436	4.357899	1.476496	0.000174
1631	1.6219e+02	-15.0910	-93.257836	0.000345	3.445780	1.167462	0.000138
1632	1.6228e+02	-15.0573	-93.076164	0.000456	4.560592	1.545170	0.000183
1633	1.6238e+02	-15.0060	-92.930828	0.000365	3.648473	1.236136	0.000146
1634	1.6248e+02	-14.9755	-92.757231	0.000436	4.357899	1.476496	0.000174
1635	1.6258e+02	-14.9354	-92.583634	0.000436	4.357899	1.476496	0.000174
1636	1.6268e+02	-14.8889	-92.406000	0.000446	4.459245	1.510833	0.000179
1637	1.6278e+02	-14.8440	-92.268737	0.000345	3.445780	1.167462	0.000138
1638	1.6288e+02	-14.8151	-92.143586	0.000314	3.141741	1.064451	0.000126
1639	1.6298e+02	-14.7638	-91.986138	0.000395	3.952513	1.339148	0.000158
1640	1.6308e+02	-14.7317	-91.808504	0.000446	4.459245	1.510833	0.000179
1641	1.6318e+02	-14.6948	-91.614721	0.000486	4.864631	1.648182	0.000195
1642	1.6328e+02	-14.6531	-91.445162	0.000426	4.256552	1.442159	0.000170
1643	1.6338e+02	-14.6194	-91.299825	0.000365	3.648473	1.236136	0.000146
1644	1.6348e+02	-14.5712	-91.114116	0.000466	4.661938	1.579507	0.000187
1645	1.6358e+02	-14.5327	-90.948594	0.000416	4.155206	1.407822	0.000166
1646	1.6368e+02	-14.4942	-90.799220	0.000375	3.749820	1.270473	0.000150
1647	1.6378e+02	-14.4461	-90.661957	0.000345	3.445780	1.167462	0.000138
1648	1.6388e+02	-14.4204	-90.472212	0.000476	4.763285	1.613845	0.000191
1649	1.6398e+02	-14.3803	-90.359172	0.000284	2.837702	0.961439	0.000114
1650	1.6408e+02	-14.3322	-90.161352	0.000497	4.965978	1.682519	0.000199
1651	1.6418e+02	-14.2985	-89.963533	0.000497	4.965978	1.682519	0.000199
1652	1.6427e+02	-14.2584	-89.814159	0.000375	3.749820	1.270473	0.000150
1653	1.6437e+02	-14.2167	-89.644599	0.000426	4.256552	1.442159	0.000170
1654	1.6447e+02	-14.1734	-89.487151	0.000395	3.952513	1.339148	0.000158
1655	1.6457e+02	-14.1381	-89.285294	0.000507	5.067324	1.716856	0.000203
1656	1.6467e+02	-14.1028	-89.139957	0.000365	3.648473	1.236136	0.000146
1657	1.6477e+02	-14.0547	-88.962323	0.000446	4.459245	1.510833	0.000179
1658	1.6487e+02	-14.0146	-88.764503	0.000497	4.965978	1.682519	0.000199
1659	1.6497e+02	-13.9777	-88.611092	0.000385	3.851166	1.304810	0.000154
1660	1.6507e+02	-13.9392	-88.429421	0.000456	4.560592	1.545170	0.000183
1661	1.6517e+02	-13.8911	-88.332530	0.000243	2.432316	0.824091	0.000097
1662	1.6527e+02	-13.8558	-88.138747	0.000486	4.864631	1.648182	0.000195
1663	1.6537e+02	-13.8205	-87.981299	0.000395	3.952513	1.339148	0.000158
1664	1.6547e+02	-13.7723	-87.787517	0.000486	4.864631	1.648182	0.000195
1665	1.6557e+02	-13.7403	-87.654291	0.000334	3.344434	1.133125	0.000134
1666	1.6567e+02	-13.6969	-87.468583	0.000466	4.661938	1.579507	0.000187
1667	1.6577e+02	-13.6488	-87.299023	0.000426	4.256552	1.442159	0.000170
1668	1.6587e+02	-13.6199	-87.113315	0.000466	4.661938	1.579507	0.000187
1669	1.6597e+02	-13.5830	-86.996238	0.000294	2.939048	0.995776	0.000118
1670	1.6607e+02	-13.5381	-86.802456	0.000486	4.864631	1.648182	0.000195
1671	1.6616e+02	-13.4948	-86.592524	0.000527	5.270017	1.785530	0.000211
1672	1.6626e+02	-13.4675	-86.443150	0.000375	3.749820	1.270473	0.000150
1673	1.6636e+02	-13.4162	-86.261479	0.000456	4.560592	1.545170	0.000183
1674	1.6646e+02	-13.3777	-86.108068	0.000385	3.851166	1.304810	0.000154
1675	1.6656e+02	-13.3344	-85.930434	0.000446	4.459245	1.510833	0.000179
1676	1.6666e+02	-13.3007	-85.829506	0.000253	2.533662	0.858428	0.000101
1677	1.6676e+02	-13.2606	-85.607463	0.000557	5.574057	1.888542	0.000223
1678	1.6686e+02	-13.2157	-85.429829	0.000446	4.459245	1.510833	0.000179
1679	1.6696e+02	-13.1772	-85.280455	0.000375	3.749820	1.270473	0.000150
1680	1.6706e+02	-13.1371	-85.090710	0.000476	4.763285	1.613845	0.000191
1681	1.6716e+02	-13.0954	-84.929225	0.000405	4.053859	1.373485	0.000162
1682	1.6726e+02	-13.0617	-84.743516	0.000466	4.661938	1.579507	0.000187
1683	1.6736e+02	-13.0296	-84.565882	0.000446	4.459245	1.510833	0.000179
1684	1.6746e+02	-12.9815	-84.388248	0.000446	4.459245	1.510833	0.000179
1685	1.6756e+02	-12.9381	-84.222726	0.000416	4.155206	1.407822	0.000166
1686	1.6766e+02	-12.9093	-84.077389	0.000365	3.648473	1.236136	0.000146
1687	1.6776e+02	-12.8563	-83.875532	0.000507	5.067324	1.716856	0.000203
1688	1.6786e+02	-12.8258	-83.738269	0.000345	3.445780	1.167462	0.000138
1689	1.6796e+02	-12.7825	-83.552561	0.000466	4.661938	1.579507	0.000187
1690	1.6806e+02	-12.7424	-83.358779	0.000486	4.864631	1.648182	0.000195
1691	1.6816e+02	-12.7103	-83.217479	0.000355	3.547127	1.201799	0.000142
1692	1.6825e+02	-12.6510	-83.015622	0.000507	5.067324	1.716856	0.000203
1693	1.6835e+02	-12.6237	-82.809728	0.000517	5.168671	1.751193	0.000207
1694	1.6845e+02	-12.5884	-82.624020	0.000466	4.661938	1.579507	0.000187
1695	1.6855e+02	-12.5467	-82.515017	0.000274	2.736355	0.927102	0.000110
1696	1.6865e+02	-12.5130	-82.321235	0.000486	4.864631	1.648182	0.000195
1697	1.6875e+02	-12.4633	-82.151675	0.000426	4.256552	1.442159	0.000170
1698	1.6885e+02	-12.4248	-81.974041	0.000446	4.459245	1.510833	0.000179
1699	1.6895e+02	-12.3975	-81.804481	0.000426	4.256552	1.442159	0.000170
1700	1.6905e+02	-12.3430	-81.647033	0.000395	3.952513	1.339148	0.000158
1701	1.6915e+02	-12.3029	-81.465362	0.000456	4.560592	1.545170	0.000183
1702	1.6925e+02	-12.2724	-81.287728	0.000446	4.459245	1.510833	0.000179
1703	1.6935e+02	-12.2178	-81.102020	0.000466	4.661938	1.579507	0.000187
1704	1.6945e+02	-12.1825	-80.928423	0.000436	4.357899	1.476496	0.000174
1705	1.6955e+02	-12.1440	-80.754826	0.000436	4.357899	1.476496	0.000174
1706	1.6965e+02	-12.1071	-80.597378	0.000395	3.952513	1.339148	0.000158
1707	1.6975e+02	-12.0686	-80.379373	0.000547	5.472710	1.854204	0.000219
1708	1.6985e+02	-12.0205	-80.221924	0.000395	3.952513	1.339148	0.000158
1709	1.6995e+02	-11.9820	-80.028142	0.000486	4.864631	1.648182	0.000195
1710	1.7005e+02	-11.9403	-79.878768	0.000375	3.749820	1.270473	0.000150
1711	1.7015e+02	-11.9066	-79.709208	0.000426	4.256552	1.442159	0.000170
1712	1.7024e+02	-11.8713	-79.483128	0.000568	5.675403	1.922879	0.000227
1713	1.7034e+02	-11.8248	-79.317606	0.000416	4.155206	1.407822	0.000166
1714	1.7044e+02	-11.7831	-79.160158	0.000395	3.952513	1.339148	0.000158
1715	1.7054e+02	-11.7446	-78.966375	0.000486	4.864631	1.648182	0.000195
1716	1.7064e+02	-11.6997	-78.800852	0.000416	4.155206	1.407822	0.000166
1717	1.7074e+02	-11.6676	-78.611107	0.000476	4.763285	1.613845	0.000191
1718	1.7084e+02	-11.6291	-78.417325	0.000486	4.864631	1.648182	0.000195
1719	1.7094e+02	-11.5874	-78.259876	0.000395	3.952513	1.339148	0.000158
1720	1.7104e+02	-11.5521	-78.086279	0.000436	4.357899	1.476496	0.000174
1721	1.7114e+02	-11.5088	-77.916720	0.000426	4.256552	1.442159	0.000170
1722	1.7124e+02	-11.4703	-77.759271	0.000395	3.952513	1.339148	0.000158
1723	1.7134e+02	-11.4318	-77.577600	0.000456	4.560592	1.545170	0.000183
1724	1.7144e+02	-11.3901	-77.408041	0.000426	4.256552	1.442159	0.000170
1725	1.7154e+02	-11.3467	-77.218295	0.000476	4.763285	1.613845	0.000191
1726	1.7164e+02	-11.3034	-77.016438	0.000507	5.067324	1.716856	0.000203
1727	1.7174e+02	-11.2649	-76.842842	0.000436	4.357899	1.476496	0.000174
1728	1.7184e+02	-11.2264	-76.681356	0.000405	4.053859	1.373485	0.000162
1729	1.7194e+02	-11.1879	-76.467388	0.000537	5.371364	1.819867	0.000215
1730	1.7204e+02	-11.1430	-76.289754	0.000446	4.459245	1.510833	0.000179
1731	1.7213e+02	-11.1125	-76.168640	0.000304	3.040395	1.030114	0.000122
1732	1.7223e+02	-11.0772	-75.962746	0.000517	5.168671	1.751193	0.000207
1733	1.7233e+02	-11.0419	-75.773001	0.000476	4.763285	1.613845	0.000191
1734	1.7243e+02	-10.9858	-75.635738	0.000345	3.445780	1.167462	0.000138
1735	1.7253e+02	-10.9457	-75.425807	0.000527	5.270017	1.785530	0.000211
1736	1.7263e+02	-10.9072	-75.248173	0.000446	4.459245	1.510833	0.000179
1737	1.7273e+02	-10.8655	-75.086688	0.000405	4.053859	1.373485	0.000162
1738	1.7283e+02	-10.8350	-74.917128	0.000426	4.256552	1.442159	0.000170
1739	1.7293e+02	-10.7917	-74.711234	0.000517	5.168671	1.751193	0.000207
1740	1.7303e+02	-10.7516	-74.525526	0.000466	4.661938	1.579507	0.000187
1741	1.7313e+02	-10.7083	-74.376152	0.000375	3.749820	1.270473	0.000150
1742	1.7323e+02	-10.6698	-74.182369	0.000486	4.864631	1.648182	0.000195
1743	1.7333e+02	-10.6296	-73.972438	0.000527	5.270017	1.785530	0.000211
1744	1.7343e+02	-10.5992	-73.798841	0.000436	4.357899	1.476496	0.000174
1745	1.7353e+02	-10.5478	-73.613133	0.000466	4.661938	1.579507	0.000187
1746	1.7363e+02	-10.5061	-73.387053	0.000568	5.675403	1.922879	0.000227
1747	1.7373e+02	-10.4740	-73.221531	0.000416	4.155206	1.407822	0.000166
1748	1.7383e+02	-10.4259	-73.056008	0.000416	4.155206	1.407822	0.000166
1749	1.7393e+02	-10.3954	-72.878374	0.000446	4.459245	1.510833	0.000179
1750	1.7403e+02	-10.3585	-72.688629	0.000476	4.763285	1.613845	0.000191
1751	1.7413e+02	-10.3136	-72.486772	0.000507	5.067324	1.716856	0.000203
1752	1.7422e+02	-10.2703	-72.325287	0.000405	4.053859	1.373485	0.000162
1753	1.7432e+02	-10.2286	-72.107281	0.000547	5.472710	1.854204	0.000219
1754	1.7442e+02	-10.1997	-71.945796	0.000405	4.053859	1.373485	0.000162
1755	1.7452e+02	-10.1548	-71.796422	0.000375	3.749820	1.270473	0.000150
1756	1.7462e+02	-10.1083	-71.578417	0.000547	5.472710	1.854204	0.000219
1757	1.7472e+02	-10.0698	-71.372523	0.000517	5.168671	1.751193	0.000207
1758	1.7482e+02	-10.0361	-71.182777	0.000476	4.763285	1.613845	0.000191
1759	1.7492e+02	-9.9928	-71.033403	0.000375	3.749820	1.270473	0.000150
1760	1.7502e+02	-9.9495	-70.807324	0.000568	5.675403	1.922879	0.000227
1761	1.7512e+02	-9.9190	-70.657950	0.000375	3.749820	1.270473	0.000150
1762	1.7522e+02	-9.8660	-70.452056	0.000517	5.168671	1.751193	0.000207
1763	1.7532e+02	-9.8388	-70.278459	0.000436	4.357899	1.476496	0.000174
1764	1.7542e+02	-9.7826	-70.076602	0.000507	5.067324	1.716856	0.000203
1765	1.7552e+02	-9.7505	-69.886857	0.000476	4.763285	1.613845	0.000191
1766	1.7562e+02	-9.7104	-69.689037	0.000497	4.965978	1.682519	0.000199
1767	1.7572e+02	-9.6703	-69.523515	0.000416	4.155206	1.407822	0.000166
1768	1.7582e+02	-9.6350	-69.301472	0.000557	5.574057	1.888542	0.000223
1769	1.7592e+02	-9.5997	-69.135950	0.000416	4.155206	1.407822	0.000166
1770	1.7602e+02	-9.5628	-68.954278	0.000456	4.560592	1.545170	0.000183
1771	1.7612e+02	-9.5163	-68.776644	0.000446	4.459245	1.510833	0.000179
1772	1.7621e+02	-9.4746	-68.562676	0.000537	5.371364	1.819867	0.000215
1773	1.7631e+02	-9.4409	-68.397154	0.000416	4.155206	1.407822	0.000166
1774	1.7641e+02	-9.3944	-68.191260	0.000517	5.168671	1.751193	0.000207
1775	1.7651e+02	-9.3623	-68.005552	0.000466	4.661938	1.579507	0.000187
1776	1.7661e+02	-9.3190	-67.823880	0.000456	4.560592	1.545170	0.000183
1777	1.7671e+02	-9.2741	-67.617986	0.000517	5.168671	1.751193	0.000207
1778	1.7681e+02	-9.2324	-67.440353	0.000446	4.459245	1.510833	0.000179
1779	1.7691e+02	-9.2019	-67.242533	0.000497	4.965978	1.682519	0.000199
1780	1.7701e+02	-9.1618	-67.016453	0.000568	5.675403	1.922879	0.000227
1781	1.7711e+02	-9.1120	-66.854968	0.000405	4.053859	1.373485	0.000162
1782	1.7721e+02	-9.0767	-66.636962	0.000547	5.472710	1.854204	0.000219
1783	1.7731e+02	-9.0366	-66.443180	0.000486	4.864631	1.648182	0.000195
1784	1.7741e+02	-8.9981	-66.245360	0.000497	4.965978	1.682519	0.000199
1785	1.7751e+02	-8.9500	-66.059652	0.000466	4.661938	1.579507	0.000187
1786	1.7761e+02	-8.9179	-65.845684	0.000537	5.371364	1.819867	0.000215
1787	1.7771e+02	-8.8778	-65.688236	0.000395	3.952513	1.339148	0.000158
1788	1.7781e+02	-8.8313	-65.470230	0.000547	5.472710	1.854204	0.000219
1789	1.7791e+02	-8.7944	-65.236076	0.000588	5.878096	1.991553	0.000235
1790	1.7801e+02	-8.7495	-65.054405	0.000456	4.560592	1.545170	0.000183
1791	1.7810e+02	-8.7110	-64.896957	0.000395	3.952513	1.339148	0.000158
1792	1.7820e+02	-8.6821	-64.687026	0.000527	5.270017	1.785530	0.000211
1793	1.7830e+02	-8.6356	-64.456909	0.000578	5.776750	1.957216	0.000231
1794	1.7840e+02	-8.5987	-64.267164	0.000476	4.763285	1.613845	0.000191
1795	1.7850e+02	-8.5554	-64.081456	0.000466	4.661938	1.579507	0.000187
1796	1.7860e+02	-8.5249	-63.875562	0.000517	5.168671	1.751193	0.000207
1797	1.7870e+02	-8.4720	-63.665631	0.000527	5.270017	1.785530	0.000211
1798	1.7880e+02	-8.4495	-63.439551	0.000568	5.675403	1.922879	0.000227
1799	1.7890e+02	-8.3950	-63.261917	0.000446	4.459245	1.510833	0.000179
1800	1.7900e+02	-8.3613	-63.088320	0.000436	4.357899	1.476496	0.000174
1801	1.7910e+02	-8.3163	-62.862241	0.000568	5.675403	1.922879	0.000227
1802	1.7920e+02	-8.2730	-62.664421	0.000497	4.965978	1.682519	0.000199
1803	1.7930e+02	-8.2345	-62.474676	0.000476	4.763285	1.613845	0.000191
1804	1.7940e+02	-8.2024	-62.272819	0.000507	5.067324	1.716856	0.000203
1805	1.7950e+02	-8.1607	-62.070962	0.000507	5.067324	1.716856	0.000203
1806	1.7960e+02	-8.1254	-61.881217	0.000476	4.763285	1.613845	0.000191
1807	1.7970e+02	-8.0837	-61.647063	0.000588	5.878096	1.991553	0.000235
1808	1.7980e+02	-8.0356	-61.481540	0.000416	4.155206	1.407822	0.000166
1809	1.7990e+02	-7.9971	-61.271609	0.000527	5.270017	1.785530	0.000211
1810	1.8000e+02	-7.9570	-61.057641	0.000537	5.371364	1.819867	0.000215
1811	1.8009e+02	-7.9153	-60.888081	0.000426	4.256552	1.442159	0.000170
1812	1.8019e+02	-7.8816	-60.657964	0.000578	5.776750	1.957216	0.000231
1813	1.8029e+02	-7.8415	-60.415736	0.000608	6.080789	2.060227	0.000243
1814	1.8039e+02	-7.7902	-60.234065	0.000456	4.560592	1.545170	0.000183
1815	1.8049e+02	-7.7581	-60.052394	0.000456	4.560592	1.545170	0.000183
1816	1.8059e+02	-7.7228	-59.789980	0.000659	6.587521	2.231913	0.000264
1817	1.8069e+02	-7.6827	-59.624458	0.000416	4.155206	1.407822	0.000166
1818	1.8079e+02	-7.6410	-59.382230	0.000608	6.080789	2.060227	0.000243
1819	1.8089e+02	-7.5993	-59.208633	0.000436	4.357899	1.476496	0.000174
1820	1.8099e+02	-7.5704	-59.006776	0.000507	5.067324	1.716856	0.000203
1821	1.8109e+02	-7.5142	-58.792808	0.000537	5.371364	1.819867	0.000215
1822	1.8119e+02	-7.4805	-58.542505	0.000628	6.283482	2.128901	0.000252
1823	1.8129e+02	-7.4356	-58.352760	0.000476	4.763285	1.613845	0.000191
1824	1.8139e+02	-7.3907	-58.138792	0.000537	5.371364	1.819867	0.000215
1825	1.8149e+02	-7.3618	-57.961158	0.000446	4.459245	1.510833	0.000179
1826	1.8159e+02	-7.3297	-57.767375	0.000486	4.864631	1.648182	0.000195
1827	1.8169e+02	-7.2720	-57.513036	0.000638	6.384829	2.163238	0.000256
1828	1.8179e+02	-7.2399	-57.315216	0.000497	4.965978	1.682519	0.000199
1829	1.8189e+02	-7.2062	-57.121434	0.000486	4.864631	1.648182	0.000195
1830	1.8199e+02	-7.1613	-56.887280	0.000588	5.878096	1.991553	0.000235
1831	1.8209e+02	-7.1212	-56.713683	0.000436	4.357899	1.476496	0.000174
1832	1.8218e+02	-7.0843	-56.483566	0.000578	5.776750	1.957216	0.000231
1833	1.8228e+02	-7.0538	-56.277672	0.000517	5.168671	1.751193	0.000207
1834	1.8238e+02	-7.0073	-56.055630	0.000557	5.574057	1.888542	0.000223
1835	1.8248e+02	-6.9624	-55.837624	0.000547	5.472710	1.854204	0.000219
1836	1.8258e+02	-6.9175	-55.672102	0.000416	4.155206	1.407822	0.000166
1837	1.8268e+02	-6.8757	-55.446022	0.000568	5.675403	1.922879	0.000227
1838	1.8278e+02	-6.8501	-55.244165	0.000507	5.067324	1.716856	0.000203
1839	1.8288e+02	-6.8068	-55.005974	0.000598	5.979443	2.025890	0.000239
1840	1.8298e+02	-6.7634	-54.828340	0.000446	4.459245	1.510833	0.000179
1841	1.8308e+02	-6.7201	-54.594187	0.000588	5.878096	1.991553	0.000235
1842	1.8318e+02	-6.6800	-54.400404	0.000486	4.864631	1.648182	0.000195
1843	1.8328e+02	-6.6399	-54.142027	0.000649	6.486175	2.197576	0.000260
1844	1.8338e+02	-6.6078	-53.960356	0.000456	4.560592	1.545170	0.000183
1845	1.8348e+02	-6.5597	-53.786759	0.000436	4.357899	1.476496	0.000174
1846	1.8358e+02	-6.5244	-53.544531	0.000608	6.080789	2.060227	0.000243
1847	1.8368e+02	-6.4859	-53.298266	0.000618	6.182136	2.094564	0.000248
1848	1.8378e+02	-6.4474	-53.136781	0.000405	4.053859	1.373485	0.000162
1849	1.8388e+02	-6.4025	-52.886478	0.000628	6.283482	2.128901	0.000252
1850	1.8398e+02	-6.3704	-52.688659	0.000497	4.965978	1.682519	0.000199
1851	1.8407e+02	-6.3319	-52.486802	0.000507	5.067324	1.716856	0.000203
1852	1.8417e+02	-6.2918	-52.264759	0.000557	5.574057	1.888542	0.000223
1853	1.8427e+02	-6.2517	-52.079051	0.000466	4.661938	1.579507	0.000187
1854	1.8437e+02	-6.2148	-51.844897	0.000588	5.878096	1.991553	0.000235
1855	1.8447e+02	-6.1635	-51.639003	0.000517	5.168671	1.751193	0.000207
1856	1.8457e+02	-6.1314	-51.412924	0.000568	5.675403	1.922879	0.000227
1857	1.8467e+02	-6.0881	-51.174733	0.000598	5.979443	2.025890	0.000239
1858	1.8477e+02	-6.0528	-50.960764	0.000537	5.371364	1.819867	0.000215
1859	1.8487e+02	-6.0030	-50.742759	0.000547	5.472710	1.854204	0.000219
1860	1.8497e+02	-5.9758	-50.540902	0.000507	5.067324	1.716856	0.000203
1861	1.8507e+02	-5.9308	-50.298674	0.000608	6.080789	2.060227	0.000243
1862	1.8517e+02	-5.8956	-50.100855	0.000497	4.965978	1.682519	0.000199
1863	1.8527e+02	-5.8522	-49.894961	0.000517	5.168671	1.751193	0.000207
1864	1.8537e+02	-5.8202	-49.701178	0.000486	4.864631	1.648182	0.000195
1865	1.8547e+02	-5.7801	-49.454913	0.000618	6.182136	2.094564	0.000248
1866	1.8557e+02	-5.7239	-49.281316	0.000436	4.357899	1.476496	0.000174
1867	1.8567e+02	-5.6982	-48.994679	0.000720	7.195600	2.437935	0.000288
1868	1.8577e+02	-5.6389	-48.808971	0.000466	4.661938	1.579507	0.000187
1869	1.8587e+02	-5.6132	-48.578854	0.000578	5.776750	1.957216	0.000231
1870	1.8597e+02	-5.5571	-48.368923	0.000527	5.270017	1.785530	0.000211
1871	1.8606e+02	-5.5298	-48.118621	0.000628	6.283482	2.128901	0.000252
1872	1.8616e+02	-5.4929	-47.904653	0.000537	5.371364	1.819867	0.000215
1873	1.8626e+02	-5.4576	-47.727019	0.000446	4.459245	1.510833	0.000179
1874	1.8636e+02	-5.4159	-47.492865	0.000588	5.878096	1.991553	0.000235
1875	1.8646e+02	-5.3646	-47.303119	0.000476	4.763285	1.613845	0.000191
1876	1.8656e+02	-5.3373	-47.032631	0.000679	6.790214	2.300587	0.000272
1877	1.8666e+02	-5.2940	-46.863072	0.000426	4.256552	1.442159	0.000170
1878	1.8676e+02	-5.2426	-46.588546	0.000689	6.891561	2.334924	0.000276
1879	1.8686e+02	-5.2138	-46.394764	0.000486	4.864631	1.648182	0.000195
1880	1.8696e+02	-5.1720	-46.136387	0.000649	6.486175	2.197576	0.000260
1881	1.8706e+02	-5.1351	-45.954716	0.000456	4.560592	1.545170	0.000183
1882	1.8716e+02	-5.0950	-45.728637	0.000568	5.675403	1.922879	0.000227
1883	1.8726e+02	-5.0630	-45.518705	0.000527	5.270017	1.785530	0.000211
1884	1.8736e+02	-5.0068	-45.316849	0.000507	5.067324	1.716856	0.000203
1885	1.8746e+02	-4.9747	-45.066546	0.000628	6.283482	2.128901	0.000252
1886	1.8756e+02	-4.9362	-44.864689	0.000507	5.067324	1.716856	0.000203
1887	1.8766e+02	-4.8945	-44.642647	0.000557	5.574057	1.888542	0.000223
1888	1.8776e+02	-4.8560	-44.404456	0.000598	5.979443	2.025890	0.000239
1889	1.8786e+02	-4.8175	-44.186451	0.000547	5.472710	1.854204	0.000219
1890	1.8796e+02	-4.7726	-43.988631	0.000497	4.965978	1.682519	0.000199
1891	1.8806e+02	-4.7341	-43.754477	0.000588	5.878096	1.991553	0.000235
1892	1.8815e+02	-4.7004	-43.556657	0.000497	4.965978	1.682519	0.000199
1893	1.8825e+02	-4.6507	-43.310392	0.000618	6.182136	2.094564	0.000248
1894	1.8835e+02	-4.6218	-43.027793	0.000709	7.094254	2.403598	0.000284
1895	1.8845e+02	-4.5721	-42.838047	0.000476	4.763285	1.613845	0.000191
1896	1.8855e+02	-4.5336	-42.652339	0.000466	4.661938	1.579507	0.000187
1897	1.8865e+02	-4.4902	-42.393962	0.000649	6.486175	2.197576	0.000260
1898	1.8875e+02	-4.4630	-42.224403	0.000426	4.256552	1.442159	0.000170
1899	1.8885e+02	-4.4181	-41.994286	0.000578	5.776750	1.957216	0.000231
1900	1.8895e+02	-4.3796	-41.760132	0.000588	5.878096	1.991553	0.000235
1901	1.8905e+02	-4.3266	-41.530015	0.000578	5.776750	1.957216	0.000231
1902	1.8915e+02	-4.2945	-41.271639	0.000649	6.486175	2.197576	0.000260
1903	1.8925e+02	-4.2560	-41.081893	0.000476	4.763285	1.613845	0.000191
1904	1.8935e+02	-4.2127	-40.855814	0.000568	5.675403	1.922879	0.000227
1905	1.8945e+02	-4.1806	-40.674143	0.000456	4.560592	1.545170	0.000183
1906	1.8955e+02	-4.1437	-40.395580	0.000699	6.992907	2.369261	0.000280
1907	1.8965e+02	-4.0924	-40.157389	0.000598	5.979443	2.025890	0.000239
1908	1.8975e+02	-4.0539	-39.959570	0.000497	4.965978	1.682519	0.000199
1909	1.8985e+02	-4.0186	-39.729453	0.000578	5.776750	1.957216	0.000231
1910	1.8995e+02	-3.9705	-39.539707	0.000476	4.763285	1.613845	0.000191
1911	1.9004e+02	-3.9304	-39.261145	0.000699	6.992907	2.369261	0.000280
1912	1.9014e+02	-3.8855	-39.022954	0.000598	5.979443	2.025890	0.000239
1913	1.9024e+02	-3.8630	-38.792837	0.000578	5.776750	1.957216	0.000231
1914	1.9034e+02	-3.8165	-38.570795	0.000557	5.574057	1.888542	0.000223
1915	1.9044e+02	-3.7844	-38.364901	0.000517	5.168671	1.751193	0.000207
1916	1.9054e+02	-3.7395	-38.106524	0.000649	6.486175	2.197576	0.000260
1917	1.9064e+02	-3.6962	-37.892556	0.000537	5.371364	1.819867	0.000215
1918	1.9074e+02	-3.6641	-37.658402	0.000588	5.878096	1.991553	0.000235
1919	1.9084e+02	-3.6159	-37.420211	0.000598	5.979443	2.025890	0.000239
1920	1.9094e+02	-3.5839	-37.218354	0.000507	5.067324	1.716856	0.000203
1921	1.9104e+02	-3.5293	-36.968052	0.000628	6.283482	2.128901	0.000252
1922	1.9114e+02	-3.5020	-36.754084	0.000537	5.371364	1.819867	0.000215
1923	1.9124e+02	-3.4603	-36.471484	0.000709	7.094254	2.403598	0.000284
1924	1.9134e+02	-3.4186	-36.261553	0.000527	5.270017	1.785530	0.000211
1925	1.9144e+02	-3.3737	-36.011251	0.000628	6.283482	2.128901	0.000252
1926	1.9154e+02	-3.3384	-35.805357	0.000517	5.168671	1.751193	0.000207
1927	1.9164e+02	-3.2967	-35.555054	0.000628	6.283482	2.128901	0.000252
1928	1.9174e+02	-3.2566	-35.361272	0.000486	4.864631	1.648182	0.000195
1929	1.9184e+02	-3.2229	-35.102895	0.000649	6.486175	2.197576	0.000260
1930	1.9194e+02	-3.1828	-34.852593	0.000628	6.283482	2.128901	0.000252
1931	1.9203e+02	-3.1411	-34.642662	0.000527	5.270017	1.785530	0.000211
1932	1.9213e+02	-3.0978	-34.396396	0.000618	6.182136	2.094564	0.000248
1933	1.9223e+02	-3.0689	-34.150131	0.000618	6.182136	2.094564	0.000248
1934	1.9233e+02	-3.0160	-33.911940	0.000598	5.979443	2.025890	0.000239
1935	1.9243e+02	-2.9855	-33.677786	0.000588	5.878096	1.991553	0.000235
1936	1.9253e+02	-2.9390	-33.439595	0.000598	5.979443	2.025890	0.000239
1937	1.9263e+02	-2.8924	-33.221590	0.000547	5.472710	1.854204	0.000219
1938	1.9273e+02	-2.8684	-32.979362	0.000608	6.080789	2.060227	0.000243
1939	1.9283e+02	-2.8170	-32.745208	0.000588	5.878096	1.991553	0.000235
1940	1.9293e+02	-2.7866	-32.490868	0.000638	6.384829	2.163238	0.000256
1941	1.9303e+02	-2.7432	-32.240566	0.000628	6.283482	2.128901	0.000252
1942	1.9313e+02	-2.6951	-32.014486	0.000568	5.675403	1.922879	0.000227
1943	1.9323e+02	-2.6614	-31.800518	0.000537	5.371364	1.819867	0.000215
1944	1.9333e+02	-2.6197	-31.562327	0.000598	5.979443	2.025890	0.000239
1945	1.9343e+02	-2.5876	-31.344322	0.000547	5.472710	1.854204	0.000219
1946	1.9353e+02	-2.5491	-31.045574	0.000750	7.499640	2.540947	0.000300
1947	1.9363e+02	-2.4978	-30.807383	0.000598	5.979443	2.025890	0.000239
1948	1.9373e+02	-2.4625	-30.597452	0.000527	5.270017	1.785530	0.000211
1949	1.9383e+02	-2.4160	-30.351186	0.000618	6.182136	2.094564	0.000248
1950	1.9393e+02	-2.3855	-30.048401	0.000760	7.600986	2.575284	0.000304
1951	1.9403e+02	-2.3358	-29.826359	0.000557	5.574057	1.888542	0.000223
1952	1.9412e+02	-2.3021	-29.604316	0.000557	5.574057	1.888542	0.000223
1953	1.9422e+02	-2.2604	-29.333828	0.000679	6.790214	2.300587	0.000272
1954	1.9432e+02	-2.2283	-29.075452	0.000649	6.486175	2.197576	0.000260
1955	1.9442e+02	-2.1818	-28.865521	0.000527	5.270017	1.785530	0.000211
1956	1.9452e+02	-2.1497	-28.586958	0.000699	6.992907	2.369261	0.000280
1957	1.9462e+02	-2.1112	-28.364916	0.000557	5.574057	1.888542	0.000223
1958	1.9472e+02	-2.0598	-28.114613	0.000628	6.283482	2.128901	0.000252
1959	1.9482e+02	-2.0213	-27.848162	0.000669	6.688868	2.266250	0.000268
1960	1.9492e+02	-1.9844	-27.626120	0.000557	5.574057	1.888542	0.000223
1961	1.9502e+02	-1.9540	-27.387929	0.000598	5.979443	2.025890	0.000239
1962	1.9512e+02	-1.9010	-27.117441	0.000679	6.790214	2.300587	0.000272
1963	1.9522e+02	-1.8689	-26.863101	0.000638	6.384829	2.163238	0.000256
1964	1.9532e+02	-1.8256	-26.584539	0.000699	6.992907	2.369261	0.000280
1965	1.9542e+02	-1.7871	-26.358459	0.000568	5.675403	1.922879	0.000227
1966	1.9552e+02	-1.7518	-26.104120	0.000638	6.384829	2.163238	0.000256
1967	1.9562e+02	-1.7117	-25.853817	0.000628	6.283482	2.128901	0.000252
1968	1.9572e+02	-1.6636	-25.607552	0.000618	6.182136	2.094564	0.000248
1969	1.9582e+02	-1.6283	-25.393584	0.000537	5.371364	1.819867	0.000215
1970	1.9592e+02	-1.5866	-25.094836	0.000750	7.499640	2.540947	0.000300
1971	1.9601e+02	-1.5529	-24.848570	0.000618	6.182136	2.094564	0.000248
1972	1.9611e+02	-1.5096	-24.570008	0.000699	6.992907	2.369261	0.000280
1973	1.9621e+02	-1.4663	-24.392374	0.000446	4.459245	1.510833	0.000179
1974	1.9631e+02	-1.4262	-24.101700	0.000730	7.296947	2.472273	0.000292
1975	1.9641e+02	-1.3877	-23.827175	0.000689	6.891561	2.334924	0.000276
1976	1.9651e+02	-1.3443	-23.564761	0.000659	6.587521	2.231913	0.000264
1977	1.9661e+02	-1.3058	-23.342719	0.000557	5.574057	1.888542	0.000223
1978	1.9671e+02	-1.2641	-23.064156	0.000699	6.992907	2.369261	0.000280
1979	1.9681e+02	-1.2369	-22.825965	0.000598	5.979443	2.025890	0.000239
1980	1.9691e+02	-1.1903	-22.535292	0.000730	7.296947	2.472273	0.000292
1981	1.9701e+02	-1.1534	-22.284989	0.000628	6.283482	2.128901	0.000252
1982	1.9711e+02	-1.1053	-21.962018	0.000811	8.107719	2.746969	0.000325
1983	1.9721e+02	-1.0636	-21.788422	0.000436	4.357899	1.476496	0.000174
1984	1.9731e+02	-1.0235	-21.493711	0.000740	7.398293	2.506610	0.000296
1985	1.9741e+02	-0.9914	-21.227260	0.000669	6.688868	2.266250	0.000268
1986	1.9751e+02	-0.9449	-20.936586	0.000730	7.296947	2.472273	0.000292
1987	1.9761e+02	-0.9096	-20.690321	0.000618	6.182136	2.094564	0.000248
1988	1.9771e+02	-0.8743	-20.456167	0.000588	5.878096	1.991553	0.000235
1989	1.9781e+02	-0.8214	-20.189716	0.000669	6.688868	2.266250	0.000268
1990	1.9791e+02	-0.7877	-19.915191	0.000689	6.891561	2.334924	0.000276
1991	1.9800e+02	-0.7492	-19.660851	0.000638	6.384829	2.163238	0.000256
1992	1.9810e+02	-0.7107	-19.398437	0.000659	6.587521	2.231913	0.000264
1993	1.9820e+02	-0.6706	-19.111801	0.000720	7.195600	2.437935	0.000288
1994	1.9830e+02	-0.6305	-18.873610	0.000598	5.979443	2.025890	0.000239
1995	1.9840e+02	-0.5888	-18.615233	0.000649	6.486175	2.197576	0.000260
1996	1.9850e+02	-0.5503	-18.320522	0.000740	7.398293	2.506610	0.000296
1997	1.9860e+02	-0.5101	-18.114628	0.000517	5.168671	1.751193	0.000207
1998	1.9870e+02	-0.4732	-17.868363	0.000618	6.182136	2.094564	0.000248
1999	1.9880e+02	-0.4235	-17.541355	0.000821	8.209065	2.781307	0.000329
2000	1.9890e+02	-0.3834	-17.299127	0.000608	6.080789	2.060227	0.000243
2001	1.9900e+02	-0.3465	-17.040750	0.000649	6.486175	2.197576	0.000260
2002	1.9910e+02	-0.3064	-16.782373	0.000649	6.486175	2.197576	0.000260
2003	1.9920e+02	-0.2631	-16.532071	0.000628	6.283482	2.128901	0.000252
2004	1.9930e+02	-0.2454	-16.221211	0.000780	7.803679	2.643958	0.000312
2005	1.9940e+02	-0.1957	-15.995132	0.000568	5.675403	1.922879	0.000227
2006	1.9950e+02	-0.1556	-15.728681	0.000669	6.688868	2.266250	0.000268
2007	1.9960e+02	-0.1075	-15.462230	0.000669	6.688868	2.266250	0.000268
2008	1.9970e+02	-0.0738	-15.228076	0.000588	5.878096	1.991553	0.000235
2009	1.9980e+02	-0.0289	-14.949514	0.000588	5.878096	1.991553	0.000280

Center data before PMax,+/-Pr and +/-Vc Calc.

PMax (uC/cm2):	1.09e+02
Pr (uC/cm2):	7.17e+00
-Pr (uC/cm2):	-1.49e+01
PLoss (uC/cm2):	-1.39e+01
-Vc:	-1.08e+00
C (Max-Eff) (nF):	5.45e-01
K (Eff):	1.85e+03
Vert. (+/-Pr) Shift (uC/cm2):	-3.89e+00
Offset (uC/cm2):	1.07e+00

A (Loop Area - uC/cm2·Volts):	2.49e-01



Hysteresis Version: 5.48.1 - Radiant Technologies, Inc., 1999 - 9/12/24

