»»»»»»»»»»»»»»»»»»»»»»»»»»»»»»»»»»»» Hysteresis ««««««««««««««««««««««««««««««««««««
»»»  Executed Version:	5.48.1
»»»  Vision Version:	5.48.4 (R)
»»»  Vision Compiled:	9/18/24
»»»  Driver Version:	5.47.0
»»»  Windows Version:	Windows 8 or 8.1
»»»  Processor Information:	x86 (AMD or Intel) - 32 Processors
»»»  Tester Name:	PMF21124-494 (100V)
»»»  Tester S/N:	PMF21124-494
»»»  Internal Amp Type:	100V RevK 270k
»»»  Internal Amp S/N:	iAB2-596/K     
»»»  Execution Count:	1
»»»»»»»»»»»»»»»»»»»»»»»»»»»»»»»»»»»»»»»»»»««««««««««««««««««««««««««««««««««««««««««

Stored:	6/6/2025 - 11:50:20
Configured:	06/06/25 11:06:04 AM
Executed:	06/06/25 11:49:45 AM

»»»»»»»»»»»»»»»»»»»»»»»»»»»»»»»»»»» Sample Info ««««««««««««««««««««««««««««««««««««
Sample Name:	
Lot Name:	
Wafer Name:	
Die Row/Column:	0/0
Capacitor Number:	0
Sample Area (cm2):	1.00e-04
Sample Thickness (microns):	3.00e-01

Amplifier:	Internal

»»»»»»»»»»»»»»»»»»»»»»»»»»»»»»»»»»» Tester Info «««««««««««««««««««««««««««««««««««
Tester Name:	PMF21124-494 (100V)
Tester Serial Number:	PMF21124-494
Return Signal Amp. Level:	0.19 [Index: 3]

»»»»»»»»»»»»»»»»»»»»»»»»»»»»»»»» Hysteresis Info ««««««««««««««««««««««««««««««««««
Task Name:	Hyst-477
Volts:	20.00
Field:	666.67 (kV/cm)
DCBias:	0.00
DCField:	0.00 (kV/cm)
Hysteresis Period (ms):	2.00e+02
Preset:	Enabled
Preset Delay (ms):	1.00e+03
Profile:	Standard Bipolar

»»»»»»»»»»»»»»»»»»»»»»»»»»»»»»»»»»»»»» Data «««««««««««««««««««««««««««««««««««««««
Points:	2009

Valid Data

Point	Time (ms)	Drive Voltage	Measured Polarization (uC/cm2)	Capacitance (uF)	Normalized Capacitance (uF/cm2)	Dielectric Constant	Instantaneous Current (mA)
   1	0.0000e+00	0.0048	1.792488	0.000557	5.574727	1.888769	0.000223
   2	9.9500e-02	0.0321	2.014531	0.000557	5.574727	1.888769	0.000223
   3	1.9900e-01	0.0722	2.236573	0.000557	5.574727	1.888769	0.000223
   4	2.9850e-01	0.0979	2.470727	0.000588	5.878804	1.991793	0.000235
   5	3.9800e-01	0.1460	2.692770	0.000557	5.574727	1.888769	0.000223
   6	4.9750e-01	0.1829	2.939035	0.000618	6.182880	2.094816	0.000248
   7	5.9700e-01	0.2246	3.181263	0.000608	6.081521	2.060475	0.000243
   8	6.9650e-01	0.2647	3.407343	0.000568	5.676086	1.923110	0.000227
   9	7.9600e-01	0.3112	3.633422	0.000568	5.676086	1.923110	0.000227
  10	8.9550e-01	0.3401	3.867576	0.000588	5.878804	1.991793	0.000235
  11	9.9500e-01	0.3706	4.093656	0.000568	5.676086	1.923110	0.000227
  12	1.0945e+00	0.4331	4.303587	0.000527	5.270651	1.785745	0.000211
  13	1.1940e+00	0.4700	4.582149	0.000699	6.993749	2.369546	0.000280
  14	1.2935e+00	0.4925	4.824377	0.000608	6.081521	2.060475	0.000243
  15	1.3930e+00	0.5422	5.006048	0.000456	4.561141	1.545356	0.000183
  16	1.4925e+00	0.5791	5.276536	0.000679	6.791032	2.300864	0.000272
  17	1.5920e+00	0.6192	5.518765	0.000608	6.081521	2.060475	0.000243
  18	1.6915e+00	0.6577	5.756956	0.000598	5.980162	2.026134	0.000239
  19	1.7910e+00	0.6946	5.995147	0.000598	5.980162	2.026134	0.000239
  20	1.8905e+00	0.7492	6.265635	0.000679	6.791032	2.300864	0.000272
  21	1.9900e+00	0.7781	6.536123	0.000679	6.791032	2.300864	0.000272
  22	2.0895e+00	0.8230	6.717794	0.000456	4.561141	1.545356	0.000183
  23	2.1890e+00	0.8551	7.000393	0.000710	7.095108	2.403888	0.000284
  24	2.2885e+00	0.8984	7.226473	0.000568	5.676086	1.923110	0.000227
  25	2.3880e+00	0.9481	7.468701	0.000608	6.081521	2.060475	0.000243
  26	2.4875e+00	0.9818	7.755338	0.000720	7.196466	2.438229	0.000288
  27	2.5870e+00	1.0251	7.969306	0.000537	5.372010	1.820086	0.000215
  28	2.6865e+00	1.0588	8.243831	0.000689	6.892390	2.335205	0.000276
  29	2.7860e+00	1.0973	8.473948	0.000578	5.777445	1.957451	0.000231
  30	2.8855e+00	1.1326	8.683879	0.000527	5.270651	1.785745	0.000211
  31	2.9850e+00	1.1807	8.990701	0.000770	7.703260	2.609935	0.000308
  32	3.0845e+00	1.2208	9.180447	0.000476	4.763858	1.614039	0.000191
  33	3.1840e+00	1.2561	9.467083	0.000720	7.196466	2.438229	0.000288
  34	3.2835e+00	1.2914	9.685089	0.000547	5.473369	1.854428	0.000219
  35	3.3830e+00	1.3411	9.923280	0.000598	5.980162	2.026134	0.000239
  36	3.4825e+00	1.3909	10.197805	0.000689	6.892390	2.335205	0.000276
  37	3.5820e+00	1.4181	10.472330	0.000689	6.892390	2.335205	0.000276
  38	3.6815e+00	1.4631	10.702447	0.000578	5.777445	1.957451	0.000231
  39	3.7810e+00	1.5032	10.920452	0.000547	5.473369	1.854428	0.000219
  40	3.8805e+00	1.5336	11.199015	0.000699	6.993749	2.369546	0.000280
  41	3.9800e+00	1.5802	11.445280	0.000618	6.182880	2.094816	0.000248
  42	4.0795e+00	1.6251	11.683471	0.000598	5.980162	2.026134	0.000239
  43	4.1790e+00	1.6652	11.941848	0.000649	6.486956	2.197840	0.000260
  44	4.2785e+00	1.6957	12.204261	0.000659	6.588314	2.232181	0.000264
  45	4.3780e+00	1.7390	12.402081	0.000497	4.966575	1.682721	0.000199
  46	4.4775e+00	1.7823	12.684680	0.000710	7.095108	2.403888	0.000284
  47	4.5770e+00	1.8320	12.918834	0.000588	5.878804	1.991793	0.000235
  48	4.6765e+00	1.8497	13.152988	0.000588	5.878804	1.991793	0.000235
  49	4.7760e+00	1.8930	13.411365	0.000649	6.486956	2.197840	0.000260
  50	4.8755e+00	1.9507	13.645519	0.000588	5.878804	1.991793	0.000235
  51	4.9750e+00	1.9780	13.932155	0.000720	7.196466	2.438229	0.000288
  52	5.0745e+00	2.0181	14.162272	0.000578	5.777445	1.957451	0.000231
  53	5.1740e+00	2.0582	14.448909	0.000720	7.196466	2.438229	0.000288
  54	5.2735e+00	2.1048	14.630580	0.000456	4.561141	1.545356	0.000183
  55	5.3730e+00	2.1368	14.941439	0.000780	7.804618	2.644276	0.000312
  56	5.4725e+00	2.1802	15.215965	0.000689	6.892390	2.335205	0.000276
  57	5.5720e+00	2.2122	15.417821	0.000507	5.067934	1.717063	0.000203
  58	5.6715e+00	2.2588	15.651975	0.000588	5.878804	1.991793	0.000235
  59	5.7710e+00	2.2957	15.926500	0.000689	6.892390	2.335205	0.000276
  60	5.8705e+00	2.3406	16.172766	0.000618	6.182880	2.094816	0.000248
  61	5.9700e+00	2.3743	16.414994	0.000608	6.081521	2.060475	0.000243
  62	6.0695e+00	2.4272	16.681445	0.000669	6.689673	2.266523	0.000268
  63	6.1690e+00	2.4529	16.951933	0.000679	6.791032	2.300864	0.000272
  64	6.2685e+00	2.4962	17.165901	0.000537	5.372010	1.820086	0.000215
  65	6.3680e+00	2.5395	17.420241	0.000639	6.385597	2.163499	0.000256
  66	6.4675e+00	2.5812	17.662469	0.000608	6.081521	2.060475	0.000243
  67	6.5670e+00	2.6165	17.904697	0.000608	6.081521	2.060475	0.000243
  68	6.6665e+00	2.6518	18.159037	0.000639	6.385597	2.163499	0.000256
  69	6.7660e+00	2.7015	18.397228	0.000598	5.980162	2.026134	0.000239
  70	6.8655e+00	2.7400	18.651567	0.000639	6.385597	2.163499	0.000256
  71	6.9650e+00	2.7769	18.905907	0.000639	6.385597	2.163499	0.000256
  72	7.0645e+00	2.8122	19.164283	0.000649	6.486956	2.197840	0.000260
  73	7.1640e+00	2.8507	19.398437	0.000588	5.878804	1.991793	0.000235
  74	7.2635e+00	2.9101	19.664888	0.000669	6.689673	2.266523	0.000268
  75	7.3630e+00	2.9325	19.858671	0.000487	4.865217	1.648380	0.000195
  76	7.4625e+00	2.9678	20.161456	0.000760	7.601901	2.575594	0.000304
  77	7.5620e+00	3.0127	20.379461	0.000547	5.473369	1.854428	0.000219
  78	7.6615e+00	3.0609	20.649949	0.000679	6.791032	2.300864	0.000272
  79	7.7610e+00	3.1010	20.932549	0.000710	7.095108	2.403888	0.000284
  80	7.8605e+00	3.1299	21.134406	0.000507	5.067934	1.717063	0.000203
  81	7.9600e+00	3.1732	21.408931	0.000689	6.892390	2.335205	0.000276
  82	8.0595e+00	3.2165	21.655196	0.000618	6.182880	2.094816	0.000248
  83	8.1590e+00	3.2470	21.937796	0.000710	7.095108	2.403888	0.000284
  84	8.2585e+00	3.2935	22.180024	0.000608	6.081521	2.060475	0.000243
  85	8.3580e+00	3.3288	22.442438	0.000659	6.588314	2.232181	0.000264
  86	8.4575e+00	3.3673	22.652369	0.000527	5.270651	1.785745	0.000211
  87	8.5570e+00	3.4202	22.910745	0.000649	6.486956	2.197840	0.000260
  88	8.6565e+00	3.4475	23.177196	0.000669	6.689673	2.266523	0.000268
  89	8.7560e+00	3.4892	23.423462	0.000618	6.182880	2.094816	0.000248
  90	8.8555e+00	3.5293	23.665690	0.000608	6.081521	2.060475	0.000243
  91	8.9550e+00	3.5646	23.911955	0.000618	6.182880	2.094816	0.000248
  92	9.0545e+00	3.6175	24.162257	0.000628	6.284238	2.129158	0.000252
  93	9.1540e+00	3.6560	24.420634	0.000649	6.486956	2.197840	0.000260
  94	9.2535e+00	3.6929	24.654788	0.000588	5.878804	1.991793	0.000235
  95	9.3530e+00	3.7282	24.925276	0.000679	6.791032	2.300864	0.000272
  96	9.4525e+00	3.7699	25.191727	0.000669	6.689673	2.266523	0.000268
  97	9.5520e+00	3.8101	25.417807	0.000568	5.676086	1.923110	0.000227
  98	9.6515e+00	3.8566	25.672146	0.000639	6.385597	2.163499	0.000256
  99	9.7510e+00	3.8871	25.898226	0.000568	5.676086	1.923110	0.000227
 100	9.8505e+00	3.9320	26.144491	0.000618	6.182880	2.094816	0.000248
 101	9.9500e+00	3.9785	26.414979	0.000679	6.791032	2.300864	0.000272
 102	1.0050e+01	4.0202	26.685467	0.000679	6.791032	2.300864	0.000272
 103	1.0149e+01	4.0555	26.883287	0.000497	4.966575	1.682721	0.000199
 104	1.0248e+01	4.0972	27.133589	0.000628	6.284238	2.129158	0.000252
 105	1.0348e+01	4.1325	27.391966	0.000649	6.486956	2.197840	0.000260
 106	1.0447e+01	4.1630	27.650343	0.000649	6.486956	2.197840	0.000260
 107	1.0547e+01	4.2015	27.884497	0.000588	5.878804	1.991793	0.000235
 108	1.0646e+01	4.2560	28.134799	0.000628	6.284238	2.129158	0.000252
 109	1.0746e+01	4.2929	28.393176	0.000649	6.486956	2.197840	0.000260
 110	1.0845e+01	4.3314	28.643478	0.000628	6.284238	2.129158	0.000252
 111	1.0945e+01	4.3667	28.873595	0.000578	5.777445	1.957451	0.000231
 112	1.1044e+01	4.4132	29.099674	0.000568	5.676086	1.923110	0.000227
 113	1.1144e+01	4.4485	29.366125	0.000669	6.689673	2.266523	0.000268
 114	1.1243e+01	4.4854	29.592205	0.000568	5.676086	1.923110	0.000227
 115	1.1343e+01	4.5255	29.830396	0.000598	5.980162	2.026134	0.000239
 116	1.1443e+01	4.5769	30.125107	0.000740	7.399184	2.506911	0.000296
 117	1.1542e+01	4.6058	30.335038	0.000527	5.270651	1.785745	0.000211
 118	1.1642e+01	4.6507	30.569192	0.000588	5.878804	1.991793	0.000235
 119	1.1741e+01	4.6940	30.811420	0.000608	6.081521	2.060475	0.000243
 120	1.1841e+01	4.7261	31.061722	0.000628	6.284238	2.129158	0.000252
 121	1.1940e+01	4.7646	31.303951	0.000608	6.081521	2.060475	0.000243
 122	1.2040e+01	4.8127	31.558290	0.000639	6.385597	2.163499	0.000256
 123	1.2139e+01	4.8512	31.796481	0.000598	5.980162	2.026134	0.000239
 124	1.2239e+01	4.8897	32.054858	0.000649	6.486956	2.197840	0.000260
 125	1.2338e+01	4.9138	32.280937	0.000568	5.676086	1.923110	0.000227
 126	1.2438e+01	4.9635	32.535277	0.000639	6.385597	2.163499	0.000256
 127	1.2537e+01	5.0068	32.765394	0.000578	5.777445	1.957451	0.000231
 128	1.2636e+01	5.0453	33.015696	0.000628	6.284238	2.129158	0.000252
 129	1.2736e+01	5.0983	33.261961	0.000618	6.182880	2.094816	0.000248
 130	1.2835e+01	5.1335	33.508227	0.000618	6.182880	2.094816	0.000248
 131	1.2935e+01	5.1656	33.758529	0.000628	6.284238	2.129158	0.000252
 132	1.3034e+01	5.2138	33.992683	0.000588	5.878804	1.991793	0.000235
 133	1.3134e+01	5.2490	34.275282	0.000710	7.095108	2.403888	0.000284
 134	1.3233e+01	5.2908	34.513473	0.000598	5.980162	2.026134	0.000239
 135	1.3333e+01	5.3293	34.743590	0.000578	5.777445	1.957451	0.000231
 136	1.3432e+01	5.3662	34.957558	0.000537	5.372010	1.820086	0.000215
 137	1.3532e+01	5.4127	35.240158	0.000710	7.095108	2.403888	0.000284
 138	1.3632e+01	5.4400	35.450089	0.000527	5.270651	1.785745	0.000211
 139	1.3731e+01	5.4817	35.716540	0.000669	6.689673	2.266523	0.000268
 140	1.3831e+01	5.5250	35.958768	0.000608	6.081521	2.060475	0.000243
 141	1.3930e+01	5.5635	36.200996	0.000608	6.081521	2.060475	0.000243
 142	1.4030e+01	5.5988	36.431113	0.000578	5.777445	1.957451	0.000231
 143	1.4129e+01	5.6453	36.701601	0.000679	6.791032	2.300864	0.000272
 144	1.4229e+01	5.6790	36.895384	0.000487	4.865217	1.648380	0.000195
 145	1.4328e+01	5.7271	37.177983	0.000710	7.095108	2.403888	0.000284
 146	1.4428e+01	5.7656	37.424248	0.000618	6.182880	2.094816	0.000248
 147	1.4527e+01	5.8089	37.658402	0.000588	5.878804	1.991793	0.000235
 148	1.4627e+01	5.8458	37.880445	0.000557	5.574727	1.888769	0.000223
 149	1.4726e+01	5.8859	38.179193	0.000750	7.500542	2.541253	0.000300
 150	1.4825e+01	5.9212	38.360864	0.000456	4.561141	1.545356	0.000183
 151	1.4925e+01	5.9629	38.615203	0.000639	6.385597	2.163499	0.000256
 152	1.5024e+01	6.0079	38.833209	0.000547	5.473369	1.854428	0.000219
 153	1.5124e+01	6.0447	39.131957	0.000750	7.500542	2.541253	0.000300
 154	1.5223e+01	6.0768	39.349962	0.000547	5.473369	1.854428	0.000219
 155	1.5323e+01	6.1346	39.596227	0.000618	6.182880	2.094816	0.000248
 156	1.5422e+01	6.1651	39.818270	0.000557	5.574727	1.888769	0.000223
 157	1.5522e+01	6.1988	40.096832	0.000699	6.993749	2.369546	0.000280
 158	1.5621e+01	6.2469	40.310800	0.000537	5.372010	1.820086	0.000215
 159	1.5721e+01	6.2854	40.565140	0.000639	6.385597	2.163499	0.000256
 160	1.5820e+01	6.3159	40.807368	0.000608	6.081521	2.060475	0.000243
 161	1.5920e+01	6.3624	41.085930	0.000699	6.993749	2.369546	0.000280
 162	1.6020e+01	6.3993	41.275676	0.000476	4.763858	1.614039	0.000191
 163	1.6119e+01	6.4490	41.525978	0.000628	6.284238	2.129158	0.000252
 164	1.6218e+01	6.4875	41.731872	0.000517	5.169293	1.751404	0.000207
 165	1.6318e+01	6.5308	41.994286	0.000659	6.588314	2.232181	0.000264
 166	1.6418e+01	6.5613	42.184031	0.000476	4.763858	1.614039	0.000191
 167	1.6517e+01	6.5966	42.498928	0.000791	7.905977	2.678618	0.000316
 168	1.6616e+01	6.6431	42.700785	0.000507	5.067934	1.717063	0.000203
 169	1.6716e+01	6.6832	42.971273	0.000679	6.791032	2.300864	0.000272
 170	1.6816e+01	6.7233	43.152944	0.000456	4.561141	1.545356	0.000183
 171	1.6915e+01	6.7538	43.362875	0.000527	5.270651	1.785745	0.000211
 172	1.7015e+01	6.7971	43.665660	0.000760	7.601901	2.575594	0.000304
 173	1.7114e+01	6.8340	43.895777	0.000578	5.777445	1.957451	0.000231
 174	1.7213e+01	6.8725	44.133968	0.000598	5.980162	2.026134	0.000239
 175	1.7313e+01	6.9142	44.372159	0.000598	5.980162	2.026134	0.000239
 176	1.7413e+01	6.9656	44.594201	0.000557	5.574727	1.888769	0.000223
 177	1.7512e+01	6.9961	44.856615	0.000659	6.588314	2.232181	0.000264
 178	1.7611e+01	7.0474	45.042323	0.000466	4.662499	1.579698	0.000187
 179	1.7711e+01	7.0795	45.328960	0.000720	7.196466	2.438229	0.000288
 180	1.7811e+01	7.1212	45.542928	0.000537	5.372010	1.820086	0.000215
 181	1.7910e+01	7.1581	45.769008	0.000568	5.676086	1.923110	0.000227
 182	1.8009e+01	7.1918	45.991050	0.000557	5.574727	1.888769	0.000223
 183	1.8109e+01	7.2367	46.241353	0.000628	6.284238	2.129158	0.000252
 184	1.8209e+01	7.2800	46.523952	0.000710	7.095108	2.403888	0.000284
 185	1.8308e+01	7.3137	46.705623	0.000456	4.561141	1.545356	0.000183
 186	1.8407e+01	7.3538	46.980149	0.000689	6.892390	2.335205	0.000276
 187	1.8507e+01	7.3955	47.226414	0.000618	6.182880	2.094816	0.000248
 188	1.8607e+01	7.4388	47.460568	0.000588	5.878804	1.991793	0.000235
 189	1.8706e+01	7.4709	47.678573	0.000547	5.473369	1.854428	0.000219
 190	1.8805e+01	7.5126	47.936950	0.000649	6.486956	2.197840	0.000260
 191	1.8905e+01	7.5672	48.203401	0.000669	6.689673	2.266523	0.000268
 192	1.9005e+01	7.5976	48.393146	0.000476	4.763858	1.614039	0.000191
 193	1.9104e+01	7.6394	48.639411	0.000618	6.182880	2.094816	0.000248
 194	1.9203e+01	7.6763	48.897788	0.000649	6.486956	2.197840	0.000260
 195	1.9303e+01	7.7115	49.119831	0.000557	5.574727	1.888769	0.000223
 196	1.9402e+01	7.7533	49.353984	0.000588	5.878804	1.991793	0.000235
 197	1.9502e+01	7.8078	49.620435	0.000669	6.689673	2.266523	0.000268
 198	1.9602e+01	7.8383	49.842478	0.000557	5.574727	1.888769	0.000223
 199	1.9701e+01	7.8736	50.072595	0.000578	5.777445	1.957451	0.000231
 200	1.9800e+01	7.9105	50.339046	0.000669	6.689673	2.266523	0.000268
 201	1.9900e+01	7.9522	50.544939	0.000517	5.169293	1.751404	0.000207
 202	2.0000e+01	7.9891	50.795242	0.000628	6.284238	2.129158	0.000252
 203	2.0099e+01	8.0356	51.065730	0.000679	6.791032	2.300864	0.000272
 204	2.0198e+01	8.0773	51.259512	0.000487	4.865217	1.648380	0.000195
 205	2.0298e+01	8.1158	51.521926	0.000659	6.588314	2.232181	0.000264
 206	2.0398e+01	8.1623	51.731857	0.000527	5.270651	1.785745	0.000211
 207	2.0497e+01	8.1912	51.953900	0.000557	5.574727	1.888769	0.000223
 208	2.0596e+01	8.2393	52.196128	0.000608	6.081521	2.060475	0.000243
 209	2.0696e+01	8.2698	52.422208	0.000568	5.676086	1.923110	0.000227
 210	2.0796e+01	8.3131	52.684621	0.000659	6.588314	2.232181	0.000264
 211	2.0895e+01	8.3468	52.902627	0.000547	5.473369	1.854428	0.000219
 212	2.0994e+01	8.3901	53.136781	0.000588	5.878804	1.991793	0.000235
 213	2.1094e+01	8.4351	53.411306	0.000689	6.892390	2.335205	0.000276
 214	2.1194e+01	8.4768	53.613163	0.000507	5.067934	1.717063	0.000203
 215	2.1293e+01	8.5153	53.859428	0.000618	6.182880	2.094816	0.000248
 216	2.1392e+01	8.5602	54.081470	0.000557	5.574727	1.888769	0.000223
 217	2.1492e+01	8.5907	54.279290	0.000497	4.966575	1.682721	0.000199
 218	2.1591e+01	8.6340	54.561889	0.000710	7.095108	2.403888	0.000284
 219	2.1691e+01	8.6709	54.747598	0.000466	4.662499	1.579698	0.000187
 220	2.1791e+01	8.7142	54.993863	0.000618	6.182880	2.094816	0.000248
 221	2.1890e+01	8.7479	55.260314	0.000669	6.689673	2.266523	0.000268
 222	2.1989e+01	8.7912	55.466208	0.000517	5.169293	1.751404	0.000207
 223	2.2089e+01	8.8361	55.696325	0.000578	5.777445	1.957451	0.000231
 224	2.2189e+01	8.8730	55.918367	0.000557	5.574727	1.888769	0.000223
 225	2.2288e+01	8.9051	56.164632	0.000618	6.182880	2.094816	0.000248
 226	2.2387e+01	8.9548	56.418972	0.000639	6.385597	2.163499	0.000256
 227	2.2487e+01	8.9885	56.616792	0.000497	4.966575	1.682721	0.000199
 228	2.2587e+01	9.0350	56.842871	0.000568	5.676086	1.923110	0.000227
 229	2.2686e+01	9.0655	57.085099	0.000608	6.081521	2.060475	0.000243
 230	2.2785e+01	9.1072	57.323290	0.000598	5.980162	2.026134	0.000239
 231	2.2885e+01	9.1538	57.529184	0.000517	5.169293	1.751404	0.000207
 232	2.2985e+01	9.1906	57.783524	0.000639	6.385597	2.163499	0.000256
 233	2.3084e+01	9.2211	58.009603	0.000568	5.676086	1.923110	0.000227
 234	2.3183e+01	9.2693	58.255869	0.000618	6.182880	2.094816	0.000248
 235	2.3283e+01	9.3206	58.477911	0.000557	5.574727	1.888769	0.000223
 236	2.3383e+01	9.3591	58.699954	0.000557	5.574727	1.888769	0.000223
 237	2.3482e+01	9.3848	58.926033	0.000568	5.676086	1.923110	0.000227
 238	2.3581e+01	9.4313	59.160187	0.000588	5.878804	1.991793	0.000235
 239	2.3681e+01	9.4618	59.329747	0.000426	4.257065	1.442333	0.000170
 240	2.3780e+01	9.5051	59.576012	0.000618	6.182880	2.094816	0.000248
 241	2.3880e+01	9.5468	59.781906	0.000517	5.169293	1.751404	0.000207
 242	2.3980e+01	9.5949	60.068543	0.000720	7.196466	2.438229	0.000288
 243	2.4079e+01	9.6318	60.278474	0.000527	5.270651	1.785745	0.000211
 244	2.4178e+01	9.6671	60.496479	0.000547	5.473369	1.854428	0.000219
 245	2.4278e+01	9.7040	60.698336	0.000507	5.067934	1.717063	0.000203
 246	2.4378e+01	9.7457	60.920378	0.000557	5.574727	1.888769	0.000223
 247	2.4477e+01	9.7874	61.198941	0.000699	6.993749	2.369546	0.000280
 248	2.4576e+01	9.8243	61.416946	0.000547	5.473369	1.854428	0.000219
 249	2.4676e+01	9.8612	61.647063	0.000578	5.777445	1.957451	0.000231
 250	2.4776e+01	9.9077	61.840845	0.000487	4.865217	1.648380	0.000195
 251	2.4875e+01	9.9462	62.070962	0.000578	5.777445	1.957451	0.000231
 252	2.4974e+01	9.9767	62.276856	0.000517	5.169293	1.751404	0.000207
 253	2.5074e+01	10.0281	62.527158	0.000628	6.284238	2.129158	0.000252
 254	2.5174e+01	10.0730	62.729015	0.000507	5.067934	1.717063	0.000203
 255	2.5273e+01	10.1099	62.999503	0.000679	6.791032	2.300864	0.000272
 256	2.5372e+01	10.1452	63.205397	0.000517	5.169293	1.751404	0.000207
 257	2.5472e+01	10.1853	63.447625	0.000608	6.081521	2.060475	0.000243
 258	2.5572e+01	10.2254	63.661593	0.000537	5.372010	1.820086	0.000215
 259	2.5671e+01	10.2687	63.855376	0.000487	4.865217	1.648380	0.000195
 260	2.5770e+01	10.3184	64.121827	0.000669	6.689673	2.266523	0.000268
 261	2.5870e+01	10.3473	64.327721	0.000517	5.169293	1.751404	0.000207
 262	2.5970e+01	10.3874	64.541689	0.000537	5.372010	1.820086	0.000215
 263	2.6069e+01	10.4259	64.787954	0.000618	6.182880	2.094816	0.000248
 264	2.6169e+01	10.4644	64.993848	0.000517	5.169293	1.751404	0.000207
 265	2.6268e+01	10.5045	65.211854	0.000547	5.473369	1.854428	0.000219
 266	2.6367e+01	10.5430	65.478305	0.000669	6.689673	2.266523	0.000268
 267	2.6467e+01	10.5895	65.668050	0.000476	4.763858	1.614039	0.000191
 268	2.6567e+01	10.6264	65.894130	0.000568	5.676086	1.923110	0.000227
 269	2.6666e+01	10.6649	66.128283	0.000588	5.878804	1.991793	0.000235
 270	2.6765e+01	10.7034	66.330140	0.000507	5.067934	1.717063	0.000203
 271	2.6865e+01	10.7419	66.540071	0.000527	5.270651	1.785745	0.000211
 272	2.6965e+01	10.7772	66.762114	0.000557	5.574727	1.888769	0.000223
 273	2.7064e+01	10.8254	67.012416	0.000628	6.284238	2.129158	0.000252
 274	2.7163e+01	10.8558	67.202161	0.000476	4.763858	1.614039	0.000191
 275	2.7263e+01	10.8976	67.416130	0.000537	5.372010	1.820086	0.000215
 276	2.7363e+01	10.9489	67.678544	0.000659	6.588314	2.232181	0.000264
 277	2.7462e+01	10.9842	67.852140	0.000436	4.358423	1.476674	0.000174
 278	2.7561e+01	11.0243	68.074183	0.000557	5.574727	1.888769	0.000223
 279	2.7661e+01	11.0612	68.272002	0.000497	4.966575	1.682721	0.000199
 280	2.7761e+01	11.1045	68.514231	0.000608	6.081521	2.060475	0.000243
 281	2.7860e+01	11.1414	68.728199	0.000537	5.372010	1.820086	0.000215
 282	2.7959e+01	11.1799	68.917944	0.000476	4.763858	1.614039	0.000191
 283	2.8059e+01	11.2232	69.135950	0.000547	5.473369	1.854428	0.000219
 284	2.8159e+01	11.2601	69.366066	0.000578	5.777445	1.957451	0.000231
 285	2.8258e+01	11.3018	69.571960	0.000517	5.169293	1.751404	0.000207
 286	2.8358e+01	11.3419	69.810151	0.000598	5.980162	2.026134	0.000239
 287	2.8457e+01	11.3884	70.003934	0.000487	4.865217	1.648380	0.000195
 288	2.8556e+01	11.4221	70.213865	0.000527	5.270651	1.785745	0.000211
 289	2.8656e+01	11.4671	70.415722	0.000507	5.067934	1.717063	0.000203
 290	2.8756e+01	11.5007	70.653913	0.000598	5.980162	2.026134	0.000239
 291	2.8855e+01	11.5425	70.879992	0.000568	5.676086	1.923110	0.000227
 292	2.8954e+01	11.5826	71.061663	0.000456	4.561141	1.545356	0.000183
 293	2.9054e+01	11.6195	71.283706	0.000557	5.574727	1.888769	0.000223
 294	2.9154e+01	11.6628	71.517860	0.000588	5.878804	1.991793	0.000235
 295	2.9253e+01	11.6981	71.695494	0.000446	4.459782	1.511015	0.000179
 296	2.9352e+01	11.7382	71.941759	0.000618	6.182880	2.094816	0.000248
 297	2.9452e+01	11.7799	72.196098	0.000639	6.385597	2.163499	0.000256
 298	2.9552e+01	11.8232	72.377770	0.000456	4.561141	1.545356	0.000183
 299	2.9651e+01	11.8649	72.595775	0.000547	5.473369	1.854428	0.000219
 300	2.9750e+01	11.9034	72.789557	0.000487	4.865217	1.648380	0.000195
 301	2.9850e+01	11.9291	73.015637	0.000568	5.676086	1.923110	0.000227
 302	2.9950e+01	11.9804	73.241717	0.000568	5.676086	1.923110	0.000227
 303	3.0049e+01	12.0141	73.431462	0.000476	4.763858	1.614039	0.000191
 304	3.0148e+01	12.0574	73.617170	0.000466	4.662499	1.579698	0.000187
 305	3.0248e+01	12.1007	73.855361	0.000598	5.980162	2.026134	0.000239
 306	3.0348e+01	12.1328	74.053181	0.000497	4.966575	1.682721	0.000199
 307	3.0447e+01	12.1874	74.267149	0.000537	5.372010	1.820086	0.000215
 308	3.0547e+01	12.2210	74.469006	0.000507	5.067934	1.717063	0.000203
 309	3.0646e+01	12.2595	74.711234	0.000608	6.081521	2.060475	0.000243
 310	3.0745e+01	12.2980	74.905016	0.000487	4.865217	1.648380	0.000195
 311	3.0845e+01	12.3349	75.094762	0.000476	4.763858	1.614039	0.000191
 312	3.0945e+01	12.3815	75.365250	0.000679	6.791032	2.300864	0.000272
 313	3.1044e+01	12.4136	75.530773	0.000416	4.155706	1.407991	0.000166
 314	3.1143e+01	12.4617	75.760889	0.000578	5.777445	1.957451	0.000231
 315	3.1243e+01	12.5034	75.962746	0.000507	5.067934	1.717063	0.000203
 316	3.1343e+01	12.5387	76.184789	0.000557	5.574727	1.888769	0.000223
 317	3.1442e+01	12.5724	76.382608	0.000497	4.966575	1.682721	0.000199
 318	3.1541e+01	12.6285	76.592539	0.000527	5.270651	1.785745	0.000211
 319	3.1641e+01	12.6574	76.842842	0.000628	6.284238	2.129158	0.000252
 320	3.1741e+01	12.6927	77.044698	0.000507	5.067934	1.717063	0.000203
 321	3.1840e+01	12.7312	77.222332	0.000446	4.459782	1.511015	0.000179
 322	3.1939e+01	12.7809	77.476672	0.000639	6.385597	2.163499	0.000256
 323	3.2039e+01	12.8162	77.654306	0.000446	4.459782	1.511015	0.000179
 324	3.2139e+01	12.8547	77.892497	0.000598	5.980162	2.026134	0.000239
 325	3.2238e+01	12.8932	78.094354	0.000507	5.067934	1.717063	0.000203
 326	3.2337e+01	12.9365	78.288136	0.000487	4.865217	1.648380	0.000195
 327	3.2437e+01	12.9686	78.469807	0.000456	4.561141	1.545356	0.000183
 328	3.2536e+01	13.0119	78.663590	0.000487	4.865217	1.648380	0.000195
 329	3.2636e+01	13.0601	78.861410	0.000497	4.966575	1.682721	0.000199
 330	3.2736e+01	13.0954	79.091526	0.000578	5.777445	1.957451	0.000231
 331	3.2835e+01	13.1322	79.313569	0.000557	5.574727	1.888769	0.000223
 332	3.2934e+01	13.1724	79.539648	0.000568	5.676086	1.923110	0.000227
 333	3.3034e+01	13.2125	79.705171	0.000416	4.155706	1.407991	0.000166
 334	3.3133e+01	13.2445	79.923176	0.000547	5.473369	1.854428	0.000219
 335	3.3233e+01	13.2911	80.100810	0.000446	4.459782	1.511015	0.000179
 336	3.3333e+01	13.3296	80.322853	0.000557	5.574727	1.888769	0.000223
 337	3.3432e+01	13.3793	80.536821	0.000537	5.372010	1.820086	0.000215
 338	3.3532e+01	13.4146	80.730603	0.000487	4.865217	1.648380	0.000195
 339	3.3631e+01	13.4547	80.972831	0.000608	6.081521	2.060475	0.000243
 340	3.3730e+01	13.4932	81.158540	0.000466	4.662499	1.579698	0.000187
 341	3.3830e+01	13.5397	81.324062	0.000416	4.155706	1.407991	0.000166
 342	3.3929e+01	13.5702	81.566290	0.000608	6.081521	2.060475	0.000243
 343	3.4029e+01	13.6087	81.760073	0.000487	4.865217	1.648380	0.000195
 344	3.4129e+01	13.6488	81.970004	0.000527	5.270651	1.785745	0.000211
 345	3.4228e+01	13.6857	82.167824	0.000497	4.966575	1.682721	0.000199
 346	3.4328e+01	13.7306	82.337383	0.000426	4.257065	1.442333	0.000170
 347	3.4427e+01	13.7643	82.563463	0.000568	5.676086	1.923110	0.000227
 348	3.4526e+01	13.8124	82.777431	0.000537	5.372010	1.820086	0.000215
 349	3.4626e+01	13.8397	82.971214	0.000487	4.865217	1.648380	0.000195
 350	3.4725e+01	13.8894	83.160959	0.000476	4.763858	1.614039	0.000191
 351	3.4825e+01	13.9263	83.395113	0.000588	5.878804	1.991793	0.000235
 352	3.4925e+01	13.9745	83.592933	0.000497	4.966575	1.682721	0.000199
 353	3.5024e+01	14.0050	83.782678	0.000476	4.763858	1.614039	0.000191
 354	3.5123e+01	14.0547	83.996646	0.000537	5.372010	1.820086	0.000215
 355	3.5223e+01	14.0948	84.214651	0.000547	5.473369	1.854428	0.000219
 356	3.5322e+01	14.1285	84.412471	0.000497	4.966575	1.682721	0.000199
 357	3.5422e+01	14.1686	84.650662	0.000598	5.980162	2.026134	0.000239
 358	3.5522e+01	14.2135	84.787925	0.000345	3.446195	1.167603	0.000138
 359	3.5621e+01	14.2536	85.030153	0.000608	6.081521	2.060475	0.000243
 360	3.5721e+01	14.2905	85.240084	0.000527	5.270651	1.785745	0.000211
 361	3.5820e+01	14.3322	85.429829	0.000476	4.763858	1.614039	0.000191
 362	3.5919e+01	14.3659	85.655909	0.000568	5.676086	1.923110	0.000227
 363	3.6019e+01	14.4108	85.849691	0.000487	4.865217	1.648380	0.000195
 364	3.6118e+01	14.4477	86.015214	0.000416	4.155706	1.407991	0.000166
 365	3.6218e+01	14.4894	86.269554	0.000639	6.385597	2.163499	0.000256
 366	3.6318e+01	14.5327	86.455262	0.000466	4.662499	1.579698	0.000187
 367	3.6417e+01	14.5745	86.669230	0.000537	5.372010	1.820086	0.000215
 368	3.6517e+01	14.6210	86.871087	0.000507	5.067934	1.717063	0.000203
 369	3.6616e+01	14.6466	87.109278	0.000598	5.980162	2.026134	0.000239
 370	3.6715e+01	14.6884	87.274800	0.000416	4.155706	1.407991	0.000166
 371	3.6815e+01	14.7236	87.476657	0.000507	5.067934	1.717063	0.000203
 372	3.6914e+01	14.7686	87.702737	0.000568	5.676086	1.923110	0.000227
 373	3.7014e+01	14.8023	87.920742	0.000547	5.473369	1.854428	0.000219
 374	3.7114e+01	14.8408	88.098376	0.000446	4.459782	1.511015	0.000179
 375	3.7213e+01	14.8825	88.296196	0.000497	4.966575	1.682721	0.000199
 376	3.7313e+01	14.9226	88.530350	0.000588	5.878804	1.991793	0.000235
 377	3.7412e+01	14.9659	88.703946	0.000436	4.358423	1.476674	0.000174
 378	3.7511e+01	15.0076	88.893692	0.000476	4.763858	1.614039	0.000191
 379	3.7611e+01	15.0413	89.099586	0.000517	5.169293	1.751404	0.000207
 380	3.7711e+01	15.0814	89.281257	0.000456	4.561141	1.545356	0.000183
 381	3.7810e+01	15.1311	89.487151	0.000517	5.169293	1.751404	0.000207
 382	3.7910e+01	15.1664	89.693045	0.000517	5.169293	1.751404	0.000207
 383	3.8009e+01	15.2017	89.907013	0.000537	5.372010	1.820086	0.000215
 384	3.8108e+01	15.2466	90.100795	0.000487	4.865217	1.648380	0.000195
 385	3.8208e+01	15.2899	90.334949	0.000588	5.878804	1.991793	0.000235
 386	3.8307e+01	15.3236	90.484323	0.000375	3.750271	1.270626	0.000150
 387	3.8407e+01	15.3686	90.702329	0.000547	5.473369	1.854428	0.000219
 388	3.8507e+01	15.4054	90.892074	0.000476	4.763858	1.614039	0.000191
 389	3.8606e+01	15.4439	91.081819	0.000476	4.763858	1.614039	0.000191
 390	3.8706e+01	15.4808	91.279639	0.000497	4.966575	1.682721	0.000199
 391	3.8805e+01	15.5177	91.481496	0.000507	5.067934	1.717063	0.000203
 392	3.8904e+01	15.5691	91.691427	0.000527	5.270651	1.785745	0.000211
 393	3.9004e+01	15.6076	91.909432	0.000547	5.473369	1.854428	0.000219
 394	3.9103e+01	15.6509	92.103215	0.000487	4.865217	1.648380	0.000195
 395	3.9203e+01	15.6878	92.264700	0.000405	4.054347	1.373650	0.000162
 396	3.9303e+01	15.7247	92.486743	0.000557	5.574727	1.888769	0.000223
 397	3.9402e+01	15.7744	92.684562	0.000497	4.966575	1.682721	0.000199
 398	3.9502e+01	15.8049	92.882382	0.000497	4.966575	1.682721	0.000199
 399	3.9601e+01	15.8434	93.068090	0.000466	4.662499	1.579698	0.000187
 400	3.9700e+01	15.8819	93.233613	0.000416	4.155706	1.407991	0.000166
 401	3.9800e+01	15.9188	93.467767	0.000588	5.878804	1.991793	0.000235
 402	3.9900e+01	15.9717	93.637326	0.000426	4.257065	1.442333	0.000170
 403	3.9999e+01	16.0022	93.835146	0.000497	4.966575	1.682721	0.000199
 404	4.0099e+01	16.0536	94.049114	0.000537	5.372010	1.820086	0.000215
 405	4.0198e+01	16.0808	94.218674	0.000426	4.257065	1.442333	0.000170
 406	4.0297e+01	16.1225	94.372085	0.000385	3.851630	1.304968	0.000154
 407	4.0397e+01	16.1626	94.626425	0.000639	6.385597	2.163499	0.000256
 408	4.0496e+01	16.2028	94.804059	0.000446	4.459782	1.511015	0.000179
 409	4.0596e+01	16.2429	95.013990	0.000527	5.270651	1.785745	0.000211
 410	4.0696e+01	16.2782	95.171438	0.000395	3.952989	1.339309	0.000158
 411	4.0795e+01	16.3343	95.377332	0.000517	5.169293	1.751404	0.000207
 412	4.0895e+01	16.3632	95.559003	0.000456	4.561141	1.545356	0.000183
 413	4.0994e+01	16.4017	95.809305	0.000628	6.284238	2.129158	0.000252
 414	4.1093e+01	16.4418	95.978865	0.000426	4.257065	1.442333	0.000170
 415	4.1193e+01	16.4819	96.168610	0.000476	4.763858	1.614039	0.000191
 416	4.1292e+01	16.5220	96.366430	0.000497	4.966575	1.682721	0.000199
 417	4.1392e+01	16.5637	96.576361	0.000527	5.270651	1.785745	0.000211
 418	4.1492e+01	16.6006	96.745921	0.000426	4.257065	1.442333	0.000170
 419	4.1591e+01	16.6455	96.976038	0.000578	5.777445	1.957451	0.000231
 420	4.1691e+01	16.6824	97.137523	0.000405	4.054347	1.373650	0.000162
 421	4.1790e+01	16.7161	97.323231	0.000466	4.662499	1.579698	0.000187
 422	4.1889e+01	16.7594	97.500865	0.000446	4.459782	1.511015	0.000179
 423	4.1989e+01	16.8027	97.714833	0.000537	5.372010	1.820086	0.000215
 424	4.2089e+01	16.8396	97.928802	0.000537	5.372010	1.820086	0.000215
 425	4.2188e+01	16.8749	98.114510	0.000466	4.662499	1.579698	0.000187
 426	4.2288e+01	16.9279	98.312329	0.000497	4.966575	1.682721	0.000199
 427	4.2387e+01	16.9567	98.477852	0.000416	4.155706	1.407991	0.000166
 428	4.2486e+01	17.0033	98.667597	0.000476	4.763858	1.614039	0.000191
 429	4.2586e+01	17.0321	98.877528	0.000527	5.270651	1.785745	0.000211
 430	4.2685e+01	17.0738	99.055162	0.000446	4.459782	1.511015	0.000179
 431	4.2785e+01	17.1204	99.248945	0.000487	4.865217	1.648380	0.000195
 432	4.2885e+01	17.1557	99.438690	0.000476	4.763858	1.614039	0.000191
 433	4.2984e+01	17.1974	99.632473	0.000487	4.865217	1.648380	0.000195
 434	4.3084e+01	17.2391	99.810107	0.000446	4.459782	1.511015	0.000179
 435	4.3183e+01	17.2744	100.028112	0.000547	5.473369	1.854428	0.000219
 436	4.3282e+01	17.3145	100.169412	0.000355	3.547554	1.201944	0.000142
 437	4.3382e+01	17.3546	100.395492	0.000568	5.676086	1.923110	0.000227
 438	4.3481e+01	17.4011	100.561014	0.000416	4.155706	1.407991	0.000166
 439	4.3581e+01	17.4348	100.770945	0.000527	5.270651	1.785745	0.000211
 440	4.3681e+01	17.4733	100.940505	0.000426	4.257065	1.442333	0.000170
 441	4.3780e+01	17.5198	101.130250	0.000476	4.763858	1.614039	0.000191
 442	4.3880e+01	17.5599	101.307884	0.000446	4.459782	1.511015	0.000179
 443	4.3979e+01	17.5984	101.493592	0.000466	4.662499	1.579698	0.000187
 444	4.4078e+01	17.6289	101.695449	0.000507	5.067934	1.717063	0.000203
 445	4.4178e+01	17.6819	101.885195	0.000476	4.763858	1.614039	0.000191
 446	4.4278e+01	17.7171	102.038606	0.000385	3.851630	1.304968	0.000154
 447	4.4377e+01	17.7556	102.256611	0.000547	5.473369	1.854428	0.000219
 448	4.4477e+01	17.7909	102.418097	0.000405	4.054347	1.373650	0.000162
 449	4.4576e+01	17.8310	102.595731	0.000446	4.459782	1.511015	0.000179
 450	4.4675e+01	17.8744	102.785476	0.000476	4.763858	1.614039	0.000191
 451	4.4775e+01	17.9193	102.995407	0.000527	5.270651	1.785745	0.000211
 452	4.4874e+01	17.9546	103.181115	0.000466	4.662499	1.579698	0.000187
 453	4.4974e+01	17.9963	103.330489	0.000375	3.750271	1.270626	0.000150
 454	4.5074e+01	18.0348	103.512160	0.000456	4.561141	1.545356	0.000183
 455	4.5173e+01	18.0781	103.738240	0.000568	5.676086	1.923110	0.000227
 456	4.5273e+01	18.1086	103.895688	0.000395	3.952989	1.339309	0.000158
 457	4.5372e+01	18.1487	104.093508	0.000497	4.966575	1.682721	0.000199
 458	4.5471e+01	18.2016	104.267105	0.000436	4.358423	1.476674	0.000174
 459	4.5571e+01	18.2273	104.412442	0.000365	3.648913	1.236285	0.000146
 460	4.5670e+01	18.2706	104.634484	0.000557	5.574727	1.888769	0.000223
 461	4.5770e+01	18.3171	104.824229	0.000476	4.763858	1.614039	0.000191
 462	4.5870e+01	18.3460	104.997826	0.000436	4.358423	1.476674	0.000174
 463	4.5969e+01	18.3925	105.195646	0.000497	4.966575	1.682721	0.000199
 464	4.6069e+01	18.4358	105.345020	0.000375	3.750271	1.270626	0.000150
 465	4.6168e+01	18.4776	105.542840	0.000497	4.966575	1.682721	0.000199
 466	4.6267e+01	18.5161	105.740659	0.000497	4.966575	1.682721	0.000199
 467	4.6367e+01	18.5578	105.914256	0.000436	4.358423	1.476674	0.000174
 468	4.6467e+01	18.5947	106.087853	0.000436	4.358423	1.476674	0.000174
 469	4.6566e+01	18.6380	106.277598	0.000476	4.763858	1.614039	0.000191
 470	4.6666e+01	18.6701	106.463307	0.000466	4.662499	1.579698	0.000187
 471	4.6765e+01	18.7166	106.624792	0.000405	4.054347	1.373650	0.000162
 472	4.6864e+01	18.7455	106.814537	0.000476	4.763858	1.614039	0.000191
 473	4.6964e+01	18.7936	107.012357	0.000497	4.966575	1.682721	0.000199
 474	4.7063e+01	18.8433	107.206140	0.000487	4.865217	1.648380	0.000195
 475	4.7163e+01	18.8722	107.412033	0.000517	5.169293	1.751404	0.000207
 476	4.7263e+01	18.9219	107.573519	0.000405	4.054347	1.373650	0.000162
 477	4.7362e+01	18.9556	107.771339	0.000497	4.966575	1.682721	0.000199
 478	4.7462e+01	18.9909	107.940898	0.000426	4.257065	1.442333	0.000170
 479	4.7561e+01	19.0262	108.106421	0.000416	4.155706	1.407991	0.000166
 480	4.7660e+01	19.0759	108.280018	0.000436	4.358423	1.476674	0.000174
 481	4.7760e+01	19.1128	108.465726	0.000466	4.662499	1.579698	0.000187
 482	4.7859e+01	19.1449	108.631248	0.000416	4.155706	1.407991	0.000166
 483	4.7959e+01	19.1962	108.877514	0.000618	6.182880	2.094816	0.000248
 484	4.8059e+01	19.2380	109.026888	0.000375	3.750271	1.270626	0.000150
 485	4.8158e+01	19.2765	109.220670	0.000487	4.865217	1.648380	0.000195
 486	4.8258e+01	19.3102	109.349859	0.000324	3.243478	1.098920	0.000130
 487	4.8357e+01	19.3551	109.523455	0.000436	4.358423	1.476674	0.000174
 488	4.8456e+01	19.3984	109.713201	0.000476	4.763858	1.614039	0.000191
 489	4.8556e+01	19.4401	109.939280	0.000568	5.676086	1.923110	0.000227
 490	4.8656e+01	19.4722	110.088654	0.000375	3.750271	1.270626	0.000150
 491	4.8755e+01	19.5171	110.290511	0.000507	5.067934	1.717063	0.000203
 492	4.8855e+01	19.5556	110.407588	0.000294	2.939402	0.995896	0.000118
 493	4.8954e+01	19.5925	110.649816	0.000608	6.081521	2.060475	0.000243
 494	4.9053e+01	19.6310	110.831487	0.000456	4.561141	1.545356	0.000183
 495	4.9153e+01	19.6759	110.984899	0.000385	3.851630	1.304968	0.000154
 496	4.9252e+01	19.7176	111.210978	0.000568	5.676086	1.923110	0.000227
 497	4.9352e+01	19.7449	111.340167	0.000324	3.243478	1.098920	0.000130
 498	4.9452e+01	19.7962	111.517800	0.000446	4.459782	1.511015	0.000179
 499	4.9551e+01	19.8315	111.719657	0.000507	5.067934	1.717063	0.000203
 500	4.9651e+01	19.8668	111.893254	0.000436	4.358423	1.476674	0.000174
 501	4.9750e+01	19.9053	112.082999	0.000476	4.763858	1.614039	0.000191
 502	4.9849e+01	19.9454	112.232374	0.000375	3.750271	1.270626	0.000150
 503	4.9949e+01	19.9823	112.438267	0.000517	5.169293	1.751404	0.000207
 504	5.0048e+01	19.9454	112.313116	0.000314	3.142119	1.064579	-0.000126
 505	5.0148e+01	19.9069	112.175854	0.000345	3.446195	1.167603	-0.000138
 506	5.0248e+01	19.8668	112.050702	0.000314	3.142119	1.064579	-0.000126
 507	5.0347e+01	19.8203	111.889217	0.000405	4.054347	1.373650	-0.000162
 508	5.0447e+01	19.7946	111.772140	0.000294	2.939402	0.995896	-0.000118
 509	5.0546e+01	19.7449	111.622766	0.000375	3.750271	1.270626	-0.000150
 510	5.0645e+01	19.7128	111.485503	0.000345	3.446195	1.167603	-0.000138
 511	5.0745e+01	19.6775	111.344204	0.000355	3.547554	1.201944	-0.000142
 512	5.0844e+01	19.6246	111.202904	0.000355	3.547554	1.201944	-0.000142
 513	5.0944e+01	19.5877	111.045456	0.000395	3.952989	1.339309	-0.000158
 514	5.1044e+01	19.5556	110.896082	0.000375	3.750271	1.270626	-0.000150
 515	5.1143e+01	19.5011	110.779005	0.000294	2.939402	0.995896	-0.000118
 516	5.1242e+01	19.4658	110.637705	0.000355	3.547554	1.201944	-0.000142
 517	5.1342e+01	19.4224	110.488331	0.000375	3.750271	1.270626	-0.000150
 518	5.1441e+01	19.3855	110.294548	0.000487	4.865217	1.648380	-0.000195
 519	5.1541e+01	19.3631	110.205731	0.000223	2.229891	0.755508	-0.000089
 520	5.1641e+01	19.3166	110.028097	0.000446	4.459782	1.511015	-0.000179
 521	5.1740e+01	19.2765	109.923132	0.000264	2.635326	0.892873	-0.000105
 522	5.1840e+01	19.2315	109.765684	0.000395	3.952989	1.339309	-0.000158
 523	5.1939e+01	19.1962	109.640532	0.000314	3.142119	1.064579	-0.000126
 524	5.2038e+01	19.1513	109.470973	0.000426	4.257065	1.442333	-0.000170
 525	5.2138e+01	19.1112	109.301413	0.000426	4.257065	1.442333	-0.000170
 526	5.2237e+01	19.0727	109.176262	0.000314	3.142119	1.064579	-0.000126
 527	5.2337e+01	19.0326	109.030925	0.000365	3.648913	1.236285	-0.000146
 528	5.2437e+01	18.9877	108.901737	0.000324	3.243478	1.098920	-0.000130
 529	5.2536e+01	18.9492	108.699880	0.000507	5.067934	1.717063	-0.000203
 530	5.2636e+01	18.9107	108.611063	0.000223	2.229891	0.755508	-0.000089
 531	5.2735e+01	18.8770	108.445540	0.000416	4.155706	1.407991	-0.000166
 532	5.2834e+01	18.8401	108.292129	0.000385	3.851630	1.304968	-0.000154
 533	5.2934e+01	18.7904	108.142755	0.000375	3.750271	1.270626	-0.000150
 534	5.3033e+01	18.7519	107.977232	0.000416	4.155706	1.407991	-0.000166
 535	5.3133e+01	18.7086	107.839970	0.000345	3.446195	1.167603	-0.000138
 536	5.3233e+01	18.6749	107.670410	0.000426	4.257065	1.442333	-0.000170
 537	5.3332e+01	18.6348	107.553333	0.000294	2.939402	0.995896	-0.000118
 538	5.3431e+01	18.5882	107.371662	0.000456	4.561141	1.545356	-0.000183
 539	5.3531e+01	18.5578	107.246511	0.000314	3.142119	1.064579	-0.000126
 540	5.3630e+01	18.5209	107.093100	0.000385	3.851630	1.304968	-0.000154
 541	5.3730e+01	18.4727	106.939689	0.000385	3.851630	1.304968	-0.000154
 542	5.3830e+01	18.4391	106.774166	0.000416	4.155706	1.407991	-0.000166
 543	5.3929e+01	18.3973	106.620755	0.000385	3.851630	1.304968	-0.000154
 544	5.4029e+01	18.3620	106.463307	0.000395	3.952989	1.339309	-0.000158
 545	5.4128e+01	18.3091	106.301821	0.000405	4.054347	1.373650	-0.000162
 546	5.4227e+01	18.2786	106.120150	0.000456	4.561141	1.545356	-0.000183
 547	5.4327e+01	18.2369	105.978850	0.000355	3.547554	1.201944	-0.000142
 548	5.4426e+01	18.2000	105.825439	0.000385	3.851630	1.304968	-0.000154
 549	5.4526e+01	18.1535	105.659917	0.000416	4.155706	1.407991	-0.000166
 550	5.4626e+01	18.1102	105.506505	0.000385	3.851630	1.304968	-0.000154
 551	5.4725e+01	18.0829	105.373280	0.000334	3.344836	1.133261	-0.000134
 552	5.4825e+01	18.0332	105.195646	0.000446	4.459782	1.511015	-0.000179
 553	5.4924e+01	17.9947	105.054346	0.000355	3.547554	1.201944	-0.000142
 554	5.5023e+01	17.9642	104.852489	0.000507	5.067934	1.717063	-0.000203
 555	5.5123e+01	17.9145	104.731375	0.000304	3.040760	1.030238	-0.000122
 556	5.5222e+01	17.8744	104.549704	0.000456	4.561141	1.545356	-0.000183
 557	5.5322e+01	17.8439	104.420516	0.000324	3.243478	1.098920	-0.000130
 558	5.5422e+01	17.8006	104.259030	0.000405	4.054347	1.373650	-0.000162
 559	5.5521e+01	17.7589	104.097545	0.000405	4.054347	1.373650	-0.000162
 560	5.5620e+01	17.7123	103.927985	0.000426	4.257065	1.442333	-0.000170
 561	5.5720e+01	17.6738	103.802834	0.000314	3.142119	1.064579	-0.000126
 562	5.5819e+01	17.6353	103.633274	0.000426	4.257065	1.442333	-0.000170
 563	5.5919e+01	17.5984	103.447566	0.000466	4.662499	1.579698	-0.000187
 564	5.6019e+01	17.5599	103.310304	0.000345	3.446195	1.167603	-0.000138
 565	5.6118e+01	17.5214	103.128632	0.000456	4.561141	1.545356	-0.000183
 566	5.6218e+01	17.4717	102.971184	0.000395	3.952989	1.339309	-0.000158
 567	5.6317e+01	17.4300	102.829884	0.000355	3.547554	1.201944	-0.000142
 568	5.6416e+01	17.3931	102.652250	0.000446	4.459782	1.511015	-0.000179
 569	5.6516e+01	17.3578	102.510951	0.000355	3.547554	1.201944	-0.000142
 570	5.6615e+01	17.3161	102.321205	0.000476	4.763858	1.614039	-0.000191
 571	5.6715e+01	17.2728	102.192017	0.000324	3.243478	1.098920	-0.000130
 572	5.6815e+01	17.2327	102.026494	0.000416	4.155706	1.407991	-0.000166
 573	5.6914e+01	17.1942	101.816563	0.000527	5.270651	1.785745	-0.000211
 574	5.7014e+01	17.1621	101.671226	0.000365	3.648913	1.236285	-0.000146
 575	5.7113e+01	17.1204	101.513778	0.000395	3.952989	1.339309	-0.000158
 576	5.7212e+01	17.0738	101.340181	0.000436	4.358423	1.476674	-0.000174
 577	5.7312e+01	17.0353	101.190807	0.000375	3.750271	1.270626	-0.000150
 578	5.7411e+01	16.9985	100.997025	0.000487	4.865217	1.648380	-0.000195
 579	5.7511e+01	16.9632	100.831502	0.000416	4.155706	1.407991	-0.000166
 580	5.7611e+01	16.9198	100.734611	0.000243	2.432608	0.824190	-0.000097
 581	5.7710e+01	16.8781	100.484309	0.000628	6.284238	2.129158	-0.000252
 582	5.7809e+01	16.8509	100.395492	0.000223	2.229891	0.755508	-0.000089
 583	5.7909e+01	16.7995	100.197672	0.000497	4.966575	1.682721	-0.000199
 584	5.8008e+01	16.7658	100.044261	0.000385	3.851630	1.304968	-0.000154
 585	5.8108e+01	16.7225	99.862590	0.000456	4.561141	1.545356	-0.000183
 586	5.8208e+01	16.6744	99.684956	0.000446	4.459782	1.511015	-0.000179
 587	5.8307e+01	16.6423	99.571916	0.000284	2.838043	0.961555	-0.000114
 588	5.8407e+01	16.6038	99.374096	0.000497	4.966575	1.682721	-0.000199
 589	5.8506e+01	16.5589	99.212611	0.000405	4.054347	1.373650	-0.000162
 590	5.8605e+01	16.5172	99.039014	0.000436	4.358423	1.476674	-0.000174
 591	5.8705e+01	16.4771	98.865417	0.000436	4.358423	1.476674	-0.000174
 592	5.8804e+01	16.4386	98.760452	0.000264	2.635326	0.892873	-0.000105
 593	5.8904e+01	16.4033	98.550521	0.000527	5.270651	1.785745	-0.000211
 594	5.9004e+01	16.3552	98.384998	0.000416	4.155706	1.407991	-0.000166
 595	5.9103e+01	16.3167	98.203327	0.000456	4.561141	1.545356	-0.000183
 596	5.9203e+01	16.2814	98.037804	0.000416	4.155706	1.407991	-0.000166
 597	5.9302e+01	16.2413	97.864207	0.000436	4.358423	1.476674	-0.000174
 598	5.9401e+01	16.1899	97.730982	0.000334	3.344836	1.133261	-0.000134
 599	5.9501e+01	16.1626	97.553348	0.000446	4.459782	1.511015	-0.000179
 600	5.9600e+01	16.1209	97.391863	0.000405	4.054347	1.373650	-0.000162
 601	5.9700e+01	16.0792	97.210191	0.000456	4.561141	1.545356	-0.000183
 602	5.9800e+01	16.0455	97.048706	0.000405	4.054347	1.373650	-0.000162
 603	5.9899e+01	16.0151	96.867035	0.000456	4.561141	1.545356	-0.000183
 604	5.9998e+01	15.9733	96.705549	0.000405	4.054347	1.373650	-0.000162
 605	6.0098e+01	15.9252	96.560213	0.000365	3.648913	1.236285	-0.000146
 606	6.0197e+01	15.8819	96.378541	0.000456	4.561141	1.545356	-0.000183
 607	6.0297e+01	15.8498	96.176685	0.000507	5.067934	1.717063	-0.000203
 608	6.0397e+01	15.8033	95.999051	0.000446	4.459782	1.511015	-0.000179
 609	6.0496e+01	15.7680	95.801231	0.000497	4.966575	1.682721	-0.000199
 610	6.0596e+01	15.7231	95.668006	0.000334	3.344836	1.133261	-0.000134
 611	6.0695e+01	15.6990	95.522669	0.000365	3.648913	1.236285	-0.000146
 612	6.0794e+01	15.6509	95.320812	0.000507	5.067934	1.717063	-0.000203
 613	6.0894e+01	15.6140	95.127029	0.000487	4.865217	1.648380	-0.000195
 614	6.0993e+01	15.5627	94.965544	0.000405	4.054347	1.373650	-0.000162
 615	6.1093e+01	15.5242	94.791947	0.000436	4.358423	1.476674	-0.000174
 616	6.1193e+01	15.4889	94.606239	0.000466	4.662499	1.579698	-0.000187
 617	6.1292e+01	15.4456	94.428605	0.000446	4.459782	1.511015	-0.000179
 618	6.1392e+01	15.4006	94.238860	0.000476	4.763858	1.614039	-0.000191
 619	6.1491e+01	15.3702	94.081411	0.000395	3.952989	1.339309	-0.000158
 620	6.1590e+01	15.3300	93.875517	0.000517	5.169293	1.751404	-0.000207
 621	6.1690e+01	15.2803	93.705958	0.000426	4.257065	1.442333	-0.000170
 622	6.1789e+01	15.2466	93.516212	0.000476	4.763858	1.614039	-0.000191
 623	6.1889e+01	15.2049	93.342615	0.000436	4.358423	1.476674	-0.000174
 624	6.1989e+01	15.1600	93.169019	0.000436	4.358423	1.476674	-0.000174
 625	6.2088e+01	15.1247	93.003496	0.000416	4.155706	1.407991	-0.000166
 626	6.2188e+01	15.0862	92.858159	0.000365	3.648913	1.236285	-0.000146
 627	6.2287e+01	15.0429	92.619968	0.000598	5.980162	2.026134	-0.000239
 628	6.2386e+01	15.0060	92.486743	0.000334	3.344836	1.133261	-0.000134
 629	6.2486e+01	14.9595	92.305072	0.000456	4.561141	1.545356	-0.000183
 630	6.2586e+01	14.9258	92.135512	0.000426	4.257065	1.442333	-0.000170
 631	6.2685e+01	14.8841	91.965952	0.000426	4.257065	1.442333	-0.000170
 632	6.2785e+01	14.8488	91.772170	0.000487	4.865217	1.648380	-0.000195
 633	6.2884e+01	14.8023	91.578387	0.000487	4.865217	1.648380	-0.000195
 634	6.2983e+01	14.7589	91.429013	0.000375	3.750271	1.270626	-0.000150
 635	6.3083e+01	14.7253	91.259453	0.000426	4.257065	1.442333	-0.000170
 636	6.3182e+01	14.6884	91.057597	0.000507	5.067934	1.717063	-0.000203
 637	6.3282e+01	14.6434	90.859777	0.000497	4.966575	1.682721	-0.000199
 638	6.3382e+01	14.6114	90.694254	0.000416	4.155706	1.407991	-0.000166
 639	6.3481e+01	14.5696	90.492398	0.000507	5.067934	1.717063	-0.000203
 640	6.3581e+01	14.5295	90.351098	0.000355	3.547554	1.201944	-0.000142
 641	6.3680e+01	14.4814	90.165390	0.000466	4.662499	1.579698	-0.000187
 642	6.3779e+01	14.4493	89.975644	0.000476	4.763858	1.614039	-0.000191
 643	6.3879e+01	14.4156	89.814159	0.000405	4.054347	1.373650	-0.000162
 644	6.3978e+01	14.3627	89.640562	0.000436	4.358423	1.476674	-0.000174
 645	6.4078e+01	14.3274	89.438705	0.000507	5.067934	1.717063	-0.000203
 646	6.4177e+01	14.2873	89.257034	0.000456	4.561141	1.545356	-0.000183
 647	6.4277e+01	14.2456	89.095549	0.000405	4.054347	1.373650	-0.000162
 648	6.4376e+01	14.2055	88.913877	0.000456	4.561141	1.545356	-0.000183
 649	6.4476e+01	14.1718	88.720095	0.000487	4.865217	1.648380	-0.000195
 650	6.4576e+01	14.1269	88.582832	0.000345	3.446195	1.167603	-0.000138
 651	6.4675e+01	14.0964	88.356753	0.000568	5.676086	1.923110	-0.000227
 652	6.4775e+01	14.0595	88.146822	0.000527	5.270651	1.785745	-0.000211
 653	6.4874e+01	14.0178	87.985336	0.000405	4.054347	1.373650	-0.000162
 654	6.4974e+01	13.9761	87.835962	0.000375	3.750271	1.270626	-0.000150
 655	6.5073e+01	13.9263	87.646217	0.000476	4.763858	1.614039	-0.000191
 656	6.5172e+01	13.8959	87.420137	0.000568	5.676086	1.923110	-0.000227
 657	6.5272e+01	13.8493	87.254615	0.000416	4.155706	1.407991	-0.000166
 658	6.5371e+01	13.8092	87.109278	0.000365	3.648913	1.236285	-0.000146
 659	6.5471e+01	13.7707	86.915495	0.000487	4.865217	1.648380	-0.000195
 660	6.5570e+01	13.7290	86.733824	0.000456	4.561141	1.545356	-0.000183
 661	6.5670e+01	13.6953	86.552153	0.000456	4.561141	1.545356	-0.000183
 662	6.5769e+01	13.6568	86.362408	0.000476	4.763858	1.614039	-0.000191
 663	6.5869e+01	13.6023	86.200922	0.000405	4.054347	1.373650	-0.000162
 664	6.5969e+01	13.5670	85.995028	0.000517	5.169293	1.751404	-0.000207
 665	6.6068e+01	13.5317	85.817394	0.000446	4.459782	1.511015	-0.000179
 666	6.6168e+01	13.5012	85.627649	0.000476	4.763858	1.614039	-0.000191
 667	6.6267e+01	13.4563	85.441941	0.000466	4.662499	1.579698	-0.000187
 668	6.6367e+01	13.4066	85.260270	0.000456	4.561141	1.545356	-0.000183
 669	6.6466e+01	13.3697	85.094747	0.000416	4.155706	1.407991	-0.000166
 670	6.6566e+01	13.3408	84.872705	0.000557	5.574727	1.888769	-0.000223
 671	6.6665e+01	13.2847	84.666811	0.000517	5.169293	1.751404	-0.000207
 672	6.6764e+01	13.2574	84.513400	0.000385	3.851630	1.304968	-0.000154
 673	6.6864e+01	13.2125	84.327691	0.000466	4.662499	1.579698	-0.000187
 674	6.6963e+01	13.1659	84.089500	0.000598	5.980162	2.026134	-0.000239
 675	6.7063e+01	13.1403	83.919941	0.000426	4.257065	1.442333	-0.000170
 676	6.7162e+01	13.0921	83.766529	0.000385	3.851630	1.304968	-0.000154
 677	6.7262e+01	13.0552	83.564673	0.000507	5.067934	1.717063	-0.000203
 678	6.7362e+01	13.0039	83.350704	0.000537	5.372010	1.820086	-0.000215
 679	6.7461e+01	12.9654	83.152885	0.000497	4.966575	1.682721	-0.000199
 680	6.7561e+01	12.9397	82.979288	0.000436	4.358423	1.476674	-0.000174
 681	6.7660e+01	12.9061	82.797617	0.000456	4.561141	1.545356	-0.000183
 682	6.7760e+01	12.8547	82.648243	0.000375	3.750271	1.270626	-0.000150
 683	6.7859e+01	12.8146	82.442349	0.000517	5.169293	1.751404	-0.000207
 684	6.7959e+01	12.7841	82.272789	0.000426	4.257065	1.442333	-0.000170
 685	6.8058e+01	12.7312	82.070932	0.000507	5.067934	1.717063	-0.000203
 686	6.8157e+01	12.6991	81.861001	0.000527	5.270651	1.785745	-0.000211
 687	6.8257e+01	12.6606	81.687405	0.000436	4.358423	1.476674	-0.000174
 688	6.8356e+01	12.6173	81.481511	0.000517	5.169293	1.751404	-0.000207
 689	6.8456e+01	12.5772	81.324062	0.000395	3.952989	1.339309	-0.000158
 690	6.8555e+01	12.5403	81.142391	0.000456	4.561141	1.545356	-0.000183
 691	6.8655e+01	12.5034	80.916312	0.000568	5.676086	1.923110	-0.000227
 692	6.8754e+01	12.4553	80.746752	0.000426	4.257065	1.442333	-0.000170
 693	6.8854e+01	12.4152	80.569118	0.000446	4.459782	1.511015	-0.000179
 694	6.8954e+01	12.3767	80.347075	0.000557	5.574727	1.888769	-0.000223
 695	6.9053e+01	12.3382	80.205776	0.000355	3.547554	1.201944	-0.000142
 696	6.9153e+01	12.3013	80.003919	0.000507	5.067934	1.717063	-0.000203
 697	6.9252e+01	12.2547	79.830322	0.000436	4.358423	1.476674	-0.000174
 698	6.9352e+01	12.2210	79.648651	0.000456	4.561141	1.545356	-0.000183
 699	6.9451e+01	12.1713	79.442757	0.000517	5.169293	1.751404	-0.000207
 700	6.9550e+01	12.1280	79.248975	0.000487	4.865217	1.648380	-0.000195
 701	6.9650e+01	12.0943	79.018858	0.000578	5.777445	1.957451	-0.000231
 702	6.9749e+01	12.0638	78.861410	0.000395	3.952989	1.339309	-0.000158
 703	6.9849e+01	12.0093	78.724147	0.000345	3.446195	1.167603	-0.000138
 704	6.9948e+01	11.9740	78.481919	0.000608	6.081521	2.060475	-0.000243
 705	7.0048e+01	11.9387	78.292173	0.000476	4.763858	1.614039	-0.000191
 706	7.0147e+01	11.9018	78.126651	0.000416	4.155706	1.407991	-0.000166
 707	7.0247e+01	11.8665	77.920757	0.000517	5.169293	1.751404	-0.000207
 708	7.0347e+01	11.8232	77.706789	0.000537	5.372010	1.820086	-0.000215
 709	7.0446e+01	11.7831	77.581637	0.000314	3.142119	1.064579	-0.000126
 710	7.0546e+01	11.7414	77.375744	0.000517	5.169293	1.751404	-0.000207
 711	7.0645e+01	11.6997	77.129478	0.000618	6.182880	2.094816	-0.000248
 712	7.0745e+01	11.6612	76.923584	0.000517	5.169293	1.751404	-0.000207
 713	7.0844e+01	11.6211	76.786322	0.000345	3.446195	1.167603	-0.000138
 714	7.0944e+01	11.5810	76.604651	0.000456	4.561141	1.545356	-0.000183
 715	7.1043e+01	11.5409	76.362422	0.000608	6.081521	2.060475	-0.000243
 716	7.1142e+01	11.5056	76.192863	0.000426	4.257065	1.442333	-0.000170
 717	7.1242e+01	11.4638	75.978895	0.000537	5.372010	1.820086	-0.000215
 718	7.1341e+01	11.4253	75.797223	0.000456	4.561141	1.545356	-0.000183
 719	7.1441e+01	11.3852	75.619590	0.000446	4.459782	1.511015	-0.000179
 720	7.1540e+01	11.3451	75.405621	0.000537	5.372010	1.820086	-0.000215
 721	7.1640e+01	11.3050	75.211839	0.000487	4.865217	1.648380	-0.000195
 722	7.1740e+01	11.2601	75.034205	0.000446	4.459782	1.511015	-0.000179
 723	7.1839e+01	11.2232	74.804088	0.000578	5.777445	1.957451	-0.000231
 724	7.1939e+01	11.1863	74.634528	0.000426	4.257065	1.442333	-0.000170
 725	7.2038e+01	11.1366	74.444783	0.000476	4.763858	1.614039	-0.000191
 726	7.2138e+01	11.1045	74.222741	0.000557	5.574727	1.888769	-0.000223
 727	7.2237e+01	11.0580	74.012809	0.000527	5.270651	1.785745	-0.000211
 728	7.2337e+01	11.0243	73.867473	0.000365	3.648913	1.236285	-0.000146
 729	7.2436e+01	10.9794	73.649467	0.000547	5.473369	1.854428	-0.000219
 730	7.2535e+01	10.9425	73.467796	0.000456	4.561141	1.545356	-0.000183
 731	7.2635e+01	10.9056	73.217494	0.000628	6.284238	2.129158	-0.000252
 732	7.2734e+01	10.8591	73.023711	0.000487	4.865217	1.648380	-0.000195
 733	7.2834e+01	10.8286	72.838003	0.000466	4.662499	1.579698	-0.000187
 734	7.2933e+01	10.7917	72.664406	0.000436	4.358423	1.476674	-0.000174
 735	7.3033e+01	10.7435	72.450438	0.000537	5.372010	1.820086	-0.000215
 736	7.3132e+01	10.7083	72.244544	0.000517	5.169293	1.751404	-0.000207
 737	7.3232e+01	10.6633	72.070947	0.000436	4.358423	1.476674	-0.000174
 738	7.3332e+01	10.6264	71.852942	0.000547	5.473369	1.854428	-0.000219
 739	7.3431e+01	10.5879	71.659159	0.000487	4.865217	1.648380	-0.000195
 740	7.3531e+01	10.5398	71.445191	0.000537	5.372010	1.820086	-0.000215
 741	7.3630e+01	10.5045	71.263520	0.000456	4.561141	1.545356	-0.000183
 742	7.3730e+01	10.4724	71.065700	0.000497	4.966575	1.682721	-0.000199
 743	7.3829e+01	10.4307	70.839621	0.000568	5.676086	1.923110	-0.000227
 744	7.3928e+01	10.3842	70.670061	0.000426	4.257065	1.442333	-0.000170
 745	7.4028e+01	10.3505	70.431870	0.000598	5.980162	2.026134	-0.000239
 746	7.4127e+01	10.3024	70.238088	0.000487	4.865217	1.648380	-0.000195
 747	7.4227e+01	10.2751	70.040268	0.000497	4.966575	1.682721	-0.000199
 748	7.4326e+01	10.2222	69.814188	0.000568	5.676086	1.923110	-0.000227
 749	7.4426e+01	10.1789	69.620406	0.000487	4.865217	1.648380	-0.000195
 750	7.4525e+01	10.1436	69.418549	0.000507	5.067934	1.717063	-0.000203
 751	7.4625e+01	10.1131	69.265138	0.000385	3.851630	1.304968	-0.000154
 752	7.4725e+01	10.0634	69.043095	0.000557	5.574727	1.888769	-0.000223
 753	7.4824e+01	10.0249	68.829127	0.000537	5.372010	1.820086	-0.000215
 754	7.4924e+01	9.9767	68.607085	0.000557	5.574727	1.888769	-0.000223
 755	7.5023e+01	9.9559	68.437525	0.000426	4.257065	1.442333	-0.000170
 756	7.5123e+01	9.9077	68.227594	0.000527	5.270651	1.785745	-0.000211
 757	7.5222e+01	9.8644	68.017663	0.000527	5.270651	1.785745	-0.000211
 758	7.5322e+01	9.8227	67.803695	0.000537	5.372010	1.820086	-0.000215
 759	7.5421e+01	9.7890	67.609912	0.000487	4.865217	1.648380	-0.000195
 760	7.5520e+01	9.7441	67.420167	0.000476	4.763858	1.614039	-0.000191
 761	7.5620e+01	9.7072	67.210236	0.000527	5.270651	1.785745	-0.000211
 762	7.5719e+01	9.6671	66.992230	0.000547	5.473369	1.854428	-0.000219
 763	7.5819e+01	9.6286	66.786337	0.000517	5.169293	1.751404	-0.000207
 764	7.5918e+01	9.5933	66.580443	0.000517	5.169293	1.751404	-0.000207
 765	7.6018e+01	9.5420	66.386660	0.000487	4.865217	1.648380	-0.000195
 766	7.6118e+01	9.5051	66.180766	0.000517	5.169293	1.751404	-0.000207
 767	7.6217e+01	9.4650	65.958724	0.000557	5.574727	1.888769	-0.000223
 768	7.6317e+01	9.4313	65.768978	0.000476	4.763858	1.614039	-0.000191
 769	7.6416e+01	9.3848	65.575196	0.000487	4.865217	1.648380	-0.000195
 770	7.6516e+01	9.3527	65.332968	0.000608	6.081521	2.060475	-0.000243
 771	7.6615e+01	9.3078	65.131111	0.000507	5.067934	1.717063	-0.000203
 772	7.6715e+01	9.2693	64.961551	0.000426	4.257065	1.442333	-0.000170
 773	7.6814e+01	9.2243	64.723360	0.000598	5.980162	2.026134	-0.000239
 774	7.6913e+01	9.1923	64.509392	0.000537	5.372010	1.820086	-0.000215
 775	7.7013e+01	9.1457	64.283312	0.000568	5.676086	1.923110	-0.000227
 776	7.7112e+01	9.1136	64.073381	0.000527	5.270651	1.785745	-0.000211
 777	7.7212e+01	9.0767	63.863450	0.000527	5.270651	1.785745	-0.000211
 778	7.7311e+01	9.0238	63.621222	0.000608	6.081521	2.060475	-0.000243
 779	7.7411e+01	8.9997	63.427440	0.000487	4.865217	1.648380	-0.000195
 780	7.7510e+01	8.9548	63.193286	0.000588	5.878804	1.991793	-0.000235
 781	7.7610e+01	8.9067	63.023726	0.000426	4.257065	1.442333	-0.000170
 782	7.7710e+01	8.8682	62.793609	0.000578	5.777445	1.957451	-0.000231
 783	7.7809e+01	8.8329	62.547344	0.000618	6.182880	2.094816	-0.000248
 784	7.7909e+01	8.7928	62.377784	0.000426	4.257065	1.442333	-0.000170
 785	7.8008e+01	8.7511	62.139593	0.000598	5.980162	2.026134	-0.000239
 786	7.8108e+01	8.7142	61.913514	0.000568	5.676086	1.923110	-0.000227
 787	7.8207e+01	8.6693	61.707620	0.000517	5.169293	1.751404	-0.000207
 788	7.8306e+01	8.6372	61.517874	0.000476	4.763858	1.614039	-0.000191
 789	7.8406e+01	8.5826	61.299869	0.000547	5.473369	1.854428	-0.000219
 790	7.8505e+01	8.5538	61.093975	0.000517	5.169293	1.751404	-0.000207
 791	7.8605e+01	8.5121	60.847710	0.000618	6.182880	2.094816	-0.000248
 792	7.8704e+01	8.4752	60.649890	0.000497	4.966575	1.682721	-0.000199
 793	7.8804e+01	8.4318	60.439959	0.000527	5.270651	1.785745	-0.000211
 794	7.8903e+01	8.3982	60.201768	0.000598	5.980162	2.026134	-0.000239
 795	7.9003e+01	8.3500	59.979726	0.000557	5.574727	1.888769	-0.000223
 796	7.9103e+01	8.3196	59.757683	0.000557	5.574727	1.888769	-0.000223
 797	7.9202e+01	8.2810	59.523529	0.000588	5.878804	1.991793	-0.000235
 798	7.9302e+01	8.2345	59.353970	0.000426	4.257065	1.442333	-0.000170
 799	7.9401e+01	8.1928	59.140001	0.000537	5.372010	1.820086	-0.000215
 800	7.9501e+01	8.1575	58.901810	0.000598	5.980162	2.026134	-0.000239
 801	7.9600e+01	8.1158	58.679768	0.000557	5.574727	1.888769	-0.000223
 802	7.9700e+01	8.0789	58.477911	0.000507	5.067934	1.717063	-0.000203
 803	7.9799e+01	8.0388	58.239720	0.000598	5.980162	2.026134	-0.000239
 804	7.9898e+01	7.9923	58.033826	0.000517	5.169293	1.751404	-0.000207
 805	7.9998e+01	7.9538	57.823895	0.000527	5.270651	1.785745	-0.000211
 806	8.0097e+01	7.9153	57.581667	0.000608	6.081521	2.060475	-0.000243
 807	8.0197e+01	7.8752	57.391922	0.000476	4.763858	1.614039	-0.000191
 808	8.0296e+01	7.8303	57.157768	0.000588	5.878804	1.991793	-0.000235
 809	8.0396e+01	7.7966	56.931688	0.000568	5.676086	1.923110	-0.000227
 810	8.0496e+01	7.7549	56.717720	0.000537	5.372010	1.820086	-0.000215
 811	8.0595e+01	7.7115	56.507789	0.000527	5.270651	1.785745	-0.000211
 812	8.0695e+01	7.6763	56.265561	0.000608	6.081521	2.060475	-0.000243
 813	8.0794e+01	7.6329	56.067741	0.000497	4.966575	1.682721	-0.000199
 814	8.0894e+01	7.5928	55.865884	0.000507	5.067934	1.717063	-0.000203
 815	8.0993e+01	7.5591	55.647879	0.000547	5.473369	1.854428	-0.000219
 816	8.1093e+01	7.5158	55.405651	0.000608	6.081521	2.060475	-0.000243
 817	8.1192e+01	7.4854	55.219943	0.000466	4.662499	1.579698	-0.000187
 818	8.1291e+01	7.4356	54.953492	0.000669	6.689673	2.266523	-0.000268
 819	8.1391e+01	7.4003	54.743561	0.000527	5.270651	1.785745	-0.000211
 820	8.1490e+01	7.3570	54.533630	0.000527	5.270651	1.785745	-0.000211
 821	8.1590e+01	7.3217	54.339847	0.000487	4.865217	1.648380	-0.000195
 822	8.1689e+01	7.2768	54.081470	0.000649	6.486956	2.197840	-0.000260
 823	8.1789e+01	7.2351	53.855391	0.000568	5.676086	1.923110	-0.000227
 824	8.1888e+01	7.1934	53.625274	0.000578	5.777445	1.957451	-0.000231
 825	8.1988e+01	7.1517	53.411306	0.000537	5.372010	1.820086	-0.000215
 826	8.2088e+01	7.1148	53.185226	0.000568	5.676086	1.923110	-0.000227
 827	8.2187e+01	7.0715	52.959147	0.000568	5.676086	1.923110	-0.000227
 828	8.2287e+01	7.0410	52.737104	0.000557	5.574727	1.888769	-0.000223
 829	8.2386e+01	7.0025	52.539284	0.000497	4.966575	1.682721	-0.000199
 830	8.2486e+01	6.9592	52.301093	0.000598	5.980162	2.026134	-0.000239
 831	8.2585e+01	6.9158	52.107311	0.000487	4.865217	1.648380	-0.000195
 832	8.2684e+01	6.8806	51.820674	0.000720	7.196466	2.438229	-0.000288
 833	8.2784e+01	6.8372	51.614780	0.000517	5.169293	1.751404	-0.000207
 834	8.2883e+01	6.8052	51.388701	0.000568	5.676086	1.923110	-0.000227
 835	8.2983e+01	6.7602	51.162621	0.000568	5.676086	1.923110	-0.000227
 836	8.3082e+01	6.7169	50.993062	0.000426	4.257065	1.442333	-0.000170
 837	8.3182e+01	6.6768	50.714499	0.000699	6.993749	2.369546	-0.000280
 838	8.3281e+01	6.6479	50.488420	0.000568	5.676086	1.923110	-0.000227
 839	8.3381e+01	6.5966	50.278488	0.000527	5.270651	1.785745	-0.000211
 840	8.3481e+01	6.5629	50.016075	0.000659	6.588314	2.232181	-0.000264
 841	8.3580e+01	6.5180	49.806144	0.000527	5.270651	1.785745	-0.000211
 842	8.3680e+01	6.4699	49.580064	0.000568	5.676086	1.923110	-0.000227
 843	8.3779e+01	6.4458	49.366096	0.000537	5.372010	1.820086	-0.000215
 844	8.3879e+01	6.3961	49.131942	0.000588	5.878804	1.991793	-0.000235
 845	8.3978e+01	6.3608	48.938159	0.000487	4.865217	1.648380	-0.000195
 846	8.4078e+01	6.3287	48.659597	0.000699	6.993749	2.369546	-0.000280
 847	8.4177e+01	6.2822	48.425443	0.000588	5.878804	1.991793	-0.000235
 848	8.4276e+01	6.2469	48.191289	0.000588	5.878804	1.991793	-0.000235
 849	8.4376e+01	6.2052	48.013655	0.000446	4.459782	1.511015	-0.000179
 850	8.4475e+01	6.1586	47.747204	0.000669	6.689673	2.266523	-0.000268
 851	8.4575e+01	6.1282	47.509013	0.000598	5.980162	2.026134	-0.000239
 852	8.4674e+01	6.0849	47.291008	0.000547	5.473369	1.854428	-0.000219
 853	8.4774e+01	6.0464	47.081077	0.000527	5.270651	1.785745	-0.000211
 854	8.4874e+01	5.9982	46.854997	0.000568	5.676086	1.923110	-0.000227
 855	8.4973e+01	5.9661	46.636992	0.000547	5.473369	1.854428	-0.000219
 856	8.5073e+01	5.9260	46.414950	0.000557	5.574727	1.888769	-0.000223
 857	8.5172e+01	5.8779	46.156573	0.000649	6.486956	2.197840	-0.000260
 858	8.5272e+01	5.8394	45.950679	0.000517	5.169293	1.751404	-0.000207
 859	8.5371e+01	5.8025	45.728637	0.000557	5.574727	1.888769	-0.000223
 860	8.5471e+01	5.7576	45.474297	0.000639	6.385597	2.163499	-0.000256
 861	8.5570e+01	5.7239	45.240143	0.000588	5.878804	1.991793	-0.000235
 862	8.5669e+01	5.6790	45.005989	0.000588	5.878804	1.991793	-0.000235
 863	8.5769e+01	5.6437	44.820281	0.000466	4.662499	1.579698	-0.000187
 864	8.5868e+01	5.6084	44.561904	0.000649	6.486956	2.197840	-0.000260
 865	8.5968e+01	5.5635	44.343899	0.000547	5.473369	1.854428	-0.000219
 866	8.6067e+01	5.5266	44.138005	0.000517	5.169293	1.751404	-0.000207
 867	8.6167e+01	5.4865	43.867517	0.000679	6.791032	2.300864	-0.000272
 868	8.6266e+01	5.4528	43.681809	0.000466	4.662499	1.579698	-0.000187
 869	8.6366e+01	5.4143	43.427469	0.000639	6.385597	2.163499	-0.000256
 870	8.6466e+01	5.3678	43.156981	0.000679	6.791032	2.300864	-0.000272
 871	8.6565e+01	5.3212	42.983384	0.000436	4.358423	1.476674	-0.000174
 872	8.6665e+01	5.2843	42.765379	0.000547	5.473369	1.854428	-0.000219
 873	8.6764e+01	5.2490	42.519114	0.000618	6.182880	2.094816	-0.000248
 874	8.6864e+01	5.2057	42.272848	0.000618	6.182880	2.094816	-0.000248
 875	8.6963e+01	5.1672	42.034657	0.000598	5.980162	2.026134	-0.000239
 876	8.7063e+01	5.1255	41.820689	0.000537	5.372010	1.820086	-0.000215
 877	8.7162e+01	5.0806	41.562312	0.000649	6.486956	2.197840	-0.000260
 878	8.7261e+01	5.0501	41.332196	0.000578	5.777445	1.957451	-0.000231
 879	8.7361e+01	5.0036	41.114190	0.000547	5.473369	1.854428	-0.000219
 880	8.7460e+01	4.9587	40.880036	0.000588	5.878804	1.991793	-0.000235
 881	8.7560e+01	4.9202	40.670105	0.000527	5.270651	1.785745	-0.000211
 882	8.7659e+01	4.8897	40.439989	0.000578	5.777445	1.957451	-0.000231
 883	8.7759e+01	4.8448	40.157389	0.000710	7.095108	2.403888	-0.000284
 884	8.7859e+01	4.8159	39.915161	0.000608	6.081521	2.060475	-0.000243
 885	8.7958e+01	4.7678	39.685044	0.000578	5.777445	1.957451	-0.000231
 886	8.8058e+01	4.7293	39.483188	0.000507	5.067934	1.717063	-0.000203
 887	8.8157e+01	4.6860	39.261145	0.000557	5.574727	1.888769	-0.000223
 888	8.8257e+01	4.6507	39.031028	0.000578	5.777445	1.957451	-0.000231
 889	8.8356e+01	4.6138	38.780726	0.000628	6.284238	2.129158	-0.000252
 890	8.8456e+01	4.5640	38.506201	0.000689	6.892390	2.335205	-0.000276
 891	8.8555e+01	4.5255	38.296270	0.000527	5.270651	1.785745	-0.000211
 892	8.8654e+01	4.4902	38.078264	0.000547	5.473369	1.854428	-0.000219
 893	8.8754e+01	4.4485	37.803739	0.000689	6.892390	2.335205	-0.000276
 894	8.8853e+01	4.4084	37.589771	0.000537	5.372010	1.820086	-0.000215
 895	8.8953e+01	4.3651	37.343506	0.000618	6.182880	2.094816	-0.000248
 896	8.9052e+01	4.3314	37.105315	0.000598	5.980162	2.026134	-0.000239
 897	8.9152e+01	4.2897	36.867124	0.000598	5.980162	2.026134	-0.000239
 898	8.9251e+01	4.2544	36.608747	0.000649	6.486956	2.197840	-0.000260
 899	8.9351e+01	4.2063	36.406890	0.000507	5.067934	1.717063	-0.000203
 900	8.9451e+01	4.1630	36.136402	0.000679	6.791032	2.300864	-0.000272
 901	8.9550e+01	4.1325	35.902248	0.000588	5.878804	1.991793	-0.000235
 902	8.9650e+01	4.0972	35.684243	0.000547	5.473369	1.854428	-0.000219
 903	8.9749e+01	4.0459	35.458163	0.000568	5.676086	1.923110	-0.000227
 904	8.9849e+01	4.0138	35.171527	0.000720	7.196466	2.438229	-0.000288
 905	8.9948e+01	3.9785	34.965633	0.000517	5.169293	1.751404	-0.000207
 906	9.0047e+01	3.9207	34.711293	0.000639	6.385597	2.163499	-0.000256
 907	9.0147e+01	3.8887	34.436768	0.000689	6.892390	2.335205	-0.000276
 908	9.0246e+01	3.8421	34.226837	0.000527	5.270651	1.785745	-0.000211
 909	9.0346e+01	3.8149	33.980572	0.000618	6.182880	2.094816	-0.000248
 910	9.0445e+01	3.7683	33.718158	0.000659	6.588314	2.232181	-0.000264
 911	9.0545e+01	3.7266	33.520338	0.000497	4.966575	1.682721	-0.000199
 912	9.0644e+01	3.6962	33.257924	0.000659	6.588314	2.232181	-0.000264
 913	9.0744e+01	3.6544	33.027807	0.000578	5.777445	1.957451	-0.000231
 914	9.0844e+01	3.6079	32.789616	0.000598	5.980162	2.026134	-0.000239
 915	9.0943e+01	3.5694	32.511054	0.000699	6.993749	2.369546	-0.000280
 916	9.1043e+01	3.5373	32.329383	0.000456	4.561141	1.545356	-0.000183
 917	9.1142e+01	3.4988	32.062932	0.000669	6.689673	2.266523	-0.000268
 918	9.1242e+01	3.4491	31.820704	0.000608	6.081521	2.060475	-0.000243
 919	9.1341e+01	3.4202	31.586550	0.000588	5.878804	1.991793	-0.000235
 920	9.1441e+01	3.3673	31.344322	0.000608	6.081521	2.060475	-0.000243
 921	9.1540e+01	3.3368	31.073834	0.000679	6.791032	2.300864	-0.000272
 922	9.1639e+01	3.2951	30.843717	0.000578	5.777445	1.957451	-0.000231
 923	9.1739e+01	3.2518	30.625712	0.000547	5.473369	1.854428	-0.000219
 924	9.1838e+01	3.2213	30.326964	0.000750	7.500542	2.541253	-0.000300
 925	9.1938e+01	3.1684	30.112995	0.000537	5.372010	1.820086	-0.000215
 926	9.2037e+01	3.1363	29.870767	0.000608	6.081521	2.060475	-0.000243
 927	9.2137e+01	3.0865	29.600279	0.000679	6.791032	2.300864	-0.000272
 928	9.2237e+01	3.0593	29.390348	0.000527	5.270651	1.785745	-0.000211
 929	9.2336e+01	3.0127	29.176380	0.000537	5.372010	1.820086	-0.000215
 930	9.2436e+01	2.9710	28.881669	0.000740	7.399184	2.506911	-0.000296
 931	9.2535e+01	2.9293	28.655589	0.000568	5.676086	1.923110	-0.000227
 932	9.2635e+01	2.8940	28.425473	0.000578	5.777445	1.957451	-0.000231
 933	9.2734e+01	2.8507	28.142873	0.000710	7.095108	2.403888	-0.000284
 934	9.2834e+01	2.8138	27.900645	0.000608	6.081521	2.060475	-0.000243
 935	9.2933e+01	2.7914	27.650343	0.000628	6.284238	2.129158	-0.000252
 936	9.3032e+01	2.7384	27.452523	0.000497	4.966575	1.682721	-0.000199
 937	9.3132e+01	2.6951	27.169924	0.000710	7.095108	2.403888	-0.000284
 938	9.3231e+01	2.6582	26.935770	0.000588	5.878804	1.991793	-0.000235
 939	9.3331e+01	2.6181	26.677393	0.000649	6.486956	2.197840	-0.000260
 940	9.3430e+01	2.5812	26.451313	0.000568	5.676086	1.923110	-0.000227
 941	9.3530e+01	2.5331	26.164677	0.000720	7.196466	2.438229	-0.000288
 942	9.3629e+01	2.4914	25.922449	0.000608	6.081521	2.060475	-0.000243
 943	9.3729e+01	2.4609	25.664072	0.000649	6.486956	2.197840	-0.000260
 944	9.3829e+01	2.4144	25.413769	0.000628	6.284238	2.129158	-0.000252
 945	9.3928e+01	2.3695	25.179616	0.000588	5.878804	1.991793	-0.000235
 946	9.4028e+01	2.3358	24.917202	0.000659	6.588314	2.232181	-0.000264
 947	9.4127e+01	2.2908	24.626528	0.000730	7.297825	2.472570	-0.000292
 948	9.4227e+01	2.2572	24.388337	0.000598	5.980162	2.026134	-0.000239
 949	9.4326e+01	2.2187	24.166295	0.000557	5.574727	1.888769	-0.000223
 950	9.4425e+01	2.1802	23.928104	0.000598	5.980162	2.026134	-0.000239
 951	9.4525e+01	2.1400	23.593021	0.000841	8.412771	2.850324	-0.000337
 952	9.4624e+01	2.0983	23.391164	0.000507	5.067934	1.717063	-0.000203
 953	9.4724e+01	2.0550	23.132788	0.000649	6.486956	2.197840	-0.000260
 954	9.4823e+01	2.0149	22.894597	0.000598	5.980162	2.026134	-0.000239
 955	9.4923e+01	1.9828	22.611997	0.000710	7.095108	2.403888	-0.000284
 956	9.5022e+01	1.9379	22.381881	0.000578	5.777445	1.957451	-0.000231
 957	9.5122e+01	1.9042	22.115430	0.000669	6.689673	2.266523	-0.000268
 958	9.5222e+01	1.8593	21.844941	0.000679	6.791032	2.300864	-0.000272
 959	9.5321e+01	1.8176	21.590602	0.000639	6.385597	2.163499	-0.000256
 960	9.5421e+01	1.7823	21.316077	0.000689	6.892390	2.335205	-0.000276
 961	9.5520e+01	1.7390	21.122294	0.000487	4.865217	1.648380	-0.000195
 962	9.5620e+01	1.7005	20.855843	0.000669	6.689673	2.266523	-0.000268
 963	9.5719e+01	1.6620	20.573244	0.000710	7.095108	2.403888	-0.000284
 964	9.5819e+01	1.6235	20.310830	0.000659	6.588314	2.232181	-0.000264
 965	9.5918e+01	1.5754	20.080713	0.000578	5.777445	1.957451	-0.000231
 966	9.6017e+01	1.5417	19.786002	0.000740	7.399184	2.506911	-0.000296
 967	9.6117e+01	1.5032	19.543774	0.000608	6.081521	2.060475	-0.000243
 968	9.6216e+01	1.4534	19.289435	0.000639	6.385597	2.163499	-0.000256
 969	9.6316e+01	1.4149	19.079503	0.000527	5.270651	1.785745	-0.000211
 970	9.6415e+01	1.3796	18.809015	0.000679	6.791032	2.300864	-0.000272
 971	9.6515e+01	1.3411	18.530453	0.000699	6.993749	2.369546	-0.000280
 972	9.6615e+01	1.2962	18.280151	0.000628	6.284238	2.129158	-0.000252
 973	9.6714e+01	1.2593	18.017737	0.000659	6.588314	2.232181	-0.000264
 974	9.6814e+01	1.2192	17.735137	0.000710	7.095108	2.403888	-0.000284
 975	9.6913e+01	1.1855	17.521169	0.000537	5.372010	1.820086	-0.000215
 976	9.7013e+01	1.1406	17.214347	0.000770	7.703260	2.609935	-0.000308
 977	9.7112e+01	1.0925	16.964044	0.000628	6.284238	2.129158	-0.000252
 978	9.7212e+01	1.0684	16.737965	0.000568	5.676086	1.923110	-0.000227
 979	9.7311e+01	1.0123	16.487662	0.000628	6.284238	2.129158	-0.000252
 980	9.7410e+01	0.9818	16.196989	0.000730	7.297825	2.472570	-0.000292
 981	9.7510e+01	0.9369	15.978983	0.000547	5.473369	1.854428	-0.000219
 982	9.7609e+01	0.9016	15.700421	0.000699	6.993749	2.369546	-0.000280
 983	9.7709e+01	0.8599	15.462230	0.000598	5.980162	2.026134	-0.000239
 984	9.7808e+01	0.8198	15.207890	0.000639	6.385597	2.163499	-0.000256
 985	9.7908e+01	0.7909	14.913179	0.000740	7.399184	2.506911	-0.000296
 986	9.8007e+01	0.7331	14.610394	0.000760	7.601901	2.575594	-0.000304
 987	9.8107e+01	0.6978	14.372203	0.000598	5.980162	2.026134	-0.000239
 988	9.8207e+01	0.6674	14.150161	0.000557	5.574727	1.888769	-0.000223
 989	9.8306e+01	0.6273	13.867561	0.000710	7.095108	2.403888	-0.000284
 990	9.8406e+01	0.5791	13.588999	0.000699	6.993749	2.369546	-0.000280
 991	9.8505e+01	0.5470	13.314474	0.000689	6.892390	2.335205	-0.000276
 992	9.8605e+01	0.5085	13.072246	0.000608	6.081521	2.060475	-0.000243
 993	9.8704e+01	0.4652	12.842129	0.000578	5.777445	1.957451	-0.000231
 994	9.8803e+01	0.4283	12.591826	0.000628	6.284238	2.129158	-0.000252
 995	9.8903e+01	0.3818	12.297115	0.000740	7.399184	2.506911	-0.000296
 996	9.9002e+01	0.3385	12.058924	0.000598	5.980162	2.026134	-0.000239
 997	9.9102e+01	0.3032	11.800548	0.000649	6.486956	2.197840	-0.000260
 998	9.9201e+01	0.2647	11.550245	0.000628	6.284238	2.129158	-0.000252
 999	9.9301e+01	0.2262	11.263609	0.000720	7.196466	2.438229	-0.000288
1000	9.9400e+01	0.1877	11.037529	0.000568	5.676086	1.923110	-0.000227
1001	9.9500e+01	0.1492	10.763004	0.000689	6.892390	2.335205	-0.000276
1002	9.9600e+01	0.0914	10.476367	0.000720	7.196466	2.438229	-0.000288
1003	9.9699e+01	0.0690	10.217991	0.000649	6.486956	2.197840	-0.000260
1004	9.9799e+01	0.0193	9.915205	0.000760	7.601901	2.575594	-0.000304
1005	9.9898e+01	-0.0080	9.725460	0.000476	4.763858	1.614039	-0.000191
1006	9.9998e+01	-0.0545	9.467083	0.000649	6.486956	2.197840	-0.000260
1007	1.0010e+02	-0.0866	9.180447	0.000720	7.196466	2.438229	-0.000288
1008	1.0020e+02	-0.1283	8.946293	0.000588	5.878804	1.991793	-0.000235
1009	1.0030e+02	-0.1717	8.683879	0.000659	6.588314	2.232181	-0.000264
1010	1.0040e+02	-0.2053	8.433577	0.000628	6.284238	2.129158	-0.000252
1011	1.0050e+02	-0.2471	8.199423	0.000588	5.878804	1.991793	-0.000235
1012	1.0059e+02	-0.3000	7.904712	0.000740	7.399184	2.506911	-0.000296
1013	1.0069e+02	-0.3289	7.638261	0.000669	6.689673	2.266523	-0.000268
1014	1.0079e+02	-0.3610	7.371810	0.000669	6.689673	2.266523	-0.000268
1015	1.0089e+02	-0.4027	7.101322	0.000679	6.791032	2.300864	-0.000272
1016	1.0099e+02	-0.4476	6.859094	0.000608	6.081521	2.060475	-0.000243
1017	1.0109e+02	-0.4781	6.560346	0.000750	7.500542	2.541253	-0.000300
1018	1.0119e+02	-0.5310	6.261598	0.000750	7.500542	2.541253	-0.000300
1019	1.0129e+02	-0.5647	6.047629	0.000537	5.372010	1.820086	-0.000215
1020	1.0139e+02	-0.6032	5.765030	0.000710	7.095108	2.403888	-0.000284
1021	1.0149e+02	-0.6465	5.526839	0.000598	5.980162	2.026134	-0.000239
1022	1.0159e+02	-0.6834	5.252314	0.000689	6.892390	2.335205	-0.000276
1023	1.0169e+02	-0.7267	5.006048	0.000618	6.182880	2.094816	-0.000248
1024	1.0179e+02	-0.7556	4.723449	0.000710	7.095108	2.403888	-0.000284
1025	1.0189e+02	-0.8069	4.456998	0.000669	6.689673	2.266523	-0.000268
1026	1.0199e+02	-0.8454	4.218807	0.000598	5.980162	2.026134	-0.000239
1027	1.0209e+02	-0.8903	3.964467	0.000639	6.385597	2.163499	-0.000256
1028	1.0219e+02	-0.9240	3.677831	0.000720	7.196466	2.438229	-0.000288
1029	1.0229e+02	-0.9641	3.459825	0.000547	5.473369	1.854428	-0.000219
1030	1.0239e+02	-1.0042	3.173189	0.000720	7.196466	2.438229	-0.000288
1031	1.0248e+02	-1.0428	2.926923	0.000618	6.182880	2.094816	-0.000248
1032	1.0258e+02	-1.0796	2.656435	0.000679	6.791032	2.300864	-0.000272
1033	1.0268e+02	-1.1230	2.410170	0.000618	6.182880	2.094816	-0.000248
1034	1.0278e+02	-1.1631	2.196202	0.000537	5.372010	1.820086	-0.000215
1035	1.0288e+02	-1.2016	1.897454	0.000750	7.500542	2.541253	-0.000300
1036	1.0298e+02	-1.2465	1.610817	0.000720	7.196466	2.438229	-0.000288
1037	1.0308e+02	-1.2866	1.308032	0.000760	7.601901	2.575594	-0.000304
1038	1.0318e+02	-1.3203	1.110212	0.000497	4.966575	1.682721	-0.000199
1039	1.0328e+02	-1.3652	0.851836	0.000649	6.486956	2.197840	-0.000260
1040	1.0338e+02	-1.4069	0.617682	0.000588	5.878804	1.991793	-0.000235
1041	1.0348e+02	-1.4486	0.327008	0.000730	7.297825	2.472570	-0.000292
1042	1.0358e+02	-1.4775	0.072668	0.000639	6.385597	2.163499	-0.000256
1043	1.0368e+02	-1.5272	-0.197820	0.000679	6.791032	2.300864	-0.000272
1044	1.0378e+02	-1.5593	-0.440048	0.000608	6.081521	2.060475	-0.000243
1045	1.0388e+02	-1.6090	-0.734759	0.000740	7.399184	2.506911	-0.000296
1046	1.0398e+02	-1.6443	-0.944690	0.000527	5.270651	1.785745	-0.000211
1047	1.0408e+02	-1.6828	-1.219215	0.000689	6.892390	2.335205	-0.000276
1048	1.0418e+02	-1.7229	-1.497777	0.000699	6.993749	2.369546	-0.000280
1049	1.0428e+02	-1.7631	-1.752117	0.000639	6.385597	2.163499	-0.000256
1050	1.0438e+02	-1.8016	-2.010494	0.000649	6.486956	2.197840	-0.000260
1051	1.0447e+02	-1.8401	-2.260796	0.000628	6.284238	2.129158	-0.000252
1052	1.0457e+02	-1.8866	-2.523210	0.000659	6.588314	2.232181	-0.000264
1053	1.0467e+02	-1.9187	-2.785624	0.000659	6.588314	2.232181	-0.000264
1054	1.0477e+02	-1.9524	-3.080335	0.000740	7.399184	2.506911	-0.000296
1055	1.0487e+02	-2.0005	-3.286228	0.000517	5.169293	1.751404	-0.000207
1056	1.0497e+02	-2.0342	-3.593051	0.000770	7.703260	2.609935	-0.000308
1057	1.0507e+02	-2.0727	-3.819130	0.000568	5.676086	1.923110	-0.000227
1058	1.0517e+02	-2.1160	-4.101730	0.000710	7.095108	2.403888	-0.000284
1059	1.0527e+02	-2.1593	-4.339921	0.000598	5.980162	2.026134	-0.000239
1060	1.0537e+02	-2.1946	-4.590223	0.000628	6.284238	2.129158	-0.000252
1061	1.0547e+02	-2.2427	-4.868786	0.000699	6.993749	2.369546	-0.000280
1062	1.0557e+02	-2.2748	-5.102940	0.000588	5.878804	1.991793	-0.000235
1063	1.0567e+02	-2.3261	-5.417836	0.000791	7.905977	2.678618	-0.000316
1064	1.0577e+02	-2.3678	-5.647953	0.000578	5.777445	1.957451	-0.000231
1065	1.0587e+02	-2.3999	-5.874032	0.000568	5.676086	1.923110	-0.000227
1066	1.0597e+02	-2.4400	-6.164706	0.000730	7.297825	2.472570	-0.000292
1067	1.0607e+02	-2.4769	-6.370600	0.000517	5.169293	1.751404	-0.000207
1068	1.0617e+02	-2.5138	-6.637051	0.000669	6.689673	2.266523	-0.000268
1069	1.0627e+02	-2.5555	-6.915614	0.000699	6.993749	2.369546	-0.000280
1070	1.0637e+02	-2.5956	-7.186102	0.000679	6.791032	2.300864	-0.000272
1071	1.0647e+02	-2.6342	-7.440441	0.000639	6.385597	2.163499	-0.000256
1072	1.0656e+02	-2.6791	-7.719004	0.000699	6.993749	2.369546	-0.000280
1073	1.0666e+02	-2.7192	-7.932972	0.000537	5.372010	1.820086	-0.000215
1074	1.0676e+02	-2.7561	-8.183274	0.000628	6.284238	2.129158	-0.000252
1075	1.0686e+02	-2.8074	-8.449725	0.000669	6.689673	2.266523	-0.000268
1076	1.0696e+02	-2.8443	-8.740399	0.000730	7.297825	2.472570	-0.000292
1077	1.0706e+02	-2.8844	-8.986664	0.000618	6.182880	2.094816	-0.000248
1078	1.0716e+02	-2.9149	-9.265227	0.000699	6.993749	2.369546	-0.000280
1079	1.0726e+02	-2.9598	-9.454972	0.000476	4.763858	1.614039	-0.000191
1080	1.0736e+02	-2.9951	-9.721423	0.000669	6.689673	2.266523	-0.000268
1081	1.0746e+02	-3.0352	-9.983837	0.000659	6.588314	2.232181	-0.000264
1082	1.0756e+02	-3.0769	-10.258362	0.000689	6.892390	2.335205	-0.000276
1083	1.0766e+02	-3.1154	-10.496553	0.000598	5.980162	2.026134	-0.000239
1084	1.0776e+02	-3.1539	-10.722633	0.000568	5.676086	1.923110	-0.000227
1085	1.0786e+02	-3.2004	-11.025418	0.000760	7.601901	2.575594	-0.000304
1086	1.0796e+02	-3.2406	-11.275720	0.000628	6.284238	2.129158	-0.000252
1087	1.0806e+02	-3.2758	-11.493725	0.000547	5.473369	1.854428	-0.000219
1088	1.0816e+02	-3.3176	-11.727879	0.000588	5.878804	1.991793	-0.000235
1089	1.0826e+02	-3.3577	-11.970107	0.000608	6.081521	2.060475	-0.000243
1090	1.0836e+02	-3.3913	-12.208298	0.000598	5.980162	2.026134	-0.000239
1091	1.0845e+02	-3.4379	-12.470712	0.000659	6.588314	2.232181	-0.000264
1092	1.0855e+02	-3.4748	-12.769460	0.000750	7.500542	2.541253	-0.000300
1093	1.0865e+02	-3.5165	-12.999577	0.000578	5.777445	1.957451	-0.000231
1094	1.0875e+02	-3.5598	-13.274102	0.000689	6.892390	2.335205	-0.000276
1095	1.0885e+02	-3.5903	-13.500182	0.000568	5.676086	1.923110	-0.000227
1096	1.0895e+02	-3.6384	-13.730299	0.000578	5.777445	1.957451	-0.000231
1097	1.0905e+02	-3.6753	-13.992712	0.000659	6.588314	2.232181	-0.000264
1098	1.0915e+02	-3.7170	-14.198606	0.000517	5.169293	1.751404	-0.000207
1099	1.0925e+02	-3.7587	-14.461020	0.000659	6.588314	2.232181	-0.000264
1100	1.0935e+02	-3.8020	-14.699211	0.000598	5.980162	2.026134	-0.000239
1101	1.0945e+02	-3.8453	-14.997959	0.000750	7.500542	2.541253	-0.000300
1102	1.0955e+02	-3.8694	-15.183668	0.000466	4.662499	1.579698	-0.000187
1103	1.0965e+02	-3.9095	-15.466267	0.000710	7.095108	2.403888	-0.000284
1104	1.0975e+02	-3.9496	-15.692347	0.000568	5.676086	1.923110	-0.000227
1105	1.0985e+02	-3.9961	-15.970909	0.000699	6.993749	2.369546	-0.000280
1106	1.0995e+02	-4.0330	-16.221211	0.000628	6.284238	2.129158	-0.000252
1107	1.1005e+02	-4.0812	-16.463440	0.000608	6.081521	2.060475	-0.000243
1108	1.1015e+02	-4.1181	-16.701631	0.000598	5.980162	2.026134	-0.000239
1109	1.1025e+02	-4.1469	-16.960007	0.000649	6.486956	2.197840	-0.000260
1110	1.1035e+02	-4.1887	-17.206273	0.000618	6.182880	2.094816	-0.000248
1111	1.1044e+02	-4.2336	-17.420241	0.000537	5.372010	1.820086	-0.000215
1112	1.1054e+02	-4.2753	-17.723026	0.000760	7.601901	2.575594	-0.000304
1113	1.1064e+02	-4.3090	-17.993514	0.000679	6.791032	2.300864	-0.000272
1114	1.1074e+02	-4.3555	-18.211519	0.000547	5.473369	1.854428	-0.000219
1115	1.1084e+02	-4.3892	-18.429525	0.000547	5.473369	1.854428	-0.000219
1116	1.1094e+02	-4.4389	-18.708087	0.000699	6.993749	2.369546	-0.000280
1117	1.1104e+02	-4.4774	-18.982612	0.000689	6.892390	2.335205	-0.000276
1118	1.1114e+02	-4.5127	-19.200618	0.000547	5.473369	1.854428	-0.000219
1119	1.1124e+02	-4.5544	-19.463031	0.000659	6.588314	2.232181	-0.000264
1120	1.1134e+02	-4.5913	-19.672962	0.000527	5.270651	1.785745	-0.000211
1121	1.1144e+02	-4.6266	-19.947488	0.000689	6.892390	2.335205	-0.000276
1122	1.1154e+02	-4.6699	-20.169530	0.000557	5.574727	1.888769	-0.000223
1123	1.1164e+02	-4.7100	-20.444055	0.000689	6.892390	2.335205	-0.000276
1124	1.1174e+02	-4.7549	-20.637838	0.000487	4.865217	1.648380	-0.000195
1125	1.1184e+02	-4.7934	-20.908326	0.000679	6.791032	2.300864	-0.000272
1126	1.1194e+02	-4.8352	-21.174777	0.000669	6.689673	2.266523	-0.000268
1127	1.1204e+02	-4.8688	-21.392782	0.000547	5.473369	1.854428	-0.000219
1128	1.1214e+02	-4.9106	-21.675382	0.000710	7.095108	2.403888	-0.000284
1129	1.1224e+02	-4.9491	-21.893387	0.000547	5.473369	1.854428	-0.000219
1130	1.1234e+02	-4.9876	-22.131578	0.000598	5.980162	2.026134	-0.000239
1131	1.1244e+02	-5.0293	-22.389955	0.000649	6.486956	2.197840	-0.000260
1132	1.1253e+02	-5.0694	-22.587774	0.000497	4.966575	1.682721	-0.000199
1133	1.1263e+02	-5.1127	-22.830003	0.000608	6.081521	2.060475	-0.000243
1134	1.1273e+02	-5.1496	-23.080305	0.000628	6.284238	2.129158	-0.000252
1135	1.1283e+02	-5.1913	-23.322533	0.000608	6.081521	2.060475	-0.000243
1136	1.1293e+02	-5.2378	-23.597058	0.000689	6.892390	2.335205	-0.000276
1137	1.1303e+02	-5.2731	-23.839287	0.000608	6.081521	2.060475	-0.000243
1138	1.1313e+02	-5.3116	-24.041143	0.000507	5.067934	1.717063	-0.000203
1139	1.1323e+02	-5.3437	-24.263186	0.000557	5.574727	1.888769	-0.000223
1140	1.1333e+02	-5.3886	-24.517525	0.000639	6.385597	2.163499	-0.000256
1141	1.1343e+02	-5.4239	-24.739568	0.000557	5.574727	1.888769	-0.000223
1142	1.1353e+02	-5.4672	-24.973722	0.000588	5.878804	1.991793	-0.000235
1143	1.1363e+02	-5.5009	-25.240173	0.000669	6.689673	2.266523	-0.000268
1144	1.1373e+02	-5.5522	-25.490475	0.000628	6.284238	2.129158	-0.000252
1145	1.1383e+02	-5.5908	-25.700406	0.000527	5.270651	1.785745	-0.000211
1146	1.1393e+02	-5.6260	-25.918411	0.000547	5.473369	1.854428	-0.000219
1147	1.1403e+02	-5.6678	-26.209085	0.000730	7.297825	2.472570	-0.000292
1148	1.1413e+02	-5.7095	-26.423053	0.000537	5.372010	1.820086	-0.000215
1149	1.1423e+02	-5.7512	-26.632984	0.000527	5.270651	1.785745	-0.000211
1150	1.1433e+02	-5.7881	-26.895398	0.000659	6.588314	2.232181	-0.000264
1151	1.1442e+02	-5.8234	-27.133589	0.000598	5.980162	2.026134	-0.000239
1152	1.1452e+02	-5.8619	-27.387929	0.000639	6.385597	2.163499	-0.000256
1153	1.1462e+02	-5.9116	-27.589786	0.000507	5.067934	1.717063	-0.000203
1154	1.1472e+02	-5.9485	-27.840088	0.000628	6.284238	2.129158	-0.000252
1155	1.1482e+02	-5.9838	-28.050019	0.000527	5.270651	1.785745	-0.000211
1156	1.1492e+02	-6.0287	-28.316470	0.000669	6.689673	2.266523	-0.000268
1157	1.1502e+02	-6.0672	-28.558698	0.000608	6.081521	2.060475	-0.000243
1158	1.1512e+02	-6.1121	-28.752481	0.000487	4.865217	1.648380	-0.000195
1159	1.1522e+02	-6.1474	-28.986635	0.000588	5.878804	1.991793	-0.000235
1160	1.1532e+02	-6.1811	-29.232900	0.000618	6.182880	2.094816	-0.000248
1161	1.1542e+02	-6.2244	-29.471091	0.000598	5.980162	2.026134	-0.000239
1162	1.1552e+02	-6.2693	-29.676985	0.000517	5.169293	1.751404	-0.000207
1163	1.1562e+02	-6.2982	-29.915176	0.000598	5.980162	2.026134	-0.000239
1164	1.1572e+02	-6.3431	-30.137218	0.000557	5.574727	1.888769	-0.000223
1165	1.1582e+02	-6.3881	-30.375409	0.000598	5.980162	2.026134	-0.000239
1166	1.1592e+02	-6.4282	-30.629749	0.000639	6.385597	2.163499	-0.000256
1167	1.1602e+02	-6.4586	-30.851791	0.000557	5.574727	1.888769	-0.000223
1168	1.1612e+02	-6.5036	-31.089982	0.000598	5.980162	2.026134	-0.000239
1169	1.1622e+02	-6.5340	-31.307988	0.000547	5.473369	1.854428	-0.000219
1170	1.1632e+02	-6.5806	-31.554253	0.000618	6.182880	2.094816	-0.000248
1171	1.1642e+02	-6.6207	-31.832815	0.000699	6.993749	2.369546	-0.000280
1172	1.1651e+02	-6.6592	-31.982189	0.000375	3.750271	1.270626	-0.000150
1173	1.1661e+02	-6.7009	-32.244603	0.000659	6.588314	2.232181	-0.000264
1174	1.1671e+02	-6.7378	-32.414163	0.000426	4.257065	1.442333	-0.000170
1175	1.1681e+02	-6.7891	-32.696762	0.000710	7.095108	2.403888	-0.000284
1176	1.1691e+02	-6.8148	-32.955139	0.000649	6.486956	2.197840	-0.000260
1177	1.1701e+02	-6.8661	-33.136810	0.000456	4.561141	1.545356	-0.000183
1178	1.1711e+02	-6.9030	-33.395187	0.000649	6.486956	2.197840	-0.000260
1179	1.1721e+02	-6.9431	-33.580895	0.000466	4.662499	1.579698	-0.000187
1180	1.1731e+02	-6.9768	-33.843309	0.000659	6.588314	2.232181	-0.000264
1181	1.1741e+02	-7.0153	-34.093611	0.000628	6.284238	2.129158	-0.000252
1182	1.1751e+02	-7.0570	-34.299505	0.000517	5.169293	1.751404	-0.000207
1183	1.1761e+02	-7.0955	-34.533659	0.000588	5.878804	1.991793	-0.000235
1184	1.1771e+02	-7.1372	-34.727442	0.000487	4.865217	1.648380	-0.000195
1185	1.1781e+02	-7.1805	-35.001967	0.000689	6.892390	2.335205	-0.000276
1186	1.1791e+02	-7.2190	-35.187675	0.000466	4.662499	1.579698	-0.000187
1187	1.1801e+02	-7.2640	-35.474312	0.000720	7.196466	2.438229	-0.000288
1188	1.1811e+02	-7.2912	-35.668094	0.000487	4.865217	1.648380	-0.000195
1189	1.1821e+02	-7.3410	-35.934545	0.000669	6.689673	2.266523	-0.000268
1190	1.1831e+02	-7.3827	-36.108142	0.000436	4.358423	1.476674	-0.000174
1191	1.1841e+02	-7.4132	-36.358444	0.000628	6.284238	2.129158	-0.000252
1192	1.1850e+02	-7.4613	-36.540116	0.000456	4.561141	1.545356	-0.000183
1193	1.1860e+02	-7.4950	-36.778307	0.000598	5.980162	2.026134	-0.000239
1194	1.1870e+02	-7.5335	-37.012460	0.000588	5.878804	1.991793	-0.000235
1195	1.1880e+02	-7.5768	-37.234503	0.000557	5.574727	1.888769	-0.000223
1196	1.1890e+02	-7.6297	-37.444434	0.000527	5.270651	1.785745	-0.000211
1197	1.1900e+02	-7.6602	-37.654365	0.000527	5.270651	1.785745	-0.000211
1198	1.1910e+02	-7.6955	-37.900630	0.000618	6.182880	2.094816	-0.000248
1199	1.1920e+02	-7.7340	-38.090376	0.000476	4.763858	1.614039	-0.000191
1200	1.1930e+02	-7.7757	-38.332604	0.000608	6.081521	2.060475	-0.000243
1201	1.1940e+02	-7.8142	-38.554646	0.000557	5.574727	1.888769	-0.000223
1202	1.1950e+02	-7.8511	-38.788800	0.000588	5.878804	1.991793	-0.000235
1203	1.1960e+02	-7.8896	-38.978546	0.000476	4.763858	1.614039	-0.000191
1204	1.1970e+02	-7.9410	-39.192514	0.000537	5.372010	1.820086	-0.000215
1205	1.1980e+02	-7.9714	-39.418593	0.000568	5.676086	1.923110	-0.000227
1206	1.1990e+02	-8.0196	-39.660821	0.000608	6.081521	2.060475	-0.000243
1207	1.2000e+02	-8.0468	-39.870753	0.000527	5.270651	1.785745	-0.000211
1208	1.2010e+02	-8.0982	-40.040312	0.000426	4.257065	1.442333	-0.000170
1209	1.2020e+02	-8.1447	-40.322912	0.000710	7.095108	2.403888	-0.000284
1210	1.2030e+02	-8.1848	-40.536880	0.000537	5.372010	1.820086	-0.000215
1211	1.2039e+02	-8.2201	-40.726625	0.000476	4.763858	1.614039	-0.000191
1212	1.2049e+02	-8.2554	-40.940594	0.000537	5.372010	1.820086	-0.000215
1213	1.2059e+02	-8.2907	-41.174747	0.000588	5.878804	1.991793	-0.000235
1214	1.2069e+02	-8.3340	-41.408901	0.000588	5.878804	1.991793	-0.000235
1215	1.2079e+02	-8.3805	-41.634981	0.000568	5.676086	1.923110	-0.000227
1216	1.2089e+02	-8.4190	-41.812615	0.000446	4.459782	1.511015	-0.000179
1217	1.2099e+02	-8.4527	-42.038694	0.000568	5.676086	1.923110	-0.000227
1218	1.2109e+02	-8.4992	-42.232477	0.000487	4.865217	1.648380	-0.000195
1219	1.2119e+02	-8.5393	-42.486817	0.000639	6.385597	2.163499	-0.000256
1220	1.2129e+02	-8.5682	-42.704822	0.000547	5.473369	1.854428	-0.000219
1221	1.2139e+02	-8.6147	-42.890530	0.000466	4.662499	1.579698	-0.000187
1222	1.2149e+02	-8.6548	-43.128721	0.000598	5.980162	2.026134	-0.000239
1223	1.2159e+02	-8.6933	-43.306355	0.000446	4.459782	1.511015	-0.000179
1224	1.2169e+02	-8.7367	-43.576843	0.000679	6.791032	2.300864	-0.000272
1225	1.2179e+02	-8.7800	-43.778700	0.000507	5.067934	1.717063	-0.000203
1226	1.2189e+02	-8.8153	-43.976520	0.000497	4.966575	1.682721	-0.000199
1227	1.2199e+02	-8.8538	-44.234896	0.000649	6.486956	2.197840	-0.000260
1228	1.2209e+02	-8.8923	-44.436753	0.000507	5.067934	1.717063	-0.000203
1229	1.2219e+02	-8.9292	-44.674944	0.000598	5.980162	2.026134	-0.000239
1230	1.2229e+02	-8.9741	-44.876801	0.000507	5.067934	1.717063	-0.000203
1231	1.2239e+02	-9.0030	-45.090769	0.000537	5.372010	1.820086	-0.000215
1232	1.2248e+02	-9.0527	-45.320886	0.000578	5.777445	1.957451	-0.000231
1233	1.2258e+02	-9.0864	-45.526780	0.000517	5.169293	1.751404	-0.000207
1234	1.2268e+02	-9.1265	-45.724599	0.000497	4.966575	1.682721	-0.000199
1235	1.2278e+02	-9.1730	-45.934530	0.000527	5.270651	1.785745	-0.000211
1236	1.2288e+02	-9.2115	-46.148499	0.000537	5.372010	1.820086	-0.000215
1237	1.2298e+02	-9.2500	-46.350355	0.000507	5.067934	1.717063	-0.000203
1238	1.2308e+02	-9.2949	-46.592584	0.000608	6.081521	2.060475	-0.000243
1239	1.2318e+02	-9.3350	-46.786366	0.000487	4.865217	1.648380	-0.000195
1240	1.2328e+02	-9.3719	-46.980149	0.000487	4.865217	1.648380	-0.000195
1241	1.2338e+02	-9.4088	-47.242562	0.000659	6.588314	2.232181	-0.000264
1242	1.2348e+02	-9.4537	-47.464605	0.000557	5.574727	1.888769	-0.000223
1243	1.2358e+02	-9.4842	-47.690684	0.000568	5.676086	1.923110	-0.000227
1244	1.2368e+02	-9.5372	-47.888504	0.000497	4.966575	1.682721	-0.000199
1245	1.2378e+02	-9.5676	-48.110547	0.000557	5.574727	1.888769	-0.000223
1246	1.2388e+02	-9.6061	-48.267995	0.000395	3.952989	1.339309	-0.000158
1247	1.2398e+02	-9.6655	-48.498112	0.000578	5.777445	1.957451	-0.000231
1248	1.2408e+02	-9.6880	-48.728228	0.000578	5.777445	1.957451	-0.000231
1249	1.2418e+02	-9.7265	-48.942197	0.000537	5.372010	1.820086	-0.000215
1250	1.2428e+02	-9.7698	-49.140016	0.000497	4.966575	1.682721	-0.000199
1251	1.2438e+02	-9.8195	-49.394356	0.000639	6.385597	2.163499	-0.000256
1252	1.2447e+02	-9.8484	-49.563915	0.000426	4.257065	1.442333	-0.000170
1253	1.2457e+02	-9.8933	-49.777884	0.000537	5.372010	1.820086	-0.000215
1254	1.2467e+02	-9.9286	-50.003963	0.000568	5.676086	1.923110	-0.000227
1255	1.2477e+02	-9.9751	-50.193709	0.000476	4.763858	1.614039	-0.000191
1256	1.2487e+02	-10.0024	-50.415751	0.000557	5.574727	1.888769	-0.000223
1257	1.2497e+02	-10.0457	-50.581274	0.000416	4.155706	1.407991	-0.000166
1258	1.2507e+02	-10.0874	-50.787168	0.000517	5.169293	1.751404	-0.000207
1259	1.2517e+02	-10.1195	-51.005173	0.000547	5.473369	1.854428	-0.000219
1260	1.2527e+02	-10.1660	-51.259512	0.000639	6.385597	2.163499	-0.000256
1261	1.2537e+02	-10.2045	-51.441184	0.000456	4.561141	1.545356	-0.000183
1262	1.2547e+02	-10.2575	-51.643040	0.000507	5.067934	1.717063	-0.000203
1263	1.2557e+02	-10.2928	-51.861046	0.000547	5.473369	1.854428	-0.000219
1264	1.2567e+02	-10.3281	-52.079051	0.000547	5.473369	1.854428	-0.000219
1265	1.2577e+02	-10.3601	-52.288982	0.000527	5.270651	1.785745	-0.000211
1266	1.2587e+02	-10.4099	-52.470653	0.000456	4.561141	1.545356	-0.000183
1267	1.2597e+02	-10.4468	-52.684621	0.000537	5.372010	1.820086	-0.000215
1268	1.2607e+02	-10.4901	-52.914738	0.000578	5.777445	1.957451	-0.000231
1269	1.2617e+02	-10.5206	-53.096409	0.000456	4.561141	1.545356	-0.000183
1270	1.2627e+02	-10.5655	-53.310377	0.000537	5.372010	1.820086	-0.000215
1271	1.2636e+02	-10.6120	-53.536457	0.000568	5.676086	1.923110	-0.000227
1272	1.2646e+02	-10.6441	-53.766574	0.000578	5.777445	1.957451	-0.000231
1273	1.2656e+02	-10.6762	-53.960356	0.000487	4.865217	1.648380	-0.000195
1274	1.2666e+02	-10.7211	-54.150102	0.000476	4.763858	1.614039	-0.000191
1275	1.2676e+02	-10.7644	-54.351958	0.000507	5.067934	1.717063	-0.000203
1276	1.2686e+02	-10.8077	-54.578038	0.000568	5.676086	1.923110	-0.000227
1277	1.2696e+02	-10.8478	-54.800081	0.000557	5.574727	1.888769	-0.000223
1278	1.2706e+02	-10.8847	-54.985789	0.000466	4.662499	1.579698	-0.000187
1279	1.2716e+02	-10.9264	-55.195720	0.000527	5.270651	1.785745	-0.000211
1280	1.2726e+02	-10.9665	-55.405651	0.000527	5.270651	1.785745	-0.000211
1281	1.2736e+02	-11.0002	-55.611545	0.000517	5.169293	1.751404	-0.000207
1282	1.2746e+02	-11.0371	-55.849736	0.000598	5.980162	2.026134	-0.000239
1283	1.2756e+02	-11.0949	-56.087927	0.000598	5.980162	2.026134	-0.000239
1284	1.2766e+02	-11.1221	-56.225189	0.000345	3.446195	1.167603	-0.000138
1285	1.2776e+02	-11.1751	-56.483566	0.000649	6.486956	2.197840	-0.000260
1286	1.2786e+02	-11.2120	-56.669274	0.000466	4.662499	1.579698	-0.000187
1287	1.2796e+02	-11.2409	-56.871131	0.000507	5.067934	1.717063	-0.000203
1288	1.2806e+02	-11.2794	-57.089136	0.000547	5.473369	1.854428	-0.000219
1289	1.2816e+02	-11.3275	-57.299068	0.000527	5.270651	1.785745	-0.000211
1290	1.2826e+02	-11.3612	-57.504961	0.000517	5.169293	1.751404	-0.000207
1291	1.2835e+02	-11.4045	-57.710855	0.000517	5.169293	1.751404	-0.000207
1292	1.2845e+02	-11.4462	-57.900601	0.000476	4.763858	1.614039	-0.000191
1293	1.2855e+02	-11.4863	-58.122643	0.000557	5.574727	1.888769	-0.000223
1294	1.2865e+02	-11.5248	-58.312389	0.000476	4.763858	1.614039	-0.000191
1295	1.2875e+02	-11.5633	-58.554617	0.000608	6.081521	2.060475	-0.000243
1296	1.2885e+02	-11.6034	-58.744362	0.000476	4.763858	1.614039	-0.000191
1297	1.2895e+02	-11.6371	-58.966405	0.000557	5.574727	1.888769	-0.000223
1298	1.2905e+02	-11.6804	-59.156150	0.000476	4.763858	1.614039	-0.000191
1299	1.2915e+02	-11.7237	-59.366081	0.000527	5.270651	1.785745	-0.000211
1300	1.2925e+02	-11.7638	-59.539678	0.000436	4.358423	1.476674	-0.000174
1301	1.2935e+02	-11.8023	-59.802092	0.000659	6.588314	2.232181	-0.000264
1302	1.2945e+02	-11.8457	-59.999911	0.000497	4.966575	1.682721	-0.000199
1303	1.2955e+02	-11.8874	-60.217917	0.000547	5.473369	1.854428	-0.000219
1304	1.2965e+02	-11.9178	-60.375365	0.000395	3.952989	1.339309	-0.000158
1305	1.2975e+02	-11.9547	-60.601445	0.000568	5.676086	1.923110	-0.000227
1306	1.2985e+02	-11.9981	-60.811376	0.000527	5.270651	1.785745	-0.000211
1307	1.2995e+02	-12.0350	-60.989010	0.000446	4.459782	1.511015	-0.000179
1308	1.3005e+02	-12.0799	-61.235275	0.000618	6.182880	2.094816	-0.000248
1309	1.3015e+02	-12.1248	-61.376575	0.000355	3.547554	1.201944	-0.000142
1310	1.3025e+02	-12.1665	-61.638988	0.000659	6.588314	2.232181	-0.000264
1311	1.3034e+02	-12.1986	-61.824697	0.000466	4.662499	1.579698	-0.000187
1312	1.3044e+02	-12.2451	-61.994256	0.000426	4.257065	1.442333	-0.000170
1313	1.3054e+02	-12.2868	-62.224373	0.000578	5.777445	1.957451	-0.000231
1314	1.3064e+02	-12.3253	-62.426230	0.000507	5.067934	1.717063	-0.000203
1315	1.3074e+02	-12.3574	-62.624050	0.000497	4.966575	1.682721	-0.000199
1316	1.3084e+02	-12.3959	-62.858203	0.000588	5.878804	1.991793	-0.000235
1317	1.3094e+02	-12.4472	-63.043912	0.000466	4.662499	1.579698	-0.000187
1318	1.3104e+02	-12.4761	-63.245768	0.000507	5.067934	1.717063	-0.000203
1319	1.3114e+02	-12.5178	-63.435514	0.000476	4.763858	1.614039	-0.000191
1320	1.3124e+02	-12.5627	-63.641408	0.000517	5.169293	1.751404	-0.000207
1321	1.3134e+02	-12.5980	-63.823079	0.000456	4.561141	1.545356	-0.000183
1322	1.3144e+02	-12.6462	-64.045121	0.000557	5.574727	1.888769	-0.000223
1323	1.3154e+02	-12.6831	-64.319647	0.000689	6.892390	2.335205	-0.000276
1324	1.3164e+02	-12.7087	-64.456909	0.000345	3.446195	1.167603	-0.000138
1325	1.3174e+02	-12.7537	-64.666840	0.000527	5.270651	1.785745	-0.000211
1326	1.3184e+02	-12.8034	-64.868697	0.000507	5.067934	1.717063	-0.000203
1327	1.3194e+02	-12.8307	-65.054405	0.000466	4.662499	1.579698	-0.000187
1328	1.3204e+02	-12.8740	-65.268373	0.000537	5.372010	1.820086	-0.000215
1329	1.3214e+02	-12.9173	-65.462156	0.000487	4.865217	1.648380	-0.000195
1330	1.3224e+02	-12.9670	-65.668050	0.000517	5.169293	1.751404	-0.000207
1331	1.3234e+02	-12.9991	-65.857795	0.000476	4.763858	1.614039	-0.000191
1332	1.3243e+02	-13.0280	-66.039466	0.000456	4.561141	1.545356	-0.000183
1333	1.3253e+02	-13.0793	-66.269583	0.000578	5.777445	1.957451	-0.000231
1334	1.3263e+02	-13.1162	-66.459329	0.000476	4.763858	1.614039	-0.000191
1335	1.3273e+02	-13.1643	-66.673297	0.000537	5.372010	1.820086	-0.000215
1336	1.3283e+02	-13.1948	-66.863042	0.000476	4.763858	1.614039	-0.000191
1337	1.3293e+02	-13.2381	-67.133530	0.000679	6.791032	2.300864	-0.000272
1338	1.3303e+02	-13.2814	-67.311164	0.000446	4.459782	1.511015	-0.000179
1339	1.3313e+02	-13.3119	-67.500910	0.000476	4.763858	1.614039	-0.000191
1340	1.3323e+02	-13.3601	-67.690655	0.000476	4.763858	1.614039	-0.000191
1341	1.3333e+02	-13.3905	-67.880400	0.000476	4.763858	1.614039	-0.000191
1342	1.3343e+02	-13.4403	-68.098406	0.000547	5.473369	1.854428	-0.000219
1343	1.3353e+02	-13.4707	-68.340634	0.000608	6.081521	2.060475	-0.000243
1344	1.3363e+02	-13.5108	-68.510193	0.000426	4.257065	1.442333	-0.000170
1345	1.3373e+02	-13.5590	-68.720125	0.000527	5.270651	1.785745	-0.000211
1346	1.3383e+02	-13.5814	-68.926018	0.000517	5.169293	1.751404	-0.000207
1347	1.3393e+02	-13.6328	-69.144024	0.000547	5.473369	1.854428	-0.000219
1348	1.3403e+02	-13.6761	-69.349918	0.000517	5.169293	1.751404	-0.000207
1349	1.3413e+02	-13.7066	-69.575997	0.000568	5.676086	1.923110	-0.000227
1350	1.3423e+02	-13.7595	-69.769780	0.000487	4.865217	1.648380	-0.000195
1351	1.3432e+02	-13.7884	-69.955488	0.000466	4.662499	1.579698	-0.000187
1352	1.3442e+02	-13.8381	-70.177531	0.000557	5.574727	1.888769	-0.000223
1353	1.3452e+02	-13.8702	-70.387462	0.000527	5.270651	1.785745	-0.000211
1354	1.3462e+02	-13.9119	-70.557021	0.000426	4.257065	1.442333	-0.000170
1355	1.3472e+02	-13.9504	-70.803287	0.000618	6.182880	2.094816	-0.000248
1356	1.3482e+02	-13.9953	-71.013218	0.000527	5.270651	1.785745	-0.000211
1357	1.3492e+02	-14.0338	-71.202963	0.000476	4.763858	1.614039	-0.000191
1358	1.3502e+02	-14.0804	-71.396746	0.000487	4.865217	1.648380	-0.000195
1359	1.3512e+02	-14.1076	-71.582454	0.000466	4.662499	1.579698	-0.000187
1360	1.3522e+02	-14.1493	-71.848905	0.000669	6.689673	2.266523	-0.000268
1361	1.3532e+02	-14.1910	-72.070947	0.000557	5.574727	1.888769	-0.000223
1362	1.3542e+02	-14.2279	-72.240507	0.000426	4.257065	1.442333	-0.000170
1363	1.3552e+02	-14.2745	-72.430252	0.000476	4.763858	1.614039	-0.000191
1364	1.3562e+02	-14.3178	-72.656332	0.000568	5.676086	1.923110	-0.000227
1365	1.3572e+02	-14.3483	-72.890486	0.000588	5.878804	1.991793	-0.000235
1366	1.3582e+02	-14.3900	-73.007563	0.000294	2.939402	0.995896	-0.000118
1367	1.3592e+02	-14.4301	-73.294199	0.000720	7.196466	2.438229	-0.000288
1368	1.3602e+02	-14.4606	-73.492019	0.000497	4.966575	1.682721	-0.000199
1369	1.3612e+02	-14.5119	-73.705987	0.000537	5.372010	1.820086	-0.000215
1370	1.3622e+02	-14.5504	-73.911881	0.000517	5.169293	1.751404	-0.000207
1371	1.3631e+02	-14.5873	-74.133924	0.000557	5.574727	1.888769	-0.000223
1372	1.3641e+02	-14.6386	-74.331743	0.000497	4.966575	1.682721	-0.000199
1373	1.3651e+02	-14.6707	-74.533600	0.000507	5.067934	1.717063	-0.000203
1374	1.3661e+02	-14.7092	-74.739494	0.000517	5.169293	1.751404	-0.000207
1375	1.3671e+02	-14.7493	-74.949425	0.000527	5.270651	1.785745	-0.000211
1376	1.3681e+02	-14.7958	-75.211839	0.000659	6.588314	2.232181	-0.000264
1377	1.3691e+02	-14.8392	-75.377361	0.000416	4.155706	1.407991	-0.000166
1378	1.3701e+02	-14.8777	-75.615552	0.000598	5.980162	2.026134	-0.000239
1379	1.3711e+02	-14.9113	-75.841632	0.000568	5.676086	1.923110	-0.000227
1380	1.3721e+02	-14.9466	-76.075786	0.000588	5.878804	1.991793	-0.000235
1381	1.3731e+02	-14.9867	-76.233234	0.000395	3.952989	1.339309	-0.000158
1382	1.3741e+02	-15.0285	-76.467388	0.000588	5.878804	1.991793	-0.000235
1383	1.3751e+02	-15.0798	-76.681356	0.000537	5.372010	1.820086	-0.000215
1384	1.3761e+02	-15.1103	-76.903399	0.000557	5.574727	1.888769	-0.000223
1385	1.3771e+02	-15.1584	-77.149664	0.000618	6.182880	2.094816	-0.000248
1386	1.3781e+02	-15.1857	-77.379781	0.000578	5.777445	1.957451	-0.000231
1387	1.3791e+02	-15.2290	-77.617972	0.000598	5.980162	2.026134	-0.000239
1388	1.3801e+02	-15.2659	-77.767346	0.000375	3.750271	1.270626	-0.000150
1389	1.3811e+02	-15.3028	-78.062057	0.000740	7.399184	2.506911	-0.000296
1390	1.3821e+02	-15.3525	-78.288136	0.000568	5.676086	1.923110	-0.000227
1391	1.3831e+02	-15.3926	-78.506142	0.000547	5.473369	1.854428	-0.000219
1392	1.3840e+02	-15.4327	-78.756444	0.000628	6.284238	2.129158	-0.000252
1393	1.3850e+02	-15.4696	-78.946189	0.000476	4.763858	1.614039	-0.000191
1394	1.3860e+02	-15.5129	-79.156120	0.000527	5.270651	1.785745	-0.000211
1395	1.3870e+02	-15.5514	-79.426609	0.000679	6.791032	2.300864	-0.000272
1396	1.3880e+02	-15.5835	-79.676911	0.000628	6.284238	2.129158	-0.000252
1397	1.3890e+02	-15.6252	-79.927213	0.000628	6.284238	2.129158	-0.000252
1398	1.3900e+02	-15.6653	-80.084662	0.000395	3.952989	1.339309	-0.000158
1399	1.3910e+02	-15.7038	-80.318816	0.000588	5.878804	1.991793	-0.000235
1400	1.3920e+02	-15.7520	-80.573155	0.000639	6.385597	2.163499	-0.000256
1401	1.3930e+02	-15.7953	-80.787123	0.000537	5.372010	1.820086	-0.000215
1402	1.3940e+02	-15.8322	-81.077797	0.000730	7.297825	2.472570	-0.000292
1403	1.3950e+02	-15.8659	-81.263505	0.000466	4.662499	1.579698	-0.000187
1404	1.3960e+02	-15.9044	-81.493622	0.000578	5.777445	1.957451	-0.000231
1405	1.3970e+02	-15.9477	-81.776222	0.000710	7.095108	2.403888	-0.000284
1406	1.3980e+02	-15.9717	-81.965967	0.000476	4.763858	1.614039	-0.000191
1407	1.3990e+02	-16.0231	-82.216269	0.000628	6.284238	2.129158	-0.000252
1408	1.4000e+02	-16.0600	-82.498869	0.000710	7.095108	2.403888	-0.000284
1409	1.4010e+02	-16.1065	-82.712837	0.000537	5.372010	1.820086	-0.000215
1410	1.4020e+02	-16.1402	-82.930842	0.000547	5.473369	1.854428	-0.000219
1411	1.4029e+02	-16.1899	-83.152885	0.000557	5.574727	1.888769	-0.000223
1412	1.4039e+02	-16.2284	-83.447596	0.000740	7.399184	2.506911	-0.000296
1413	1.4049e+02	-16.2557	-83.710010	0.000659	6.588314	2.232181	-0.000264
1414	1.4059e+02	-16.2974	-83.903792	0.000487	4.865217	1.648380	-0.000195
1415	1.4069e+02	-16.3375	-84.190429	0.000720	7.196466	2.438229	-0.000288
1416	1.4079e+02	-16.3840	-84.416508	0.000568	5.676086	1.923110	-0.000227
1417	1.4089e+02	-16.4241	-84.666811	0.000628	6.284238	2.129158	-0.000252
1418	1.4099e+02	-16.4610	-84.905002	0.000598	5.980162	2.026134	-0.000239
1419	1.4109e+02	-16.5124	-85.143193	0.000598	5.980162	2.026134	-0.000239
1420	1.4119e+02	-16.5380	-85.405607	0.000659	6.588314	2.232181	-0.000264
1421	1.4129e+02	-16.5830	-85.643798	0.000598	5.980162	2.026134	-0.000239
1422	1.4139e+02	-16.6182	-85.906211	0.000659	6.588314	2.232181	-0.000264
1423	1.4149e+02	-16.6616	-86.140365	0.000588	5.878804	1.991793	-0.000235
1424	1.4159e+02	-16.7033	-86.418928	0.000699	6.993749	2.369546	-0.000280
1425	1.4169e+02	-16.7466	-86.689416	0.000679	6.791032	2.300864	-0.000272
1426	1.4179e+02	-16.7851	-86.915495	0.000568	5.676086	1.923110	-0.000227
1427	1.4189e+02	-16.8252	-87.185983	0.000679	6.791032	2.300864	-0.000272
1428	1.4199e+02	-16.8637	-87.379766	0.000487	4.865217	1.648380	-0.000195
1429	1.4209e+02	-16.8990	-87.674477	0.000740	7.399184	2.506911	-0.000296
1430	1.4219e+02	-16.9455	-87.920742	0.000618	6.182880	2.094816	-0.000248
1431	1.4228e+02	-16.9776	-88.207379	0.000720	7.196466	2.438229	-0.000288
1432	1.4238e+02	-17.0241	-88.489978	0.000710	7.095108	2.403888	-0.000284
1433	1.4248e+02	-17.0466	-88.732206	0.000608	6.081521	2.060475	-0.000243
1434	1.4258e+02	-17.1091	-89.006732	0.000689	6.892390	2.335205	-0.000276
1435	1.4268e+02	-17.1396	-89.244923	0.000598	5.980162	2.026134	-0.000239
1436	1.4278e+02	-17.1829	-89.539634	0.000740	7.399184	2.506911	-0.000296
1437	1.4288e+02	-17.2166	-89.785899	0.000618	6.182880	2.094816	-0.000248
1438	1.4298e+02	-17.2664	-90.088684	0.000760	7.601901	2.575594	-0.000304
1439	1.4308e+02	-17.3049	-90.310726	0.000557	5.574727	1.888769	-0.000223
1440	1.4318e+02	-17.3450	-90.605437	0.000740	7.399184	2.506911	-0.000296
1441	1.4328e+02	-17.3835	-90.871888	0.000669	6.689673	2.266523	-0.000268
1442	1.4338e+02	-17.4156	-91.154488	0.000710	7.095108	2.403888	-0.000284
1443	1.4348e+02	-17.4621	-91.420939	0.000669	6.689673	2.266523	-0.000268
1444	1.4358e+02	-17.4990	-91.691427	0.000679	6.791032	2.300864	-0.000272
1445	1.4368e+02	-17.5423	-91.990175	0.000750	7.500542	2.541253	-0.000300
1446	1.4378e+02	-17.5744	-92.280849	0.000730	7.297825	2.472570	-0.000292
1447	1.4388e+02	-17.6225	-92.555374	0.000689	6.892390	2.335205	-0.000276
1448	1.4398e+02	-17.6690	-92.821825	0.000669	6.689673	2.266523	-0.000268
1449	1.4408e+02	-17.7011	-93.148833	0.000821	8.210053	2.781641	-0.000329
1450	1.4418e+02	-17.7460	-93.431432	0.000710	7.095108	2.403888	-0.000284
1451	1.4428e+02	-17.7797	-93.705958	0.000689	6.892390	2.335205	-0.000276
1452	1.4437e+02	-17.8214	-94.016817	0.000780	7.804618	2.644276	-0.000312
1453	1.4447e+02	-17.8599	-94.279231	0.000659	6.588314	2.232181	-0.000264
1454	1.4457e+02	-17.8888	-94.577979	0.000750	7.500542	2.541253	-0.000300
1455	1.4467e+02	-17.9353	-94.860578	0.000710	7.095108	2.403888	-0.000284
1456	1.4477e+02	-17.9738	-95.171438	0.000780	7.804618	2.644276	-0.000312
1457	1.4487e+02	-18.0236	-95.466149	0.000740	7.399184	2.506911	-0.000296
1458	1.4497e+02	-18.0540	-95.736637	0.000679	6.791032	2.300864	-0.000272
1459	1.4507e+02	-18.0957	-96.023274	0.000720	7.196466	2.438229	-0.000288
1460	1.4517e+02	-18.1326	-96.330096	0.000770	7.703260	2.609935	-0.000308
1461	1.4527e+02	-18.1744	-96.669215	0.000851	8.514129	2.884665	-0.000341
1462	1.4537e+02	-18.2177	-96.976038	0.000770	7.703260	2.609935	-0.000308
1463	1.4547e+02	-18.2562	-97.266711	0.000730	7.297825	2.472570	-0.000292
1464	1.4557e+02	-18.2979	-97.581608	0.000791	7.905977	2.678618	-0.000316
1465	1.4567e+02	-18.3396	-97.884393	0.000760	7.601901	2.575594	-0.000304
1466	1.4577e+02	-18.3813	-98.195253	0.000780	7.804618	2.644276	-0.000312
1467	1.4587e+02	-18.4230	-98.477852	0.000710	7.095108	2.403888	-0.000284
1468	1.4597e+02	-18.4567	-98.776600	0.000750	7.500542	2.541253	-0.000300
1469	1.4607e+02	-18.4920	-99.111682	0.000841	8.412771	2.850324	-0.000337
1470	1.4617e+02	-18.5353	-99.426579	0.000791	7.905977	2.678618	-0.000316
1471	1.4626e+02	-18.5690	-99.753587	0.000821	8.210053	2.781641	-0.000329
1472	1.4636e+02	-18.6123	-100.048298	0.000740	7.399184	2.506911	-0.000296
1473	1.4646e+02	-18.6524	-100.391454	0.000862	8.615488	2.919006	-0.000345
1474	1.4656e+02	-18.6925	-100.694240	0.000760	7.601901	2.575594	-0.000304
1475	1.4666e+02	-18.7374	-101.001062	0.000770	7.703260	2.609935	-0.000308
1476	1.4676e+02	-18.7856	-101.324033	0.000811	8.108694	2.747300	-0.000325
1477	1.4686e+02	-18.8177	-101.655078	0.000831	8.311412	2.815983	-0.000333
1478	1.4696e+02	-18.8545	-101.990160	0.000841	8.412771	2.850324	-0.000337
1479	1.4706e+02	-18.8995	-102.313131	0.000811	8.108694	2.747300	-0.000325
1480	1.4716e+02	-18.9332	-102.615916	0.000760	7.601901	2.575594	-0.000304
1481	1.4726e+02	-18.9781	-102.942924	0.000821	8.210053	2.781641	-0.000329
1482	1.4736e+02	-19.0246	-103.294155	0.000882	8.818205	2.987689	-0.000353
1483	1.4746e+02	-19.0599	-103.621163	0.000821	8.210053	2.781641	-0.000329
1484	1.4756e+02	-19.0856	-103.960282	0.000851	8.514129	2.884665	-0.000341
1485	1.4766e+02	-19.1289	-104.295365	0.000841	8.412771	2.850324	-0.000337
1486	1.4776e+02	-19.1738	-104.658707	0.000912	9.122281	3.090713	-0.000365
1487	1.4786e+02	-19.2123	-104.969566	0.000780	7.804618	2.644276	-0.000312
1488	1.4796e+02	-19.2476	-105.336946	0.000922	9.223640	3.125054	-0.000369
1489	1.4806e+02	-19.2925	-105.667991	0.000831	8.311412	2.815983	-0.000333
1490	1.4816e+02	-19.3294	-106.019222	0.000882	8.818205	2.987689	-0.000353
1491	1.4825e+02	-19.3743	-106.362378	0.000862	8.615488	2.919006	-0.000345
1492	1.4835e+02	-19.4064	-106.713609	0.000882	8.818205	2.987689	-0.000353
1493	1.4845e+02	-19.4577	-107.060803	0.000872	8.716847	2.953348	-0.000349
1494	1.4855e+02	-19.4930	-107.403959	0.000862	8.615488	2.919006	-0.000345
1495	1.4865e+02	-19.5267	-107.775376	0.000932	9.324999	3.159395	-0.000373
1496	1.4875e+02	-19.5732	-108.114495	0.000851	8.514129	2.884665	-0.000341
1497	1.4885e+02	-19.6101	-108.469763	0.000892	8.919564	3.022030	-0.000357
1498	1.4895e+02	-19.6502	-108.869439	0.001003	10.034509	3.399784	-0.000402
1499	1.4905e+02	-19.6871	-109.208559	0.000851	8.514129	2.884665	-0.000341
1500	1.4915e+02	-19.7321	-109.584012	0.000943	9.426357	3.193736	-0.000377
1501	1.4925e+02	-19.7722	-109.927169	0.000862	8.615488	2.919006	-0.000345
1502	1.4935e+02	-19.8155	-110.302623	0.000943	9.426357	3.193736	-0.000377
1503	1.4945e+02	-19.8508	-110.678076	0.000943	9.426357	3.193736	-0.000377
1504	1.4955e+02	-19.8941	-111.101976	0.001064	10.642662	3.605831	-0.000426
1505	1.4965e+02	-19.9246	-111.424946	0.000811	8.108694	2.747300	-0.000325
1506	1.4975e+02	-19.9679	-111.832697	0.001024	10.237227	3.468466	-0.000410
1507	1.4985e+02	-20.0064	-112.204114	0.000932	9.324999	3.159395	-0.000373
1508	1.4995e+02	-19.9711	-112.252559	-0.000122	-1.216304	-0.412095	-0.000049
1509	1.5005e+02	-19.9390	-112.329265	-0.000193	-1.925815	-0.652484	-0.000077
1510	1.5015e+02	-19.8845	-112.353488	-0.000061	-0.608152	-0.206048	-0.000024
1511	1.5025e+02	-19.8444	-112.414045	-0.000152	-1.520380	-0.515119	-0.000061
1512	1.5034e+02	-19.8123	-112.426156	-0.000030	-0.304076	-0.103024	-0.000012
1513	1.5044e+02	-19.7674	-112.438267	-0.000030	-0.304076	-0.103024	-0.000012
1514	1.5054e+02	-19.7337	-112.426156	0.000030	0.304076	0.103024	0.000012
1515	1.5064e+02	-19.6871	-112.405970	0.000051	0.506793	0.171706	0.000020
1516	1.5074e+02	-19.6470	-112.377710	0.000071	0.709511	0.240389	0.000028
1517	1.5084e+02	-19.6101	-112.369636	0.000020	0.202717	0.068683	0.000008
1518	1.5094e+02	-19.5684	-112.349450	0.000051	0.506793	0.171706	0.000020
1519	1.5104e+02	-19.5299	-112.236411	0.000284	2.838043	0.961555	0.000114
1520	1.5114e+02	-19.4930	-112.280819	-0.000111	-1.114945	-0.377754	-0.000045
1521	1.5124e+02	-19.4513	-112.183928	0.000243	2.432608	0.824190	0.000097
1522	1.5134e+02	-19.4064	-112.143557	0.000101	1.013587	0.343413	0.000041
1523	1.5144e+02	-19.3807	-112.078962	0.000162	1.621739	0.549460	0.000065
1524	1.5154e+02	-19.3310	-111.994183	0.000213	2.128532	0.721166	0.000085
1525	1.5164e+02	-19.2909	-111.957848	0.000091	0.912228	0.309071	0.000037
1526	1.5174e+02	-19.2476	-111.869031	0.000223	2.229891	0.755508	0.000089
1527	1.5184e+02	-19.2123	-111.844808	0.000061	0.608152	0.206048	0.000024
1528	1.5194e+02	-19.1722	-111.731769	0.000284	2.838043	0.961555	0.000114
1529	1.5204e+02	-19.1289	-111.646989	0.000213	2.128532	0.721166	0.000085
1530	1.5214e+02	-19.1000	-111.533949	0.000284	2.838043	0.961555	0.000114
1531	1.5224e+02	-19.0519	-111.485503	0.000122	1.216304	0.412095	0.000049
1532	1.5233e+02	-19.0182	-111.376501	0.000274	2.736684	0.927214	0.000110
1533	1.5243e+02	-18.9781	-111.267498	0.000274	2.736684	0.927214	0.000110
1534	1.5253e+02	-18.9412	-111.154458	0.000284	2.838043	0.961555	0.000114
1535	1.5263e+02	-18.8995	-111.081790	0.000182	1.824456	0.618143	0.000073
1536	1.5273e+02	-18.8562	-110.960676	0.000304	3.040760	1.030238	0.000122
1537	1.5283e+02	-18.8241	-110.859747	0.000253	2.533967	0.858531	0.000101
1538	1.5293e+02	-18.7679	-110.766893	0.000233	2.331250	0.789849	0.000093
1539	1.5303e+02	-18.7310	-110.661928	0.000264	2.635326	0.892873	0.000105
1540	1.5313e+02	-18.6893	-110.556962	0.000264	2.635326	0.892873	0.000105
1541	1.5323e+02	-18.6540	-110.435848	0.000304	3.040760	1.030238	0.000122
1542	1.5333e+02	-18.6155	-110.278400	0.000395	3.952989	1.339309	0.000158
1543	1.5343e+02	-18.5674	-110.246103	0.000081	0.810869	0.274730	0.000032
1544	1.5353e+02	-18.5337	-110.129026	0.000294	2.939402	0.995896	0.000118
1545	1.5363e+02	-18.4952	-109.967540	0.000405	4.054347	1.373650	0.000162
1546	1.5373e+02	-18.4583	-109.842389	0.000314	3.142119	1.064579	0.000126
1547	1.5383e+02	-18.4198	-109.761646	0.000203	2.027174	0.686825	0.000081
1548	1.5393e+02	-18.3733	-109.652644	0.000274	2.736684	0.927214	0.000110
1549	1.5403e+02	-18.3508	-109.475010	0.000446	4.459782	1.511015	0.000179
1550	1.5413e+02	-18.2947	-109.386193	0.000223	2.229891	0.755508	0.000089
1551	1.5422e+02	-18.2610	-109.269116	0.000294	2.939402	0.995896	0.000118
1552	1.5432e+02	-18.2209	-109.139928	0.000324	3.243478	1.098920	0.000130
1553	1.5442e+02	-18.1760	-108.990554	0.000375	3.750271	1.270626	0.000150
1554	1.5452e+02	-18.1391	-108.873477	0.000294	2.939402	0.995896	0.000118
1555	1.5462e+02	-18.0990	-108.711991	0.000405	4.054347	1.373650	0.000162
1556	1.5472e+02	-18.0605	-108.611063	0.000253	2.533967	0.858531	0.000101
1557	1.5482e+02	-18.0203	-108.510134	0.000253	2.533967	0.858531	0.000101
1558	1.5492e+02	-17.9851	-108.405169	0.000264	2.635326	0.892873	0.000105
1559	1.5502e+02	-17.9353	-108.251758	0.000385	3.851630	1.304968	0.000154
1560	1.5512e+02	-17.8968	-108.102384	0.000375	3.750271	1.270626	0.000150
1561	1.5522e+02	-17.8583	-108.001455	0.000253	2.533967	0.858531	0.000101
1562	1.5532e+02	-17.8166	-107.848044	0.000385	3.851630	1.304968	0.000154
1563	1.5542e+02	-17.7781	-107.743079	0.000264	2.635326	0.892873	0.000105
1564	1.5552e+02	-17.7332	-107.585630	0.000395	3.952989	1.339309	0.000158
1565	1.5562e+02	-17.7107	-107.452405	0.000334	3.344836	1.133261	0.000134
1566	1.5572e+02	-17.6594	-107.331291	0.000304	3.040760	1.030238	0.000122
1567	1.5582e+02	-17.6289	-107.161731	0.000426	4.257065	1.442333	0.000170
1568	1.5592e+02	-17.5776	-107.072914	0.000223	2.229891	0.755508	0.000089
1569	1.5602e+02	-17.5359	-106.903354	0.000426	4.257065	1.442333	0.000170
1570	1.5612e+02	-17.4990	-106.733795	0.000426	4.257065	1.442333	0.000170
1571	1.5622e+02	-17.4589	-106.600569	0.000334	3.344836	1.133261	0.000134
1572	1.5631e+02	-17.4156	-106.511752	0.000223	2.229891	0.755508	0.000089
1573	1.5641e+02	-17.3851	-106.378527	0.000334	3.344836	1.133261	0.000134
1574	1.5651e+02	-17.3434	-106.213004	0.000416	4.155706	1.407991	0.000166
1575	1.5661e+02	-17.2984	-106.099964	0.000284	2.838043	0.961555	0.000114
1576	1.5671e+02	-17.2631	-105.950590	0.000375	3.750271	1.270626	0.000150
1577	1.5681e+02	-17.2295	-105.825439	0.000314	3.142119	1.064579	0.000126
1578	1.5691e+02	-17.1878	-105.659917	0.000416	4.155706	1.407991	0.000166
1579	1.5701e+02	-17.1348	-105.534765	0.000314	3.142119	1.064579	0.000126
1580	1.5711e+02	-17.1027	-105.389428	0.000365	3.648913	1.236285	0.000146
1581	1.5721e+02	-17.0690	-105.268314	0.000304	3.040760	1.030238	0.000122
1582	1.5731e+02	-17.0225	-105.090680	0.000446	4.459782	1.511015	0.000179
1583	1.5741e+02	-16.9728	-104.933232	0.000395	3.952989	1.339309	0.000158
1584	1.5751e+02	-16.9407	-104.800007	0.000334	3.344836	1.133261	0.000134
1585	1.5761e+02	-16.9006	-104.674855	0.000314	3.142119	1.064579	0.000126
1586	1.5771e+02	-16.8653	-104.533556	0.000355	3.547554	1.201944	0.000142
1587	1.5781e+02	-16.8204	-104.412442	0.000304	3.040760	1.030238	0.000122
1588	1.5791e+02	-16.7771	-104.222696	0.000476	4.763858	1.614039	0.000191
1589	1.5801e+02	-16.7434	-104.081396	0.000355	3.547554	1.201944	0.000142
1590	1.5811e+02	-16.6936	-103.936060	0.000365	3.648913	1.236285	0.000146
1591	1.5821e+02	-16.6744	-103.722091	0.000537	5.372010	1.820086	0.000215
1592	1.5830e+02	-16.6279	-103.641349	0.000203	2.027174	0.686825	0.000081
1593	1.5840e+02	-16.5878	-103.475826	0.000416	4.155706	1.407991	0.000166
1594	1.5850e+02	-16.5509	-103.350675	0.000314	3.142119	1.064579	0.000126
1595	1.5860e+02	-16.5043	-103.177078	0.000436	4.358423	1.476674	0.000174
1596	1.5870e+02	-16.4674	-103.060001	0.000294	2.939402	0.995896	0.000118
1597	1.5880e+02	-16.4225	-102.866219	0.000487	4.865217	1.648380	0.000195
1598	1.5890e+02	-16.3808	-102.732993	0.000334	3.344836	1.133261	0.000134
1599	1.5900e+02	-16.3519	-102.563433	0.000426	4.257065	1.442333	0.000170
1600	1.5910e+02	-16.3054	-102.470579	0.000233	2.331250	0.789849	0.000093
1601	1.5920e+02	-16.2669	-102.252574	0.000547	5.473369	1.854428	0.000219
1602	1.5930e+02	-16.2236	-102.123386	0.000324	3.243478	1.098920	0.000130
1603	1.5940e+02	-16.1835	-101.974012	0.000375	3.750271	1.270626	0.000150
1604	1.5950e+02	-16.1450	-101.840786	0.000334	3.344836	1.133261	0.000134
1605	1.5960e+02	-16.1209	-101.679301	0.000405	4.054347	1.373650	0.000162
1606	1.5970e+02	-16.0616	-101.542038	0.000345	3.446195	1.167603	0.000138
1607	1.5980e+02	-16.0151	-101.396701	0.000365	3.648913	1.236285	0.000146
1608	1.5990e+02	-15.9862	-101.263476	0.000334	3.344836	1.133261	0.000134
1609	1.6000e+02	-15.9525	-101.045470	0.000547	5.473369	1.854428	0.000219
1610	1.6010e+02	-15.9188	-100.952616	0.000233	2.331250	0.789849	0.000093
1611	1.6019e+02	-15.8691	-100.770945	0.000456	4.561141	1.545356	0.000183
1612	1.6029e+02	-15.8209	-100.609460	0.000405	4.054347	1.373650	0.000162
1613	1.6039e+02	-15.7937	-100.480271	0.000324	3.243478	1.098920	0.000130
1614	1.6049e+02	-15.7520	-100.363194	0.000294	2.939402	0.995896	0.000118
1615	1.6059e+02	-15.7006	-100.177486	0.000466	4.662499	1.579698	0.000187
1616	1.6069e+02	-15.6637	-100.040224	0.000345	3.446195	1.167603	0.000138
1617	1.6079e+02	-15.6316	-99.858552	0.000456	4.561141	1.545356	0.000183
1618	1.6089e+02	-15.5947	-99.721290	0.000345	3.446195	1.167603	0.000138
1619	1.6099e+02	-15.5514	-99.539619	0.000456	4.561141	1.545356	0.000183
1620	1.6109e+02	-15.5161	-99.406393	0.000334	3.344836	1.133261	0.000134
1621	1.6119e+02	-15.4680	-99.301428	0.000264	2.635326	0.892873	0.000105
1622	1.6129e+02	-15.4199	-99.115720	0.000466	4.662499	1.579698	0.000187
1623	1.6139e+02	-15.3894	-98.958271	0.000395	3.952989	1.339309	0.000158
1624	1.6149e+02	-15.3493	-98.821009	0.000345	3.446195	1.167603	0.000138
1625	1.6159e+02	-15.3124	-98.639337	0.000456	4.561141	1.545356	0.000183
1626	1.6169e+02	-15.2675	-98.526298	0.000284	2.838043	0.961555	0.000114
1627	1.6179e+02	-15.2306	-98.344627	0.000456	4.561141	1.545356	0.000183
1628	1.6189e+02	-15.1905	-98.219475	0.000314	3.142119	1.064579	0.000126
1629	1.6199e+02	-15.1472	-98.066064	0.000385	3.851630	1.304968	0.000154
1630	1.6209e+02	-15.1071	-97.844022	0.000557	5.574727	1.888769	0.000223
1631	1.6219e+02	-15.0718	-97.710796	0.000334	3.344836	1.133261	0.000134
1632	1.6228e+02	-15.0333	-97.541237	0.000426	4.257065	1.442333	0.000170
1633	1.6238e+02	-14.9819	-97.391863	0.000375	3.750271	1.270626	0.000150
1634	1.6248e+02	-14.9498	-97.234414	0.000395	3.952989	1.339309	0.000158
1635	1.6258e+02	-14.9097	-97.068892	0.000416	4.155706	1.407991	0.000166
1636	1.6268e+02	-14.8728	-96.907406	0.000405	4.054347	1.373650	0.000162
1637	1.6278e+02	-14.8247	-96.758032	0.000375	3.750271	1.270626	0.000150
1638	1.6288e+02	-14.7798	-96.640955	0.000294	2.939402	0.995896	0.000118
1639	1.6298e+02	-14.7461	-96.455247	0.000466	4.662499	1.579698	0.000187
1640	1.6308e+02	-14.7092	-96.301836	0.000385	3.851630	1.304968	0.000154
1641	1.6318e+02	-14.6755	-96.140350	0.000405	4.054347	1.373650	0.000162
1642	1.6328e+02	-14.6274	-95.995014	0.000365	3.648913	1.236285	0.000146
1643	1.6338e+02	-14.5921	-95.821417	0.000436	4.358423	1.476674	0.000174
1644	1.6348e+02	-14.5472	-95.651857	0.000426	4.257065	1.442333	0.000170
1645	1.6358e+02	-14.5135	-95.506520	0.000365	3.648913	1.236285	0.000146
1646	1.6368e+02	-14.4846	-95.353109	0.000385	3.851630	1.304968	0.000154
1647	1.6378e+02	-14.4365	-95.183549	0.000426	4.257065	1.442333	0.000170
1648	1.6388e+02	-14.3932	-95.018027	0.000416	4.155706	1.407991	0.000166
1649	1.6398e+02	-14.3483	-94.892876	0.000314	3.142119	1.064579	0.000126
1650	1.6408e+02	-14.3146	-94.707167	0.000466	4.662499	1.579698	0.000187
1651	1.6418e+02	-14.2761	-94.533570	0.000436	4.358423	1.476674	0.000174
1652	1.6427e+02	-14.2360	-94.351899	0.000456	4.561141	1.545356	0.000183
1653	1.6437e+02	-14.2023	-94.210600	0.000355	3.547554	1.201944	0.000142
1654	1.6447e+02	-14.1525	-94.061226	0.000375	3.750271	1.270626	0.000150
1655	1.6457e+02	-14.1060	-93.855332	0.000517	5.169293	1.751404	0.000207
1656	1.6467e+02	-14.0707	-93.697883	0.000395	3.952989	1.339309	0.000158
1657	1.6477e+02	-14.0338	-93.540435	0.000395	3.952989	1.339309	0.000158
1658	1.6487e+02	-13.9937	-93.370875	0.000426	4.257065	1.442333	0.000170
1659	1.6497e+02	-13.9472	-93.257836	0.000284	2.838043	0.961555	0.000114
1660	1.6507e+02	-13.9215	-93.072127	0.000466	4.662499	1.579698	0.000187
1661	1.6517e+02	-13.8654	-92.870271	0.000507	5.067934	1.717063	0.000203
1662	1.6527e+02	-13.8397	-92.716859	0.000385	3.851630	1.304968	0.000154
1663	1.6537e+02	-13.7964	-92.599782	0.000294	2.939402	0.995896	0.000118
1664	1.6547e+02	-13.7499	-92.377740	0.000557	5.574727	1.888769	0.000223
1665	1.6557e+02	-13.7194	-92.228366	0.000375	3.750271	1.270626	0.000150
1666	1.6567e+02	-13.6713	-92.058806	0.000426	4.257065	1.442333	0.000170
1667	1.6577e+02	-13.6376	-91.889247	0.000426	4.257065	1.442333	0.000170
1668	1.6587e+02	-13.5943	-91.719687	0.000426	4.257065	1.442333	0.000170
1669	1.6597e+02	-13.5429	-91.529941	0.000476	4.763858	1.614039	0.000191
1670	1.6607e+02	-13.5173	-91.352307	0.000446	4.459782	1.511015	0.000179
1671	1.6616e+02	-13.4804	-91.206971	0.000365	3.648913	1.236285	0.000146
1672	1.6626e+02	-13.4354	-91.049522	0.000395	3.952989	1.339309	0.000158
1673	1.6636e+02	-13.3986	-90.896111	0.000385	3.851630	1.304968	0.000154
1674	1.6646e+02	-13.3536	-90.726551	0.000426	4.257065	1.442333	0.000170
1675	1.6656e+02	-13.3135	-90.540843	0.000466	4.662499	1.579698	0.000187
1676	1.6666e+02	-13.2702	-90.367246	0.000436	4.358423	1.476674	0.000174
1677	1.6676e+02	-13.2349	-90.266318	0.000253	2.533967	0.858531	0.000101
1678	1.6686e+02	-13.1980	-90.048313	0.000547	5.473369	1.854428	0.000219
1679	1.6696e+02	-13.1595	-89.898939	0.000375	3.750271	1.270626	0.000150
1680	1.6706e+02	-13.1226	-89.697082	0.000507	5.067934	1.717063	0.000203
1681	1.6716e+02	-13.0745	-89.547708	0.000375	3.750271	1.270626	0.000150
1682	1.6726e+02	-13.0280	-89.390260	0.000395	3.952989	1.339309	0.000158
1683	1.6736e+02	-12.9879	-89.208588	0.000456	4.561141	1.545356	0.000183
1684	1.6746e+02	-12.9526	-89.030954	0.000446	4.459782	1.511015	0.000179
1685	1.6756e+02	-12.9157	-88.869469	0.000405	4.054347	1.373650	0.000162
1686	1.6766e+02	-12.8820	-88.707984	0.000405	4.054347	1.373650	0.000162
1687	1.6776e+02	-12.8387	-88.534387	0.000436	4.358423	1.476674	0.000174
1688	1.6786e+02	-12.7922	-88.352716	0.000456	4.561141	1.545356	0.000183
1689	1.6796e+02	-12.7537	-88.199304	0.000385	3.851630	1.304968	0.000154
1690	1.6806e+02	-12.7200	-88.033782	0.000416	4.155706	1.407991	0.000166
1691	1.6816e+02	-12.6783	-87.848074	0.000466	4.662499	1.579698	0.000187
1692	1.6825e+02	-12.6430	-87.694663	0.000385	3.851630	1.304968	0.000154
1693	1.6835e+02	-12.5948	-87.496843	0.000497	4.966575	1.682721	0.000199
1694	1.6845e+02	-12.5595	-87.270763	0.000568	5.676086	1.923110	0.000227
1695	1.6855e+02	-12.5226	-87.121389	0.000375	3.750271	1.270626	0.000150
1696	1.6865e+02	-12.4745	-86.972015	0.000375	3.750271	1.270626	0.000150
1697	1.6875e+02	-12.4440	-86.790344	0.000456	4.561141	1.545356	0.000183
1698	1.6885e+02	-12.3943	-86.661156	0.000324	3.243478	1.098920	0.000130
1699	1.6895e+02	-12.3494	-86.422965	0.000598	5.980162	2.026134	0.000239
1700	1.6905e+02	-12.3109	-86.249368	0.000436	4.358423	1.476674	0.000174
1701	1.6915e+02	-12.2740	-86.075771	0.000436	4.358423	1.476674	0.000174
1702	1.6925e+02	-12.2515	-85.918323	0.000395	3.952989	1.339309	0.000158
1703	1.6935e+02	-12.1922	-85.680132	0.000598	5.980162	2.026134	0.000239
1704	1.6945e+02	-12.1649	-85.546906	0.000334	3.344836	1.133261	0.000134
1705	1.6955e+02	-12.1280	-85.345050	0.000507	5.067934	1.717063	0.000203
1706	1.6965e+02	-12.0815	-85.163378	0.000456	4.561141	1.545356	0.000183
1707	1.6975e+02	-12.0366	-84.985744	0.000446	4.459782	1.511015	0.000179
1708	1.6985e+02	-11.9916	-84.804073	0.000456	4.561141	1.545356	0.000183
1709	1.6995e+02	-11.9676	-84.650662	0.000385	3.851630	1.304968	0.000154
1710	1.7005e+02	-11.9227	-84.384211	0.000669	6.689673	2.266523	0.000268
1711	1.7015e+02	-11.8858	-84.271171	0.000284	2.838043	0.961555	0.000114
1712	1.7024e+02	-11.8424	-84.069315	0.000507	5.067934	1.717063	0.000203
1713	1.7034e+02	-11.8039	-83.867458	0.000507	5.067934	1.717063	0.000203
1714	1.7044e+02	-11.7638	-83.734232	0.000334	3.344836	1.133261	0.000134
1715	1.7054e+02	-11.7269	-83.576784	0.000395	3.952989	1.339309	0.000158
1716	1.7064e+02	-11.6884	-83.374927	0.000507	5.067934	1.717063	0.000203
1717	1.7074e+02	-11.6451	-83.185182	0.000476	4.763858	1.614039	0.000191
1718	1.7084e+02	-11.6050	-82.995437	0.000476	4.763858	1.614039	0.000191
1719	1.7094e+02	-11.5649	-82.825877	0.000426	4.257065	1.442333	0.000170
1720	1.7104e+02	-11.5296	-82.660354	0.000416	4.155706	1.407991	0.000166
1721	1.7114e+02	-11.4959	-82.466572	0.000487	4.865217	1.648380	0.000195
1722	1.7124e+02	-11.4446	-82.268752	0.000497	4.966575	1.682721	0.000199
1723	1.7134e+02	-11.4013	-82.087081	0.000456	4.561141	1.545356	0.000183
1724	1.7144e+02	-11.3644	-81.929633	0.000395	3.952989	1.339309	0.000158
1725	1.7154e+02	-11.3211	-81.747962	0.000456	4.561141	1.545356	0.000183
1726	1.7164e+02	-11.2713	-81.521882	0.000568	5.676086	1.923110	0.000227
1727	1.7174e+02	-11.2457	-81.372508	0.000375	3.750271	1.270626	0.000150
1728	1.7184e+02	-11.2088	-81.126243	0.000618	6.182880	2.094816	0.000248
1729	1.7194e+02	-11.1574	-81.001091	0.000314	3.142119	1.064579	0.000126
1730	1.7204e+02	-11.1221	-80.843643	0.000395	3.952989	1.339309	0.000158
1731	1.7213e+02	-11.0772	-80.661972	0.000456	4.561141	1.545356	0.000183
1732	1.7223e+02	-11.0371	-80.484338	0.000446	4.459782	1.511015	0.000179
1733	1.7233e+02	-11.0082	-80.302667	0.000456	4.561141	1.545356	0.000183
1734	1.7243e+02	-10.9633	-80.080624	0.000557	5.574727	1.888769	0.000223
1735	1.7253e+02	-10.9248	-79.902991	0.000446	4.459782	1.511015	0.000179
1736	1.7263e+02	-10.8767	-79.705171	0.000497	4.966575	1.682721	0.000199
1737	1.7273e+02	-10.8382	-79.519463	0.000466	4.662499	1.579698	0.000187
1738	1.7283e+02	-10.8029	-79.341829	0.000446	4.459782	1.511015	0.000179
1739	1.7293e+02	-10.7724	-79.172269	0.000426	4.257065	1.442333	0.000170
1740	1.7303e+02	-10.7291	-78.978486	0.000487	4.865217	1.648380	0.000195
1741	1.7313e+02	-10.6986	-78.796815	0.000456	4.561141	1.545356	0.000183
1742	1.7323e+02	-10.6473	-78.607070	0.000476	4.763858	1.614039	0.000191
1743	1.7333e+02	-10.6088	-78.441547	0.000416	4.155706	1.407991	0.000166
1744	1.7343e+02	-10.5671	-78.215468	0.000568	5.676086	1.923110	0.000227
1745	1.7353e+02	-10.5302	-78.049945	0.000416	4.155706	1.407991	0.000166
1746	1.7363e+02	-10.4901	-77.864237	0.000466	4.662499	1.579698	0.000187
1747	1.7373e+02	-10.4484	-77.702752	0.000405	4.054347	1.373650	0.000162
1748	1.7383e+02	-10.4051	-77.472635	0.000578	5.777445	1.957451	0.000231
1749	1.7393e+02	-10.3666	-77.295001	0.000446	4.459782	1.511015	0.000179
1750	1.7403e+02	-10.3329	-77.093144	0.000507	5.067934	1.717063	0.000203
1751	1.7413e+02	-10.2831	-76.919547	0.000436	4.358423	1.476674	0.000174
1752	1.7422e+02	-10.2430	-76.766136	0.000385	3.851630	1.304968	0.000154
1753	1.7432e+02	-10.1997	-76.560242	0.000517	5.169293	1.751404	0.000207
1754	1.7442e+02	-10.1756	-76.330125	0.000578	5.777445	1.957451	0.000231
1755	1.7452e+02	-10.1355	-76.156529	0.000436	4.358423	1.476674	0.000174
1756	1.7462e+02	-10.0842	-75.970820	0.000466	4.662499	1.579698	0.000187
1757	1.7472e+02	-10.0489	-75.773001	0.000497	4.966575	1.682721	0.000199
1758	1.7482e+02	-10.0040	-75.587292	0.000466	4.662499	1.579698	0.000187
1759	1.7492e+02	-9.9703	-75.393510	0.000487	4.865217	1.648380	0.000195
1760	1.7502e+02	-9.9142	-75.203765	0.000476	4.763858	1.614039	0.000191
1761	1.7512e+02	-9.8885	-75.030168	0.000436	4.358423	1.476674	0.000174
1762	1.7522e+02	-9.8580	-74.848497	0.000456	4.561141	1.545356	0.000183
1763	1.7532e+02	-9.8131	-74.642603	0.000517	5.169293	1.751404	0.000207
1764	1.7542e+02	-9.7714	-74.424597	0.000547	5.473369	1.854428	0.000219
1765	1.7552e+02	-9.7233	-74.259075	0.000416	4.155706	1.407991	0.000166
1766	1.7562e+02	-9.6848	-74.041069	0.000547	5.473369	1.854428	0.000219
1767	1.7572e+02	-9.6511	-73.831138	0.000527	5.270651	1.785745	0.000211
1768	1.7582e+02	-9.6094	-73.701950	0.000324	3.243478	1.098920	0.000130
1769	1.7592e+02	-9.5805	-73.443573	0.000649	6.486956	2.197840	0.000260
1770	1.7602e+02	-9.5340	-73.253828	0.000476	4.763858	1.614039	0.000191
1771	1.7612e+02	-9.4906	-73.076194	0.000446	4.459782	1.511015	0.000179
1772	1.7621e+02	-9.4553	-72.898560	0.000446	4.459782	1.511015	0.000179
1773	1.7631e+02	-9.4217	-72.724963	0.000436	4.358423	1.476674	0.000174
1774	1.7641e+02	-9.3719	-72.535218	0.000476	4.763858	1.614039	0.000191
1775	1.7651e+02	-9.3286	-72.333361	0.000507	5.067934	1.717063	0.000203
1776	1.7661e+02	-9.2853	-72.127467	0.000517	5.169293	1.751404	0.000207
1777	1.7671e+02	-9.2596	-71.945796	0.000456	4.561141	1.545356	0.000183
1778	1.7681e+02	-9.2035	-71.776236	0.000426	4.257065	1.442333	0.000170
1779	1.7691e+02	-9.1698	-71.538045	0.000598	5.980162	2.026134	0.000239
1780	1.7701e+02	-9.1281	-71.332151	0.000517	5.169293	1.751404	0.000207
1781	1.7711e+02	-9.0912	-71.134332	0.000497	4.966575	1.682721	0.000199
1782	1.7721e+02	-9.0511	-70.944586	0.000476	4.763858	1.614039	0.000191
1783	1.7731e+02	-9.0142	-70.779064	0.000416	4.155706	1.407991	0.000166
1784	1.7741e+02	-8.9725	-70.581244	0.000497	4.966575	1.682721	0.000199
1785	1.7751e+02	-8.9388	-70.415722	0.000416	4.155706	1.407991	0.000166
1786	1.7761e+02	-8.8842	-70.185605	0.000578	5.777445	1.957451	0.000231
1787	1.7771e+02	-8.8441	-70.016045	0.000426	4.257065	1.442333	0.000170
1788	1.7781e+02	-8.8153	-69.798040	0.000547	5.473369	1.854428	0.000219
1789	1.7791e+02	-8.7816	-69.608294	0.000476	4.763858	1.614039	0.000191
1790	1.7801e+02	-8.7270	-69.410475	0.000497	4.966575	1.682721	0.000199
1791	1.7810e+02	-8.6869	-69.200544	0.000527	5.270651	1.785745	0.000211
1792	1.7820e+02	-8.6532	-69.014835	0.000466	4.662499	1.579698	0.000187
1793	1.7830e+02	-8.6099	-68.829127	0.000466	4.662499	1.579698	0.000187
1794	1.7840e+02	-8.5714	-68.631308	0.000497	4.966575	1.682721	0.000199
1795	1.7850e+02	-8.5281	-68.413302	0.000547	5.473369	1.854428	0.000219
1796	1.7860e+02	-8.4992	-68.263928	0.000375	3.750271	1.270626	0.000150
1797	1.7870e+02	-8.4607	-68.082257	0.000456	4.561141	1.545356	0.000183
1798	1.7880e+02	-8.4174	-67.916735	0.000416	4.155706	1.407991	0.000166
1799	1.7890e+02	-8.3821	-67.686618	0.000578	5.777445	1.957451	0.000231
1800	1.7900e+02	-8.3340	-67.484761	0.000507	5.067934	1.717063	0.000203
1801	1.7910e+02	-8.2955	-67.254644	0.000578	5.777445	1.957451	0.000231
1802	1.7920e+02	-8.2586	-67.028565	0.000568	5.676086	1.923110	0.000227
1803	1.7930e+02	-8.2169	-66.879191	0.000375	3.750271	1.270626	0.000150
1804	1.7940e+02	-8.1832	-66.685408	0.000487	4.865217	1.648380	0.000195
1805	1.7950e+02	-8.1447	-66.483551	0.000507	5.067934	1.717063	0.000203
1806	1.7960e+02	-8.0982	-66.253435	0.000578	5.777445	1.957451	0.000231
1807	1.7970e+02	-8.0581	-66.039466	0.000537	5.372010	1.820086	0.000215
1808	1.7980e+02	-8.0244	-65.825498	0.000537	5.372010	1.820086	0.000215
1809	1.7990e+02	-7.9971	-65.655939	0.000426	4.257065	1.442333	0.000170
1810	1.8000e+02	-7.9361	-65.429859	0.000568	5.676086	1.923110	0.000227
1811	1.8009e+02	-7.8928	-65.236076	0.000487	4.865217	1.648380	0.000195
1812	1.8019e+02	-7.8607	-65.046331	0.000476	4.763858	1.614039	0.000191
1813	1.8029e+02	-7.8062	-64.888883	0.000395	3.952989	1.339309	0.000158
1814	1.8039e+02	-7.7853	-64.646655	0.000608	6.081521	2.060475	0.000243
1815	1.8049e+02	-7.7404	-64.485169	0.000405	4.054347	1.373650	0.000162
1816	1.8059e+02	-7.7067	-64.238904	0.000618	6.182880	2.094816	0.000248
1817	1.8069e+02	-7.6554	-64.041084	0.000497	4.966575	1.682721	0.000199
1818	1.8079e+02	-7.6105	-63.847302	0.000487	4.865217	1.648380	0.000195
1819	1.8089e+02	-7.5864	-63.617185	0.000578	5.777445	1.957451	0.000231
1820	1.8099e+02	-7.5415	-63.403217	0.000537	5.372010	1.820086	0.000215
1821	1.8109e+02	-7.4902	-63.225583	0.000446	4.459782	1.511015	0.000179
1822	1.8119e+02	-7.4581	-63.043912	0.000456	4.561141	1.545356	0.000183
1823	1.8129e+02	-7.4180	-62.805721	0.000598	5.980162	2.026134	0.000239
1824	1.8139e+02	-7.3731	-62.611938	0.000487	4.865217	1.648380	0.000195
1825	1.8149e+02	-7.3329	-62.430267	0.000456	4.561141	1.545356	0.000183
1826	1.8159e+02	-7.3057	-62.204187	0.000568	5.676086	1.923110	0.000227
1827	1.8169e+02	-7.2592	-61.970034	0.000588	5.878804	1.991793	0.000235
1828	1.8179e+02	-7.2190	-61.756065	0.000537	5.372010	1.820086	0.000215
1829	1.8189e+02	-7.1854	-61.614766	0.000355	3.547554	1.201944	0.000142
1830	1.8199e+02	-7.1356	-61.360426	0.000639	6.385597	2.163499	0.000256
1831	1.8209e+02	-7.0923	-61.174718	0.000466	4.662499	1.579698	0.000187
1832	1.8218e+02	-7.0634	-60.948638	0.000568	5.676086	1.923110	0.000227
1833	1.8228e+02	-7.0217	-60.746781	0.000507	5.067934	1.717063	0.000203
1834	1.8238e+02	-6.9848	-60.536850	0.000527	5.270651	1.785745	0.000211
1835	1.8248e+02	-6.9479	-60.347105	0.000476	4.763858	1.614039	0.000191
1836	1.8258e+02	-6.8982	-60.112951	0.000588	5.878804	1.991793	0.000235
1837	1.8268e+02	-6.8613	-59.915131	0.000497	4.966575	1.682721	0.000199
1838	1.8278e+02	-6.8244	-59.705200	0.000527	5.270651	1.785745	0.000211
1839	1.8288e+02	-6.7763	-59.507381	0.000497	4.966575	1.682721	0.000199
1840	1.8298e+02	-6.7426	-59.329747	0.000446	4.459782	1.511015	0.000179
1841	1.8308e+02	-6.6945	-59.083482	0.000618	6.182880	2.094816	0.000248
1842	1.8318e+02	-6.6560	-58.877588	0.000517	5.169293	1.751404	0.000207
1843	1.8328e+02	-6.6207	-58.699954	0.000446	4.459782	1.511015	0.000179
1844	1.8338e+02	-6.5806	-58.449651	0.000628	6.284238	2.129158	0.000252
1845	1.8348e+02	-6.5485	-58.280092	0.000426	4.257065	1.442333	0.000170
1846	1.8358e+02	-6.5052	-58.017678	0.000659	6.588314	2.232181	0.000264
1847	1.8368e+02	-6.4522	-57.827932	0.000476	4.763858	1.614039	0.000191
1848	1.8378e+02	-6.4282	-57.605890	0.000557	5.574727	1.888769	0.000223
1849	1.8388e+02	-6.3768	-57.408070	0.000497	4.966575	1.682721	0.000199
1850	1.8398e+02	-6.3383	-57.254659	0.000385	3.851630	1.304968	0.000154
1851	1.8407e+02	-6.3078	-56.992245	0.000659	6.588314	2.232181	0.000264
1852	1.8417e+02	-6.2661	-56.814611	0.000446	4.459782	1.511015	0.000179
1853	1.8427e+02	-6.2292	-56.576420	0.000598	5.980162	2.026134	0.000239
1854	1.8437e+02	-6.1907	-56.382638	0.000487	4.865217	1.648380	0.000195
1855	1.8447e+02	-6.1442	-56.132335	0.000628	6.284238	2.129158	0.000252
1856	1.8457e+02	-6.1041	-55.950664	0.000456	4.561141	1.545356	0.000183
1857	1.8467e+02	-6.0624	-55.748807	0.000507	5.067934	1.717063	0.000203
1858	1.8477e+02	-6.0303	-55.534839	0.000537	5.372010	1.820086	0.000215
1859	1.8487e+02	-5.9806	-55.280500	0.000639	6.385597	2.163499	0.000256
1860	1.8497e+02	-5.9389	-55.074606	0.000517	5.169293	1.751404	0.000207
1861	1.8507e+02	-5.9068	-54.848526	0.000568	5.676086	1.923110	0.000227
1862	1.8517e+02	-5.8715	-54.662818	0.000466	4.662499	1.579698	0.000187
1863	1.8527e+02	-5.8314	-54.396367	0.000669	6.689673	2.266523	0.000268
1864	1.8537e+02	-5.7913	-54.182399	0.000537	5.372010	1.820086	0.000215
1865	1.8547e+02	-5.7432	-54.008802	0.000436	4.358423	1.476674	0.000174
1866	1.8557e+02	-5.7030	-53.786759	0.000557	5.574727	1.888769	0.000223
1867	1.8567e+02	-5.6742	-53.548568	0.000598	5.980162	2.026134	0.000239
1868	1.8577e+02	-5.6276	-53.298266	0.000628	6.284238	2.129158	0.000252
1869	1.8587e+02	-5.5875	-53.104483	0.000487	4.865217	1.648380	0.000195
1870	1.8597e+02	-5.5378	-52.874367	0.000578	5.777445	1.957451	0.000231
1871	1.8606e+02	-5.5025	-52.648287	0.000568	5.676086	1.923110	0.000227
1872	1.8616e+02	-5.4656	-52.446430	0.000507	5.067934	1.717063	0.000203
1873	1.8626e+02	-5.4303	-52.228425	0.000547	5.473369	1.854428	0.000219
1874	1.8636e+02	-5.3838	-51.974085	0.000639	6.385597	2.163499	0.000256
1875	1.8646e+02	-5.3581	-51.816637	0.000395	3.952989	1.339309	0.000158
1876	1.8656e+02	-5.3084	-51.590558	0.000568	5.676086	1.923110	0.000227
1877	1.8666e+02	-5.2603	-51.332181	0.000649	6.486956	2.197840	0.000260
1878	1.8676e+02	-5.2250	-51.102064	0.000578	5.777445	1.957451	0.000231
1879	1.8686e+02	-5.1865	-50.875985	0.000568	5.676086	1.923110	0.000227
1880	1.8696e+02	-5.1464	-50.633756	0.000608	6.081521	2.060475	0.000243
1881	1.8706e+02	-5.1127	-50.431900	0.000507	5.067934	1.717063	0.000203
1882	1.8716e+02	-5.0646	-50.205820	0.000568	5.676086	1.923110	0.000227
1883	1.8726e+02	-5.0421	-50.003963	0.000507	5.067934	1.717063	0.000203
1884	1.8736e+02	-4.9844	-49.741549	0.000659	6.588314	2.232181	0.000264
1885	1.8746e+02	-4.9458	-49.515470	0.000568	5.676086	1.923110	0.000227
1886	1.8756e+02	-4.9138	-49.293427	0.000557	5.574727	1.888769	0.000223
1887	1.8766e+02	-4.8656	-49.103682	0.000476	4.763858	1.614039	0.000191
1888	1.8776e+02	-4.8336	-48.901825	0.000507	5.067934	1.717063	0.000203
1889	1.8786e+02	-4.7870	-48.663634	0.000598	5.980162	2.026134	0.000239
1890	1.8796e+02	-4.7485	-48.429480	0.000588	5.878804	1.991793	0.000235
1891	1.8806e+02	-4.7213	-48.187252	0.000608	6.081521	2.060475	0.000243
1892	1.8815e+02	-4.6699	-47.932913	0.000639	6.385597	2.163499	0.000256
1893	1.8825e+02	-4.6330	-47.735093	0.000497	4.966575	1.682721	0.000199
1894	1.8835e+02	-4.5961	-47.521125	0.000537	5.372010	1.820086	0.000215
1895	1.8845e+02	-4.5496	-47.319268	0.000507	5.067934	1.717063	0.000203
1896	1.8855e+02	-4.5143	-47.052817	0.000669	6.689673	2.266523	0.000268
1897	1.8865e+02	-4.4662	-46.818663	0.000588	5.878804	1.991793	0.000235
1898	1.8875e+02	-4.4325	-46.588546	0.000578	5.777445	1.957451	0.000231
1899	1.8885e+02	-4.3860	-46.354393	0.000588	5.878804	1.991793	0.000235
1900	1.8895e+02	-4.3507	-46.164647	0.000476	4.763858	1.614039	0.000191
1901	1.8905e+02	-4.3122	-45.910308	0.000639	6.385597	2.163499	0.000256
1902	1.8915e+02	-4.2641	-45.700377	0.000527	5.270651	1.785745	0.000211
1903	1.8925e+02	-4.2336	-45.470260	0.000578	5.777445	1.957451	0.000231
1904	1.8935e+02	-4.1951	-45.256292	0.000537	5.372010	1.820086	0.000215
1905	1.8945e+02	-4.1550	-45.010026	0.000618	6.182880	2.094816	0.000248
1906	1.8955e+02	-4.1133	-44.792021	0.000547	5.473369	1.854428	0.000219
1907	1.8965e+02	-4.0748	-44.541719	0.000628	6.284238	2.129158	0.000252
1908	1.8975e+02	-4.0330	-44.311602	0.000578	5.777445	1.957451	0.000231
1909	1.8985e+02	-3.9994	-44.101671	0.000527	5.270651	1.785745	0.000211
1910	1.8995e+02	-3.9689	-43.867517	0.000588	5.878804	1.991793	0.000235
1911	1.9004e+02	-3.9047	-43.568769	0.000750	7.500542	2.541253	0.000300
1912	1.9014e+02	-3.8662	-43.383061	0.000466	4.662499	1.579698	0.000187
1913	1.9024e+02	-3.8261	-43.169092	0.000537	5.372010	1.820086	0.000215
1914	1.9034e+02	-3.7796	-42.930901	0.000598	5.980162	2.026134	0.000239
1915	1.9044e+02	-3.7571	-42.704822	0.000568	5.676086	1.923110	0.000227
1916	1.9054e+02	-3.7154	-42.474705	0.000578	5.777445	1.957451	0.000231
1917	1.9064e+02	-3.6849	-42.252663	0.000557	5.574727	1.888769	0.000223
1918	1.9074e+02	-3.6272	-42.002360	0.000628	6.284238	2.129158	0.000252
1919	1.9084e+02	-3.5887	-41.780318	0.000557	5.574727	1.888769	0.000223
1920	1.9094e+02	-3.5566	-41.534052	0.000618	6.182880	2.094816	0.000248
1921	1.9104e+02	-3.5117	-41.287787	0.000618	6.182880	2.094816	0.000248
1922	1.9114e+02	-3.4812	-41.065745	0.000557	5.574727	1.888769	0.000223
1923	1.9124e+02	-3.4347	-40.819479	0.000618	6.182880	2.094816	0.000248
1924	1.9134e+02	-3.3962	-40.585326	0.000588	5.878804	1.991793	0.000235
1925	1.9144e+02	-3.3577	-40.343097	0.000608	6.081521	2.060475	0.000243
1926	1.9154e+02	-3.3047	-40.153352	0.000476	4.763858	1.614039	0.000191
1927	1.9164e+02	-3.2758	-39.834418	0.000801	8.007336	2.712959	0.000321
1928	1.9174e+02	-3.2277	-39.648710	0.000466	4.662499	1.579698	0.000187
1929	1.9184e+02	-3.2004	-39.366111	0.000710	7.095108	2.403888	0.000284
1930	1.9194e+02	-3.1587	-39.160217	0.000517	5.169293	1.751404	0.000207
1931	1.9203e+02	-3.1154	-38.913951	0.000618	6.182880	2.094816	0.000248
1932	1.9213e+02	-3.0801	-38.708057	0.000517	5.169293	1.751404	0.000207
1933	1.9223e+02	-3.0320	-38.445644	0.000659	6.588314	2.232181	0.000264
1934	1.9233e+02	-2.9903	-38.187267	0.000649	6.486956	2.197840	0.000260
1935	1.9243e+02	-2.9518	-37.957150	0.000578	5.777445	1.957451	0.000231
1936	1.9253e+02	-2.9277	-37.706848	0.000628	6.284238	2.129158	0.000252
1937	1.9263e+02	-2.8796	-37.472694	0.000588	5.878804	1.991793	0.000235
1938	1.9273e+02	-2.8395	-37.230466	0.000608	6.081521	2.060475	0.000243
1939	1.9283e+02	-2.8026	-36.996312	0.000588	5.878804	1.991793	0.000235
1940	1.9293e+02	-2.7609	-36.770232	0.000568	5.676086	1.923110	0.000227
1941	1.9303e+02	-2.7224	-36.507818	0.000659	6.588314	2.232181	0.000264
1942	1.9313e+02	-2.6823	-36.273665	0.000588	5.878804	1.991793	0.000235
1943	1.9323e+02	-2.6422	-35.991065	0.000710	7.095108	2.403888	0.000284
1944	1.9333e+02	-2.6037	-35.793245	0.000497	4.966575	1.682721	0.000199
1945	1.9343e+02	-2.5588	-35.542943	0.000628	6.284238	2.129158	0.000252
1946	1.9353e+02	-2.5186	-35.272455	0.000679	6.791032	2.300864	0.000272
1947	1.9363e+02	-2.4689	-35.058487	0.000537	5.372010	1.820086	0.000215
1948	1.9373e+02	-2.4256	-34.828370	0.000578	5.777445	1.957451	0.000231
1949	1.9383e+02	-2.3967	-34.565956	0.000659	6.588314	2.232181	0.000264
1950	1.9393e+02	-2.3550	-34.360062	0.000517	5.169293	1.751404	0.000207
1951	1.9403e+02	-2.3229	-34.105723	0.000639	6.385597	2.163499	0.000256
1952	1.9412e+02	-2.2812	-33.847346	0.000649	6.486956	2.197840	0.000260
1953	1.9422e+02	-2.2363	-33.625304	0.000557	5.574727	1.888769	0.000223
1954	1.9432e+02	-2.1962	-33.370964	0.000639	6.385597	2.163499	0.000256
1955	1.9442e+02	-2.1673	-33.148922	0.000557	5.574727	1.888769	0.000223
1956	1.9452e+02	-2.1176	-32.878433	0.000679	6.791032	2.300864	0.000272
1957	1.9462e+02	-2.0807	-32.636205	0.000608	6.081521	2.060475	0.000243
1958	1.9472e+02	-2.0374	-32.389940	0.000618	6.182880	2.094816	0.000248
1959	1.9482e+02	-1.9989	-32.151749	0.000598	5.980162	2.026134	0.000239
1960	1.9492e+02	-1.9572	-31.885298	0.000669	6.689673	2.266523	0.000268
1961	1.9502e+02	-1.9219	-31.667293	0.000547	5.473369	1.854428	0.000219
1962	1.9512e+02	-1.8898	-31.445250	0.000557	5.574727	1.888769	0.000223
1963	1.9522e+02	-1.8336	-31.207059	0.000598	5.980162	2.026134	0.000239
1964	1.9532e+02	-1.7983	-30.936571	0.000679	6.791032	2.300864	0.000272
1965	1.9542e+02	-1.7631	-30.682232	0.000639	6.385597	2.163499	0.000256
1966	1.9552e+02	-1.7181	-30.456152	0.000568	5.676086	1.923110	0.000227
1967	1.9562e+02	-1.6877	-30.193738	0.000659	6.588314	2.232181	0.000264
1968	1.9572e+02	-1.6331	-29.955547	0.000598	5.980162	2.026134	0.000239
1969	1.9582e+02	-1.5994	-29.689096	0.000669	6.689673	2.266523	0.000268
1970	1.9592e+02	-1.5657	-29.438794	0.000628	6.284238	2.129158	0.000252
1971	1.9601e+02	-1.5272	-29.172343	0.000669	6.689673	2.266523	0.000268
1972	1.9611e+02	-1.4855	-28.905892	0.000669	6.689673	2.266523	0.000268
1973	1.9621e+02	-1.4358	-28.712109	0.000487	4.865217	1.648380	0.000195
1974	1.9631e+02	-1.4069	-28.461807	0.000628	6.284238	2.129158	0.000252
1975	1.9641e+02	-1.3604	-28.199393	0.000659	6.588314	2.232181	0.000264
1976	1.9651e+02	-1.3187	-27.969276	0.000578	5.777445	1.957451	0.000231
1977	1.9661e+02	-1.2834	-27.735123	0.000588	5.878804	1.991793	0.000235
1978	1.9671e+02	-1.2369	-27.448486	0.000720	7.196466	2.438229	0.000288
1979	1.9681e+02	-1.2016	-27.186072	0.000659	6.588314	2.232181	0.000264
1980	1.9691e+02	-1.1599	-26.935770	0.000628	6.284238	2.129158	0.000252
1981	1.9701e+02	-1.1294	-26.681430	0.000639	6.385597	2.163499	0.000256
1982	1.9711e+02	-1.0764	-26.435165	0.000618	6.182880	2.094816	0.000248
1983	1.9721e+02	-1.0476	-26.192937	0.000608	6.081521	2.060475	0.000243
1984	1.9731e+02	-1.0075	-25.894189	0.000750	7.500542	2.541253	0.000300
1985	1.9741e+02	-0.9722	-25.708480	0.000466	4.662499	1.579698	0.000187
1986	1.9751e+02	-0.9192	-25.409732	0.000750	7.500542	2.541253	0.000300
1987	1.9761e+02	-0.8855	-25.131170	0.000699	6.993749	2.369546	0.000280
1988	1.9771e+02	-0.8470	-24.884905	0.000618	6.182880	2.094816	0.000248
1989	1.9781e+02	-0.7989	-24.634602	0.000628	6.284238	2.129158	0.000252
1990	1.9791e+02	-0.7588	-24.368151	0.000669	6.689673	2.266523	0.000268
1991	1.9800e+02	-0.7155	-24.121886	0.000618	6.182880	2.094816	0.000248
1992	1.9810e+02	-0.6946	-23.903881	0.000547	5.473369	1.854428	0.000219
1993	1.9820e+02	-0.6481	-23.641467	0.000659	6.588314	2.232181	0.000264
1994	1.9830e+02	-0.5984	-23.370979	0.000679	6.791032	2.300864	0.000272
1995	1.9840e+02	-0.5695	-23.104528	0.000669	6.689673	2.266523	0.000268
1996	1.9850e+02	-0.5326	-22.870374	0.000588	5.878804	1.991793	0.000235
1997	1.9860e+02	-0.4845	-22.551440	0.000801	8.007336	2.712959	0.000321
1998	1.9870e+02	-0.4460	-22.337472	0.000537	5.372010	1.820086	0.000215
1999	1.9880e+02	-0.4059	-22.050835	0.000720	7.196466	2.438229	0.000288
2000	1.9890e+02	-0.3610	-21.784384	0.000669	6.689673	2.266523	0.000268
2001	1.9900e+02	-0.3144	-21.566379	0.000547	5.473369	1.854428	0.000219
2002	1.9910e+02	-0.2888	-21.279742	0.000720	7.196466	2.438229	0.000288
2003	1.9920e+02	-0.2471	-21.061737	0.000547	5.473369	1.854428	0.000219
2004	1.9930e+02	-0.2118	-20.767026	0.000740	7.399184	2.506911	0.000296
2005	1.9940e+02	-0.1733	-20.500575	0.000669	6.689673	2.266523	0.000268
2006	1.9950e+02	-0.1219	-20.270459	0.000578	5.777445	1.957451	0.000231
2007	1.9960e+02	-0.0946	-19.963636	0.000770	7.703260	2.609935	0.000308
2008	1.9970e+02	-0.0401	-19.721408	0.000608	6.081521	2.060475	0.000243
2009	1.9980e+02	0.0064	-19.503403	0.000608	6.081521	2.060475	0.000219

Center data before PMax,+/-Pr and +/-Vc Calc.

PMax (uC/cm2):	1.12e+02
Pr (uC/cm2):	9.78e+00
-Pr (uC/cm2):	-1.95e+01
PLoss (uC/cm2):	-2.13e+01
-Vc:	-1.49e+00
C (Max-Eff) (nF):	5.63e-01
K (Eff):	1.91e+03
Vert. (+/-Pr) Shift (uC/cm2):	-4.86e+00
Offset (uC/cm2):	-1.87e+00

A (Loop Area - uC/cm2·Volts):	2.84e-01



Hysteresis Version: 5.48.1 - Radiant Technologies, Inc., 1999 - 9/12/24

