»»»»»»»»»»»»»»»»»»»»»»»»»»»»»»»»»»»» Hysteresis ««««««««««««««««««««««««««««««««««««
»»»  Executed Version:	5.48.1
»»»  Vision Version:	5.48.4 (R)
»»»  Vision Compiled:	9/18/24
»»»  Driver Version:	5.47.0
»»»  Windows Version:	Windows 8 or 8.1
»»»  Processor Information:	x86 (AMD or Intel) - 32 Processors
»»»  Tester Name:	PMF21124-494 (100V)
»»»  Tester S/N:	PMF21124-494
»»»  Internal Amp Type:	100V RevK 270k
»»»  Internal Amp S/N:	iAB2-596/K     
»»»  Execution Count:	1
»»»»»»»»»»»»»»»»»»»»»»»»»»»»»»»»»»»»»»»»»»««««««««««««««««««««««««««««««««««««««««««

Stored:	6/4/2025 - 17:22:43
Configured:	06/04/25 04:39:58 PM
Executed:	06/04/25 05:22:06 PM

»»»»»»»»»»»»»»»»»»»»»»»»»»»»»»»»»»» Sample Info ««««««««««««««««««««««««««««««««««««
Sample Name:	
Lot Name:	
Wafer Name:	
Die Row/Column:	0/0
Capacitor Number:	0
Sample Area (cm2):	1.00e-04
Sample Thickness (microns):	3.00e-01

Amplifier:	Internal

»»»»»»»»»»»»»»»»»»»»»»»»»»»»»»»»»»» Tester Info «««««««««««««««««««««««««««««««««««
Tester Name:	PMF21124-494 (100V)
Tester Serial Number:	PMF21124-494
Return Signal Amp. Level:	0.19 [Index: 3]

»»»»»»»»»»»»»»»»»»»»»»»»»»»»»»»» Hysteresis Info ««««««««««««««««««««««««««««««««««
Task Name:	Hyst-147
Volts:	20.00
Field:	666.67 (kV/cm)
DCBias:	0.00
DCField:	0.00 (kV/cm)
Hysteresis Period (ms):	2.00e+02
Preset:	Enabled
Preset Delay (ms):	1.00e+03
Profile:	Standard Bipolar

»»»»»»»»»»»»»»»»»»»»»»»»»»»»»»»»»»»»»» Data «««««««««««««««««««««««««««««««««««««««
Points:	2009

Valid Data

Point	Time (ms)	Drive Voltage	Measured Polarization (uC/cm2)	Capacitance (uF)	Normalized Capacitance (uF/cm2)	Dielectric Constant	Instantaneous Current (mA)
   1	0.0000e+00	0.0064	-5.171571	0.000517	5.170019	1.751650	0.000207
   2	9.9500e-02	0.0321	-4.965677	0.000517	5.170019	1.751650	0.000207
   3	1.9900e-01	0.0561	-4.723449	0.000608	6.082375	2.060764	0.000243
   4	2.9850e-01	0.1107	-4.473146	0.000629	6.285121	2.129457	0.000252
   5	3.9800e-01	0.1524	-4.190547	0.000710	7.096104	2.404225	0.000284
   6	4.9750e-01	0.1781	-3.907947	0.000710	7.096104	2.404225	0.000284
   7	5.9700e-01	0.2246	-3.645534	0.000659	6.589239	2.232495	0.000264
   8	6.9650e-01	0.2759	-3.346786	0.000750	7.501596	2.541609	0.000300
   9	7.9600e-01	0.3176	-3.132817	0.000537	5.372764	1.820342	0.000215
  10	8.9550e-01	0.3481	-2.858292	0.000689	6.893358	2.335533	0.000276
  11	9.9500e-01	0.3866	-2.599915	0.000649	6.487867	2.198149	0.000260
  12	1.0945e+00	0.4315	-2.309242	0.000730	7.298850	2.472917	0.000292
  13	1.1940e+00	0.4684	-2.022605	0.000720	7.197477	2.438571	0.000288
  14	1.2935e+00	0.5005	-1.756154	0.000669	6.690612	2.266841	0.000268
  15	1.3930e+00	0.5406	-1.465480	0.000730	7.298850	2.472917	0.000292
  16	1.4925e+00	0.5839	-1.203066	0.000659	6.589239	2.232495	0.000264
  17	1.5920e+00	0.6176	-0.944690	0.000649	6.487867	2.198149	0.000260
  18	1.6915e+00	0.6593	-0.670165	0.000689	6.893358	2.335533	0.000276
  19	1.7910e+00	0.7139	-0.427936	0.000608	6.082375	2.060764	0.000243
  20	1.8905e+00	0.7428	-0.137263	0.000730	7.298850	2.472917	0.000292
  21	1.9900e+00	0.7813	0.137263	0.000689	6.893358	2.335533	0.000276
  22	2.0895e+00	0.8262	0.415825	0.000699	6.994731	2.369879	0.000280
  23	2.1890e+00	0.8743	0.686313	0.000679	6.791985	2.301187	0.000272
  24	2.2885e+00	0.9080	0.960838	0.000689	6.893358	2.335533	0.000276
  25	2.3880e+00	0.9449	1.223252	0.000659	6.589239	2.232495	0.000264
  26	2.4875e+00	0.9866	1.509889	0.000720	7.197477	2.438571	0.000288
  27	2.5870e+00	1.0251	1.784414	0.000689	6.893358	2.335533	0.000276
  28	2.6865e+00	1.0668	2.079125	0.000740	7.400223	2.507263	0.000296
  29	2.7860e+00	1.1021	2.321353	0.000608	6.082375	2.060764	0.000243
  30	2.8855e+00	1.1486	2.583767	0.000659	6.589239	2.232495	0.000264
  31	2.9850e+00	1.1839	2.874441	0.000730	7.298850	2.472917	0.000292
  32	3.0845e+00	1.2240	3.161077	0.000720	7.197477	2.438571	0.000288
  33	3.1840e+00	1.2689	3.407343	0.000618	6.183748	2.095110	0.000248
  34	3.2835e+00	1.3091	3.730313	0.000811	8.109833	2.747686	0.000325
  35	3.3830e+00	1.3476	3.988690	0.000649	6.487867	2.198149	0.000260
  36	3.4825e+00	1.3909	4.275327	0.000720	7.197477	2.438571	0.000288
  37	3.5820e+00	1.4246	4.497369	0.000558	5.575510	1.889034	0.000223
  38	3.6815e+00	1.4599	4.812266	0.000791	7.907087	2.678994	0.000316
  39	3.7810e+00	1.4984	5.102940	0.000730	7.298850	2.472917	0.000292
  40	3.8805e+00	1.5513	5.381502	0.000699	6.994731	2.369879	0.000280
  41	3.9800e+00	1.5802	5.664101	0.000710	7.096104	2.404225	0.000284
  42	4.0795e+00	1.6219	5.922478	0.000649	6.487867	2.198149	0.000260
  43	4.1790e+00	1.6572	6.233338	0.000781	7.805714	2.644648	0.000312
  44	4.2785e+00	1.6973	6.499789	0.000669	6.690612	2.266841	0.000268
  45	4.3780e+00	1.7422	6.802574	0.000760	7.602969	2.575955	0.000304
  46	4.4775e+00	1.7775	7.048839	0.000618	6.183748	2.095110	0.000248
  47	4.5770e+00	1.8240	7.319327	0.000679	6.791985	2.301187	0.000272
  48	4.6765e+00	1.8545	7.601927	0.000710	7.096104	2.404225	0.000284
  49	4.7760e+00	1.9058	7.916823	0.000791	7.907087	2.678994	0.000316
  50	4.8755e+00	1.9411	8.171163	0.000639	6.386494	2.163803	0.000256
  51	4.9750e+00	1.9812	8.482022	0.000781	7.805714	2.644648	0.000312
  52	5.0745e+00	2.0245	8.700028	0.000547	5.474137	1.854688	0.000219
  53	5.1740e+00	2.0630	9.027036	0.000821	8.211206	2.782032	0.000329
  54	5.2735e+00	2.1048	9.329821	0.000760	7.602969	2.575955	0.000304
  55	5.3730e+00	2.1400	9.616457	0.000720	7.197477	2.438571	0.000288
  56	5.4725e+00	2.1785	9.866760	0.000629	6.285121	2.129457	0.000252
  57	5.5720e+00	2.2251	10.141285	0.000689	6.893358	2.335533	0.000276
  58	5.6715e+00	2.2636	10.444070	0.000760	7.602969	2.575955	0.000304
  59	5.7710e+00	2.3069	10.694373	0.000629	6.285121	2.129457	0.000252
  60	5.8705e+00	2.3470	11.005232	0.000781	7.805714	2.644648	0.000312
  61	5.9700e+00	2.3743	11.303980	0.000750	7.501596	2.541609	0.000300
  62	6.0695e+00	2.4160	11.582542	0.000699	6.994731	2.369879	0.000280
  63	6.1690e+00	2.4545	11.828808	0.000618	6.183748	2.095110	0.000248
  64	6.2685e+00	2.5026	12.139667	0.000781	7.805714	2.644648	0.000312
  65	6.3680e+00	2.5395	12.406118	0.000669	6.690612	2.266841	0.000268
  66	6.4675e+00	2.5828	12.733126	0.000821	8.211206	2.782032	0.000329
  67	6.5670e+00	2.6277	12.975354	0.000608	6.082375	2.060764	0.000243
  68	6.6665e+00	2.6727	13.237768	0.000659	6.589239	2.232495	0.000264
  69	6.7660e+00	2.6983	13.584962	0.000872	8.718071	2.953762	0.000349
  70	6.8655e+00	2.7384	13.835264	0.000629	6.285121	2.129457	0.000252
  71	6.9650e+00	2.7833	14.089604	0.000639	6.386494	2.163803	0.000256
  72	7.0645e+00	2.8170	14.404500	0.000791	7.907087	2.678994	0.000316
  73	7.1640e+00	2.8523	14.683063	0.000699	6.994731	2.369879	0.000280
  74	7.2635e+00	2.9117	15.006034	0.000811	8.109833	2.747686	0.000325
  75	7.3630e+00	2.9486	15.256336	0.000629	6.285121	2.129457	0.000252
  76	7.4625e+00	2.9823	15.526824	0.000679	6.791985	2.301187	0.000272
  77	7.5620e+00	3.0111	15.805386	0.000699	6.994731	2.369879	0.000280
  78	7.6615e+00	3.0609	16.071837	0.000669	6.690612	2.266841	0.000268
  79	7.7610e+00	3.0962	16.386734	0.000791	7.907087	2.678994	0.000316
  80	7.8605e+00	3.1363	16.673371	0.000720	7.197477	2.438571	0.000288
  81	7.9600e+00	3.1780	16.964044	0.000730	7.298850	2.472917	0.000292
  82	8.0595e+00	3.2181	17.230495	0.000669	6.690612	2.266841	0.000268
  83	8.1590e+00	3.2518	17.468686	0.000598	5.981002	2.026418	0.000239
  84	8.2585e+00	3.2983	17.755323	0.000720	7.197477	2.438571	0.000288
  85	8.3580e+00	3.3384	18.098480	0.000862	8.616698	2.919416	0.000345
  86	8.4575e+00	3.3705	18.356856	0.000649	6.487867	2.198149	0.000260
  87	8.5570e+00	3.4186	18.607159	0.000629	6.285121	2.129457	0.000252
  88	8.6565e+00	3.4507	18.922055	0.000791	7.907087	2.678994	0.000316
  89	8.7560e+00	3.4940	19.184469	0.000659	6.589239	2.232495	0.000264
  90	8.8555e+00	3.5373	19.422660	0.000598	5.981002	2.026418	0.000239
  91	8.9550e+00	3.5758	19.729482	0.000770	7.704342	2.610302	0.000308
  92	9.0545e+00	3.6224	20.028230	0.000750	7.501596	2.541609	0.000300
  93	9.1540e+00	3.6625	20.306793	0.000699	6.994731	2.369879	0.000280
  94	9.2535e+00	3.6913	20.561132	0.000639	6.386494	2.163803	0.000256
  95	9.3530e+00	3.7298	20.871992	0.000781	7.805714	2.644648	0.000312
  96	9.4525e+00	3.7796	21.146517	0.000689	6.893358	2.335533	0.000276
  97	9.5520e+00	3.8181	21.388745	0.000608	6.082375	2.060764	0.000243
  98	9.6515e+00	3.8598	21.691530	0.000760	7.602969	2.575955	0.000304
  99	9.7510e+00	3.8935	21.990278	0.000750	7.501596	2.541609	0.000300
 100	9.8505e+00	3.9352	22.280952	0.000730	7.298850	2.472917	0.000292
 101	9.9500e+00	3.9737	22.531255	0.000629	6.285121	2.129457	0.000252
 102	1.0050e+01	4.0218	22.838077	0.000770	7.704342	2.610302	0.000308
 103	1.0149e+01	4.0555	23.116639	0.000699	6.994731	2.369879	0.000280
 104	1.0248e+01	4.0940	23.427499	0.000781	7.805714	2.644648	0.000312
 105	1.0348e+01	4.1373	23.673764	0.000618	6.183748	2.095110	0.000248
 106	1.0447e+01	4.1774	23.956363	0.000710	7.096104	2.404225	0.000284
 107	1.0547e+01	4.2159	24.234926	0.000699	6.994731	2.369879	0.000280
 108	1.0646e+01	4.2448	24.501377	0.000669	6.690612	2.266841	0.000268
 109	1.0746e+01	4.2929	24.779939	0.000699	6.994731	2.369879	0.000280
 110	1.0845e+01	4.3298	25.098873	0.000801	8.008460	2.713340	0.000321
 111	1.0945e+01	4.3683	25.397621	0.000750	7.501596	2.541609	0.000300
 112	1.1044e+01	4.4132	25.627738	0.000578	5.778256	1.957726	0.000231
 113	1.1144e+01	4.4550	25.890151	0.000659	6.589239	2.232495	0.000264
 114	1.1243e+01	4.4951	26.201011	0.000781	7.805714	2.644648	0.000312
 115	1.1343e+01	4.5400	26.467462	0.000669	6.690612	2.266841	0.000268
 116	1.1443e+01	4.5753	26.770247	0.000760	7.602969	2.575955	0.000304
 117	1.1542e+01	4.6154	27.044772	0.000689	6.893358	2.335533	0.000276
 118	1.1642e+01	4.6507	27.331409	0.000720	7.197477	2.438571	0.000288
 119	1.1741e+01	4.6828	27.618046	0.000720	7.197477	2.438571	0.000288
 120	1.1841e+01	4.7261	27.896608	0.000699	6.994731	2.369879	0.000280
 121	1.1940e+01	4.7614	28.114613	0.000547	5.474137	1.854688	0.000219
 122	1.2040e+01	4.8159	28.469881	0.000892	8.920816	3.022454	0.000357
 123	1.2139e+01	4.8464	28.744406	0.000689	6.893358	2.335533	0.000276
 124	1.2239e+01	4.8929	28.994709	0.000629	6.285121	2.129457	0.000252
 125	1.2338e+01	4.9346	29.236937	0.000608	6.082375	2.060764	0.000243
 126	1.2438e+01	4.9683	29.515499	0.000699	6.994731	2.369879	0.000280
 127	1.2537e+01	5.0084	29.830396	0.000791	7.907087	2.678994	0.000316
 128	1.2636e+01	5.0485	30.064550	0.000588	5.879629	1.992072	0.000235
 129	1.2736e+01	5.0918	30.359261	0.000740	7.400223	2.507263	0.000296
 130	1.2835e+01	5.1319	30.662046	0.000760	7.602969	2.575955	0.000304
 131	1.2935e+01	5.1753	30.924460	0.000659	6.589239	2.232495	0.000264
 132	1.3034e+01	5.2154	31.231282	0.000770	7.704342	2.610302	0.000308
 133	1.3134e+01	5.2539	31.509844	0.000699	6.994731	2.369879	0.000280
 134	1.3233e+01	5.2843	31.743998	0.000588	5.879629	1.992072	0.000235
 135	1.3333e+01	5.3261	32.014486	0.000679	6.791985	2.301187	0.000272
 136	1.3432e+01	5.3662	32.309197	0.000740	7.400223	2.507263	0.000296
 137	1.3532e+01	5.4143	32.599871	0.000730	7.298850	2.472917	0.000292
 138	1.3632e+01	5.4464	32.809802	0.000527	5.271392	1.785996	0.000211
 139	1.3731e+01	5.4929	33.108550	0.000750	7.501596	2.541609	0.000300
 140	1.3831e+01	5.5282	33.379038	0.000679	6.791985	2.301187	0.000272
 141	1.3930e+01	5.5619	33.665675	0.000720	7.197477	2.438571	0.000288
 142	1.4030e+01	5.5988	33.956349	0.000730	7.298850	2.472917	0.000292
 143	1.4129e+01	5.6453	34.202614	0.000618	6.183748	2.095110	0.000248
 144	1.4229e+01	5.7014	34.493288	0.000730	7.298850	2.472917	0.000292
 145	1.4328e+01	5.7303	34.751664	0.000649	6.487867	2.198149	0.000260
 146	1.4428e+01	5.7736	35.042338	0.000730	7.298850	2.472917	0.000292
 147	1.4527e+01	5.8073	35.296678	0.000639	6.386494	2.163803	0.000256
 148	1.4627e+01	5.8506	35.583314	0.000720	7.197477	2.438571	0.000288
 149	1.4726e+01	5.8811	35.857840	0.000689	6.893358	2.335533	0.000276
 150	1.4825e+01	5.9260	36.148513	0.000730	7.298850	2.472917	0.000292
 151	1.4925e+01	5.9677	36.394779	0.000618	6.183748	2.095110	0.000248
 152	1.5024e+01	6.0030	36.649118	0.000639	6.386494	2.163803	0.000256
 153	1.5124e+01	6.0512	36.895384	0.000618	6.183748	2.095110	0.000248
 154	1.5223e+01	6.0865	37.214317	0.000801	8.008460	2.713340	0.000321
 155	1.5323e+01	6.1314	37.436360	0.000558	5.575510	1.889034	0.000223
 156	1.5422e+01	6.1651	37.735108	0.000750	7.501596	2.541609	0.000300
 157	1.5522e+01	6.2084	37.985410	0.000629	6.285121	2.129457	0.000252
 158	1.5621e+01	6.2421	38.251861	0.000669	6.690612	2.266841	0.000268
 159	1.5721e+01	6.2998	38.534461	0.000710	7.096104	2.404225	0.000284
 160	1.5820e+01	6.3255	38.772652	0.000598	5.981002	2.026418	0.000239
 161	1.5920e+01	6.3624	39.071400	0.000750	7.501596	2.541609	0.000300
 162	1.6020e+01	6.4185	39.297479	0.000568	5.676883	1.923380	0.000227
 163	1.6119e+01	6.4538	39.592190	0.000740	7.400223	2.507263	0.000296
 164	1.6218e+01	6.4731	39.878827	0.000720	7.197477	2.438571	0.000288
 165	1.6318e+01	6.5196	40.149315	0.000679	6.791985	2.301187	0.000272
 166	1.6418e+01	6.5613	40.379432	0.000578	5.778256	1.957726	0.000231
 167	1.6517e+01	6.6110	40.662031	0.000710	7.096104	2.404225	0.000284
 168	1.6616e+01	6.6447	40.900222	0.000598	5.981002	2.026418	0.000239
 169	1.6716e+01	6.6864	41.154562	0.000639	6.386494	2.163803	0.000256
 170	1.6816e+01	6.7169	41.457347	0.000760	7.602969	2.575955	0.000304
 171	1.6915e+01	6.7602	41.707649	0.000629	6.285121	2.129457	0.000252
 172	1.7015e+01	6.7971	41.990249	0.000710	7.096104	2.404225	0.000284
 173	1.7114e+01	6.8421	42.248625	0.000649	6.487867	2.198149	0.000260
 174	1.7213e+01	6.8757	42.498928	0.000629	6.285121	2.129457	0.000252
 175	1.7313e+01	6.9255	42.761342	0.000659	6.589239	2.232495	0.000264
 176	1.7413e+01	6.9640	43.072201	0.000781	7.805714	2.644648	0.000312
 177	1.7512e+01	7.0041	43.282132	0.000527	5.271392	1.785996	0.000211
 178	1.7611e+01	7.0410	43.536472	0.000639	6.386494	2.163803	0.000256
 179	1.7711e+01	7.0843	43.827146	0.000730	7.298850	2.472917	0.000292
 180	1.7811e+01	7.1244	44.109745	0.000710	7.096104	2.404225	0.000284
 181	1.7910e+01	7.1661	44.372159	0.000659	6.589239	2.232495	0.000264
 182	1.8009e+01	7.2014	44.606313	0.000588	5.879629	1.992072	0.000235
 183	1.8109e+01	7.2367	44.892949	0.000720	7.197477	2.438571	0.000288
 184	1.8209e+01	7.2928	45.139215	0.000618	6.183748	2.095110	0.000248
 185	1.8308e+01	7.3121	45.401629	0.000659	6.589239	2.232495	0.000264
 186	1.8407e+01	7.3618	45.643857	0.000608	6.082375	2.060764	0.000243
 187	1.8507e+01	7.4051	45.914345	0.000679	6.791985	2.301187	0.000272
 188	1.8607e+01	7.4436	46.128313	0.000537	5.372764	1.820342	0.000215
 189	1.8706e+01	7.4837	46.423024	0.000740	7.400223	2.507263	0.000296
 190	1.8805e+01	7.5158	46.697549	0.000689	6.893358	2.335533	0.000276
 191	1.8905e+01	7.5511	46.895369	0.000497	4.967273	1.682958	0.000199
 192	1.9005e+01	7.5976	47.177968	0.000710	7.096104	2.404225	0.000284
 193	1.9104e+01	7.6313	47.456531	0.000699	6.994731	2.369879	0.000280
 194	1.9203e+01	7.6811	47.706833	0.000629	6.285121	2.129457	0.000252
 195	1.9303e+01	7.7164	47.940987	0.000588	5.879629	1.992072	0.000235
 196	1.9402e+01	7.7533	48.215512	0.000689	6.893358	2.335533	0.000276
 197	1.9502e+01	7.7966	48.486000	0.000679	6.791985	2.301187	0.000272
 198	1.9602e+01	7.8335	48.740340	0.000639	6.386494	2.163803	0.000256
 199	1.9701e+01	7.8848	48.958345	0.000547	5.474137	1.854688	0.000219
 200	1.9800e+01	7.9281	49.200573	0.000608	6.082375	2.060764	0.000243
 201	1.9900e+01	7.9666	49.450876	0.000629	6.285121	2.129457	0.000252
 202	2.0000e+01	8.0035	49.697141	0.000618	6.183748	2.095110	0.000248
 203	2.0099e+01	8.0404	49.963592	0.000669	6.690612	2.266841	0.000268
 204	2.0198e+01	8.0757	50.246191	0.000710	7.096104	2.404225	0.000284
 205	2.0298e+01	8.1142	50.476308	0.000578	5.778256	1.957726	0.000231
 206	2.0398e+01	8.1543	50.750833	0.000689	6.893358	2.335533	0.000276
 207	2.0497e+01	8.1928	50.989024	0.000598	5.981002	2.026418	0.000239
 208	2.0596e+01	8.2409	51.239327	0.000629	6.285121	2.129457	0.000252
 209	2.0696e+01	8.2843	51.530001	0.000730	7.298850	2.472917	0.000292
 210	2.0796e+01	8.3147	51.776266	0.000618	6.183748	2.095110	0.000248
 211	2.0895e+01	8.3597	52.006383	0.000578	5.778256	1.957726	0.000231
 212	2.0994e+01	8.4046	52.252648	0.000618	6.183748	2.095110	0.000248
 213	2.1094e+01	8.4367	52.482765	0.000578	5.778256	1.957726	0.000231
 214	2.1194e+01	8.4736	52.781513	0.000750	7.501596	2.541609	0.000300
 215	2.1293e+01	8.5153	52.999518	0.000547	5.474137	1.854688	0.000219
 216	2.1392e+01	8.5554	53.241746	0.000608	6.082375	2.060764	0.000243
 217	2.1492e+01	8.6067	53.492049	0.000629	6.285121	2.129457	0.000252
 218	2.1591e+01	8.6404	53.754462	0.000659	6.589239	2.232495	0.000264
 219	2.1691e+01	8.6725	54.016876	0.000659	6.589239	2.232495	0.000264
 220	2.1791e+01	8.7158	54.255067	0.000598	5.981002	2.026418	0.000239
 221	2.1890e+01	8.7591	54.533630	0.000699	6.994731	2.369879	0.000280
 222	2.1989e+01	8.8024	54.747598	0.000537	5.372764	1.820342	0.000215
 223	2.2089e+01	8.8329	54.977714	0.000578	5.778256	1.957726	0.000231
 224	2.2189e+01	8.8842	55.264351	0.000720	7.197477	2.438571	0.000288
 225	2.2288e+01	8.9131	55.550988	0.000720	7.197477	2.438571	0.000288
 226	2.2387e+01	8.9548	55.801290	0.000629	6.285121	2.129457	0.000252
 227	2.2487e+01	8.9949	55.999110	0.000497	4.967273	1.682958	0.000199
 228	2.2587e+01	9.0415	56.233264	0.000588	5.879629	1.992072	0.000235
 229	2.2686e+01	9.0816	56.487603	0.000639	6.386494	2.163803	0.000256
 230	2.2785e+01	9.1072	56.745980	0.000649	6.487867	2.198149	0.000260
 231	2.2885e+01	9.1521	57.000319	0.000639	6.386494	2.163803	0.000256
 232	2.2985e+01	9.1939	57.254659	0.000639	6.386494	2.163803	0.000256
 233	2.3084e+01	9.2420	57.464590	0.000527	5.271392	1.785996	0.000211
 234	2.3183e+01	9.2773	57.735078	0.000679	6.791985	2.301187	0.000272
 235	2.3283e+01	9.3158	58.025752	0.000730	7.298850	2.472917	0.000292
 236	2.3383e+01	9.3591	58.231646	0.000517	5.170019	1.751650	0.000207
 237	2.3482e+01	9.3944	58.473874	0.000608	6.082375	2.060764	0.000243
 238	2.3581e+01	9.4361	58.708028	0.000588	5.879629	1.992072	0.000235
 239	2.3681e+01	9.4762	58.986590	0.000699	6.994731	2.369879	0.000280
 240	2.3780e+01	9.5083	59.192484	0.000517	5.170019	1.751650	0.000207
 241	2.3880e+01	9.5612	59.483158	0.000730	7.298850	2.472917	0.000292
 242	2.3980e+01	9.5869	59.729423	0.000618	6.183748	2.095110	0.000248
 243	2.4079e+01	9.6463	59.939354	0.000527	5.271392	1.785996	0.000211
 244	2.4178e+01	9.6783	60.181582	0.000608	6.082375	2.060764	0.000243
 245	2.4278e+01	9.7136	60.411699	0.000578	5.778256	1.957726	0.000231
 246	2.4378e+01	9.7425	60.645853	0.000588	5.879629	1.992072	0.000235
 247	2.4477e+01	9.7906	60.944601	0.000750	7.501596	2.541609	0.000300
 248	2.4576e+01	9.8388	61.178755	0.000588	5.879629	1.992072	0.000235
 249	2.4676e+01	9.8757	61.420983	0.000608	6.082375	2.060764	0.000243
 250	2.4776e+01	9.9077	61.618803	0.000497	4.967273	1.682958	0.000199
 251	2.4875e+01	9.9511	61.897365	0.000699	6.994731	2.369879	0.000280
 252	2.4974e+01	9.9831	62.143630	0.000618	6.183748	2.095110	0.000248
 253	2.5074e+01	10.0329	62.349524	0.000517	5.170019	1.751650	0.000207
 254	2.5174e+01	10.0601	62.603864	0.000639	6.386494	2.163803	0.000256
 255	2.5273e+01	10.1115	62.809758	0.000517	5.170019	1.751650	0.000207
 256	2.5372e+01	10.1532	63.060060	0.000629	6.285121	2.129457	0.000252
 257	2.5472e+01	10.1756	63.318437	0.000649	6.487867	2.198149	0.000260
 258	2.5572e+01	10.2238	63.520294	0.000507	5.068646	1.717304	0.000203
 259	2.5671e+01	10.2815	63.762522	0.000608	6.082375	2.060764	0.000243
 260	2.5770e+01	10.3072	64.037047	0.000689	6.893358	2.335533	0.000276
 261	2.5870e+01	10.3441	64.271201	0.000588	5.879629	1.992072	0.000235
 262	2.5970e+01	10.3922	64.513429	0.000608	6.082375	2.060764	0.000243
 263	2.6069e+01	10.4339	64.755657	0.000608	6.082375	2.060764	0.000243
 264	2.6169e+01	10.4756	64.993848	0.000598	5.981002	2.026418	0.000239
 265	2.6268e+01	10.5157	65.207816	0.000537	5.372764	1.820342	0.000215
 266	2.6367e+01	10.5639	65.470230	0.000659	6.589239	2.232495	0.000264
 267	2.6467e+01	10.5927	65.720533	0.000629	6.285121	2.129457	0.000252
 268	2.6567e+01	10.6329	65.946612	0.000568	5.676883	1.923380	0.000227
 269	2.6666e+01	10.6762	66.164618	0.000547	5.474137	1.854688	0.000219
 270	2.6765e+01	10.7099	66.422994	0.000649	6.487867	2.198149	0.000260
 271	2.6865e+01	10.7548	66.677334	0.000639	6.386494	2.163803	0.000256
 272	2.6965e+01	10.7965	66.871116	0.000487	4.865900	1.648612	0.000195
 273	2.7064e+01	10.8189	67.161790	0.000730	7.298850	2.472917	0.000292
 274	2.7163e+01	10.8671	67.395944	0.000588	5.879629	1.992072	0.000235
 275	2.7263e+01	10.9072	67.597801	0.000507	5.068646	1.717304	0.000203
 276	2.7363e+01	10.9473	67.868289	0.000679	6.791985	2.301187	0.000272
 277	2.7462e+01	10.9922	68.094368	0.000568	5.676883	1.923380	0.000227
 278	2.7561e+01	11.0371	68.352745	0.000649	6.487867	2.198149	0.000260
 279	2.7661e+01	11.0772	68.586899	0.000588	5.879629	1.992072	0.000235
 280	2.7761e+01	11.1077	68.812979	0.000568	5.676883	1.923380	0.000227
 281	2.7860e+01	11.1462	69.063281	0.000629	6.285121	2.129457	0.000252
 282	2.7959e+01	11.1847	69.285324	0.000558	5.575510	1.889034	0.000223
 283	2.8059e+01	11.2296	69.523515	0.000598	5.981002	2.026418	0.000239
 284	2.8159e+01	11.2601	69.777854	0.000639	6.386494	2.163803	0.000256
 285	2.8258e+01	11.3050	69.987785	0.000527	5.271392	1.785996	0.000211
 286	2.8358e+01	11.3612	70.282496	0.000740	7.400223	2.507263	0.000296
 287	2.8457e+01	11.3836	70.472241	0.000476	4.764527	1.614265	0.000191
 288	2.8556e+01	11.4237	70.718507	0.000618	6.183748	2.095110	0.000248
 289	2.8656e+01	11.4655	70.936512	0.000547	5.474137	1.854688	0.000219
 290	2.8756e+01	11.5136	71.174703	0.000598	5.981002	2.026418	0.000239
 291	2.8855e+01	11.5457	71.416931	0.000608	6.082375	2.060764	0.000243
 292	2.8954e+01	11.5858	71.634937	0.000547	5.474137	1.854688	0.000219
 293	2.9054e+01	11.6275	71.909462	0.000689	6.893358	2.335533	0.000276
 294	2.9154e+01	11.6708	72.091133	0.000456	4.561781	1.545573	0.000183
 295	2.9253e+01	11.7077	72.341435	0.000629	6.285121	2.129457	0.000252
 296	2.9352e+01	11.7462	72.555403	0.000537	5.372764	1.820342	0.000215
 297	2.9452e+01	11.7863	72.821854	0.000669	6.690612	2.266841	0.000268
 298	2.9552e+01	11.8264	73.023711	0.000507	5.068646	1.717304	0.000203
 299	2.9651e+01	11.8665	73.261902	0.000598	5.981002	2.026418	0.000239
 300	2.9750e+01	11.9098	73.512205	0.000629	6.285121	2.129457	0.000252
 301	2.9850e+01	11.9467	73.714061	0.000507	5.068646	1.717304	0.000203
 302	2.9950e+01	11.9788	73.972438	0.000649	6.487867	2.198149	0.000260
 303	3.0049e+01	12.0285	74.194481	0.000558	5.575510	1.889034	0.000223
 304	3.0148e+01	12.0719	74.428634	0.000588	5.879629	1.992072	0.000235
 305	3.0248e+01	12.1023	74.658751	0.000578	5.778256	1.957726	0.000231
 306	3.0348e+01	12.1344	74.852534	0.000487	4.865900	1.648612	0.000195
 307	3.0447e+01	12.1841	75.094762	0.000608	6.082375	2.060764	0.000243
 308	3.0547e+01	12.2291	75.320841	0.000568	5.676883	1.923380	0.000227
 309	3.0646e+01	12.2660	75.571144	0.000629	6.285121	2.129457	0.000252
 310	3.0745e+01	12.2948	75.777038	0.000517	5.170019	1.751650	0.000207
 311	3.0845e+01	12.3462	76.015229	0.000598	5.981002	2.026418	0.000239
 312	3.0945e+01	12.3863	76.273605	0.000649	6.487867	2.198149	0.000260
 313	3.1044e+01	12.4248	76.459314	0.000466	4.663154	1.579919	0.000187
 314	3.1143e+01	12.4649	76.697505	0.000598	5.981002	2.026418	0.000239
 315	3.1243e+01	12.4922	76.935696	0.000598	5.981002	2.026418	0.000239
 316	3.1343e+01	12.5403	77.165812	0.000578	5.778256	1.957726	0.000231
 317	3.1442e+01	12.5900	77.387855	0.000558	5.575510	1.889034	0.000223
 318	3.1541e+01	12.6205	77.597786	0.000527	5.271392	1.785996	0.000211
 319	3.1641e+01	12.6622	77.811754	0.000537	5.372764	1.820342	0.000215
 320	3.1741e+01	12.7055	78.058019	0.000618	6.183748	2.095110	0.000248
 321	3.1840e+01	12.7456	78.276025	0.000547	5.474137	1.854688	0.000219
 322	3.1939e+01	12.7777	78.502104	0.000568	5.676883	1.923380	0.000227
 323	3.2039e+01	12.8178	78.703961	0.000507	5.068646	1.717304	0.000203
 324	3.2139e+01	12.8547	78.970412	0.000669	6.690612	2.266841	0.000268
 325	3.2238e+01	12.8980	79.160158	0.000476	4.764527	1.614265	0.000191
 326	3.2337e+01	12.9446	79.422571	0.000659	6.589239	2.232495	0.000264
 327	3.2437e+01	12.9734	79.632502	0.000527	5.271392	1.785996	0.000211
 328	3.2536e+01	13.0183	79.878768	0.000618	6.183748	2.095110	0.000248
 329	3.2636e+01	13.0665	80.048327	0.000426	4.257662	1.442535	0.000170
 330	3.2736e+01	13.1050	80.298630	0.000629	6.285121	2.129457	0.000252
 331	3.2835e+01	13.1387	80.552969	0.000639	6.386494	2.163803	0.000256
 332	3.2934e+01	13.1675	80.754826	0.000507	5.068646	1.717304	0.000203
 333	3.3034e+01	13.2157	80.984943	0.000578	5.778256	1.957726	0.000231
 334	3.3133e+01	13.2654	81.211023	0.000568	5.676883	1.923380	0.000227
 335	3.3233e+01	13.2943	81.445176	0.000588	5.879629	1.992072	0.000235
 336	3.3333e+01	13.3424	81.606662	0.000405	4.054917	1.373843	0.000162
 337	3.3432e+01	13.3713	81.836779	0.000578	5.778256	1.957726	0.000231
 338	3.3532e+01	13.4146	82.115341	0.000699	6.994731	2.369879	0.000280
 339	3.3631e+01	13.4515	82.333346	0.000547	5.474137	1.854688	0.000219
 340	3.3730e+01	13.4996	82.555389	0.000558	5.575510	1.889034	0.000223
 341	3.3830e+01	13.5301	82.785505	0.000578	5.778256	1.957726	0.000231
 342	3.3929e+01	13.5734	82.955065	0.000426	4.257662	1.442535	0.000170
 343	3.4029e+01	13.6071	83.221516	0.000669	6.690612	2.266841	0.000268
 344	3.4129e+01	13.6552	83.407224	0.000466	4.663154	1.579919	0.000187
 345	3.4228e+01	13.6937	83.625230	0.000547	5.474137	1.854688	0.000219
 346	3.4328e+01	13.7322	83.847272	0.000558	5.575510	1.889034	0.000223
 347	3.4427e+01	13.7691	84.093537	0.000618	6.183748	2.095110	0.000248
 348	3.4526e+01	13.8157	84.303468	0.000527	5.271392	1.785996	0.000211
 349	3.4626e+01	13.8606	84.517437	0.000537	5.372764	1.820342	0.000215
 350	3.4725e+01	13.8991	84.739479	0.000558	5.575510	1.889034	0.000223
 351	3.4825e+01	13.9263	84.949410	0.000527	5.271392	1.785996	0.000211
 352	3.4925e+01	13.9697	85.147230	0.000497	4.967273	1.682958	0.000199
 353	3.5024e+01	14.0162	85.373309	0.000568	5.676883	1.923380	0.000227
 354	3.5123e+01	14.0531	85.627649	0.000639	6.386494	2.163803	0.000256
 355	3.5223e+01	14.0964	85.797209	0.000426	4.257662	1.442535	0.000170
 356	3.5322e+01	14.1429	86.023288	0.000568	5.676883	1.923380	0.000227
 357	3.5422e+01	14.1798	86.257442	0.000588	5.879629	1.992072	0.000235
 358	3.5522e+01	14.2071	86.447188	0.000476	4.764527	1.614265	0.000191
 359	3.5621e+01	14.2456	86.661156	0.000537	5.372764	1.820342	0.000215
 360	3.5721e+01	14.2937	86.891272	0.000578	5.778256	1.957726	0.000231
 361	3.5820e+01	14.3354	87.093129	0.000507	5.068646	1.717304	0.000203
 362	3.5919e+01	14.3691	87.303060	0.000527	5.271392	1.785996	0.000211
 363	3.6019e+01	14.4188	87.521066	0.000547	5.474137	1.854688	0.000219
 364	3.6118e+01	14.4606	87.739071	0.000547	5.474137	1.854688	0.000219
 365	3.6218e+01	14.4878	87.953039	0.000537	5.372764	1.820342	0.000215
 366	3.6318e+01	14.5343	88.175082	0.000558	5.575510	1.889034	0.000223
 367	3.6417e+01	14.5809	88.364827	0.000476	4.764527	1.614265	0.000191
 368	3.6517e+01	14.6178	88.554572	0.000476	4.764527	1.614265	0.000191
 369	3.6616e+01	14.6434	88.792763	0.000598	5.981002	2.026418	0.000239
 370	3.6715e+01	14.6964	89.014806	0.000558	5.575510	1.889034	0.000223
 371	3.6815e+01	14.7317	89.228774	0.000537	5.372764	1.820342	0.000215
 372	3.6914e+01	14.7750	89.398334	0.000426	4.257662	1.442535	0.000170
 373	3.7014e+01	14.8119	89.636525	0.000598	5.981002	2.026418	0.000239
 374	3.7114e+01	14.8504	89.834344	0.000497	4.967273	1.682958	0.000199
 375	3.7213e+01	14.8937	90.076573	0.000608	6.082375	2.060764	0.000243
 376	3.7313e+01	14.9322	90.278429	0.000507	5.068646	1.717304	0.000203
 377	3.7412e+01	14.9691	90.508546	0.000578	5.778256	1.957726	0.000231
 378	3.7511e+01	15.0108	90.678106	0.000426	4.257662	1.442535	0.000170
 379	3.7611e+01	15.0477	90.916297	0.000598	5.981002	2.026418	0.000239
 380	3.7711e+01	15.0926	91.146414	0.000578	5.778256	1.957726	0.000231
 381	3.7810e+01	15.1247	91.315973	0.000426	4.257662	1.442535	0.000170
 382	3.7910e+01	15.1712	91.546090	0.000578	5.778256	1.957726	0.000231
 383	3.8009e+01	15.2129	91.784281	0.000598	5.981002	2.026418	0.000239
 384	3.8108e+01	15.2498	91.978064	0.000487	4.865900	1.648612	0.000195
 385	3.8208e+01	15.2915	92.171846	0.000487	4.865900	1.648612	0.000195
 386	3.8307e+01	15.3284	92.341406	0.000426	4.257662	1.442535	0.000170
 387	3.8407e+01	15.3669	92.644191	0.000760	7.602969	2.575955	0.000304
 388	3.8507e+01	15.4119	92.833936	0.000476	4.764527	1.614265	0.000191
 389	3.8606e+01	15.4536	93.019645	0.000466	4.663154	1.579919	0.000187
 390	3.8706e+01	15.4841	93.225538	0.000517	5.170019	1.751650	0.000207
 391	3.8805e+01	15.5290	93.483915	0.000649	6.487867	2.198149	0.000260
 392	3.8904e+01	15.5691	93.677698	0.000487	4.865900	1.648612	0.000195
 393	3.9004e+01	15.6108	93.879554	0.000507	5.068646	1.717304	0.000203
 394	3.9103e+01	15.6365	94.053151	0.000436	4.359035	1.476881	0.000174
 395	3.9203e+01	15.6862	94.291342	0.000598	5.981002	2.026418	0.000239
 396	3.9303e+01	15.7231	94.477051	0.000466	4.663154	1.579919	0.000187
 397	3.9402e+01	15.7696	94.707167	0.000578	5.778256	1.957726	0.000231
 398	3.9502e+01	15.8081	94.892876	0.000466	4.663154	1.579919	0.000187
 399	3.9601e+01	15.8402	95.110881	0.000547	5.474137	1.854688	0.000219
 400	3.9700e+01	15.8867	95.320812	0.000527	5.271392	1.785996	0.000211
 401	3.9800e+01	15.9300	95.510557	0.000476	4.764527	1.614265	0.000191
 402	3.9900e+01	15.9589	95.728563	0.000547	5.474137	1.854688	0.000219
 403	3.9999e+01	16.0135	95.938494	0.000527	5.271392	1.785996	0.000211
 404	4.0099e+01	16.0471	96.152462	0.000537	5.372764	1.820342	0.000215
 405	4.0198e+01	16.0872	96.354319	0.000507	5.068646	1.717304	0.000203
 406	4.0297e+01	16.1354	96.576361	0.000558	5.575510	1.889034	0.000223
 407	4.0397e+01	16.1739	96.782255	0.000517	5.170019	1.751650	0.000207
 408	4.0496e+01	16.1963	96.988149	0.000517	5.170019	1.751650	0.000207
 409	4.0596e+01	16.2429	97.177894	0.000476	4.764527	1.614265	0.000191
 410	4.0696e+01	16.2782	97.379751	0.000507	5.068646	1.717304	0.000203
 411	4.0795e+01	16.3247	97.577571	0.000497	4.967273	1.682958	0.000199
 412	4.0895e+01	16.3584	97.831910	0.000639	6.386494	2.163803	0.000256
 413	4.0994e+01	16.4017	98.033767	0.000507	5.068646	1.717304	0.000203
 414	4.1093e+01	16.4482	98.191215	0.000395	3.953544	1.339497	0.000158
 415	4.1193e+01	16.4851	98.421332	0.000578	5.778256	1.957726	0.000231
 416	4.1292e+01	16.5220	98.598966	0.000446	4.460408	1.511227	0.000179
 417	4.1392e+01	16.5637	98.829083	0.000578	5.778256	1.957726	0.000231
 418	4.1492e+01	16.6054	99.039014	0.000527	5.271392	1.785996	0.000211
 419	4.1591e+01	16.6423	99.224722	0.000466	4.663154	1.579919	0.000187
 420	4.1691e+01	16.6856	99.426579	0.000507	5.068646	1.717304	0.000203
 421	4.1790e+01	16.7225	99.632473	0.000517	5.170019	1.751650	0.000207
 422	4.1889e+01	16.7755	99.838367	0.000517	5.170019	1.751650	0.000207
 423	4.1989e+01	16.8075	100.007927	0.000426	4.257662	1.442535	0.000170
 424	4.2089e+01	16.8428	100.286489	0.000699	6.994731	2.369879	0.000280
 425	4.2188e+01	16.8749	100.415677	0.000324	3.243933	1.099074	0.000130
 426	4.2288e+01	16.9150	100.621571	0.000517	5.170019	1.751650	0.000207
 427	4.2387e+01	16.9680	100.859762	0.000598	5.981002	2.026418	0.000239
 428	4.2486e+01	17.0001	101.037396	0.000446	4.460408	1.511227	0.000179
 429	4.2586e+01	17.0498	101.247327	0.000527	5.271392	1.785996	0.000211
 430	4.2685e+01	17.0899	101.441110	0.000487	4.865900	1.648612	0.000195
 431	4.2785e+01	17.1188	101.651041	0.000527	5.271392	1.785996	0.000211
 432	4.2885e+01	17.1685	101.881157	0.000578	5.778256	1.957726	0.000231
 433	4.2984e+01	17.1990	102.034569	0.000385	3.852171	1.305151	0.000154
 434	4.3084e+01	17.2391	102.252574	0.000547	5.474137	1.854688	0.000219
 435	4.3183e+01	17.2840	102.462505	0.000527	5.271392	1.785996	0.000211
 436	4.3282e+01	17.3209	102.648213	0.000466	4.663154	1.579919	0.000187
 437	4.3382e+01	17.3594	102.850070	0.000507	5.068646	1.717304	0.000203
 438	4.3481e+01	17.3979	103.124595	0.000689	6.893358	2.335533	0.000276
 439	4.3581e+01	17.4412	103.265895	0.000355	3.548052	1.202113	0.000142
 440	4.3681e+01	17.4861	103.520235	0.000639	6.386494	2.163803	0.000256
 441	4.3780e+01	17.5246	103.693831	0.000436	4.359035	1.476881	0.000174
 442	4.3880e+01	17.5680	103.899725	0.000517	5.170019	1.751650	0.000207
 443	4.3979e+01	17.6065	104.105619	0.000517	5.170019	1.751650	0.000207
 444	4.4078e+01	17.6434	104.291328	0.000466	4.663154	1.579919	0.000187
 445	4.4178e+01	17.6963	104.501259	0.000527	5.271392	1.785996	0.000211
 446	4.4278e+01	17.7171	104.739450	0.000598	5.981002	2.026418	0.000239
 447	4.4377e+01	17.7540	104.945344	0.000517	5.170019	1.751650	0.000207
 448	4.4477e+01	17.8038	105.110866	0.000416	4.156290	1.408189	0.000166
 449	4.4576e+01	17.8310	105.349057	0.000598	5.981002	2.026418	0.000239
 450	4.4675e+01	17.8808	105.530728	0.000456	4.561781	1.545573	0.000183
 451	4.4775e+01	17.9209	105.740659	0.000527	5.271392	1.785996	0.000211
 452	4.4874e+01	17.9578	105.950590	0.000527	5.271392	1.785996	0.000211
 453	4.4974e+01	18.0091	106.152447	0.000507	5.068646	1.717304	0.000203
 454	4.5074e+01	18.0396	106.305858	0.000385	3.852171	1.305151	0.000154
 455	4.5173e+01	18.0797	106.523864	0.000547	5.474137	1.854688	0.000219
 456	4.5273e+01	18.1102	106.749943	0.000568	5.676883	1.923380	0.000227
 457	4.5372e+01	18.1519	106.939689	0.000476	4.764527	1.614265	0.000191
 458	4.5471e+01	18.2016	107.129434	0.000476	4.764527	1.614265	0.000191
 459	4.5571e+01	18.2465	107.307068	0.000446	4.460408	1.511227	0.000179
 460	4.5670e+01	18.2770	107.549296	0.000608	6.082375	2.060764	0.000243
 461	4.5770e+01	18.3219	107.735004	0.000466	4.663154	1.579919	0.000187
 462	4.5870e+01	18.3637	107.932824	0.000497	4.967273	1.682958	0.000199
 463	4.5969e+01	18.4022	108.110458	0.000446	4.460408	1.511227	0.000179
 464	4.6069e+01	18.4407	108.328463	0.000547	5.474137	1.854688	0.000219
 465	4.6168e+01	18.4792	108.542431	0.000537	5.372764	1.820342	0.000215
 466	4.6267e+01	18.5048	108.724103	0.000456	4.561781	1.545573	0.000183
 467	4.6367e+01	18.5626	108.905774	0.000456	4.561781	1.545573	0.000183
 468	4.6467e+01	18.6011	109.131853	0.000568	5.676883	1.923380	0.000227
 469	4.6566e+01	18.6348	109.301413	0.000426	4.257662	1.442535	0.000170
 470	4.6666e+01	18.6701	109.531530	0.000578	5.778256	1.957726	0.000231
 471	4.6765e+01	18.7182	109.713201	0.000456	4.561781	1.545573	0.000183
 472	4.6864e+01	18.7551	109.923132	0.000527	5.271392	1.785996	0.000211
 473	4.6964e+01	18.8000	110.108840	0.000466	4.663154	1.579919	0.000187
 474	4.7063e+01	18.8385	110.290511	0.000456	4.561781	1.545573	0.000183
 475	4.7163e+01	18.8722	110.520628	0.000578	5.778256	1.957726	0.000231
 476	4.7263e+01	18.9219	110.706336	0.000466	4.663154	1.579919	0.000187
 477	4.7362e+01	18.9556	110.896082	0.000476	4.764527	1.614265	0.000191
 478	4.7462e+01	18.9925	111.073716	0.000446	4.460408	1.511227	0.000179
 479	4.7561e+01	19.0358	111.263461	0.000476	4.764527	1.614265	0.000191
 480	4.7660e+01	19.0759	111.489541	0.000568	5.676883	1.923380	0.000227
 481	4.7760e+01	19.1080	111.683323	0.000487	4.865900	1.648612	0.000195
 482	4.7859e+01	19.1529	111.873068	0.000476	4.764527	1.614265	0.000191
 483	4.7959e+01	19.1995	112.091074	0.000547	5.474137	1.854688	0.000219
 484	4.8059e+01	19.2364	112.260633	0.000426	4.257662	1.442535	0.000170
 485	4.8158e+01	19.2765	112.454416	0.000487	4.865900	1.648612	0.000195
 486	4.8258e+01	19.3230	112.660310	0.000517	5.170019	1.751650	0.000207
 487	4.8357e+01	19.3551	112.862167	0.000507	5.068646	1.717304	0.000203
 488	4.8456e+01	19.3968	113.027689	0.000416	4.156290	1.408189	0.000166
 489	4.8556e+01	19.4353	113.221472	0.000487	4.865900	1.648612	0.000195
 490	4.8656e+01	19.4722	113.427366	0.000517	5.170019	1.751650	0.000207
 491	4.8755e+01	19.5107	113.625185	0.000497	4.967273	1.682958	0.000199
 492	4.8855e+01	19.5460	113.831079	0.000517	5.170019	1.751650	0.000207
 493	4.8954e+01	19.5925	113.984490	0.000385	3.852171	1.305151	0.000154
 494	4.9053e+01	19.6294	114.222681	0.000598	5.981002	2.026418	0.000239
 495	4.9153e+01	19.6695	114.400315	0.000446	4.460408	1.511227	0.000179
 496	4.9252e+01	19.7128	114.626395	0.000568	5.676883	1.923380	0.000227
 497	4.9352e+01	19.7529	114.779806	0.000385	3.852171	1.305151	0.000154
 498	4.9452e+01	19.7882	114.965514	0.000466	4.663154	1.579919	0.000187
 499	4.9551e+01	19.8379	115.155260	0.000476	4.764527	1.614265	0.000191
 500	4.9651e+01	19.8700	115.389414	0.000588	5.879629	1.992072	0.000235
 501	4.9750e+01	19.9053	115.591270	0.000507	5.068646	1.717304	0.000203
 502	4.9849e+01	19.9486	115.805239	0.000537	5.372764	1.820342	0.000215
 503	4.9949e+01	19.9791	115.970761	0.000416	4.156290	1.408189	0.000166
 504	5.0048e+01	19.9454	115.877907	0.000233	2.331577	0.789960	-0.000093
 505	5.0148e+01	19.9101	115.736607	0.000355	3.548052	1.202113	-0.000142
 506	5.0248e+01	19.8572	115.591270	0.000365	3.649425	1.236459	-0.000146
 507	5.0347e+01	19.8251	115.433822	0.000395	3.953544	1.339497	-0.000158
 508	5.0447e+01	19.7930	115.296560	0.000345	3.446679	1.167766	-0.000138
 509	5.0546e+01	19.7545	115.171408	0.000314	3.142560	1.064728	-0.000126
 510	5.0645e+01	19.7144	115.054331	0.000294	2.939815	0.996036	-0.000118
 511	5.0745e+01	19.6775	114.900920	0.000385	3.852171	1.305151	-0.000154
 512	5.0844e+01	19.6246	114.747509	0.000385	3.852171	1.305151	-0.000154
 513	5.0944e+01	19.5925	114.594098	0.000385	3.852171	1.305151	-0.000154
 514	5.1044e+01	19.5524	114.477021	0.000294	2.939815	0.996036	-0.000118
 515	5.1143e+01	19.5139	114.319573	0.000395	3.953544	1.339497	-0.000158
 516	5.1242e+01	19.4706	114.194421	0.000314	3.142560	1.064728	-0.000126
 517	5.1342e+01	19.4321	114.053122	0.000355	3.548052	1.202113	-0.000142
 518	5.1441e+01	19.3952	113.887599	0.000416	4.156290	1.408189	-0.000166
 519	5.1541e+01	19.3519	113.758411	0.000324	3.243933	1.099074	-0.000130
 520	5.1641e+01	19.3278	113.613074	0.000365	3.649425	1.236459	-0.000146
 521	5.1740e+01	19.2781	113.451589	0.000405	4.054917	1.373843	-0.000162
 522	5.1840e+01	19.2364	113.314326	0.000345	3.446679	1.167766	-0.000138
 523	5.1939e+01	19.1995	113.181100	0.000335	3.345306	1.133420	-0.000134
 524	5.2038e+01	19.1545	112.971169	0.000527	5.271392	1.785996	-0.000211
 525	5.2138e+01	19.1144	112.837944	0.000335	3.345306	1.133420	-0.000134
 526	5.2237e+01	19.0727	112.672421	0.000416	4.156290	1.408189	-0.000166
 527	5.2337e+01	19.0503	112.478639	0.000487	4.865900	1.648612	-0.000195
 528	5.2437e+01	18.9941	112.321191	0.000395	3.953544	1.339497	-0.000158
 529	5.2536e+01	18.9604	112.179891	0.000355	3.548052	1.202113	-0.000142
 530	5.2636e+01	18.9203	112.058777	0.000304	3.041187	1.030382	-0.000122
 531	5.2735e+01	18.8786	111.869031	0.000476	4.764527	1.614265	-0.000191
 532	5.2834e+01	18.8401	111.735806	0.000335	3.345306	1.133420	-0.000134
 533	5.2934e+01	18.7872	111.550098	0.000466	4.663154	1.579919	-0.000187
 534	5.3033e+01	18.7679	111.416872	0.000335	3.345306	1.133420	-0.000134
 535	5.3133e+01	18.7166	111.243275	0.000436	4.359035	1.476881	-0.000174
 536	5.3233e+01	18.6813	111.073716	0.000426	4.257662	1.442535	-0.000170
 537	5.3332e+01	18.6348	110.928379	0.000365	3.649425	1.236459	-0.000146
 538	5.3431e+01	18.6011	110.746708	0.000456	4.561781	1.545573	-0.000183
 539	5.3531e+01	18.5642	110.633668	0.000284	2.838442	0.961690	-0.000114
 540	5.3630e+01	18.5209	110.480257	0.000385	3.852171	1.305151	-0.000154
 541	5.3730e+01	18.4808	110.270326	0.000527	5.271392	1.785996	-0.000211
 542	5.3830e+01	18.4407	110.120952	0.000375	3.750798	1.270805	-0.000150
 543	5.3929e+01	18.4006	109.959466	0.000405	4.054917	1.373843	-0.000162
 544	5.4029e+01	18.3524	109.797981	0.000405	4.054917	1.373843	-0.000162
 545	5.4128e+01	18.3171	109.620347	0.000446	4.460408	1.511227	-0.000179
 546	5.4227e+01	18.2786	109.458861	0.000405	4.054917	1.373843	-0.000162
 547	5.4327e+01	18.2369	109.277190	0.000456	4.561781	1.545573	-0.000183
 548	5.4426e+01	18.1936	109.156076	0.000304	3.041187	1.030382	-0.000122
 549	5.4526e+01	18.1679	108.970368	0.000466	4.663154	1.579919	-0.000187
 550	5.4626e+01	18.1150	108.800808	0.000426	4.257662	1.442535	-0.000170
 551	5.4725e+01	18.0845	108.667583	0.000335	3.345306	1.133420	-0.000134
 552	5.4825e+01	18.0508	108.445540	0.000558	5.575510	1.889034	-0.000223
 553	5.4924e+01	18.0027	108.328463	0.000294	2.939815	0.996036	-0.000118
 554	5.5023e+01	17.9562	108.158904	0.000426	4.257662	1.442535	-0.000170
 555	5.5123e+01	17.9225	107.965121	0.000487	4.865900	1.648612	-0.000195
 556	5.5222e+01	17.8792	107.783450	0.000456	4.561781	1.545573	-0.000183
 557	5.5322e+01	17.8423	107.658299	0.000314	3.142560	1.064728	-0.000126
 558	5.5422e+01	17.8022	107.484702	0.000436	4.359035	1.476881	-0.000174
 559	5.5521e+01	17.7556	107.339365	0.000365	3.649425	1.236459	-0.000146
 560	5.5620e+01	17.7155	107.153657	0.000466	4.663154	1.579919	-0.000187
 561	5.5720e+01	17.6867	106.976023	0.000446	4.460408	1.511227	-0.000179
 562	5.5819e+01	17.6434	106.794352	0.000456	4.561781	1.545573	-0.000183
 563	5.5919e+01	17.6081	106.657089	0.000345	3.446679	1.167766	-0.000138
 564	5.6019e+01	17.5487	106.483492	0.000436	4.359035	1.476881	-0.000174
 565	5.6118e+01	17.5246	106.305858	0.000446	4.460408	1.511227	-0.000179
 566	5.6218e+01	17.4797	106.140336	0.000416	4.156290	1.408189	-0.000166
 567	5.6317e+01	17.4380	105.962702	0.000446	4.460408	1.511227	-0.000179
 568	5.6416e+01	17.4043	105.801216	0.000405	4.054917	1.373843	-0.000162
 569	5.6516e+01	17.3546	105.639731	0.000405	4.054917	1.373843	-0.000162
 570	5.6615e+01	17.3225	105.482283	0.000395	3.953544	1.339497	-0.000158
 571	5.6715e+01	17.2808	105.300611	0.000456	4.561781	1.545573	-0.000183
 572	5.6815e+01	17.2407	105.155275	0.000365	3.649425	1.236459	-0.000146
 573	5.6914e+01	17.2006	104.945344	0.000527	5.271392	1.785996	-0.000211
 574	5.7014e+01	17.1669	104.812118	0.000335	3.345306	1.133420	-0.000134
 575	5.7113e+01	17.1204	104.634484	0.000446	4.460408	1.511227	-0.000179
 576	5.7212e+01	17.0931	104.460887	0.000436	4.359035	1.476881	-0.000174
 577	5.7312e+01	17.0466	104.279216	0.000456	4.561781	1.545573	-0.000183
 578	5.7411e+01	17.0033	104.113694	0.000416	4.156290	1.408189	-0.000166
 579	5.7511e+01	16.9648	103.915874	0.000497	4.967273	1.682958	-0.000199
 580	5.7611e+01	16.9182	103.758426	0.000395	3.953544	1.339497	-0.000158
 581	5.7710e+01	16.8781	103.544457	0.000537	5.372764	1.820342	-0.000215
 582	5.7809e+01	16.8460	103.407195	0.000345	3.446679	1.167766	-0.000138
 583	5.7909e+01	16.8059	103.261858	0.000365	3.649425	1.236459	-0.000146
 584	5.8008e+01	16.7626	103.072113	0.000476	4.764527	1.614265	-0.000191
 585	5.8108e+01	16.7305	102.870256	0.000507	5.068646	1.717304	-0.000203
 586	5.8208e+01	16.6840	102.712807	0.000395	3.953544	1.339497	-0.000158
 587	5.8307e+01	16.6455	102.567471	0.000365	3.649425	1.236459	-0.000146
 588	5.8407e+01	16.6118	102.361577	0.000517	5.170019	1.751650	-0.000207
 589	5.8506e+01	16.5605	102.187980	0.000436	4.359035	1.476881	-0.000174
 590	5.8605e+01	16.5300	102.034569	0.000385	3.852171	1.305151	-0.000154
 591	5.8705e+01	16.4899	101.856935	0.000446	4.460408	1.511227	-0.000179
 592	5.8804e+01	16.4514	101.687375	0.000426	4.257662	1.442535	-0.000170
 593	5.8904e+01	16.4145	101.433035	0.000639	6.386494	2.163803	-0.000256
 594	5.9004e+01	16.3632	101.307884	0.000314	3.142560	1.064728	-0.000126
 595	5.9103e+01	16.3311	101.081805	0.000568	5.676883	1.923380	-0.000227
 596	5.9203e+01	16.2974	100.936468	0.000365	3.649425	1.236459	-0.000146
 597	5.9302e+01	16.2493	100.783057	0.000385	3.852171	1.305151	-0.000154
 598	5.9401e+01	16.2028	100.569088	0.000537	5.372764	1.820342	-0.000215
 599	5.9501e+01	16.1659	100.443937	0.000314	3.142560	1.064728	-0.000126
 600	5.9600e+01	16.1225	100.221895	0.000558	5.575510	1.889034	-0.000223
 601	5.9700e+01	16.0921	100.068484	0.000385	3.852171	1.305151	-0.000154
 602	5.9800e+01	16.0455	99.890850	0.000446	4.460408	1.511227	-0.000179
 603	5.9899e+01	16.0022	99.713216	0.000446	4.460408	1.511227	-0.000179
 604	5.9998e+01	15.9701	99.563842	0.000375	3.750798	1.270805	-0.000150
 605	6.0098e+01	15.9364	99.382170	0.000456	4.561781	1.545573	-0.000183
 606	6.0197e+01	15.8787	99.208574	0.000436	4.359035	1.476881	-0.000174
 607	6.0297e+01	15.8418	99.014791	0.000487	4.865900	1.648612	-0.000195
 608	6.0397e+01	15.7953	98.821009	0.000487	4.865900	1.648612	-0.000195
 609	6.0496e+01	15.7744	98.671635	0.000375	3.750798	1.270805	-0.000150
 610	6.0596e+01	15.7247	98.481889	0.000476	4.764527	1.614265	-0.000191
 611	6.0695e+01	15.6878	98.288107	0.000487	4.865900	1.648612	-0.000195
 612	6.0794e+01	15.6509	98.134696	0.000385	3.852171	1.305151	-0.000154
 613	6.0894e+01	15.6044	97.981284	0.000385	3.852171	1.305151	-0.000154
 614	6.0993e+01	15.5659	97.779428	0.000507	5.068646	1.717304	-0.000203
 615	6.1093e+01	15.5274	97.621979	0.000395	3.953544	1.339497	-0.000158
 616	6.1193e+01	15.4825	97.428197	0.000487	4.865900	1.648612	-0.000195
 617	6.1292e+01	15.4488	97.242489	0.000466	4.663154	1.579919	-0.000187
 618	6.1392e+01	15.4231	97.097152	0.000365	3.649425	1.236459	-0.000146
 619	6.1491e+01	15.3621	96.903369	0.000487	4.865900	1.648612	-0.000195
 620	6.1590e+01	15.3413	96.697475	0.000517	5.170019	1.751650	-0.000207
 621	6.1690e+01	15.2915	96.560213	0.000345	3.446679	1.167766	-0.000138
 622	6.1789e+01	15.2482	96.354319	0.000517	5.170019	1.751650	-0.000207
 623	6.1889e+01	15.2210	96.172648	0.000456	4.561781	1.545573	-0.000183
 624	6.1989e+01	15.1793	95.986939	0.000466	4.663154	1.579919	-0.000187
 625	6.2088e+01	15.1311	95.797194	0.000476	4.764527	1.614265	-0.000191
 626	6.2188e+01	15.0846	95.599374	0.000497	4.967273	1.682958	-0.000199
 627	6.2287e+01	15.0509	95.429815	0.000426	4.257662	1.442535	-0.000170
 628	6.2386e+01	15.0060	95.252181	0.000446	4.460408	1.511227	-0.000179
 629	6.2486e+01	14.9787	95.110881	0.000355	3.548052	1.202113	-0.000142
 630	6.2586e+01	14.9402	94.872690	0.000598	5.981002	2.026418	-0.000239
 631	6.2685e+01	14.8905	94.727353	0.000365	3.649425	1.236459	-0.000146
 632	6.2785e+01	14.8568	94.541645	0.000466	4.663154	1.579919	-0.000187
 633	6.2884e+01	14.8135	94.355936	0.000466	4.663154	1.579919	-0.000187
 634	6.2983e+01	14.7605	94.154080	0.000507	5.068646	1.717304	-0.000203
 635	6.3083e+01	14.7349	93.980483	0.000436	4.359035	1.476881	-0.000174
 636	6.3182e+01	14.7044	93.754403	0.000568	5.676883	1.923380	-0.000227
 637	6.3282e+01	14.6466	93.625215	0.000324	3.243933	1.099074	-0.000130
 638	6.3382e+01	14.6210	93.403172	0.000558	5.575510	1.889034	-0.000223
 639	6.3481e+01	14.5584	93.209390	0.000487	4.865900	1.648612	-0.000195
 640	6.3581e+01	14.5279	93.039830	0.000426	4.257662	1.442535	-0.000170
 641	6.3680e+01	14.4846	92.862196	0.000446	4.460408	1.511227	-0.000179
 642	6.3779e+01	14.4493	92.688599	0.000436	4.359035	1.476881	-0.000174
 643	6.3879e+01	14.4156	92.502891	0.000466	4.663154	1.579919	-0.000187
 644	6.3978e+01	14.3723	92.321220	0.000456	4.561781	1.545573	-0.000183
 645	6.4078e+01	14.3322	92.119363	0.000507	5.068646	1.717304	-0.000203
 646	6.4177e+01	14.2889	91.953841	0.000416	4.156290	1.408189	-0.000166
 647	6.4277e+01	14.2472	91.735835	0.000547	5.474137	1.854688	-0.000219
 648	6.4376e+01	14.2135	91.542053	0.000487	4.865900	1.648612	-0.000195
 649	6.4476e+01	14.1734	91.376530	0.000416	4.156290	1.408189	-0.000166
 650	6.4576e+01	14.1381	91.211008	0.000416	4.156290	1.408189	-0.000166
 651	6.4675e+01	14.0932	91.013188	0.000497	4.967273	1.682958	-0.000199
 652	6.4775e+01	14.0659	90.766923	0.000618	6.183748	2.095110	-0.000248
 653	6.4874e+01	14.0082	90.637734	0.000324	3.243933	1.099074	-0.000130
 654	6.4974e+01	13.9777	90.403581	0.000588	5.879629	1.992072	-0.000235
 655	6.5073e+01	13.9328	90.258244	0.000365	3.649425	1.236459	-0.000146
 656	6.5172e+01	13.8959	90.028127	0.000578	5.778256	1.957726	-0.000231
 657	6.5272e+01	13.8526	89.826270	0.000507	5.068646	1.717304	-0.000203
 658	6.5371e+01	13.8173	89.656710	0.000426	4.257662	1.442535	-0.000170
 659	6.5471e+01	13.7755	89.458891	0.000497	4.967273	1.682958	-0.000199
 660	6.5570e+01	13.7386	89.257034	0.000507	5.068646	1.717304	-0.000203
 661	6.5670e+01	13.6937	89.095549	0.000405	4.054917	1.373843	-0.000162
 662	6.5769e+01	13.6504	88.917915	0.000446	4.460408	1.511227	-0.000179
 663	6.5869e+01	13.6264	88.724132	0.000487	4.865900	1.648612	-0.000195
 664	6.5969e+01	13.5686	88.530350	0.000487	4.865900	1.648612	-0.000195
 665	6.6068e+01	13.5301	88.296196	0.000588	5.879629	1.992072	-0.000235
 666	6.6168e+01	13.4916	88.090302	0.000517	5.170019	1.751650	-0.000207
 667	6.6267e+01	13.4579	87.949002	0.000355	3.548052	1.202113	-0.000142
 668	6.6367e+01	13.4162	87.739071	0.000527	5.271392	1.785996	-0.000211
 669	6.6466e+01	13.3745	87.557400	0.000456	4.561781	1.545573	-0.000183
 670	6.6566e+01	13.3248	87.367655	0.000476	4.764527	1.614265	-0.000191
 671	6.6665e+01	13.2959	87.194058	0.000436	4.359035	1.476881	-0.000174
 672	6.6764e+01	13.2574	86.988164	0.000517	5.170019	1.751650	-0.000207
 673	6.6864e+01	13.2189	86.794381	0.000487	4.865900	1.648612	-0.000195
 674	6.6963e+01	13.1820	86.572339	0.000558	5.575510	1.889034	-0.000223
 675	6.7063e+01	13.1403	86.410853	0.000405	4.054917	1.373843	-0.000162
 676	6.7162e+01	13.1002	86.204959	0.000517	5.170019	1.751650	-0.000207
 677	6.7262e+01	13.0569	86.011177	0.000487	4.865900	1.648612	-0.000195
 678	6.7362e+01	13.0135	85.833543	0.000446	4.460408	1.511227	-0.000179
 679	6.7461e+01	12.9766	85.643798	0.000476	4.764527	1.614265	-0.000191
 680	6.7561e+01	12.9413	85.466164	0.000446	4.460408	1.511227	-0.000179
 681	6.7660e+01	12.9061	85.260270	0.000517	5.170019	1.751650	-0.000207
 682	6.7760e+01	12.8659	85.074561	0.000466	4.663154	1.579919	-0.000187
 683	6.7859e+01	12.8178	84.876742	0.000497	4.967273	1.682958	-0.000199
 684	6.7959e+01	12.7825	84.715256	0.000405	4.054917	1.373843	-0.000162
 685	6.8058e+01	12.7392	84.477065	0.000598	5.981002	2.026418	-0.000239
 686	6.8157e+01	12.7087	84.263097	0.000537	5.372764	1.820342	-0.000215
 687	6.8257e+01	12.6670	84.065277	0.000497	4.967273	1.682958	-0.000199
 688	6.8356e+01	12.6157	83.859384	0.000517	5.170019	1.751650	-0.000207
 689	6.8456e+01	12.5756	83.689824	0.000426	4.257662	1.442535	-0.000170
 690	6.8555e+01	12.5451	83.463744	0.000568	5.676883	1.923380	-0.000227
 691	6.8655e+01	12.4986	83.265925	0.000497	4.967273	1.682958	-0.000199
 692	6.8754e+01	12.4585	83.084253	0.000456	4.561781	1.545573	-0.000183
 693	6.8854e+01	12.4280	82.894508	0.000476	4.764527	1.614265	-0.000191
 694	6.8954e+01	12.3911	82.700726	0.000487	4.865900	1.648612	-0.000195
 695	6.9053e+01	12.3478	82.442349	0.000649	6.487867	2.198149	-0.000260
 696	6.9153e+01	12.3013	82.236455	0.000517	5.170019	1.751650	-0.000207
 697	6.9252e+01	12.2692	82.038635	0.000497	4.967273	1.682958	-0.000199
 698	6.9352e+01	12.2275	81.848890	0.000476	4.764527	1.614265	-0.000191
 699	6.9451e+01	12.1858	81.630885	0.000547	5.474137	1.854688	-0.000219
 700	6.9550e+01	12.1456	81.433065	0.000497	4.967273	1.682958	-0.000199
 701	6.9650e+01	12.1055	81.219097	0.000537	5.372764	1.820342	-0.000215
 702	6.9749e+01	12.0622	81.009166	0.000527	5.271392	1.785996	-0.000211
 703	6.9849e+01	12.0285	80.803272	0.000517	5.170019	1.751650	-0.000207
 704	6.9948e+01	11.9692	80.613526	0.000476	4.764527	1.614265	-0.000191
 705	7.0048e+01	11.9435	80.427818	0.000466	4.663154	1.579919	-0.000187
 706	7.0147e+01	11.9082	80.229999	0.000497	4.967273	1.682958	-0.000199
 707	7.0247e+01	11.8633	79.991808	0.000598	5.981002	2.026418	-0.000239
 708	7.0347e+01	11.8280	79.810136	0.000456	4.561781	1.545573	-0.000183
 709	7.0446e+01	11.7959	79.636540	0.000436	4.359035	1.476881	-0.000174
 710	7.0546e+01	11.7478	79.414497	0.000558	5.575510	1.889034	-0.000223
 711	7.0645e+01	11.6965	79.200529	0.000537	5.372764	1.820342	-0.000215
 712	7.0745e+01	11.6724	78.998672	0.000507	5.068646	1.717304	-0.000203
 713	7.0844e+01	11.6243	78.788741	0.000527	5.271392	1.785996	-0.000211
 714	7.0944e+01	11.5794	78.582847	0.000517	5.170019	1.751650	-0.000207
 715	7.1043e+01	11.5441	78.372916	0.000527	5.271392	1.785996	-0.000211
 716	7.1142e+01	11.5088	78.175096	0.000497	4.967273	1.682958	-0.000199
 717	7.1242e+01	11.4622	77.969203	0.000517	5.170019	1.751650	-0.000207
 718	7.1341e+01	11.4173	77.743123	0.000568	5.676883	1.923380	-0.000227
 719	7.1441e+01	11.3788	77.537229	0.000517	5.170019	1.751650	-0.000207
 720	7.1540e+01	11.3499	77.355558	0.000456	4.561781	1.545573	-0.000183
 721	7.1640e+01	11.3098	77.157738	0.000497	4.967273	1.682958	-0.000199
 722	7.1740e+01	11.2697	76.895324	0.000659	6.589239	2.232495	-0.000264
 723	7.1839e+01	11.2216	76.713653	0.000456	4.561781	1.545573	-0.000183
 724	7.1939e+01	11.1831	76.483537	0.000578	5.778256	1.957726	-0.000231
 725	7.2038e+01	11.1462	76.261494	0.000558	5.575510	1.889034	-0.000223
 726	7.2138e+01	11.1141	76.095972	0.000416	4.156290	1.408189	-0.000166
 727	7.2237e+01	11.0580	75.882003	0.000537	5.372764	1.820342	-0.000215
 728	7.2337e+01	11.0259	75.659961	0.000558	5.575510	1.889034	-0.000223
 729	7.2436e+01	10.9922	75.433881	0.000568	5.676883	1.923380	-0.000227
 730	7.2535e+01	10.9617	75.272396	0.000405	4.054917	1.373843	-0.000162
 731	7.2635e+01	10.9072	75.042279	0.000578	5.778256	1.957726	-0.000231
 732	7.2734e+01	10.8639	74.828311	0.000537	5.372764	1.820342	-0.000215
 733	7.2834e+01	10.8334	74.610306	0.000547	5.474137	1.854688	-0.000219
 734	7.2933e+01	10.7885	74.452857	0.000395	3.953544	1.339497	-0.000158
 735	7.3033e+01	10.7484	74.198518	0.000639	6.386494	2.163803	-0.000256
 736	7.3132e+01	10.7034	74.000698	0.000497	4.967273	1.682958	-0.000199
 737	7.3232e+01	10.6746	73.770581	0.000578	5.778256	1.957726	-0.000231
 738	7.3332e+01	10.6248	73.572762	0.000497	4.967273	1.682958	-0.000199
 739	7.3431e+01	10.5847	73.362831	0.000527	5.271392	1.785996	-0.000211
 740	7.3531e+01	10.5398	73.124640	0.000598	5.981002	2.026418	-0.000239
 741	7.3630e+01	10.5077	72.926820	0.000497	4.967273	1.682958	-0.000199
 742	7.3730e+01	10.4724	72.720926	0.000517	5.170019	1.751650	-0.000207
 743	7.3829e+01	10.4323	72.527144	0.000487	4.865900	1.648612	-0.000195
 744	7.3928e+01	10.4051	72.264730	0.000659	6.589239	2.232495	-0.000264
 745	7.4028e+01	10.3521	72.095170	0.000426	4.257662	1.442535	-0.000170
 746	7.4127e+01	10.3072	71.885239	0.000527	5.271392	1.785996	-0.000211
 747	7.4227e+01	10.2719	71.622825	0.000659	6.589239	2.232495	-0.000264
 748	7.4326e+01	10.2318	71.437117	0.000466	4.663154	1.579919	-0.000187
 749	7.4426e+01	10.1933	71.227186	0.000527	5.271392	1.785996	-0.000211
 750	7.4525e+01	10.1500	70.993032	0.000588	5.879629	1.992072	-0.000235
 751	7.4625e+01	10.1163	70.803287	0.000476	4.764527	1.614265	-0.000191
 752	7.4725e+01	10.0810	70.536836	0.000669	6.690612	2.266841	-0.000268
 753	7.4824e+01	10.0361	70.326905	0.000527	5.271392	1.785996	-0.000211
 754	7.4924e+01	9.9896	70.108899	0.000547	5.474137	1.854688	-0.000219
 755	7.5023e+01	9.9559	69.907042	0.000507	5.068646	1.717304	-0.000203
 756	7.5123e+01	9.9110	69.701149	0.000517	5.170019	1.751650	-0.000207
 757	7.5222e+01	9.8692	69.483143	0.000547	5.474137	1.854688	-0.000219
 758	7.5322e+01	9.8307	69.244952	0.000598	5.981002	2.026418	-0.000239
 759	7.5421e+01	9.7890	69.018873	0.000568	5.676883	1.923380	-0.000227
 760	7.5520e+01	9.7473	68.800867	0.000547	5.474137	1.854688	-0.000219
 761	7.5620e+01	9.7120	68.582862	0.000547	5.474137	1.854688	-0.000219
 762	7.5719e+01	9.6703	68.376968	0.000517	5.170019	1.751650	-0.000207
 763	7.5819e+01	9.6414	68.134740	0.000608	6.082375	2.060764	-0.000243
 764	7.5918e+01	9.5981	67.924809	0.000527	5.271392	1.785996	-0.000211
 765	7.6018e+01	9.5564	67.718915	0.000517	5.170019	1.751650	-0.000207
 766	7.6118e+01	9.5051	67.484761	0.000588	5.879629	1.992072	-0.000235
 767	7.6217e+01	9.4698	67.262719	0.000558	5.575510	1.889034	-0.000223
 768	7.6317e+01	9.4457	67.060862	0.000507	5.068646	1.717304	-0.000203
 769	7.6416e+01	9.3976	66.842856	0.000547	5.474137	1.854688	-0.000219
 770	7.6516e+01	9.3511	66.645037	0.000497	4.967273	1.682958	-0.000199
 771	7.6615e+01	9.3046	66.418957	0.000568	5.676883	1.923380	-0.000227
 772	7.6715e+01	9.2725	66.168655	0.000629	6.285121	2.129457	-0.000252
 773	7.6814e+01	9.2420	65.982947	0.000466	4.663154	1.579919	-0.000187
 774	7.6913e+01	9.1923	65.732644	0.000629	6.285121	2.129457	-0.000252
 775	7.7013e+01	9.1570	65.530787	0.000507	5.068646	1.717304	-0.000203
 776	7.7112e+01	9.1153	65.324893	0.000517	5.170019	1.751650	-0.000207
 777	7.7212e+01	9.0719	65.082665	0.000608	6.082375	2.060764	-0.000243
 778	7.7311e+01	9.0350	64.860623	0.000558	5.575510	1.889034	-0.000223
 779	7.7411e+01	8.9933	64.610320	0.000629	6.285121	2.129457	-0.000252
 780	7.7510e+01	8.9532	64.400389	0.000527	5.271392	1.785996	-0.000211
 781	7.7610e+01	8.9179	64.202570	0.000497	4.967273	1.682958	-0.000199
 782	7.7710e+01	8.8794	63.992639	0.000527	5.271392	1.785996	-0.000211
 783	7.7809e+01	8.8281	63.754448	0.000598	5.981002	2.026418	-0.000239
 784	7.7909e+01	8.8024	63.560665	0.000487	4.865900	1.648612	-0.000195
 785	7.8008e+01	8.7575	63.334585	0.000568	5.676883	1.923380	-0.000227
 786	7.8108e+01	8.7126	63.108506	0.000568	5.676883	1.923380	-0.000227
 787	7.8207e+01	8.6757	62.846092	0.000659	6.589239	2.232495	-0.000264
 788	7.8306e+01	8.6388	62.660384	0.000466	4.663154	1.579919	-0.000187
 789	7.8406e+01	8.5939	62.422193	0.000598	5.981002	2.026418	-0.000239
 790	7.8505e+01	8.5570	62.171890	0.000629	6.285121	2.129457	-0.000252
 791	7.8605e+01	8.5072	61.986182	0.000466	4.663154	1.579919	-0.000187
 792	7.8704e+01	8.4768	61.788362	0.000497	4.967273	1.682958	-0.000199
 793	7.8804e+01	8.4351	61.521912	0.000669	6.690612	2.266841	-0.000268
 794	7.8903e+01	8.3998	61.299869	0.000558	5.575510	1.889034	-0.000223
 795	7.9003e+01	8.3581	61.065715	0.000588	5.879629	1.992072	-0.000235
 796	7.9103e+01	8.3244	60.835598	0.000578	5.778256	1.957726	-0.000231
 797	7.9202e+01	8.2810	60.581259	0.000639	6.386494	2.163803	-0.000256
 798	7.9302e+01	8.2458	60.379402	0.000507	5.068646	1.717304	-0.000203
 799	7.9401e+01	8.2024	60.133137	0.000618	6.183748	2.095110	-0.000248
 800	7.9501e+01	8.1559	59.915131	0.000547	5.474137	1.854688	-0.000219
 801	7.9600e+01	8.1174	59.697126	0.000547	5.474137	1.854688	-0.000219
 802	7.9700e+01	8.0757	59.491232	0.000517	5.170019	1.751650	-0.000207
 803	7.9799e+01	8.0324	59.240930	0.000629	6.285121	2.129457	-0.000252
 804	7.9898e+01	8.0019	59.010813	0.000578	5.778256	1.957726	-0.000231
 805	7.9998e+01	7.9698	58.784733	0.000568	5.676883	1.923380	-0.000227
 806	8.0097e+01	7.9249	58.498097	0.000720	7.197477	2.438571	-0.000288
 807	8.0197e+01	7.8816	58.332574	0.000416	4.156290	1.408189	-0.000166
 808	8.0296e+01	7.8495	58.074198	0.000649	6.487867	2.198149	-0.000260
 809	8.0396e+01	7.7998	57.840044	0.000588	5.879629	1.992072	-0.000235
 810	8.0496e+01	7.7549	57.622038	0.000547	5.474137	1.854688	-0.000219
 811	8.0595e+01	7.7180	57.412107	0.000527	5.271392	1.785996	-0.000211
 812	8.0695e+01	7.6827	57.169879	0.000608	6.082375	2.060764	-0.000243
 813	8.0794e+01	7.6474	56.943800	0.000568	5.676883	1.923380	-0.000227
 814	8.0894e+01	7.5944	56.689460	0.000639	6.386494	2.163803	-0.000256
 815	8.0993e+01	7.5575	56.451269	0.000598	5.981002	2.026418	-0.000239
 816	8.1093e+01	7.5190	56.200967	0.000629	6.285121	2.129457	-0.000252
 817	8.1192e+01	7.4789	55.995073	0.000517	5.170019	1.751650	-0.000207
 818	8.1291e+01	7.4420	55.777067	0.000547	5.474137	1.854688	-0.000219
 819	8.1391e+01	7.4083	55.510616	0.000669	6.690612	2.266841	-0.000268
 820	8.1490e+01	7.3618	55.280500	0.000578	5.778256	1.957726	-0.000231
 821	8.1590e+01	7.3233	55.050383	0.000578	5.778256	1.957726	-0.000231
 822	8.1689e+01	7.2816	54.808155	0.000608	6.082375	2.060764	-0.000243
 823	8.1789e+01	7.2399	54.594187	0.000537	5.372764	1.820342	-0.000215
 824	8.1888e+01	7.2014	54.331773	0.000659	6.589239	2.232495	-0.000264
 825	8.1988e+01	7.1677	54.097619	0.000588	5.879629	1.992072	-0.000235
 826	8.2088e+01	7.1180	53.851354	0.000618	6.183748	2.095110	-0.000248
 827	8.2187e+01	7.0891	53.605088	0.000618	6.183748	2.095110	-0.000248
 828	8.2287e+01	7.0346	53.374972	0.000578	5.778256	1.957726	-0.000231
 829	8.2386e+01	7.0009	53.132743	0.000608	6.082375	2.060764	-0.000243
 830	8.2486e+01	6.9672	52.918775	0.000537	5.372764	1.820342	-0.000215
 831	8.2585e+01	6.9255	52.636176	0.000710	7.096104	2.404225	-0.000284
 832	8.2684e+01	6.8773	52.422208	0.000537	5.372764	1.820342	-0.000215
 833	8.2784e+01	6.8453	52.147682	0.000689	6.893358	2.335533	-0.000276
 834	8.2883e+01	6.8084	51.970048	0.000446	4.460408	1.511227	-0.000179
 835	8.2983e+01	6.7570	51.695523	0.000689	6.893358	2.335533	-0.000276
 836	8.3082e+01	6.7201	51.477518	0.000547	5.474137	1.854688	-0.000219
 837	8.3182e+01	6.6864	51.231253	0.000618	6.183748	2.095110	-0.000248
 838	8.3281e+01	6.6399	51.021321	0.000527	5.271392	1.785996	-0.000211
 839	8.3381e+01	6.5998	50.726611	0.000740	7.400223	2.507263	-0.000296
 840	8.3481e+01	6.5629	50.520717	0.000517	5.170019	1.751650	-0.000207
 841	8.3580e+01	6.5260	50.266377	0.000639	6.386494	2.163803	-0.000256
 842	8.3680e+01	6.4827	50.044335	0.000558	5.575510	1.889034	-0.000223
 843	8.3779e+01	6.4474	49.806144	0.000598	5.981002	2.026418	-0.000239
 844	8.3879e+01	6.4089	49.567953	0.000598	5.981002	2.026418	-0.000239
 845	8.3978e+01	6.3672	49.325724	0.000608	6.082375	2.060764	-0.000243
 846	8.4078e+01	6.3239	49.063311	0.000659	6.589239	2.232495	-0.000264
 847	8.4177e+01	6.2950	48.829157	0.000588	5.879629	1.992072	-0.000235
 848	8.4276e+01	6.2453	48.578854	0.000629	6.285121	2.129457	-0.000252
 849	8.4376e+01	6.2052	48.336626	0.000608	6.082375	2.060764	-0.000243
 850	8.4475e+01	6.1635	48.094398	0.000608	6.082375	2.060764	-0.000243
 851	8.4575e+01	6.1362	47.884467	0.000527	5.271392	1.785996	-0.000211
 852	8.4674e+01	6.0833	47.605905	0.000699	6.994731	2.369879	-0.000280
 853	8.4774e+01	6.0528	47.379825	0.000568	5.676883	1.923380	-0.000227
 854	8.4874e+01	6.0046	47.097226	0.000710	7.096104	2.404225	-0.000284
 855	8.4973e+01	5.9742	46.826737	0.000679	6.791985	2.301187	-0.000272
 856	8.5073e+01	5.9276	46.600658	0.000568	5.676883	1.923380	-0.000227
 857	8.5172e+01	5.8891	46.362467	0.000598	5.981002	2.026418	-0.000239
 858	8.5272e+01	5.8522	46.108127	0.000639	6.386494	2.163803	-0.000256
 859	8.5371e+01	5.8186	45.849751	0.000649	6.487867	2.198149	-0.000260
 860	8.5471e+01	5.7752	45.603485	0.000618	6.183748	2.095110	-0.000248
 861	8.5570e+01	5.7287	45.349146	0.000639	6.386494	2.163803	-0.000256
 862	8.5669e+01	5.6870	45.090769	0.000649	6.487867	2.198149	-0.000260
 863	8.5769e+01	5.6485	44.844504	0.000618	6.183748	2.095110	-0.000248
 864	8.5868e+01	5.6084	44.590164	0.000639	6.386494	2.163803	-0.000256
 865	8.5968e+01	5.5715	44.339862	0.000629	6.285121	2.129457	-0.000252
 866	8.6067e+01	5.5218	44.057262	0.000710	7.096104	2.404225	-0.000284
 867	8.6167e+01	5.4849	43.819071	0.000598	5.981002	2.026418	-0.000239
 868	8.6266e+01	5.4512	43.592992	0.000568	5.676883	1.923380	-0.000227
 869	8.6366e+01	5.4127	43.338652	0.000639	6.386494	2.163803	-0.000256
 870	8.6466e+01	5.3694	43.116610	0.000558	5.575510	1.889034	-0.000223
 871	8.6565e+01	5.3325	42.781527	0.000841	8.413952	2.850724	-0.000337
 872	8.6665e+01	5.2827	42.543336	0.000598	5.981002	2.026418	-0.000239
 873	8.6764e+01	5.2474	42.333405	0.000527	5.271392	1.785996	-0.000211
 874	8.6864e+01	5.2073	42.070992	0.000659	6.589239	2.232495	-0.000264
 875	8.6963e+01	5.1640	41.780318	0.000730	7.298850	2.472917	-0.000292
 876	8.7063e+01	5.1191	41.521941	0.000649	6.487867	2.198149	-0.000260
 877	8.7162e+01	5.0918	41.307973	0.000537	5.372764	1.820342	-0.000215
 878	8.7261e+01	5.0517	41.025373	0.000710	7.096104	2.404225	-0.000284
 879	8.7361e+01	5.0036	40.758922	0.000669	6.690612	2.266841	-0.000268
 880	8.7460e+01	4.9699	40.524769	0.000588	5.879629	1.992072	-0.000235
 881	8.7560e+01	4.9250	40.286578	0.000598	5.981002	2.026418	-0.000239
 882	8.7659e+01	4.8993	39.995904	0.000730	7.298850	2.472917	-0.000292
 883	8.7759e+01	4.8560	39.777898	0.000547	5.474137	1.854688	-0.000219
 884	8.7859e+01	4.8095	39.507410	0.000679	6.791985	2.301187	-0.000272
 885	8.7958e+01	4.7662	39.220774	0.000720	7.197477	2.438571	-0.000288
 886	8.8058e+01	4.7293	38.966434	0.000639	6.386494	2.163803	-0.000256
 887	8.8157e+01	4.6988	38.724206	0.000608	6.082375	2.060764	-0.000243
 888	8.8257e+01	4.6426	38.477941	0.000618	6.183748	2.095110	-0.000248
 889	8.8356e+01	4.6106	38.183230	0.000740	7.400223	2.507263	-0.000296
 890	8.8456e+01	4.5656	37.932927	0.000629	6.285121	2.129457	-0.000252
 891	8.8555e+01	4.5384	37.666476	0.000669	6.690612	2.266841	-0.000268
 892	8.8654e+01	4.4902	37.424248	0.000608	6.082375	2.060764	-0.000243
 893	8.8754e+01	4.4534	37.165872	0.000649	6.487867	2.198149	-0.000260
 894	8.8853e+01	4.4181	36.911532	0.000639	6.386494	2.163803	-0.000256
 895	8.8953e+01	4.3699	36.653155	0.000649	6.487867	2.198149	-0.000260
 896	8.9052e+01	4.3427	36.390742	0.000659	6.589239	2.232495	-0.000264
 897	8.9152e+01	4.2977	36.128328	0.000659	6.589239	2.232495	-0.000264
 898	8.9251e+01	4.2432	35.849765	0.000699	6.994731	2.369879	-0.000280
 899	8.9351e+01	4.2127	35.563129	0.000720	7.197477	2.438571	-0.000288
 900	8.9451e+01	4.1774	35.365309	0.000497	4.967273	1.682958	-0.000199
 901	8.9550e+01	4.1341	35.058487	0.000770	7.704342	2.610302	-0.000308
 902	8.9650e+01	4.1004	34.804147	0.000639	6.386494	2.163803	-0.000256
 903	8.9749e+01	4.0523	34.525585	0.000699	6.994731	2.369879	-0.000280
 904	8.9849e+01	4.0106	34.279320	0.000618	6.183748	2.095110	-0.000248
 905	8.9948e+01	3.9753	33.992683	0.000720	7.197477	2.438571	-0.000288
 906	9.0047e+01	3.9336	33.742380	0.000629	6.285121	2.129457	-0.000252
 907	9.0147e+01	3.8999	33.488041	0.000639	6.386494	2.163803	-0.000256
 908	9.0246e+01	3.8486	33.241776	0.000618	6.183748	2.095110	-0.000248
 909	9.0346e+01	3.8101	32.967250	0.000689	6.893358	2.335533	-0.000276
 910	9.0445e+01	3.7699	32.729059	0.000598	5.981002	2.026418	-0.000239
 911	9.0545e+01	3.7395	32.446460	0.000710	7.096104	2.404225	-0.000284
 912	9.0644e+01	3.6994	32.171935	0.000689	6.893358	2.335533	-0.000276
 913	9.0744e+01	3.6544	31.905484	0.000669	6.690612	2.266841	-0.000268
 914	9.0844e+01	3.6015	31.634996	0.000679	6.791985	2.301187	-0.000272
 915	9.0943e+01	3.5806	31.352396	0.000710	7.096104	2.404225	-0.000284
 916	9.1043e+01	3.5389	31.102094	0.000629	6.285121	2.129457	-0.000252
 917	9.1142e+01	3.5004	30.831606	0.000679	6.791985	2.301187	-0.000272
 918	9.1242e+01	3.4619	30.524783	0.000770	7.704342	2.610302	-0.000308
 919	9.1341e+01	3.4106	30.282555	0.000608	6.082375	2.060764	-0.000243
 920	9.1441e+01	3.3817	30.003993	0.000699	6.994731	2.369879	-0.000280
 921	9.1540e+01	3.3368	29.749653	0.000639	6.386494	2.163803	-0.000256
 922	9.1639e+01	3.2983	29.479165	0.000679	6.791985	2.301187	-0.000272
 923	9.1739e+01	3.2598	29.136009	0.000862	8.616698	2.919416	-0.000345
 924	9.1838e+01	3.2181	28.930115	0.000517	5.170019	1.751650	-0.000207
 925	9.1938e+01	3.1796	28.663664	0.000669	6.690612	2.266841	-0.000268
 926	9.2037e+01	3.1427	28.389139	0.000689	6.893358	2.335533	-0.000276
 927	9.2137e+01	3.0914	28.114613	0.000689	6.893358	2.335533	-0.000276
 928	9.2237e+01	3.0641	27.860274	0.000639	6.386494	2.163803	-0.000256
 929	9.2336e+01	3.0160	27.557489	0.000760	7.602969	2.575955	-0.000304
 930	9.2436e+01	2.9775	27.287000	0.000679	6.791985	2.301187	-0.000272
 931	9.2535e+01	2.9438	27.036698	0.000629	6.285121	2.129457	-0.000252
 932	9.2635e+01	2.9053	26.741987	0.000740	7.400223	2.507263	-0.000296
 933	9.2734e+01	2.8620	26.491685	0.000629	6.285121	2.129457	-0.000252
 934	9.2834e+01	2.8218	26.205048	0.000720	7.197477	2.438571	-0.000288
 935	9.2933e+01	2.7721	25.934560	0.000679	6.791985	2.301187	-0.000272
 936	9.3032e+01	2.7352	25.680220	0.000639	6.386494	2.163803	-0.000256
 937	9.3132e+01	2.7112	25.401658	0.000699	6.994731	2.369879	-0.000280
 938	9.3231e+01	2.6550	25.151356	0.000629	6.285121	2.129457	-0.000252
 939	9.3331e+01	2.6277	24.844533	0.000770	7.704342	2.610302	-0.000308
 940	9.3430e+01	2.5876	24.606342	0.000598	5.981002	2.026418	-0.000239
 941	9.3530e+01	2.5443	24.307594	0.000750	7.501596	2.541609	-0.000300
 942	9.3629e+01	2.4994	24.045180	0.000659	6.589239	2.232495	-0.000264
 943	9.3729e+01	2.4641	23.762581	0.000710	7.096104	2.404225	-0.000284
 944	9.3829e+01	2.4224	23.479981	0.000710	7.096104	2.404225	-0.000284
 945	9.3928e+01	2.3823	23.221605	0.000649	6.487867	2.198149	-0.000260
 946	9.4028e+01	2.3454	22.951117	0.000679	6.791985	2.301187	-0.000272
 947	9.4127e+01	2.2924	22.660443	0.000730	7.298850	2.472917	-0.000292
 948	9.4227e+01	2.2652	22.406103	0.000639	6.386494	2.163803	-0.000256
 949	9.4326e+01	2.2251	22.123504	0.000710	7.096104	2.404225	-0.000284
 950	9.4425e+01	2.1882	21.861090	0.000659	6.589239	2.232495	-0.000264
 951	9.4525e+01	2.1384	21.534082	0.000821	8.211206	2.782032	-0.000329
 952	9.4624e+01	2.0951	21.271668	0.000659	6.589239	2.232495	-0.000264
 953	9.4724e+01	2.0711	21.037514	0.000588	5.879629	1.992072	-0.000235
 954	9.4823e+01	2.0229	20.710506	0.000821	8.211206	2.782032	-0.000329
 955	9.4923e+01	1.9860	20.488464	0.000558	5.575510	1.889034	-0.000223
 956	9.5022e+01	1.9379	20.197790	0.000730	7.298850	2.472917	-0.000292
 957	9.5122e+01	1.9010	19.907116	0.000730	7.298850	2.472917	-0.000292
 958	9.5222e+01	1.8577	19.632591	0.000689	6.893358	2.335533	-0.000276
 959	9.5321e+01	1.8240	19.354029	0.000699	6.994731	2.369879	-0.000280
 960	9.5421e+01	1.7823	19.099689	0.000639	6.386494	2.163803	-0.000256
 961	9.5520e+01	1.7470	18.809015	0.000730	7.298850	2.472917	-0.000292
 962	9.5620e+01	1.7021	18.526416	0.000710	7.096104	2.404225	-0.000284
 963	9.5719e+01	1.6572	18.207482	0.000801	8.008460	2.713340	-0.000321
 964	9.5819e+01	1.6235	17.961217	0.000618	6.183748	2.095110	-0.000248
 965	9.5918e+01	1.5818	17.650357	0.000781	7.805714	2.644648	-0.000312
 966	9.6017e+01	1.5545	17.404092	0.000618	6.183748	2.095110	-0.000248
 967	9.6117e+01	1.5080	17.081121	0.000811	8.109833	2.747686	-0.000325
 968	9.6216e+01	1.4711	16.806596	0.000689	6.893358	2.335533	-0.000276
 969	9.6316e+01	1.4214	16.540145	0.000669	6.690612	2.266841	-0.000268
 970	9.6415e+01	1.3796	16.253508	0.000720	7.197477	2.438571	-0.000288
 971	9.6515e+01	1.3379	15.995132	0.000649	6.487867	2.198149	-0.000260
 972	9.6615e+01	1.2946	15.680235	0.000791	7.907087	2.678994	-0.000316
 973	9.6714e+01	1.2689	15.401673	0.000699	6.994731	2.369879	-0.000280
 974	9.6814e+01	1.2240	15.102925	0.000750	7.501596	2.541609	-0.000300
 975	9.6913e+01	1.1775	14.844548	0.000649	6.487867	2.198149	-0.000260
 976	9.7013e+01	1.1486	14.533689	0.000781	7.805714	2.644648	-0.000312
 977	9.7112e+01	1.1101	14.238978	0.000740	7.400223	2.507263	-0.000296
 978	9.7212e+01	1.0540	13.968490	0.000679	6.791985	2.301187	-0.000272
 979	9.7311e+01	1.0267	13.677816	0.000730	7.298850	2.472917	-0.000292
 980	9.7410e+01	0.9738	13.419439	0.000649	6.487867	2.198149	-0.000260
 981	9.7510e+01	0.9497	13.144914	0.000689	6.893358	2.335533	-0.000276
 982	9.7609e+01	0.9016	12.838092	0.000770	7.704342	2.610302	-0.000308
 983	9.7709e+01	0.8631	12.563566	0.000689	6.893358	2.335533	-0.000276
 984	9.7808e+01	0.8166	12.244633	0.000801	8.008460	2.713340	-0.000321
 985	9.7908e+01	0.7845	11.941848	0.000760	7.602969	2.575955	-0.000304
 986	9.8007e+01	0.7508	11.647137	0.000740	7.400223	2.507263	-0.000296
 987	9.8107e+01	0.7139	11.392797	0.000639	6.386494	2.163803	-0.000256
 988	9.8207e+01	0.6690	11.110198	0.000710	7.096104	2.404225	-0.000284
 989	9.8306e+01	0.6305	10.803375	0.000770	7.704342	2.610302	-0.000308
 990	9.8406e+01	0.5855	10.508664	0.000740	7.400223	2.507263	-0.000296
 991	9.8505e+01	0.5519	10.234139	0.000689	6.893358	2.335533	-0.000276
 992	9.8605e+01	0.5182	9.935391	0.000750	7.501596	2.541609	-0.000300
 993	9.8704e+01	0.4700	9.636643	0.000750	7.501596	2.541609	-0.000300
 994	9.8803e+01	0.4235	9.362118	0.000689	6.893358	2.335533	-0.000276
 995	9.8903e+01	0.3850	9.043184	0.000801	8.008460	2.713340	-0.000321
 996	9.9002e+01	0.3513	8.764622	0.000699	6.994731	2.369879	-0.000280
 997	9.9102e+01	0.3064	8.465874	0.000750	7.501596	2.541609	-0.000300
 998	9.9201e+01	0.2599	8.215571	0.000629	6.285121	2.129457	-0.000252
 999	9.9301e+01	0.2246	7.900675	0.000791	7.907087	2.678994	-0.000316
1000	9.9400e+01	0.1877	7.622112	0.000699	6.994731	2.369879	-0.000280
1001	9.9500e+01	0.1524	7.319327	0.000760	7.602969	2.575955	-0.000304
1002	9.9600e+01	0.1091	7.056913	0.000659	6.589239	2.232495	-0.000264
1003	9.9699e+01	0.0690	6.758165	0.000750	7.501596	2.541609	-0.000300
1004	9.9799e+01	0.0273	6.394823	0.000912	9.123562	3.091147	-0.000365
1005	9.9898e+01	0.0016	6.237375	0.000395	3.953544	1.339497	-0.000158
1006	9.9998e+01	-0.0433	5.906330	0.000831	8.312579	2.816378	-0.000333
1007	1.0010e+02	-0.0914	5.611619	0.000740	7.400223	2.507263	-0.000296
1008	1.0020e+02	-0.1267	5.284611	0.000821	8.211206	2.782032	-0.000329
1009	1.0030e+02	-0.1620	5.034308	0.000629	6.285121	2.129457	-0.000252
1010	1.0040e+02	-0.2021	4.747672	0.000720	7.197477	2.438571	-0.000288
1011	1.0050e+02	-0.2390	4.461035	0.000720	7.197477	2.438571	-0.000288
1012	1.0059e+02	-0.2823	4.150176	0.000781	7.805714	2.644648	-0.000312
1013	1.0069e+02	-0.3225	3.907947	0.000608	6.082375	2.060764	-0.000243
1014	1.0079e+02	-0.3738	3.580939	0.000821	8.211206	2.782032	-0.000329
1015	1.0089e+02	-0.3898	3.274117	0.000770	7.704342	2.610302	-0.000308
1016	1.0099e+02	-0.4508	2.995555	0.000699	6.994731	2.369879	-0.000280
1017	1.0109e+02	-0.4813	2.721029	0.000689	6.893358	2.335533	-0.000276
1018	1.0119e+02	-0.5246	2.381910	0.000852	8.515325	2.885070	-0.000341
1019	1.0129e+02	-0.5615	2.115459	0.000669	6.690612	2.266841	-0.000268
1020	1.0139e+02	-0.6048	1.796525	0.000801	8.008460	2.713340	-0.000321
1021	1.0149e+02	-0.6449	1.517963	0.000699	6.994731	2.369879	-0.000280
1022	1.0159e+02	-0.6834	1.211141	0.000770	7.704342	2.610302	-0.000308
1023	1.0169e+02	-0.7187	0.920467	0.000730	7.298850	2.472917	-0.000292
1024	1.0179e+02	-0.7652	0.625756	0.000740	7.400223	2.507263	-0.000296
1025	1.0189e+02	-0.8021	0.339119	0.000720	7.197477	2.438571	-0.000288
1026	1.0199e+02	-0.8358	0.028260	0.000781	7.805714	2.644648	-0.000312
1027	1.0209e+02	-0.8759	-0.258377	0.000720	7.197477	2.438571	-0.000288
1028	1.0219e+02	-0.9208	-0.573273	0.000791	7.907087	2.678994	-0.000316
1029	1.0229e+02	-0.9609	-0.876058	0.000760	7.602969	2.575955	-0.000304
1030	1.0239e+02	-0.9946	-1.211141	0.000841	8.413952	2.850724	-0.000337
1031	1.0248e+02	-1.0524	-1.457406	0.000618	6.183748	2.095110	-0.000248
1032	1.0258e+02	-1.0748	-1.768265	0.000781	7.805714	2.644648	-0.000312
1033	1.0268e+02	-1.1182	-2.095273	0.000821	8.211206	2.782032	-0.000329
1034	1.0278e+02	-1.1647	-2.349613	0.000639	6.386494	2.163803	-0.000256
1035	1.0288e+02	-1.1935	-2.664510	0.000791	7.907087	2.678994	-0.000316
1036	1.0298e+02	-1.2449	-2.999592	0.000841	8.413952	2.850724	-0.000337
1037	1.0308e+02	-1.2786	-3.310451	0.000781	7.805714	2.644648	-0.000312
1038	1.0318e+02	-1.3107	-3.580939	0.000679	6.791985	2.301187	-0.000272
1039	1.0328e+02	-1.3476	-3.883725	0.000760	7.602969	2.575955	-0.000304
1040	1.0338e+02	-1.4037	-4.162287	0.000699	6.994731	2.369879	-0.000280
1041	1.0348e+02	-1.4374	-4.465072	0.000760	7.602969	2.575955	-0.000304
1042	1.0358e+02	-1.4887	-4.731523	0.000669	6.690612	2.266841	-0.000268
1043	1.0368e+02	-1.5240	-5.030271	0.000750	7.501596	2.541609	-0.000300
1044	1.0378e+02	-1.5529	-5.389576	0.000902	9.022189	3.056801	-0.000361
1045	1.0388e+02	-1.6090	-5.647953	0.000649	6.487867	2.198149	-0.000260
1046	1.0398e+02	-1.6379	-5.906330	0.000649	6.487867	2.198149	-0.000260
1047	1.0408e+02	-1.6748	-6.249486	0.000862	8.616698	2.919416	-0.000345
1048	1.0418e+02	-1.7213	-6.507863	0.000649	6.487867	2.198149	-0.000260
1049	1.0428e+02	-1.7502	-6.830834	0.000811	8.109833	2.747686	-0.000325
1050	1.0438e+02	-1.8016	-7.129582	0.000750	7.501596	2.541609	-0.000300
1051	1.0447e+02	-1.8304	-7.444478	0.000791	7.907087	2.678994	-0.000316
1052	1.0457e+02	-1.8673	-7.702855	0.000649	6.487867	2.198149	-0.000260
1053	1.0467e+02	-1.9187	-8.033900	0.000831	8.312579	2.816378	-0.000333
1054	1.0477e+02	-1.9684	-8.280165	0.000618	6.183748	2.095110	-0.000248
1055	1.0487e+02	-1.9925	-8.635433	0.000892	8.920816	3.022454	-0.000357
1056	1.0497e+02	-2.0406	-8.873624	0.000598	5.981002	2.026418	-0.000239
1057	1.0507e+02	-2.0791	-9.176410	0.000760	7.602969	2.575955	-0.000304
1058	1.0517e+02	-2.1112	-9.495343	0.000801	8.008460	2.713340	-0.000321
1059	1.0527e+02	-2.1577	-9.729497	0.000588	5.879629	1.992072	-0.000235
1060	1.0537e+02	-2.1930	-10.080728	0.000882	8.819444	2.988108	-0.000353
1061	1.0547e+02	-2.2411	-10.339105	0.000649	6.487867	2.198149	-0.000260
1062	1.0557e+02	-2.2668	-10.682261	0.000862	8.616698	2.919416	-0.000345
1063	1.0567e+02	-2.3181	-10.928526	0.000618	6.183748	2.095110	-0.000248
1064	1.0577e+02	-2.3534	-11.239386	0.000781	7.805714	2.644648	-0.000312
1065	1.0587e+02	-2.3935	-11.513911	0.000689	6.893358	2.335533	-0.000276
1066	1.0597e+02	-2.4416	-11.844956	0.000831	8.312579	2.816378	-0.000333
1067	1.0607e+02	-2.4785	-12.095259	0.000629	6.285121	2.129457	-0.000252
1068	1.0617e+02	-2.5122	-12.406118	0.000781	7.805714	2.644648	-0.000312
1069	1.0627e+02	-2.5539	-12.688718	0.000710	7.096104	2.404225	-0.000284
1070	1.0637e+02	-2.5956	-12.987466	0.000750	7.501596	2.541609	-0.000300
1071	1.0647e+02	-2.6245	-13.241805	0.000639	6.386494	2.163803	-0.000256
1072	1.0656e+02	-2.6807	-13.556702	0.000791	7.907087	2.678994	-0.000316
1073	1.0666e+02	-2.7192	-13.815078	0.000649	6.487867	2.198149	-0.000260
1074	1.0676e+02	-2.7561	-14.142086	0.000821	8.211206	2.782032	-0.000329
1075	1.0686e+02	-2.7946	-14.396426	0.000639	6.386494	2.163803	-0.000256
1076	1.0696e+02	-2.8347	-14.711323	0.000791	7.907087	2.678994	-0.000316
1077	1.0706e+02	-2.8716	-14.993922	0.000710	7.096104	2.404225	-0.000284
1078	1.0716e+02	-2.9165	-15.300744	0.000770	7.704342	2.610302	-0.000308
1079	1.0726e+02	-2.9454	-15.571233	0.000679	6.791985	2.301187	-0.000272
1080	1.0736e+02	-2.9999	-15.821535	0.000629	6.285121	2.129457	-0.000252
1081	1.0746e+02	-3.0352	-16.128357	0.000770	7.704342	2.610302	-0.000308
1082	1.0756e+02	-3.0769	-16.402883	0.000689	6.893358	2.335533	-0.000276
1083	1.0766e+02	-3.1138	-16.697593	0.000740	7.400223	2.507263	-0.000296
1084	1.0776e+02	-3.1491	-16.984230	0.000720	7.197477	2.438571	-0.000288
1085	1.0786e+02	-3.1940	-17.323349	0.000852	8.515325	2.885070	-0.000341
1086	1.0796e+02	-3.2309	-17.581726	0.000649	6.487867	2.198149	-0.000260
1087	1.0806e+02	-3.2678	-17.864326	0.000710	7.096104	2.404225	-0.000284
1088	1.0816e+02	-3.3095	-18.138851	0.000689	6.893358	2.335533	-0.000276
1089	1.0826e+02	-3.3512	-18.409339	0.000679	6.791985	2.301187	-0.000272
1090	1.0836e+02	-3.3849	-18.659641	0.000629	6.285121	2.129457	-0.000252
1091	1.0845e+02	-3.4347	-18.974538	0.000791	7.907087	2.678994	-0.000316
1092	1.0855e+02	-3.4716	-19.269249	0.000740	7.400223	2.507263	-0.000296
1093	1.0865e+02	-3.5165	-19.563960	0.000740	7.400223	2.507263	-0.000296
1094	1.0875e+02	-3.5518	-19.814262	0.000629	6.285121	2.129457	-0.000252
1095	1.0885e+02	-3.5967	-20.080713	0.000669	6.690612	2.266841	-0.000268
1096	1.0895e+02	-3.6352	-20.391573	0.000781	7.805714	2.644648	-0.000312
1097	1.0905e+02	-3.6721	-20.698395	0.000770	7.704342	2.610302	-0.000308
1098	1.0915e+02	-3.7026	-20.936586	0.000598	5.981002	2.026418	-0.000239
1099	1.0925e+02	-3.7459	-21.235334	0.000750	7.501596	2.541609	-0.000300
1100	1.0935e+02	-3.7908	-21.481599	0.000618	6.183748	2.095110	-0.000248
1101	1.0945e+02	-3.8309	-21.804570	0.000811	8.109833	2.747686	-0.000325
1102	1.0955e+02	-3.8662	-22.058910	0.000639	6.386494	2.163803	-0.000256
1103	1.0965e+02	-3.9047	-22.297101	0.000598	5.981002	2.026418	-0.000239
1104	1.0975e+02	-3.9448	-22.583737	0.000720	7.197477	2.438571	-0.000288
1105	1.0985e+02	-3.9994	-22.882485	0.000750	7.501596	2.541609	-0.000300
1106	1.0995e+02	-4.0250	-23.136825	0.000639	6.386494	2.163803	-0.000256
1107	1.1005e+02	-4.0699	-23.403276	0.000669	6.690612	2.266841	-0.000268
1108	1.1015e+02	-4.1100	-23.685875	0.000710	7.096104	2.404225	-0.000284
1109	1.1025e+02	-4.1502	-23.952326	0.000669	6.690612	2.266841	-0.000268
1110	1.1035e+02	-4.1903	-24.247037	0.000740	7.400223	2.507263	-0.000296
1111	1.1044e+02	-4.2255	-24.469080	0.000558	5.575510	1.889034	-0.000223
1112	1.1054e+02	-4.2689	-24.771865	0.000760	7.602969	2.575955	-0.000304
1113	1.1064e+02	-4.3074	-25.022167	0.000629	6.285121	2.129457	-0.000252
1114	1.1074e+02	-4.3411	-25.268433	0.000618	6.183748	2.095110	-0.000248
1115	1.1084e+02	-4.3860	-25.514698	0.000618	6.183748	2.095110	-0.000248
1116	1.1094e+02	-4.4325	-25.841706	0.000821	8.211206	2.782032	-0.000329
1117	1.1104e+02	-4.4646	-26.092008	0.000629	6.285121	2.129457	-0.000252
1118	1.1114e+02	-4.5063	-26.330199	0.000598	5.981002	2.026418	-0.000239
1119	1.1124e+02	-4.5480	-26.624910	0.000740	7.400223	2.507263	-0.000296
1120	1.1134e+02	-4.5897	-26.915584	0.000730	7.298850	2.472917	-0.000292
1121	1.1144e+02	-4.6202	-27.165886	0.000629	6.285121	2.129457	-0.000252
1122	1.1154e+02	-4.6651	-27.456560	0.000730	7.298850	2.472917	-0.000292
1123	1.1164e+02	-4.6988	-27.674565	0.000547	5.474137	1.854688	-0.000219
1124	1.1174e+02	-4.7421	-27.945054	0.000679	6.791985	2.301187	-0.000272
1125	1.1184e+02	-4.7822	-28.243802	0.000750	7.501596	2.541609	-0.000300
1126	1.1194e+02	-4.8368	-28.502178	0.000649	6.487867	2.198149	-0.000260
1127	1.1204e+02	-4.8705	-28.736332	0.000588	5.879629	1.992072	-0.000235
1128	1.1214e+02	-4.9057	-29.035080	0.000750	7.501596	2.541609	-0.000300
1129	1.1224e+02	-4.9442	-29.269234	0.000588	5.879629	1.992072	-0.000235
1130	1.1234e+02	-4.9940	-29.580094	0.000781	7.805714	2.644648	-0.000312
1131	1.1244e+02	-5.0293	-29.858656	0.000699	6.994731	2.369879	-0.000280
1132	1.1253e+02	-5.0678	-30.080698	0.000558	5.575510	1.889034	-0.000223
1133	1.1263e+02	-5.0999	-30.343112	0.000659	6.589239	2.232495	-0.000264
1134	1.1273e+02	-5.1432	-30.605526	0.000659	6.589239	2.232495	-0.000264
1135	1.1283e+02	-5.1785	-30.859866	0.000639	6.386494	2.163803	-0.000256
1136	1.1293e+02	-5.2250	-31.166688	0.000770	7.704342	2.610302	-0.000308
1137	1.1303e+02	-5.2667	-31.368545	0.000507	5.068646	1.717304	-0.000203
1138	1.1313e+02	-5.3036	-31.634996	0.000669	6.690612	2.266841	-0.000268
1139	1.1323e+02	-5.3405	-31.917595	0.000710	7.096104	2.404225	-0.000284
1140	1.1333e+02	-5.3886	-32.151749	0.000588	5.879629	1.992072	-0.000235
1141	1.1343e+02	-5.4191	-32.406089	0.000639	6.386494	2.163803	-0.000256
1142	1.1353e+02	-5.4640	-32.692725	0.000720	7.197477	2.438571	-0.000288
1143	1.1363e+02	-5.5025	-32.951102	0.000649	6.487867	2.198149	-0.000260
1144	1.1373e+02	-5.5474	-33.213516	0.000659	6.589239	2.232495	-0.000264
1145	1.1383e+02	-5.5827	-33.439595	0.000568	5.676883	1.923380	-0.000227
1146	1.1393e+02	-5.6260	-33.730269	0.000730	7.298850	2.472917	-0.000292
1147	1.1403e+02	-5.6629	-34.008831	0.000699	6.994731	2.369879	-0.000280
1148	1.1413e+02	-5.6998	-34.234911	0.000568	5.676883	1.923380	-0.000227
1149	1.1423e+02	-5.7448	-34.501362	0.000669	6.690612	2.266841	-0.000268
1150	1.1433e+02	-5.7881	-34.735516	0.000588	5.879629	1.992072	-0.000235
1151	1.1442e+02	-5.8250	-35.018115	0.000710	7.096104	2.404225	-0.000284
1152	1.1452e+02	-5.8538	-35.260344	0.000608	6.082375	2.060764	-0.000243
1153	1.1462e+02	-5.9084	-35.518720	0.000649	6.487867	2.198149	-0.000260
1154	1.1472e+02	-5.9437	-35.736726	0.000547	5.474137	1.854688	-0.000219
1155	1.1482e+02	-5.9774	-36.047585	0.000781	7.805714	2.644648	-0.000312
1156	1.1492e+02	-6.0223	-36.289813	0.000608	6.082375	2.060764	-0.000243
1157	1.1502e+02	-6.0576	-36.540116	0.000629	6.285121	2.129457	-0.000252
1158	1.1512e+02	-6.0993	-36.786381	0.000618	6.183748	2.095110	-0.000248
1159	1.1522e+02	-6.1394	-37.081092	0.000740	7.400223	2.507263	-0.000296
1160	1.1532e+02	-6.1859	-37.315246	0.000588	5.879629	1.992072	-0.000235
1161	1.1542e+02	-6.2164	-37.561511	0.000618	6.183748	2.095110	-0.000248
1162	1.1552e+02	-6.2597	-37.791628	0.000578	5.778256	1.957726	-0.000231
1163	1.1562e+02	-6.2934	-38.090376	0.000750	7.501596	2.541609	-0.000300
1164	1.1572e+02	-6.3415	-38.328567	0.000598	5.981002	2.026418	-0.000239
1165	1.1582e+02	-6.3784	-38.566758	0.000598	5.981002	2.026418	-0.000239
1166	1.1592e+02	-6.4153	-38.845320	0.000699	6.994731	2.369879	-0.000280
1167	1.1602e+02	-6.4618	-39.071400	0.000568	5.676883	1.923380	-0.000227
1168	1.1612e+02	-6.4923	-39.285368	0.000537	5.372764	1.820342	-0.000215
1169	1.1622e+02	-6.5340	-39.547782	0.000659	6.589239	2.232495	-0.000264
1170	1.1632e+02	-6.5758	-39.794047	0.000618	6.183748	2.095110	-0.000248
1171	1.1642e+02	-6.6239	-40.016089	0.000558	5.575510	1.889034	-0.000223
1172	1.1651e+02	-6.6592	-40.310800	0.000740	7.400223	2.507263	-0.000296
1173	1.1661e+02	-6.6977	-40.553028	0.000608	6.082375	2.060764	-0.000243
1174	1.1671e+02	-6.7346	-40.783145	0.000578	5.778256	1.957726	-0.000231
1175	1.1681e+02	-6.7683	-41.013262	0.000578	5.778256	1.957726	-0.000231
1176	1.1691e+02	-6.8036	-41.287787	0.000689	6.893358	2.335533	-0.000276
1177	1.1701e+02	-6.8437	-41.534052	0.000618	6.183748	2.095110	-0.000248
1178	1.1711e+02	-6.8902	-41.788392	0.000639	6.386494	2.163803	-0.000256
1179	1.1721e+02	-6.9367	-42.018509	0.000578	5.778256	1.957726	-0.000231
1180	1.1731e+02	-6.9736	-42.276885	0.000649	6.487867	2.198149	-0.000260
1181	1.1741e+02	-7.0185	-42.531225	0.000639	6.386494	2.163803	-0.000256
1182	1.1751e+02	-7.0506	-42.777490	0.000618	6.183748	2.095110	-0.000248
1183	1.1761e+02	-7.0971	-43.007607	0.000578	5.778256	1.957726	-0.000231
1184	1.1771e+02	-7.1356	-43.209464	0.000507	5.068646	1.717304	-0.000203
1185	1.1781e+02	-7.1757	-43.471878	0.000659	6.589239	2.232495	-0.000264
1186	1.1791e+02	-7.2126	-43.782737	0.000781	7.805714	2.644648	-0.000312
1187	1.1801e+02	-7.2543	-43.984594	0.000507	5.068646	1.717304	-0.000203
1188	1.1811e+02	-7.3009	-44.247008	0.000659	6.589239	2.232495	-0.000264
1189	1.1821e+02	-7.3394	-44.521533	0.000689	6.893358	2.335533	-0.000276
1190	1.1831e+02	-7.3666	-44.739538	0.000547	5.474137	1.854688	-0.000219
1191	1.1841e+02	-7.4212	-44.985804	0.000618	6.183748	2.095110	-0.000248
1192	1.1850e+02	-7.4581	-45.256292	0.000679	6.791985	2.301187	-0.000272
1193	1.1860e+02	-7.4982	-45.514668	0.000649	6.487867	2.198149	-0.000260
1194	1.1870e+02	-7.5287	-45.724599	0.000527	5.271392	1.785996	-0.000211
1195	1.1880e+02	-7.5752	-45.966828	0.000608	6.082375	2.060764	-0.000243
1196	1.1890e+02	-7.6057	-46.269613	0.000760	7.602969	2.575955	-0.000304
1197	1.1900e+02	-7.6586	-46.471469	0.000507	5.068646	1.717304	-0.000203
1198	1.1910e+02	-7.6939	-46.729846	0.000649	6.487867	2.198149	-0.000260
1199	1.1920e+02	-7.7260	-46.972074	0.000608	6.082375	2.060764	-0.000243
1200	1.1930e+02	-7.7581	-47.230451	0.000649	6.487867	2.198149	-0.000260
1201	1.1940e+02	-7.8174	-47.496902	0.000669	6.690612	2.266841	-0.000268
1202	1.1950e+02	-7.8511	-47.706833	0.000527	5.271392	1.785996	-0.000211
1203	1.1960e+02	-7.8928	-47.957135	0.000629	6.285121	2.129457	-0.000252
1204	1.1970e+02	-7.9281	-48.219549	0.000659	6.589239	2.232495	-0.000264
1205	1.1980e+02	-7.9762	-48.469852	0.000629	6.285121	2.129457	-0.000252
1206	1.1990e+02	-8.0131	-48.667671	0.000497	4.967273	1.682958	-0.000199
1207	1.2000e+02	-8.0500	-48.930085	0.000659	6.589239	2.232495	-0.000264
1208	1.2010e+02	-8.0821	-49.168276	0.000598	5.981002	2.026418	-0.000239
1209	1.2020e+02	-8.1335	-49.426653	0.000649	6.487867	2.198149	-0.000260
1210	1.2030e+02	-8.1688	-49.656770	0.000578	5.778256	1.957726	-0.000231
1211	1.2039e+02	-8.2121	-49.874775	0.000547	5.474137	1.854688	-0.000219
1212	1.2049e+02	-8.2554	-50.145263	0.000679	6.791985	2.301187	-0.000272
1213	1.2059e+02	-8.2907	-50.379417	0.000588	5.879629	1.992072	-0.000235
1214	1.2069e+02	-8.3356	-50.645868	0.000669	6.690612	2.266841	-0.000268
1215	1.2079e+02	-8.3693	-50.871947	0.000568	5.676883	1.923380	-0.000227
1216	1.2089e+02	-8.4142	-51.126287	0.000639	6.386494	2.163803	-0.000256
1217	1.2099e+02	-8.4559	-51.324107	0.000497	4.967273	1.682958	-0.000199
1218	1.2109e+02	-8.4992	-51.614780	0.000730	7.298850	2.472917	-0.000292
1219	1.2119e+02	-8.5265	-51.804526	0.000476	4.764527	1.614265	-0.000191
1220	1.2129e+02	-8.5794	-52.054828	0.000629	6.285121	2.129457	-0.000252
1221	1.2139e+02	-8.6131	-52.280908	0.000568	5.676883	1.923380	-0.000227
1222	1.2149e+02	-8.6452	-52.531210	0.000629	6.285121	2.129457	-0.000252
1223	1.2159e+02	-8.6853	-52.789587	0.000649	6.487867	2.198149	-0.000260
1224	1.2169e+02	-8.7270	-53.015667	0.000568	5.676883	1.923380	-0.000227
1225	1.2179e+02	-8.7687	-53.270006	0.000639	6.386494	2.163803	-0.000256
1226	1.2189e+02	-8.7976	-53.492049	0.000558	5.575510	1.889034	-0.000223
1227	1.2199e+02	-8.8602	-53.746388	0.000639	6.386494	2.163803	-0.000256
1228	1.2209e+02	-8.8955	-53.988616	0.000608	6.082375	2.060764	-0.000243
1229	1.2219e+02	-8.9227	-54.190473	0.000507	5.068646	1.717304	-0.000203
1230	1.2229e+02	-8.9773	-54.444813	0.000639	6.386494	2.163803	-0.000256
1231	1.2239e+02	-9.0062	-54.654744	0.000527	5.271392	1.785996	-0.000211
1232	1.2248e+02	-9.0463	-54.929269	0.000689	6.893358	2.335533	-0.000276
1233	1.2258e+02	-9.0864	-55.179571	0.000629	6.285121	2.129457	-0.000252
1234	1.2268e+02	-9.1265	-55.413725	0.000588	5.879629	1.992072	-0.000235
1235	1.2278e+02	-9.1698	-55.619619	0.000517	5.170019	1.751650	-0.000207
1236	1.2288e+02	-9.2131	-55.849736	0.000578	5.778256	1.957726	-0.000231
1237	1.2298e+02	-9.2484	-56.087927	0.000598	5.981002	2.026418	-0.000239
1238	1.2308e+02	-9.2885	-56.338229	0.000629	6.285121	2.129457	-0.000252
1239	1.2318e+02	-9.3254	-56.548160	0.000527	5.271392	1.785996	-0.000211
1240	1.2328e+02	-9.3655	-56.826723	0.000699	6.994731	2.369879	-0.000280
1241	1.2338e+02	-9.4056	-57.068951	0.000608	6.082375	2.060764	-0.000243
1242	1.2348e+02	-9.4441	-57.230436	0.000405	4.054917	1.373843	-0.000162
1243	1.2358e+02	-9.4778	-57.500924	0.000679	6.791985	2.301187	-0.000272
1244	1.2368e+02	-9.5227	-57.739115	0.000598	5.981002	2.026418	-0.000239
1245	1.2378e+02	-9.5676	-57.932898	0.000487	4.865900	1.648612	-0.000195
1246	1.2388e+02	-9.6013	-58.191275	0.000649	6.487867	2.198149	-0.000260
1247	1.2398e+02	-9.6511	-58.413317	0.000558	5.575510	1.889034	-0.000223
1248	1.2408e+02	-9.6767	-58.635359	0.000558	5.575510	1.889034	-0.000223
1249	1.2418e+02	-9.7297	-58.913922	0.000699	6.994731	2.369879	-0.000280
1250	1.2428e+02	-9.7585	-59.131927	0.000547	5.474137	1.854688	-0.000219
1251	1.2438e+02	-9.8115	-59.341858	0.000527	5.271392	1.785996	-0.000211
1252	1.2447e+02	-9.8404	-59.571975	0.000578	5.778256	1.957726	-0.000231
1253	1.2457e+02	-9.8933	-59.789980	0.000547	5.474137	1.854688	-0.000219
1254	1.2467e+02	-9.9286	-60.036246	0.000618	6.183748	2.095110	-0.000248
1255	1.2477e+02	-9.9687	-60.286548	0.000629	6.285121	2.129457	-0.000252
1256	1.2487e+02	-10.0008	-60.528776	0.000608	6.082375	2.060764	-0.000243
1257	1.2497e+02	-10.0457	-60.702373	0.000436	4.359035	1.476881	-0.000174
1258	1.2507e+02	-10.0842	-60.968824	0.000669	6.690612	2.266841	-0.000268
1259	1.2517e+02	-10.1147	-61.235275	0.000669	6.690612	2.266841	-0.000268
1260	1.2527e+02	-10.1724	-61.433095	0.000497	4.967273	1.682958	-0.000199
1261	1.2537e+02	-10.2045	-61.655137	0.000558	5.575510	1.889034	-0.000223
1262	1.2547e+02	-10.2462	-61.929662	0.000689	6.893358	2.335533	-0.000276
1263	1.2557e+02	-10.2863	-62.127482	0.000497	4.967273	1.682958	-0.000199
1264	1.2567e+02	-10.3297	-62.393933	0.000669	6.690612	2.266841	-0.000268
1265	1.2577e+02	-10.3666	-62.599827	0.000517	5.170019	1.751650	-0.000207
1266	1.2587e+02	-10.4051	-62.825906	0.000568	5.676883	1.923380	-0.000227
1267	1.2597e+02	-10.4307	-63.064097	0.000598	5.981002	2.026418	-0.000239
1268	1.2607e+02	-10.4933	-63.278066	0.000537	5.372764	1.820342	-0.000215
1269	1.2617e+02	-10.5190	-63.524331	0.000618	6.183748	2.095110	-0.000248
1270	1.2627e+02	-10.5494	-63.714076	0.000476	4.764527	1.614265	-0.000191
1271	1.2636e+02	-10.5992	-63.968416	0.000639	6.386494	2.163803	-0.000256
1272	1.2646e+02	-10.6473	-64.214681	0.000618	6.183748	2.095110	-0.000248
1273	1.2656e+02	-10.6954	-64.404426	0.000476	4.764527	1.614265	-0.000191
1274	1.2666e+02	-10.7275	-64.606283	0.000507	5.068646	1.717304	-0.000203
1275	1.2676e+02	-10.7580	-64.880808	0.000689	6.893358	2.335533	-0.000276
1276	1.2686e+02	-10.7965	-65.074591	0.000487	4.865900	1.648612	-0.000195
1277	1.2696e+02	-10.8478	-65.296633	0.000558	5.575510	1.889034	-0.000223
1278	1.2706e+02	-10.8895	-65.506564	0.000527	5.271392	1.785996	-0.000211
1279	1.2716e+02	-10.9120	-65.752830	0.000618	6.183748	2.095110	-0.000248
1280	1.2726e+02	-10.9585	-65.954687	0.000507	5.068646	1.717304	-0.000203
1281	1.2736e+02	-10.9954	-66.204989	0.000629	6.285121	2.129457	-0.000252
1282	1.2746e+02	-11.0500	-66.431069	0.000568	5.676883	1.923380	-0.000227
1283	1.2756e+02	-11.0820	-66.632925	0.000507	5.068646	1.717304	-0.000203
1284	1.2766e+02	-11.1318	-66.863042	0.000578	5.778256	1.957726	-0.000231
1285	1.2776e+02	-11.1655	-67.097196	0.000588	5.879629	1.992072	-0.000235
1286	1.2786e+02	-11.1927	-67.307127	0.000527	5.271392	1.785996	-0.000211
1287	1.2796e+02	-11.2409	-67.496872	0.000476	4.764527	1.614265	-0.000191
1288	1.2806e+02	-11.2826	-67.763323	0.000669	6.690612	2.266841	-0.000268
1289	1.2816e+02	-11.3114	-67.965180	0.000507	5.068646	1.717304	-0.000203
1290	1.2826e+02	-11.3628	-68.203371	0.000598	5.981002	2.026418	-0.000239
1291	1.2835e+02	-11.4077	-68.397154	0.000487	4.865900	1.648612	-0.000195
1292	1.2845e+02	-11.4430	-68.631308	0.000588	5.879629	1.992072	-0.000235
1293	1.2855e+02	-11.4831	-68.897759	0.000669	6.690612	2.266841	-0.000268
1294	1.2865e+02	-11.5200	-69.087504	0.000476	4.764527	1.614265	-0.000191
1295	1.2875e+02	-11.5585	-69.261101	0.000436	4.359035	1.476881	-0.000174
1296	1.2885e+02	-11.6002	-69.531589	0.000679	6.791985	2.301187	-0.000272
1297	1.2895e+02	-11.6323	-69.749594	0.000547	5.474137	1.854688	-0.000219
1298	1.2905e+02	-11.6804	-69.959525	0.000527	5.271392	1.785996	-0.000211
1299	1.2915e+02	-11.7221	-70.189642	0.000578	5.778256	1.957726	-0.000231
1300	1.2925e+02	-11.7510	-70.387462	0.000497	4.967273	1.682958	-0.000199
1301	1.2935e+02	-11.7863	-70.641801	0.000639	6.386494	2.163803	-0.000256
1302	1.2945e+02	-11.8328	-70.855769	0.000537	5.372764	1.820342	-0.000215
1303	1.2955e+02	-11.8793	-71.041478	0.000466	4.663154	1.579919	-0.000187
1304	1.2965e+02	-11.9259	-71.271594	0.000578	5.778256	1.957726	-0.000231
1305	1.2975e+02	-11.9596	-71.477488	0.000517	5.170019	1.751650	-0.000207
1306	1.2985e+02	-11.9916	-71.727791	0.000629	6.285121	2.129457	-0.000252
1307	1.2995e+02	-12.0382	-71.937722	0.000527	5.271392	1.785996	-0.000211
1308	1.3005e+02	-12.0847	-72.155727	0.000547	5.474137	1.854688	-0.000219
1309	1.3015e+02	-12.1087	-72.389881	0.000588	5.879629	1.992072	-0.000235
1310	1.3025e+02	-12.1521	-72.664406	0.000689	6.893358	2.335533	-0.000276
1311	1.3034e+02	-12.1938	-72.825892	0.000405	4.054917	1.373843	-0.000162
1312	1.3044e+02	-12.2275	-73.015637	0.000476	4.764527	1.614265	-0.000191
1313	1.3054e+02	-12.2724	-73.286125	0.000679	6.791985	2.301187	-0.000272
1314	1.3064e+02	-12.3205	-73.487982	0.000507	5.068646	1.717304	-0.000203
1315	1.3074e+02	-12.3526	-73.653504	0.000416	4.156290	1.408189	-0.000166
1316	1.3084e+02	-12.3975	-73.891695	0.000598	5.981002	2.026418	-0.000239
1317	1.3094e+02	-12.4392	-74.133924	0.000608	6.082375	2.060764	-0.000243
1318	1.3104e+02	-12.4825	-74.351929	0.000547	5.474137	1.854688	-0.000219
1319	1.3114e+02	-12.5082	-74.537637	0.000466	4.663154	1.579919	-0.000187
1320	1.3124e+02	-12.5579	-74.763717	0.000568	5.676883	1.923380	-0.000227
1321	1.3134e+02	-12.5916	-75.001908	0.000598	5.981002	2.026418	-0.000239
1322	1.3144e+02	-12.6349	-75.227987	0.000568	5.676883	1.923380	-0.000227
1323	1.3154e+02	-12.6718	-75.441956	0.000537	5.372764	1.820342	-0.000215
1324	1.3164e+02	-12.7151	-75.659961	0.000547	5.474137	1.854688	-0.000219
1325	1.3174e+02	-12.7456	-75.861818	0.000507	5.068646	1.717304	-0.000203
1326	1.3184e+02	-12.7970	-76.051563	0.000476	4.764527	1.614265	-0.000191
1327	1.3194e+02	-12.8323	-76.285717	0.000588	5.879629	1.992072	-0.000235
1328	1.3204e+02	-12.8788	-76.519871	0.000588	5.879629	1.992072	-0.000235
1329	1.3214e+02	-12.9093	-76.713653	0.000487	4.865900	1.648612	-0.000195
1330	1.3224e+02	-12.9558	-76.923584	0.000527	5.271392	1.785996	-0.000211
1331	1.3234e+02	-12.9895	-77.177924	0.000639	6.386494	2.163803	-0.000256
1332	1.3243e+02	-13.0248	-77.391892	0.000537	5.372764	1.820342	-0.000215
1333	1.3253e+02	-13.0729	-77.565489	0.000436	4.359035	1.476881	-0.000174
1334	1.3263e+02	-13.1130	-77.783494	0.000547	5.474137	1.854688	-0.000219
1335	1.3273e+02	-13.1579	-78.029760	0.000618	6.183748	2.095110	-0.000248
1336	1.3283e+02	-13.2012	-78.231616	0.000507	5.068646	1.717304	-0.000203
1337	1.3293e+02	-13.2253	-78.481919	0.000629	6.285121	2.129457	-0.000252
1338	1.3303e+02	-13.2670	-78.663590	0.000456	4.561781	1.545573	-0.000183
1339	1.3313e+02	-13.3119	-78.833150	0.000426	4.257662	1.442535	-0.000170
1340	1.3323e+02	-13.3504	-79.079415	0.000618	6.183748	2.095110	-0.000248
1341	1.3333e+02	-13.3937	-79.301457	0.000558	5.575510	1.889034	-0.000223
1342	1.3343e+02	-13.4403	-79.483128	0.000456	4.561781	1.545573	-0.000183
1343	1.3353e+02	-13.4836	-79.757654	0.000689	6.893358	2.335533	-0.000276
1344	1.3363e+02	-13.5076	-79.939325	0.000456	4.561781	1.545573	-0.000183
1345	1.3373e+02	-13.5461	-80.137144	0.000497	4.967273	1.682958	-0.000199
1346	1.3383e+02	-13.5830	-80.367261	0.000578	5.778256	1.957726	-0.000231
1347	1.3393e+02	-13.6312	-80.577192	0.000527	5.271392	1.785996	-0.000211
1348	1.3403e+02	-13.6616	-80.762900	0.000466	4.663154	1.579919	-0.000187
1349	1.3413e+02	-13.7082	-80.984943	0.000558	5.575510	1.889034	-0.000223
1350	1.3423e+02	-13.7499	-81.239282	0.000639	6.386494	2.163803	-0.000256
1351	1.3432e+02	-13.7932	-81.429028	0.000476	4.764527	1.614265	-0.000191
1352	1.3442e+02	-13.8269	-81.622810	0.000487	4.865900	1.648612	-0.000195
1353	1.3452e+02	-13.8718	-81.812556	0.000476	4.764527	1.614265	-0.000191
1354	1.3462e+02	-13.9023	-82.046710	0.000588	5.879629	1.992072	-0.000235
1355	1.3472e+02	-13.9520	-82.232418	0.000466	4.663154	1.579919	-0.000187
1356	1.3482e+02	-13.9825	-82.474646	0.000608	6.082375	2.060764	-0.000243
1357	1.3492e+02	-14.0242	-82.720911	0.000618	6.183748	2.095110	-0.000248
1358	1.3502e+02	-14.0643	-82.906620	0.000466	4.663154	1.579919	-0.000187
1359	1.3512e+02	-14.1092	-83.156922	0.000629	6.285121	2.129457	-0.000252
1360	1.3522e+02	-14.1541	-83.342630	0.000466	4.663154	1.579919	-0.000187
1361	1.3532e+02	-14.1910	-83.556598	0.000537	5.372764	1.820342	-0.000215
1362	1.3542e+02	-14.2311	-83.786715	0.000578	5.778256	1.957726	-0.000231
1363	1.3552e+02	-14.2664	-83.984535	0.000497	4.967273	1.682958	-0.000199
1364	1.3562e+02	-14.3114	-84.214651	0.000578	5.778256	1.957726	-0.000231
1365	1.3572e+02	-14.3483	-84.420545	0.000517	5.170019	1.751650	-0.000207
1366	1.3582e+02	-14.3852	-84.622402	0.000507	5.068646	1.717304	-0.000203
1367	1.3592e+02	-14.4285	-84.872705	0.000629	6.285121	2.129457	-0.000252
1368	1.3602e+02	-14.4702	-85.090710	0.000547	5.474137	1.854688	-0.000219
1369	1.3612e+02	-14.5071	-85.292567	0.000507	5.068646	1.717304	-0.000203
1370	1.3622e+02	-14.5440	-85.526721	0.000588	5.879629	1.992072	-0.000235
1371	1.3631e+02	-14.5777	-85.708392	0.000456	4.561781	1.545573	-0.000183
1372	1.3641e+02	-14.6258	-85.930434	0.000558	5.575510	1.889034	-0.000223
1373	1.3651e+02	-14.6659	-86.116142	0.000466	4.663154	1.579919	-0.000187
1374	1.3661e+02	-14.7092	-86.390668	0.000689	6.893358	2.335533	-0.000276
1375	1.3671e+02	-14.7397	-86.588487	0.000497	4.967273	1.682958	-0.000199
1376	1.3681e+02	-14.7878	-86.790344	0.000507	5.068646	1.717304	-0.000203
1377	1.3691e+02	-14.8343	-86.996238	0.000517	5.170019	1.751650	-0.000207
1378	1.3701e+02	-14.8632	-87.202132	0.000517	5.170019	1.751650	-0.000207
1379	1.3711e+02	-14.8969	-87.456471	0.000639	6.386494	2.163803	-0.000256
1380	1.3721e+02	-14.9434	-87.670440	0.000537	5.372764	1.820342	-0.000215
1381	1.3731e+02	-14.9755	-87.819814	0.000375	3.750798	1.270805	-0.000150
1382	1.3741e+02	-15.0236	-88.049930	0.000578	5.778256	1.957726	-0.000231
1383	1.3751e+02	-15.0686	-88.255824	0.000517	5.170019	1.751650	-0.000207
1384	1.3761e+02	-15.1039	-88.469793	0.000537	5.372764	1.820342	-0.000215
1385	1.3771e+02	-15.1456	-88.679724	0.000527	5.271392	1.785996	-0.000211
1386	1.3781e+02	-15.1841	-88.861395	0.000456	4.561781	1.545573	-0.000183
1387	1.3791e+02	-15.2113	-89.131883	0.000679	6.791985	2.301187	-0.000272
1388	1.3801e+02	-15.2611	-89.313554	0.000456	4.561781	1.545573	-0.000183
1389	1.3811e+02	-15.3076	-89.543671	0.000578	5.778256	1.957726	-0.000231
1390	1.3821e+02	-15.3429	-89.721305	0.000446	4.460408	1.511227	-0.000179
1391	1.3831e+02	-15.3910	-89.955459	0.000588	5.879629	1.992072	-0.000235
1392	1.3840e+02	-15.4231	-90.169427	0.000537	5.372764	1.820342	-0.000215
1393	1.3850e+02	-15.4648	-90.395506	0.000568	5.676883	1.923380	-0.000227
1394	1.3860e+02	-15.5049	-90.585252	0.000476	4.764527	1.614265	-0.000191
1395	1.3870e+02	-15.5450	-90.819406	0.000588	5.879629	1.992072	-0.000235
1396	1.3880e+02	-15.5915	-90.993002	0.000436	4.359035	1.476881	-0.000174
1397	1.3890e+02	-15.6124	-91.239268	0.000618	6.183748	2.095110	-0.000248
1398	1.3900e+02	-15.6701	-91.509756	0.000679	6.791985	2.301187	-0.000272
1399	1.3910e+02	-15.7038	-91.659130	0.000375	3.750798	1.270805	-0.000150
1400	1.3920e+02	-15.7455	-91.836764	0.000446	4.460408	1.511227	-0.000179
1401	1.3930e+02	-15.7889	-92.058806	0.000558	5.575510	1.889034	-0.000223
1402	1.3940e+02	-15.8161	-92.280849	0.000558	5.575510	1.889034	-0.000223
1403	1.3950e+02	-15.8659	-92.494817	0.000537	5.372764	1.820342	-0.000215
1404	1.3960e+02	-15.8979	-92.704748	0.000527	5.271392	1.785996	-0.000211
1405	1.3970e+02	-15.9461	-92.975236	0.000679	6.791985	2.301187	-0.000272
1406	1.3980e+02	-15.9782	-93.092313	0.000294	2.939815	0.996036	-0.000118
1407	1.3990e+02	-16.0135	-93.342615	0.000629	6.285121	2.129457	-0.000252
1408	1.4000e+02	-16.0648	-93.584844	0.000608	6.082375	2.060764	-0.000243
1409	1.4010e+02	-16.0969	-93.778626	0.000487	4.865900	1.648612	-0.000195
1410	1.4020e+02	-16.1450	-94.016817	0.000598	5.981002	2.026418	-0.000239
1411	1.4029e+02	-16.1771	-94.246934	0.000578	5.778256	1.957726	-0.000231
1412	1.4039e+02	-16.2268	-94.440716	0.000487	4.865900	1.648612	-0.000195
1413	1.4049e+02	-16.2493	-94.618350	0.000446	4.460408	1.511227	-0.000179
1414	1.4059e+02	-16.3006	-94.872690	0.000639	6.386494	2.163803	-0.000256
1415	1.4069e+02	-16.3375	-95.042250	0.000426	4.257662	1.442535	-0.000170
1416	1.4079e+02	-16.3840	-95.252181	0.000527	5.271392	1.785996	-0.000211
1417	1.4089e+02	-16.4225	-95.478260	0.000568	5.676883	1.923380	-0.000227
1418	1.4099e+02	-16.4691	-95.736637	0.000649	6.487867	2.198149	-0.000260
1419	1.4109e+02	-16.5076	-95.930419	0.000487	4.865900	1.648612	-0.000195
1420	1.4119e+02	-16.5300	-96.140350	0.000527	5.271392	1.785996	-0.000211
1421	1.4129e+02	-16.5830	-96.366430	0.000568	5.676883	1.923380	-0.000227
1422	1.4139e+02	-16.6231	-96.584435	0.000547	5.474137	1.854688	-0.000219
1423	1.4149e+02	-16.6584	-96.774181	0.000476	4.764527	1.614265	-0.000191
1424	1.4159e+02	-16.6936	-97.000260	0.000568	5.676883	1.923380	-0.000227
1425	1.4169e+02	-16.7450	-97.165783	0.000416	4.156290	1.408189	-0.000166
1426	1.4179e+02	-16.7674	-97.403974	0.000598	5.981002	2.026418	-0.000239
1427	1.4189e+02	-16.8124	-97.658314	0.000639	6.386494	2.163803	-0.000256
1428	1.4199e+02	-16.8557	-97.864207	0.000517	5.170019	1.751650	-0.000207
1429	1.4209e+02	-16.8990	-98.086250	0.000558	5.575510	1.889034	-0.000223
1430	1.4219e+02	-16.9423	-98.304255	0.000547	5.474137	1.854688	-0.000219
1431	1.4228e+02	-16.9824	-98.546483	0.000608	6.082375	2.060764	-0.000243
1432	1.4238e+02	-17.0177	-98.740266	0.000487	4.865900	1.648612	-0.000195
1433	1.4248e+02	-17.0498	-98.970383	0.000578	5.778256	1.957726	-0.000231
1434	1.4258e+02	-17.0947	-99.168202	0.000497	4.967273	1.682958	-0.000199
1435	1.4268e+02	-17.1332	-99.402356	0.000588	5.879629	1.992072	-0.000235
1436	1.4278e+02	-17.1829	-99.640547	0.000598	5.981002	2.026418	-0.000239
1437	1.4288e+02	-17.2214	-99.826255	0.000466	4.663154	1.579919	-0.000187
1438	1.4298e+02	-17.2599	-100.060409	0.000588	5.879629	1.992072	-0.000235
1439	1.4308e+02	-17.3000	-100.278415	0.000547	5.474137	1.854688	-0.000219
1440	1.4318e+02	-17.3337	-100.456049	0.000446	4.460408	1.511227	-0.000179
1441	1.4328e+02	-17.3642	-100.682128	0.000568	5.676883	1.923380	-0.000227
1442	1.4338e+02	-17.4123	-100.920319	0.000598	5.981002	2.026418	-0.000239
1443	1.4348e+02	-17.4476	-101.114102	0.000487	4.865900	1.648612	-0.000195
1444	1.4358e+02	-17.4974	-101.340181	0.000568	5.676883	1.923380	-0.000227
1445	1.4368e+02	-17.5343	-101.582409	0.000608	6.082375	2.060764	-0.000243
1446	1.4378e+02	-17.5792	-101.764081	0.000456	4.561781	1.545573	-0.000183
1447	1.4388e+02	-17.6193	-102.014383	0.000629	6.285121	2.129457	-0.000252
1448	1.4398e+02	-17.6610	-102.212203	0.000497	4.967273	1.682958	-0.000199
1449	1.4408e+02	-17.7059	-102.446356	0.000588	5.879629	1.992072	-0.000235
1450	1.4418e+02	-17.7268	-102.607842	0.000405	4.054917	1.373843	-0.000162
1451	1.4428e+02	-17.7733	-102.858144	0.000629	6.285121	2.129457	-0.000252
1452	1.4437e+02	-17.8198	-103.088261	0.000578	5.778256	1.957726	-0.000231
1453	1.4447e+02	-17.8535	-103.298192	0.000527	5.271392	1.785996	-0.000211
1454	1.4457e+02	-17.8824	-103.512160	0.000537	5.372764	1.820342	-0.000215
1455	1.4467e+02	-17.9305	-103.754388	0.000608	6.082375	2.060764	-0.000243
1456	1.4477e+02	-17.9786	-103.936060	0.000456	4.561781	1.545573	-0.000183
1457	1.4487e+02	-18.0203	-104.206548	0.000679	6.791985	2.301187	-0.000272
1458	1.4497e+02	-18.0605	-104.440702	0.000588	5.879629	1.992072	-0.000235
1459	1.4507e+02	-18.1022	-104.630447	0.000476	4.764527	1.614265	-0.000191
1460	1.4517e+02	-18.1294	-104.840378	0.000527	5.271392	1.785996	-0.000211
1461	1.4527e+02	-18.1744	-105.082606	0.000608	6.082375	2.060764	-0.000243
1462	1.4537e+02	-18.2113	-105.349057	0.000669	6.690612	2.266841	-0.000268
1463	1.4547e+02	-18.2610	-105.538802	0.000476	4.764527	1.614265	-0.000191
1464	1.4557e+02	-18.2899	-105.740659	0.000507	5.068646	1.717304	-0.000203
1465	1.4567e+02	-18.3252	-105.970776	0.000578	5.778256	1.957726	-0.000231
1466	1.4577e+02	-18.3813	-106.233190	0.000659	6.589239	2.232495	-0.000264
1467	1.4587e+02	-18.4054	-106.451195	0.000547	5.474137	1.854688	-0.000219
1468	1.4597e+02	-18.4567	-106.701498	0.000629	6.285121	2.129457	-0.000252
1469	1.4607e+02	-18.5000	-106.903354	0.000507	5.068646	1.717304	-0.000203
1470	1.4617e+02	-18.5401	-107.145582	0.000608	6.082375	2.060764	-0.000243
1471	1.4626e+02	-18.5786	-107.387811	0.000608	6.082375	2.060764	-0.000243
1472	1.4636e+02	-18.6059	-107.605816	0.000547	5.474137	1.854688	-0.000219
1473	1.4646e+02	-18.6540	-107.844007	0.000598	5.981002	2.026418	-0.000239
1474	1.4656e+02	-18.6893	-108.045864	0.000507	5.068646	1.717304	-0.000203
1475	1.4666e+02	-18.7310	-108.304240	0.000649	6.487867	2.198149	-0.000260
1476	1.4676e+02	-18.7840	-108.534357	0.000578	5.778256	1.957726	-0.000231
1477	1.4686e+02	-18.8064	-108.764474	0.000578	5.778256	1.957726	-0.000231
1478	1.4696e+02	-18.8594	-108.998628	0.000588	5.879629	1.992072	-0.000235
1479	1.4706e+02	-18.8882	-109.208559	0.000527	5.271392	1.785996	-0.000211
1480	1.4716e+02	-18.9348	-109.426564	0.000547	5.474137	1.854688	-0.000219
1481	1.4726e+02	-18.9684	-109.656681	0.000578	5.778256	1.957726	-0.000231
1482	1.4736e+02	-19.0118	-109.915058	0.000649	6.487867	2.198149	-0.000260
1483	1.4746e+02	-19.0567	-110.173434	0.000649	6.487867	2.198149	-0.000260
1484	1.4756e+02	-19.1032	-110.415662	0.000608	6.082375	2.060764	-0.000243
1485	1.4766e+02	-19.1337	-110.661928	0.000618	6.183748	2.095110	-0.000248
1486	1.4776e+02	-19.1738	-110.839562	0.000446	4.460408	1.511227	-0.000179
1487	1.4786e+02	-19.2171	-111.085827	0.000618	6.183748	2.095110	-0.000248
1488	1.4796e+02	-19.2540	-111.376501	0.000730	7.298850	2.472917	-0.000292
1489	1.4806e+02	-19.3102	-111.590469	0.000537	5.372764	1.820342	-0.000215
1490	1.4816e+02	-19.3326	-111.832697	0.000608	6.082375	2.060764	-0.000243
1491	1.4825e+02	-19.3647	-112.078962	0.000618	6.183748	2.095110	-0.000248
1492	1.4835e+02	-19.4032	-112.325228	0.000618	6.183748	2.095110	-0.000248
1493	1.4845e+02	-19.4401	-112.527084	0.000507	5.068646	1.717304	-0.000203
1494	1.4855e+02	-19.4818	-112.797573	0.000679	6.791985	2.301187	-0.000272
1495	1.4865e+02	-19.5235	-113.035764	0.000598	5.981002	2.026418	-0.000239
1496	1.4875e+02	-19.5716	-113.269917	0.000588	5.879629	1.992072	-0.000235
1497	1.4885e+02	-19.6117	-113.528294	0.000649	6.487867	2.198149	-0.000260
1498	1.4895e+02	-19.6470	-113.770522	0.000608	6.082375	2.060764	-0.000243
1499	1.4905e+02	-19.6823	-113.996602	0.000568	5.676883	1.923380	-0.000227
1500	1.4915e+02	-19.7273	-114.238830	0.000608	6.082375	2.060764	-0.000243
1501	1.4925e+02	-19.7625	-114.501244	0.000659	6.589239	2.232495	-0.000264
1502	1.4935e+02	-19.8010	-114.775769	0.000689	6.893358	2.335533	-0.000276
1503	1.4945e+02	-19.8524	-114.965514	0.000476	4.764527	1.614265	-0.000191
1504	1.4955e+02	-19.8797	-115.256188	0.000730	7.298850	2.472917	-0.000292
1505	1.4965e+02	-19.9262	-115.466119	0.000527	5.271392	1.785996	-0.000211
1506	1.4975e+02	-19.9631	-115.724496	0.000649	6.487867	2.198149	-0.000260
1507	1.4985e+02	-20.0080	-115.970761	0.000618	6.183748	2.095110	-0.000248
1508	1.4995e+02	-19.9647	-115.930390	0.000101	1.013729	0.343461	0.000041
1509	1.5005e+02	-19.9246	-115.861759	0.000172	1.723340	0.583883	0.000069
1510	1.5015e+02	-19.8813	-115.813313	0.000122	1.216475	0.412153	0.000049
1511	1.5025e+02	-19.8412	-115.736607	0.000193	1.926085	0.652575	0.000077
1512	1.5034e+02	-19.8139	-115.680087	0.000142	1.419221	0.480845	0.000057
1513	1.5044e+02	-19.7609	-115.579159	0.000253	2.534323	0.858652	0.000101
1514	1.5054e+02	-19.7385	-115.494379	0.000213	2.128831	0.721268	0.000085
1515	1.5064e+02	-19.6887	-115.405562	0.000223	2.230204	0.755614	0.000089
1516	1.5074e+02	-19.6567	-115.296560	0.000274	2.737069	0.927344	0.000110
1517	1.5084e+02	-19.6085	-115.167371	0.000324	3.243933	1.099074	0.000130
1518	1.5094e+02	-19.5636	-115.082591	0.000213	2.128831	0.721268	0.000085
1519	1.5104e+02	-19.5267	-114.973589	0.000274	2.737069	0.927344	0.000110
1520	1.5114e+02	-19.4802	-114.904957	0.000172	1.723340	0.583883	0.000069
1521	1.5124e+02	-19.4529	-114.787880	0.000294	2.939815	0.996036	0.000118
1522	1.5134e+02	-19.4080	-114.678878	0.000274	2.737069	0.927344	0.000110
1523	1.5144e+02	-19.3711	-114.565838	0.000284	2.838442	0.961690	0.000114
1524	1.5154e+02	-19.3358	-114.477021	0.000223	2.230204	0.755614	0.000089
1525	1.5164e+02	-19.2829	-114.376093	0.000253	2.534323	0.858652	0.000101
1526	1.5174e+02	-19.2588	-114.279201	0.000243	2.432950	0.824306	0.000097
1527	1.5184e+02	-19.2171	-114.141939	0.000345	3.446679	1.167766	0.000138
1528	1.5194e+02	-19.1690	-114.004676	0.000345	3.446679	1.167766	0.000138
1529	1.5204e+02	-19.1273	-113.887599	0.000294	2.939815	0.996036	0.000118
1530	1.5214e+02	-19.0952	-113.802819	0.000213	2.128831	0.721268	0.000085
1531	1.5224e+02	-19.0438	-113.621148	0.000456	4.561781	1.545573	0.000183
1532	1.5233e+02	-19.0070	-113.516183	0.000264	2.635696	0.892998	0.000105
1533	1.5243e+02	-18.9604	-113.435440	0.000203	2.027458	0.686921	0.000081
1534	1.5253e+02	-18.9299	-113.322400	0.000284	2.838442	0.961690	0.000114
1535	1.5263e+02	-18.8995	-113.148803	0.000436	4.359035	1.476881	0.000174
1536	1.5273e+02	-18.8578	-113.059986	0.000223	2.230204	0.755614	0.000089
1537	1.5283e+02	-18.8128	-112.942909	0.000294	2.939815	0.996036	0.000118
1538	1.5293e+02	-18.7808	-112.801610	0.000355	3.548052	1.202113	0.000142
1539	1.5303e+02	-18.7342	-112.688570	0.000284	2.838442	0.961690	0.000114
1540	1.5313e+02	-18.6909	-112.539196	0.000375	3.750798	1.270805	0.000150
1541	1.5323e+02	-18.6524	-112.401933	0.000345	3.446679	1.167766	0.000138
1542	1.5333e+02	-18.6091	-112.288893	0.000284	2.838442	0.961690	0.000114
1543	1.5343e+02	-18.5658	-112.143557	0.000365	3.649425	1.236459	0.000146
1544	1.5353e+02	-18.5353	-112.026480	0.000294	2.939815	0.996036	0.000118
1545	1.5363e+02	-18.4888	-111.893254	0.000335	3.345306	1.133420	0.000134
1546	1.5373e+02	-18.4519	-111.747917	0.000365	3.649425	1.236459	0.000146
1547	1.5383e+02	-18.4214	-111.630840	0.000294	2.939815	0.996036	0.000118
1548	1.5393e+02	-18.3733	-111.457243	0.000436	4.359035	1.476881	0.000174
1549	1.5403e+02	-18.3268	-111.336129	0.000304	3.041187	1.030382	0.000122
1550	1.5413e+02	-18.2834	-111.210978	0.000314	3.142560	1.064728	0.000126
1551	1.5422e+02	-18.2594	-111.041418	0.000426	4.257662	1.442535	0.000170
1552	1.5432e+02	-18.2177	-110.976824	0.000162	1.621967	0.549537	0.000065
1553	1.5442e+02	-18.1776	-110.811302	0.000416	4.156290	1.408189	0.000166
1554	1.5452e+02	-18.1326	-110.637705	0.000436	4.359035	1.476881	0.000174
1555	1.5462e+02	-18.0974	-110.496405	0.000355	3.548052	1.202113	0.000142
1556	1.5472e+02	-18.0588	-110.322808	0.000436	4.359035	1.476881	0.000174
1557	1.5482e+02	-18.0091	-110.201694	0.000304	3.041187	1.030382	0.000122
1558	1.5492e+02	-17.9722	-110.060394	0.000355	3.548052	1.202113	0.000142
1559	1.5502e+02	-17.9498	-109.935243	0.000314	3.142560	1.064728	0.000126
1560	1.5512e+02	-17.8936	-109.810092	0.000314	3.142560	1.064728	0.000126
1561	1.5522e+02	-17.8583	-109.680904	0.000324	3.243933	1.099074	0.000130
1562	1.5532e+02	-17.8118	-109.487121	0.000487	4.865900	1.648612	0.000195
1563	1.5542e+02	-17.7717	-109.386193	0.000253	2.534323	0.858652	0.000101
1564	1.5552e+02	-17.7300	-109.228745	0.000395	3.953544	1.339497	0.000158
1565	1.5562e+02	-17.6915	-109.051111	0.000446	4.460408	1.511227	0.000179
1566	1.5572e+02	-17.6578	-108.950182	0.000253	2.534323	0.858652	0.000101
1567	1.5582e+02	-17.6129	-108.764474	0.000466	4.663154	1.579919	0.000187
1568	1.5592e+02	-17.5760	-108.598951	0.000416	4.156290	1.408189	0.000166
1569	1.5602e+02	-17.5423	-108.493986	0.000264	2.635696	0.892998	0.000105
1570	1.5612e+02	-17.4942	-108.364797	0.000324	3.243933	1.099074	0.000130
1571	1.5622e+02	-17.4621	-108.175052	0.000476	4.764527	1.614265	0.000191
1572	1.5631e+02	-17.4172	-108.049901	0.000314	3.142560	1.064728	0.000126
1573	1.5641e+02	-17.3738	-107.912638	0.000345	3.446679	1.167766	0.000138
1574	1.5651e+02	-17.3450	-107.722893	0.000476	4.764527	1.614265	0.000191
1575	1.5661e+02	-17.3000	-107.601779	0.000304	3.041187	1.030382	0.000122
1576	1.5671e+02	-17.2519	-107.420108	0.000456	4.561781	1.545573	0.000183
1577	1.5681e+02	-17.2214	-107.278808	0.000355	3.548052	1.202113	0.000142
1578	1.5691e+02	-17.1749	-107.133471	0.000365	3.649425	1.236459	0.000146
1579	1.5701e+02	-17.1332	-106.996208	0.000345	3.446679	1.167766	0.000138
1580	1.5711e+02	-17.1011	-106.826649	0.000426	4.257662	1.442535	0.000170
1581	1.5721e+02	-17.0498	-106.665163	0.000405	4.054917	1.373843	0.000162
1582	1.5731e+02	-17.0193	-106.523864	0.000355	3.548052	1.202113	0.000142
1583	1.5741e+02	-16.9760	-106.382564	0.000355	3.548052	1.202113	0.000142
1584	1.5751e+02	-16.9391	-106.225116	0.000395	3.953544	1.339497	0.000158
1585	1.5761e+02	-16.8878	-106.023259	0.000507	5.068646	1.717304	0.000203
1586	1.5771e+02	-16.8717	-105.934442	0.000223	2.230204	0.755614	0.000089
1587	1.5781e+02	-16.8252	-105.760845	0.000436	4.359035	1.476881	0.000174
1588	1.5791e+02	-16.7739	-105.635694	0.000314	3.142560	1.064728	0.000126
1589	1.5801e+02	-16.7321	-105.462097	0.000436	4.359035	1.476881	0.000174
1590	1.5811e+02	-16.6969	-105.316760	0.000365	3.649425	1.236459	0.000146
1591	1.5821e+02	-16.6616	-105.135089	0.000456	4.561781	1.545573	0.000183
1592	1.5830e+02	-16.6215	-104.993789	0.000355	3.548052	1.202113	0.000142
1593	1.5840e+02	-16.5733	-104.840378	0.000385	3.852171	1.305151	0.000154
1594	1.5850e+02	-16.5300	-104.715227	0.000314	3.142560	1.064728	0.000126
1595	1.5860e+02	-16.4963	-104.529519	0.000466	4.663154	1.579919	0.000187
1596	1.5870e+02	-16.4610	-104.363996	0.000416	4.156290	1.408189	0.000166
1597	1.5880e+02	-16.4225	-104.206548	0.000395	3.953544	1.339497	0.000158
1598	1.5890e+02	-16.3760	-104.053137	0.000385	3.852171	1.305151	0.000154
1599	1.5900e+02	-16.3359	-103.915874	0.000345	3.446679	1.167766	0.000138
1600	1.5910e+02	-16.3022	-103.709980	0.000517	5.170019	1.751650	0.000207
1601	1.5920e+02	-16.2621	-103.584829	0.000314	3.142560	1.064728	0.000126
1602	1.5930e+02	-16.2204	-103.435455	0.000375	3.750798	1.270805	0.000150
1603	1.5940e+02	-16.1819	-103.253784	0.000456	4.561781	1.545573	0.000183
1604	1.5950e+02	-16.1434	-103.120558	0.000335	3.345306	1.133420	0.000134
1605	1.5960e+02	-16.1129	-102.955036	0.000416	4.156290	1.408189	0.000166
1606	1.5970e+02	-16.0664	-102.757216	0.000497	4.967273	1.682958	0.000199
1607	1.5980e+02	-16.0247	-102.628028	0.000324	3.243933	1.099074	0.000130
1608	1.5990e+02	-15.9814	-102.474616	0.000385	3.852171	1.305151	0.000154
1609	1.6000e+02	-15.9364	-102.264685	0.000527	5.271392	1.785996	0.000211
1610	1.6010e+02	-15.9060	-102.119348	0.000365	3.649425	1.236459	0.000146
1611	1.6019e+02	-15.8610	-101.974012	0.000365	3.649425	1.236459	0.000146
1612	1.6029e+02	-15.8225	-101.796378	0.000446	4.460408	1.511227	0.000179
1613	1.6039e+02	-15.7873	-101.651041	0.000365	3.649425	1.236459	0.000146
1614	1.6049e+02	-15.7423	-101.441110	0.000527	5.271392	1.785996	0.000211
1615	1.6059e+02	-15.7022	-101.315958	0.000314	3.142560	1.064728	0.000126
1616	1.6069e+02	-15.6685	-101.130250	0.000466	4.663154	1.579919	0.000187
1617	1.6079e+02	-15.6268	-100.976839	0.000385	3.852171	1.305151	0.000154
1618	1.6089e+02	-15.5819	-100.819391	0.000395	3.953544	1.339497	0.000158
1619	1.6099e+02	-15.5418	-100.649831	0.000426	4.257662	1.442535	0.000170
1620	1.6109e+02	-15.5017	-100.447974	0.000507	5.068646	1.717304	0.000203
1621	1.6119e+02	-15.4552	-100.254192	0.000487	4.865900	1.648612	0.000195
1622	1.6129e+02	-15.4263	-100.161338	0.000233	2.331577	0.789960	0.000093
1623	1.6139e+02	-15.3814	-99.963518	0.000497	4.967273	1.682958	0.000199
1624	1.6149e+02	-15.3365	-99.822218	0.000355	3.548052	1.202113	0.000142
1625	1.6159e+02	-15.3092	-99.620361	0.000507	5.068646	1.717304	0.000203
1626	1.6169e+02	-15.2707	-99.434653	0.000466	4.663154	1.579919	0.000187
1627	1.6179e+02	-15.2242	-99.240871	0.000487	4.865900	1.648612	0.000195
1628	1.6189e+02	-15.1905	-99.075348	0.000416	4.156290	1.408189	0.000166
1629	1.6199e+02	-15.1472	-98.930011	0.000365	3.649425	1.236459	0.000146
1630	1.6209e+02	-15.1071	-98.768526	0.000405	4.054917	1.373843	0.000162
1631	1.6219e+02	-15.0621	-98.623189	0.000365	3.649425	1.236459	0.000146
1632	1.6228e+02	-15.0301	-98.457666	0.000416	4.156290	1.408189	0.000166
1633	1.6238e+02	-14.9867	-98.288107	0.000426	4.257662	1.442535	0.000170
1634	1.6248e+02	-14.9498	-98.094324	0.000487	4.865900	1.648612	0.000195
1635	1.6258e+02	-14.9033	-97.948987	0.000365	3.649425	1.236459	0.000146
1636	1.6268e+02	-14.8712	-97.735019	0.000537	5.372764	1.820342	0.000215
1637	1.6278e+02	-14.8327	-97.593719	0.000355	3.548052	1.202113	0.000142
1638	1.6288e+02	-14.7782	-97.420122	0.000436	4.359035	1.476881	0.000174
1639	1.6298e+02	-14.7445	-97.270748	0.000375	3.750798	1.270805	0.000150
1640	1.6308e+02	-14.7012	-97.085040	0.000466	4.663154	1.579919	0.000187
1641	1.6318e+02	-14.6627	-96.903369	0.000456	4.561781	1.545573	0.000183
1642	1.6328e+02	-14.6274	-96.721698	0.000456	4.561781	1.545573	0.000183
1643	1.6338e+02	-14.5857	-96.560213	0.000405	4.054917	1.373843	0.000162
1644	1.6348e+02	-14.5440	-96.378541	0.000456	4.561781	1.545573	0.000183
1645	1.6358e+02	-14.5119	-96.229167	0.000375	3.750798	1.270805	0.000150
1646	1.6368e+02	-14.4606	-96.059608	0.000426	4.257662	1.442535	0.000170
1647	1.6378e+02	-14.4301	-95.853714	0.000517	5.170019	1.751650	0.000207
1648	1.6388e+02	-14.3884	-95.688191	0.000416	4.156290	1.408189	0.000166
1649	1.6398e+02	-14.3531	-95.522669	0.000416	4.156290	1.408189	0.000166
1650	1.6408e+02	-14.3001	-95.373295	0.000375	3.750798	1.270805	0.000150
1651	1.6418e+02	-14.2713	-95.195661	0.000446	4.460408	1.511227	0.000179
1652	1.6427e+02	-14.2328	-95.005915	0.000476	4.764527	1.614265	0.000191
1653	1.6437e+02	-14.1862	-94.832318	0.000436	4.359035	1.476881	0.000174
1654	1.6447e+02	-14.1558	-94.642573	0.000476	4.764527	1.614265	0.000191
1655	1.6457e+02	-14.1044	-94.493199	0.000375	3.750798	1.270805	0.000150
1656	1.6467e+02	-14.0723	-94.295379	0.000497	4.967273	1.682958	0.000199
1657	1.6477e+02	-14.0386	-94.105634	0.000476	4.764527	1.614265	0.000191
1658	1.6487e+02	-13.9873	-93.968371	0.000345	3.446679	1.167766	0.000138
1659	1.6497e+02	-13.9408	-93.778626	0.000476	4.764527	1.614265	0.000191
1660	1.6507e+02	-13.9103	-93.572732	0.000517	5.170019	1.751650	0.000207
1661	1.6517e+02	-13.8702	-93.467767	0.000264	2.635696	0.892998	0.000105
1662	1.6527e+02	-13.8301	-93.233613	0.000588	5.879629	1.992072	0.000235
1663	1.6537e+02	-13.7820	-93.064053	0.000426	4.257662	1.442535	0.000170
1664	1.6547e+02	-13.7531	-92.942939	0.000304	3.041187	1.030382	0.000122
1665	1.6557e+02	-13.7194	-92.708785	0.000588	5.879629	1.992072	0.000235
1666	1.6567e+02	-13.6681	-92.555374	0.000385	3.852171	1.305151	0.000154
1667	1.6577e+02	-13.6360	-92.345443	0.000527	5.271392	1.785996	0.000211
1668	1.6587e+02	-13.5895	-92.179920	0.000416	4.156290	1.408189	0.000166
1669	1.6597e+02	-13.5494	-92.014398	0.000416	4.156290	1.408189	0.000166
1670	1.6607e+02	-13.5141	-91.824652	0.000476	4.764527	1.614265	0.000191
1671	1.6616e+02	-13.4772	-91.663167	0.000405	4.054917	1.373843	0.000162
1672	1.6626e+02	-13.4194	-91.445162	0.000547	5.474137	1.854688	0.000219
1673	1.6636e+02	-13.4002	-91.255416	0.000476	4.764527	1.614265	0.000191
1674	1.6646e+02	-13.3520	-91.106042	0.000375	3.750798	1.270805	0.000150
1675	1.6656e+02	-13.3103	-90.936482	0.000426	4.257662	1.442535	0.000170
1676	1.6666e+02	-13.2718	-90.746737	0.000476	4.764527	1.614265	0.000191
1677	1.6676e+02	-13.2301	-90.536806	0.000527	5.271392	1.785996	0.000211
1678	1.6686e+02	-13.1916	-90.347061	0.000476	4.764527	1.614265	0.000191
1679	1.6696e+02	-13.1531	-90.173464	0.000436	4.359035	1.476881	0.000174
1680	1.6706e+02	-13.1098	-89.971607	0.000507	5.068646	1.717304	0.000203
1681	1.6716e+02	-13.0729	-89.814159	0.000395	3.953544	1.339497	0.000158
1682	1.6726e+02	-13.0344	-89.588079	0.000568	5.676883	1.923380	0.000227
1683	1.6736e+02	-12.9895	-89.450817	0.000345	3.446679	1.167766	0.000138
1684	1.6746e+02	-12.9558	-89.297405	0.000385	3.852171	1.305151	0.000154
1685	1.6756e+02	-12.9077	-89.034992	0.000659	6.589239	2.232495	0.000264
1686	1.6766e+02	-12.8740	-88.901766	0.000335	3.345306	1.133420	0.000134
1687	1.6776e+02	-12.8355	-88.764503	0.000345	3.446679	1.167766	0.000138
1688	1.6786e+02	-12.8066	-88.538424	0.000568	5.676883	1.923380	0.000227
1689	1.6796e+02	-12.7649	-88.368864	0.000426	4.257662	1.442535	0.000170
1690	1.6806e+02	-12.7055	-88.138747	0.000578	5.778256	1.957726	0.000231
1691	1.6816e+02	-12.6718	-87.981299	0.000395	3.953544	1.339497	0.000158
1692	1.6825e+02	-12.6381	-87.827888	0.000385	3.852171	1.305151	0.000154
1693	1.6835e+02	-12.5900	-87.605846	0.000558	5.575510	1.889034	0.000223
1694	1.6845e+02	-12.5579	-87.391877	0.000537	5.372764	1.820342	0.000215
1695	1.6855e+02	-12.5178	-87.258652	0.000335	3.345306	1.133420	0.000134
1696	1.6865e+02	-12.4745	-87.093129	0.000416	4.156290	1.408189	0.000166
1697	1.6875e+02	-12.4376	-86.919532	0.000436	4.359035	1.476881	0.000174
1698	1.6885e+02	-12.3991	-86.717676	0.000507	5.068646	1.717304	0.000203
1699	1.6895e+02	-12.3526	-86.552153	0.000416	4.156290	1.408189	0.000166
1700	1.6905e+02	-12.3077	-86.370482	0.000456	4.561781	1.545573	0.000183
1701	1.6915e+02	-12.2756	-86.168625	0.000507	5.068646	1.717304	0.000203
1702	1.6925e+02	-12.2339	-85.966768	0.000507	5.068646	1.717304	0.000203
1703	1.6935e+02	-12.1986	-85.809320	0.000395	3.953544	1.339497	0.000158
1704	1.6945e+02	-12.1601	-85.655909	0.000385	3.852171	1.305151	0.000154
1705	1.6955e+02	-12.1071	-85.466164	0.000476	4.764527	1.614265	0.000191
1706	1.6965e+02	-12.0831	-85.284492	0.000456	4.561781	1.545573	0.000183
1707	1.6975e+02	-12.0317	-85.018042	0.000669	6.690612	2.266841	0.000268
1708	1.6985e+02	-11.9948	-84.884816	0.000335	3.345306	1.133420	0.000134
1709	1.6995e+02	-11.9596	-84.686996	0.000497	4.967273	1.682958	0.000199
1710	1.7005e+02	-11.9114	-84.489177	0.000497	4.967273	1.682958	0.000199
1711	1.7015e+02	-11.8697	-84.319617	0.000426	4.257662	1.442535	0.000170
1712	1.7024e+02	-11.8344	-84.137946	0.000456	4.561781	1.545573	0.000183
1713	1.7034e+02	-11.8072	-83.919941	0.000547	5.474137	1.854688	0.000219
1714	1.7044e+02	-11.7606	-83.738269	0.000456	4.561781	1.545573	0.000183
1715	1.7054e+02	-11.7237	-83.528338	0.000527	5.271392	1.785996	0.000211
1716	1.7064e+02	-11.6708	-83.354742	0.000436	4.359035	1.476881	0.000174
1717	1.7074e+02	-11.6371	-83.205368	0.000375	3.750798	1.270805	0.000150
1718	1.7084e+02	-11.5986	-83.019659	0.000466	4.663154	1.579919	0.000187
1719	1.7094e+02	-11.5617	-82.769357	0.000629	6.285121	2.129457	0.000252
1720	1.7104e+02	-11.5120	-82.644206	0.000314	3.142560	1.064728	0.000126
1721	1.7114e+02	-11.4815	-82.397940	0.000618	6.183748	2.095110	0.000248
1722	1.7124e+02	-11.4414	-82.240492	0.000395	3.953544	1.339497	0.000158
1723	1.7134e+02	-11.3965	-81.998264	0.000608	6.082375	2.060764	0.000243
1724	1.7144e+02	-11.3596	-81.824667	0.000436	4.359035	1.476881	0.000174
1725	1.7154e+02	-11.3195	-81.655107	0.000426	4.257662	1.442535	0.000170
1726	1.7164e+02	-11.2810	-81.457288	0.000497	4.967273	1.682958	0.000199
1727	1.7174e+02	-11.2505	-81.275617	0.000456	4.561781	1.545573	0.000183
1728	1.7184e+02	-11.1991	-81.041463	0.000588	5.879629	1.992072	0.000235
1729	1.7194e+02	-11.1606	-80.871903	0.000426	4.257662	1.442535	0.000170
1730	1.7204e+02	-11.1157	-80.657935	0.000537	5.372764	1.820342	0.000215
1731	1.7213e+02	-11.0949	-80.472227	0.000466	4.663154	1.579919	0.000187
1732	1.7223e+02	-11.0403	-80.339001	0.000335	3.345306	1.133420	0.000134
1733	1.7233e+02	-10.9986	-80.100810	0.000598	5.981002	2.026418	0.000239
1734	1.7243e+02	-10.9665	-79.886842	0.000537	5.372764	1.820342	0.000215
1735	1.7253e+02	-10.9280	-79.689022	0.000497	4.967273	1.682958	0.000199
1736	1.7263e+02	-10.8767	-79.483128	0.000517	5.170019	1.751650	0.000207
1737	1.7273e+02	-10.8398	-79.289346	0.000487	4.865900	1.648612	0.000195
1738	1.7283e+02	-10.7981	-79.139972	0.000375	3.750798	1.270805	0.000150
1739	1.7293e+02	-10.7580	-78.909855	0.000578	5.778256	1.957726	0.000231
1740	1.7303e+02	-10.7211	-78.740295	0.000426	4.257662	1.442535	0.000170
1741	1.7313e+02	-10.6714	-78.546513	0.000487	4.865900	1.648612	0.000195
1742	1.7323e+02	-10.6505	-78.328508	0.000547	5.474137	1.854688	0.000219
1743	1.7333e+02	-10.6120	-78.146836	0.000456	4.561781	1.545573	0.000183
1744	1.7343e+02	-10.5719	-77.932868	0.000537	5.372764	1.820342	0.000215
1745	1.7353e+02	-10.5254	-77.690640	0.000608	6.082375	2.060764	0.000243
1746	1.7363e+02	-10.4885	-77.529155	0.000405	4.054917	1.373843	0.000162
1747	1.7373e+02	-10.4516	-77.359595	0.000426	4.257662	1.442535	0.000170
1748	1.7383e+02	-10.4051	-77.145627	0.000537	5.372764	1.820342	0.000215
1749	1.7393e+02	-10.3601	-76.895324	0.000629	6.285121	2.129457	0.000252
1750	1.7403e+02	-10.3216	-76.697505	0.000497	4.967273	1.682958	0.000199
1751	1.7413e+02	-10.2912	-76.511797	0.000466	4.663154	1.579919	0.000187
1752	1.7422e+02	-10.2398	-76.346274	0.000416	4.156290	1.408189	0.000166
1753	1.7432e+02	-10.2045	-76.116157	0.000578	5.778256	1.957726	0.000231
1754	1.7442e+02	-10.1692	-75.982932	0.000335	3.345306	1.133420	0.000134
1755	1.7452e+02	-10.1259	-75.756852	0.000568	5.676883	1.923380	0.000227
1756	1.7462e+02	-10.0778	-75.546921	0.000527	5.271392	1.785996	0.000211
1757	1.7472e+02	-10.0457	-75.320841	0.000568	5.676883	1.923380	0.000227
1758	1.7482e+02	-10.0072	-75.127059	0.000487	4.865900	1.648612	0.000195
1759	1.7492e+02	-9.9671	-74.949425	0.000446	4.460408	1.511227	0.000179
1760	1.7502e+02	-9.9254	-74.759680	0.000476	4.764527	1.614265	0.000191
1761	1.7512e+02	-9.8885	-74.549749	0.000527	5.271392	1.785996	0.000211
1762	1.7522e+02	-9.8468	-74.347892	0.000507	5.068646	1.717304	0.000203
1763	1.7532e+02	-9.8003	-74.121812	0.000568	5.676883	1.923380	0.000227
1764	1.7542e+02	-9.7650	-73.940141	0.000456	4.561781	1.545573	0.000183
1765	1.7552e+02	-9.7281	-73.746359	0.000487	4.865900	1.648612	0.000195
1766	1.7562e+02	-9.6799	-73.528353	0.000547	5.474137	1.854688	0.000219
1767	1.7572e+02	-9.6430	-73.310348	0.000547	5.474137	1.854688	0.000219
1768	1.7582e+02	-9.6094	-73.132714	0.000446	4.460408	1.511227	0.000179
1769	1.7592e+02	-9.5692	-72.938931	0.000487	4.865900	1.648612	0.000195
1770	1.7602e+02	-9.5275	-72.716889	0.000558	5.575510	1.889034	0.000223
1771	1.7612e+02	-9.4794	-72.523106	0.000487	4.865900	1.648612	0.000195
1772	1.7621e+02	-9.4473	-72.305101	0.000547	5.474137	1.854688	0.000219
1773	1.7631e+02	-9.4072	-72.083059	0.000558	5.575510	1.889034	0.000223
1774	1.7641e+02	-9.3703	-71.901387	0.000456	4.561781	1.545573	0.000183
1775	1.7651e+02	-9.3318	-71.663196	0.000598	5.981002	2.026418	0.000239
1776	1.7661e+02	-9.2901	-71.453265	0.000527	5.271392	1.785996	0.000211
1777	1.7671e+02	-9.2436	-71.263520	0.000476	4.764527	1.614265	0.000191
1778	1.7681e+02	-9.2099	-71.053589	0.000527	5.271392	1.785996	0.000211
1779	1.7691e+02	-9.1714	-70.847695	0.000517	5.170019	1.751650	0.000207
1780	1.7701e+02	-9.1185	-70.633727	0.000537	5.372764	1.820342	0.000215
1781	1.7711e+02	-9.0944	-70.415722	0.000547	5.474137	1.854688	0.000219
1782	1.7721e+02	-9.0559	-70.185605	0.000578	5.778256	1.957726	0.000231
1783	1.7731e+02	-9.0110	-69.943377	0.000608	6.082375	2.060764	0.000243
1784	1.7741e+02	-8.9709	-69.777854	0.000416	4.156290	1.408189	0.000166
1785	1.7751e+02	-8.9292	-69.523515	0.000639	6.386494	2.163803	0.000256
1786	1.7761e+02	-8.9051	-69.325695	0.000497	4.967273	1.682958	0.000199
1787	1.7771e+02	-8.8473	-69.071355	0.000639	6.386494	2.163803	0.000256
1788	1.7781e+02	-8.8088	-68.921981	0.000375	3.750798	1.270805	0.000150
1789	1.7791e+02	-8.7655	-68.695902	0.000568	5.676883	1.923380	0.000227
1790	1.7801e+02	-8.7286	-68.490008	0.000517	5.170019	1.751650	0.000207
1791	1.7810e+02	-8.6901	-68.292188	0.000497	4.967273	1.682958	0.000199
1792	1.7820e+02	-8.6532	-68.058034	0.000588	5.879629	1.992072	0.000235
1793	1.7830e+02	-8.6179	-67.880400	0.000446	4.460408	1.511227	0.000179
1794	1.7840e+02	-8.5650	-67.678544	0.000507	5.068646	1.717304	0.000203
1795	1.7850e+02	-8.5313	-67.408055	0.000679	6.791985	2.301187	0.000272
1796	1.7860e+02	-8.4992	-67.206199	0.000507	5.068646	1.717304	0.000203
1797	1.7870e+02	-8.4495	-67.000305	0.000517	5.170019	1.751650	0.000207
1798	1.7880e+02	-8.4110	-66.814596	0.000466	4.663154	1.579919	0.000187
1799	1.7890e+02	-8.3741	-66.548146	0.000669	6.690612	2.266841	0.000268
1800	1.7900e+02	-8.3340	-66.374549	0.000436	4.359035	1.476881	0.000174
1801	1.7910e+02	-8.2875	-66.112135	0.000659	6.589239	2.232495	0.000264
1802	1.7920e+02	-8.2490	-65.918352	0.000487	4.865900	1.648612	0.000195
1803	1.7930e+02	-8.2057	-65.712458	0.000517	5.170019	1.751650	0.000207
1804	1.7940e+02	-8.1720	-65.502527	0.000527	5.271392	1.785996	0.000211
1805	1.7950e+02	-8.1319	-65.300671	0.000507	5.068646	1.717304	0.000203
1806	1.7960e+02	-8.0982	-65.050368	0.000629	6.285121	2.129457	0.000252
1807	1.7970e+02	-8.0532	-64.836400	0.000537	5.372764	1.820342	0.000215
1808	1.7980e+02	-8.0099	-64.590135	0.000618	6.183748	2.095110	0.000248
1809	1.7990e+02	-7.9762	-64.355981	0.000588	5.879629	1.992072	0.000235
1810	1.8000e+02	-7.9313	-64.170273	0.000466	4.663154	1.579919	0.000187
1811	1.8009e+02	-7.8928	-63.948230	0.000558	5.575510	1.889034	0.000223
1812	1.8019e+02	-7.8559	-63.758485	0.000476	4.764527	1.614265	0.000191
1813	1.8029e+02	-7.8142	-63.520294	0.000598	5.981002	2.026418	0.000239
1814	1.8039e+02	-7.7709	-63.306326	0.000537	5.372764	1.820342	0.000215
1815	1.8049e+02	-7.7404	-63.080246	0.000568	5.676883	1.923380	0.000227
1816	1.8059e+02	-7.6939	-62.906649	0.000436	4.359035	1.476881	0.000174
1817	1.8069e+02	-7.6634	-62.620012	0.000720	7.197477	2.438571	0.000288
1818	1.8079e+02	-7.6105	-62.402007	0.000547	5.474137	1.854688	0.000219
1819	1.8089e+02	-7.5688	-62.167853	0.000588	5.879629	1.992072	0.000235
1820	1.8099e+02	-7.5383	-61.945811	0.000558	5.575510	1.889034	0.000223
1821	1.8109e+02	-7.4886	-61.764140	0.000456	4.561781	1.545573	0.000183
1822	1.8119e+02	-7.4549	-61.538060	0.000568	5.676883	1.923380	0.000227
1823	1.8129e+02	-7.4148	-61.291795	0.000618	6.183748	2.095110	0.000248
1824	1.8139e+02	-7.3731	-61.081864	0.000527	5.271392	1.785996	0.000211
1825	1.8149e+02	-7.3362	-60.875970	0.000517	5.170019	1.751650	0.000207
1826	1.8159e+02	-7.2977	-60.601445	0.000689	6.893358	2.335533	0.000276
1827	1.8169e+02	-7.2592	-60.427848	0.000436	4.359035	1.476881	0.000174
1828	1.8179e+02	-7.2174	-60.165434	0.000659	6.589239	2.232495	0.000264
1829	1.8189e+02	-7.1822	-59.983763	0.000456	4.561781	1.545573	0.000183
1830	1.8199e+02	-7.1404	-59.697126	0.000720	7.197477	2.438571	0.000288
1831	1.8209e+02	-7.0987	-59.519492	0.000446	4.460408	1.511227	0.000179
1832	1.8218e+02	-7.0490	-59.293413	0.000568	5.676883	1.923380	0.000227
1833	1.8228e+02	-7.0185	-59.035036	0.000649	6.487867	2.198149	0.000260
1834	1.8238e+02	-6.9736	-58.817031	0.000547	5.474137	1.854688	0.000219
1835	1.8248e+02	-6.9303	-58.603062	0.000537	5.372764	1.820342	0.000215
1836	1.8258e+02	-6.8982	-58.389094	0.000537	5.372764	1.820342	0.000215
1837	1.8268e+02	-6.8565	-58.102458	0.000720	7.197477	2.438571	0.000288
1838	1.8278e+02	-6.8100	-57.916749	0.000466	4.663154	1.579919	0.000187
1839	1.8288e+02	-6.7699	-57.714893	0.000507	5.068646	1.717304	0.000203
1840	1.8298e+02	-6.7410	-57.480739	0.000588	5.879629	1.992072	0.000235
1841	1.8308e+02	-6.7057	-57.218325	0.000659	6.589239	2.232495	0.000264
1842	1.8318e+02	-6.6624	-57.056839	0.000405	4.054917	1.373843	0.000162
1843	1.8328e+02	-6.6159	-56.754054	0.000760	7.602969	2.575955	0.000304
1844	1.8338e+02	-6.5854	-56.540086	0.000537	5.372764	1.820342	0.000215
1845	1.8348e+02	-6.5453	-56.289784	0.000629	6.285121	2.129457	0.000252
1846	1.8358e+02	-6.5020	-56.091964	0.000497	4.967273	1.682958	0.000199
1847	1.8368e+02	-6.4618	-55.829550	0.000659	6.589239	2.232495	0.000264
1848	1.8378e+02	-6.4233	-55.668065	0.000405	4.054917	1.373843	0.000162
1849	1.8388e+02	-6.3720	-55.401614	0.000669	6.690612	2.266841	0.000268
1850	1.8398e+02	-6.3351	-55.187646	0.000537	5.372764	1.820342	0.000215
1851	1.8407e+02	-6.3014	-54.933306	0.000639	6.386494	2.163803	0.000256
1852	1.8417e+02	-6.2597	-54.723375	0.000527	5.271392	1.785996	0.000211
1853	1.8427e+02	-6.2228	-54.452887	0.000679	6.791985	2.301187	0.000272
1854	1.8437e+02	-6.1875	-54.230844	0.000558	5.575510	1.889034	0.000223
1855	1.8447e+02	-6.1426	-53.984579	0.000618	6.183748	2.095110	0.000248
1856	1.8457e+02	-6.0929	-53.766574	0.000547	5.474137	1.854688	0.000219
1857	1.8467e+02	-6.0608	-53.576828	0.000476	4.764527	1.614265	0.000191
1858	1.8477e+02	-6.0271	-53.290192	0.000720	7.197477	2.438571	0.000288
1859	1.8487e+02	-5.9710	-53.039889	0.000629	6.285121	2.129457	0.000252
1860	1.8497e+02	-5.9437	-52.854181	0.000466	4.663154	1.579919	0.000187
1861	1.8507e+02	-5.8923	-52.563507	0.000730	7.298850	2.472917	0.000292
1862	1.8517e+02	-5.8635	-52.329353	0.000588	5.879629	1.992072	0.000235
1863	1.8527e+02	-5.8282	-52.131534	0.000497	4.967273	1.682958	0.000199
1864	1.8537e+02	-5.7768	-51.889306	0.000608	6.082375	2.060764	0.000243
1865	1.8547e+02	-5.7432	-51.683412	0.000517	5.170019	1.751650	0.000207
1866	1.8557e+02	-5.7047	-51.441184	0.000608	6.082375	2.060764	0.000243
1867	1.8567e+02	-5.6613	-51.194918	0.000618	6.183748	2.095110	0.000248
1868	1.8577e+02	-5.6244	-50.964802	0.000578	5.778256	1.957726	0.000231
1869	1.8587e+02	-5.5843	-50.758908	0.000517	5.170019	1.751650	0.000207
1870	1.8597e+02	-5.5442	-50.496494	0.000659	6.589239	2.232495	0.000264
1871	1.8606e+02	-5.5154	-50.230043	0.000669	6.690612	2.266841	0.000268
1872	1.8616e+02	-5.4656	-50.076632	0.000385	3.852171	1.305151	0.000154
1873	1.8626e+02	-5.4239	-49.777884	0.000750	7.501596	2.541609	0.000300
1874	1.8636e+02	-5.3790	-49.567953	0.000527	5.271392	1.785996	0.000211
1875	1.8646e+02	-5.3485	-49.362059	0.000517	5.170019	1.751650	0.000207
1876	1.8656e+02	-5.3052	-49.063311	0.000750	7.501596	2.541609	0.000300
1877	1.8666e+02	-5.2699	-48.845305	0.000547	5.474137	1.854688	0.000219
1878	1.8676e+02	-5.2218	-48.590966	0.000639	6.386494	2.163803	0.000256
1879	1.8686e+02	-5.1913	-48.348738	0.000608	6.082375	2.060764	0.000243
1880	1.8696e+02	-5.1496	-48.122658	0.000568	5.676883	1.923380	0.000227
1881	1.8706e+02	-5.1063	-47.896578	0.000568	5.676883	1.923380	0.000227
1882	1.8716e+02	-5.0742	-47.654350	0.000608	6.082375	2.060764	0.000243
1883	1.8726e+02	-5.0261	-47.387899	0.000669	6.690612	2.266841	0.000268
1884	1.8736e+02	-4.9795	-47.177968	0.000527	5.271392	1.785996	0.000211
1885	1.8746e+02	-4.9378	-46.895369	0.000710	7.096104	2.404225	0.000284
1886	1.8756e+02	-4.9025	-46.713698	0.000456	4.561781	1.545573	0.000183
1887	1.8766e+02	-4.8688	-46.431098	0.000710	7.096104	2.404225	0.000284
1888	1.8776e+02	-4.8207	-46.160610	0.000679	6.791985	2.301187	0.000272
1889	1.8786e+02	-4.7870	-45.954716	0.000517	5.170019	1.751650	0.000207
1890	1.8796e+02	-4.7533	-45.676154	0.000699	6.994731	2.369879	0.000280
1891	1.8806e+02	-4.7052	-45.454111	0.000558	5.575510	1.889034	0.000223
1892	1.8815e+02	-4.6667	-45.240143	0.000537	5.372764	1.820342	0.000215
1893	1.8825e+02	-4.6314	-44.953506	0.000720	7.197477	2.438571	0.000288
1894	1.8835e+02	-4.5817	-44.731464	0.000558	5.575510	1.889034	0.000223
1895	1.8845e+02	-4.5464	-44.497310	0.000588	5.879629	1.992072	0.000235
1896	1.8855e+02	-4.5047	-44.242971	0.000639	6.386494	2.163803	0.000256
1897	1.8865e+02	-4.4614	-44.008817	0.000588	5.879629	1.992072	0.000235
1898	1.8875e+02	-4.4165	-43.714106	0.000740	7.400223	2.507263	0.000296
1899	1.8885e+02	-4.3924	-43.451692	0.000659	6.589239	2.232495	0.000264
1900	1.8895e+02	-4.3491	-43.278095	0.000436	4.359035	1.476881	0.000174
1901	1.8905e+02	-4.3090	-43.019718	0.000649	6.487867	2.198149	0.000260
1902	1.8915e+02	-4.2641	-42.745193	0.000689	6.893358	2.335533	0.000276
1903	1.8925e+02	-4.2368	-42.486817	0.000649	6.487867	2.198149	0.000260
1904	1.8935e+02	-4.1870	-42.220366	0.000669	6.690612	2.266841	0.000268
1905	1.8945e+02	-4.1518	-41.982175	0.000598	5.981002	2.026418	0.000239
1906	1.8955e+02	-4.1149	-41.748021	0.000588	5.879629	1.992072	0.000235
1907	1.8965e+02	-4.0699	-41.477533	0.000679	6.791985	2.301187	0.000272
1908	1.8975e+02	-4.0266	-41.215119	0.000659	6.589239	2.232495	0.000264
1909	1.8985e+02	-3.9865	-40.960779	0.000639	6.386494	2.163803	0.000256
1910	1.8995e+02	-3.9496	-40.730662	0.000578	5.778256	1.957726	0.000231
1911	1.9004e+02	-3.9127	-40.427877	0.000760	7.602969	2.575955	0.000304
1912	1.9014e+02	-3.8774	-40.213909	0.000537	5.372764	1.820342	0.000215
1913	1.9024e+02	-3.8277	-39.947458	0.000669	6.690612	2.266841	0.000268
1914	1.9034e+02	-3.7796	-39.705230	0.000608	6.082375	2.060764	0.000243
1915	1.9044e+02	-3.7443	-39.426668	0.000699	6.994731	2.369879	0.000280
1916	1.9054e+02	-3.7106	-39.196551	0.000578	5.778256	1.957726	0.000231
1917	1.9064e+02	-3.6689	-38.905877	0.000730	7.298850	2.472917	0.000292
1918	1.9074e+02	-3.6368	-38.675760	0.000578	5.778256	1.957726	0.000231
1919	1.9084e+02	-3.5855	-38.397198	0.000699	6.994731	2.369879	0.000280
1920	1.9094e+02	-3.5470	-38.130747	0.000669	6.690612	2.266841	0.000268
1921	1.9104e+02	-3.5117	-37.904667	0.000568	5.676883	1.923380	0.000227
1922	1.9114e+02	-3.4684	-37.670514	0.000588	5.879629	1.992072	0.000235
1923	1.9124e+02	-3.4395	-37.420211	0.000629	6.285121	2.129457	0.000252
1924	1.9134e+02	-3.3833	-37.121463	0.000750	7.501596	2.541609	0.000300
1925	1.9144e+02	-3.3416	-36.871161	0.000629	6.285121	2.129457	0.000252
1926	1.9154e+02	-3.3095	-36.620858	0.000629	6.285121	2.129457	0.000252
1927	1.9164e+02	-3.2774	-36.374593	0.000618	6.183748	2.095110	0.000248
1928	1.9174e+02	-3.2261	-36.075845	0.000750	7.501596	2.541609	0.000300
1929	1.9184e+02	-3.1988	-35.849765	0.000568	5.676883	1.923380	0.000227
1930	1.9194e+02	-3.1587	-35.555054	0.000740	7.400223	2.507263	0.000296
1931	1.9203e+02	-3.1106	-35.312826	0.000608	6.082375	2.060764	0.000243
1932	1.9213e+02	-3.0785	-35.042338	0.000679	6.791985	2.301187	0.000272
1933	1.9223e+02	-3.0288	-34.804147	0.000598	5.981002	2.026418	0.000239
1934	1.9233e+02	-2.9903	-34.505399	0.000750	7.501596	2.541609	0.000300
1935	1.9243e+02	-2.9566	-34.275282	0.000578	5.778256	1.957726	0.000231
1936	1.9253e+02	-2.9085	-34.008831	0.000669	6.690612	2.266841	0.000268
1937	1.9263e+02	-2.8812	-33.750455	0.000649	6.487867	2.198149	0.000260
1938	1.9273e+02	-2.8347	-33.459781	0.000730	7.298850	2.472917	0.000292
1939	1.9283e+02	-2.8074	-33.197367	0.000659	6.589239	2.232495	0.000264
1940	1.9293e+02	-2.7577	-32.918805	0.000699	6.994731	2.369879	0.000280
1941	1.9303e+02	-2.7160	-32.704837	0.000537	5.372764	1.820342	0.000215
1942	1.9313e+02	-2.6727	-32.406089	0.000750	7.501596	2.541609	0.000300
1943	1.9323e+02	-2.6342	-32.115415	0.000730	7.298850	2.472917	0.000292
1944	1.9333e+02	-2.5973	-31.836852	0.000699	6.994731	2.369879	0.000280
1945	1.9343e+02	-2.5555	-31.602699	0.000588	5.879629	1.992072	0.000235
1946	1.9353e+02	-2.5122	-31.320099	0.000710	7.096104	2.404225	0.000284
1947	1.9363e+02	-2.4850	-31.033462	0.000720	7.197477	2.438571	0.000288
1948	1.9373e+02	-2.4352	-30.767011	0.000669	6.690612	2.266841	0.000268
1949	1.9383e+02	-2.3951	-30.480375	0.000720	7.197477	2.438571	0.000288
1950	1.9393e+02	-2.3550	-30.226035	0.000639	6.386494	2.163803	0.000256
1951	1.9403e+02	-2.3133	-29.971696	0.000639	6.386494	2.163803	0.000256
1952	1.9412e+02	-2.2716	-29.644688	0.000821	8.211206	2.782032	0.000329
1953	1.9422e+02	-2.2347	-29.386311	0.000649	6.487867	2.198149	0.000260
1954	1.9432e+02	-2.1930	-29.115823	0.000679	6.791985	2.301187	0.000272
1955	1.9442e+02	-2.1545	-28.865521	0.000629	6.285121	2.129457	0.000252
1956	1.9452e+02	-2.1144	-28.558698	0.000770	7.704342	2.610302	0.000308
1957	1.9462e+02	-2.0695	-28.276099	0.000710	7.096104	2.404225	0.000284
1958	1.9472e+02	-2.0294	-27.985425	0.000730	7.298850	2.472917	0.000292
1959	1.9482e+02	-1.9860	-27.718974	0.000669	6.690612	2.266841	0.000268
1960	1.9492e+02	-1.9636	-27.420226	0.000750	7.501596	2.541609	0.000300
1961	1.9502e+02	-1.9219	-27.202221	0.000547	5.474137	1.854688	0.000219
1962	1.9512e+02	-1.8818	-26.859064	0.000862	8.616698	2.919416	0.000345
1963	1.9522e+02	-1.8385	-26.641059	0.000547	5.474137	1.854688	0.000219
1964	1.9532e+02	-1.7951	-26.301939	0.000852	8.515325	2.885070	0.000341
1965	1.9542e+02	-1.7566	-26.015303	0.000720	7.197477	2.438571	0.000288
1966	1.9552e+02	-1.7133	-25.777112	0.000598	5.981002	2.026418	0.000239
1967	1.9562e+02	-1.6748	-25.458178	0.000801	8.008460	2.713340	0.000321
1968	1.9572e+02	-1.6283	-25.187690	0.000679	6.791985	2.301187	0.000272
1969	1.9582e+02	-1.6026	-24.921239	0.000669	6.690612	2.266841	0.000268
1970	1.9592e+02	-1.5513	-24.622491	0.000750	7.501596	2.541609	0.000300
1971	1.9601e+02	-1.5176	-24.352003	0.000679	6.791985	2.301187	0.000272
1972	1.9611e+02	-1.4823	-24.073440	0.000699	6.994731	2.369879	0.000280
1973	1.9621e+02	-1.4438	-23.770655	0.000760	7.602969	2.575955	0.000304
1974	1.9631e+02	-1.4069	-23.479981	0.000730	7.298850	2.472917	0.000292
1975	1.9641e+02	-1.3556	-23.148936	0.000831	8.312579	2.816378	0.000333
1976	1.9651e+02	-1.3171	-22.882485	0.000669	6.690612	2.266841	0.000268
1977	1.9661e+02	-1.2818	-22.632183	0.000629	6.285121	2.129457	0.000252
1978	1.9671e+02	-1.2321	-22.317286	0.000791	7.907087	2.678994	0.000316
1979	1.9681e+02	-1.2000	-22.050835	0.000669	6.690612	2.266841	0.000268
1980	1.9691e+02	-1.1550	-21.768236	0.000710	7.096104	2.404225	0.000284
1981	1.9701e+02	-1.1182	-21.485636	0.000710	7.096104	2.404225	0.000284
1982	1.9711e+02	-1.0813	-21.150554	0.000841	8.413952	2.850724	0.000337
1983	1.9721e+02	-1.0476	-20.924475	0.000568	5.676883	1.923380	0.000227
1984	1.9731e+02	-1.0010	-20.557095	0.000922	9.224935	3.125493	0.000369
1985	1.9741e+02	-0.9641	-20.310830	0.000618	6.183748	2.095110	0.000248
1986	1.9751e+02	-0.9096	-20.024193	0.000720	7.197477	2.438571	0.000288
1987	1.9761e+02	-0.8743	-19.697185	0.000821	8.211206	2.782032	0.000329
1988	1.9771e+02	-0.8502	-19.442846	0.000639	6.386494	2.163803	0.000256
1989	1.9781e+02	-0.8005	-19.140061	0.000760	7.602969	2.575955	0.000304
1990	1.9791e+02	-0.7716	-18.833238	0.000770	7.704342	2.610302	0.000308
1991	1.9800e+02	-0.7219	-18.542564	0.000730	7.298850	2.472917	0.000292
1992	1.9810e+02	-0.6786	-18.280151	0.000659	6.589239	2.232495	0.000264
1993	1.9820e+02	-0.6433	-17.977365	0.000760	7.602969	2.575955	0.000304
1994	1.9830e+02	-0.6080	-17.654395	0.000811	8.109833	2.747686	0.000325
1995	1.9840e+02	-0.5583	-17.351609	0.000760	7.602969	2.575955	0.000304
1996	1.9850e+02	-0.5246	-17.044787	0.000770	7.704342	2.610302	0.000308
1997	1.9860e+02	-0.4765	-16.790448	0.000639	6.386494	2.163803	0.000256
1998	1.9870e+02	-0.4428	-16.487662	0.000760	7.602969	2.575955	0.000304
1999	1.9880e+02	-0.3898	-16.229286	0.000649	6.487867	2.198149	0.000260
2000	1.9890e+02	-0.3610	-15.906315	0.000811	8.109833	2.747686	0.000325
2001	1.9900e+02	-0.3305	-15.575270	0.000831	8.312579	2.816378	0.000333
2002	1.9910e+02	-0.2839	-15.304782	0.000679	6.791985	2.301187	0.000272
2003	1.9920e+02	-0.2454	-14.997959	0.000770	7.704342	2.610302	0.000308
2004	1.9930e+02	-0.2037	-14.719397	0.000699	6.994731	2.369879	0.000280
2005	1.9940e+02	-0.1668	-14.428723	0.000730	7.298850	2.472917	0.000292
2006	1.9950e+02	-0.1251	-14.089604	0.000852	8.515325	2.885070	0.000341
2007	1.9960e+02	-0.0786	-13.790856	0.000750	7.501596	2.541609	0.000300
2008	1.9970e+02	-0.0385	-13.475959	0.000791	7.907087	2.678994	0.000316
2009	1.9980e+02	0.0000	-13.189322	0.000791	7.907087	2.678994	0.000288

Center data before PMax,+/-Pr and +/-Vc Calc.

PMax (uC/cm2):	1.16e+02
Pr (uC/cm2):	6.23e+00
-Pr (uC/cm2):	-1.32e+01
PLoss (uC/cm2):	-8.02e+00
Vc:	7.62e-01
-Vc:	-8.40e-01
C (Max-Eff) (nF):	5.80e-01
K (Eff):	1.97e+03
Vert. (+/-Pr) Shift (uC/cm2):	-3.48e+00
Horiz. Shift (+/-Vc):	-3.89e-02
Offset (uC/cm2):	5.18e+00

A (Loop Area - uC/cm2·Volts):	6.56e-02



Hysteresis Version: 5.48.1 - Radiant Technologies, Inc., 1999 - 9/12/24

