»»»»»»»»»»»»»»»»»»»»»»»»»»»»»»»»»»»» Hysteresis ««««««««««««««««««««««««««««««««««««
»»»  Executed Version:	5.48.1
»»»  Vision Version:	5.48.4 (R)
»»»  Vision Compiled:	9/18/24
»»»  Driver Version:	5.47.0
»»»  Windows Version:	Windows 8 or 8.1
»»»  Processor Information:	x86 (AMD or Intel) - 32 Processors
»»»  Tester Name:	PMF21124-494 (100V)
»»»  Tester S/N:	PMF21124-494
»»»  Internal Amp Type:	100V RevK 270k
»»»  Internal Amp S/N:	iAB2-596/K     
»»»  Execution Count:	1
»»»»»»»»»»»»»»»»»»»»»»»»»»»»»»»»»»»»»»»»»»««««««««««««««««««««««««««««««««««««««««««

Stored:	6/5/2025 - 11:8:1
Configured:	06/05/25 10:43:40 AM
Executed:	06/05/25 11:07:24 AM

»»»»»»»»»»»»»»»»»»»»»»»»»»»»»»»»»»» Sample Info ««««««««««««««««««««««««««««««««««««
Sample Name:	
Lot Name:	
Wafer Name:	
Die Row/Column:	0/0
Capacitor Number:	0
Sample Area (cm2):	1.00e-04
Sample Thickness (microns):	3.00e-01

Amplifier:	Internal

»»»»»»»»»»»»»»»»»»»»»»»»»»»»»»»»»»» Tester Info «««««««««««««««««««««««««««««««««««
Tester Name:	PMF21124-494 (100V)
Tester Serial Number:	PMF21124-494
Return Signal Amp. Level:	0.19 [Index: 3]

»»»»»»»»»»»»»»»»»»»»»»»»»»»»»»»» Hysteresis Info ««««««««««««««««««««««««««««««««««
Task Name:	Hyst-187
Volts:	20.00
Field:	666.67 (kV/cm)
DCBias:	0.00
DCField:	0.00 (kV/cm)
Hysteresis Period (ms):	2.00e+02
Preset:	Enabled
Preset Delay (ms):	1.00e+03
Profile:	Standard Bipolar

»»»»»»»»»»»»»»»»»»»»»»»»»»»»»»»»»»»»»» Data «««««««««««««««««««««««««««««««««««««««
Points:	2009

Valid Data

Point	Time (ms)	Drive Voltage	Measured Polarization (uC/cm2)	Capacitance (uF)	Normalized Capacitance (uF/cm2)	Dielectric Constant	Instantaneous Current (mA)
   1	0.0000e+00	-0.0128	-5.983035	0.000567	5.674151	1.922455	0.000227
   2	9.9500e-02	0.0241	-5.756956	0.000567	5.674151	1.922455	0.000227
   3	1.9900e-01	0.0610	-5.462245	0.000740	7.396662	2.506057	0.000296
   4	2.9850e-01	0.1011	-5.195794	0.000669	6.687393	2.265750	0.000268
   5	3.9800e-01	0.1364	-4.893009	0.000760	7.599310	2.574716	0.000304
   6	4.9750e-01	0.1765	-4.614446	0.000699	6.991365	2.368739	0.000280
   7	5.9700e-01	0.2262	-4.319735	0.000740	7.396662	2.506057	0.000296
   8	6.9650e-01	0.2679	-4.025024	0.000740	7.396662	2.506057	0.000296
   9	7.9600e-01	0.2984	-3.693979	0.000831	8.308579	2.815023	0.000333
  10	8.9550e-01	0.3385	-3.411380	0.000709	7.092689	2.403068	0.000284
  11	9.9500e-01	0.3914	-3.108595	0.000760	7.599310	2.574716	0.000304
  12	1.0945e+00	0.4171	-2.830032	0.000699	6.991365	2.368739	0.000280
  13	1.1940e+00	0.4540	-2.511098	0.000800	8.004606	2.712034	0.000321
  14	1.2935e+00	0.4989	-2.208313	0.000760	7.599310	2.574716	0.000304
  15	1.3930e+00	0.5342	-1.925714	0.000709	7.092689	2.403068	0.000284
  16	1.4925e+00	0.5823	-1.586594	0.000851	8.511227	2.883682	0.000341
  17	1.5920e+00	0.6240	-1.295921	0.000730	7.295337	2.471727	0.000292
  18	1.6915e+00	0.6706	-0.968913	0.000821	8.207255	2.780693	0.000329
  19	1.7910e+00	0.6930	-0.670165	0.000750	7.497986	2.540386	0.000300
  20	1.8905e+00	0.7331	-0.363342	0.000770	7.700634	2.609045	0.000308
  21	1.9900e+00	0.7748	-0.068631	0.000740	7.396662	2.506057	0.000296
  22	2.0895e+00	0.8150	0.254340	0.000811	8.105930	2.746364	0.000325
  23	2.1890e+00	0.8647	0.577310	0.000811	8.105930	2.746364	0.000325
  24	2.2885e+00	0.8952	0.900281	0.000811	8.105930	2.746364	0.000325
  25	2.3880e+00	0.9433	1.199029	0.000750	7.497986	2.540386	0.000300
  26	2.4875e+00	0.9802	1.481629	0.000709	7.092689	2.403068	0.000284
  27	2.5870e+00	1.0235	1.816711	0.000841	8.409903	2.849352	0.000337
  28	2.6865e+00	1.0636	2.171979	0.000892	8.916524	3.021000	0.000357
  29	2.7860e+00	1.0941	2.402096	0.000578	5.775475	1.956784	0.000231
  30	2.8855e+00	1.1374	2.708918	0.000770	7.700634	2.609045	0.000308
  31	2.9850e+00	1.1711	3.052075	0.000861	8.612551	2.918011	0.000345
  32	3.0845e+00	1.2144	3.387157	0.000841	8.409903	2.849352	0.000337
  33	3.1840e+00	1.2593	3.693979	0.000770	7.700634	2.609045	0.000308
  34	3.2835e+00	1.2962	3.992727	0.000750	7.497986	2.540386	0.000300
  35	3.3830e+00	1.3411	4.319735	0.000821	8.207255	2.780693	0.000329
  36	3.4825e+00	1.3828	4.626558	0.000770	7.700634	2.609045	0.000308
  37	3.5820e+00	1.4181	4.941454	0.000790	7.903282	2.677704	0.000316
  38	3.6815e+00	1.4486	5.300759	0.000902	9.017848	3.055329	0.000361
  39	3.7810e+00	1.5016	5.591433	0.000730	7.295337	2.471727	0.000292
  40	3.8805e+00	1.5336	5.878070	0.000719	7.194013	2.437398	0.000288
  41	3.9800e+00	1.5786	6.197003	0.000800	8.004606	2.712034	0.000321
  42	4.0795e+00	1.6203	6.524011	0.000821	8.207255	2.780693	0.000329
  43	4.1790e+00	1.6540	6.859094	0.000841	8.409903	2.849352	0.000337
  44	4.2785e+00	1.6941	7.165916	0.000770	7.700634	2.609045	0.000308
  45	4.3780e+00	1.7342	7.492924	0.000821	8.207255	2.780693	0.000329
  46	4.4775e+00	1.7727	7.731115	0.000598	5.978124	2.025443	0.000239
  47	4.5770e+00	1.8160	8.130791	0.001003	10.031089	3.398625	0.000402
  48	4.6765e+00	1.8641	8.449725	0.000800	8.004606	2.712034	0.000321
  49	4.7760e+00	1.8914	8.740399	0.000730	7.295337	2.471727	0.000292
  50	4.8755e+00	1.9379	9.031073	0.000730	7.295337	2.471727	0.000292
  51	4.9750e+00	1.9700	9.382303	0.000882	8.815199	2.986670	0.000353
  52	5.0745e+00	2.0133	9.705274	0.000811	8.105930	2.746364	0.000325
  53	5.1740e+00	2.0663	9.991911	0.000719	7.194013	2.437398	0.000288
  54	5.2735e+00	2.0999	10.347179	0.000892	8.916524	3.021000	0.000357
  55	5.3730e+00	2.1320	10.702447	0.000892	8.916524	3.021000	0.000357
  56	5.4725e+00	2.1785	11.033492	0.000831	8.308579	2.815023	0.000333
  57	5.5720e+00	2.2106	11.308017	0.000689	6.890041	2.334409	0.000276
  58	5.6715e+00	2.2604	11.663285	0.000892	8.916524	3.021000	0.000357
  59	5.7710e+00	2.3005	11.978182	0.000790	7.903282	2.677704	0.000316
  60	5.8705e+00	2.3342	12.297115	0.000800	8.004606	2.712034	0.000321
  61	5.9700e+00	2.3711	12.571641	0.000689	6.890041	2.334409	0.000276
  62	6.0695e+00	2.4144	12.943057	0.000932	9.321820	3.158318	0.000373
  63	6.1690e+00	2.4545	13.266028	0.000811	8.105930	2.746364	0.000325
  64	6.2685e+00	2.4962	13.584962	0.000800	8.004606	2.712034	0.000321
  65	6.3680e+00	2.5315	13.871598	0.000719	7.194013	2.437398	0.000288
  66	6.4675e+00	2.5700	14.214755	0.000861	8.612551	2.918011	0.000345
  67	6.5670e+00	2.6069	14.557911	0.000861	8.612551	2.918011	0.000345
  68	6.6665e+00	2.6566	14.868771	0.000780	7.801958	2.643375	0.000312
  69	6.7660e+00	2.6951	15.171556	0.000760	7.599310	2.574716	0.000304
  70	6.8655e+00	2.7336	15.466267	0.000740	7.396662	2.506057	0.000296
  71	6.9650e+00	2.7753	15.821535	0.000892	8.916524	3.021000	0.000357
  72	7.0645e+00	2.8026	16.136432	0.000790	7.903282	2.677704	0.000316
  73	7.1640e+00	2.8539	16.451328	0.000790	7.903282	2.677704	0.000316
  74	7.2635e+00	2.8876	16.766225	0.000790	7.903282	2.677704	0.000316
  75	7.3630e+00	2.9325	17.060936	0.000740	7.396662	2.506057	0.000296
  76	7.4625e+00	2.9694	17.420241	0.000902	9.017848	3.055329	0.000361
  77	7.5620e+00	3.0192	17.698803	0.000699	6.991365	2.368739	0.000280
  78	7.6615e+00	3.0561	17.997551	0.000750	7.497986	2.540386	0.000300
  79	7.7610e+00	3.0881	18.312448	0.000790	7.903282	2.677704	0.000316
  80	7.8605e+00	3.1315	18.671753	0.000902	9.017848	3.055329	0.000361
  81	7.9600e+00	3.1764	18.998761	0.000821	8.207255	2.780693	0.000329
  82	8.0595e+00	3.2101	19.273286	0.000689	6.890041	2.334409	0.000276
  83	8.1590e+00	3.2582	19.600294	0.000821	8.207255	2.780693	0.000329
  84	8.2585e+00	3.2887	19.878856	0.000699	6.991365	2.368739	0.000280
  85	8.3580e+00	3.3336	20.222013	0.000861	8.612551	2.918011	0.000345
  86	8.4575e+00	3.3673	20.496538	0.000689	6.890041	2.334409	0.000276
  87	8.5570e+00	3.4138	20.803360	0.000770	7.700634	2.609045	0.000308
  88	8.6565e+00	3.4459	21.182851	0.000952	9.524468	3.226977	0.000381
  89	8.7560e+00	3.4972	21.526008	0.000861	8.612551	2.918011	0.000345
  90	8.8555e+00	3.5277	21.788422	0.000659	6.586069	2.231420	0.000264
  91	8.9550e+00	3.5742	22.087170	0.000750	7.497986	2.540386	0.000300
  92	9.0545e+00	3.6031	22.389955	0.000760	7.599310	2.574716	0.000304
  93	9.1540e+00	3.6512	22.721000	0.000831	8.308579	2.815023	0.000333
  94	9.2535e+00	3.6801	23.023785	0.000760	7.599310	2.574716	0.000304
  95	9.3530e+00	3.7266	23.318496	0.000740	7.396662	2.506057	0.000296
  96	9.4525e+00	3.7651	23.629355	0.000780	7.801958	2.643375	0.000312
  97	9.5520e+00	3.8068	23.960401	0.000831	8.308579	2.815023	0.000333
  98	9.6515e+00	3.8502	24.275297	0.000790	7.903282	2.677704	0.000316
  99	9.7510e+00	3.8871	24.565971	0.000730	7.295337	2.471727	0.000292
 100	9.8505e+00	3.9336	24.905090	0.000851	8.511227	2.883682	0.000341
 101	9.9500e+00	3.9641	25.171541	0.000669	6.687393	2.265750	0.000268
 102	1.0050e+01	4.0074	25.482401	0.000780	7.801958	2.643375	0.000312
 103	1.0149e+01	4.0459	25.797297	0.000790	7.903282	2.677704	0.000316
 104	1.0248e+01	4.0940	26.148528	0.000882	8.815199	2.986670	0.000353
 105	1.0348e+01	4.1245	26.406905	0.000648	6.484744	2.197091	0.000260
 106	1.0447e+01	4.1726	26.721801	0.000790	7.903282	2.677704	0.000316
 107	1.0547e+01	4.2095	26.980178	0.000648	6.484744	2.197091	0.000260
 108	1.0646e+01	4.2528	27.355632	0.000942	9.423144	3.192648	0.000377
 109	1.0746e+01	4.2865	27.614008	0.000648	6.484744	2.197091	0.000260
 110	1.0845e+01	4.3314	27.904682	0.000730	7.295337	2.471727	0.000292
 111	1.0945e+01	4.3683	28.223616	0.000800	8.004606	2.712034	0.000321
 112	1.1044e+01	4.4084	28.554661	0.000831	8.308579	2.815023	0.000333
 113	1.1144e+01	4.4534	28.837261	0.000709	7.092689	2.403068	0.000284
 114	1.1243e+01	4.4902	29.140046	0.000760	7.599310	2.574716	0.000304
 115	1.1343e+01	4.5271	29.463017	0.000811	8.105930	2.746364	0.000325
 116	1.1443e+01	4.5737	29.765802	0.000760	7.599310	2.574716	0.000304
 117	1.1542e+01	4.6106	30.044364	0.000699	6.991365	2.368739	0.000280
 118	1.1642e+01	4.6475	30.383484	0.000851	8.511227	2.883682	0.000341
 119	1.1741e+01	4.6844	30.658009	0.000689	6.890041	2.334409	0.000276
 120	1.1841e+01	4.7325	30.952720	0.000740	7.396662	2.506057	0.000296
 121	1.1940e+01	4.7614	31.263579	0.000780	7.801958	2.643375	0.000312
 122	1.2040e+01	4.8063	31.558290	0.000740	7.396662	2.506057	0.000296
 123	1.2139e+01	4.8528	31.844927	0.000719	7.194013	2.437398	0.000288
 124	1.2239e+01	4.8929	32.163860	0.000800	8.004606	2.712034	0.000321
 125	1.2338e+01	4.9186	32.450497	0.000719	7.194013	2.437398	0.000288
 126	1.2438e+01	4.9699	32.777505	0.000821	8.207255	2.780693	0.000329
 127	1.2537e+01	4.9972	33.068179	0.000730	7.295337	2.471727	0.000292
 128	1.2636e+01	5.0485	33.375001	0.000770	7.700634	2.609045	0.000308
 129	1.2736e+01	5.0886	33.661638	0.000719	7.194013	2.437398	0.000288
 130	1.2835e+01	5.1319	33.928089	0.000669	6.687393	2.265750	0.000268
 131	1.2935e+01	5.1544	34.255097	0.000821	8.207255	2.780693	0.000329
 132	1.3034e+01	5.2105	34.545771	0.000730	7.295337	2.471727	0.000292
 133	1.3134e+01	5.2490	34.856630	0.000780	7.801958	2.643375	0.000312
 134	1.3233e+01	5.2763	35.135192	0.000699	6.991365	2.368739	0.000280
 135	1.3333e+01	5.3212	35.433940	0.000750	7.497986	2.540386	0.000300
 136	1.3432e+01	5.3694	35.752874	0.000800	8.004606	2.712034	0.000321
 137	1.3532e+01	5.4047	36.059696	0.000770	7.700634	2.609045	0.000308
 138	1.3632e+01	5.4448	36.297887	0.000598	5.978124	2.025443	0.000239
 139	1.3731e+01	5.4849	36.641044	0.000861	8.612551	2.918011	0.000345
 140	1.3831e+01	5.5154	36.899421	0.000648	6.484744	2.197091	0.000260
 141	1.3930e+01	5.5667	37.198169	0.000750	7.497986	2.540386	0.000300
 142	1.4030e+01	5.5972	37.456545	0.000648	6.484744	2.197091	0.000260
 143	1.4129e+01	5.6437	37.751256	0.000740	7.396662	2.506057	0.000296
 144	1.4229e+01	5.6742	38.054041	0.000760	7.599310	2.574716	0.000304
 145	1.4328e+01	5.7271	38.385087	0.000831	8.308579	2.815023	0.000333
 146	1.4428e+01	5.7704	38.651538	0.000669	6.687393	2.265750	0.000268
 147	1.4527e+01	5.7945	38.905877	0.000638	6.383420	2.162761	0.000256
 148	1.4627e+01	5.8394	39.212699	0.000770	7.700634	2.609045	0.000308
 149	1.4726e+01	5.8875	39.483188	0.000679	6.788717	2.300080	0.000272
 150	1.4825e+01	5.9100	39.798084	0.000790	7.903282	2.677704	0.000316
 151	1.4925e+01	5.9581	40.048387	0.000628	6.282096	2.128432	0.000252
 152	1.5024e+01	5.9998	40.375395	0.000821	8.207255	2.780693	0.000329
 153	1.5124e+01	6.0399	40.653957	0.000699	6.991365	2.368739	0.000280
 154	1.5223e+01	6.0736	40.940594	0.000719	7.194013	2.437398	0.000288
 155	1.5323e+01	6.1201	41.223193	0.000709	7.092689	2.403068	0.000284
 156	1.5422e+01	6.1603	41.493681	0.000679	6.788717	2.300080	0.000272
 157	1.5522e+01	6.2020	41.816652	0.000811	8.105930	2.746364	0.000325
 158	1.5621e+01	6.2501	42.119437	0.000760	7.599310	2.574716	0.000304
 159	1.5721e+01	6.2758	42.414148	0.000740	7.396662	2.506057	0.000296
 160	1.5820e+01	6.3191	42.700785	0.000719	7.194013	2.437398	0.000288
 161	1.5920e+01	6.3560	42.938976	0.000598	5.978124	2.025443	0.000239
 162	1.6020e+01	6.3977	43.286169	0.000871	8.713875	2.952341	0.000349
 163	1.6119e+01	6.4442	43.556657	0.000679	6.788717	2.300080	0.000272
 164	1.6218e+01	6.4699	43.802923	0.000618	6.180772	2.094102	0.000248
 165	1.6318e+01	6.5228	44.129931	0.000821	8.207255	2.780693	0.000329
 166	1.6418e+01	6.5581	44.396382	0.000669	6.687393	2.265750	0.000268
 167	1.6517e+01	6.5950	44.711278	0.000790	7.903282	2.677704	0.000316
 168	1.6616e+01	6.6415	45.001952	0.000730	7.295337	2.471727	0.000292
 169	1.6716e+01	6.6848	45.252254	0.000628	6.282096	2.128432	0.000252
 170	1.6816e+01	6.7121	45.559077	0.000770	7.700634	2.609045	0.000308
 171	1.6915e+01	6.7538	45.821491	0.000659	6.586069	2.231420	0.000264
 172	1.7015e+01	6.8019	46.120239	0.000750	7.497986	2.540386	0.000300
 173	1.7114e+01	6.8469	46.390727	0.000679	6.788717	2.300080	0.000272
 174	1.7213e+01	6.8757	46.673326	0.000709	7.092689	2.403068	0.000284
 175	1.7313e+01	6.9094	46.968037	0.000740	7.396662	2.506057	0.000296
 176	1.7413e+01	6.9576	47.262748	0.000740	7.396662	2.506057	0.000296
 177	1.7512e+01	6.9961	47.500939	0.000598	5.978124	2.025443	0.000239
 178	1.7611e+01	7.0410	47.815836	0.000790	7.903282	2.677704	0.000316
 179	1.7711e+01	7.0779	48.118621	0.000760	7.599310	2.574716	0.000304
 180	1.7811e+01	7.1100	48.393146	0.000689	6.890041	2.334409	0.000276
 181	1.7910e+01	7.1533	48.675746	0.000709	7.092689	2.403068	0.000284
 182	1.8009e+01	7.1934	48.934122	0.000648	6.484744	2.197091	0.000260
 183	1.8109e+01	7.2383	49.220759	0.000719	7.194013	2.437398	0.000288
 184	1.8209e+01	7.2816	49.523544	0.000760	7.599310	2.574716	0.000304
 185	1.8308e+01	7.3201	49.806144	0.000709	7.092689	2.403068	0.000284
 186	1.8407e+01	7.3570	50.056446	0.000628	6.282096	2.128432	0.000252
 187	1.8507e+01	7.3971	50.359231	0.000760	7.599310	2.574716	0.000304
 188	1.8607e+01	7.4292	50.625682	0.000669	6.687393	2.265750	0.000268
 189	1.8706e+01	7.4725	50.944616	0.000800	8.004606	2.712034	0.000321
 190	1.8805e+01	7.5255	51.227215	0.000709	7.092689	2.403068	0.000284
 191	1.8905e+01	7.5527	51.469444	0.000608	6.079448	2.059773	0.000243
 192	1.9005e+01	7.5912	51.748006	0.000699	6.991365	2.368739	0.000280
 193	1.9104e+01	7.6361	52.054828	0.000770	7.700634	2.609045	0.000308
 194	1.9203e+01	7.6746	52.325316	0.000679	6.788717	2.300080	0.000272
 195	1.9303e+01	7.7067	52.603879	0.000699	6.991365	2.368739	0.000280
 196	1.9402e+01	7.7484	52.882441	0.000699	6.991365	2.368739	0.000280
 197	1.9502e+01	7.7902	53.173115	0.000730	7.295337	2.471727	0.000292
 198	1.9602e+01	7.8367	53.443603	0.000679	6.788717	2.300080	0.000272
 199	1.9701e+01	7.8800	53.730240	0.000719	7.194013	2.437398	0.000288
 200	1.9800e+01	7.9041	53.992653	0.000659	6.586069	2.231420	0.000264
 201	1.9900e+01	7.9490	54.271216	0.000699	6.991365	2.368739	0.000280
 202	2.0000e+01	7.9923	54.553815	0.000709	7.092689	2.403068	0.000284
 203	2.0099e+01	8.0212	54.856600	0.000760	7.599310	2.574716	0.000304
 204	2.0198e+01	8.0725	55.119014	0.000659	6.586069	2.231420	0.000264
 205	2.0298e+01	8.1110	55.365280	0.000618	6.180772	2.094102	0.000248
 206	2.0398e+01	8.1495	55.639805	0.000689	6.890041	2.334409	0.000276
 207	2.0497e+01	8.1912	55.942590	0.000760	7.599310	2.574716	0.000304
 208	2.0596e+01	8.2329	56.192892	0.000628	6.282096	2.128432	0.000252
 209	2.0696e+01	8.2714	56.471455	0.000699	6.991365	2.368739	0.000280
 210	2.0796e+01	8.3067	56.750017	0.000699	6.991365	2.368739	0.000280
 211	2.0895e+01	8.3452	57.024542	0.000689	6.890041	2.334409	0.000276
 212	2.0994e+01	8.3950	57.323290	0.000750	7.497986	2.540386	0.000300
 213	2.1094e+01	8.4222	57.541296	0.000547	5.471503	1.853795	0.000219
 214	2.1194e+01	8.4703	57.836007	0.000740	7.396662	2.506057	0.000296
 215	2.1293e+01	8.5024	58.106495	0.000679	6.788717	2.300080	0.000272
 216	2.1392e+01	8.5554	58.433503	0.000821	8.207255	2.780693	0.000329
 217	2.1492e+01	8.5907	58.663619	0.000578	5.775475	1.956784	0.000231
 218	2.1591e+01	8.6244	58.946219	0.000709	7.092689	2.403068	0.000284
 219	2.1691e+01	8.6677	59.212670	0.000669	6.687393	2.265750	0.000268
 220	2.1791e+01	8.7206	59.462972	0.000628	6.282096	2.128432	0.000252
 221	2.1890e+01	8.7479	59.745572	0.000709	7.092689	2.403068	0.000284
 222	2.1989e+01	8.7880	60.048357	0.000760	7.599310	2.574716	0.000304
 223	2.2089e+01	8.8265	60.322882	0.000689	6.890041	2.334409	0.000276
 224	2.2189e+01	8.8682	60.585296	0.000659	6.586069	2.231420	0.000264
 225	2.2288e+01	8.9051	60.847710	0.000659	6.586069	2.231420	0.000264
 226	2.2387e+01	8.9532	61.138384	0.000730	7.295337	2.471727	0.000292
 227	2.2487e+01	8.9885	61.425020	0.000719	7.194013	2.437398	0.000288
 228	2.2587e+01	9.0366	61.695508	0.000679	6.788717	2.300080	0.000272
 229	2.2686e+01	9.0655	61.949848	0.000638	6.383420	2.162761	0.000256
 230	2.2785e+01	9.1040	62.224373	0.000689	6.890041	2.334409	0.000276
 231	2.2885e+01	9.1457	62.462564	0.000598	5.978124	2.025443	0.000239
 232	2.2985e+01	9.1890	62.777461	0.000790	7.903282	2.677704	0.000316
 233	2.3084e+01	9.2275	63.047949	0.000679	6.788717	2.300080	0.000272
 234	2.3183e+01	9.2741	63.310363	0.000659	6.586069	2.231420	0.000264
 235	2.3283e+01	9.3110	63.572776	0.000659	6.586069	2.231420	0.000264
 236	2.3383e+01	9.3527	63.831153	0.000648	6.484744	2.197091	0.000260
 237	2.3482e+01	9.3880	64.097604	0.000669	6.687393	2.265750	0.000268
 238	2.3581e+01	9.4297	64.392315	0.000740	7.396662	2.506057	0.000296
 239	2.3681e+01	9.4586	64.642617	0.000628	6.282096	2.128432	0.000252
 240	2.3780e+01	9.5003	64.905031	0.000659	6.586069	2.231420	0.000264
 241	2.3880e+01	9.5500	65.179556	0.000689	6.890041	2.334409	0.000276
 242	2.3980e+01	9.5901	65.425822	0.000618	6.180772	2.094102	0.000248
 243	2.4079e+01	9.6270	65.708421	0.000709	7.092689	2.403068	0.000284
 244	2.4178e+01	9.6639	65.946612	0.000598	5.978124	2.025443	0.000239
 245	2.4278e+01	9.7088	66.200952	0.000638	6.383420	2.162761	0.000256
 246	2.4378e+01	9.7441	66.451254	0.000628	6.282096	2.128432	0.000252
 247	2.4477e+01	9.7858	66.737891	0.000719	7.194013	2.437398	0.000288
 248	2.4576e+01	9.8259	66.959933	0.000557	5.572827	1.888125	0.000223
 249	2.4676e+01	9.8692	67.266756	0.000770	7.700634	2.609045	0.000308
 250	2.4776e+01	9.8997	67.513021	0.000618	6.180772	2.094102	0.000248
 251	2.4875e+01	9.9495	67.783509	0.000679	6.788717	2.300080	0.000272
 252	2.4974e+01	9.9767	68.049960	0.000669	6.687393	2.265750	0.000268
 253	2.5074e+01	10.0297	68.316411	0.000669	6.687393	2.265750	0.000268
 254	2.5174e+01	10.0650	68.554602	0.000598	5.978124	2.025443	0.000239
 255	2.5273e+01	10.1163	68.833164	0.000699	6.991365	2.368739	0.000280
 256	2.5372e+01	10.1420	69.055207	0.000557	5.572827	1.888125	0.000223
 257	2.5472e+01	10.1885	69.341843	0.000719	7.194013	2.437398	0.000288
 258	2.5572e+01	10.2286	69.608294	0.000669	6.687393	2.265750	0.000268
 259	2.5671e+01	10.2591	69.866671	0.000648	6.484744	2.197091	0.000260
 260	2.5770e+01	10.3056	70.121011	0.000638	6.383420	2.162761	0.000256
 261	2.5870e+01	10.3441	70.387462	0.000669	6.687393	2.265750	0.000268
 262	2.5970e+01	10.3874	70.625653	0.000598	5.978124	2.025443	0.000239
 263	2.6069e+01	10.4323	70.892104	0.000669	6.687393	2.265750	0.000268
 264	2.6169e+01	10.4612	71.146443	0.000638	6.383420	2.162761	0.000256
 265	2.6268e+01	10.5029	71.392708	0.000618	6.180772	2.094102	0.000248
 266	2.6367e+01	10.5366	71.651085	0.000648	6.484744	2.197091	0.000260
 267	2.6467e+01	10.5960	71.929647	0.000699	6.991365	2.368739	0.000280
 268	2.6567e+01	10.6200	72.147653	0.000547	5.471503	1.853795	0.000219
 269	2.6666e+01	10.6665	72.422178	0.000689	6.890041	2.334409	0.000276
 270	2.6765e+01	10.7002	72.652295	0.000578	5.775475	1.956784	0.000231
 271	2.6865e+01	10.7484	72.922783	0.000679	6.788717	2.300080	0.000272
 272	2.6965e+01	10.7869	73.173085	0.000628	6.282096	2.128432	0.000252
 273	2.7064e+01	10.8206	73.399165	0.000567	5.674151	1.922455	0.000227
 274	2.7163e+01	10.8623	73.673690	0.000689	6.890041	2.334409	0.000276
 275	2.7263e+01	10.9008	73.944178	0.000679	6.788717	2.300080	0.000272
 276	2.7363e+01	10.9521	74.146035	0.000507	5.066207	1.716477	0.000203
 277	2.7462e+01	10.9810	74.428634	0.000709	7.092689	2.403068	0.000284
 278	2.7561e+01	11.0243	74.674900	0.000618	6.180772	2.094102	0.000248
 279	2.7661e+01	11.0628	74.921165	0.000618	6.180772	2.094102	0.000248
 280	2.7761e+01	11.1029	75.179542	0.000648	6.484744	2.197091	0.000260
 281	2.7860e+01	11.1494	75.401584	0.000557	5.572827	1.888125	0.000223
 282	2.7959e+01	11.1783	75.659961	0.000648	6.484744	2.197091	0.000260
 283	2.8059e+01	11.2136	75.934486	0.000689	6.890041	2.334409	0.000276
 284	2.8159e+01	11.2553	76.160566	0.000567	5.674151	1.922455	0.000227
 285	2.8258e+01	11.3018	76.410868	0.000628	6.282096	2.128432	0.000252
 286	2.8358e+01	11.3451	76.669245	0.000648	6.484744	2.197091	0.000260
 287	2.8457e+01	11.3804	76.903399	0.000588	5.876800	1.991114	0.000235
 288	2.8556e+01	11.4221	77.145627	0.000608	6.079448	2.059773	0.000243
 289	2.8656e+01	11.4574	77.404004	0.000648	6.484744	2.197091	0.000260
 290	2.8756e+01	11.5007	77.654306	0.000628	6.282096	2.128432	0.000252
 291	2.8855e+01	11.5425	77.888460	0.000588	5.876800	1.991114	0.000235
 292	2.8954e+01	11.5761	78.126651	0.000598	5.978124	2.025443	0.000239
 293	2.9054e+01	11.6082	78.401176	0.000689	6.890041	2.334409	0.000276
 294	2.9154e+01	11.6596	78.635330	0.000588	5.876800	1.991114	0.000235
 295	2.9253e+01	11.7029	78.881595	0.000618	6.180772	2.094102	0.000248
 296	2.9352e+01	11.7366	79.160158	0.000699	6.991365	2.368739	0.000280
 297	2.9452e+01	11.7815	79.366051	0.000517	5.167531	1.750807	0.000207
 298	2.9552e+01	11.8168	79.612317	0.000618	6.180772	2.094102	0.000248
 299	2.9651e+01	11.8553	79.886842	0.000689	6.890041	2.334409	0.000276
 300	2.9750e+01	11.9002	80.104847	0.000547	5.471503	1.853795	0.000219
 301	2.9850e+01	11.9419	80.343038	0.000598	5.978124	2.025443	0.000239
 302	2.9950e+01	11.9756	80.573155	0.000578	5.775475	1.956784	0.000231
 303	3.0049e+01	12.0125	80.815383	0.000608	6.079448	2.059773	0.000243
 304	3.0148e+01	12.0638	81.057611	0.000608	6.079448	2.059773	0.000243
 305	3.0248e+01	12.0991	81.307914	0.000628	6.282096	2.128432	0.000252
 306	3.0348e+01	12.1360	81.546105	0.000598	5.978124	2.025443	0.000239
 307	3.0447e+01	12.1697	81.772184	0.000567	5.674151	1.922455	0.000227
 308	3.0547e+01	12.2210	82.014413	0.000608	6.079448	2.059773	0.000243
 309	3.0646e+01	12.2563	82.248566	0.000588	5.876800	1.991114	0.000235
 310	3.0745e+01	12.2948	82.450423	0.000507	5.066207	1.716477	0.000203
 311	3.0845e+01	12.3366	82.716874	0.000669	6.687393	2.265750	0.000268
 312	3.0945e+01	12.3799	82.971214	0.000638	6.383420	2.162761	0.000256
 313	3.1044e+01	12.4232	83.189219	0.000547	5.471503	1.853795	0.000219
 314	3.1143e+01	12.4537	83.423373	0.000588	5.876800	1.991114	0.000235
 315	3.1243e+01	12.4986	83.641378	0.000547	5.471503	1.853795	0.000219
 316	3.1343e+01	12.5339	83.932052	0.000730	7.295337	2.471727	0.000292
 317	3.1442e+01	12.5788	84.133909	0.000507	5.066207	1.716477	0.000203
 318	3.1541e+01	12.6141	84.376137	0.000608	6.079448	2.059773	0.000243
 319	3.1641e+01	12.6526	84.586068	0.000527	5.268855	1.785136	0.000211
 320	3.1741e+01	12.7023	84.844445	0.000648	6.484744	2.197091	0.000260
 321	3.1840e+01	12.7408	85.078599	0.000588	5.876800	1.991114	0.000235
 322	3.1939e+01	12.7777	85.292567	0.000537	5.370179	1.819466	0.000215
 323	3.2039e+01	12.8162	85.567092	0.000689	6.890041	2.334409	0.000276
 324	3.2139e+01	12.8611	85.801246	0.000588	5.876800	1.991114	0.000235
 325	3.2238e+01	12.9044	86.059623	0.000648	6.484744	2.197091	0.000260
 326	3.2337e+01	12.9301	86.273591	0.000537	5.370179	1.819466	0.000215
 327	3.2437e+01	12.9750	86.515819	0.000608	6.079448	2.059773	0.000243
 328	3.2536e+01	13.0135	86.782270	0.000669	6.687393	2.265750	0.000268
 329	3.2636e+01	13.0552	86.972015	0.000476	4.762234	1.613489	0.000191
 330	3.2736e+01	13.1002	87.246540	0.000689	6.890041	2.334409	0.000276
 331	3.2835e+01	13.1339	87.464546	0.000547	5.471503	1.853795	0.000219
 332	3.2934e+01	13.1772	87.710811	0.000618	6.180772	2.094102	0.000248
 333	3.3034e+01	13.2109	87.924779	0.000537	5.370179	1.819466	0.000215
 334	3.3133e+01	13.2462	88.171045	0.000618	6.180772	2.094102	0.000248
 335	3.3233e+01	13.2879	88.421347	0.000628	6.282096	2.128432	0.000252
 336	3.3333e+01	13.3296	88.639352	0.000547	5.471503	1.853795	0.000219
 337	3.3432e+01	13.3649	88.897729	0.000648	6.484744	2.197091	0.000260
 338	3.3532e+01	13.4082	89.099586	0.000507	5.066207	1.716477	0.000203
 339	3.3631e+01	13.4563	89.366037	0.000669	6.687393	2.265750	0.000268
 340	3.3730e+01	13.4852	89.539634	0.000436	4.356938	1.476170	0.000174
 341	3.3830e+01	13.5317	89.818196	0.000699	6.991365	2.368739	0.000280
 342	3.3929e+01	13.5766	90.060424	0.000608	6.079448	2.059773	0.000243
 343	3.4029e+01	13.6183	90.314764	0.000638	6.383420	2.162761	0.000256
 344	3.4129e+01	13.6440	90.528732	0.000537	5.370179	1.819466	0.000215
 345	3.4228e+01	13.6905	90.758849	0.000578	5.775475	1.956784	0.000231
 346	3.4328e+01	13.7290	90.972817	0.000537	5.370179	1.819466	0.000215
 347	3.4427e+01	13.7691	91.182748	0.000527	5.268855	1.785136	0.000211
 348	3.4526e+01	13.8124	91.461310	0.000699	6.991365	2.368739	0.000280
 349	3.4626e+01	13.8509	91.675278	0.000537	5.370179	1.819466	0.000215
 350	3.4725e+01	13.8991	91.925581	0.000628	6.282096	2.128432	0.000252
 351	3.4825e+01	13.9296	92.151660	0.000567	5.674151	1.922455	0.000227
 352	3.4925e+01	13.9681	92.393889	0.000608	6.079448	2.059773	0.000243
 353	3.5024e+01	14.0162	92.652265	0.000648	6.484744	2.197091	0.000260
 354	3.5123e+01	14.0515	92.825862	0.000436	4.356938	1.476170	0.000174
 355	3.5223e+01	14.0820	93.108462	0.000709	7.092689	2.403068	0.000284
 356	3.5322e+01	14.1189	93.338578	0.000578	5.775475	1.956784	0.000231
 357	3.5422e+01	14.1670	93.548509	0.000527	5.268855	1.785136	0.000211
 358	3.5522e+01	14.2119	93.798812	0.000628	6.282096	2.128432	0.000252
 359	3.5621e+01	14.2440	94.032966	0.000588	5.876800	1.991114	0.000235
 360	3.5721e+01	14.2905	94.283268	0.000628	6.282096	2.128432	0.000252
 361	3.5820e+01	14.3242	94.477051	0.000486	4.863558	1.647818	0.000195
 362	3.5919e+01	14.3579	94.731390	0.000638	6.383420	2.162761	0.000256
 363	3.6019e+01	14.4060	94.945358	0.000537	5.370179	1.819466	0.000215
 364	3.6118e+01	14.4493	95.187586	0.000608	6.079448	2.059773	0.000243
 365	3.6218e+01	14.4782	95.417703	0.000578	5.775475	1.956784	0.000231
 366	3.6318e+01	14.5279	95.692228	0.000689	6.890041	2.334409	0.000276
 367	3.6417e+01	14.5616	95.890048	0.000496	4.964882	1.682148	0.000199
 368	3.6517e+01	14.6130	96.116128	0.000567	5.674151	1.922455	0.000227
 369	3.6616e+01	14.6418	96.346244	0.000578	5.775475	1.956784	0.000231
 370	3.6715e+01	14.6868	96.564250	0.000547	5.471503	1.853795	0.000219
 371	3.6815e+01	14.7285	96.806478	0.000608	6.079448	2.059773	0.000243
 372	3.6914e+01	14.7766	97.020446	0.000537	5.370179	1.819466	0.000215
 373	3.7014e+01	14.8055	97.266711	0.000618	6.180772	2.094102	0.000248
 374	3.7114e+01	14.8456	97.500865	0.000588	5.876800	1.991114	0.000235
 375	3.7213e+01	14.8889	97.702722	0.000507	5.066207	1.716477	0.000203
 376	3.7313e+01	14.9274	97.940913	0.000598	5.978124	2.025443	0.000239
 377	3.7412e+01	14.9659	98.179104	0.000598	5.978124	2.025443	0.000239
 378	3.7511e+01	15.0108	98.380961	0.000507	5.066207	1.716477	0.000203
 379	3.7611e+01	15.0349	98.639337	0.000648	6.484744	2.197091	0.000260
 380	3.7711e+01	15.0766	98.837157	0.000496	4.964882	1.682148	0.000199
 381	3.7810e+01	15.1167	99.091497	0.000638	6.383420	2.162761	0.000256
 382	3.7910e+01	15.1680	99.361985	0.000679	6.788717	2.300080	0.000272
 383	3.8009e+01	15.2017	99.547693	0.000466	4.660910	1.579159	0.000187
 384	3.8108e+01	15.2274	99.773773	0.000567	5.674151	1.922455	0.000227
 385	3.8208e+01	15.2932	99.995815	0.000557	5.572827	1.888125	0.000223
 386	3.8307e+01	15.3124	100.246118	0.000628	6.282096	2.128432	0.000252
 387	3.8407e+01	15.3589	100.443937	0.000496	4.964882	1.682148	0.000199
 388	3.8507e+01	15.4054	100.690202	0.000618	6.180772	2.094102	0.000248
 389	3.8606e+01	15.4520	100.912245	0.000557	5.572827	1.888125	0.000223
 390	3.8706e+01	15.4760	101.170622	0.000648	6.484744	2.197091	0.000260
 391	3.8805e+01	15.5242	101.392664	0.000557	5.572827	1.888125	0.000223
 392	3.8904e+01	15.5595	101.618744	0.000567	5.674151	1.922455	0.000227
 393	3.9004e+01	15.5996	101.873083	0.000638	6.383420	2.162761	0.000256
 394	3.9103e+01	15.6477	102.095126	0.000557	5.572827	1.888125	0.000223
 395	3.9203e+01	15.6782	102.329280	0.000588	5.876800	1.991114	0.000235
 396	3.9303e+01	15.7247	102.531136	0.000507	5.066207	1.716477	0.000203
 397	3.9402e+01	15.7584	102.813736	0.000709	7.092689	2.403068	0.000284
 398	3.9502e+01	15.7953	103.015593	0.000507	5.066207	1.716477	0.000203
 399	3.9601e+01	15.8402	103.237635	0.000557	5.572827	1.888125	0.000223
 400	3.9700e+01	15.8803	103.419306	0.000456	4.559586	1.544830	0.000183
 401	3.9800e+01	15.9236	103.681720	0.000659	6.586069	2.231420	0.000264
 402	3.9900e+01	15.9605	103.903762	0.000557	5.572827	1.888125	0.000223
 403	3.9999e+01	16.0070	104.150028	0.000618	6.180772	2.094102	0.000248
 404	4.0099e+01	16.0487	104.372070	0.000557	5.572827	1.888125	0.000223
 405	4.0198e+01	16.0792	104.573927	0.000507	5.066207	1.716477	0.000203
 406	4.0297e+01	16.1129	104.824229	0.000628	6.282096	2.128432	0.000252
 407	4.0397e+01	16.1626	105.042235	0.000547	5.471503	1.853795	0.000219
 408	4.0496e+01	16.2076	105.252166	0.000527	5.268855	1.785136	0.000211
 409	4.0596e+01	16.2348	105.486320	0.000588	5.876800	1.991114	0.000235
 410	4.0696e+01	16.2749	105.696251	0.000527	5.268855	1.785136	0.000211
 411	4.0795e+01	16.3183	105.885996	0.000476	4.762234	1.613489	0.000191
 412	4.0895e+01	16.3552	106.152447	0.000669	6.687393	2.265750	0.000268
 413	4.0994e+01	16.4001	106.326044	0.000436	4.356938	1.476170	0.000174
 414	4.1093e+01	16.4402	106.592495	0.000669	6.687393	2.265750	0.000268
 415	4.1193e+01	16.4787	106.790315	0.000496	4.964882	1.682148	0.000199
 416	4.1292e+01	16.5220	107.044654	0.000638	6.383420	2.162761	0.000256
 417	4.1392e+01	16.5605	107.258622	0.000537	5.370179	1.819466	0.000215
 418	4.1492e+01	16.6054	107.448368	0.000476	4.762234	1.613489	0.000191
 419	4.1591e+01	16.6407	107.678484	0.000578	5.775475	1.956784	0.000231
 420	4.1691e+01	16.6792	107.880341	0.000507	5.066207	1.716477	0.000203
 421	4.1790e+01	16.7129	108.102384	0.000557	5.572827	1.888125	0.000223
 422	4.1889e+01	16.7530	108.348649	0.000618	6.180772	2.094102	0.000248
 423	4.1989e+01	16.7963	108.550506	0.000507	5.066207	1.716477	0.000203
 424	4.2089e+01	16.8412	108.788697	0.000598	5.978124	2.025443	0.000239
 425	4.2188e+01	16.8813	108.982479	0.000486	4.863558	1.647818	0.000195
 426	4.2288e+01	16.9231	109.236819	0.000638	6.383420	2.162761	0.000256
 427	4.2387e+01	16.9535	109.438676	0.000507	5.066207	1.716477	0.000203
 428	4.2486e+01	17.0049	109.664755	0.000567	5.674151	1.922455	0.000227
 429	4.2586e+01	17.0434	109.882761	0.000547	5.471503	1.853795	0.000219
 430	4.2685e+01	17.0755	110.100766	0.000547	5.471503	1.853795	0.000219
 431	4.2785e+01	17.1172	110.310697	0.000527	5.268855	1.785136	0.000211
 432	4.2885e+01	17.1605	110.500442	0.000476	4.762234	1.613489	0.000191
 433	4.2984e+01	17.2022	110.750745	0.000628	6.282096	2.128432	0.000252
 434	4.3084e+01	17.2375	110.964713	0.000537	5.370179	1.819466	0.000215
 435	4.3183e+01	17.2808	111.174644	0.000527	5.268855	1.785136	0.000211
 436	4.3282e+01	17.3049	111.392649	0.000547	5.471503	1.853795	0.000219
 437	4.3382e+01	17.3546	111.578358	0.000466	4.660910	1.579159	0.000187
 438	4.3481e+01	17.3931	111.828660	0.000628	6.282096	2.128432	0.000252
 439	4.3581e+01	17.4348	112.050702	0.000557	5.572827	1.888125	0.000223
 440	4.3681e+01	17.4717	112.244485	0.000486	4.863558	1.647818	0.000195
 441	4.3780e+01	17.5311	112.458453	0.000537	5.370179	1.819466	0.000215
 442	4.3880e+01	17.5567	112.716830	0.000648	6.484744	2.197091	0.000260
 443	4.3979e+01	17.5984	112.890427	0.000436	4.356938	1.476170	0.000174
 444	4.4078e+01	17.6385	113.096321	0.000517	5.167531	1.750807	0.000207
 445	4.4178e+01	17.6658	113.322400	0.000567	5.674151	1.922455	0.000227
 446	4.4278e+01	17.7107	113.552517	0.000578	5.775475	1.956784	0.000231
 447	4.4377e+01	17.7556	113.746299	0.000486	4.863558	1.647818	0.000195
 448	4.4477e+01	17.7974	113.948156	0.000507	5.066207	1.716477	0.000203
 449	4.4576e+01	17.8343	114.206533	0.000648	6.484744	2.197091	0.000260
 450	4.4675e+01	17.8760	114.392241	0.000466	4.660910	1.579159	0.000187
 451	4.4775e+01	17.9064	114.602172	0.000527	5.268855	1.785136	0.000211
 452	4.4874e+01	17.9482	114.808066	0.000517	5.167531	1.750807	0.000207
 453	4.4974e+01	17.9995	115.009923	0.000507	5.066207	1.716477	0.000203
 454	4.5074e+01	18.0348	115.260225	0.000628	6.282096	2.128432	0.000252
 455	4.5173e+01	18.0813	115.454008	0.000486	4.863558	1.647818	0.000195
 456	4.5273e+01	18.1102	115.676050	0.000557	5.572827	1.888125	0.000223
 457	4.5372e+01	18.1391	115.849647	0.000436	4.356938	1.476170	0.000174
 458	4.5471e+01	18.1856	116.071690	0.000557	5.572827	1.888125	0.000223
 459	4.5571e+01	18.2401	116.289695	0.000547	5.471503	1.853795	0.000219
 460	4.5670e+01	18.2786	116.544034	0.000638	6.383420	2.162761	0.000256
 461	4.5770e+01	18.3091	116.766077	0.000557	5.572827	1.888125	0.000223
 462	4.5870e+01	18.3492	116.951785	0.000466	4.660910	1.579159	0.000187
 463	4.5969e+01	18.3893	117.149605	0.000496	4.964882	1.682148	0.000199
 464	4.6069e+01	18.4455	117.375684	0.000567	5.674151	1.922455	0.000227
 465	4.6168e+01	18.4711	117.561393	0.000466	4.660910	1.579159	0.000187
 466	4.6267e+01	18.5193	117.791509	0.000578	5.775475	1.956784	0.000231
 467	4.6367e+01	18.5465	117.993366	0.000507	5.066207	1.716477	0.000203
 468	4.6467e+01	18.5898	118.247706	0.000638	6.383420	2.162761	0.000256
 469	4.6566e+01	18.6444	118.409191	0.000405	4.052965	1.373182	0.000162
 470	4.6666e+01	18.6733	118.623159	0.000537	5.370179	1.819466	0.000215
 471	4.6765e+01	18.7150	118.853276	0.000578	5.775475	1.956784	0.000231
 472	4.6864e+01	18.7583	119.083393	0.000578	5.775475	1.956784	0.000231
 473	4.6964e+01	18.7920	119.232767	0.000375	3.748993	1.270193	0.000150
 474	4.7063e+01	18.8401	119.454809	0.000557	5.572827	1.888125	0.000223
 475	4.7163e+01	18.8706	119.705112	0.000628	6.282096	2.128432	0.000252
 476	4.7263e+01	18.9059	119.870634	0.000415	4.154289	1.407511	0.000166
 477	4.7362e+01	18.9492	120.056343	0.000466	4.660910	1.579159	0.000187
 478	4.7462e+01	18.9829	120.294534	0.000598	5.978124	2.025443	0.000239
 479	4.7561e+01	19.0326	120.532725	0.000598	5.978124	2.025443	0.000239
 480	4.7660e+01	19.0679	120.706321	0.000436	4.356938	1.476170	0.000174
 481	4.7760e+01	19.1112	120.896067	0.000476	4.762234	1.613489	0.000191
 482	4.7859e+01	19.1465	121.110035	0.000537	5.370179	1.819466	0.000215
 483	4.7959e+01	19.1946	121.344189	0.000588	5.876800	1.991114	0.000235
 484	4.8059e+01	19.2315	121.554120	0.000527	5.268855	1.785136	0.000211
 485	4.8158e+01	19.2684	121.723680	0.000426	4.255613	1.441841	0.000170
 486	4.8258e+01	19.3021	121.933611	0.000527	5.268855	1.785136	0.000211
 487	4.8357e+01	19.3519	122.159690	0.000567	5.674151	1.922455	0.000227
 488	4.8456e+01	19.3920	122.369621	0.000527	5.268855	1.785136	0.000211
 489	4.8556e+01	19.4305	122.571478	0.000507	5.066207	1.716477	0.000203
 490	4.8656e+01	19.4690	122.753149	0.000456	4.559586	1.544830	0.000183
 491	4.8755e+01	19.5043	122.999415	0.000618	6.180772	2.094102	0.000248
 492	4.8855e+01	19.5588	123.189160	0.000476	4.762234	1.613489	0.000191
 493	4.8954e+01	19.5909	123.431388	0.000608	6.079448	2.059773	0.000243
 494	4.9053e+01	19.6278	123.637282	0.000517	5.167531	1.750807	0.000207
 495	4.9153e+01	19.6695	123.843176	0.000517	5.167531	1.750807	0.000207
 496	4.9252e+01	19.7128	124.057144	0.000537	5.370179	1.819466	0.000215
 497	4.9352e+01	19.7433	124.263038	0.000517	5.167531	1.750807	0.000207
 498	4.9452e+01	19.7850	124.472969	0.000527	5.268855	1.785136	0.000211
 499	4.9551e+01	19.8283	124.650603	0.000446	4.458262	1.510500	0.000179
 500	4.9651e+01	19.8604	124.900905	0.000628	6.282096	2.128432	0.000252
 501	4.9750e+01	19.9037	125.147171	0.000618	6.180772	2.094102	0.000248
 502	4.9849e+01	19.9438	125.288470	0.000355	3.546345	1.201534	0.000142
 503	4.9949e+01	19.9887	125.514550	0.000567	5.674151	1.922455	0.000227
 504	5.0048e+01	19.9454	125.405547	0.000274	2.735752	0.926898	-0.000110
 505	5.0148e+01	19.9053	125.284433	0.000304	3.039724	1.029886	-0.000122
 506	5.0248e+01	19.8556	125.118911	0.000415	4.154289	1.407511	-0.000166
 507	5.0347e+01	19.8299	125.017982	0.000253	2.533103	0.858239	-0.000101
 508	5.0447e+01	19.7770	124.836311	0.000456	4.559586	1.544830	-0.000183
 509	5.0546e+01	19.7465	124.731346	0.000263	2.634427	0.892568	-0.000105
 510	5.0645e+01	19.7112	124.598120	0.000334	3.343696	1.132875	-0.000134
 511	5.0745e+01	19.6615	124.452783	0.000365	3.647669	1.235864	-0.000146
 512	5.0844e+01	19.6294	124.295335	0.000395	3.951641	1.338852	-0.000158
 513	5.0944e+01	19.5877	124.133850	0.000405	4.052965	1.373182	-0.000162
 514	5.1044e+01	19.5444	123.992550	0.000355	3.546345	1.201534	-0.000142
 515	5.1143e+01	19.5075	123.883547	0.000274	2.735752	0.926898	-0.000110
 516	5.1242e+01	19.4626	123.701876	0.000456	4.559586	1.544830	-0.000183
 517	5.1342e+01	19.4385	123.625171	0.000193	1.925158	0.652261	-0.000077
 518	5.1441e+01	19.3952	123.403128	0.000557	5.572827	1.888125	-0.000223
 519	5.1541e+01	19.3470	123.265865	0.000345	3.445020	1.167205	-0.000138
 520	5.1641e+01	19.3053	123.148789	0.000294	2.938400	0.995557	-0.000118
 521	5.1740e+01	19.2684	122.959043	0.000476	4.762234	1.613489	-0.000191
 522	5.1840e+01	19.2331	122.813706	0.000365	3.647669	1.235864	-0.000146
 523	5.1939e+01	19.1802	122.668369	0.000365	3.647669	1.235864	-0.000146
 524	5.2038e+01	19.1561	122.494773	0.000436	4.356938	1.476170	-0.000174
 525	5.2138e+01	19.1160	122.353473	0.000355	3.546345	1.201534	-0.000142
 526	5.2237e+01	19.0743	122.204099	0.000375	3.748993	1.270193	-0.000150
 527	5.2337e+01	19.0198	122.034539	0.000426	4.255613	1.441841	-0.000170
 528	5.2437e+01	19.0005	121.885165	0.000375	3.748993	1.270193	-0.000150
 529	5.2536e+01	18.9492	121.719643	0.000415	4.154289	1.407511	-0.000166
 530	5.2636e+01	18.9107	121.574306	0.000365	3.647669	1.235864	-0.000146
 531	5.2735e+01	18.8658	121.392635	0.000456	4.559586	1.544830	-0.000183
 532	5.2834e+01	18.8289	121.231149	0.000405	4.052965	1.373182	-0.000162
 533	5.2934e+01	18.7840	121.085812	0.000365	3.647669	1.235864	-0.000146
 534	5.3033e+01	18.7487	120.904141	0.000456	4.559586	1.544830	-0.000183
 535	5.3133e+01	18.7054	120.746693	0.000395	3.951641	1.338852	-0.000158
 536	5.3233e+01	18.6669	120.605393	0.000355	3.546345	1.201534	-0.000142
 537	5.3332e+01	18.6332	120.443908	0.000405	4.052965	1.373182	-0.000162
 538	5.3431e+01	18.5898	120.221865	0.000557	5.572827	1.888125	-0.000223
 539	5.3531e+01	18.5594	120.108825	0.000284	2.837076	0.961227	-0.000114
 540	5.3630e+01	18.5177	119.927154	0.000456	4.559586	1.544830	-0.000183
 541	5.3730e+01	18.4727	119.761632	0.000415	4.154289	1.407511	-0.000166
 542	5.3830e+01	18.4310	119.608221	0.000385	3.850317	1.304523	-0.000154
 543	5.3929e+01	18.3909	119.418475	0.000476	4.762234	1.613489	-0.000191
 544	5.4029e+01	18.3492	119.285250	0.000334	3.343696	1.132875	-0.000134
 545	5.4128e+01	18.3123	119.135876	0.000375	3.748993	1.270193	-0.000150
 546	5.4227e+01	18.2674	118.942093	0.000486	4.863558	1.647818	-0.000195
 547	5.4327e+01	18.2337	118.764459	0.000446	4.458262	1.510500	-0.000179
 548	5.4426e+01	18.1888	118.582788	0.000456	4.559586	1.544830	-0.000183
 549	5.4526e+01	18.1455	118.405154	0.000446	4.458262	1.510500	-0.000179
 550	5.4626e+01	18.1070	118.284040	0.000304	3.039724	1.029886	-0.000122
 551	5.4725e+01	18.0717	118.106406	0.000446	4.458262	1.510500	-0.000179
 552	5.4825e+01	18.0268	117.952995	0.000385	3.850317	1.304523	-0.000154
 553	5.4924e+01	17.9963	117.771324	0.000456	4.559586	1.544830	-0.000183
 554	5.5023e+01	17.9578	117.589653	0.000456	4.559586	1.544830	-0.000183
 555	5.5123e+01	17.9113	117.416056	0.000436	4.356938	1.476170	-0.000174
 556	5.5222e+01	17.8760	117.250533	0.000415	4.154289	1.407511	-0.000166
 557	5.5322e+01	17.8439	117.097122	0.000385	3.850317	1.304523	-0.000154
 558	5.5422e+01	17.7942	116.955822	0.000355	3.546345	1.201534	-0.000142
 559	5.5521e+01	17.7589	116.774151	0.000456	4.559586	1.544830	-0.000183
 560	5.5620e+01	17.7204	116.616703	0.000395	3.951641	1.338852	-0.000158
 561	5.5720e+01	17.6706	116.426958	0.000476	4.762234	1.613489	-0.000191
 562	5.5819e+01	17.6401	116.253361	0.000436	4.356938	1.476170	-0.000174
 563	5.5919e+01	17.6032	116.071690	0.000456	4.559586	1.544830	-0.000183
 564	5.6019e+01	17.5551	115.942501	0.000324	3.242372	1.098545	-0.000130
 565	5.6118e+01	17.5166	115.781016	0.000405	4.052965	1.373182	-0.000162
 566	5.6218e+01	17.4765	115.587233	0.000486	4.863558	1.647818	-0.000195
 567	5.6317e+01	17.4316	115.397488	0.000476	4.762234	1.613489	-0.000191
 568	5.6416e+01	17.3995	115.240040	0.000395	3.951641	1.338852	-0.000158
 569	5.6516e+01	17.3498	115.050294	0.000476	4.762234	1.613489	-0.000191
 570	5.6615e+01	17.3161	114.917069	0.000334	3.343696	1.132875	-0.000134
 571	5.6715e+01	17.2696	114.699063	0.000547	5.471503	1.853795	-0.000219
 572	5.6815e+01	17.2343	114.525467	0.000436	4.356938	1.476170	-0.000174
 573	5.6914e+01	17.1990	114.335721	0.000476	4.762234	1.613489	-0.000191
 574	5.7014e+01	17.1637	114.190384	0.000365	3.647669	1.235864	-0.000146
 575	5.7113e+01	17.1220	114.012750	0.000446	4.458262	1.510500	-0.000179
 576	5.7212e+01	17.0674	113.863376	0.000375	3.748993	1.270193	-0.000150
 577	5.7312e+01	17.0370	113.617111	0.000618	6.180772	2.094102	-0.000248
 578	5.7411e+01	16.9985	113.455626	0.000405	4.052965	1.373182	-0.000162
 579	5.7511e+01	16.9616	113.326437	0.000324	3.242372	1.098545	-0.000130
 580	5.7611e+01	16.9231	113.120543	0.000517	5.167531	1.750807	-0.000207
 581	5.7710e+01	16.8733	112.922724	0.000496	4.964882	1.682148	-0.000199
 582	5.7809e+01	16.8332	112.728941	0.000486	4.863558	1.647818	-0.000195
 583	5.7909e+01	16.7963	112.575530	0.000385	3.850317	1.304523	-0.000154
 584	5.8008e+01	16.7594	112.385785	0.000476	4.762234	1.613489	-0.000191
 585	5.8108e+01	16.7129	112.192002	0.000486	4.863558	1.647818	-0.000195
 586	5.8208e+01	16.6824	112.054740	0.000345	3.445020	1.167205	-0.000138
 587	5.8307e+01	16.6359	111.873068	0.000456	4.559586	1.544830	-0.000183
 588	5.8407e+01	16.5926	111.675249	0.000496	4.964882	1.682148	-0.000199
 589	5.8506e+01	16.5621	111.485503	0.000476	4.762234	1.613489	-0.000191
 590	5.8605e+01	16.5204	111.259424	0.000567	5.674151	1.922455	-0.000227
 591	5.8705e+01	16.4771	111.118124	0.000355	3.546345	1.201534	-0.000142
 592	5.8804e+01	16.4450	110.924342	0.000486	4.863558	1.647818	-0.000195
 593	5.8904e+01	16.3953	110.750745	0.000436	4.356938	1.476170	-0.000174
 594	5.9004e+01	16.3568	110.532739	0.000547	5.471503	1.853795	-0.000219
 595	5.9103e+01	16.3150	110.383365	0.000375	3.748993	1.270193	-0.000150
 596	5.9203e+01	16.2782	110.205731	0.000446	4.458262	1.510500	-0.000179
 597	5.9302e+01	16.2332	110.028097	0.000446	4.458262	1.510500	-0.000179
 598	5.9401e+01	16.1931	109.806055	0.000557	5.572827	1.888125	-0.000223
 599	5.9501e+01	16.1578	109.588050	0.000547	5.471503	1.853795	-0.000219
 600	5.9600e+01	16.1225	109.442713	0.000365	3.647669	1.235864	-0.000146
 601	5.9700e+01	16.0744	109.257004	0.000466	4.660910	1.579159	-0.000187
 602	5.9800e+01	16.0439	109.055148	0.000507	5.066207	1.716477	-0.000203
 603	5.9899e+01	15.9958	108.913848	0.000355	3.546345	1.201534	-0.000142
 604	5.9998e+01	15.9701	108.728140	0.000466	4.660910	1.579159	-0.000187
 605	6.0098e+01	15.9220	108.522246	0.000517	5.167531	1.750807	-0.000207
 606	6.0197e+01	15.8803	108.348649	0.000436	4.356938	1.476170	-0.000174
 607	6.0297e+01	15.8338	108.110458	0.000598	5.978124	2.025443	-0.000239
 608	6.0397e+01	15.7921	107.953010	0.000395	3.951641	1.338852	-0.000158
 609	6.0496e+01	15.7568	107.751153	0.000507	5.066207	1.716477	-0.000203
 610	6.0596e+01	15.7295	107.561407	0.000476	4.762234	1.613489	-0.000191
 611	6.0695e+01	15.6766	107.339365	0.000557	5.572827	1.888125	-0.000223
 612	6.0794e+01	15.6316	107.161731	0.000446	4.458262	1.510500	-0.000179
 613	6.0894e+01	15.6012	107.000246	0.000405	4.052965	1.373182	-0.000162
 614	6.0993e+01	15.5739	106.782240	0.000547	5.471503	1.853795	-0.000219
 615	6.1093e+01	15.5274	106.616718	0.000415	4.154289	1.407511	-0.000166
 616	6.1193e+01	15.4905	106.394675	0.000557	5.572827	1.888125	-0.000223
 617	6.1292e+01	15.4439	106.221078	0.000436	4.356938	1.476170	-0.000174
 618	6.1392e+01	15.4103	106.035370	0.000466	4.660910	1.579159	-0.000187
 619	6.1491e+01	15.3669	105.817365	0.000547	5.471503	1.853795	-0.000219
 620	6.1590e+01	15.3188	105.619545	0.000496	4.964882	1.682148	-0.000199
 621	6.1690e+01	15.2851	105.458060	0.000405	4.052965	1.373182	-0.000162
 622	6.1789e+01	15.2466	105.264277	0.000486	4.863558	1.647818	-0.000195
 623	6.1889e+01	15.2081	105.042235	0.000557	5.572827	1.888125	-0.000223
 624	6.1989e+01	15.1712	104.880749	0.000405	4.052965	1.373182	-0.000162
 625	6.2088e+01	15.1247	104.662744	0.000547	5.471503	1.853795	-0.000219
 626	6.2188e+01	15.0750	104.464924	0.000496	4.964882	1.682148	-0.000199
 627	6.2287e+01	15.0429	104.311513	0.000385	3.850317	1.304523	-0.000154
 628	6.2386e+01	15.0076	104.085434	0.000567	5.674151	1.922455	-0.000227
 629	6.2486e+01	14.9659	103.899725	0.000466	4.660910	1.579159	-0.000187
 630	6.2586e+01	14.9306	103.693831	0.000517	5.167531	1.750807	-0.000207
 631	6.2685e+01	14.8873	103.496012	0.000496	4.964882	1.682148	-0.000199
 632	6.2785e+01	14.8440	103.310304	0.000466	4.660910	1.579159	-0.000187
 633	6.2884e+01	14.7974	103.120558	0.000476	4.762234	1.613489	-0.000191
 634	6.2983e+01	14.7654	102.898516	0.000557	5.572827	1.888125	-0.000223
 635	6.3083e+01	14.7333	102.716845	0.000456	4.559586	1.544830	-0.000183
 636	6.3182e+01	14.6932	102.539211	0.000446	4.458262	1.510500	-0.000179
 637	6.3282e+01	14.6466	102.305057	0.000588	5.876800	1.991114	-0.000235
 638	6.3382e+01	14.6114	102.123386	0.000456	4.559586	1.544830	-0.000183
 639	6.3481e+01	14.5664	101.941715	0.000456	4.559586	1.544830	-0.000183
 640	6.3581e+01	14.5311	101.715635	0.000567	5.674151	1.922455	-0.000227
 641	6.3680e+01	14.4830	101.485518	0.000578	5.775475	1.956784	-0.000231
 642	6.3779e+01	14.4381	101.319996	0.000415	4.154289	1.407511	-0.000166
 643	6.3879e+01	14.4012	101.069693	0.000628	6.282096	2.128432	-0.000252
 644	6.3978e+01	14.3691	100.924356	0.000365	3.647669	1.235864	-0.000146
 645	6.4078e+01	14.3242	100.718462	0.000517	5.167531	1.750807	-0.000207
 646	6.4177e+01	14.2921	100.488346	0.000578	5.775475	1.956784	-0.000231
 647	6.4277e+01	14.2504	100.286489	0.000507	5.066207	1.716477	-0.000203
 648	6.4376e+01	14.2103	100.068484	0.000547	5.471503	1.853795	-0.000219
 649	6.4476e+01	14.1718	99.874701	0.000486	4.863558	1.647818	-0.000195
 650	6.4576e+01	14.1269	99.672844	0.000507	5.066207	1.716477	-0.000203
 651	6.4675e+01	14.0852	99.450802	0.000557	5.572827	1.888125	-0.000223
 652	6.4775e+01	14.0547	99.252982	0.000496	4.964882	1.682148	-0.000199
 653	6.4874e+01	14.0226	99.067274	0.000466	4.660910	1.579159	-0.000187
 654	6.4974e+01	13.9632	98.865417	0.000507	5.066207	1.716477	-0.000203
 655	6.5073e+01	13.9279	98.679709	0.000466	4.660910	1.579159	-0.000187
 656	6.5172e+01	13.8830	98.457666	0.000557	5.572827	1.888125	-0.000223
 657	6.5272e+01	13.8477	98.239661	0.000547	5.471503	1.853795	-0.000219
 658	6.5371e+01	13.8092	98.057990	0.000456	4.559586	1.544830	-0.000183
 659	6.5471e+01	13.7659	97.835947	0.000557	5.572827	1.888125	-0.000223
 660	6.5570e+01	13.7451	97.654276	0.000456	4.559586	1.544830	-0.000183
 661	6.5670e+01	13.6873	97.428197	0.000567	5.674151	1.922455	-0.000227
 662	6.5769e+01	13.6472	97.242489	0.000466	4.660910	1.579159	-0.000187
 663	6.5869e+01	13.6167	97.012372	0.000578	5.775475	1.956784	-0.000231
 664	6.5969e+01	13.5782	96.842812	0.000426	4.255613	1.441841	-0.000170
 665	6.6068e+01	13.5317	96.620770	0.000557	5.572827	1.888125	-0.000223
 666	6.6168e+01	13.4900	96.439099	0.000456	4.559586	1.544830	-0.000183
 667	6.6267e+01	13.4499	96.249353	0.000476	4.762234	1.613489	-0.000191
 668	6.6367e+01	13.4114	96.047496	0.000507	5.066207	1.716477	-0.000203
 669	6.6466e+01	13.3777	95.837565	0.000527	5.268855	1.785136	-0.000211
 670	6.6566e+01	13.3232	95.619560	0.000547	5.471503	1.853795	-0.000219
 671	6.6665e+01	13.2863	95.417703	0.000507	5.066207	1.716477	-0.000203
 672	6.6764e+01	13.2542	95.231995	0.000466	4.660910	1.579159	-0.000187
 673	6.6864e+01	13.2093	94.993804	0.000598	5.978124	2.025443	-0.000239
 674	6.6963e+01	13.1675	94.808096	0.000466	4.660910	1.579159	-0.000187
 675	6.7063e+01	13.1274	94.577979	0.000578	5.775475	1.956784	-0.000231
 676	6.7162e+01	13.0857	94.392271	0.000466	4.660910	1.579159	-0.000187
 677	6.7262e+01	13.0504	94.182340	0.000527	5.268855	1.785136	-0.000211
 678	6.7362e+01	13.0087	93.992594	0.000476	4.762234	1.613489	-0.000191
 679	6.7461e+01	12.9782	93.758440	0.000588	5.876800	1.991114	-0.000235
 680	6.7561e+01	12.9365	93.600992	0.000395	3.951641	1.338852	-0.000158
 681	6.7660e+01	12.8916	93.346653	0.000638	6.383420	2.162761	-0.000256
 682	6.7760e+01	12.8627	93.201316	0.000365	3.647669	1.235864	-0.000146
 683	6.7859e+01	12.8178	92.955050	0.000618	6.180772	2.094102	-0.000248
 684	6.7959e+01	12.7793	92.757231	0.000496	4.964882	1.682148	-0.000199
 685	6.8058e+01	12.7344	92.571522	0.000466	4.660910	1.579159	-0.000187
 686	6.8157e+01	12.6927	92.369666	0.000507	5.066207	1.716477	-0.000203
 687	6.8257e+01	12.6542	92.151660	0.000547	5.471503	1.853795	-0.000219
 688	6.8356e+01	12.6141	91.953841	0.000496	4.964882	1.682148	-0.000199
 689	6.8456e+01	12.5724	91.715650	0.000598	5.978124	2.025443	-0.000239
 690	6.8555e+01	12.5355	91.550127	0.000415	4.154289	1.407511	-0.000166
 691	6.8655e+01	12.4954	91.283676	0.000669	6.687393	2.265750	-0.000268
 692	6.8754e+01	12.4569	91.057597	0.000567	5.674151	1.922455	-0.000227
 693	6.8854e+01	12.4103	90.916297	0.000355	3.546345	1.201534	-0.000142
 694	6.8954e+01	12.3863	90.690217	0.000567	5.674151	1.922455	-0.000227
 695	6.9053e+01	12.3398	90.460100	0.000578	5.775475	1.956784	-0.000231
 696	6.9153e+01	12.2980	90.290541	0.000426	4.255613	1.441841	-0.000170
 697	6.9252e+01	12.2692	90.072535	0.000547	5.471503	1.853795	-0.000219
 698	6.9352e+01	12.2194	89.838382	0.000588	5.876800	1.991114	-0.000235
 699	6.9451e+01	12.1713	89.608265	0.000578	5.775475	1.956784	-0.000231
 700	6.9550e+01	12.1360	89.418519	0.000476	4.762234	1.613489	-0.000191
 701	6.9650e+01	12.1023	89.200514	0.000547	5.471503	1.853795	-0.000219
 702	6.9749e+01	12.0606	88.990583	0.000527	5.268855	1.785136	-0.000211
 703	6.9849e+01	12.0301	88.792763	0.000496	4.964882	1.682148	-0.000199
 704	6.9948e+01	11.9836	88.570721	0.000557	5.572827	1.888125	-0.000223
 705	7.0048e+01	11.9403	88.332530	0.000598	5.978124	2.025443	-0.000239
 706	7.0147e+01	11.8906	88.130673	0.000507	5.066207	1.716477	-0.000203
 707	7.0247e+01	11.8489	87.944965	0.000466	4.660910	1.579159	-0.000187
 708	7.0347e+01	11.8216	87.726960	0.000547	5.471503	1.853795	-0.000219
 709	7.0446e+01	11.7670	87.521066	0.000517	5.167531	1.750807	-0.000207
 710	7.0546e+01	11.7398	87.303060	0.000547	5.471503	1.853795	-0.000219
 711	7.0645e+01	11.7013	87.109278	0.000486	4.863558	1.647818	-0.000195
 712	7.0745e+01	11.6596	86.846864	0.000659	6.586069	2.231420	-0.000264
 713	7.0844e+01	11.6162	86.685379	0.000405	4.052965	1.373182	-0.000162
 714	7.0944e+01	11.5810	86.427002	0.000648	6.484744	2.197091	-0.000260
 715	7.1043e+01	11.5473	86.241294	0.000466	4.660910	1.579159	-0.000187
 716	7.1142e+01	11.4991	86.023288	0.000547	5.471503	1.853795	-0.000219
 717	7.1242e+01	11.4590	85.809320	0.000537	5.370179	1.819466	-0.000215
 718	7.1341e+01	11.4205	85.619575	0.000476	4.762234	1.613489	-0.000191
 719	7.1441e+01	11.3820	85.381384	0.000598	5.978124	2.025443	-0.000239
 720	7.1540e+01	11.3483	85.118970	0.000659	6.586069	2.231420	-0.000264
 721	7.1640e+01	11.2922	84.925187	0.000486	4.863558	1.647818	-0.000195
 722	7.1740e+01	11.2633	84.743516	0.000456	4.559586	1.544830	-0.000183
 723	7.1839e+01	11.2200	84.501288	0.000608	6.079448	2.059773	-0.000243
 724	7.1939e+01	11.1815	84.331728	0.000426	4.255613	1.441841	-0.000170
 725	7.2038e+01	11.1414	84.065277	0.000669	6.687393	2.265750	-0.000268
 726	7.2138e+01	11.1013	83.871495	0.000486	4.863558	1.647818	-0.000195
 727	7.2237e+01	11.0628	83.645415	0.000567	5.674151	1.922455	-0.000227
 728	7.2337e+01	11.0307	83.447596	0.000496	4.964882	1.682148	-0.000199
 729	7.2436e+01	10.9762	83.257850	0.000476	4.762234	1.613489	-0.000191
 730	7.2535e+01	10.9457	83.023696	0.000588	5.876800	1.991114	-0.000235
 731	7.2635e+01	10.9008	82.809728	0.000537	5.370179	1.819466	-0.000215
 732	7.2734e+01	10.8639	82.591723	0.000547	5.471503	1.853795	-0.000219
 733	7.2834e+01	10.8189	82.385829	0.000517	5.167531	1.750807	-0.000207
 734	7.2933e+01	10.7788	82.143601	0.000608	6.079448	2.059773	-0.000243
 735	7.3033e+01	10.7387	81.909447	0.000588	5.876800	1.991114	-0.000235
 736	7.3132e+01	10.6922	81.739887	0.000426	4.255613	1.441841	-0.000170
 737	7.3232e+01	10.6569	81.509771	0.000578	5.775475	1.956784	-0.000231
 738	7.3332e+01	10.6216	81.283691	0.000567	5.674151	1.922455	-0.000227
 739	7.3431e+01	10.5799	81.069723	0.000537	5.370179	1.819466	-0.000215
 740	7.3531e+01	10.5430	80.879977	0.000476	4.762234	1.613489	-0.000191
 741	7.3630e+01	10.5045	80.649861	0.000578	5.775475	1.956784	-0.000231
 742	7.3730e+01	10.4628	80.399558	0.000628	6.282096	2.128432	-0.000252
 743	7.3829e+01	10.4211	80.157330	0.000608	6.079448	2.059773	-0.000243
 744	7.3928e+01	10.3810	79.959510	0.000496	4.964882	1.682148	-0.000199
 745	7.4028e+01	10.3425	79.701134	0.000648	6.484744	2.197091	-0.000260
 746	7.4127e+01	10.3088	79.499277	0.000507	5.066207	1.716477	-0.000203
 747	7.4227e+01	10.2623	79.285309	0.000537	5.370179	1.819466	-0.000215
 748	7.4326e+01	10.2286	79.026932	0.000648	6.484744	2.197091	-0.000260
 749	7.4426e+01	10.1869	78.829112	0.000496	4.964882	1.682148	-0.000199
 750	7.4525e+01	10.1452	78.623218	0.000517	5.167531	1.750807	-0.000207
 751	7.4625e+01	10.1099	78.364842	0.000648	6.484744	2.197091	-0.000260
 752	7.4725e+01	10.0617	78.142799	0.000557	5.572827	1.888125	-0.000223
 753	7.4824e+01	10.0216	77.936905	0.000517	5.167531	1.750807	-0.000207
 754	7.4924e+01	9.9880	77.686603	0.000628	6.282096	2.128432	-0.000252
 755	7.5023e+01	9.9559	77.480709	0.000517	5.167531	1.750807	-0.000207
 756	7.5123e+01	9.9093	77.214258	0.000669	6.687393	2.265750	-0.000268
 757	7.5222e+01	9.8628	76.996253	0.000547	5.471503	1.853795	-0.000219
 758	7.5322e+01	9.8275	76.822656	0.000436	4.356938	1.476170	-0.000174
 759	7.5421e+01	9.7874	76.552168	0.000679	6.788717	2.300080	-0.000272
 760	7.5520e+01	9.7425	76.301865	0.000628	6.282096	2.128432	-0.000252
 761	7.5620e+01	9.7120	76.055600	0.000618	6.180772	2.094102	-0.000248
 762	7.5719e+01	9.6639	75.821446	0.000588	5.876800	1.991114	-0.000235
 763	7.5819e+01	9.6350	75.599404	0.000557	5.572827	1.888125	-0.000223
 764	7.5918e+01	9.5917	75.389473	0.000527	5.268855	1.785136	-0.000211
 765	7.6018e+01	9.5436	75.159356	0.000578	5.775475	1.956784	-0.000231
 766	7.6118e+01	9.5099	74.896942	0.000659	6.586069	2.231420	-0.000264
 767	7.6217e+01	9.4666	74.695085	0.000507	5.066207	1.716477	-0.000203
 768	7.6317e+01	9.4313	74.432672	0.000659	6.586069	2.231420	-0.000264
 769	7.6416e+01	9.3912	74.238889	0.000486	4.863558	1.647818	-0.000195
 770	7.6516e+01	9.3479	73.996661	0.000608	6.079448	2.059773	-0.000243
 771	7.6615e+01	9.3174	73.705987	0.000730	7.295337	2.471727	-0.000292
 772	7.6715e+01	9.2725	73.528353	0.000446	4.458262	1.510500	-0.000179
 773	7.6814e+01	9.2275	73.286125	0.000608	6.079448	2.059773	-0.000243
 774	7.6913e+01	9.1826	73.047934	0.000598	5.978124	2.025443	-0.000239
 775	7.7013e+01	9.1425	72.797632	0.000628	6.282096	2.128432	-0.000252
 776	7.7112e+01	9.1024	72.571552	0.000567	5.674151	1.922455	-0.000227
 777	7.7212e+01	9.0655	72.337398	0.000588	5.876800	1.991114	-0.000235
 778	7.7311e+01	9.0286	72.099207	0.000598	5.978124	2.025443	-0.000239
 779	7.7411e+01	8.9869	71.836793	0.000659	6.586069	2.231420	-0.000264
 780	7.7510e+01	8.9484	71.586491	0.000628	6.282096	2.128432	-0.000252
 781	7.7610e+01	8.9003	71.412894	0.000436	4.356938	1.476170	-0.000174
 782	7.7710e+01	8.8746	71.134332	0.000699	6.991365	2.368739	-0.000280
 783	7.7809e+01	8.8217	70.867881	0.000669	6.687393	2.265750	-0.000268
 784	7.7909e+01	8.7896	70.649875	0.000547	5.471503	1.853795	-0.000219
 785	7.8008e+01	8.7527	70.423796	0.000567	5.674151	1.922455	-0.000227
 786	7.8108e+01	8.7062	70.169456	0.000638	6.383420	2.162761	-0.000256
 787	7.8207e+01	8.6677	69.923191	0.000618	6.180772	2.094102	-0.000248
 788	7.8306e+01	8.6340	69.668851	0.000638	6.383420	2.162761	-0.000256
 789	7.8406e+01	8.5778	69.446809	0.000557	5.572827	1.888125	-0.000223
 790	7.8505e+01	8.5506	69.232841	0.000537	5.370179	1.819466	-0.000215
 791	7.8605e+01	8.5072	68.958316	0.000689	6.890041	2.334409	-0.000276
 792	7.8704e+01	8.4752	68.744347	0.000537	5.370179	1.819466	-0.000215
 793	7.8804e+01	8.4302	68.457711	0.000719	7.194013	2.437398	-0.000288
 794	7.8903e+01	8.3933	68.223557	0.000588	5.876800	1.991114	-0.000235
 795	7.9003e+01	8.3516	67.993440	0.000578	5.775475	1.956784	-0.000231
 796	7.9103e+01	8.3099	67.739101	0.000638	6.383420	2.162761	-0.000256
 797	7.9202e+01	8.2730	67.517058	0.000557	5.572827	1.888125	-0.000223
 798	7.9302e+01	8.2297	67.246570	0.000679	6.788717	2.300080	-0.000272
 799	7.9401e+01	8.1832	67.008379	0.000598	5.978124	2.025443	-0.000239
 800	7.9501e+01	8.1447	66.770188	0.000598	5.978124	2.025443	-0.000239
 801	7.9600e+01	8.1158	66.556220	0.000537	5.370179	1.819466	-0.000215
 802	7.9700e+01	8.0725	66.257472	0.000750	7.497986	2.540386	-0.000300
 803	7.9799e+01	8.0276	66.043504	0.000537	5.370179	1.819466	-0.000215
 804	7.9898e+01	7.9939	65.756867	0.000719	7.194013	2.437398	-0.000288
 805	7.9998e+01	7.9618	65.571159	0.000466	4.660910	1.579159	-0.000187
 806	8.0097e+01	7.9073	65.288559	0.000709	7.092689	2.403068	-0.000284
 807	8.0197e+01	7.8720	65.030182	0.000648	6.484744	2.197091	-0.000260
 808	8.0296e+01	7.8351	64.771806	0.000648	6.484744	2.197091	-0.000260
 809	8.0396e+01	7.7966	64.529578	0.000608	6.079448	2.059773	-0.000243
 810	8.0496e+01	7.7581	64.242941	0.000719	7.194013	2.437398	-0.000288
 811	8.0595e+01	7.7083	63.996676	0.000618	6.180772	2.094102	-0.000248
 812	8.0695e+01	7.6666	63.770596	0.000567	5.674151	1.922455	-0.000227
 813	8.0794e+01	7.6442	63.516257	0.000638	6.383420	2.162761	-0.000256
 814	8.0894e+01	7.5896	63.245768	0.000679	6.788717	2.300080	-0.000272
 815	8.0993e+01	7.5640	63.015652	0.000578	5.775475	1.956784	-0.000231
 816	8.1093e+01	7.5206	62.749201	0.000669	6.687393	2.265750	-0.000268
 817	8.1192e+01	7.4677	62.506973	0.000608	6.079448	2.059773	-0.000243
 818	8.1291e+01	7.4340	62.224373	0.000709	7.092689	2.403068	-0.000284
 819	8.1391e+01	7.3843	61.982145	0.000608	6.079448	2.059773	-0.000243
 820	8.1490e+01	7.3506	61.691471	0.000730	7.295337	2.471727	-0.000292
 821	8.1590e+01	7.3073	61.485577	0.000517	5.167531	1.750807	-0.000207
 822	8.1689e+01	7.2720	61.211052	0.000689	6.890041	2.334409	-0.000276
 823	8.1789e+01	7.2367	60.948638	0.000659	6.586069	2.231420	-0.000264
 824	8.1888e+01	7.1966	60.706410	0.000608	6.079448	2.059773	-0.000243
 825	8.1988e+01	7.1565	60.476293	0.000578	5.775475	1.956784	-0.000231
 826	8.2088e+01	7.1116	60.197731	0.000699	6.991365	2.368739	-0.000280
 827	8.2187e+01	7.0699	59.959540	0.000598	5.978124	2.025443	-0.000239
 828	8.2287e+01	7.0330	59.689052	0.000679	6.788717	2.300080	-0.000272
 829	8.2386e+01	6.9977	59.398378	0.000730	7.295337	2.471727	-0.000292
 830	8.2486e+01	6.9576	59.123853	0.000689	6.890041	2.334409	-0.000276
 831	8.2585e+01	6.9239	58.962367	0.000405	4.052965	1.373182	-0.000162
 832	8.2684e+01	6.8693	58.671694	0.000730	7.295337	2.471727	-0.000292
 833	8.2784e+01	6.8404	58.421391	0.000628	6.282096	2.128432	-0.000252
 834	8.2883e+01	6.7907	58.167052	0.000638	6.383420	2.162761	-0.000256
 835	8.2983e+01	6.7554	57.932898	0.000588	5.876800	1.991114	-0.000235
 836	8.3082e+01	6.7185	57.658373	0.000689	6.890041	2.334409	-0.000276
 837	8.3182e+01	6.6800	57.371736	0.000719	7.194013	2.437398	-0.000288
 838	8.3281e+01	6.6495	57.125471	0.000618	6.180772	2.094102	-0.000248
 839	8.3381e+01	6.5902	56.850945	0.000689	6.890041	2.334409	-0.000276
 840	8.3481e+01	6.5565	56.608717	0.000608	6.079448	2.059773	-0.000243
 841	8.3580e+01	6.5132	56.334192	0.000689	6.890041	2.334409	-0.000276
 842	8.3680e+01	6.4811	56.091964	0.000608	6.079448	2.059773	-0.000243
 843	8.3779e+01	6.4394	55.861847	0.000578	5.775475	1.956784	-0.000231
 844	8.3879e+01	6.4057	55.579248	0.000709	7.092689	2.403068	-0.000284
 845	8.3978e+01	6.3608	55.337020	0.000608	6.079448	2.059773	-0.000243
 846	8.4078e+01	6.3143	55.062494	0.000689	6.890041	2.334409	-0.000276
 847	8.4177e+01	6.2822	54.848526	0.000537	5.370179	1.819466	-0.000215
 848	8.4276e+01	6.2533	54.557852	0.000730	7.295337	2.471727	-0.000292
 849	8.4376e+01	6.2052	54.287364	0.000679	6.788717	2.300080	-0.000272
 850	8.4475e+01	6.1538	54.008802	0.000699	6.991365	2.368739	-0.000280
 851	8.4575e+01	6.1250	53.782722	0.000567	5.674151	1.922455	-0.000227
 852	8.4674e+01	6.0784	53.532420	0.000628	6.282096	2.128432	-0.000252
 853	8.4774e+01	6.0447	53.233672	0.000750	7.497986	2.540386	-0.000300
 854	8.4874e+01	6.0062	52.999518	0.000588	5.876800	1.991114	-0.000235
 855	8.4973e+01	5.9597	52.704807	0.000740	7.396662	2.506057	-0.000296
 856	8.5073e+01	5.9276	52.490839	0.000537	5.370179	1.819466	-0.000215
 857	8.5172e+01	5.8827	52.208239	0.000709	7.092689	2.403068	-0.000284
 858	8.5272e+01	5.8458	51.974085	0.000588	5.876800	1.991114	-0.000235
 859	8.5371e+01	5.8025	51.634966	0.000851	8.511227	2.883682	-0.000341
 860	8.5471e+01	5.7640	51.441184	0.000486	4.863558	1.647818	-0.000195
 861	8.5570e+01	5.7207	51.170695	0.000679	6.788717	2.300080	-0.000272
 862	8.5669e+01	5.6838	50.904245	0.000669	6.687393	2.265750	-0.000268
 863	8.5769e+01	5.6437	50.629719	0.000689	6.890041	2.334409	-0.000276
 864	8.5868e+01	5.6052	50.322897	0.000770	7.700634	2.609045	-0.000308
 865	8.5968e+01	5.5587	50.084706	0.000598	5.978124	2.025443	-0.000239
 866	8.6067e+01	5.5186	49.830366	0.000638	6.383420	2.162761	-0.000256
 867	8.6167e+01	5.4801	49.571990	0.000648	6.484744	2.197091	-0.000260
 868	8.6266e+01	5.4416	49.277279	0.000740	7.396662	2.506057	-0.000296
 869	8.6366e+01	5.3966	49.047162	0.000578	5.775475	1.956784	-0.000231
 870	8.6466e+01	5.3613	48.752451	0.000740	7.396662	2.506057	-0.000296
 871	8.6565e+01	5.3228	48.502149	0.000628	6.282096	2.128432	-0.000252
 872	8.6665e+01	5.2843	48.235698	0.000669	6.687393	2.265750	-0.000268
 873	8.6764e+01	5.2474	47.940987	0.000740	7.396662	2.506057	-0.000296
 874	8.6864e+01	5.1961	47.646276	0.000740	7.396662	2.506057	-0.000296
 875	8.6963e+01	5.1720	47.416159	0.000578	5.775475	1.956784	-0.000231
 876	8.7063e+01	5.1207	47.141634	0.000689	6.890041	2.334409	-0.000276
 877	8.7162e+01	5.0918	46.875183	0.000669	6.687393	2.265750	-0.000268
 878	8.7261e+01	5.0341	46.592584	0.000709	7.092689	2.403068	-0.000284
 879	8.7361e+01	4.9988	46.309984	0.000709	7.092689	2.403068	-0.000284
 880	8.7460e+01	4.9651	46.063719	0.000618	6.180772	2.094102	-0.000248
 881	8.7560e+01	4.9298	45.744785	0.000800	8.004606	2.712034	-0.000321
 882	8.7659e+01	4.8833	45.530817	0.000537	5.370179	1.819466	-0.000215
 883	8.7759e+01	4.8464	45.232069	0.000750	7.497986	2.540386	-0.000300
 884	8.7859e+01	4.7999	44.977729	0.000638	6.383420	2.162761	-0.000256
 885	8.7958e+01	4.7598	44.670907	0.000770	7.700634	2.609045	-0.000308
 886	8.8058e+01	4.7277	44.392345	0.000699	6.991365	2.368739	-0.000280
 887	8.8157e+01	4.6924	44.097634	0.000740	7.396662	2.506057	-0.000296
 888	8.8257e+01	4.6571	43.879628	0.000547	5.471503	1.853795	-0.000219
 889	8.8356e+01	4.6025	43.580880	0.000750	7.497986	2.540386	-0.000300
 890	8.8456e+01	4.5624	43.330578	0.000628	6.282096	2.128432	-0.000252
 891	8.8555e+01	4.5336	43.031830	0.000750	7.497986	2.540386	-0.000300
 892	8.8654e+01	4.4870	42.809787	0.000557	5.572827	1.888125	-0.000223
 893	8.8754e+01	4.4421	42.498928	0.000780	7.801958	2.643375	-0.000312
 894	8.8853e+01	4.4036	42.252663	0.000618	6.180772	2.094102	-0.000248
 895	8.8953e+01	4.3635	41.953915	0.000750	7.497986	2.540386	-0.000300
 896	8.9052e+01	4.3346	41.699575	0.000638	6.383420	2.162761	-0.000256
 897	8.9152e+01	4.2865	41.425050	0.000689	6.890041	2.334409	-0.000276
 898	8.9251e+01	4.2416	41.146487	0.000699	6.991365	2.368739	-0.000280
 899	8.9351e+01	4.2079	40.847739	0.000750	7.497986	2.540386	-0.000300
 900	8.9451e+01	4.1678	40.601474	0.000618	6.180772	2.094102	-0.000248
 901	8.9550e+01	4.1293	40.286578	0.000790	7.903282	2.677704	-0.000316
 902	8.9650e+01	4.0748	40.016089	0.000679	6.788717	2.300080	-0.000272
 903	8.9749e+01	4.0475	39.790010	0.000567	5.674151	1.922455	-0.000227
 904	8.9849e+01	4.0058	39.527596	0.000659	6.586069	2.231420	-0.000264
 905	8.9948e+01	3.9673	39.204625	0.000811	8.105930	2.746364	-0.000325
 906	9.0047e+01	3.9223	38.934137	0.000679	6.788717	2.300080	-0.000272
 907	9.0147e+01	3.8822	38.647500	0.000719	7.194013	2.437398	-0.000288
 908	9.0246e+01	3.8453	38.324530	0.000811	8.105930	2.746364	-0.000325
 909	9.0346e+01	3.8036	38.102487	0.000557	5.572827	1.888125	-0.000223
 910	9.0445e+01	3.7667	37.803739	0.000750	7.497986	2.540386	-0.000300
 911	9.0545e+01	3.7250	37.480768	0.000811	8.105930	2.746364	-0.000325
 912	9.0644e+01	3.6881	37.230466	0.000628	6.282096	2.128432	-0.000252
 913	9.0744e+01	3.6577	36.939792	0.000730	7.295337	2.471727	-0.000292
 914	9.0844e+01	3.6143	36.665267	0.000689	6.890041	2.334409	-0.000276
 915	9.0943e+01	3.5678	36.370556	0.000740	7.396662	2.506057	-0.000296
 916	9.1043e+01	3.5261	36.039511	0.000831	8.308579	2.815023	-0.000333
 917	9.1142e+01	3.4876	35.809394	0.000578	5.775475	1.956784	-0.000231
 918	9.1242e+01	3.4523	35.510646	0.000750	7.497986	2.540386	-0.000300
 919	9.1341e+01	3.4090	35.199786	0.000780	7.801958	2.643375	-0.000312
 920	9.1441e+01	3.3705	34.917187	0.000709	7.092689	2.403068	-0.000284
 921	9.1540e+01	3.3384	34.618439	0.000750	7.497986	2.540386	-0.000300
 922	9.1639e+01	3.2983	34.364099	0.000638	6.383420	2.162761	-0.000256
 923	9.1739e+01	3.2534	34.029017	0.000841	8.409903	2.849352	-0.000337
 924	9.1838e+01	3.2149	33.754492	0.000689	6.890041	2.334409	-0.000276
 925	9.1938e+01	3.1716	33.443632	0.000780	7.801958	2.643375	-0.000312
 926	9.2037e+01	3.1331	33.177181	0.000669	6.687393	2.265750	-0.000268
 927	9.2137e+01	3.0817	32.910731	0.000669	6.687393	2.265750	-0.000268
 928	9.2237e+01	3.0545	32.591797	0.000800	8.004606	2.712034	-0.000321
 929	9.2336e+01	3.0176	32.305160	0.000719	7.194013	2.437398	-0.000288
 930	9.2436e+01	2.9678	32.010449	0.000740	7.396662	2.506057	-0.000296
 931	9.2535e+01	2.9325	31.739961	0.000679	6.788717	2.300080	-0.000272
 932	9.2635e+01	2.8956	31.441213	0.000750	7.497986	2.540386	-0.000300
 933	9.2734e+01	2.8459	31.102094	0.000851	8.511227	2.883682	-0.000341
 934	9.2834e+01	2.8138	30.791234	0.000780	7.801958	2.643375	-0.000312
 935	9.2933e+01	2.7753	30.536895	0.000638	6.383420	2.162761	-0.000256
 936	9.3032e+01	2.7352	30.230072	0.000770	7.700634	2.609045	-0.000308
 937	9.3132e+01	2.6855	29.967659	0.000659	6.586069	2.231420	-0.000264
 938	9.3231e+01	2.6422	29.620465	0.000871	8.713875	2.952341	-0.000349
 939	9.3331e+01	2.6117	29.337865	0.000709	7.092689	2.403068	-0.000284
 940	9.3430e+01	2.5700	29.063340	0.000689	6.890041	2.334409	-0.000276
 941	9.3530e+01	2.5283	28.736332	0.000821	8.207255	2.780693	-0.000329
 942	9.3629e+01	2.4930	28.433547	0.000760	7.599310	2.574716	-0.000304
 943	9.3729e+01	2.4625	28.130762	0.000760	7.599310	2.574716	-0.000304
 944	9.3829e+01	2.4128	27.848162	0.000709	7.092689	2.403068	-0.000284
 945	9.3928e+01	2.3743	27.537303	0.000780	7.801958	2.643375	-0.000312
 946	9.4028e+01	2.3358	27.230481	0.000770	7.700634	2.609045	-0.000308
 947	9.4127e+01	2.2989	26.899435	0.000831	8.308579	2.815023	-0.000333
 948	9.4227e+01	2.2523	26.649133	0.000628	6.282096	2.128432	-0.000252
 949	9.4326e+01	2.2074	26.342311	0.000770	7.700634	2.609045	-0.000308
 950	9.4425e+01	2.1721	26.059711	0.000709	7.092689	2.403068	-0.000284
 951	9.4525e+01	2.1384	25.748852	0.000780	7.801958	2.643375	-0.000312
 952	9.4624e+01	2.0951	25.393584	0.000892	8.916524	3.021000	-0.000357
 953	9.4724e+01	2.0534	25.135207	0.000648	6.484744	2.197091	-0.000260
 954	9.4823e+01	2.0133	24.804162	0.000831	8.308579	2.815023	-0.000333
 955	9.4923e+01	1.9780	24.497340	0.000770	7.700634	2.609045	-0.000308
 956	9.5022e+01	1.9363	24.178406	0.000800	8.004606	2.712034	-0.000321
 957	9.5122e+01	1.8994	23.899844	0.000699	6.991365	2.368739	-0.000280
 958	9.5222e+01	1.8577	23.601096	0.000750	7.497986	2.540386	-0.000300
 959	9.5321e+01	1.8224	23.278125	0.000811	8.105930	2.746364	-0.000325
 960	9.5421e+01	1.7727	22.995525	0.000709	7.092689	2.403068	-0.000284
 961	9.5520e+01	1.7454	22.680629	0.000790	7.903282	2.677704	-0.000316
 962	9.5620e+01	1.6925	22.333435	0.000871	8.713875	2.952341	-0.000349
 963	9.5719e+01	1.6604	22.062947	0.000679	6.788717	2.300080	-0.000272
 964	9.5819e+01	1.6187	21.756124	0.000770	7.700634	2.609045	-0.000308
 965	9.5918e+01	1.5625	21.441228	0.000790	7.903282	2.677704	-0.000316
 966	9.6017e+01	1.5288	21.118257	0.000811	8.105930	2.746364	-0.000325
 967	9.6117e+01	1.4935	20.847769	0.000679	6.788717	2.300080	-0.000272
 968	9.6216e+01	1.4566	20.508650	0.000851	8.511227	2.883682	-0.000341
 969	9.6316e+01	1.4181	20.161456	0.000871	8.713875	2.952341	-0.000349
 970	9.6415e+01	1.3748	19.874819	0.000719	7.194013	2.437398	-0.000288
 971	9.6515e+01	1.3331	19.555886	0.000800	8.004606	2.712034	-0.000321
 972	9.6615e+01	1.3010	19.261175	0.000740	7.396662	2.506057	-0.000296
 973	9.6714e+01	1.2609	18.905907	0.000892	8.916524	3.021000	-0.000357
 974	9.6814e+01	1.2192	18.607159	0.000750	7.497986	2.540386	-0.000300
 975	9.6913e+01	1.1791	18.304373	0.000760	7.599310	2.574716	-0.000304
 976	9.7013e+01	1.1422	17.949105	0.000892	8.916524	3.021000	-0.000357
 977	9.7112e+01	1.1037	17.626135	0.000811	8.105930	2.746364	-0.000325
 978	9.7212e+01	1.0492	17.331424	0.000740	7.396662	2.506057	-0.000296
 979	9.7311e+01	1.0203	16.984230	0.000871	8.713875	2.952341	-0.000349
 980	9.7410e+01	0.9834	16.669333	0.000790	7.903282	2.677704	-0.000316
 981	9.7510e+01	0.9353	16.366548	0.000760	7.599310	2.574716	-0.000304
 982	9.7609e+01	0.8920	16.051652	0.000790	7.903282	2.677704	-0.000316
 983	9.7709e+01	0.8535	15.744829	0.000770	7.700634	2.609045	-0.000308
 984	9.7808e+01	0.8101	15.429933	0.000790	7.903282	2.677704	-0.000316
 985	9.7908e+01	0.7829	15.066591	0.000912	9.119172	3.089659	-0.000365
 986	9.8007e+01	0.7508	14.783991	0.000709	7.092689	2.403068	-0.000284
 987	9.8107e+01	0.7027	14.440835	0.000861	8.612551	2.918011	-0.000345
 988	9.8207e+01	0.6658	14.166309	0.000689	6.890041	2.334409	-0.000276
 989	9.8306e+01	0.6144	13.790856	0.000942	9.423144	3.192648	-0.000377
 990	9.8406e+01	0.5711	13.488071	0.000760	7.599310	2.574716	-0.000304
 991	9.8505e+01	0.5310	13.161063	0.000821	8.207255	2.780693	-0.000329
 992	9.8605e+01	0.5053	12.846166	0.000790	7.903282	2.677704	-0.000316
 993	9.8704e+01	0.4668	12.519158	0.000821	8.207255	2.780693	-0.000329
 994	9.8803e+01	0.4187	12.192150	0.000821	8.207255	2.780693	-0.000329
 995	9.8903e+01	0.3770	11.865142	0.000821	8.207255	2.780693	-0.000329
 996	9.9002e+01	0.3385	11.554282	0.000780	7.801958	2.643375	-0.000312
 997	9.9102e+01	0.3064	11.259572	0.000740	7.396662	2.506057	-0.000296
 998	9.9201e+01	0.2631	10.932564	0.000821	8.207255	2.780693	-0.000329
 999	9.9301e+01	0.2182	10.597481	0.000841	8.409903	2.849352	-0.000337
1000	9.9400e+01	0.1845	10.262399	0.000841	8.409903	2.849352	-0.000337
1001	9.9500e+01	0.1428	9.927317	0.000841	8.409903	2.849352	-0.000337
1002	9.9600e+01	0.0995	9.648754	0.000699	6.991365	2.368739	-0.000280
1003	9.9699e+01	0.0626	9.305598	0.000861	8.612551	2.918011	-0.000345
1004	9.9799e+01	0.0176	8.966478	0.000851	8.511227	2.883682	-0.000341
1005	9.9898e+01	-0.0048	8.691953	0.000689	6.890041	2.334409	-0.000276
1006	9.9998e+01	-0.0529	8.373020	0.000800	8.004606	2.712034	-0.000321
1007	1.0010e+02	-0.0914	8.086383	0.000719	7.194013	2.437398	-0.000288
1008	1.0020e+02	-0.1299	7.731115	0.000892	8.916524	3.021000	-0.000357
1009	1.0030e+02	-0.1668	7.452553	0.000699	6.991365	2.368739	-0.000280
1010	1.0040e+02	-0.2150	7.105359	0.000871	8.713875	2.952341	-0.000349
1011	1.0050e+02	-0.2503	6.754128	0.000882	8.815199	2.986670	-0.000353
1012	1.0059e+02	-0.2888	6.479603	0.000689	6.890041	2.334409	-0.000276
1013	1.0069e+02	-0.3337	6.144521	0.000841	8.409903	2.849352	-0.000337
1014	1.0079e+02	-0.3610	5.801364	0.000861	8.612551	2.918011	-0.000345
1015	1.0089e+02	-0.4123	5.506653	0.000740	7.396662	2.506057	-0.000296
1016	1.0099e+02	-0.4444	5.139274	0.000922	9.220496	3.123989	-0.000369
1017	1.0109e+02	-0.4861	4.840526	0.000750	7.497986	2.540386	-0.000300
1018	1.0119e+02	-0.5294	4.497369	0.000861	8.612551	2.918011	-0.000345
1019	1.0129e+02	-0.5743	4.210733	0.000719	7.194013	2.437398	-0.000288
1020	1.0139e+02	-0.6080	3.851427	0.000902	9.017848	3.055329	-0.000361
1021	1.0149e+02	-0.6449	3.508271	0.000861	8.612551	2.918011	-0.000345
1022	1.0159e+02	-0.6882	3.197412	0.000780	7.801958	2.643375	-0.000312
1023	1.0169e+02	-0.7283	2.890589	0.000770	7.700634	2.609045	-0.000308
1024	1.0179e+02	-0.7700	2.543396	0.000871	8.713875	2.952341	-0.000349
1025	1.0189e+02	-0.8166	2.240610	0.000760	7.599310	2.574716	-0.000304
1026	1.0199e+02	-0.8470	1.881305	0.000902	9.017848	3.055329	-0.000361
1027	1.0209e+02	-0.8855	1.574483	0.000770	7.700634	2.609045	-0.000308
1028	1.0219e+02	-0.9240	1.223252	0.000882	8.815199	2.986670	-0.000353
1029	1.0229e+02	-0.9770	0.880096	0.000861	8.612551	2.918011	-0.000345
1030	1.0239e+02	-0.9946	0.585385	0.000740	7.396662	2.506057	-0.000296
1031	1.0248e+02	-1.0508	0.230117	0.000892	8.916524	3.021000	-0.000357
1032	1.0258e+02	-1.0861	-0.048446	0.000699	6.991365	2.368739	-0.000280
1033	1.0268e+02	-1.1342	-0.411788	0.000912	9.119172	3.089659	-0.000365
1034	1.0278e+02	-1.1743	-0.706499	0.000740	7.396662	2.506057	-0.000296
1035	1.0288e+02	-1.2032	-1.073878	0.000922	9.220496	3.123989	-0.000369
1036	1.0298e+02	-1.2321	-1.360515	0.000719	7.194013	2.437398	-0.000288
1037	1.0308e+02	-1.2946	-1.695597	0.000841	8.409903	2.849352	-0.000337
1038	1.0318e+02	-1.3203	-1.998382	0.000760	7.599310	2.574716	-0.000304
1039	1.0328e+02	-1.3652	-2.361724	0.000912	9.119172	3.089659	-0.000365
1040	1.0338e+02	-1.4005	-2.708918	0.000871	8.713875	2.952341	-0.000349
1041	1.0348e+02	-1.4470	-3.035926	0.000821	8.207255	2.780693	-0.000329
1042	1.0358e+02	-1.4775	-3.342748	0.000770	7.700634	2.609045	-0.000308
1043	1.0368e+02	-1.5192	-3.669756	0.000821	8.207255	2.780693	-0.000329
1044	1.0378e+02	-1.5593	-3.936207	0.000669	6.687393	2.265750	-0.000268
1045	1.0388e+02	-1.6090	-4.315698	0.000952	9.524468	3.226977	-0.000381
1046	1.0398e+02	-1.6508	-4.594260	0.000699	6.991365	2.368739	-0.000280
1047	1.0408e+02	-1.6828	-4.945491	0.000882	8.815199	2.986670	-0.000353
1048	1.0418e+02	-1.7326	-5.276536	0.000831	8.308579	2.815023	-0.000333
1049	1.0428e+02	-1.7663	-5.587396	0.000780	7.801958	2.643375	-0.000312
1050	1.0438e+02	-1.7967	-5.922478	0.000841	8.409903	2.849352	-0.000337
1051	1.0447e+02	-1.8465	-6.249486	0.000821	8.207255	2.780693	-0.000329
1052	1.0457e+02	-1.8786	-6.568420	0.000800	8.004606	2.712034	-0.000321
1053	1.0467e+02	-1.9203	-6.903502	0.000841	8.409903	2.849352	-0.000337
1054	1.0477e+02	-1.9636	-7.218399	0.000790	7.903282	2.677704	-0.000316
1055	1.0487e+02	-2.0069	-7.545407	0.000821	8.207255	2.780693	-0.000329
1056	1.0497e+02	-2.0406	-7.864340	0.000800	8.004606	2.712034	-0.000321
1057	1.0507e+02	-2.0807	-8.167126	0.000760	7.599310	2.574716	-0.000304
1058	1.0517e+02	-2.1288	-8.494134	0.000821	8.207255	2.780693	-0.000329
1059	1.0527e+02	-2.1673	-8.796919	0.000760	7.599310	2.574716	-0.000304
1060	1.0537e+02	-2.2010	-9.095667	0.000750	7.497986	2.540386	-0.000300
1061	1.0547e+02	-2.2347	-9.434786	0.000851	8.511227	2.883682	-0.000341
1062	1.0557e+02	-2.2924	-9.777943	0.000861	8.612551	2.918011	-0.000345
1063	1.0567e+02	-2.3117	-10.040357	0.000659	6.586069	2.231420	-0.000264
1064	1.0577e+02	-2.3582	-10.375439	0.000841	8.409903	2.849352	-0.000337
1065	1.0587e+02	-2.3967	-10.714558	0.000851	8.511227	2.883682	-0.000341
1066	1.0597e+02	-2.4432	-11.057715	0.000861	8.612551	2.918011	-0.000345
1067	1.0607e+02	-2.4866	-11.291869	0.000588	5.876800	1.991114	-0.000235
1068	1.0617e+02	-2.5235	-11.675397	0.000963	9.625792	3.261307	-0.000385
1069	1.0627e+02	-2.5604	-11.957996	0.000709	7.092689	2.403068	-0.000284
1070	1.0637e+02	-2.6037	-12.305190	0.000871	8.713875	2.952341	-0.000349
1071	1.0647e+02	-2.6374	-12.583752	0.000699	6.991365	2.368739	-0.000280
1072	1.0656e+02	-2.6807	-12.878463	0.000740	7.396662	2.506057	-0.000296
1073	1.0666e+02	-2.7095	-13.169137	0.000730	7.295337	2.471727	-0.000292
1074	1.0676e+02	-2.7673	-13.500182	0.000831	8.308579	2.815023	-0.000333
1075	1.0686e+02	-2.8010	-13.839301	0.000851	8.511227	2.883682	-0.000341
1076	1.0696e+02	-2.8395	-14.174384	0.000841	8.409903	2.849352	-0.000337
1077	1.0706e+02	-2.8828	-14.452946	0.000699	6.991365	2.368739	-0.000280
1078	1.0716e+02	-2.9261	-14.755731	0.000760	7.599310	2.574716	-0.000304
1079	1.0726e+02	-2.9630	-15.131185	0.000942	9.423144	3.192648	-0.000377
1080	1.0736e+02	-2.9983	-15.401673	0.000679	6.788717	2.300080	-0.000272
1081	1.0746e+02	-3.0448	-15.704458	0.000760	7.599310	2.574716	-0.000304
1082	1.0756e+02	-3.0833	-16.007243	0.000760	7.599310	2.574716	-0.000304
1083	1.0766e+02	-3.1202	-16.354437	0.000871	8.713875	2.952341	-0.000349
1084	1.0776e+02	-3.1587	-16.677408	0.000811	8.105930	2.746364	-0.000325
1085	1.0786e+02	-3.1940	-17.000379	0.000811	8.105930	2.746364	-0.000325
1086	1.0796e+02	-3.2389	-17.258755	0.000648	6.484744	2.197091	-0.000260
1087	1.0806e+02	-3.2823	-17.577689	0.000800	8.004606	2.712034	-0.000321
1088	1.0816e+02	-3.3176	-17.892586	0.000790	7.903282	2.677704	-0.000316
1089	1.0826e+02	-3.3641	-18.215556	0.000811	8.105930	2.746364	-0.000325
1090	1.0836e+02	-3.3946	-18.522379	0.000770	7.700634	2.609045	-0.000308
1091	1.0845e+02	-3.4427	-18.825164	0.000760	7.599310	2.574716	-0.000304
1092	1.0855e+02	-3.4844	-19.119875	0.000740	7.396662	2.506057	-0.000296
1093	1.0865e+02	-3.5213	-19.471106	0.000882	8.815199	2.986670	-0.000353
1094	1.0875e+02	-3.5566	-19.741594	0.000679	6.788717	2.300080	-0.000272
1095	1.0885e+02	-3.6063	-20.084750	0.000861	8.612551	2.918011	-0.000345
1096	1.0895e+02	-3.6416	-20.367350	0.000709	7.092689	2.403068	-0.000284
1097	1.0905e+02	-3.6817	-20.649949	0.000709	7.092689	2.403068	-0.000284
1098	1.0915e+02	-3.7170	-20.997143	0.000871	8.713875	2.952341	-0.000349
1099	1.0925e+02	-3.7523	-21.295891	0.000750	7.497986	2.540386	-0.000300
1100	1.0935e+02	-3.7956	-21.594639	0.000750	7.497986	2.540386	-0.000300
1101	1.0945e+02	-3.8357	-21.909536	0.000790	7.903282	2.677704	-0.000316
1102	1.0955e+02	-3.8742	-22.171949	0.000659	6.586069	2.231420	-0.000264
1103	1.0965e+02	-3.9175	-22.486846	0.000790	7.903282	2.677704	-0.000316
1104	1.0975e+02	-3.9528	-22.781557	0.000740	7.396662	2.506057	-0.000296
1105	1.0985e+02	-3.9994	-23.080305	0.000750	7.497986	2.540386	-0.000300
1106	1.0995e+02	-4.0298	-23.379053	0.000750	7.497986	2.540386	-0.000300
1107	1.1005e+02	-4.0764	-23.669727	0.000730	7.295337	2.471727	-0.000292
1108	1.1015e+02	-4.1084	-24.020958	0.000882	8.815199	2.986670	-0.000353
1109	1.1025e+02	-4.1550	-24.327780	0.000770	7.700634	2.609045	-0.000308
1110	1.1035e+02	-4.2047	-24.594231	0.000669	6.687393	2.265750	-0.000268
1111	1.1044e+02	-4.2255	-24.909128	0.000790	7.903282	2.677704	-0.000316
1112	1.1054e+02	-4.2833	-25.224024	0.000790	7.903282	2.677704	-0.000316
1113	1.1064e+02	-4.3170	-25.478364	0.000638	6.383420	2.162761	-0.000256
1114	1.1074e+02	-4.3619	-25.773075	0.000740	7.396662	2.506057	-0.000296
1115	1.1084e+02	-4.4004	-26.075860	0.000760	7.599310	2.574716	-0.000304
1116	1.1094e+02	-4.4357	-26.419016	0.000861	8.612551	2.918011	-0.000345
1117	1.1104e+02	-4.4662	-26.725839	0.000770	7.700634	2.609045	-0.000308
1118	1.1114e+02	-4.5223	-26.996327	0.000679	6.788717	2.300080	-0.000272
1119	1.1124e+02	-4.5544	-27.274889	0.000699	6.991365	2.368739	-0.000280
1120	1.1134e+02	-4.5897	-27.573637	0.000750	7.497986	2.540386	-0.000300
1121	1.1144e+02	-4.6314	-27.852199	0.000699	6.991365	2.368739	-0.000280
1122	1.1154e+02	-4.6715	-28.146910	0.000740	7.396662	2.506057	-0.000296
1123	1.1164e+02	-4.7132	-28.494104	0.000871	8.713875	2.952341	-0.000349
1124	1.1174e+02	-4.7549	-28.748444	0.000638	6.383420	2.162761	-0.000256
1125	1.1184e+02	-4.7951	-29.031043	0.000709	7.092689	2.403068	-0.000284
1126	1.1194e+02	-4.8384	-29.345940	0.000790	7.903282	2.677704	-0.000316
1127	1.1204e+02	-4.8721	-29.640651	0.000740	7.396662	2.506057	-0.000296
1128	1.1214e+02	-4.9090	-29.927287	0.000719	7.194013	2.437398	-0.000288
1129	1.1224e+02	-4.9491	-30.189701	0.000659	6.586069	2.231420	-0.000264
1130	1.1234e+02	-4.9956	-30.488449	0.000750	7.497986	2.540386	-0.000300
1131	1.1244e+02	-5.0373	-30.799309	0.000780	7.801958	2.643375	-0.000312
1132	1.1253e+02	-5.0822	-31.081908	0.000709	7.092689	2.403068	-0.000284
1133	1.1263e+02	-5.1143	-31.344322	0.000659	6.586069	2.231420	-0.000264
1134	1.1273e+02	-5.1448	-31.643070	0.000750	7.497986	2.540386	-0.000300
1135	1.1283e+02	-5.1945	-31.941818	0.000750	7.497986	2.540386	-0.000300
1136	1.1293e+02	-5.2330	-32.200195	0.000648	6.484744	2.197091	-0.000260
1137	1.1303e+02	-5.2683	-32.494906	0.000740	7.396662	2.506057	-0.000296
1138	1.1313e+02	-5.3036	-32.753282	0.000648	6.484744	2.197091	-0.000260
1139	1.1323e+02	-5.3501	-33.080290	0.000821	8.207255	2.780693	-0.000329
1140	1.1333e+02	-5.3902	-33.375001	0.000740	7.396662	2.506057	-0.000296
1141	1.1343e+02	-5.4319	-33.677786	0.000760	7.599310	2.574716	-0.000304
1142	1.1353e+02	-5.4752	-33.960386	0.000709	7.092689	2.403068	-0.000284
1143	1.1363e+02	-5.5105	-34.247022	0.000719	7.194013	2.437398	-0.000288
1144	1.1373e+02	-5.5410	-34.525585	0.000699	6.991365	2.368739	-0.000280
1145	1.1383e+02	-5.5859	-34.844519	0.000800	8.004606	2.712034	-0.000321
1146	1.1393e+02	-5.6212	-35.127118	0.000709	7.092689	2.403068	-0.000284
1147	1.1403e+02	-5.6758	-35.405680	0.000699	6.991365	2.368739	-0.000280
1148	1.1413e+02	-5.7143	-35.688280	0.000709	7.092689	2.403068	-0.000284
1149	1.1423e+02	-5.7496	-35.974917	0.000719	7.194013	2.437398	-0.000288
1150	1.1433e+02	-5.7817	-36.257516	0.000709	7.092689	2.403068	-0.000284
1151	1.1442e+02	-5.8394	-36.515893	0.000648	6.484744	2.197091	-0.000260
1152	1.1452e+02	-5.8795	-36.822715	0.000770	7.700634	2.609045	-0.000308
1153	1.1462e+02	-5.9100	-37.109352	0.000719	7.194013	2.437398	-0.000288
1154	1.1472e+02	-5.9501	-37.375803	0.000669	6.687393	2.265750	-0.000268
1155	1.1482e+02	-5.9982	-37.670514	0.000740	7.396662	2.506057	-0.000296
1156	1.1492e+02	-6.0255	-37.969262	0.000750	7.497986	2.540386	-0.000300
1157	1.1502e+02	-6.0752	-38.239750	0.000679	6.788717	2.300080	-0.000272
1158	1.1512e+02	-6.1121	-38.550609	0.000780	7.801958	2.643375	-0.000312
1159	1.1522e+02	-6.1554	-38.784763	0.000588	5.876800	1.991114	-0.000235
1160	1.1532e+02	-6.1972	-39.071400	0.000719	7.194013	2.437398	-0.000288
1161	1.1542e+02	-6.2244	-39.317665	0.000618	6.180772	2.094102	-0.000248
1162	1.1552e+02	-6.2709	-39.672933	0.000892	8.916524	3.021000	-0.000357
1163	1.1562e+02	-6.3030	-39.919198	0.000618	6.180772	2.094102	-0.000248
1164	1.1572e+02	-6.3415	-40.177575	0.000648	6.484744	2.197091	-0.000260
1165	1.1582e+02	-6.3881	-40.460174	0.000709	7.092689	2.403068	-0.000284
1166	1.1592e+02	-6.4250	-40.754885	0.000740	7.396662	2.506057	-0.000296
1167	1.1602e+02	-6.4699	-40.972891	0.000547	5.471503	1.853795	-0.000219
1168	1.1612e+02	-6.5052	-41.267602	0.000740	7.396662	2.506057	-0.000296
1169	1.1622e+02	-6.5549	-41.525978	0.000648	6.484744	2.197091	-0.000260
1170	1.1632e+02	-6.5854	-41.788392	0.000659	6.586069	2.231420	-0.000264
1171	1.1642e+02	-6.6239	-42.083103	0.000740	7.396662	2.506057	-0.000296
1172	1.1651e+02	-6.6688	-42.357628	0.000689	6.890041	2.334409	-0.000276
1173	1.1661e+02	-6.7089	-42.603893	0.000618	6.180772	2.094102	-0.000248
1174	1.1671e+02	-6.7426	-42.894567	0.000730	7.295337	2.471727	-0.000292
1175	1.1681e+02	-6.7779	-43.140832	0.000618	6.180772	2.094102	-0.000248
1176	1.1691e+02	-6.8228	-43.415358	0.000689	6.890041	2.334409	-0.000276
1177	1.1701e+02	-6.8645	-43.673734	0.000648	6.484744	2.197091	-0.000260
1178	1.1711e+02	-6.9078	-43.992668	0.000800	8.004606	2.712034	-0.000321
1179	1.1721e+02	-6.9447	-44.210673	0.000547	5.471503	1.853795	-0.000219
1180	1.1731e+02	-6.9864	-44.529607	0.000800	8.004606	2.712034	-0.000321
1181	1.1741e+02	-7.0297	-44.755687	0.000567	5.674151	1.922455	-0.000227
1182	1.1751e+02	-7.0666	-45.078658	0.000811	8.105930	2.746364	-0.000325
1183	1.1761e+02	-7.1084	-45.345109	0.000669	6.687393	2.265750	-0.000268
1184	1.1771e+02	-7.1404	-45.615597	0.000679	6.788717	2.300080	-0.000272
1185	1.1781e+02	-7.1838	-45.825528	0.000527	5.268855	1.785136	-0.000211
1186	1.1791e+02	-7.2303	-46.120239	0.000740	7.396662	2.506057	-0.000296
1187	1.1801e+02	-7.2656	-46.342281	0.000557	5.572827	1.888125	-0.000223
1188	1.1811e+02	-7.2977	-46.649103	0.000770	7.700634	2.609045	-0.000308
1189	1.1821e+02	-7.3394	-46.919592	0.000679	6.788717	2.300080	-0.000272
1190	1.1831e+02	-7.3779	-47.210265	0.000730	7.295337	2.471727	-0.000292
1191	1.1841e+02	-7.4180	-47.448456	0.000598	5.978124	2.025443	-0.000239
1192	1.1850e+02	-7.4613	-47.718944	0.000679	6.788717	2.300080	-0.000272
1193	1.1860e+02	-7.5046	-47.957135	0.000598	5.978124	2.025443	-0.000239
1194	1.1870e+02	-7.5335	-48.207438	0.000628	6.282096	2.128432	-0.000252
1195	1.1880e+02	-7.5864	-48.469852	0.000659	6.586069	2.231420	-0.000264
1196	1.1890e+02	-7.6169	-48.720154	0.000628	6.282096	2.128432	-0.000252
1197	1.1900e+02	-7.6538	-48.974494	0.000638	6.383420	2.162761	-0.000256
1198	1.1910e+02	-7.6987	-49.257093	0.000709	7.092689	2.403068	-0.000284
1199	1.1920e+02	-7.7436	-49.519507	0.000659	6.586069	2.231420	-0.000264
1200	1.1930e+02	-7.7709	-49.769809	0.000628	6.282096	2.128432	-0.000252
1201	1.1940e+02	-7.8206	-50.056446	0.000719	7.194013	2.437398	-0.000288
1202	1.1950e+02	-7.8591	-50.322897	0.000669	6.687393	2.265750	-0.000268
1203	1.1960e+02	-7.9041	-50.593385	0.000679	6.788717	2.300080	-0.000272
1204	1.1970e+02	-7.9281	-50.811390	0.000547	5.471503	1.853795	-0.000219
1205	1.1980e+02	-7.9746	-51.102064	0.000730	7.295337	2.471727	-0.000292
1206	1.1990e+02	-8.0244	-51.376589	0.000689	6.890041	2.334409	-0.000276
1207	1.2000e+02	-8.0565	-51.598632	0.000557	5.572827	1.888125	-0.000223
1208	1.2010e+02	-8.0950	-51.889306	0.000730	7.295337	2.471727	-0.000292
1209	1.2020e+02	-8.1431	-52.131534	0.000608	6.079448	2.059773	-0.000243
1210	1.2030e+02	-8.1736	-52.418170	0.000719	7.194013	2.437398	-0.000288
1211	1.2039e+02	-8.2185	-52.624064	0.000517	5.167531	1.750807	-0.000207
1212	1.2049e+02	-8.2490	-52.874367	0.000628	6.282096	2.128432	-0.000252
1213	1.2059e+02	-8.2987	-53.169078	0.000740	7.396662	2.506057	-0.000296
1214	1.2069e+02	-8.3372	-53.439566	0.000679	6.788717	2.300080	-0.000272
1215	1.2079e+02	-8.3789	-53.653534	0.000537	5.370179	1.819466	-0.000215
1216	1.2089e+02	-8.4190	-53.940171	0.000719	7.194013	2.437398	-0.000288
1217	1.2099e+02	-8.4591	-54.210659	0.000679	6.788717	2.300080	-0.000272
1218	1.2109e+02	-8.4976	-54.440775	0.000578	5.775475	1.956784	-0.000231
1219	1.2119e+02	-8.5377	-54.707226	0.000669	6.687393	2.265750	-0.000268
1220	1.2129e+02	-8.5810	-54.977714	0.000679	6.788717	2.300080	-0.000272
1221	1.2139e+02	-8.6179	-55.187646	0.000527	5.268855	1.785136	-0.000211
1222	1.2149e+02	-8.6548	-55.490431	0.000760	7.599310	2.574716	-0.000304
1223	1.2159e+02	-8.6917	-55.680176	0.000476	4.762234	1.613489	-0.000191
1224	1.2169e+02	-8.7415	-55.986998	0.000770	7.700634	2.609045	-0.000308
1225	1.2179e+02	-8.7703	-56.209041	0.000557	5.572827	1.888125	-0.000223
1226	1.2189e+02	-8.8137	-56.459343	0.000628	6.282096	2.128432	-0.000252
1227	1.2199e+02	-8.8538	-56.685423	0.000567	5.674151	1.922455	-0.000227
1228	1.2209e+02	-8.9019	-56.963985	0.000699	6.991365	2.368739	-0.000280
1229	1.2219e+02	-8.9372	-57.194102	0.000578	5.775475	1.956784	-0.000231
1230	1.2229e+02	-8.9789	-57.476702	0.000709	7.092689	2.403068	-0.000284
1231	1.2239e+02	-9.0174	-57.714893	0.000598	5.978124	2.025443	-0.000239
1232	1.2248e+02	-9.0527	-57.969232	0.000638	6.383420	2.162761	-0.000256
1233	1.2258e+02	-9.0960	-58.207423	0.000598	5.978124	2.025443	-0.000239
1234	1.2268e+02	-9.1265	-58.441577	0.000588	5.876800	1.991114	-0.000235
1235	1.2278e+02	-9.1810	-58.724176	0.000709	7.092689	2.403068	-0.000284
1236	1.2288e+02	-9.2243	-58.938145	0.000537	5.370179	1.819466	-0.000215
1237	1.2298e+02	-9.2548	-59.196521	0.000648	6.484744	2.197091	-0.000260
1238	1.2308e+02	-9.3013	-59.450861	0.000638	6.383420	2.162761	-0.000256
1239	1.2318e+02	-9.3414	-59.680978	0.000578	5.775475	1.956784	-0.000231
1240	1.2328e+02	-9.3783	-59.931280	0.000628	6.282096	2.128432	-0.000252
1241	1.2338e+02	-9.4152	-60.149285	0.000547	5.471503	1.853795	-0.000219
1242	1.2348e+02	-9.4489	-60.395551	0.000618	6.180772	2.094102	-0.000248
1243	1.2358e+02	-9.4922	-60.710447	0.000790	7.903282	2.677704	-0.000316
1244	1.2368e+02	-9.5243	-60.928453	0.000547	5.471503	1.853795	-0.000219
1245	1.2378e+02	-9.5741	-61.186829	0.000648	6.484744	2.197091	-0.000260
1246	1.2388e+02	-9.6094	-61.420983	0.000588	5.876800	1.991114	-0.000235
1247	1.2398e+02	-9.6559	-61.675323	0.000638	6.383420	2.162761	-0.000256
1248	1.2408e+02	-9.6896	-61.925625	0.000628	6.282096	2.128432	-0.000252
1249	1.2418e+02	-9.7345	-62.163816	0.000598	5.978124	2.025443	-0.000239
1250	1.2428e+02	-9.7746	-62.426230	0.000659	6.586069	2.231420	-0.000264
1251	1.2438e+02	-9.8099	-62.660384	0.000588	5.876800	1.991114	-0.000235
1252	1.2447e+02	-9.8436	-62.942983	0.000709	7.092689	2.403068	-0.000284
1253	1.2457e+02	-9.8933	-63.185211	0.000608	6.079448	2.059773	-0.000243
1254	1.2467e+02	-9.9302	-63.403217	0.000547	5.471503	1.853795	-0.000219
1255	1.2477e+02	-9.9719	-63.665631	0.000659	6.586069	2.231420	-0.000264
1256	1.2487e+02	-10.0040	-63.952267	0.000719	7.194013	2.437398	-0.000288
1257	1.2497e+02	-10.0521	-64.178347	0.000567	5.674151	1.922455	-0.000227
1258	1.2507e+02	-10.0922	-64.452872	0.000689	6.890041	2.334409	-0.000276
1259	1.2517e+02	-10.1259	-64.662803	0.000527	5.268855	1.785136	-0.000211
1260	1.2527e+02	-10.1789	-64.929254	0.000669	6.687393	2.265750	-0.000268
1261	1.2537e+02	-10.2109	-65.167445	0.000598	5.978124	2.025443	-0.000239
1262	1.2547e+02	-10.2382	-65.417747	0.000628	6.282096	2.128432	-0.000252
1263	1.2557e+02	-10.2960	-65.680161	0.000659	6.586069	2.231420	-0.000264
1264	1.2567e+02	-10.3361	-65.914315	0.000588	5.876800	1.991114	-0.000235
1265	1.2577e+02	-10.3730	-66.160580	0.000618	6.180772	2.094102	-0.000248
1266	1.2587e+02	-10.4099	-66.386660	0.000567	5.674151	1.922455	-0.000227
1267	1.2597e+02	-10.4516	-66.641000	0.000638	6.383420	2.162761	-0.000256
1268	1.2607e+02	-10.4917	-66.927636	0.000719	7.194013	2.437398	-0.000288
1269	1.2617e+02	-10.5270	-67.121419	0.000486	4.863558	1.647818	-0.000195
1270	1.2627e+02	-10.5767	-67.395944	0.000689	6.890041	2.334409	-0.000276
1271	1.2636e+02	-10.6072	-67.646246	0.000628	6.282096	2.128432	-0.000252
1272	1.2646e+02	-10.6537	-67.852140	0.000517	5.167531	1.750807	-0.000207
1273	1.2656e+02	-10.6938	-68.110517	0.000648	6.484744	2.197091	-0.000260
1274	1.2666e+02	-10.7307	-68.344671	0.000588	5.876800	1.991114	-0.000235
1275	1.2676e+02	-10.7628	-68.611122	0.000669	6.687393	2.265750	-0.000268
1276	1.2686e+02	-10.8141	-68.869499	0.000648	6.484744	2.197091	-0.000260
1277	1.2696e+02	-10.8655	-69.107690	0.000598	5.978124	2.025443	-0.000239
1278	1.2706e+02	-10.8751	-69.349918	0.000608	6.079448	2.059773	-0.000243
1279	1.2716e+02	-10.9328	-69.571960	0.000557	5.572827	1.888125	-0.000223
1280	1.2726e+02	-10.9681	-69.846485	0.000689	6.890041	2.334409	-0.000276
1281	1.2736e+02	-11.0131	-70.056416	0.000527	5.268855	1.785136	-0.000211
1282	1.2746e+02	-11.0484	-70.339016	0.000709	7.092689	2.403068	-0.000284
1283	1.2756e+02	-11.0901	-70.569133	0.000578	5.775475	1.956784	-0.000231
1284	1.2766e+02	-11.1141	-70.839621	0.000679	6.788717	2.300080	-0.000272
1285	1.2776e+02	-11.1671	-71.025329	0.000466	4.660910	1.579159	-0.000187
1286	1.2786e+02	-11.2136	-71.336188	0.000780	7.801958	2.643375	-0.000312
1287	1.2796e+02	-11.2441	-71.558231	0.000557	5.572827	1.888125	-0.000223
1288	1.2806e+02	-11.2922	-71.756051	0.000496	4.964882	1.682148	-0.000199
1289	1.2816e+02	-11.3227	-72.022502	0.000669	6.687393	2.265750	-0.000268
1290	1.2826e+02	-11.3628	-72.280878	0.000648	6.484744	2.197091	-0.000260
1291	1.2835e+02	-11.4109	-72.494846	0.000537	5.370179	1.819466	-0.000215
1292	1.2845e+02	-11.4510	-72.737075	0.000608	6.079448	2.059773	-0.000243
1293	1.2855e+02	-11.4847	-73.035823	0.000750	7.497986	2.540386	-0.000300
1294	1.2865e+02	-11.5312	-73.265939	0.000578	5.775475	1.956784	-0.000231
1295	1.2875e+02	-11.5601	-73.508168	0.000608	6.079448	2.059773	-0.000243
1296	1.2885e+02	-11.6082	-73.701950	0.000486	4.863558	1.647818	-0.000195
1297	1.2895e+02	-11.6403	-73.964364	0.000659	6.586069	2.231420	-0.000264
1298	1.2905e+02	-11.6868	-74.174295	0.000527	5.268855	1.785136	-0.000211
1299	1.2915e+02	-11.7269	-74.477080	0.000760	7.599310	2.574716	-0.000304
1300	1.2925e+02	-11.7670	-74.699123	0.000557	5.572827	1.888125	-0.000223
1301	1.2935e+02	-11.7975	-74.921165	0.000557	5.572827	1.888125	-0.000223
1302	1.2945e+02	-11.8408	-75.151282	0.000578	5.775475	1.956784	-0.000231
1303	1.2955e+02	-11.8858	-75.437918	0.000719	7.194013	2.437398	-0.000288
1304	1.2965e+02	-11.9194	-75.668035	0.000578	5.775475	1.956784	-0.000231
1305	1.2975e+02	-11.9612	-75.877966	0.000527	5.268855	1.785136	-0.000211
1306	1.2985e+02	-12.0045	-76.156529	0.000699	6.991365	2.368739	-0.000280
1307	1.2995e+02	-12.0398	-76.386645	0.000578	5.775475	1.956784	-0.000231
1308	1.3005e+02	-12.0879	-76.608688	0.000557	5.572827	1.888125	-0.000223
1309	1.3015e+02	-12.1264	-76.927621	0.000800	8.004606	2.712034	-0.000321
1310	1.3025e+02	-12.1601	-77.137553	0.000527	5.268855	1.785136	-0.000211
1311	1.3034e+02	-12.2018	-77.347484	0.000527	5.268855	1.785136	-0.000211
1312	1.3044e+02	-12.2371	-77.630083	0.000709	7.092689	2.403068	-0.000284
1313	1.3054e+02	-12.2868	-77.872311	0.000608	6.079448	2.059773	-0.000243
1314	1.3064e+02	-12.3221	-78.118577	0.000618	6.180772	2.094102	-0.000248
1315	1.3074e+02	-12.3654	-78.340619	0.000557	5.572827	1.888125	-0.000223
1316	1.3084e+02	-12.3975	-78.558624	0.000547	5.471503	1.853795	-0.000219
1317	1.3094e+02	-12.4408	-78.796815	0.000598	5.978124	2.025443	-0.000239
1318	1.3104e+02	-12.4825	-79.026932	0.000578	5.775475	1.956784	-0.000231
1319	1.3114e+02	-12.5242	-79.277234	0.000628	6.282096	2.128432	-0.000252
1320	1.3124e+02	-12.5611	-79.543685	0.000669	6.687393	2.265750	-0.000268
1321	1.3134e+02	-12.6045	-79.781876	0.000598	5.978124	2.025443	-0.000239
1322	1.3144e+02	-12.6333	-80.016030	0.000588	5.876800	1.991114	-0.000235
1323	1.3154e+02	-12.6879	-80.246147	0.000578	5.775475	1.956784	-0.000231
1324	1.3164e+02	-12.7200	-80.524709	0.000699	6.991365	2.368739	-0.000280
1325	1.3174e+02	-12.7633	-80.722529	0.000496	4.964882	1.682148	-0.000199
1326	1.3184e+02	-12.8002	-80.976869	0.000638	6.383420	2.162761	-0.000256
1327	1.3194e+02	-12.8387	-81.211023	0.000588	5.876800	1.991114	-0.000235
1328	1.3204e+02	-12.8772	-81.441139	0.000578	5.775475	1.956784	-0.000231
1329	1.3214e+02	-12.9189	-81.715664	0.000689	6.890041	2.334409	-0.000276
1330	1.3224e+02	-12.9638	-81.909447	0.000486	4.863558	1.647818	-0.000195
1331	1.3234e+02	-12.9959	-82.163787	0.000638	6.383420	2.162761	-0.000256
1332	1.3243e+02	-13.0376	-82.361606	0.000496	4.964882	1.682148	-0.000199
1333	1.3253e+02	-13.0777	-82.607871	0.000618	6.180772	2.094102	-0.000248
1334	1.3263e+02	-13.1274	-82.809728	0.000507	5.066207	1.716477	-0.000203
1335	1.3273e+02	-13.1627	-83.104439	0.000740	7.396662	2.506057	-0.000296
1336	1.3283e+02	-13.2028	-83.322444	0.000547	5.471503	1.853795	-0.000219
1337	1.3293e+02	-13.2413	-83.540450	0.000547	5.471503	1.853795	-0.000219
1338	1.3303e+02	-13.2718	-83.774604	0.000588	5.876800	1.991114	-0.000235
1339	1.3313e+02	-13.3167	-84.041055	0.000669	6.687393	2.265750	-0.000268
1340	1.3323e+02	-13.3633	-84.255023	0.000537	5.370179	1.819466	-0.000215
1341	1.3333e+02	-13.3969	-84.464954	0.000527	5.268855	1.785136	-0.000211
1342	1.3343e+02	-13.4499	-84.707182	0.000608	6.079448	2.059773	-0.000243
1343	1.3353e+02	-13.4788	-84.909039	0.000507	5.066207	1.716477	-0.000203
1344	1.3363e+02	-13.5108	-85.175490	0.000669	6.687393	2.265750	-0.000268
1345	1.3373e+02	-13.5622	-85.373309	0.000496	4.964882	1.682148	-0.000199
1346	1.3383e+02	-13.5911	-85.659946	0.000719	7.194013	2.437398	-0.000288
1347	1.3393e+02	-13.6408	-85.873914	0.000537	5.370179	1.819466	-0.000215
1348	1.3403e+02	-13.6745	-86.108068	0.000588	5.876800	1.991114	-0.000235
1349	1.3413e+02	-13.7210	-86.301851	0.000486	4.863558	1.647818	-0.000195
1350	1.3423e+02	-13.7531	-86.552153	0.000628	6.282096	2.128432	-0.000252
1351	1.3432e+02	-13.8012	-86.802456	0.000628	6.282096	2.128432	-0.000252
1352	1.3442e+02	-13.8365	-86.984127	0.000456	4.559586	1.544830	-0.000183
1353	1.3452e+02	-13.8782	-87.246540	0.000659	6.586069	2.231420	-0.000264
1354	1.3462e+02	-13.9135	-87.456471	0.000527	5.268855	1.785136	-0.000211
1355	1.3472e+02	-13.9488	-87.702737	0.000618	6.180772	2.094102	-0.000248
1356	1.3482e+02	-13.9905	-87.953039	0.000628	6.282096	2.128432	-0.000252
1357	1.3492e+02	-14.0370	-88.158933	0.000517	5.167531	1.750807	-0.000207
1358	1.3502e+02	-14.0691	-88.372901	0.000537	5.370179	1.819466	-0.000215
1359	1.3512e+02	-14.1237	-88.627241	0.000638	6.383420	2.162761	-0.000256
1360	1.3522e+02	-14.1686	-88.893692	0.000669	6.687393	2.265750	-0.000268
1361	1.3532e+02	-14.1975	-89.111697	0.000547	5.471503	1.853795	-0.000219
1362	1.3542e+02	-14.2408	-89.309517	0.000496	4.964882	1.682148	-0.000199
1363	1.3552e+02	-14.2729	-89.519448	0.000527	5.268855	1.785136	-0.000211
1364	1.3562e+02	-14.3130	-89.733416	0.000537	5.370179	1.819466	-0.000215
1365	1.3572e+02	-14.3611	-89.995830	0.000659	6.586069	2.231420	-0.000264
1366	1.3582e+02	-14.3916	-90.205761	0.000527	5.268855	1.785136	-0.000211
1367	1.3592e+02	-14.4349	-90.443952	0.000598	5.978124	2.025443	-0.000239
1368	1.3602e+02	-14.4702	-90.678106	0.000588	5.876800	1.991114	-0.000235
1369	1.3612e+02	-14.5071	-90.884000	0.000517	5.167531	1.750807	-0.000207
1370	1.3622e+02	-14.5488	-91.122191	0.000598	5.978124	2.025443	-0.000239
1371	1.3631e+02	-14.5937	-91.344233	0.000557	5.572827	1.888125	-0.000223
1372	1.3641e+02	-14.6306	-91.578387	0.000588	5.876800	1.991114	-0.000235
1373	1.3651e+02	-14.6739	-91.812541	0.000588	5.876800	1.991114	-0.000235
1374	1.3661e+02	-14.7156	-92.074955	0.000659	6.586069	2.231420	-0.000264
1375	1.3671e+02	-14.7670	-92.288923	0.000537	5.370179	1.819466	-0.000215
1376	1.3681e+02	-14.7910	-92.494817	0.000517	5.167531	1.750807	-0.000207
1377	1.3691e+02	-14.8295	-92.757231	0.000659	6.586069	2.231420	-0.000264
1378	1.3701e+02	-14.8761	-92.938902	0.000456	4.559586	1.544830	-0.000183
1379	1.3711e+02	-14.9146	-93.185167	0.000618	6.180772	2.094102	-0.000248
1380	1.3721e+02	-14.9547	-93.399135	0.000537	5.370179	1.819466	-0.000215
1381	1.3731e+02	-14.9867	-93.621178	0.000557	5.572827	1.888125	-0.000223
1382	1.3741e+02	-15.0445	-93.859369	0.000598	5.978124	2.025443	-0.000239
1383	1.3751e+02	-15.0830	-94.137931	0.000699	6.991365	2.368739	-0.000280
1384	1.3761e+02	-15.1135	-94.347862	0.000527	5.268855	1.785136	-0.000211
1385	1.3771e+02	-15.1584	-94.594127	0.000618	6.180772	2.094102	-0.000248
1386	1.3781e+02	-15.1969	-94.816170	0.000557	5.572827	1.888125	-0.000223
1387	1.3791e+02	-15.2242	-95.034175	0.000547	5.471503	1.853795	-0.000219
1388	1.3801e+02	-15.2691	-95.268329	0.000588	5.876800	1.991114	-0.000235
1389	1.3811e+02	-15.3124	-95.494409	0.000567	5.674151	1.922455	-0.000227
1390	1.3821e+02	-15.3509	-95.696266	0.000507	5.066207	1.716477	-0.000203
1391	1.3831e+02	-15.3926	-95.914271	0.000547	5.471503	1.853795	-0.000219
1392	1.3840e+02	-15.4295	-96.152462	0.000598	5.978124	2.025443	-0.000239
1393	1.3850e+02	-15.4744	-96.338170	0.000466	4.660910	1.579159	-0.000187
1394	1.3860e+02	-15.5177	-96.596547	0.000648	6.484744	2.197091	-0.000260
1395	1.3870e+02	-15.5450	-96.802441	0.000517	5.167531	1.750807	-0.000207
1396	1.3880e+02	-15.5899	-97.036595	0.000588	5.876800	1.991114	-0.000235
1397	1.3890e+02	-15.6284	-97.266711	0.000578	5.775475	1.956784	-0.000231
1398	1.3900e+02	-15.6685	-97.517014	0.000628	6.282096	2.128432	-0.000252
1399	1.3910e+02	-15.7183	-97.714833	0.000496	4.964882	1.682148	-0.000199
1400	1.3920e+02	-15.7536	-97.973210	0.000648	6.484744	2.197091	-0.000260
1401	1.3930e+02	-15.7921	-98.187178	0.000537	5.370179	1.819466	-0.000215
1402	1.3940e+02	-15.8145	-98.409221	0.000557	5.572827	1.888125	-0.000223
1403	1.3950e+02	-15.8739	-98.627226	0.000547	5.471503	1.853795	-0.000219
1404	1.3960e+02	-15.9140	-98.897714	0.000679	6.788717	2.300080	-0.000272
1405	1.3970e+02	-15.9541	-99.111682	0.000537	5.370179	1.819466	-0.000215
1406	1.3980e+02	-15.9878	-99.309502	0.000496	4.964882	1.682148	-0.000199
1407	1.3990e+02	-16.0375	-99.519433	0.000527	5.268855	1.785136	-0.000211
1408	1.4000e+02	-16.0760	-99.769735	0.000628	6.282096	2.128432	-0.000252
1409	1.4010e+02	-16.1129	-99.991778	0.000557	5.572827	1.888125	-0.000223
1410	1.4020e+02	-16.1434	-100.246118	0.000638	6.383420	2.162761	-0.000256
1411	1.4029e+02	-16.1931	-100.480271	0.000588	5.876800	1.991114	-0.000235
1412	1.4039e+02	-16.2188	-100.714425	0.000588	5.876800	1.991114	-0.000235
1413	1.4049e+02	-16.2669	-100.968765	0.000638	6.383420	2.162761	-0.000256
1414	1.4059e+02	-16.3038	-101.219067	0.000628	6.282096	2.128432	-0.000252
1415	1.4069e+02	-16.3503	-101.380553	0.000405	4.052965	1.373182	-0.000162
1416	1.4079e+02	-16.3937	-101.651041	0.000679	6.788717	2.300080	-0.000272
1417	1.4089e+02	-16.4386	-101.889232	0.000598	5.978124	2.025443	-0.000239
1418	1.4099e+02	-16.4642	-102.139534	0.000628	6.282096	2.128432	-0.000252
1419	1.4109e+02	-16.5108	-102.305057	0.000415	4.154289	1.407511	-0.000166
1420	1.4119e+02	-16.5428	-102.595731	0.000730	7.295337	2.471727	-0.000292
1421	1.4129e+02	-16.5830	-102.850070	0.000638	6.383420	2.162761	-0.000256
1422	1.4139e+02	-16.6199	-103.035778	0.000466	4.660910	1.579159	-0.000187
1423	1.4149e+02	-16.6648	-103.265895	0.000578	5.775475	1.956784	-0.000231
1424	1.4159e+02	-16.7145	-103.524272	0.000648	6.484744	2.197091	-0.000260
1425	1.4169e+02	-16.7370	-103.782648	0.000648	6.484744	2.197091	-0.000260
1426	1.4179e+02	-16.7835	-104.036988	0.000638	6.383420	2.162761	-0.000256
1427	1.4189e+02	-16.8316	-104.238845	0.000507	5.066207	1.716477	-0.000203
1428	1.4199e+02	-16.8621	-104.509333	0.000679	6.788717	2.300080	-0.000272
1429	1.4209e+02	-16.9054	-104.731375	0.000557	5.572827	1.888125	-0.000223
1430	1.4219e+02	-16.9439	-104.909009	0.000446	4.458262	1.510500	-0.000179
1431	1.4228e+02	-16.9872	-105.183535	0.000689	6.890041	2.334409	-0.000276
1432	1.4238e+02	-17.0225	-105.462097	0.000699	6.991365	2.368739	-0.000280
1433	1.4248e+02	-17.0642	-105.700288	0.000598	5.978124	2.025443	-0.000239
1434	1.4258e+02	-17.1188	-105.914256	0.000537	5.370179	1.819466	-0.000215
1435	1.4268e+02	-17.1541	-106.208967	0.000740	7.396662	2.506057	-0.000296
1436	1.4278e+02	-17.1813	-106.443121	0.000588	5.876800	1.991114	-0.000235
1437	1.4288e+02	-17.2182	-106.640941	0.000496	4.964882	1.682148	-0.000199
1438	1.4298e+02	-17.2631	-106.911429	0.000679	6.788717	2.300080	-0.000272
1439	1.4308e+02	-17.3193	-107.149620	0.000598	5.978124	2.025443	-0.000239
1440	1.4318e+02	-17.3450	-107.395885	0.000618	6.180772	2.094102	-0.000248
1441	1.4328e+02	-17.3803	-107.654262	0.000648	6.484744	2.197091	-0.000260
1442	1.4338e+02	-17.4188	-107.856118	0.000507	5.066207	1.716477	-0.000203
1443	1.4348e+02	-17.4685	-108.114495	0.000648	6.484744	2.197091	-0.000260
1444	1.4358e+02	-17.5022	-108.425355	0.000780	7.801958	2.643375	-0.000312
1445	1.4368e+02	-17.5471	-108.643360	0.000547	5.471503	1.853795	-0.000219
1446	1.4378e+02	-17.5792	-108.865402	0.000557	5.572827	1.888125	-0.000223
1447	1.4388e+02	-17.6209	-109.123779	0.000648	6.484744	2.197091	-0.000260
1448	1.4398e+02	-17.6578	-109.430601	0.000770	7.700634	2.609045	-0.000308
1449	1.4408e+02	-17.7027	-109.656681	0.000567	5.674151	1.922455	-0.000227
1450	1.4418e+02	-17.7332	-109.886798	0.000578	5.775475	1.956784	-0.000231
1451	1.4428e+02	-17.7765	-110.100766	0.000537	5.370179	1.819466	-0.000215
1452	1.4437e+02	-17.8198	-110.367217	0.000669	6.687393	2.265750	-0.000268
1453	1.4447e+02	-17.8679	-110.609445	0.000608	6.079448	2.059773	-0.000243
1454	1.4457e+02	-17.9064	-110.892044	0.000709	7.092689	2.403068	-0.000284
1455	1.4467e+02	-17.9417	-111.122161	0.000578	5.775475	1.956784	-0.000231
1456	1.4477e+02	-17.9754	-111.396686	0.000689	6.890041	2.334409	-0.000276
1457	1.4487e+02	-18.0316	-111.679286	0.000709	7.092689	2.403068	-0.000284
1458	1.4497e+02	-18.0637	-111.905366	0.000567	5.674151	1.922455	-0.000227
1459	1.4507e+02	-18.1006	-112.167779	0.000659	6.586069	2.231420	-0.000264
1460	1.4517e+02	-18.1535	-112.418082	0.000628	6.282096	2.128432	-0.000252
1461	1.4527e+02	-18.1872	-112.692607	0.000689	6.890041	2.334409	-0.000276
1462	1.4537e+02	-18.2193	-112.959058	0.000669	6.687393	2.265750	-0.000268
1463	1.4547e+02	-18.2594	-113.229546	0.000679	6.788717	2.300080	-0.000272
1464	1.4557e+02	-18.3043	-113.431403	0.000507	5.066207	1.716477	-0.000203
1465	1.4567e+02	-18.3428	-113.746299	0.000790	7.903282	2.677704	-0.000316
1466	1.4577e+02	-18.3909	-113.996602	0.000628	6.282096	2.128432	-0.000252
1467	1.4587e+02	-18.4262	-114.254979	0.000648	6.484744	2.197091	-0.000260
1468	1.4597e+02	-18.4519	-114.497207	0.000608	6.079448	2.059773	-0.000243
1469	1.4607e+02	-18.4888	-114.767695	0.000679	6.788717	2.300080	-0.000272
1470	1.4617e+02	-18.5401	-115.046257	0.000699	6.991365	2.368739	-0.000280
1471	1.4626e+02	-18.5818	-115.336931	0.000730	7.295337	2.471727	-0.000292
1472	1.4636e+02	-18.6235	-115.591270	0.000638	6.383420	2.162761	-0.000256
1473	1.4646e+02	-18.6652	-115.837536	0.000618	6.180772	2.094102	-0.000248
1474	1.4656e+02	-18.6941	-116.124172	0.000719	7.194013	2.437398	-0.000288
1475	1.4666e+02	-18.7374	-116.410809	0.000719	7.194013	2.437398	-0.000288
1476	1.4676e+02	-18.7775	-116.673223	0.000659	6.586069	2.231420	-0.000264
1477	1.4686e+02	-18.8257	-116.959859	0.000719	7.194013	2.437398	-0.000288
1478	1.4696e+02	-18.8578	-117.250533	0.000730	7.295337	2.471727	-0.000292
1479	1.4706e+02	-18.9011	-117.512947	0.000659	6.586069	2.231420	-0.000264
1480	1.4716e+02	-18.9412	-117.779398	0.000669	6.687393	2.265750	-0.000268
1481	1.4726e+02	-18.9893	-118.021626	0.000608	6.079448	2.059773	-0.000243
1482	1.4736e+02	-19.0262	-118.340560	0.000800	8.004606	2.712034	-0.000321
1483	1.4746e+02	-19.0535	-118.594899	0.000638	6.383420	2.162761	-0.000256
1484	1.4756e+02	-19.1048	-118.897685	0.000760	7.599310	2.574716	-0.000304
1485	1.4766e+02	-19.1321	-119.172210	0.000689	6.890041	2.334409	-0.000276
1486	1.4776e+02	-19.1770	-119.458846	0.000719	7.194013	2.437398	-0.000288
1487	1.4786e+02	-19.2171	-119.713186	0.000638	6.383420	2.162761	-0.000256
1488	1.4796e+02	-19.2652	-120.011934	0.000750	7.497986	2.540386	-0.000300
1489	1.4806e+02	-19.2925	-120.266274	0.000638	6.383420	2.162761	-0.000256
1490	1.4816e+02	-19.3310	-120.585207	0.000800	8.004606	2.712034	-0.000321
1491	1.4825e+02	-19.3807	-120.879918	0.000740	7.396662	2.506057	-0.000296
1492	1.4835e+02	-19.4144	-121.134258	0.000638	6.383420	2.162761	-0.000256
1493	1.4845e+02	-19.4529	-121.461266	0.000821	8.207255	2.780693	-0.000329
1494	1.4855e+02	-19.4914	-121.699457	0.000598	5.978124	2.025443	-0.000239
1495	1.4865e+02	-19.5396	-121.998205	0.000750	7.497986	2.540386	-0.000300
1496	1.4875e+02	-19.5765	-122.284842	0.000719	7.194013	2.437398	-0.000288
1497	1.4885e+02	-19.6166	-122.595701	0.000780	7.801958	2.643375	-0.000312
1498	1.4895e+02	-19.6631	-122.854078	0.000648	6.484744	2.197091	-0.000260
1499	1.4905e+02	-19.6936	-123.177049	0.000811	8.105930	2.746364	-0.000325
1500	1.4915e+02	-19.7369	-123.479834	0.000760	7.599310	2.574716	-0.000304
1501	1.4925e+02	-19.7738	-123.713988	0.000588	5.876800	1.991114	-0.000235
1502	1.4935e+02	-19.8219	-124.053107	0.000851	8.511227	2.883682	-0.000341
1503	1.4945e+02	-19.8556	-124.319558	0.000669	6.687393	2.265750	-0.000268
1504	1.4955e+02	-19.8845	-124.630417	0.000780	7.801958	2.643375	-0.000312
1505	1.4965e+02	-19.9326	-124.884757	0.000638	6.383420	2.162761	-0.000256
1506	1.4975e+02	-19.9711	-125.211765	0.000821	8.207255	2.780693	-0.000329
1507	1.4985e+02	-20.0160	-125.514550	0.000760	7.599310	2.574716	-0.000304
1508	1.4995e+02	-19.9663	-125.498402	0.000041	0.405297	0.137318	0.000016
1509	1.5005e+02	-19.9326	-125.397473	0.000253	2.533103	0.858239	0.000101
1510	1.5015e+02	-19.8893	-125.393436	0.000010	0.101324	0.034330	0.000004
1511	1.5025e+02	-19.8556	-125.340953	0.000132	1.317214	0.446284	0.000053
1512	1.5034e+02	-19.8203	-125.336916	0.000010	0.101324	0.034330	0.000004
1513	1.5044e+02	-19.7706	-125.219839	0.000294	2.938400	0.995557	0.000118
1514	1.5054e+02	-19.7224	-125.171394	0.000122	1.215890	0.411955	0.000049
1515	1.5064e+02	-19.6936	-125.050279	0.000304	3.039724	1.029886	0.000122
1516	1.5074e+02	-19.6551	-124.981648	0.000172	1.722510	0.583602	0.000069
1517	1.5084e+02	-19.6230	-124.896868	0.000213	2.127807	0.720920	0.000085
1518	1.5094e+02	-19.5765	-124.816126	0.000203	2.026483	0.686591	0.000081
1519	1.5104e+02	-19.5315	-124.751531	0.000162	1.621186	0.549273	0.000065
1520	1.5114e+02	-19.4930	-124.646566	0.000263	2.634427	0.892568	0.000105
1521	1.5124e+02	-19.4658	-124.549675	0.000243	2.431779	0.823909	0.000097
1522	1.5134e+02	-19.4144	-124.428561	0.000304	3.039724	1.029886	0.000122
1523	1.5144e+02	-19.3791	-124.327632	0.000253	2.533103	0.858239	0.000101
1524	1.5154e+02	-19.3422	-124.230741	0.000243	2.431779	0.823909	0.000097
1525	1.5164e+02	-19.2989	-124.154035	0.000193	1.925158	0.652261	0.000077
1526	1.5174e+02	-19.2604	-124.028884	0.000314	3.141048	1.064216	0.000126
1527	1.5184e+02	-19.2171	-123.927956	0.000253	2.533103	0.858239	0.000101
1528	1.5194e+02	-19.1850	-123.818953	0.000274	2.735752	0.926898	0.000110
1529	1.5204e+02	-19.1385	-123.653431	0.000415	4.154289	1.407511	0.000166
1530	1.5214e+02	-19.0952	-123.596911	0.000142	1.418538	0.480614	0.000057
1531	1.5224e+02	-19.0647	-123.435425	0.000405	4.052965	1.373182	0.000162
1532	1.5233e+02	-19.0278	-123.318348	0.000294	2.938400	0.995557	0.000118
1533	1.5243e+02	-18.9845	-123.144751	0.000436	4.356938	1.476170	0.000174
1534	1.5253e+02	-18.9364	-123.059972	0.000213	2.127807	0.720920	0.000085
1535	1.5263e+02	-18.8995	-122.930783	0.000324	3.242372	1.098545	0.000130
1536	1.5273e+02	-18.8610	-122.805632	0.000314	3.141048	1.064216	0.000126
1537	1.5283e+02	-18.8193	-122.692592	0.000284	2.837076	0.961227	0.000114
1538	1.5293e+02	-18.7791	-122.563404	0.000324	3.242372	1.098545	0.000130
1539	1.5303e+02	-18.7439	-122.389807	0.000436	4.356938	1.476170	0.000174
1540	1.5313e+02	-18.6957	-122.292916	0.000243	2.431779	0.823909	0.000097
1541	1.5323e+02	-18.6604	-122.167765	0.000314	3.141048	1.064216	0.000126
1542	1.5333e+02	-18.6235	-122.022428	0.000365	3.647669	1.235864	0.000146
1543	1.5343e+02	-18.5818	-121.877091	0.000365	3.647669	1.235864	0.000146
1544	1.5353e+02	-18.5449	-121.747902	0.000324	3.242372	1.098545	0.000130
1545	1.5363e+02	-18.5000	-121.626788	0.000304	3.039724	1.029886	0.000122
1546	1.5373e+02	-18.4535	-121.441080	0.000466	4.660910	1.579159	0.000187
1547	1.5383e+02	-18.4214	-121.340152	0.000253	2.533103	0.858239	0.000101
1548	1.5393e+02	-18.3829	-121.190778	0.000375	3.748993	1.270193	0.000150
1549	1.5403e+02	-18.3380	-121.065627	0.000314	3.141048	1.064216	0.000126
1550	1.5413e+02	-18.2995	-120.879918	0.000466	4.660910	1.579159	0.000187
1551	1.5422e+02	-18.2626	-120.750730	0.000324	3.242372	1.098545	0.000130
1552	1.5432e+02	-18.2161	-120.661913	0.000223	2.229131	0.755250	0.000089
1553	1.5442e+02	-18.1808	-120.472168	0.000476	4.762234	1.613489	0.000191
1554	1.5452e+02	-18.1359	-120.334905	0.000345	3.445020	1.167205	0.000138
1555	1.5462e+02	-18.1022	-120.205717	0.000324	3.242372	1.098545	0.000130
1556	1.5472e+02	-18.0637	-120.011934	0.000486	4.863558	1.647818	0.000195
1557	1.5482e+02	-18.0268	-119.866597	0.000365	3.647669	1.235864	0.000146
1558	1.5492e+02	-17.9802	-119.717223	0.000375	3.748993	1.270193	0.000150
1559	1.5502e+02	-17.9482	-119.608221	0.000274	2.735752	0.926898	0.000110
1560	1.5512e+02	-17.9016	-119.386178	0.000557	5.572827	1.888125	0.000223
1561	1.5522e+02	-17.8647	-119.273138	0.000284	2.837076	0.961227	0.000114
1562	1.5532e+02	-17.8198	-119.091467	0.000456	4.559586	1.544830	0.000183
1563	1.5542e+02	-17.7861	-118.917870	0.000436	4.356938	1.476170	0.000174
1564	1.5552e+02	-17.7412	-118.788682	0.000324	3.242372	1.098545	0.000130
1565	1.5562e+02	-17.7043	-118.635271	0.000385	3.850317	1.304523	0.000154
1566	1.5572e+02	-17.6642	-118.498008	0.000345	3.445020	1.167205	0.000138
1567	1.5582e+02	-17.6273	-118.348634	0.000375	3.748993	1.270193	0.000150
1568	1.5592e+02	-17.5792	-118.158889	0.000476	4.762234	1.613489	0.000191
1569	1.5602e+02	-17.5423	-117.957032	0.000507	5.066207	1.716477	0.000203
1570	1.5612e+02	-17.5054	-117.876289	0.000203	2.026483	0.686591	0.000081
1571	1.5622e+02	-17.4621	-117.674432	0.000507	5.066207	1.716477	0.000203
1572	1.5631e+02	-17.4220	-117.508910	0.000415	4.154289	1.407511	0.000166
1573	1.5641e+02	-17.3915	-117.343387	0.000415	4.154289	1.407511	0.000166
1574	1.5651e+02	-17.3498	-117.202088	0.000355	3.546345	1.201534	0.000142
1575	1.5661e+02	-17.3113	-117.064825	0.000345	3.445020	1.167205	0.000138
1576	1.5671e+02	-17.2712	-116.887191	0.000446	4.458262	1.510500	0.000179
1577	1.5681e+02	-17.2311	-116.725706	0.000405	4.052965	1.373182	0.000162
1578	1.5691e+02	-17.1861	-116.592480	0.000334	3.343696	1.132875	0.000134
1579	1.5701e+02	-17.1364	-116.382549	0.000527	5.268855	1.785136	0.000211
1580	1.5711e+02	-17.1011	-116.229138	0.000385	3.850317	1.304523	0.000154
1581	1.5721e+02	-17.0706	-116.083801	0.000365	3.647669	1.235864	0.000146
1582	1.5731e+02	-17.0273	-115.910204	0.000436	4.356938	1.476170	0.000174
1583	1.5741e+02	-16.9936	-115.744682	0.000415	4.154289	1.407511	0.000166
1584	1.5751e+02	-16.9423	-115.575122	0.000426	4.255613	1.441841	0.000170
1585	1.5761e+02	-16.9022	-115.421711	0.000385	3.850317	1.304523	0.000154
1586	1.5771e+02	-16.8605	-115.272337	0.000375	3.748993	1.270193	0.000150
1587	1.5781e+02	-16.8252	-115.122963	0.000375	3.748993	1.270193	0.000150
1588	1.5791e+02	-16.7883	-114.937254	0.000466	4.660910	1.579159	0.000187
1589	1.5801e+02	-16.7514	-114.787880	0.000375	3.748993	1.270193	0.000150
1590	1.5811e+02	-16.7177	-114.606209	0.000456	4.559586	1.544830	0.000183
1591	1.5821e+02	-16.6616	-114.416464	0.000476	4.762234	1.613489	0.000191
1592	1.5830e+02	-16.6279	-114.283238	0.000334	3.343696	1.132875	0.000134
1593	1.5840e+02	-16.5894	-114.178273	0.000263	2.634427	0.892568	0.000105
1594	1.5850e+02	-16.5509	-113.956230	0.000557	5.572827	1.888125	0.000223
1595	1.5860e+02	-16.5092	-113.818968	0.000345	3.445020	1.167205	0.000138
1596	1.5870e+02	-16.4739	-113.665557	0.000385	3.850317	1.304523	0.000154
1597	1.5880e+02	-16.4225	-113.479848	0.000466	4.660910	1.579159	0.000187
1598	1.5890e+02	-16.3824	-113.306252	0.000436	4.356938	1.476170	0.000174
1599	1.5900e+02	-16.3471	-113.124581	0.000456	4.559586	1.544830	0.000183
1600	1.5910e+02	-16.3167	-112.946947	0.000446	4.458262	1.510500	0.000179
1601	1.5920e+02	-16.2685	-112.797573	0.000375	3.748993	1.270193	0.000150
1602	1.5930e+02	-16.2268	-112.644161	0.000385	3.850317	1.304523	0.000154
1603	1.5940e+02	-16.1915	-112.478639	0.000415	4.154289	1.407511	0.000166
1604	1.5950e+02	-16.1450	-112.329265	0.000375	3.748993	1.270193	0.000150
1605	1.5960e+02	-16.1097	-112.167779	0.000405	4.052965	1.373182	0.000162
1606	1.5970e+02	-16.0696	-111.978034	0.000476	4.762234	1.613489	0.000191
1607	1.5980e+02	-16.0247	-111.824623	0.000385	3.850317	1.304523	0.000154
1608	1.5990e+02	-15.9846	-111.638915	0.000466	4.660910	1.579159	0.000187
1609	1.6000e+02	-15.9573	-111.449169	0.000476	4.762234	1.613489	0.000191
1610	1.6010e+02	-15.9108	-111.332092	0.000294	2.938400	0.995557	0.000118
1611	1.6019e+02	-15.8691	-111.122161	0.000527	5.268855	1.785136	0.000211
1612	1.6029e+02	-15.8274	-110.972787	0.000375	3.748993	1.270193	0.000150
1613	1.6039e+02	-15.7905	-110.799190	0.000436	4.356938	1.476170	0.000174
1614	1.6049e+02	-15.7504	-110.637705	0.000405	4.052965	1.373182	0.000162
1615	1.6059e+02	-15.7151	-110.435848	0.000507	5.066207	1.716477	0.000203
1616	1.6069e+02	-15.6718	-110.294548	0.000355	3.546345	1.201534	0.000142
1617	1.6079e+02	-15.6284	-110.088654	0.000517	5.167531	1.750807	0.000207
1618	1.6089e+02	-15.5931	-109.943318	0.000365	3.647669	1.235864	0.000146
1619	1.6099e+02	-15.5466	-109.769721	0.000436	4.356938	1.476170	0.000174
1620	1.6109e+02	-15.5065	-109.624384	0.000365	3.647669	1.235864	0.000146
1621	1.6119e+02	-15.4712	-109.466936	0.000395	3.951641	1.338852	0.000158
1622	1.6129e+02	-15.4247	-109.289302	0.000446	4.458262	1.510500	0.000179
1623	1.6139e+02	-15.3910	-109.115705	0.000436	4.356938	1.476170	0.000174
1624	1.6149e+02	-15.3429	-108.925959	0.000476	4.762234	1.613489	0.000191
1625	1.6159e+02	-15.3108	-108.756400	0.000426	4.255613	1.441841	0.000170
1626	1.6169e+02	-15.2659	-108.586840	0.000426	4.255613	1.441841	0.000170
1627	1.6179e+02	-15.2258	-108.421317	0.000415	4.154289	1.407511	0.000166
1628	1.6189e+02	-15.1921	-108.243683	0.000446	4.458262	1.510500	0.000179
1629	1.6199e+02	-15.1456	-108.062012	0.000456	4.559586	1.544830	0.000183
1630	1.6209e+02	-15.1119	-107.823821	0.000598	5.978124	2.025443	0.000239
1631	1.6219e+02	-15.0702	-107.710781	0.000284	2.837076	0.961227	0.000114
1632	1.6228e+02	-15.0301	-107.504888	0.000517	5.167531	1.750807	0.000207
1633	1.6238e+02	-14.9948	-107.355514	0.000375	3.748993	1.270193	0.000150
1634	1.6248e+02	-14.9514	-107.153657	0.000507	5.066207	1.716477	0.000203
1635	1.6258e+02	-14.9049	-106.980060	0.000436	4.356938	1.476170	0.000174
1636	1.6268e+02	-14.8761	-106.834723	0.000365	3.647669	1.235864	0.000146
1637	1.6278e+02	-14.8327	-106.685349	0.000375	3.748993	1.270193	0.000150
1638	1.6288e+02	-14.7942	-106.471381	0.000537	5.370179	1.819466	0.000215
1639	1.6298e+02	-14.7541	-106.269524	0.000507	5.066207	1.716477	0.000203
1640	1.6308e+02	-14.7092	-106.140336	0.000324	3.242372	1.098545	0.000130
1641	1.6318e+02	-14.6739	-105.934442	0.000517	5.167531	1.750807	0.000207
1642	1.6328e+02	-14.6338	-105.781031	0.000385	3.850317	1.304523	0.000154
1643	1.6338e+02	-14.6033	-105.595322	0.000466	4.660910	1.579159	0.000187
1644	1.6348e+02	-14.5584	-105.413651	0.000456	4.559586	1.544830	0.000183
1645	1.6358e+02	-14.5119	-105.268314	0.000365	3.647669	1.235864	0.000146
1646	1.6368e+02	-14.4830	-105.066458	0.000507	5.066207	1.716477	0.000203
1647	1.6378e+02	-14.4429	-104.913046	0.000385	3.850317	1.304523	0.000154
1648	1.6388e+02	-14.3900	-104.739450	0.000436	4.356938	1.476170	0.000174
1649	1.6398e+02	-14.3563	-104.529519	0.000527	5.268855	1.785136	0.000211
1650	1.6408e+02	-14.3130	-104.343810	0.000466	4.660910	1.579159	0.000187
1651	1.6418e+02	-14.2857	-104.194436	0.000375	3.748993	1.270193	0.000150
1652	1.6427e+02	-14.2215	-104.020839	0.000436	4.356938	1.476170	0.000174
1653	1.6437e+02	-14.2023	-103.835131	0.000466	4.660910	1.579159	0.000187
1654	1.6447e+02	-14.1525	-103.685757	0.000375	3.748993	1.270193	0.000150
1655	1.6457e+02	-14.1189	-103.471789	0.000537	5.370179	1.819466	0.000215
1656	1.6467e+02	-14.0755	-103.302229	0.000426	4.255613	1.441841	0.000170
1657	1.6477e+02	-14.0306	-103.132670	0.000426	4.255613	1.441841	0.000170
1658	1.6487e+02	-13.9969	-102.995407	0.000345	3.445020	1.167205	0.000138
1659	1.6497e+02	-13.9456	-102.809699	0.000466	4.660910	1.579159	0.000187
1660	1.6507e+02	-13.9135	-102.583619	0.000567	5.674151	1.922455	0.000227
1661	1.6517e+02	-13.8702	-102.393874	0.000476	4.762234	1.613489	0.000191
1662	1.6527e+02	-13.8413	-102.252574	0.000355	3.546345	1.201534	0.000142
1663	1.6537e+02	-13.7900	-102.042643	0.000527	5.268855	1.785136	0.000211
1664	1.6547e+02	-13.7563	-101.865009	0.000446	4.458262	1.510500	0.000179
1665	1.6557e+02	-13.7178	-101.663152	0.000507	5.066207	1.716477	0.000203
1666	1.6567e+02	-13.6713	-101.473407	0.000476	4.762234	1.613489	0.000191
1667	1.6577e+02	-13.6328	-101.303847	0.000426	4.255613	1.441841	0.000170
1668	1.6587e+02	-13.5975	-101.138325	0.000415	4.154289	1.407511	0.000166
1669	1.6597e+02	-13.5558	-100.948579	0.000476	4.762234	1.613489	0.000191
1670	1.6607e+02	-13.5221	-100.742685	0.000517	5.167531	1.750807	0.000207
1671	1.6616e+02	-13.4756	-100.544866	0.000496	4.964882	1.682148	0.000199
1672	1.6626e+02	-13.4387	-100.387417	0.000395	3.951641	1.338852	0.000158
1673	1.6636e+02	-13.4002	-100.165375	0.000557	5.572827	1.888125	0.000223
1674	1.6646e+02	-13.3584	-99.975629	0.000476	4.762234	1.613489	0.000191
1675	1.6656e+02	-13.3167	-99.826255	0.000375	3.748993	1.270193	0.000150
1676	1.6666e+02	-13.2830	-99.600176	0.000567	5.674151	1.922455	0.000227
1677	1.6676e+02	-13.2413	-99.394282	0.000517	5.167531	1.750807	0.000207
1678	1.6686e+02	-13.1932	-99.240871	0.000385	3.850317	1.304523	0.000154
1679	1.6696e+02	-13.1691	-99.055162	0.000466	4.660910	1.579159	0.000187
1680	1.6706e+02	-13.1146	-98.873491	0.000456	4.559586	1.544830	0.000183
1681	1.6716e+02	-13.0761	-98.663560	0.000527	5.268855	1.785136	0.000211
1682	1.6726e+02	-13.0248	-98.457666	0.000517	5.167531	1.750807	0.000207
1683	1.6736e+02	-13.0023	-98.255810	0.000507	5.066207	1.716477	0.000203
1684	1.6746e+02	-12.9622	-98.102398	0.000385	3.850317	1.304523	0.000154
1685	1.6756e+02	-12.9173	-97.896505	0.000517	5.167531	1.750807	0.000207
1686	1.6766e+02	-12.8708	-97.702722	0.000486	4.863558	1.647818	0.000195
1687	1.6776e+02	-12.8355	-97.468568	0.000588	5.876800	1.991114	0.000235
1688	1.6786e+02	-12.8034	-97.286897	0.000456	4.559586	1.544830	0.000183
1689	1.6796e+02	-12.7553	-97.149634	0.000345	3.445020	1.167205	0.000138
1690	1.6806e+02	-12.7264	-96.931629	0.000547	5.471503	1.853795	0.000219
1691	1.6816e+02	-12.6766	-96.741884	0.000476	4.762234	1.613489	0.000191
1692	1.6825e+02	-12.6365	-96.580398	0.000405	4.052965	1.373182	0.000162
1693	1.6835e+02	-12.5996	-96.358356	0.000557	5.572827	1.888125	0.000223
1694	1.6845e+02	-12.5611	-96.180722	0.000446	4.458262	1.510500	0.000179
1695	1.6855e+02	-12.5210	-95.974828	0.000517	5.167531	1.750807	0.000207
1696	1.6865e+02	-12.4873	-95.752785	0.000557	5.572827	1.888125	0.000223
1697	1.6875e+02	-12.4424	-95.567077	0.000466	4.660910	1.579159	0.000187
1698	1.6885e+02	-12.4136	-95.369258	0.000496	4.964882	1.682148	0.000199
1699	1.6895e+02	-12.3638	-95.175475	0.000486	4.863558	1.647818	0.000195
1700	1.6905e+02	-12.3221	-95.013990	0.000405	4.052965	1.373182	0.000162
1701	1.6915e+02	-12.2692	-94.779836	0.000588	5.876800	1.991114	0.000235
1702	1.6925e+02	-12.2419	-94.590090	0.000476	4.762234	1.613489	0.000191
1703	1.6935e+02	-12.2082	-94.384196	0.000517	5.167531	1.750807	0.000207
1704	1.6945e+02	-12.1649	-94.137931	0.000618	6.180772	2.094102	0.000248
1705	1.6955e+02	-12.1344	-93.976446	0.000405	4.052965	1.373182	0.000162
1706	1.6965e+02	-12.0831	-93.802849	0.000436	4.356938	1.476170	0.000174
1707	1.6975e+02	-12.0462	-93.592918	0.000527	5.268855	1.785136	0.000211
1708	1.6985e+02	-12.0093	-93.374912	0.000547	5.471503	1.853795	0.000219
1709	1.6995e+02	-11.9644	-93.221501	0.000385	3.850317	1.304523	0.000154
1710	1.7005e+02	-11.9355	-92.946976	0.000689	6.890041	2.334409	0.000276
1711	1.7015e+02	-11.8890	-92.741082	0.000517	5.167531	1.750807	0.000207
1712	1.7024e+02	-11.8441	-92.563448	0.000446	4.458262	1.510500	0.000179
1713	1.7034e+02	-11.8023	-92.357554	0.000517	5.167531	1.750807	0.000207
1714	1.7044e+02	-11.7719	-92.175883	0.000456	4.559586	1.544830	0.000183
1715	1.7054e+02	-11.7302	-91.990175	0.000466	4.660910	1.579159	0.000187
1716	1.7064e+02	-11.6772	-91.760058	0.000578	5.775475	1.956784	0.000231
1717	1.7074e+02	-11.6467	-91.582424	0.000446	4.458262	1.510500	0.000179
1718	1.7084e+02	-11.6002	-91.372493	0.000527	5.268855	1.785136	0.000211
1719	1.7094e+02	-11.5697	-91.186785	0.000466	4.660910	1.579159	0.000187
1720	1.7104e+02	-11.5328	-90.956668	0.000578	5.775475	1.956784	0.000231
1721	1.7114e+02	-11.4879	-90.762886	0.000486	4.863558	1.647818	0.000195
1722	1.7124e+02	-11.4462	-90.552955	0.000527	5.268855	1.785136	0.000211
1723	1.7134e+02	-11.4093	-90.302652	0.000628	6.282096	2.128432	0.000252
1724	1.7144e+02	-11.3692	-90.157315	0.000365	3.647669	1.235864	0.000146
1725	1.7154e+02	-11.3243	-89.931236	0.000567	5.674151	1.922455	0.000227
1726	1.7164e+02	-11.2794	-89.741490	0.000476	4.762234	1.613489	0.000191
1727	1.7174e+02	-11.2537	-89.531559	0.000527	5.268855	1.785136	0.000211
1728	1.7184e+02	-11.2120	-89.321628	0.000527	5.268855	1.785136	0.000211
1729	1.7194e+02	-11.1719	-89.107660	0.000537	5.370179	1.819466	0.000215
1730	1.7204e+02	-11.1350	-88.829098	0.000699	6.991365	2.368739	0.000280
1731	1.7213e+02	-11.0901	-88.687798	0.000355	3.546345	1.201534	0.000142
1732	1.7223e+02	-11.0403	-88.421347	0.000669	6.687393	2.265750	0.000268
1733	1.7233e+02	-11.0082	-88.207379	0.000537	5.370179	1.819466	0.000215
1734	1.7243e+02	-10.9762	-88.005522	0.000507	5.066207	1.716477	0.000203
1735	1.7253e+02	-10.9296	-87.839999	0.000415	4.154289	1.407511	0.000166
1736	1.7263e+02	-10.8815	-87.609883	0.000578	5.775475	1.956784	0.000231
1737	1.7273e+02	-10.8494	-87.432249	0.000446	4.458262	1.510500	0.000179
1738	1.7283e+02	-10.8093	-87.190021	0.000608	6.079448	2.059773	0.000243
1739	1.7293e+02	-10.7676	-86.976052	0.000537	5.370179	1.819466	0.000215
1740	1.7303e+02	-10.7259	-86.733824	0.000608	6.079448	2.059773	0.000243
1741	1.7313e+02	-10.6954	-86.536005	0.000496	4.964882	1.682148	0.000199
1742	1.7323e+02	-10.6569	-86.338185	0.000496	4.964882	1.682148	0.000199
1743	1.7333e+02	-10.6088	-86.140365	0.000496	4.964882	1.682148	0.000199
1744	1.7343e+02	-10.5591	-85.890063	0.000628	6.282096	2.128432	0.000252
1745	1.7353e+02	-10.5318	-85.700317	0.000476	4.762234	1.613489	0.000191
1746	1.7363e+02	-10.4949	-85.450015	0.000628	6.282096	2.128432	0.000252
1747	1.7373e+02	-10.4436	-85.316790	0.000334	3.343696	1.132875	0.000134
1748	1.7383e+02	-10.4099	-85.054376	0.000659	6.586069	2.231420	0.000264
1749	1.7393e+02	-10.3666	-84.808110	0.000618	6.180772	2.094102	0.000248
1750	1.7403e+02	-10.3361	-84.638551	0.000426	4.255613	1.441841	0.000170
1751	1.7413e+02	-10.2944	-84.412471	0.000567	5.674151	1.922455	0.000227
1752	1.7422e+02	-10.2430	-84.182354	0.000578	5.775475	1.956784	0.000231
1753	1.7432e+02	-10.2238	-84.008758	0.000436	4.356938	1.476170	0.000174
1754	1.7442e+02	-10.1692	-83.810938	0.000496	4.964882	1.682148	0.000199
1755	1.7452e+02	-10.1275	-83.552561	0.000648	6.484744	2.197091	0.000260
1756	1.7462e+02	-10.0922	-83.387039	0.000415	4.154289	1.407511	0.000166
1757	1.7472e+02	-10.0457	-83.124625	0.000659	6.586069	2.231420	0.000264
1758	1.7482e+02	-10.0168	-82.914694	0.000527	5.268855	1.785136	0.000211
1759	1.7492e+02	-9.9655	-82.712837	0.000507	5.066207	1.716477	0.000203
1760	1.7502e+02	-9.9286	-82.506943	0.000517	5.167531	1.750807	0.000207
1761	1.7512e+02	-9.8917	-82.329309	0.000446	4.458262	1.510500	0.000179
1762	1.7522e+02	-9.8468	-82.074970	0.000638	6.383420	2.162761	0.000256
1763	1.7532e+02	-9.8179	-81.840816	0.000588	5.876800	1.991114	0.000235
1764	1.7542e+02	-9.7698	-81.622810	0.000547	5.471503	1.853795	0.000219
1765	1.7552e+02	-9.7329	-81.408842	0.000537	5.370179	1.819466	0.000215
1766	1.7562e+02	-9.6912	-81.215060	0.000486	4.863558	1.647818	0.000195
1767	1.7572e+02	-9.6559	-80.984943	0.000578	5.775475	1.956784	0.000231
1768	1.7582e+02	-9.6094	-80.779049	0.000517	5.167531	1.750807	0.000207
1769	1.7592e+02	-9.5773	-80.569118	0.000527	5.268855	1.785136	0.000211
1770	1.7602e+02	-9.5291	-80.355150	0.000537	5.370179	1.819466	0.000215
1771	1.7612e+02	-9.4955	-80.125033	0.000578	5.775475	1.956784	0.000231
1772	1.7621e+02	-9.4489	-79.902991	0.000557	5.572827	1.888125	0.000223
1773	1.7631e+02	-9.4152	-79.684985	0.000547	5.471503	1.853795	0.000219
1774	1.7641e+02	-9.3767	-79.491203	0.000486	4.863558	1.647818	0.000195
1775	1.7651e+02	-9.3414	-79.285309	0.000517	5.167531	1.750807	0.000207
1776	1.7661e+02	-9.2949	-79.043081	0.000608	6.079448	2.059773	0.000243
1777	1.7671e+02	-9.2564	-78.845261	0.000496	4.964882	1.682148	0.000199
1778	1.7681e+02	-9.2083	-78.607070	0.000598	5.978124	2.025443	0.000239
1779	1.7691e+02	-9.1682	-78.397139	0.000527	5.268855	1.785136	0.000211
1780	1.7701e+02	-9.1393	-78.167022	0.000578	5.775475	1.956784	0.000231
1781	1.7711e+02	-9.0928	-77.949017	0.000547	5.471503	1.853795	0.000219
1782	1.7721e+02	-9.0543	-77.694677	0.000638	6.383420	2.162761	0.000256
1783	1.7731e+02	-9.0030	-77.513006	0.000456	4.559586	1.544830	0.000183
1784	1.7741e+02	-8.9741	-77.315187	0.000496	4.964882	1.682148	0.000199
1785	1.7751e+02	-8.9340	-77.056810	0.000648	6.484744	2.197091	0.000260
1786	1.7761e+02	-8.9019	-76.830730	0.000567	5.674151	1.922455	0.000227
1787	1.7771e+02	-8.8522	-76.596576	0.000588	5.876800	1.991114	0.000235
1788	1.7781e+02	-8.8153	-76.386645	0.000527	5.268855	1.785136	0.000211
1789	1.7791e+02	-8.7752	-76.152491	0.000588	5.876800	1.991114	0.000235
1790	1.7801e+02	-8.7399	-75.950635	0.000507	5.066207	1.716477	0.000203
1791	1.7810e+02	-8.6933	-75.700332	0.000628	6.282096	2.128432	0.000252
1792	1.7820e+02	-8.6580	-75.494438	0.000517	5.167531	1.750807	0.000207
1793	1.7830e+02	-8.6099	-75.272396	0.000557	5.572827	1.888125	0.000223
1794	1.7840e+02	-8.5794	-75.066502	0.000517	5.167531	1.750807	0.000207
1795	1.7850e+02	-8.5345	-74.828311	0.000598	5.978124	2.025443	0.000239
1796	1.7860e+02	-8.4992	-74.565897	0.000659	6.586069	2.231420	0.000264
1797	1.7870e+02	-8.4479	-74.400375	0.000415	4.154289	1.407511	0.000166
1798	1.7880e+02	-8.4110	-74.129886	0.000679	6.788717	2.300080	0.000272
1799	1.7890e+02	-8.3821	-73.923992	0.000517	5.167531	1.750807	0.000207
1800	1.7900e+02	-8.3372	-73.677727	0.000618	6.180772	2.094102	0.000248
1801	1.7910e+02	-8.3003	-73.467796	0.000527	5.268855	1.785136	0.000211
1802	1.7920e+02	-8.2618	-73.249791	0.000547	5.471503	1.853795	0.000219
1803	1.7930e+02	-8.2201	-73.007563	0.000608	6.079448	2.059773	0.000243
1804	1.7940e+02	-8.1816	-72.761297	0.000618	6.180772	2.094102	0.000248
1805	1.7950e+02	-8.1511	-72.547329	0.000537	5.370179	1.819466	0.000215
1806	1.7960e+02	-8.0966	-72.333361	0.000537	5.370179	1.819466	0.000215
1807	1.7970e+02	-8.0693	-72.083059	0.000628	6.282096	2.128432	0.000252
1808	1.7980e+02	-8.0308	-71.893313	0.000476	4.762234	1.613489	0.000191
1809	1.7990e+02	-7.9811	-71.683382	0.000527	5.268855	1.785136	0.000211
1810	1.8000e+02	-7.9345	-71.441154	0.000608	6.079448	2.059773	0.000243
1811	1.8009e+02	-7.9025	-71.174703	0.000669	6.687393	2.265750	0.000268
1812	1.8019e+02	-7.8656	-70.940549	0.000588	5.876800	1.991114	0.000235
1813	1.8029e+02	-7.8238	-70.766952	0.000436	4.356938	1.476170	0.000174
1814	1.8039e+02	-7.7773	-70.500501	0.000669	6.687393	2.265750	0.000268
1815	1.8049e+02	-7.7468	-70.274422	0.000567	5.674151	1.922455	0.000227
1816	1.8059e+02	-7.6987	-70.064491	0.000527	5.268855	1.785136	0.000211
1817	1.8069e+02	-7.6682	-69.858597	0.000517	5.167531	1.750807	0.000207
1818	1.8079e+02	-7.6153	-69.616369	0.000608	6.079448	2.059773	0.000243
1819	1.8089e+02	-7.5816	-69.309546	0.000770	7.700634	2.609045	0.000308
1820	1.8099e+02	-7.5351	-69.164209	0.000365	3.647669	1.235864	0.000146
1821	1.8109e+02	-7.4982	-68.897759	0.000669	6.687393	2.265750	0.000268
1822	1.8119e+02	-7.4485	-68.671679	0.000567	5.674151	1.922455	0.000227
1823	1.8129e+02	-7.4196	-68.425414	0.000618	6.180772	2.094102	0.000248
1824	1.8139e+02	-7.3811	-68.231631	0.000486	4.863558	1.647818	0.000195
1825	1.8149e+02	-7.3426	-67.981329	0.000628	6.282096	2.128432	0.000252
1826	1.8159e+02	-7.2993	-67.726989	0.000638	6.383420	2.162761	0.000256
1827	1.8169e+02	-7.2608	-67.537244	0.000476	4.762234	1.613489	0.000191
1828	1.8179e+02	-7.2271	-67.250607	0.000719	7.194013	2.437398	0.000288
1829	1.8189e+02	-7.1822	-67.036639	0.000537	5.370179	1.819466	0.000215
1830	1.8199e+02	-7.1517	-66.842856	0.000486	4.863558	1.647818	0.000195
1831	1.8209e+02	-7.0987	-66.580443	0.000659	6.586069	2.231420	0.000264
1832	1.8218e+02	-7.0618	-66.326103	0.000638	6.383420	2.162761	0.000256
1833	1.8228e+02	-7.0346	-66.083875	0.000608	6.079448	2.059773	0.000243
1834	1.8238e+02	-6.9816	-65.853758	0.000578	5.775475	1.956784	0.000231
1835	1.8248e+02	-6.9399	-65.607493	0.000618	6.180772	2.094102	0.000248
1836	1.8258e+02	-6.8950	-65.381413	0.000567	5.674151	1.922455	0.000227
1837	1.8268e+02	-6.8661	-65.131111	0.000628	6.282096	2.128432	0.000252
1838	1.8278e+02	-6.8196	-64.921180	0.000527	5.268855	1.785136	0.000211
1839	1.8288e+02	-6.7875	-64.642617	0.000699	6.991365	2.368739	0.000280
1840	1.8298e+02	-6.7410	-64.372129	0.000679	6.788717	2.300080	0.000272
1841	1.8308e+02	-6.7073	-64.182384	0.000476	4.762234	1.613489	0.000191
1842	1.8318e+02	-6.6672	-63.944193	0.000598	5.978124	2.025443	0.000239
1843	1.8328e+02	-6.6303	-63.681779	0.000659	6.586069	2.231420	0.000264
1844	1.8338e+02	-6.5838	-63.407254	0.000689	6.890041	2.334409	0.000276
1845	1.8348e+02	-6.5405	-63.209434	0.000496	4.964882	1.682148	0.000199
1846	1.8358e+02	-6.5084	-62.955095	0.000638	6.383420	2.162761	0.000256
1847	1.8368e+02	-6.4667	-62.680569	0.000689	6.890041	2.334409	0.000276
1848	1.8378e+02	-6.4250	-62.474676	0.000517	5.167531	1.750807	0.000207
1849	1.8388e+02	-6.3832	-62.232447	0.000608	6.079448	2.059773	0.000243
1850	1.8398e+02	-6.3415	-61.990219	0.000608	6.079448	2.059773	0.000243
1851	1.8407e+02	-6.3111	-61.719731	0.000679	6.788717	2.300080	0.000272
1852	1.8417e+02	-6.2597	-61.517874	0.000507	5.066207	1.716477	0.000203
1853	1.8427e+02	-6.2389	-61.227201	0.000730	7.295337	2.471727	0.000292
1854	1.8437e+02	-6.1811	-60.993047	0.000588	5.876800	1.991114	0.000235
1855	1.8447e+02	-6.1426	-60.758893	0.000588	5.876800	1.991114	0.000235
1856	1.8457e+02	-6.1089	-60.488405	0.000679	6.788717	2.300080	0.000272
1857	1.8467e+02	-6.0833	-60.205805	0.000709	7.092689	2.403068	0.000284
1858	1.8477e+02	-6.0351	-59.975689	0.000578	5.775475	1.956784	0.000231
1859	1.8487e+02	-5.9886	-59.761720	0.000537	5.370179	1.819466	0.000215
1860	1.8497e+02	-5.9533	-59.450861	0.000780	7.801958	2.643375	0.000312
1861	1.8507e+02	-5.8988	-59.224781	0.000567	5.674151	1.922455	0.000227
1862	1.8517e+02	-5.8683	-58.962367	0.000659	6.586069	2.231420	0.000264
1863	1.8527e+02	-5.8410	-58.708028	0.000638	6.383420	2.162761	0.000256
1864	1.8537e+02	-5.7945	-58.469837	0.000598	5.978124	2.025443	0.000239
1865	1.8547e+02	-5.7480	-58.255869	0.000537	5.370179	1.819466	0.000215
1866	1.8557e+02	-5.7127	-57.928861	0.000821	8.207255	2.780693	0.000329
1867	1.8567e+02	-5.6710	-57.662410	0.000669	6.687393	2.265750	0.000268
1868	1.8577e+02	-5.6389	-57.452479	0.000527	5.268855	1.785136	0.000211
1869	1.8587e+02	-5.5940	-57.194102	0.000648	6.484744	2.197091	0.000260
1870	1.8597e+02	-5.5458	-56.935725	0.000648	6.484744	2.197091	0.000260
1871	1.8606e+02	-5.4993	-56.709646	0.000567	5.674151	1.922455	0.000227
1872	1.8616e+02	-5.4720	-56.410898	0.000750	7.497986	2.540386	0.000300
1873	1.8626e+02	-5.4303	-56.160595	0.000628	6.282096	2.128432	0.000252
1874	1.8636e+02	-5.3902	-55.910293	0.000628	6.282096	2.128432	0.000252
1875	1.8646e+02	-5.3501	-55.615582	0.000740	7.396662	2.506057	0.000296
1876	1.8656e+02	-5.3132	-55.409688	0.000517	5.167531	1.750807	0.000207
1877	1.8666e+02	-5.2715	-55.139200	0.000679	6.788717	2.300080	0.000272
1878	1.8676e+02	-5.2346	-54.872749	0.000669	6.687393	2.265750	0.000268
1879	1.8686e+02	-5.1929	-54.646669	0.000567	5.674151	1.922455	0.000227
1880	1.8696e+02	-5.1560	-54.368107	0.000699	6.991365	2.368739	0.000280
1881	1.8706e+02	-5.1175	-54.121842	0.000618	6.180772	2.094102	0.000248
1882	1.8716e+02	-5.0662	-53.831168	0.000730	7.295337	2.471727	0.000292
1883	1.8726e+02	-5.0373	-53.556643	0.000689	6.890041	2.334409	0.000276
1884	1.8736e+02	-4.9956	-53.278080	0.000699	6.991365	2.368739	0.000280
1885	1.8746e+02	-4.9587	-53.031815	0.000618	6.180772	2.094102	0.000248
1886	1.8756e+02	-4.9057	-52.781513	0.000628	6.282096	2.128432	0.000252
1887	1.8766e+02	-4.8672	-52.490839	0.000730	7.295337	2.471727	0.000292
1888	1.8776e+02	-4.8384	-52.288982	0.000507	5.066207	1.716477	0.000203
1889	1.8786e+02	-4.7967	-51.970048	0.000800	8.004606	2.712034	0.000321
1890	1.8796e+02	-4.7469	-51.695523	0.000689	6.890041	2.334409	0.000276
1891	1.8806e+02	-4.7116	-51.477518	0.000547	5.471503	1.853795	0.000219
1892	1.8815e+02	-4.6651	-51.190881	0.000719	7.194013	2.437398	0.000288
1893	1.8825e+02	-4.6330	-50.880022	0.000780	7.801958	2.643375	0.000312
1894	1.8835e+02	-4.5945	-50.629719	0.000628	6.282096	2.128432	0.000252
1895	1.8845e+02	-4.5464	-50.371343	0.000648	6.484744	2.197091	0.000260
1896	1.8855e+02	-4.5079	-50.104892	0.000669	6.687393	2.265750	0.000268
1897	1.8865e+02	-4.4662	-49.818255	0.000719	7.194013	2.437398	0.000288
1898	1.8875e+02	-4.4277	-49.511433	0.000770	7.700634	2.609045	0.000308
1899	1.8885e+02	-4.3908	-49.236907	0.000689	6.890041	2.334409	0.000276
1900	1.8895e+02	-4.3555	-48.966419	0.000679	6.788717	2.300080	0.000272
1901	1.8905e+02	-4.3154	-48.704006	0.000659	6.586069	2.231420	0.000264
1902	1.8915e+02	-4.2785	-48.441592	0.000659	6.586069	2.231420	0.000264
1903	1.8925e+02	-4.2368	-48.142844	0.000750	7.497986	2.540386	0.000300
1904	1.8935e+02	-4.2015	-47.868318	0.000689	6.890041	2.334409	0.000276
1905	1.8945e+02	-4.1582	-47.593793	0.000689	6.890041	2.334409	0.000276
1906	1.8955e+02	-4.1133	-47.363676	0.000578	5.775475	1.956784	0.000231
1907	1.8965e+02	-4.0764	-47.040706	0.000811	8.105930	2.746364	0.000325
1908	1.8975e+02	-4.0443	-46.794440	0.000618	6.180772	2.094102	0.000248
1909	1.8985e+02	-3.9961	-46.523952	0.000679	6.788717	2.300080	0.000272
1910	1.8995e+02	-3.9528	-46.245390	0.000699	6.991365	2.368739	0.000280
1911	1.9004e+02	-3.9143	-45.938568	0.000770	7.700634	2.609045	0.000308
1912	1.9014e+02	-3.8758	-45.643857	0.000740	7.396662	2.506057	0.000296
1913	1.9024e+02	-3.8357	-45.377406	0.000669	6.687393	2.265750	0.000268
1914	1.9034e+02	-3.8004	-45.078658	0.000750	7.497986	2.540386	0.000300
1915	1.9044e+02	-3.7507	-44.828355	0.000628	6.282096	2.128432	0.000252
1916	1.9054e+02	-3.7202	-44.541719	0.000719	7.194013	2.437398	0.000288
1917	1.9064e+02	-3.6769	-44.299490	0.000608	6.079448	2.059773	0.000243
1918	1.9074e+02	-3.6400	-44.004780	0.000740	7.396662	2.506057	0.000296
1919	1.9084e+02	-3.5967	-43.710069	0.000740	7.396662	2.506057	0.000296
1920	1.9094e+02	-3.5502	-43.423432	0.000719	7.194013	2.437398	0.000288
1921	1.9104e+02	-3.5165	-43.136795	0.000719	7.194013	2.437398	0.000288
1922	1.9114e+02	-3.4876	-42.854196	0.000709	7.092689	2.403068	0.000284
1923	1.9124e+02	-3.4395	-42.587745	0.000669	6.687393	2.265750	0.000268
1924	1.9134e+02	-3.3978	-42.305145	0.000709	7.092689	2.403068	0.000284
1925	1.9144e+02	-3.3673	-42.014472	0.000730	7.295337	2.471727	0.000292
1926	1.9154e+02	-3.3208	-41.756095	0.000648	6.484744	2.197091	0.000260
1927	1.9164e+02	-3.2774	-41.509830	0.000618	6.180772	2.094102	0.000248
1928	1.9174e+02	-3.2341	-41.178785	0.000831	8.308579	2.815023	0.000333
1929	1.9184e+02	-3.2037	-40.908296	0.000679	6.788717	2.300080	0.000272
1930	1.9194e+02	-3.1619	-40.649920	0.000648	6.484744	2.197091	0.000260
1931	1.9203e+02	-3.1218	-40.371357	0.000699	6.991365	2.368739	0.000280
1932	1.9213e+02	-3.0737	-40.008015	0.000912	9.119172	3.089659	0.000365
1933	1.9223e+02	-3.0352	-39.749638	0.000648	6.484744	2.197091	0.000260
1934	1.9233e+02	-2.9903	-39.471076	0.000699	6.991365	2.368739	0.000280
1935	1.9243e+02	-2.9646	-39.200588	0.000679	6.788717	2.300080	0.000272
1936	1.9253e+02	-2.9165	-38.966434	0.000588	5.876800	1.991114	0.000235
1937	1.9263e+02	-2.8812	-38.599055	0.000922	9.220496	3.123989	0.000369
1938	1.9273e+02	-2.8331	-38.288195	0.000780	7.801958	2.643375	0.000312
1939	1.9283e+02	-2.7978	-38.017707	0.000679	6.788717	2.300080	0.000272
1940	1.9293e+02	-2.7593	-37.718959	0.000750	7.497986	2.540386	0.000300
1941	1.9303e+02	-2.7144	-37.464620	0.000638	6.383420	2.162761	0.000256
1942	1.9313e+02	-2.6807	-37.133575	0.000831	8.308579	2.815023	0.000333
1943	1.9323e+02	-2.6406	-36.846938	0.000719	7.194013	2.437398	0.000288
1944	1.9333e+02	-2.6005	-36.580487	0.000669	6.687393	2.265750	0.000268
1945	1.9343e+02	-2.5604	-36.257516	0.000811	8.105930	2.746364	0.000325
1946	1.9353e+02	-2.5170	-35.987028	0.000679	6.788717	2.300080	0.000272
1947	1.9363e+02	-2.4785	-35.700391	0.000719	7.194013	2.437398	0.000288
1948	1.9373e+02	-2.4513	-35.405680	0.000740	7.396662	2.506057	0.000296
1949	1.9383e+02	-2.4080	-35.102895	0.000760	7.599310	2.574716	0.000304
1950	1.9393e+02	-2.3614	-34.787999	0.000790	7.903282	2.677704	0.000316
1951	1.9403e+02	-2.3181	-34.513473	0.000689	6.890041	2.334409	0.000276
1952	1.9412e+02	-2.2908	-34.234911	0.000699	6.991365	2.368739	0.000280
1953	1.9422e+02	-2.2459	-33.936163	0.000750	7.497986	2.540386	0.000300
1954	1.9432e+02	-2.2026	-33.657601	0.000699	6.991365	2.368739	0.000280
1955	1.9442e+02	-2.1593	-33.330593	0.000821	8.207255	2.780693	0.000329
1956	1.9452e+02	-2.1272	-33.035882	0.000740	7.396662	2.506057	0.000296
1957	1.9462e+02	-2.0775	-32.749245	0.000719	7.194013	2.437398	0.000288
1958	1.9472e+02	-2.0438	-32.418200	0.000831	8.308579	2.815023	0.000333
1959	1.9482e+02	-1.9973	-32.135600	0.000709	7.092689	2.403068	0.000284
1960	1.9492e+02	-1.9652	-31.812630	0.000811	8.105930	2.746364	0.000325
1961	1.9502e+02	-1.9283	-31.473510	0.000851	8.511227	2.883682	0.000341
1962	1.9512e+02	-1.8882	-31.215134	0.000648	6.484744	2.197091	0.000260
1963	1.9522e+02	-1.8352	-30.912348	0.000760	7.599310	2.574716	0.000304
1964	1.9532e+02	-1.8032	-30.601489	0.000780	7.801958	2.643375	0.000312
1965	1.9542e+02	-1.7679	-30.290629	0.000780	7.801958	2.643375	0.000312
1966	1.9552e+02	-1.7197	-29.991881	0.000750	7.497986	2.540386	0.000300
1967	1.9562e+02	-1.6860	-29.685059	0.000770	7.700634	2.609045	0.000308
1968	1.9572e+02	-1.6508	-29.366125	0.000800	8.004606	2.712034	0.000321
1969	1.9582e+02	-1.5946	-29.059303	0.000770	7.700634	2.609045	0.000308
1970	1.9592e+02	-1.5545	-28.772666	0.000719	7.194013	2.437398	0.000288
1971	1.9601e+02	-1.5192	-28.441621	0.000831	8.308579	2.815023	0.000333
1972	1.9611e+02	-1.4775	-28.130762	0.000780	7.801958	2.643375	0.000312
1973	1.9621e+02	-1.4518	-27.823940	0.000770	7.700634	2.609045	0.000308
1974	1.9631e+02	-1.4101	-27.525191	0.000750	7.497986	2.540386	0.000300
1975	1.9641e+02	-1.3604	-27.218369	0.000770	7.700634	2.609045	0.000308
1976	1.9651e+02	-1.3283	-26.875213	0.000861	8.612551	2.918011	0.000345
1977	1.9661e+02	-1.2866	-26.572427	0.000760	7.599310	2.574716	0.000304
1978	1.9671e+02	-1.2465	-26.273679	0.000750	7.497986	2.540386	0.000300
1979	1.9681e+02	-1.2016	-25.954746	0.000800	8.004606	2.712034	0.000321
1980	1.9691e+02	-1.1647	-25.651960	0.000760	7.599310	2.574716	0.000304
1981	1.9701e+02	-1.1230	-25.272470	0.000952	9.524468	3.226977	0.000381
1982	1.9711e+02	-1.0877	-25.030242	0.000608	6.079448	2.059773	0.000243
1983	1.9721e+02	-1.0460	-24.707271	0.000811	8.105930	2.746364	0.000325
1984	1.9731e+02	-1.0075	-24.416597	0.000730	7.295337	2.471727	0.000292
1985	1.9741e+02	-0.9674	-24.101700	0.000790	7.903282	2.677704	0.000316
1986	1.9751e+02	-0.9272	-23.754507	0.000871	8.713875	2.952341	0.000349
1987	1.9761e+02	-0.8920	-23.459796	0.000740	7.396662	2.506057	0.000296
1988	1.9771e+02	-0.8454	-23.124714	0.000841	8.409903	2.849352	0.000337
1989	1.9781e+02	-0.8101	-22.801743	0.000811	8.105930	2.746364	0.000325
1990	1.9791e+02	-0.7764	-22.470698	0.000831	8.308579	2.815023	0.000333
1991	1.9800e+02	-0.7267	-22.159838	0.000780	7.801958	2.643375	0.000312
1992	1.9810e+02	-0.6930	-21.857053	0.000760	7.599310	2.574716	0.000304
1993	1.9820e+02	-0.6513	-21.538119	0.000800	8.004606	2.712034	0.000321
1994	1.9830e+02	-0.6032	-21.170740	0.000922	9.220496	3.123989	0.000369
1995	1.9840e+02	-0.5695	-20.847769	0.000811	8.105930	2.746364	0.000325
1996	1.9850e+02	-0.5294	-20.528835	0.000800	8.004606	2.712034	0.000321
1997	1.9860e+02	-0.4797	-20.230087	0.000750	7.497986	2.540386	0.000300
1998	1.9870e+02	-0.4524	-19.858671	0.000932	9.321820	3.158318	0.000373
1999	1.9880e+02	-0.4027	-19.547811	0.000780	7.801958	2.643375	0.000312
2000	1.9890e+02	-0.3642	-19.232915	0.000790	7.903282	2.677704	0.000316
2001	1.9900e+02	-0.3289	-18.909944	0.000811	8.105930	2.746364	0.000325
2002	1.9910e+02	-0.2872	-18.554676	0.000892	8.916524	3.021000	0.000357
2003	1.9920e+02	-0.2487	-18.243816	0.000780	7.801958	2.643375	0.000312
2004	1.9930e+02	-0.2134	-17.912771	0.000831	8.308579	2.815023	0.000333
2005	1.9940e+02	-0.1700	-17.589800	0.000811	8.105930	2.746364	0.000325
2006	1.9950e+02	-0.1299	-17.246644	0.000861	8.612551	2.918011	0.000345
2007	1.9960e+02	-0.0898	-16.911562	0.000841	8.409903	2.849352	0.000337
2008	1.9970e+02	-0.0481	-16.596665	0.000790	7.903282	2.677704	0.000316
2009	1.9980e+02	-0.0160	-16.249471	0.000790	7.903282	2.677704	0.000349

Center data before PMax,+/-Pr and +/-Vc Calc.

PMax (uC/cm2):	1.26e+02
Pr (uC/cm2):	8.75e+00
-Pr (uC/cm2):	-1.62e+01
PLoss (uC/cm2):	-1.03e+01
Vc:	7.83e-01
-Vc:	-1.08e+00
C (Max-Eff) (nF):	6.28e-01
K (Eff):	2.13e+03
Vert. (+/-Pr) Shift (uC/cm2):	-3.75e+00
Horiz. Shift (+/-Vc):	-1.48e-01
Offset (uC/cm2):	5.95e+00

A (Loop Area - uC/cm2·Volts):	6.94e-03



Hysteresis Version: 5.48.1 - Radiant Technologies, Inc., 1999 - 9/12/24

