»»»»»»»»»»»»»»»»»»»»»»»»»»»»»»»»»»»» Hysteresis ««««««««««««««««««««««««««««««««««««
»»»  Executed Version:	5.48.1
»»»  Vision Version:	5.48.4 (R)
»»»  Vision Compiled:	9/18/24
»»»  Driver Version:	5.47.0
»»»  Windows Version:	Windows 8 or 8.1
»»»  Processor Information:	x86 (AMD or Intel) - 32 Processors
»»»  Tester Name:	PMF21124-494 (100V)
»»»  Tester S/N:	PMF21124-494
»»»  Internal Amp Type:	100V RevK 270k
»»»  Internal Amp S/N:	iAB2-596/K     
»»»  Execution Count:	1
»»»»»»»»»»»»»»»»»»»»»»»»»»»»»»»»»»»»»»»»»»««««««««««««««««««««««««««««««««««««««««««

Stored:	6/5/2025 - 11:27:38
Configured:	06/05/25 10:43:40 AM
Executed:	06/05/25 11:26:53 AM

»»»»»»»»»»»»»»»»»»»»»»»»»»»»»»»»»»» Sample Info ««««««««««««««««««««««««««««««««««««
Sample Name:	
Lot Name:	
Wafer Name:	
Die Row/Column:	0/0
Capacitor Number:	0
Sample Area (cm2):	1.00e-04
Sample Thickness (microns):	3.00e-01

Amplifier:	Internal

»»»»»»»»»»»»»»»»»»»»»»»»»»»»»»»»»»» Tester Info «««««««««««««««««««««««««««««««««««
Tester Name:	PMF21124-494 (100V)
Tester Serial Number:	PMF21124-494
Return Signal Amp. Level:	0.19 [Index: 3]

»»»»»»»»»»»»»»»»»»»»»»»»»»»»»»»» Hysteresis Info ««««««««««««««««««««««««««««««««««
Task Name:	Hyst-187
Volts:	20.00
Field:	666.67 (kV/cm)
DCBias:	0.00
DCField:	0.00 (kV/cm)
Hysteresis Period (ms):	2.00e+02
Preset:	Enabled
Preset Delay (ms):	1.00e+03
Profile:	Standard Bipolar

»»»»»»»»»»»»»»»»»»»»»»»»»»»»»»»»»»»»»» Data «««««««««««««««««««««««««««««««««««««««
Points:	2009

Valid Data

Point	Time (ms)	Drive Voltage	Measured Polarization (uC/cm2)	Capacitance (uF)	Normalized Capacitance (uF/cm2)	Dielectric Constant	Instantaneous Current (mA)
   1	0.0000e+00	-0.0128	-8.159051	0.000537	5.370071	1.819429	0.000215
   2	9.9500e-02	0.0193	-7.945083	0.000537	5.370071	1.819429	0.000215
   3	1.9900e-01	0.0561	-7.658446	0.000719	7.193869	2.437349	0.000288
   4	2.9850e-01	0.0898	-7.351624	0.000770	7.700480	2.608993	0.000308
   5	3.9800e-01	0.1444	-7.113433	0.000598	5.978004	2.025403	0.000239
   6	4.9750e-01	0.1813	-6.794499	0.000800	8.004446	2.711980	0.000321
   7	5.9700e-01	0.2166	-6.540160	0.000638	6.383292	2.162718	0.000256
   8	6.9650e-01	0.2583	-6.217189	0.000811	8.105768	2.746309	0.000325
   9	7.9600e-01	0.2920	-5.930552	0.000719	7.193869	2.437349	0.000288
  10	8.9550e-01	0.3417	-5.635841	0.000740	7.396513	2.506007	0.000296
  11	9.9500e-01	0.3818	-5.329019	0.000770	7.700480	2.608993	0.000308
  12	1.0945e+00	0.4171	-5.034308	0.000740	7.396513	2.506007	0.000296
  13	1.1940e+00	0.4620	-4.739597	0.000740	7.396513	2.506007	0.000296
  14	1.2935e+00	0.5069	-4.432775	0.000770	7.700480	2.608993	0.000308
  15	1.3930e+00	0.5422	-4.146138	0.000719	7.193869	2.437349	0.000288
  16	1.4925e+00	0.5839	-3.807019	0.000851	8.511056	2.883624	0.000341
  17	1.5920e+00	0.6176	-3.484048	0.000811	8.105768	2.746309	0.000325
  18	1.6915e+00	0.6609	-3.201449	0.000709	7.092547	2.403020	0.000284
  19	1.7910e+00	0.6962	-2.910775	0.000730	7.295191	2.471678	0.000292
  20	1.8905e+00	0.7396	-2.607990	0.000760	7.599157	2.574664	0.000304
  21	1.9900e+00	0.7781	-2.305205	0.000760	7.599157	2.574664	0.000304
  22	2.0895e+00	0.8214	-1.990308	0.000790	7.903124	2.677651	0.000316
  23	2.1890e+00	0.8663	-1.695597	0.000740	7.396513	2.506007	0.000296
  24	2.2885e+00	0.8952	-1.364552	0.000831	8.308412	2.814966	0.000333
  25	2.3880e+00	0.9449	-1.053692	0.000780	7.801802	2.643322	0.000312
  26	2.4875e+00	0.9818	-0.787241	0.000669	6.687259	2.265705	0.000268
  27	2.5870e+00	1.0187	-0.496568	0.000730	7.295191	2.471678	0.000292
  28	2.6865e+00	1.0540	-0.129188	0.000922	9.220311	3.123926	0.000369
  29	2.7860e+00	1.0909	0.145337	0.000689	6.889903	2.334362	0.000276
  30	2.8855e+00	1.1358	0.480419	0.000841	8.409734	2.849295	0.000337
  31	2.9850e+00	1.1775	0.811464	0.000831	8.308412	2.814966	0.000333
  32	3.0845e+00	1.2112	1.065804	0.000638	6.383292	2.162718	0.000256
  33	3.1840e+00	1.2641	1.404923	0.000851	8.511056	2.883624	0.000341
  34	3.2835e+00	1.2882	1.731931	0.000821	8.207090	2.780637	0.000329
  35	3.3830e+00	1.3347	2.014531	0.000709	7.092547	2.403020	0.000284
  36	3.4825e+00	1.3796	2.285019	0.000679	6.788581	2.300033	0.000272
  37	3.5820e+00	1.4230	2.656435	0.000932	9.321633	3.158255	0.000373
  38	3.6815e+00	1.4615	2.959220	0.000760	7.599157	2.574664	0.000304
  39	3.7810e+00	1.4951	3.270080	0.000780	7.801802	2.643322	0.000312
  40	3.8805e+00	1.5433	3.564791	0.000740	7.396513	2.506007	0.000296
  41	3.9800e+00	1.5705	3.879687	0.000790	7.903124	2.677651	0.000316
  42	4.0795e+00	1.6106	4.206695	0.000821	8.207090	2.780637	0.000329
  43	4.1790e+00	1.6652	4.549852	0.000861	8.612378	2.917953	0.000345
  44	4.2785e+00	1.6957	4.804192	0.000638	6.383292	2.162718	0.000256
  45	4.3780e+00	1.7422	5.163497	0.000902	9.017667	3.055268	0.000361
  46	4.4775e+00	1.7631	5.409762	0.000618	6.180648	2.094060	0.000248
  47	4.5770e+00	1.8176	5.785216	0.000942	9.422955	3.192584	0.000377
  48	4.6765e+00	1.8545	6.104149	0.000800	8.004446	2.711980	0.000321
  49	4.7760e+00	1.9042	6.386749	0.000709	7.092547	2.403020	0.000284
  50	4.8755e+00	1.9427	6.693571	0.000770	7.700480	2.608993	0.000308
  51	4.9750e+00	1.9732	7.012505	0.000800	8.004446	2.711980	0.000321
  52	5.0745e+00	2.0213	7.270881	0.000648	6.484614	2.197047	0.000260
  53	5.1740e+00	2.0582	7.662484	0.000983	9.828244	3.329899	0.000394
  54	5.2735e+00	2.0983	7.916823	0.000638	6.383292	2.162718	0.000256
  55	5.3730e+00	2.1400	8.264017	0.000871	8.713701	2.952282	0.000349
  56	5.4725e+00	2.1753	8.591025	0.000821	8.207090	2.780637	0.000329
  57	5.5720e+00	2.2106	8.885736	0.000740	7.396513	2.506007	0.000296
  58	5.6715e+00	2.2556	9.180447	0.000740	7.396513	2.506007	0.000296
  59	5.7710e+00	2.2957	9.511492	0.000831	8.308412	2.814966	0.000333
  60	5.8705e+00	2.3358	9.850611	0.000851	8.511056	2.883624	0.000341
  61	5.9700e+00	2.3775	10.108988	0.000648	6.484614	2.197047	0.000260
  62	6.0695e+00	2.4128	10.440033	0.000831	8.308412	2.814966	0.000333
  63	6.1690e+00	2.4497	10.706484	0.000669	6.687259	2.265705	0.000268
  64	6.2685e+00	2.4946	11.037529	0.000831	8.308412	2.814966	0.000333
  65	6.3680e+00	2.5347	11.368574	0.000831	8.308412	2.814966	0.000333
  66	6.4675e+00	2.5716	11.671359	0.000760	7.599157	2.574664	0.000304
  67	6.5670e+00	2.6213	11.994330	0.000811	8.105768	2.746309	0.000325
  68	6.6665e+00	2.6598	12.285004	0.000730	7.295191	2.471678	0.000292
  69	6.7660e+00	2.6935	12.595864	0.000780	7.801802	2.643322	0.000312
  70	6.8655e+00	2.7352	12.934983	0.000851	8.511056	2.883624	0.000341
  71	6.9650e+00	2.7737	13.205471	0.000679	6.788581	2.300033	0.000272
  72	7.0645e+00	2.8138	13.532479	0.000821	8.207090	2.780637	0.000329
  73	7.1640e+00	2.8475	13.823153	0.000730	7.295191	2.471678	0.000292
  74	7.2635e+00	2.8972	14.129975	0.000770	7.700480	2.608993	0.000308
  75	7.3630e+00	2.9357	14.444872	0.000790	7.903124	2.677651	0.000316
  76	7.4625e+00	2.9791	14.800140	0.000892	8.916345	3.020939	0.000357
  77	7.5620e+00	3.0095	15.119073	0.000800	8.004446	2.711980	0.000321
  78	7.6615e+00	3.0529	15.393599	0.000689	6.889903	2.334362	0.000276
  79	7.7610e+00	3.0962	15.708495	0.000790	7.903124	2.677651	0.000316
  80	7.8605e+00	3.1443	16.003206	0.000740	7.396513	2.506007	0.000296
  81	7.9600e+00	3.1684	16.310028	0.000770	7.700480	2.608993	0.000308
  82	8.0595e+00	3.2101	16.645111	0.000841	8.409734	2.849295	0.000337
  83	8.1590e+00	3.2566	16.903487	0.000648	6.484614	2.197047	0.000260
  84	8.2585e+00	3.2919	17.250681	0.000871	8.713701	2.952282	0.000349
  85	8.3580e+00	3.3272	17.557503	0.000770	7.700480	2.608993	0.000308
  86	8.4575e+00	3.3641	17.868363	0.000780	7.801802	2.643322	0.000312
  87	8.5570e+00	3.4138	18.154999	0.000719	7.193869	2.437349	0.000288
  88	8.6565e+00	3.4459	18.477970	0.000811	8.105768	2.746309	0.000325
  89	8.7560e+00	3.5004	18.768644	0.000730	7.295191	2.471678	0.000292
  90	8.8555e+00	3.5229	19.083541	0.000790	7.903124	2.677651	0.000316
  91	8.9550e+00	3.5662	19.378252	0.000740	7.396513	2.506007	0.000296
  92	9.0545e+00	3.6095	19.709297	0.000831	8.308412	2.814966	0.000333
  93	9.1540e+00	3.6577	20.016119	0.000770	7.700480	2.608993	0.000308
  94	9.2535e+00	3.6897	20.306793	0.000730	7.295191	2.471678	0.000292
  95	9.3530e+00	3.7202	20.617652	0.000780	7.801802	2.643322	0.000312
  96	9.4525e+00	3.7780	20.944660	0.000821	8.207090	2.780637	0.000329
  97	9.5520e+00	3.8068	21.243408	0.000750	7.497835	2.540335	0.000300
  98	9.6515e+00	3.8405	21.570416	0.000821	8.207090	2.780637	0.000329
  99	9.7510e+00	3.8951	21.824756	0.000638	6.383292	2.162718	0.000256
 100	9.8505e+00	3.9304	22.151764	0.000821	8.207090	2.780637	0.000329
 101	9.9500e+00	3.9721	22.454549	0.000760	7.599157	2.574664	0.000304
 102	1.0050e+01	4.0138	22.733111	0.000699	6.991225	2.368691	0.000280
 103	1.0149e+01	4.0603	23.056082	0.000811	8.105768	2.746309	0.000325
 104	1.0248e+01	4.0844	23.338682	0.000709	7.092547	2.403020	0.000284
 105	1.0348e+01	4.1245	23.665690	0.000821	8.207090	2.780637	0.000329
 106	1.0447e+01	4.1646	23.972512	0.000770	7.700480	2.608993	0.000308
 107	1.0547e+01	4.2111	24.263186	0.000730	7.295191	2.471678	0.000292
 108	1.0646e+01	4.2448	24.557897	0.000740	7.396513	2.506007	0.000296
 109	1.0746e+01	4.2833	24.856645	0.000750	7.497835	2.540335	0.000300
 110	1.0845e+01	4.3314	25.175578	0.000800	8.004446	2.711980	0.000321
 111	1.0945e+01	4.3619	25.474327	0.000750	7.497835	2.540335	0.000300
 112	1.1044e+01	4.4052	25.769037	0.000740	7.396513	2.506007	0.000296
 113	1.1144e+01	4.4517	26.047600	0.000699	6.991225	2.368691	0.000280
 114	1.1243e+01	4.4919	26.330199	0.000709	7.092547	2.403020	0.000284
 115	1.1343e+01	4.5191	26.649133	0.000800	8.004446	2.711980	0.000321
 116	1.1443e+01	4.5705	26.968067	0.000800	8.004446	2.711980	0.000321
 117	1.1542e+01	4.6170	27.246629	0.000699	6.991225	2.368691	0.000280
 118	1.1642e+01	4.6426	27.545377	0.000750	7.497835	2.540335	0.000300
 119	1.1741e+01	4.6876	27.876422	0.000831	8.308412	2.814966	0.000333
 120	1.1841e+01	4.7245	28.150948	0.000689	6.889903	2.334362	0.000276
 121	1.1940e+01	4.7646	28.441621	0.000730	7.295191	2.471678	0.000292
 122	1.2040e+01	4.8063	28.756518	0.000790	7.903124	2.677651	0.000316
 123	1.2139e+01	4.8480	29.043154	0.000719	7.193869	2.437349	0.000288
 124	1.2239e+01	4.8833	29.341903	0.000750	7.497835	2.540335	0.000300
 125	1.2338e+01	4.9282	29.616428	0.000689	6.889903	2.334362	0.000276
 126	1.2438e+01	4.9619	29.886916	0.000679	6.788581	2.300033	0.000272
 127	1.2537e+01	5.0020	30.209887	0.000811	8.105768	2.746309	0.000325
 128	1.2636e+01	5.0598	30.549006	0.000851	8.511056	2.883624	0.000341
 129	1.2736e+01	5.0822	30.819494	0.000679	6.788581	2.300033	0.000272
 130	1.2835e+01	5.1255	31.118242	0.000750	7.497835	2.540335	0.000300
 131	1.2935e+01	5.1640	31.412953	0.000740	7.396513	2.506007	0.000296
 132	1.3034e+01	5.2138	31.719775	0.000770	7.700480	2.608993	0.000308
 133	1.3134e+01	5.2426	32.018524	0.000750	7.497835	2.540335	0.000300
 134	1.3233e+01	5.2811	32.264789	0.000618	6.180648	2.094060	0.000248
 135	1.3333e+01	5.3228	32.611982	0.000871	8.713701	2.952282	0.000349
 136	1.3432e+01	5.3726	32.882471	0.000679	6.788581	2.300033	0.000272
 137	1.3532e+01	5.4031	33.189293	0.000770	7.700480	2.608993	0.000308
 138	1.3632e+01	5.4351	33.451707	0.000659	6.585936	2.231376	0.000264
 139	1.3731e+01	5.4736	33.782752	0.000831	8.308412	2.814966	0.000333
 140	1.3831e+01	5.5186	34.053240	0.000679	6.788581	2.300033	0.000272
 141	1.3930e+01	5.5587	34.347951	0.000740	7.396513	2.506007	0.000296
 142	1.4030e+01	5.6004	34.687070	0.000851	8.511056	2.883624	0.000341
 143	1.4129e+01	5.6453	34.929298	0.000608	6.079326	2.059731	0.000243
 144	1.4229e+01	5.6822	35.232084	0.000760	7.599157	2.574664	0.000304
 145	1.4328e+01	5.7159	35.522757	0.000730	7.295191	2.471678	0.000292
 146	1.4428e+01	5.7704	35.809394	0.000719	7.193869	2.437349	0.000288
 147	1.4527e+01	5.8041	36.144476	0.000841	8.409734	2.849295	0.000337
 148	1.4627e+01	5.8410	36.398816	0.000638	6.383292	2.162718	0.000256
 149	1.4726e+01	5.8843	36.709675	0.000780	7.801802	2.643322	0.000312
 150	1.4825e+01	5.9292	36.976126	0.000669	6.687259	2.265705	0.000268
 151	1.4925e+01	5.9613	37.234503	0.000648	6.484614	2.197047	0.000260
 152	1.5024e+01	5.9966	37.577659	0.000861	8.612378	2.917953	0.000345
 153	1.5124e+01	6.0480	37.844110	0.000669	6.687259	2.265705	0.000268
 154	1.5223e+01	6.0800	38.126710	0.000709	7.092547	2.403020	0.000284
 155	1.5323e+01	6.1250	38.429495	0.000760	7.599157	2.574664	0.000304
 156	1.5422e+01	6.1619	38.720169	0.000730	7.295191	2.471678	0.000292
 157	1.5522e+01	6.1907	39.010843	0.000730	7.295191	2.471678	0.000292
 158	1.5621e+01	6.2421	39.325739	0.000790	7.903124	2.677651	0.000316
 159	1.5721e+01	6.2886	39.592190	0.000669	6.687259	2.265705	0.000268
 160	1.5820e+01	6.3191	39.850567	0.000648	6.484614	2.197047	0.000260
 161	1.5920e+01	6.3624	40.125092	0.000689	6.889903	2.334362	0.000276
 162	1.6020e+01	6.4041	40.435952	0.000780	7.801802	2.643322	0.000312
 163	1.6119e+01	6.4330	40.710477	0.000689	6.889903	2.334362	0.000276
 164	1.6218e+01	6.4763	40.972891	0.000659	6.585936	2.231376	0.000264
 165	1.6318e+01	6.5132	41.243379	0.000679	6.788581	2.300033	0.000272
 166	1.6418e+01	6.5565	41.582498	0.000851	8.511056	2.883624	0.000341
 167	1.6517e+01	6.6062	41.848949	0.000669	6.687259	2.265705	0.000268
 168	1.6616e+01	6.6335	42.107326	0.000648	6.484614	2.197047	0.000260
 169	1.6716e+01	6.6656	42.398000	0.000730	7.295191	2.471678	0.000292
 170	1.6816e+01	6.7153	42.680599	0.000709	7.092547	2.403020	0.000284
 171	1.6915e+01	6.7426	42.987421	0.000770	7.700480	2.608993	0.000308
 172	1.7015e+01	6.7955	43.229649	0.000608	6.079326	2.059731	0.000243
 173	1.7114e+01	6.8276	43.496100	0.000669	6.687259	2.265705	0.000268
 174	1.7213e+01	6.8773	43.762551	0.000669	6.687259	2.265705	0.000268
 175	1.7313e+01	6.9239	44.069374	0.000770	7.700480	2.608993	0.000308
 176	1.7413e+01	6.9560	44.360047	0.000730	7.295191	2.471678	0.000292
 177	1.7512e+01	6.9977	44.634573	0.000689	6.889903	2.334362	0.000276
 178	1.7611e+01	7.0330	44.852578	0.000547	5.471393	1.853758	0.000219
 179	1.7711e+01	7.0747	45.199772	0.000871	8.713701	2.952282	0.000349
 180	1.7811e+01	7.1180	45.437963	0.000598	5.978004	2.025403	0.000239
 181	1.7910e+01	7.1485	45.760934	0.000811	8.105768	2.746309	0.000325
 182	1.8009e+01	7.1870	46.019310	0.000648	6.484614	2.197047	0.000260
 183	1.8109e+01	7.2351	46.293836	0.000689	6.889903	2.334362	0.000276
 184	1.8209e+01	7.2784	46.580472	0.000719	7.193869	2.437349	0.000288
 185	1.8308e+01	7.3137	46.879220	0.000750	7.497835	2.540335	0.000300
 186	1.8407e+01	7.3602	47.109337	0.000578	5.775360	1.956745	0.000231
 187	1.8507e+01	7.3923	47.391936	0.000709	7.092547	2.403020	0.000284
 188	1.8607e+01	7.4388	47.698759	0.000770	7.700480	2.608993	0.000308
 189	1.8706e+01	7.4725	47.953098	0.000638	6.383292	2.162718	0.000256
 190	1.8805e+01	7.5126	48.219549	0.000669	6.687259	2.265705	0.000268
 191	1.8905e+01	7.5559	48.498112	0.000699	6.991225	2.368691	0.000280
 192	1.9005e+01	7.5976	48.808971	0.000780	7.801802	2.643322	0.000312
 193	1.9104e+01	7.6329	49.051199	0.000608	6.079326	2.059731	0.000243
 194	1.9203e+01	7.6714	49.329762	0.000699	6.991225	2.368691	0.000280
 195	1.9303e+01	7.7099	49.600250	0.000679	6.788581	2.300033	0.000272
 196	1.9402e+01	7.7549	49.858626	0.000648	6.484614	2.197047	0.000260
 197	1.9502e+01	7.8030	50.137189	0.000699	6.991225	2.368691	0.000280
 198	1.9602e+01	7.8335	50.435937	0.000750	7.497835	2.540335	0.000300
 199	1.9701e+01	7.8736	50.702388	0.000669	6.687259	2.265705	0.000268
 200	1.9800e+01	7.9153	50.940579	0.000598	5.978004	2.025403	0.000239
 201	1.9900e+01	7.9538	51.223178	0.000709	7.092547	2.403020	0.000284
 202	2.0000e+01	7.9955	51.473481	0.000628	6.281970	2.128389	0.000252
 203	2.0099e+01	8.0356	51.772229	0.000750	7.497835	2.540335	0.000300
 204	2.0198e+01	8.0677	51.998308	0.000567	5.674038	1.922416	0.000227
 205	2.0298e+01	8.1142	52.301093	0.000760	7.599157	2.574664	0.000304
 206	2.0398e+01	8.1527	52.563507	0.000659	6.585936	2.231376	0.000264
 207	2.0497e+01	8.1960	52.842070	0.000699	6.991225	2.368691	0.000280
 208	2.0596e+01	8.2281	53.096409	0.000638	6.383292	2.162718	0.000256
 209	2.0696e+01	8.2730	53.387083	0.000730	7.295191	2.471678	0.000292
 210	2.0796e+01	8.3083	53.629311	0.000608	6.079326	2.059731	0.000243
 211	2.0895e+01	8.3548	53.899799	0.000679	6.788581	2.300033	0.000272
 212	2.0994e+01	8.3901	54.158176	0.000648	6.484614	2.197047	0.000260
 213	2.1094e+01	8.4238	54.404441	0.000618	6.180648	2.094060	0.000248
 214	2.1194e+01	8.4720	54.699152	0.000740	7.396513	2.506007	0.000296
 215	2.1293e+01	8.5121	54.973677	0.000689	6.889903	2.334362	0.000276
 216	2.1392e+01	8.5538	55.236091	0.000659	6.585936	2.231376	0.000264
 217	2.1492e+01	8.5891	55.498505	0.000659	6.585936	2.231376	0.000264
 218	2.1591e+01	8.6308	55.752845	0.000638	6.383292	2.162718	0.000256
 219	2.1691e+01	8.6805	56.007184	0.000638	6.383292	2.162718	0.000256
 220	2.1791e+01	8.7174	56.257487	0.000628	6.281970	2.128389	0.000252
 221	2.1890e+01	8.7447	56.491640	0.000588	5.876682	1.991074	0.000235
 222	2.1989e+01	8.7832	56.762128	0.000679	6.788581	2.300033	0.000272
 223	2.2089e+01	8.8233	57.048765	0.000719	7.193869	2.437349	0.000288
 224	2.2189e+01	8.8618	57.290993	0.000608	6.079326	2.059731	0.000243
 225	2.2288e+01	8.9019	57.561481	0.000679	6.788581	2.300033	0.000272
 226	2.2387e+01	8.9516	57.815821	0.000638	6.383292	2.162718	0.000256
 227	2.2487e+01	8.9885	58.090346	0.000689	6.889903	2.334362	0.000276
 228	2.2587e+01	9.0318	58.316426	0.000567	5.674038	1.922416	0.000227
 229	2.2686e+01	9.0591	58.570765	0.000638	6.383292	2.162718	0.000256
 230	2.2785e+01	9.1120	58.853365	0.000709	7.092547	2.403020	0.000284
 231	2.2885e+01	9.1473	59.119816	0.000669	6.687259	2.265705	0.000268
 232	2.2985e+01	9.1906	59.358007	0.000598	5.978004	2.025403	0.000239
 233	2.3084e+01	9.2292	59.628495	0.000679	6.788581	2.300033	0.000272
 234	2.3183e+01	9.2709	59.882834	0.000638	6.383292	2.162718	0.000256
 235	2.3283e+01	9.3013	60.137174	0.000638	6.383292	2.162718	0.000256
 236	2.3383e+01	9.3479	60.387476	0.000628	6.281970	2.128389	0.000252
 237	2.3482e+01	9.3976	60.649890	0.000659	6.585936	2.231376	0.000264
 238	2.3581e+01	9.4313	60.904230	0.000638	6.383292	2.162718	0.000256
 239	2.3681e+01	9.4618	61.170681	0.000669	6.687259	2.265705	0.000268
 240	2.3780e+01	9.5163	61.404835	0.000588	5.876682	1.991074	0.000235
 241	2.3880e+01	9.5436	61.651100	0.000618	6.180648	2.094060	0.000248
 242	2.3980e+01	9.5933	61.949848	0.000750	7.497835	2.540335	0.000300
 243	2.4079e+01	9.6382	62.179965	0.000578	5.775360	1.956745	0.000231
 244	2.4178e+01	9.6687	62.442378	0.000659	6.585936	2.231376	0.000264
 245	2.4278e+01	9.7152	62.668458	0.000567	5.674038	1.922416	0.000227
 246	2.4378e+01	9.7569	62.971243	0.000760	7.599157	2.574664	0.000304
 247	2.4477e+01	9.7858	63.197323	0.000567	5.674038	1.922416	0.000227
 248	2.4576e+01	9.8227	63.471848	0.000689	6.889903	2.334362	0.000276
 249	2.4676e+01	9.8676	63.718113	0.000618	6.180648	2.094060	0.000248
 250	2.4776e+01	9.9045	63.944193	0.000567	5.674038	1.922416	0.000227
 251	2.4875e+01	9.9430	64.214681	0.000679	6.788581	2.300033	0.000272
 252	2.4974e+01	9.9863	64.452872	0.000598	5.978004	2.025403	0.000239
 253	2.5074e+01	10.0329	64.711249	0.000648	6.484614	2.197047	0.000260
 254	2.5174e+01	10.0585	64.949440	0.000598	5.978004	2.025403	0.000239
 255	2.5273e+01	10.1083	65.228002	0.000699	6.991225	2.368691	0.000280
 256	2.5372e+01	10.1420	65.470230	0.000608	6.079326	2.059731	0.000243
 257	2.5472e+01	10.1917	65.724570	0.000638	6.383292	2.162718	0.000256
 258	2.5572e+01	10.2174	65.986984	0.000659	6.585936	2.231376	0.000264
 259	2.5671e+01	10.2719	66.225175	0.000598	5.978004	2.025403	0.000239
 260	2.5770e+01	10.3024	66.483551	0.000648	6.484614	2.197047	0.000260
 261	2.5870e+01	10.3377	66.737891	0.000638	6.383292	2.162718	0.000256
 262	2.5970e+01	10.3810	66.992230	0.000638	6.383292	2.162718	0.000256
 263	2.6069e+01	10.4259	67.210236	0.000547	5.471393	1.853758	0.000219
 264	2.6169e+01	10.4660	67.472650	0.000659	6.585936	2.231376	0.000264
 265	2.6268e+01	10.5061	67.743138	0.000679	6.788581	2.300033	0.000272
 266	2.6367e+01	10.5446	67.953069	0.000527	5.268749	1.785101	0.000211
 267	2.6467e+01	10.5815	68.235668	0.000709	7.092547	2.403020	0.000284
 268	2.6567e+01	10.6248	68.473859	0.000598	5.978004	2.025403	0.000239
 269	2.6666e+01	10.6505	68.728199	0.000638	6.383292	2.162718	0.000256
 270	2.6765e+01	10.6954	68.986575	0.000648	6.484614	2.197047	0.000260
 271	2.6865e+01	10.7435	69.196507	0.000527	5.268749	1.785101	0.000211
 272	2.6965e+01	10.7853	69.458920	0.000659	6.585936	2.231376	0.000264
 273	2.7064e+01	10.8286	69.725371	0.000669	6.687259	2.265705	0.000268
 274	2.7163e+01	10.8591	69.947414	0.000557	5.572715	1.888087	0.000223
 275	2.7263e+01	10.9088	70.189642	0.000608	6.079326	2.059731	0.000243
 276	2.7363e+01	10.9393	70.456093	0.000669	6.687259	2.265705	0.000268
 277	2.7462e+01	10.9810	70.670061	0.000537	5.370071	1.819429	0.000215
 278	2.7561e+01	11.0227	70.944586	0.000689	6.889903	2.334362	0.000276
 279	2.7661e+01	11.0628	71.166629	0.000557	5.572715	1.888087	0.000223
 280	2.7761e+01	11.1061	71.396746	0.000578	5.775360	1.956745	0.000231
 281	2.7860e+01	11.1350	71.667234	0.000679	6.788581	2.300033	0.000272
 282	2.7959e+01	11.1767	71.921573	0.000638	6.383292	2.162718	0.000256
 283	2.8059e+01	11.2184	72.139579	0.000547	5.471393	1.853758	0.000219
 284	2.8159e+01	11.2649	72.393918	0.000638	6.383292	2.162718	0.000256
 285	2.8258e+01	11.3002	72.624035	0.000578	5.775360	1.956745	0.000231
 286	2.8358e+01	11.3483	72.866263	0.000608	6.079326	2.059731	0.000243
 287	2.8457e+01	11.3724	73.140788	0.000689	6.889903	2.334362	0.000276
 288	2.8556e+01	11.4189	73.346682	0.000517	5.167427	1.750772	0.000207
 289	2.8656e+01	11.4622	73.617170	0.000679	6.788581	2.300033	0.000272
 290	2.8756e+01	11.5136	73.847287	0.000578	5.775360	1.956745	0.000231
 291	2.8855e+01	11.5392	74.109701	0.000659	6.585936	2.231376	0.000264
 292	2.8954e+01	11.5761	74.355966	0.000618	6.180648	2.094060	0.000248
 293	2.9054e+01	11.6275	74.578008	0.000557	5.572715	1.888087	0.000223
 294	2.9154e+01	11.6644	74.816199	0.000598	5.978004	2.025403	0.000239
 295	2.9253e+01	11.7013	75.094762	0.000699	6.991225	2.368691	0.000280
 296	2.9352e+01	11.7414	75.312767	0.000547	5.471393	1.853758	0.000219
 297	2.9452e+01	11.7831	75.542884	0.000578	5.775360	1.956745	0.000231
 298	2.9552e+01	11.8248	75.801261	0.000648	6.484614	2.197047	0.000260
 299	2.9651e+01	11.8633	76.015229	0.000537	5.370071	1.819429	0.000215
 300	2.9750e+01	11.8938	76.281680	0.000669	6.687259	2.265705	0.000268
 301	2.9850e+01	11.9387	76.491611	0.000527	5.268749	1.785101	0.000211
 302	2.9950e+01	11.9772	76.741913	0.000628	6.281970	2.128389	0.000252
 303	3.0049e+01	12.0157	77.004327	0.000659	6.585936	2.231376	0.000264
 304	3.0148e+01	12.0670	77.234444	0.000578	5.775360	1.956745	0.000231
 305	3.0248e+01	12.0959	77.517043	0.000709	7.092547	2.403020	0.000284
 306	3.0348e+01	12.1440	77.739086	0.000557	5.572715	1.888087	0.000223
 307	3.0447e+01	12.1793	77.997462	0.000648	6.484614	2.197047	0.000260
 308	3.0547e+01	12.2210	78.227579	0.000578	5.775360	1.956745	0.000231
 309	3.0646e+01	12.2628	78.457696	0.000578	5.775360	1.956745	0.000231
 310	3.0745e+01	12.2964	78.663590	0.000517	5.167427	1.750772	0.000207
 311	3.0845e+01	12.3349	78.913892	0.000628	6.281970	2.128389	0.000252
 312	3.0945e+01	12.3767	79.184380	0.000679	6.788581	2.300033	0.000272
 313	3.1044e+01	12.4119	79.418534	0.000588	5.876682	1.991074	0.000235
 314	3.1143e+01	12.4569	79.644614	0.000567	5.674038	1.922416	0.000227
 315	3.1243e+01	12.4986	79.915102	0.000679	6.788581	2.300033	0.000272
 316	3.1343e+01	12.5242	80.116959	0.000507	5.066105	1.716443	0.000203
 317	3.1442e+01	12.5788	80.379373	0.000659	6.585936	2.231376	0.000264
 318	3.1541e+01	12.6205	80.625638	0.000618	6.180648	2.094060	0.000248
 319	3.1641e+01	12.6526	80.855755	0.000578	5.775360	1.956745	0.000231
 320	3.1741e+01	12.6959	81.085871	0.000578	5.775360	1.956745	0.000231
 321	3.1840e+01	12.7408	81.340211	0.000638	6.383292	2.162718	0.000256
 322	3.1939e+01	12.7809	81.554179	0.000537	5.370071	1.819429	0.000215
 323	3.2039e+01	12.8130	81.808519	0.000638	6.383292	2.162718	0.000256
 324	3.2139e+01	12.8547	82.022487	0.000537	5.370071	1.819429	0.000215
 325	3.2238e+01	12.8900	82.268752	0.000618	6.180648	2.094060	0.000248
 326	3.2337e+01	12.9301	82.470609	0.000507	5.066105	1.716443	0.000203
 327	3.2437e+01	12.9718	82.708800	0.000598	5.978004	2.025403	0.000239
 328	3.2536e+01	13.0087	82.975251	0.000669	6.687259	2.265705	0.000268
 329	3.2636e+01	13.0488	83.185182	0.000527	5.268749	1.785101	0.000211
 330	3.2736e+01	13.0873	83.435484	0.000628	6.281970	2.128389	0.000252
 331	3.2835e+01	13.1290	83.669638	0.000588	5.876682	1.991074	0.000235
 332	3.2934e+01	13.1691	83.903792	0.000588	5.876682	1.991074	0.000235
 333	3.3034e+01	13.2141	84.109686	0.000517	5.167427	1.750772	0.000207
 334	3.3133e+01	13.2574	84.359988	0.000628	6.281970	2.128389	0.000252
 335	3.3233e+01	13.2847	84.602217	0.000608	6.079326	2.059731	0.000243
 336	3.3333e+01	13.3264	84.820222	0.000547	5.471393	1.853758	0.000219
 337	3.3432e+01	13.3793	85.042264	0.000557	5.572715	1.888087	0.000223
 338	3.3532e+01	13.4066	85.260270	0.000547	5.471393	1.853758	0.000219
 339	3.3631e+01	13.4531	85.530758	0.000679	6.788581	2.300033	0.000272
 340	3.3730e+01	13.4884	85.760874	0.000578	5.775360	1.956745	0.000231
 341	3.3830e+01	13.5333	85.950620	0.000476	4.762139	1.613456	0.000191
 342	3.3929e+01	13.5670	86.229182	0.000699	6.991225	2.368691	0.000280
 343	3.4029e+01	13.6135	86.447188	0.000547	5.471393	1.853758	0.000219
 344	3.4129e+01	13.6440	86.640970	0.000486	4.863461	1.647785	0.000195
 345	3.4228e+01	13.6889	86.911458	0.000679	6.788581	2.300033	0.000272
 346	3.4328e+01	13.7338	87.125426	0.000537	5.370071	1.819429	0.000215
 347	3.4427e+01	13.7707	87.375729	0.000628	6.281970	2.128389	0.000252
 348	3.4526e+01	13.8060	87.593734	0.000547	5.471393	1.853758	0.000219
 349	3.4626e+01	13.8509	87.819814	0.000567	5.674038	1.922416	0.000227
 350	3.4725e+01	13.8943	88.045893	0.000567	5.674038	1.922416	0.000227
 351	3.4825e+01	13.9344	88.276010	0.000578	5.775360	1.956745	0.000231
 352	3.4925e+01	13.9648	88.481904	0.000517	5.167427	1.750772	0.000207
 353	3.5024e+01	14.0066	88.752392	0.000679	6.788581	2.300033	0.000272
 354	3.5123e+01	14.0451	88.998657	0.000618	6.180648	2.094060	0.000248
 355	3.5223e+01	14.0900	89.180328	0.000456	4.559494	1.544799	0.000183
 356	3.5322e+01	14.1269	89.454854	0.000689	6.889903	2.334362	0.000276
 357	3.5422e+01	14.1590	89.684970	0.000578	5.775360	1.956745	0.000231
 358	3.5522e+01	14.2039	89.858567	0.000436	4.356850	1.476141	0.000174
 359	3.5621e+01	14.2424	90.108870	0.000628	6.281970	2.128389	0.000252
 360	3.5721e+01	14.2873	90.375321	0.000669	6.687259	2.265705	0.000268
 361	3.5820e+01	14.3274	90.573140	0.000496	4.964783	1.682114	0.000199
 362	3.5919e+01	14.3819	90.783071	0.000527	5.268749	1.785101	0.000211
 363	3.6019e+01	14.4108	91.065671	0.000709	7.092547	2.403020	0.000284
 364	3.6118e+01	14.4477	91.271565	0.000517	5.167427	1.750772	0.000207
 365	3.6218e+01	14.4910	91.509756	0.000598	5.978004	2.025403	0.000239
 366	3.6318e+01	14.5360	91.739873	0.000578	5.775360	1.956745	0.000231
 367	3.6417e+01	14.5664	91.994212	0.000638	6.383292	2.162718	0.000256
 368	3.6517e+01	14.6065	92.212217	0.000547	5.471393	1.853758	0.000219
 369	3.6616e+01	14.6515	92.418111	0.000517	5.167427	1.750772	0.000207
 370	3.6715e+01	14.6900	92.652265	0.000588	5.876682	1.991074	0.000235
 371	3.6815e+01	14.7269	92.882382	0.000578	5.775360	1.956745	0.000231
 372	3.6914e+01	14.7670	93.120573	0.000598	5.978004	2.025403	0.000239
 373	3.7014e+01	14.8087	93.330504	0.000527	5.268749	1.785101	0.000211
 374	3.7114e+01	14.8536	93.516212	0.000466	4.660817	1.579127	0.000187
 375	3.7213e+01	14.8873	93.754403	0.000598	5.978004	2.025403	0.000239
 376	3.7313e+01	14.9226	93.992594	0.000598	5.978004	2.025403	0.000239
 377	3.7412e+01	14.9595	94.198488	0.000517	5.167427	1.750772	0.000207
 378	3.7511e+01	15.0156	94.440716	0.000608	6.079326	2.059731	0.000243
 379	3.7611e+01	15.0397	94.662759	0.000557	5.572715	1.888087	0.000223
 380	3.7711e+01	15.0894	94.913061	0.000628	6.281970	2.128389	0.000252
 381	3.7810e+01	15.1311	95.102807	0.000476	4.762139	1.613456	0.000191
 382	3.7910e+01	15.1600	95.340998	0.000598	5.978004	2.025403	0.000239
 383	3.8009e+01	15.1969	95.554966	0.000537	5.370071	1.819429	0.000215
 384	3.8108e+01	15.2386	95.764897	0.000527	5.268749	1.785101	0.000211
 385	3.8208e+01	15.2787	95.999051	0.000588	5.876682	1.991074	0.000235
 386	3.8307e+01	15.3204	96.245316	0.000618	6.180648	2.094060	0.000248
 387	3.8407e+01	15.3605	96.467358	0.000557	5.572715	1.888087	0.000223
 388	3.8507e+01	15.4054	96.657104	0.000476	4.762139	1.613456	0.000191
 389	3.8606e+01	15.4439	96.899332	0.000608	6.079326	2.059731	0.000243
 390	3.8706e+01	15.4776	97.081003	0.000456	4.559494	1.544799	0.000183
 391	3.8805e+01	15.5258	97.323231	0.000608	6.079326	2.059731	0.000243
 392	3.8904e+01	15.5611	97.512977	0.000476	4.762139	1.613456	0.000191
 393	3.9004e+01	15.6076	97.735019	0.000557	5.572715	1.888087	0.000223
 394	3.9103e+01	15.6365	97.993396	0.000648	6.484614	2.197047	0.000260
 395	3.9203e+01	15.6814	98.207364	0.000537	5.370071	1.819429	0.000215
 396	3.9303e+01	15.7231	98.417295	0.000527	5.268749	1.785101	0.000211
 397	3.9402e+01	15.7648	98.683746	0.000669	6.687259	2.265705	0.000268
 398	3.9502e+01	15.8065	98.861380	0.000446	4.458172	1.510470	0.000179
 399	3.9601e+01	15.8418	99.087460	0.000567	5.674038	1.922416	0.000227
 400	3.9700e+01	15.8883	99.309502	0.000557	5.572715	1.888087	0.000223
 401	3.9800e+01	15.9268	99.547693	0.000598	5.978004	2.025403	0.000239
 402	3.9900e+01	15.9653	99.705141	0.000395	3.951562	1.338825	0.000158
 403	3.9999e+01	16.0006	99.971592	0.000669	6.687259	2.265705	0.000268
 404	4.0099e+01	16.0359	100.221895	0.000628	6.281970	2.128389	0.000252
 405	4.0198e+01	16.0937	100.427789	0.000517	5.167427	1.750772	0.000207
 406	4.0297e+01	16.1225	100.617534	0.000476	4.762139	1.613456	0.000191
 407	4.0397e+01	16.1642	100.843614	0.000567	5.674038	1.922416	0.000227
 408	4.0496e+01	16.2044	101.101990	0.000648	6.484614	2.197047	0.000260
 409	4.0596e+01	16.2445	101.319996	0.000547	5.471393	1.853758	0.000219
 410	4.0696e+01	16.2765	101.517815	0.000496	4.964783	1.682114	0.000199
 411	4.0795e+01	16.3150	101.723709	0.000517	5.167427	1.750772	0.000207
 412	4.0895e+01	16.3600	101.953826	0.000578	5.775360	1.956745	0.000231
 413	4.0994e+01	16.3953	102.212203	0.000648	6.484614	2.197047	0.000260
 414	4.1093e+01	16.4402	102.418097	0.000517	5.167427	1.750772	0.000207
 415	4.1193e+01	16.4851	102.664362	0.000618	6.180648	2.094060	0.000248
 416	4.1292e+01	16.5124	102.878330	0.000537	5.370071	1.819429	0.000215
 417	4.1392e+01	16.5573	103.096335	0.000547	5.471393	1.853758	0.000219
 418	4.1492e+01	16.5974	103.290118	0.000486	4.863461	1.647785	0.000195
 419	4.1591e+01	16.6455	103.524272	0.000588	5.876682	1.991074	0.000235
 420	4.1691e+01	16.6792	103.738240	0.000537	5.370071	1.819429	0.000215
 421	4.1790e+01	16.7081	103.956245	0.000547	5.471393	1.853758	0.000219
 422	4.1889e+01	16.7610	104.186362	0.000578	5.775360	1.956745	0.000231
 423	4.1989e+01	16.7979	104.416479	0.000578	5.775360	1.956745	0.000231
 424	4.2089e+01	16.8412	104.658707	0.000608	6.079326	2.059731	0.000243
 425	4.2188e+01	16.8765	104.884786	0.000567	5.674038	1.922416	0.000227
 426	4.2288e+01	16.9198	105.098755	0.000537	5.370071	1.819429	0.000215
 427	4.2387e+01	16.9648	105.332909	0.000588	5.876682	1.991074	0.000235
 428	4.2486e+01	16.9952	105.558988	0.000567	5.674038	1.922416	0.000227
 429	4.2586e+01	17.0337	105.764882	0.000517	5.167427	1.750772	0.000207
 430	4.2685e+01	17.0771	105.974813	0.000527	5.268749	1.785101	0.000211
 431	4.2785e+01	17.1156	106.221078	0.000618	6.180648	2.094060	0.000248
 432	4.2885e+01	17.1589	106.426972	0.000517	5.167427	1.750772	0.000207
 433	4.2984e+01	17.1990	106.653052	0.000567	5.674038	1.922416	0.000227
 434	4.3084e+01	17.2279	106.899317	0.000618	6.180648	2.094060	0.000248
 435	4.3183e+01	17.2840	107.125397	0.000567	5.674038	1.922416	0.000227
 436	4.3282e+01	17.3145	107.335328	0.000527	5.268749	1.785101	0.000211
 437	4.3382e+01	17.3594	107.581593	0.000618	6.180648	2.094060	0.000248
 438	4.3481e+01	17.3995	107.779413	0.000496	4.964783	1.682114	0.000199
 439	4.3581e+01	17.4428	108.013567	0.000588	5.876682	1.991074	0.000235
 440	4.3681e+01	17.4829	108.280018	0.000669	6.687259	2.265705	0.000268
 441	4.3780e+01	17.5102	108.502060	0.000557	5.572715	1.888087	0.000223
 442	4.3880e+01	17.5535	108.675657	0.000436	4.356850	1.476141	0.000174
 443	4.3979e+01	17.5968	108.909811	0.000588	5.876682	1.991074	0.000235
 444	4.4078e+01	17.6353	109.152039	0.000608	6.079326	2.059731	0.000243
 445	4.4178e+01	17.6819	109.386193	0.000588	5.876682	1.991074	0.000235
 446	4.4278e+01	17.7139	109.604198	0.000547	5.471393	1.853758	0.000219
 447	4.4377e+01	17.7524	109.802018	0.000496	4.964783	1.682114	0.000199
 448	4.4477e+01	17.7990	110.040209	0.000598	5.978004	2.025403	0.000239
 449	4.4576e+01	17.8327	110.238028	0.000496	4.964783	1.682114	0.000199
 450	4.4675e+01	17.8808	110.512554	0.000689	6.889903	2.334362	0.000276
 451	4.4775e+01	17.9064	110.734596	0.000557	5.572715	1.888087	0.000223
 452	4.4874e+01	17.9530	110.912230	0.000446	4.458172	1.510470	0.000179
 453	4.4974e+01	17.9995	111.198867	0.000719	7.193869	2.437349	0.000288
 454	4.5074e+01	18.0348	111.408798	0.000527	5.268749	1.785101	0.000211
 455	4.5173e+01	18.0781	111.630840	0.000557	5.572715	1.888087	0.000223
 456	4.5273e+01	18.1118	111.873068	0.000608	6.079326	2.059731	0.000243
 457	4.5372e+01	18.1567	112.111259	0.000598	5.978004	2.025403	0.000239
 458	4.5471e+01	18.1968	112.313116	0.000507	5.066105	1.716443	0.000203
 459	4.5571e+01	18.2225	112.559382	0.000618	6.180648	2.094060	0.000248
 460	4.5670e+01	18.2722	112.789498	0.000578	5.775360	1.956745	0.000231
 461	4.5770e+01	18.3219	113.023652	0.000588	5.876682	1.991074	0.000235
 462	4.5870e+01	18.3556	113.253769	0.000578	5.775360	1.956745	0.000231
 463	4.5969e+01	18.3909	113.495997	0.000608	6.079326	2.059731	0.000243
 464	4.6069e+01	18.4262	113.746299	0.000628	6.281970	2.128389	0.000252
 465	4.6168e+01	18.4727	113.948156	0.000507	5.066105	1.716443	0.000203
 466	4.6267e+01	18.5112	114.190384	0.000608	6.079326	2.059731	0.000243
 467	4.6367e+01	18.5481	114.440687	0.000628	6.281970	2.128389	0.000252
 468	4.6467e+01	18.6011	114.650618	0.000527	5.268749	1.785101	0.000211
 469	4.6566e+01	18.6300	114.896883	0.000618	6.180648	2.094060	0.000248
 470	4.6666e+01	18.6749	115.135074	0.000598	5.978004	2.025403	0.000239
 471	4.6765e+01	18.7214	115.401525	0.000669	6.687259	2.265705	0.000268
 472	4.6864e+01	18.7535	115.595308	0.000486	4.863461	1.647785	0.000195
 473	4.6964e+01	18.7856	115.837536	0.000608	6.079326	2.059731	0.000243
 474	4.7063e+01	18.8305	116.075727	0.000598	5.978004	2.025403	0.000239
 475	4.7163e+01	18.8770	116.326029	0.000628	6.281970	2.128389	0.000252
 476	4.7263e+01	18.9219	116.568257	0.000608	6.079326	2.059731	0.000243
 477	4.7362e+01	18.9476	116.778188	0.000527	5.268749	1.785101	0.000211
 478	4.7462e+01	18.9893	117.032528	0.000638	6.383292	2.162718	0.000256
 479	4.7561e+01	19.0294	117.262645	0.000578	5.775360	1.956745	0.000231
 480	4.7660e+01	19.0743	117.472576	0.000527	5.268749	1.785101	0.000211
 481	4.7760e+01	19.1128	117.751138	0.000699	6.991225	2.368691	0.000280
 482	4.7859e+01	19.1561	117.981255	0.000578	5.775360	1.956745	0.000231
 483	4.7959e+01	19.1850	118.199260	0.000547	5.471393	1.853758	0.000219
 484	4.8059e+01	19.2299	118.477823	0.000699	6.991225	2.368691	0.000280
 485	4.8158e+01	19.2765	118.691791	0.000537	5.370071	1.819429	0.000215
 486	4.8258e+01	19.3102	118.897685	0.000517	5.167427	1.750772	0.000207
 487	4.8357e+01	19.3519	119.152024	0.000638	6.383292	2.162718	0.000256
 488	4.8456e+01	19.3872	119.426549	0.000689	6.889903	2.334362	0.000276
 489	4.8556e+01	19.4305	119.644555	0.000547	5.471393	1.853758	0.000219
 490	4.8656e+01	19.4626	119.862560	0.000547	5.471393	1.853758	0.000219
 491	4.8755e+01	19.5011	120.076528	0.000537	5.370071	1.819429	0.000215
 492	4.8855e+01	19.5412	120.326831	0.000628	6.281970	2.128389	0.000252
 493	4.8954e+01	19.5925	120.581170	0.000638	6.383292	2.162718	0.000256
 494	4.9053e+01	19.6262	120.803213	0.000557	5.572715	1.888087	0.000223
 495	4.9153e+01	19.6711	121.061589	0.000648	6.484614	2.197047	0.000260
 496	4.9252e+01	19.7096	121.283632	0.000557	5.572715	1.888087	0.000223
 497	4.9352e+01	19.7513	121.533934	0.000628	6.281970	2.128389	0.000252
 498	4.9452e+01	19.7914	121.784237	0.000628	6.281970	2.128389	0.000252
 499	4.9551e+01	19.8331	121.969945	0.000466	4.660817	1.579127	0.000187
 500	4.9651e+01	19.8620	122.208136	0.000598	5.978004	2.025403	0.000239
 501	4.9750e+01	19.9005	122.486698	0.000699	6.991225	2.368691	0.000280
 502	4.9849e+01	19.9470	122.684518	0.000496	4.964783	1.682114	0.000199
 503	4.9949e+01	19.9919	122.934820	0.000628	6.281970	2.128389	0.000252
 504	5.0048e+01	19.9454	122.870226	0.000162	1.621154	0.549262	-0.000065
 505	5.0148e+01	19.9117	122.737001	0.000334	3.343629	1.132852	-0.000134
 506	5.0248e+01	19.8588	122.632035	0.000263	2.634375	0.892550	-0.000105
 507	5.0347e+01	19.8299	122.571478	0.000152	1.519831	0.514933	-0.000061
 508	5.0447e+01	19.7882	122.454401	0.000294	2.938341	0.995537	-0.000118
 509	5.0546e+01	19.7401	122.337324	0.000294	2.938341	0.995537	-0.000118
 510	5.0645e+01	19.7048	122.200062	0.000344	3.444951	1.167181	-0.000138
 511	5.0745e+01	19.6647	122.127393	0.000182	1.823798	0.617919	-0.000073
 512	5.0844e+01	19.6246	122.002242	0.000314	3.140985	1.064195	-0.000126
 513	5.0944e+01	19.5845	121.889202	0.000284	2.837019	0.961208	-0.000114
 514	5.1044e+01	19.5524	121.776162	0.000284	2.837019	0.961208	-0.000114
 515	5.1143e+01	19.5107	121.614677	0.000405	4.052884	1.373154	-0.000162
 516	5.1242e+01	19.4626	121.521823	0.000233	2.330408	0.789564	-0.000093
 517	5.1342e+01	19.4305	121.356300	0.000415	4.154206	1.407483	-0.000166
 518	5.1441e+01	19.3904	121.311892	0.000111	1.114543	0.377617	-0.000045
 519	5.1541e+01	19.3503	121.170592	0.000355	3.546273	1.201510	-0.000142
 520	5.1641e+01	19.3102	121.029292	0.000355	3.546273	1.201510	-0.000142
 521	5.1740e+01	19.2700	120.920290	0.000274	2.735697	0.926879	-0.000110
 522	5.1840e+01	19.2299	120.778990	0.000355	3.546273	1.201510	-0.000142
 523	5.1939e+01	19.1898	120.649802	0.000324	3.242307	1.098523	-0.000130
 524	5.2038e+01	19.1561	120.528687	0.000304	3.039663	1.029866	-0.000122
 525	5.2138e+01	19.1225	120.395462	0.000334	3.343629	1.132852	-0.000134
 526	5.2237e+01	19.0695	120.246088	0.000375	3.748918	1.270168	-0.000150
 527	5.2337e+01	19.0374	120.153234	0.000233	2.330408	0.789564	-0.000093
 528	5.2437e+01	18.9877	119.987711	0.000415	4.154206	1.407483	-0.000166
 529	5.2536e+01	18.9524	119.858523	0.000324	3.242307	1.098523	-0.000130
 530	5.2636e+01	18.9155	119.725297	0.000334	3.343629	1.132852	-0.000134
 531	5.2735e+01	18.8690	119.608221	0.000294	2.938341	0.995537	-0.000118
 532	5.2834e+01	18.8257	119.470958	0.000344	3.444951	1.167181	-0.000138
 533	5.2934e+01	18.7968	119.313510	0.000395	3.951562	1.338825	-0.000158
 534	5.3033e+01	18.7487	119.188358	0.000314	3.140985	1.064195	-0.000126
 535	5.3133e+01	18.7150	119.010724	0.000446	4.458172	1.510470	-0.000179
 536	5.3233e+01	18.6652	118.909796	0.000253	2.533052	0.858221	-0.000101
 537	5.3332e+01	18.6348	118.707939	0.000507	5.066105	1.716443	-0.000203
 538	5.3431e+01	18.5915	118.639308	0.000172	1.722476	0.583591	-0.000069
 539	5.3531e+01	18.5449	118.493971	0.000365	3.647596	1.235839	-0.000146
 540	5.3630e+01	18.5161	118.304226	0.000476	4.762139	1.613456	-0.000191
 541	5.3730e+01	18.4840	118.215409	0.000223	2.229086	0.755235	-0.000089
 542	5.3830e+01	18.4278	118.029700	0.000466	4.660817	1.579127	-0.000187
 543	5.3929e+01	18.3925	117.896475	0.000334	3.343629	1.132852	-0.000134
 544	5.4029e+01	18.3508	117.743064	0.000385	3.850240	1.304497	-0.000154
 545	5.4128e+01	18.3139	117.573504	0.000426	4.255528	1.441812	-0.000170
 546	5.4227e+01	18.2706	117.432204	0.000355	3.546273	1.201510	-0.000142
 547	5.4327e+01	18.2353	117.298979	0.000334	3.343629	1.132852	-0.000134
 548	5.4426e+01	18.1856	117.157679	0.000355	3.546273	1.201510	-0.000142
 549	5.4526e+01	18.1471	116.976008	0.000456	4.559494	1.544799	-0.000183
 550	5.4626e+01	18.1118	116.822597	0.000385	3.850240	1.304497	-0.000154
 551	5.4725e+01	18.0685	116.685334	0.000344	3.444951	1.167181	-0.000138
 552	5.4825e+01	18.0428	116.519812	0.000415	4.154206	1.407483	-0.000166
 553	5.4924e+01	17.9963	116.382549	0.000344	3.444951	1.167181	-0.000138
 554	5.5023e+01	17.9562	116.241249	0.000355	3.546273	1.201510	-0.000142
 555	5.5123e+01	17.9097	116.063615	0.000446	4.458172	1.510470	-0.000179
 556	5.5222e+01	17.8760	115.877907	0.000466	4.660817	1.579127	-0.000187
 557	5.5322e+01	17.8343	115.728533	0.000375	3.748918	1.270168	-0.000150
 558	5.5422e+01	17.7893	115.611456	0.000294	2.938341	0.995537	-0.000118
 559	5.5521e+01	17.7573	115.421711	0.000476	4.762139	1.613456	-0.000191
 560	5.5620e+01	17.7220	115.276374	0.000365	3.647596	1.235839	-0.000146
 561	5.5720e+01	17.6819	115.143148	0.000334	3.343629	1.132852	-0.000134
 562	5.5819e+01	17.6337	114.973589	0.000426	4.255528	1.441812	-0.000170
 563	5.5919e+01	17.6016	114.791918	0.000456	4.559494	1.544799	-0.000183
 564	5.6019e+01	17.5615	114.642544	0.000375	3.748918	1.270168	-0.000150
 565	5.6118e+01	17.5118	114.497207	0.000365	3.647596	1.235839	-0.000146
 566	5.6218e+01	17.4797	114.327647	0.000426	4.255528	1.441812	-0.000170
 567	5.6317e+01	17.4428	114.137902	0.000476	4.762139	1.613456	-0.000191
 568	5.6416e+01	17.3899	113.980453	0.000395	3.951562	1.338825	-0.000158
 569	5.6516e+01	17.3594	113.814931	0.000415	4.154206	1.407483	-0.000166
 570	5.6615e+01	17.3193	113.641334	0.000436	4.356850	1.476141	-0.000174
 571	5.6715e+01	17.2728	113.487923	0.000385	3.850240	1.304497	-0.000154
 572	5.6815e+01	17.2391	113.330474	0.000395	3.951562	1.338825	-0.000158
 573	5.6914e+01	17.1958	113.177063	0.000385	3.850240	1.304497	-0.000154
 574	5.7014e+01	17.1573	113.003466	0.000436	4.356850	1.476141	-0.000174
 575	5.7113e+01	17.1188	112.854092	0.000375	3.748918	1.270168	-0.000150
 576	5.7212e+01	17.0755	112.696644	0.000395	3.951562	1.338825	-0.000158
 577	5.7312e+01	17.0434	112.519010	0.000446	4.458172	1.510470	-0.000179
 578	5.7411e+01	17.0017	112.313116	0.000517	5.167427	1.750772	-0.000207
 579	5.7511e+01	16.9648	112.183928	0.000324	3.242307	1.098523	-0.000130
 580	5.7611e+01	16.9231	112.010331	0.000436	4.356850	1.476141	-0.000174
 581	5.7710e+01	16.8749	111.860957	0.000375	3.748918	1.270168	-0.000150
 582	5.7809e+01	16.8268	111.655063	0.000517	5.167427	1.750772	-0.000207
 583	5.7909e+01	16.8027	111.529912	0.000314	3.140985	1.064195	-0.000126
 584	5.8008e+01	16.7578	111.368426	0.000405	4.052884	1.373154	-0.000162
 585	5.8108e+01	16.7225	111.170607	0.000496	4.964783	1.682114	-0.000199
 586	5.8208e+01	16.6824	111.013159	0.000395	3.951562	1.338825	-0.000158
 587	5.8307e+01	16.6343	110.847636	0.000415	4.154206	1.407483	-0.000166
 588	5.8407e+01	16.5974	110.698262	0.000375	3.748918	1.270168	-0.000150
 589	5.8506e+01	16.5653	110.508517	0.000476	4.762139	1.613456	-0.000191
 590	5.8605e+01	16.5188	110.314734	0.000486	4.863461	1.647785	-0.000195
 591	5.8705e+01	16.4819	110.185546	0.000324	3.242307	1.098523	-0.000130
 592	5.8804e+01	16.4482	110.032135	0.000385	3.850240	1.304497	-0.000154
 593	5.8904e+01	16.4049	109.838352	0.000486	4.863461	1.647785	-0.000195
 594	5.9004e+01	16.3632	109.648607	0.000476	4.762139	1.613456	-0.000191
 595	5.9103e+01	16.3215	109.491158	0.000395	3.951562	1.338825	-0.000158
 596	5.9203e+01	16.2749	109.333710	0.000395	3.951562	1.338825	-0.000158
 597	5.9302e+01	16.2380	109.139928	0.000486	4.863461	1.647785	-0.000195
 598	5.9401e+01	16.2124	108.982479	0.000395	3.951562	1.338825	-0.000158
 599	5.9501e+01	16.1610	108.768511	0.000537	5.370071	1.819429	-0.000215
 600	5.9600e+01	16.1177	108.659508	0.000274	2.735697	0.926879	-0.000110
 601	5.9700e+01	16.0889	108.465726	0.000486	4.863461	1.647785	-0.000195
 602	5.9800e+01	16.0407	108.275980	0.000476	4.762139	1.613456	-0.000191
 603	5.9899e+01	16.0054	108.126606	0.000375	3.748918	1.270168	-0.000150
 604	5.9998e+01	15.9621	107.944935	0.000456	4.559494	1.544799	-0.000183
 605	6.0098e+01	15.9236	107.779413	0.000415	4.154206	1.407483	-0.000166
 606	6.0197e+01	15.8835	107.601779	0.000446	4.458172	1.510470	-0.000179
 607	6.0297e+01	15.8434	107.391848	0.000527	5.268749	1.785101	-0.000211
 608	6.0397e+01	15.8049	107.234399	0.000395	3.951562	1.338825	-0.000158
 609	6.0496e+01	15.7600	107.040617	0.000486	4.863461	1.647785	-0.000195
 610	6.0596e+01	15.7199	106.871057	0.000426	4.255528	1.441812	-0.000170
 611	6.0695e+01	15.6782	106.661126	0.000527	5.268749	1.785101	-0.000211
 612	6.0794e+01	15.6509	106.527901	0.000334	3.343629	1.132852	-0.000134
 613	6.0894e+01	15.6076	106.334118	0.000486	4.863461	1.647785	-0.000195
 614	6.0993e+01	15.5643	106.196856	0.000344	3.444951	1.167181	-0.000138
 615	6.1093e+01	15.5242	105.986925	0.000527	5.268749	1.785101	-0.000211
 616	6.1193e+01	15.4776	105.793142	0.000486	4.863461	1.647785	-0.000195
 617	6.1292e+01	15.4552	105.643768	0.000375	3.748918	1.270168	-0.000150
 618	6.1392e+01	15.4006	105.445948	0.000496	4.964783	1.682114	-0.000199
 619	6.1491e+01	15.3637	105.264277	0.000456	4.559494	1.544799	-0.000183
 620	6.1590e+01	15.3172	105.102792	0.000405	4.052884	1.373154	-0.000162
 621	6.1690e+01	15.2803	104.909009	0.000486	4.863461	1.647785	-0.000195
 622	6.1789e+01	15.2434	104.719264	0.000476	4.762139	1.613456	-0.000191
 623	6.1889e+01	15.1969	104.577964	0.000355	3.546273	1.201510	-0.000142
 624	6.1989e+01	15.1712	104.424553	0.000385	3.850240	1.304497	-0.000154
 625	6.2088e+01	15.1183	104.226733	0.000496	4.964783	1.682114	-0.000199
 626	6.2188e+01	15.0846	104.041025	0.000466	4.660817	1.579127	-0.000187
 627	6.2287e+01	15.0285	103.875503	0.000415	4.154206	1.407483	-0.000166
 628	6.2386e+01	15.0044	103.685757	0.000476	4.762139	1.613456	-0.000191
 629	6.2486e+01	14.9627	103.491975	0.000486	4.863461	1.647785	-0.000195
 630	6.2586e+01	14.9194	103.334526	0.000395	3.951562	1.338825	-0.000158
 631	6.2685e+01	14.8873	103.132670	0.000507	5.066105	1.716443	-0.000203
 632	6.2785e+01	14.8472	103.015593	0.000294	2.938341	0.995537	-0.000118
 633	6.2884e+01	14.8023	102.765290	0.000628	6.281970	2.128389	-0.000252
 634	6.2983e+01	14.7702	102.623990	0.000355	3.546273	1.201510	-0.000142
 635	6.3083e+01	14.7333	102.466542	0.000395	3.951562	1.338825	-0.000158
 636	6.3182e+01	14.6948	102.288908	0.000446	4.458172	1.510470	-0.000179
 637	6.3282e+01	14.6434	102.087051	0.000507	5.066105	1.716443	-0.000203
 638	6.3382e+01	14.6178	101.901343	0.000466	4.660817	1.579127	-0.000187
 639	6.3481e+01	14.5696	101.735821	0.000415	4.154206	1.407483	-0.000166
 640	6.3581e+01	14.5376	101.602595	0.000334	3.343629	1.132852	-0.000134
 641	6.3680e+01	14.4766	101.364404	0.000598	5.978004	2.025403	-0.000239
 642	6.3779e+01	14.4541	101.174659	0.000476	4.762139	1.613456	-0.000191
 643	6.3879e+01	14.4140	100.988950	0.000466	4.660817	1.579127	-0.000187
 644	6.3978e+01	14.3691	100.851688	0.000344	3.444951	1.167181	-0.000138
 645	6.4078e+01	14.3274	100.682128	0.000426	4.255528	1.441812	-0.000170
 646	6.4177e+01	14.2921	100.516606	0.000415	4.154206	1.407483	-0.000166
 647	6.4277e+01	14.2472	100.322823	0.000486	4.863461	1.647785	-0.000195
 648	6.4376e+01	14.2039	100.120966	0.000507	5.066105	1.716443	-0.000203
 649	6.4476e+01	14.1686	99.927184	0.000486	4.863461	1.647785	-0.000195
 650	6.4576e+01	14.1237	99.733401	0.000486	4.863461	1.647785	-0.000195
 651	6.4675e+01	14.0932	99.571916	0.000405	4.052884	1.373154	-0.000162
 652	6.4775e+01	14.0467	99.394282	0.000446	4.458172	1.510470	-0.000179
 653	6.4874e+01	14.0114	99.212611	0.000456	4.559494	1.544799	-0.000183
 654	6.4974e+01	13.9713	99.010754	0.000507	5.066105	1.716443	-0.000203
 655	6.5073e+01	13.9344	98.829083	0.000456	4.559494	1.544799	-0.000183
 656	6.5172e+01	13.8943	98.643375	0.000466	4.660817	1.579127	-0.000187
 657	6.5272e+01	13.8493	98.481889	0.000405	4.052884	1.373154	-0.000162
 658	6.5371e+01	13.8076	98.296181	0.000466	4.660817	1.579127	-0.000187
 659	6.5471e+01	13.7627	98.122584	0.000436	4.356850	1.476141	-0.000174
 660	6.5570e+01	13.7306	97.920727	0.000507	5.066105	1.716443	-0.000203
 661	6.5670e+01	13.6873	97.690611	0.000578	5.775360	1.956745	-0.000231
 662	6.5769e+01	13.6633	97.500865	0.000476	4.762139	1.613456	-0.000191
 663	6.5869e+01	13.6103	97.327268	0.000436	4.356850	1.476141	-0.000174
 664	6.5969e+01	13.5670	97.105226	0.000557	5.572715	1.888087	-0.000223
 665	6.6068e+01	13.5269	96.919518	0.000466	4.660817	1.579127	-0.000187
 666	6.6168e+01	13.4884	96.770144	0.000375	3.748918	1.270168	-0.000150
 667	6.6267e+01	13.4547	96.552138	0.000547	5.471393	1.853758	-0.000219
 668	6.6367e+01	13.4178	96.394690	0.000395	3.951562	1.338825	-0.000158
 669	6.6466e+01	13.3745	96.164573	0.000578	5.775360	1.956745	-0.000231
 670	6.6566e+01	13.3344	96.011162	0.000385	3.850240	1.304497	-0.000154
 671	6.6665e+01	13.2943	95.821417	0.000476	4.762139	1.613456	-0.000191
 672	6.6764e+01	13.2494	95.635708	0.000466	4.660817	1.579127	-0.000187
 673	6.6864e+01	13.2044	95.373295	0.000659	6.585936	2.231376	-0.000264
 674	6.6963e+01	13.1675	95.227958	0.000365	3.647596	1.235839	-0.000146
 675	6.7063e+01	13.1274	95.062435	0.000415	4.154206	1.407483	-0.000166
 676	6.7162e+01	13.1002	94.832318	0.000578	5.775360	1.956745	-0.000231
 677	6.7262e+01	13.0376	94.646610	0.000466	4.660817	1.579127	-0.000187
 678	6.7362e+01	13.0087	94.481088	0.000415	4.154206	1.407483	-0.000166
 679	6.7461e+01	12.9734	94.271157	0.000527	5.268749	1.785101	-0.000211
 680	6.7561e+01	12.9317	94.069300	0.000507	5.066105	1.716443	-0.000203
 681	6.7660e+01	12.8948	93.895703	0.000436	4.356850	1.476141	-0.000174
 682	6.7760e+01	12.8531	93.693846	0.000507	5.066105	1.716443	-0.000203
 683	6.7859e+01	12.8178	93.496027	0.000496	4.964783	1.682114	-0.000199
 684	6.7959e+01	12.7777	93.290133	0.000517	5.167427	1.750772	-0.000207
 685	6.8058e+01	12.7376	93.108462	0.000456	4.559494	1.544799	-0.000183
 686	6.8157e+01	12.6991	92.934865	0.000436	4.356850	1.476141	-0.000174
 687	6.8257e+01	12.6590	92.700711	0.000588	5.876682	1.991074	-0.000235
 688	6.8356e+01	12.6109	92.535188	0.000415	4.154206	1.407483	-0.000166
 689	6.8456e+01	12.5836	92.313146	0.000557	5.572715	1.888087	-0.000223
 690	6.8555e+01	12.5371	92.139549	0.000436	4.356850	1.476141	-0.000174
 691	6.8655e+01	12.4906	91.949804	0.000476	4.762139	1.613456	-0.000191
 692	6.8754e+01	12.4633	91.727761	0.000557	5.572715	1.888087	-0.000223
 693	6.8854e+01	12.4248	91.566276	0.000405	4.052884	1.373154	-0.000162
 694	6.8954e+01	12.3767	91.328085	0.000598	5.978004	2.025403	-0.000239
 695	6.9053e+01	12.3398	91.138339	0.000476	4.762139	1.613456	-0.000191
 696	6.9153e+01	12.2948	90.940520	0.000496	4.964783	1.682114	-0.000199
 697	6.9252e+01	12.2531	90.758849	0.000456	4.559494	1.544799	-0.000183
 698	6.9352e+01	12.2243	90.548917	0.000527	5.268749	1.785101	-0.000211
 699	6.9451e+01	12.1809	90.391469	0.000395	3.951562	1.338825	-0.000158
 700	6.9550e+01	12.1344	90.161352	0.000578	5.775360	1.956745	-0.000231
 701	6.9650e+01	12.1007	89.947384	0.000537	5.370071	1.819429	-0.000215
 702	6.9749e+01	12.0686	89.725342	0.000557	5.572715	1.888087	-0.000223
 703	6.9849e+01	12.0189	89.575968	0.000375	3.748918	1.270168	-0.000150
 704	6.9948e+01	11.9724	89.333740	0.000608	6.079326	2.059731	-0.000243
 705	7.0048e+01	11.9339	89.160143	0.000436	4.356850	1.476141	-0.000174
 706	7.0147e+01	11.8938	88.934063	0.000567	5.674038	1.922416	-0.000227
 707	7.0247e+01	11.8489	88.764503	0.000426	4.255528	1.441812	-0.000170
 708	7.0347e+01	11.8104	88.510164	0.000638	6.383292	2.162718	-0.000256
 709	7.0446e+01	11.7831	88.348678	0.000405	4.052884	1.373154	-0.000162
 710	7.0546e+01	11.7414	88.114525	0.000588	5.876682	1.991074	-0.000235
 711	7.0645e+01	11.7029	87.928816	0.000466	4.660817	1.579127	-0.000187
 712	7.0745e+01	11.6612	87.718885	0.000527	5.268749	1.785101	-0.000211
 713	7.0844e+01	11.6259	87.512991	0.000517	5.167427	1.750772	-0.000207
 714	7.0944e+01	11.5777	87.299023	0.000537	5.370071	1.819429	-0.000215
 715	7.1043e+01	11.5409	87.064869	0.000588	5.876682	1.991074	-0.000235
 716	7.1142e+01	11.4927	86.875124	0.000476	4.762139	1.613456	-0.000191
 717	7.1242e+01	11.4638	86.665193	0.000527	5.268749	1.785101	-0.000211
 718	7.1341e+01	11.4157	86.463336	0.000507	5.066105	1.716443	-0.000203
 719	7.1441e+01	11.3949	86.269554	0.000486	4.863461	1.647785	-0.000195
 720	7.1540e+01	11.3499	86.063660	0.000517	5.167427	1.750772	-0.000207
 721	7.1640e+01	11.3002	85.829506	0.000588	5.876682	1.991074	-0.000235
 722	7.1740e+01	11.2665	85.607463	0.000557	5.572715	1.888087	-0.000223
 723	7.1839e+01	11.2248	85.417718	0.000476	4.762139	1.613456	-0.000191
 724	7.1939e+01	11.1815	85.199713	0.000547	5.471393	1.853758	-0.000219
 725	7.2038e+01	11.1430	84.985744	0.000537	5.370071	1.819429	-0.000215
 726	7.2138e+01	11.1045	84.779850	0.000517	5.167427	1.750772	-0.000207
 727	7.2237e+01	11.0564	84.529548	0.000628	6.281970	2.128389	-0.000252
 728	7.2337e+01	11.0307	84.400360	0.000324	3.242307	1.098523	-0.000130
 729	7.2436e+01	10.9890	84.113723	0.000719	7.193869	2.437349	-0.000288
 730	7.2535e+01	10.9441	83.948201	0.000415	4.154206	1.407483	-0.000166
 731	7.2635e+01	10.8992	83.677712	0.000679	6.788581	2.300033	-0.000272
 732	7.2734e+01	10.8639	83.487967	0.000476	4.762139	1.613456	-0.000191
 733	7.2834e+01	10.8173	83.249776	0.000598	5.978004	2.025403	-0.000239
 734	7.2933e+01	10.7885	83.060031	0.000476	4.762139	1.613456	-0.000191
 735	7.3033e+01	10.7403	82.813765	0.000618	6.180648	2.094060	-0.000248
 736	7.3132e+01	10.6938	82.656317	0.000395	3.951562	1.338825	-0.000158
 737	7.3232e+01	10.6714	82.385829	0.000679	6.788581	2.300033	-0.000272
 738	7.3332e+01	10.6232	82.196084	0.000476	4.762139	1.613456	-0.000191
 739	7.3431e+01	10.5847	81.982115	0.000537	5.370071	1.819429	-0.000215
 740	7.3531e+01	10.5430	81.727776	0.000638	6.383292	2.162718	-0.000256
 741	7.3630e+01	10.5061	81.554179	0.000436	4.356850	1.476141	-0.000174
 742	7.3730e+01	10.4756	81.348285	0.000517	5.167427	1.750772	-0.000207
 743	7.3829e+01	10.4211	81.069723	0.000699	6.991225	2.368691	-0.000280
 744	7.3928e+01	10.3810	80.875940	0.000486	4.863461	1.647785	-0.000195
 745	7.4028e+01	10.3505	80.641786	0.000588	5.876682	1.991074	-0.000235
 746	7.4127e+01	10.3104	80.423781	0.000547	5.471393	1.853758	-0.000219
 747	7.4227e+01	10.2639	80.229999	0.000486	4.863461	1.647785	-0.000195
 748	7.4326e+01	10.2222	80.024105	0.000517	5.167427	1.750772	-0.000207
 749	7.4426e+01	10.1869	79.773802	0.000628	6.281970	2.128389	-0.000252
 750	7.4525e+01	10.1452	79.559834	0.000537	5.370071	1.819429	-0.000215
 751	7.4625e+01	10.1051	79.345866	0.000537	5.370071	1.819429	-0.000215
 752	7.4725e+01	10.0650	79.127860	0.000547	5.471393	1.853758	-0.000219
 753	7.4824e+01	10.0361	78.865447	0.000659	6.585936	2.231376	-0.000264
 754	7.4924e+01	9.9912	78.695887	0.000426	4.255528	1.441812	-0.000170
 755	7.5023e+01	9.9527	78.473844	0.000557	5.572715	1.888087	-0.000223
 756	7.5123e+01	9.9126	78.199319	0.000689	6.889903	2.334362	-0.000276
 757	7.5222e+01	9.8692	77.985351	0.000537	5.370071	1.819429	-0.000215
 758	7.5322e+01	9.8291	77.779457	0.000517	5.167427	1.750772	-0.000207
 759	7.5421e+01	9.7858	77.549340	0.000578	5.775360	1.956745	-0.000231
 760	7.5520e+01	9.7329	77.343446	0.000517	5.167427	1.750772	-0.000207
 761	7.5620e+01	9.7056	77.133515	0.000527	5.268749	1.785101	-0.000211
 762	7.5719e+01	9.6687	76.883213	0.000628	6.281970	2.128389	-0.000252
 763	7.5819e+01	9.6286	76.693468	0.000476	4.762139	1.613456	-0.000191
 764	7.5918e+01	9.5917	76.418942	0.000689	6.889903	2.334362	-0.000276
 765	7.6018e+01	9.5548	76.249383	0.000426	4.255528	1.441812	-0.000170
 766	7.6118e+01	9.5099	75.995043	0.000638	6.383292	2.162718	-0.000256
 767	7.6217e+01	9.4634	75.748778	0.000618	6.180648	2.094060	-0.000248
 768	7.6317e+01	9.4265	75.518661	0.000578	5.775360	1.956745	-0.000231
 769	7.6416e+01	9.3912	75.328916	0.000476	4.762139	1.613456	-0.000191
 770	7.6516e+01	9.3463	75.094762	0.000588	5.876682	1.991074	-0.000235
 771	7.6615e+01	9.3062	74.848497	0.000618	6.180648	2.094060	-0.000248
 772	7.6715e+01	9.2741	74.622417	0.000567	5.674038	1.922416	-0.000227
 773	7.6814e+01	9.2308	74.404412	0.000547	5.471393	1.853758	-0.000219
 774	7.6913e+01	9.1906	74.182369	0.000557	5.572715	1.888087	-0.000223
 775	7.7013e+01	9.1409	73.936104	0.000618	6.180648	2.094060	-0.000248
 776	7.7112e+01	9.1040	73.689839	0.000618	6.180648	2.094060	-0.000248
 777	7.7212e+01	9.0639	73.467796	0.000557	5.572715	1.888087	-0.000223
 778	7.7311e+01	9.0238	73.249791	0.000547	5.471393	1.853758	-0.000219
 779	7.7411e+01	8.9789	73.007563	0.000608	6.079326	2.059731	-0.000243
 780	7.7510e+01	8.9484	72.801669	0.000517	5.167427	1.750772	-0.000207
 781	7.7610e+01	8.9115	72.583663	0.000547	5.471393	1.853758	-0.000219
 782	7.7710e+01	8.8682	72.341435	0.000608	6.079326	2.059731	-0.000243
 783	7.7809e+01	8.8345	72.083059	0.000648	6.484614	2.197047	-0.000260
 784	7.7909e+01	8.7816	71.848905	0.000588	5.876682	1.991074	-0.000235
 785	7.8008e+01	8.7447	71.626862	0.000557	5.572715	1.888087	-0.000223
 786	7.8108e+01	8.7158	71.380597	0.000618	6.180648	2.094060	-0.000248
 787	7.8207e+01	8.6741	71.122220	0.000648	6.484614	2.197047	-0.000260
 788	7.8306e+01	8.6324	70.932475	0.000476	4.762139	1.613456	-0.000191
 789	7.8406e+01	8.5891	70.690247	0.000608	6.079326	2.059731	-0.000243
 790	7.8505e+01	8.5570	70.448019	0.000608	6.079326	2.059731	-0.000243
 791	7.8605e+01	8.5137	70.234050	0.000537	5.370071	1.819429	-0.000215
 792	7.8704e+01	8.4591	69.991822	0.000608	6.079326	2.059731	-0.000243
 793	7.8804e+01	8.4383	69.777854	0.000537	5.370071	1.819429	-0.000215
 794	7.8903e+01	8.3869	69.515440	0.000659	6.585936	2.231376	-0.000264
 795	7.9003e+01	8.3516	69.293398	0.000557	5.572715	1.888087	-0.000223
 796	7.9103e+01	8.3147	69.051170	0.000608	6.079326	2.059731	-0.000243
 797	7.9202e+01	8.2698	68.760496	0.000730	7.295191	2.471678	-0.000292
 798	7.9302e+01	8.2297	68.570751	0.000476	4.762139	1.613456	-0.000191
 799	7.9401e+01	8.1832	68.405228	0.000415	4.154206	1.407483	-0.000166
 800	7.9501e+01	8.1463	68.098406	0.000770	7.700480	2.608993	-0.000308
 801	7.9600e+01	8.1030	67.864252	0.000588	5.876682	1.991074	-0.000235
 802	7.9700e+01	8.0757	67.617986	0.000618	6.180648	2.094060	-0.000248
 803	7.9799e+01	8.0372	67.408055	0.000527	5.268749	1.785101	-0.000211
 804	7.9898e+01	7.9939	67.202161	0.000517	5.167427	1.750772	-0.000207
 805	7.9998e+01	7.9602	66.935711	0.000669	6.687259	2.265705	-0.000268
 806	8.0097e+01	7.9137	66.689445	0.000618	6.180648	2.094060	-0.000248
 807	8.0197e+01	7.8704	66.483551	0.000517	5.167427	1.750772	-0.000207
 808	8.0296e+01	7.8351	66.241323	0.000608	6.079326	2.059731	-0.000243
 809	8.0396e+01	7.7821	65.995058	0.000618	6.180648	2.094060	-0.000248
 810	8.0496e+01	7.7613	65.752830	0.000608	6.079326	2.059731	-0.000243
 811	8.0595e+01	7.7132	65.518676	0.000588	5.876682	1.991074	-0.000235
 812	8.0695e+01	7.6698	65.272411	0.000618	6.180648	2.094060	-0.000248
 813	8.0794e+01	7.6442	65.030182	0.000608	6.079326	2.059731	-0.000243
 814	8.0894e+01	7.5912	64.783917	0.000618	6.180648	2.094060	-0.000248
 815	8.0993e+01	7.5559	64.565912	0.000547	5.471393	1.853758	-0.000219
 816	8.1093e+01	7.5271	64.319647	0.000618	6.180648	2.094060	-0.000248
 817	8.1192e+01	7.4741	64.041084	0.000699	6.991225	2.368691	-0.000280
 818	8.1291e+01	7.4308	63.867487	0.000436	4.356850	1.476141	-0.000174
 819	8.1391e+01	7.3987	63.621222	0.000618	6.180648	2.094060	-0.000248
 820	8.1490e+01	7.3586	63.366883	0.000638	6.383292	2.162718	-0.000256
 821	8.1590e+01	7.3153	63.144840	0.000557	5.572715	1.888087	-0.000223
 822	8.1689e+01	7.2736	62.850129	0.000740	7.396513	2.506007	-0.000296
 823	8.1789e+01	7.2303	62.628087	0.000557	5.572715	1.888087	-0.000223
 824	8.1888e+01	7.1902	62.381821	0.000618	6.180648	2.094060	-0.000248
 825	8.1988e+01	7.1645	62.163816	0.000547	5.471393	1.853758	-0.000219
 826	8.2088e+01	7.1132	61.913514	0.000628	6.281970	2.128389	-0.000252
 827	8.2187e+01	7.0763	61.651100	0.000659	6.585936	2.231376	-0.000264
 828	8.2287e+01	7.0346	61.453280	0.000496	4.964783	1.682114	-0.000199
 829	8.2386e+01	6.9945	61.158569	0.000740	7.396513	2.506007	-0.000296
 830	8.2486e+01	6.9624	60.956713	0.000507	5.066105	1.716443	-0.000203
 831	8.2585e+01	6.9142	60.674113	0.000709	7.092547	2.403020	-0.000284
 832	8.2684e+01	6.8757	60.500516	0.000436	4.356850	1.476141	-0.000174
 833	8.2784e+01	6.8324	60.201768	0.000750	7.497835	2.540335	-0.000300
 834	8.2883e+01	6.7987	59.939354	0.000659	6.585936	2.231376	-0.000264
 835	8.2983e+01	6.7634	59.693089	0.000618	6.180648	2.094060	-0.000248
 836	8.3082e+01	6.7298	59.454898	0.000598	5.978004	2.025403	-0.000239
 837	8.3182e+01	6.6704	59.196521	0.000648	6.484614	2.197047	-0.000260
 838	8.3281e+01	6.6367	58.958330	0.000598	5.978004	2.025403	-0.000239
 839	8.3381e+01	6.5950	58.716102	0.000608	6.079326	2.059731	-0.000243
 840	8.3481e+01	6.5581	58.401206	0.000790	7.903124	2.677651	-0.000316
 841	8.3580e+01	6.5212	58.195312	0.000517	5.167427	1.750772	-0.000207
 842	8.3680e+01	6.4795	57.957121	0.000598	5.978004	2.025403	-0.000239
 843	8.3779e+01	6.4410	57.735078	0.000557	5.572715	1.888087	-0.000223
 844	8.3879e+01	6.3977	57.452479	0.000709	7.092547	2.403020	-0.000284
 845	8.3978e+01	6.3640	57.194102	0.000648	6.484614	2.197047	-0.000260
 846	8.4078e+01	6.3255	56.968022	0.000567	5.674038	1.922416	-0.000227
 847	8.4177e+01	6.2742	56.701571	0.000669	6.687259	2.265705	-0.000268
 848	8.4276e+01	6.2324	56.451269	0.000628	6.281970	2.128389	-0.000252
 849	8.4376e+01	6.2036	56.176744	0.000689	6.889903	2.334362	-0.000276
 850	8.4475e+01	6.1586	55.930479	0.000618	6.180648	2.094060	-0.000248
 851	8.4575e+01	6.1250	55.704399	0.000567	5.674038	1.922416	-0.000227
 852	8.4674e+01	6.0833	55.405651	0.000750	7.497835	2.540335	-0.000300
 853	8.4774e+01	6.0415	55.179571	0.000567	5.674038	1.922416	-0.000227
 854	8.4874e+01	6.0046	54.896972	0.000709	7.092547	2.403020	-0.000284
 855	8.4973e+01	5.9710	54.654744	0.000608	6.079326	2.059731	-0.000243
 856	8.5073e+01	5.9100	54.392330	0.000659	6.585936	2.231376	-0.000264
 857	8.5172e+01	5.8843	54.186436	0.000517	5.167427	1.750772	-0.000207
 858	8.5272e+01	5.8362	53.895762	0.000730	7.295191	2.471678	-0.000292
 859	8.5371e+01	5.8073	53.637385	0.000648	6.484614	2.197047	-0.000260
 860	8.5471e+01	5.7736	53.403232	0.000588	5.876682	1.991074	-0.000235
 861	8.5570e+01	5.7159	53.152929	0.000628	6.281970	2.128389	-0.000252
 862	8.5669e+01	5.6806	52.850144	0.000760	7.599157	2.574664	-0.000304
 863	8.5769e+01	5.6405	52.632139	0.000547	5.471393	1.853758	-0.000219
 864	8.5868e+01	5.5972	52.341465	0.000730	7.295191	2.471678	-0.000292
 865	8.5968e+01	5.5667	52.107311	0.000588	5.876682	1.991074	-0.000235
 866	8.6067e+01	5.5250	51.808563	0.000750	7.497835	2.540335	-0.000300
 867	8.6167e+01	5.4801	51.586520	0.000557	5.572715	1.888087	-0.000223
 868	8.6266e+01	5.4512	51.316032	0.000679	6.788581	2.300033	-0.000272
 869	8.6366e+01	5.4015	51.077841	0.000598	5.978004	2.025403	-0.000239
 870	8.6466e+01	5.3565	50.779093	0.000750	7.497835	2.540335	-0.000300
 871	8.6565e+01	5.3277	50.557051	0.000557	5.572715	1.888087	-0.000223
 872	8.6665e+01	5.2843	50.278488	0.000699	6.991225	2.368691	-0.000280
 873	8.6764e+01	5.2426	50.020112	0.000648	6.484614	2.197047	-0.000260
 874	8.6864e+01	5.2025	49.749624	0.000679	6.788581	2.300033	-0.000272
 875	8.6963e+01	5.1753	49.483173	0.000669	6.687259	2.265705	-0.000268
 876	8.7063e+01	5.1207	49.236907	0.000618	6.180648	2.094060	-0.000248
 877	8.7162e+01	5.0838	48.942197	0.000740	7.396513	2.506007	-0.000296
 878	8.7261e+01	5.0485	48.659597	0.000709	7.092547	2.403020	-0.000284
 879	8.7361e+01	5.0148	48.389109	0.000679	6.788581	2.300033	-0.000272
 880	8.7460e+01	4.9683	48.138807	0.000628	6.281970	2.128389	-0.000252
 881	8.7560e+01	4.9282	47.896578	0.000608	6.079326	2.059731	-0.000243
 882	8.7659e+01	4.8753	47.658387	0.000598	5.978004	2.025403	-0.000239
 883	8.7759e+01	4.8512	47.335417	0.000811	8.105768	2.746309	-0.000325
 884	8.7859e+01	4.7967	47.113374	0.000557	5.572715	1.888087	-0.000223
 885	8.7958e+01	4.7598	46.794440	0.000800	8.004446	2.711980	-0.000321
 886	8.8058e+01	4.7261	46.552212	0.000608	6.079326	2.059731	-0.000243
 887	8.8157e+01	4.6860	46.285761	0.000669	6.687259	2.265705	-0.000268
 888	8.8257e+01	4.6426	46.027385	0.000648	6.484614	2.197047	-0.000260
 889	8.8356e+01	4.6106	45.736711	0.000730	7.295191	2.471678	-0.000292
 890	8.8456e+01	4.5656	45.458148	0.000699	6.991225	2.368691	-0.000280
 891	8.8555e+01	4.5239	45.183623	0.000689	6.889903	2.334362	-0.000276
 892	8.8654e+01	4.4870	44.925246	0.000648	6.484614	2.197047	-0.000260
 893	8.8754e+01	4.4550	44.630536	0.000740	7.396513	2.506007	-0.000296
 894	8.8853e+01	4.4036	44.319676	0.000780	7.801802	2.643322	-0.000312
 895	8.8953e+01	4.3667	44.081485	0.000598	5.978004	2.025403	-0.000239
 896	8.9052e+01	4.3314	43.794848	0.000719	7.193869	2.437349	-0.000288
 897	8.9152e+01	4.2977	43.512249	0.000709	7.092547	2.403020	-0.000284
 898	8.9251e+01	4.2464	43.274058	0.000598	5.978004	2.025403	-0.000239
 899	8.9351e+01	4.2127	42.987421	0.000719	7.193869	2.437349	-0.000288
 900	8.9451e+01	4.1710	42.672525	0.000790	7.903124	2.677651	-0.000316
 901	8.9550e+01	4.1341	42.406074	0.000669	6.687259	2.265705	-0.000268
 902	8.9650e+01	4.0924	42.151734	0.000638	6.383292	2.162718	-0.000256
 903	8.9749e+01	4.0395	41.873172	0.000699	6.991225	2.368691	-0.000280
 904	8.9849e+01	4.0122	41.582498	0.000730	7.295191	2.471678	-0.000292
 905	8.9948e+01	3.9657	41.320084	0.000659	6.585936	2.231376	-0.000264
 906	9.0047e+01	3.9336	41.013262	0.000770	7.700480	2.608993	-0.000308
 907	9.0147e+01	3.8903	40.750848	0.000659	6.585936	2.231376	-0.000264
 908	9.0246e+01	3.8486	40.439989	0.000780	7.801802	2.643322	-0.000312
 909	9.0346e+01	3.8052	40.193723	0.000618	6.180648	2.094060	-0.000248
 910	9.0445e+01	3.7716	39.907087	0.000719	7.193869	2.437349	-0.000288
 911	9.0545e+01	3.7314	39.620450	0.000719	7.193869	2.437349	-0.000288
 912	9.0644e+01	3.6962	39.329776	0.000730	7.295191	2.471678	-0.000292
 913	9.0744e+01	3.6480	39.055251	0.000689	6.889903	2.334362	-0.000276
 914	9.0844e+01	3.6095	38.780726	0.000689	6.889903	2.334362	-0.000276
 915	9.0943e+01	3.5694	38.526386	0.000638	6.383292	2.162718	-0.000256
 916	9.1043e+01	3.5325	38.219564	0.000770	7.700480	2.608993	-0.000308
 917	9.1142e+01	3.4956	37.977336	0.000608	6.079326	2.059731	-0.000243
 918	9.1242e+01	3.4459	37.670514	0.000770	7.700480	2.608993	-0.000308
 919	9.1341e+01	3.4186	37.379840	0.000730	7.295191	2.471678	-0.000292
 920	9.1441e+01	3.3689	37.097240	0.000709	7.092547	2.403020	-0.000284
 921	9.1540e+01	3.3464	36.802529	0.000740	7.396513	2.506007	-0.000296
 922	9.1639e+01	3.2903	36.507818	0.000740	7.396513	2.506007	-0.000296
 923	9.1739e+01	3.2518	36.265590	0.000608	6.079326	2.059731	-0.000243
 924	9.1838e+01	3.2133	35.954731	0.000780	7.801802	2.643322	-0.000312
 925	9.1938e+01	3.1684	35.684243	0.000679	6.788581	2.300033	-0.000272
 926	9.2037e+01	3.1347	35.405680	0.000699	6.991225	2.368691	-0.000280
 927	9.2137e+01	3.0898	35.102895	0.000760	7.599157	2.574664	-0.000304
 928	9.2237e+01	3.0577	34.860667	0.000608	6.079326	2.059731	-0.000243
 929	9.2336e+01	3.0144	34.493288	0.000922	9.220311	3.123926	-0.000369
 930	9.2436e+01	2.9742	34.226837	0.000669	6.687259	2.265705	-0.000268
 931	9.2535e+01	2.9277	33.932126	0.000740	7.396513	2.506007	-0.000296
 932	9.2635e+01	2.8956	33.681823	0.000628	6.281970	2.128389	-0.000252
 933	9.2734e+01	2.8587	33.362890	0.000800	8.004446	2.711980	-0.000321
 934	9.2834e+01	2.8042	33.104513	0.000648	6.484614	2.197047	-0.000260
 935	9.2933e+01	2.7817	32.801728	0.000760	7.599157	2.574664	-0.000304
 936	9.3032e+01	2.7368	32.511054	0.000730	7.295191	2.471678	-0.000292
 937	9.3132e+01	2.6871	32.216343	0.000740	7.396513	2.506007	-0.000296
 938	9.3231e+01	2.6550	31.933744	0.000709	7.092547	2.403020	-0.000284
 939	9.3331e+01	2.6181	31.626921	0.000770	7.700480	2.608993	-0.000308
 940	9.3430e+01	2.5700	31.307988	0.000800	8.004446	2.711980	-0.000321
 941	9.3530e+01	2.5411	31.061722	0.000618	6.180648	2.094060	-0.000248
 942	9.3629e+01	2.4962	30.754900	0.000770	7.700480	2.608993	-0.000308
 943	9.3729e+01	2.4577	30.460189	0.000740	7.396513	2.506007	-0.000296
 944	9.3829e+01	2.4080	30.161441	0.000750	7.497835	2.540335	-0.000300
 945	9.3928e+01	2.3807	29.870767	0.000730	7.295191	2.471678	-0.000292
 946	9.4028e+01	2.3374	29.584131	0.000719	7.193869	2.437349	-0.000288
 947	9.4127e+01	2.2957	29.281346	0.000760	7.599157	2.574664	-0.000304
 948	9.4227e+01	2.2636	28.974523	0.000770	7.700480	2.608993	-0.000308
 949	9.4326e+01	2.2219	28.671738	0.000760	7.599157	2.574664	-0.000304
 950	9.4425e+01	2.1834	28.405287	0.000669	6.687259	2.265705	-0.000268
 951	9.4525e+01	2.1417	28.114613	0.000730	7.295191	2.471678	-0.000292
 952	9.4624e+01	2.1064	27.779531	0.000841	8.409734	2.849295	-0.000337
 953	9.4724e+01	2.0534	27.484820	0.000740	7.396513	2.506007	-0.000296
 954	9.4823e+01	2.0181	27.182035	0.000760	7.599157	2.574664	-0.000304
 955	9.4923e+01	1.9732	26.907510	0.000689	6.889903	2.334362	-0.000276
 956	9.5022e+01	1.9315	26.584539	0.000811	8.105768	2.746309	-0.000325
 957	9.5122e+01	1.9090	26.301939	0.000709	7.092547	2.403020	-0.000284
 958	9.5222e+01	1.8625	25.974931	0.000821	8.207090	2.780637	-0.000329
 959	9.5321e+01	1.8160	25.712518	0.000659	6.585936	2.231376	-0.000264
 960	9.5421e+01	1.7871	25.393584	0.000800	8.004446	2.711980	-0.000321
 961	9.5520e+01	1.7374	25.119059	0.000689	6.889903	2.334362	-0.000276
 962	9.5620e+01	1.7005	24.820311	0.000750	7.497835	2.540335	-0.000300
 963	9.5719e+01	1.6604	24.529637	0.000730	7.295191	2.471678	-0.000292
 964	9.5819e+01	1.6139	24.198592	0.000831	8.308412	2.814966	-0.000333
 965	9.5918e+01	1.5754	23.899844	0.000750	7.497835	2.540335	-0.000300
 966	9.6017e+01	1.5369	23.601096	0.000750	7.497835	2.540335	-0.000300
 967	9.6117e+01	1.4967	23.294273	0.000770	7.700480	2.608993	-0.000308
 968	9.6216e+01	1.4534	23.015711	0.000699	6.991225	2.368691	-0.000280
 969	9.6316e+01	1.4197	22.664480	0.000882	8.815023	2.986611	-0.000353
 970	9.6415e+01	1.3732	22.373806	0.000730	7.295191	2.471678	-0.000292
 971	9.6515e+01	1.3379	22.119467	0.000638	6.383292	2.162718	-0.000256
 972	9.6615e+01	1.2978	21.784384	0.000841	8.409734	2.849295	-0.000337
 973	9.6714e+01	1.2497	21.473525	0.000780	7.801802	2.643322	-0.000312
 974	9.6814e+01	1.2256	21.199000	0.000689	6.889903	2.334362	-0.000276
 975	9.6913e+01	1.1775	20.912363	0.000719	7.193869	2.437349	-0.000288
 976	9.7013e+01	1.1374	20.609578	0.000760	7.599157	2.574664	-0.000304
 977	9.7112e+01	1.0957	20.262384	0.000871	8.713701	2.952282	-0.000349
 978	9.7212e+01	1.0668	19.971710	0.000730	7.295191	2.471678	-0.000292
 979	9.7311e+01	1.0171	19.685074	0.000719	7.193869	2.437349	-0.000288
 980	9.7410e+01	0.9786	19.366140	0.000800	8.004446	2.711980	-0.000321
 981	9.7510e+01	0.9433	19.055281	0.000780	7.801802	2.643322	-0.000312
 982	9.7609e+01	0.8936	18.724236	0.000831	8.308412	2.814966	-0.000333
 983	9.7709e+01	0.8679	18.429525	0.000740	7.396513	2.506007	-0.000296
 984	9.7808e+01	0.8182	18.146925	0.000709	7.092547	2.403020	-0.000284
 985	9.7908e+01	0.7813	17.836066	0.000780	7.801802	2.643322	-0.000312
 986	9.8007e+01	0.7396	17.496946	0.000851	8.511056	2.883624	-0.000341
 987	9.8107e+01	0.6994	17.226458	0.000679	6.788581	2.300033	-0.000272
 988	9.8207e+01	0.6609	16.915599	0.000780	7.801802	2.643322	-0.000312
 989	9.8306e+01	0.6257	16.572442	0.000861	8.612378	2.917953	-0.000345
 990	9.8406e+01	0.5727	16.293880	0.000699	6.991225	2.368691	-0.000280
 991	9.8505e+01	0.5326	15.974946	0.000800	8.004446	2.711980	-0.000321
 992	9.8605e+01	0.5037	15.635827	0.000851	8.511056	2.883624	-0.000341
 993	9.8704e+01	0.4572	15.345153	0.000730	7.295191	2.471678	-0.000292
 994	9.8803e+01	0.4187	15.010071	0.000841	8.409734	2.849295	-0.000337
 995	9.8903e+01	0.3802	14.707285	0.000760	7.599157	2.574664	-0.000304
 996	9.9002e+01	0.3481	14.384315	0.000811	8.105768	2.746309	-0.000325
 997	9.9102e+01	0.3080	14.097678	0.000719	7.193869	2.437349	-0.000288
 998	9.9201e+01	0.2647	13.782781	0.000790	7.903124	2.677651	-0.000316
 999	9.9301e+01	0.2166	13.435588	0.000871	8.713701	2.952282	-0.000349
1000	9.9400e+01	0.1877	13.144914	0.000730	7.295191	2.471678	-0.000292
1001	9.9500e+01	0.1396	12.821943	0.000811	8.105768	2.746309	-0.000325
1002	9.9600e+01	0.0995	12.503009	0.000800	8.004446	2.711980	-0.000321
1003	9.9699e+01	0.0545	12.167927	0.000841	8.409734	2.849295	-0.000337
1004	9.9799e+01	0.0112	11.857068	0.000780	7.801802	2.643322	-0.000312
1005	9.9898e+01	-0.0144	11.602728	0.000638	6.383292	2.162718	-0.000256
1006	9.9998e+01	-0.0594	11.312054	0.000730	7.295191	2.471678	-0.000292
1007	1.0010e+02	-0.0866	10.985046	0.000821	8.207090	2.780637	-0.000329
1008	1.0020e+02	-0.1235	10.645927	0.000851	8.511056	2.883624	-0.000341
1009	1.0030e+02	-0.1620	10.343142	0.000760	7.599157	2.574664	-0.000304
1010	1.0040e+02	-0.2086	9.983837	0.000902	9.017667	3.055268	-0.000361
1011	1.0050e+02	-0.2519	9.677014	0.000770	7.700480	2.608993	-0.000308
1012	1.0059e+02	-0.2807	9.390378	0.000719	7.193869	2.437349	-0.000288
1013	1.0069e+02	-0.3225	9.035110	0.000892	8.916345	3.020939	-0.000357
1014	1.0079e+02	-0.3561	8.748473	0.000719	7.193869	2.437349	-0.000288
1015	1.0089e+02	-0.4091	8.368982	0.000952	9.524277	3.226913	-0.000381
1016	1.0099e+02	-0.4524	8.098494	0.000679	6.788581	2.300033	-0.000272
1017	1.0109e+02	-0.4845	7.763412	0.000841	8.409734	2.849295	-0.000337
1018	1.0119e+02	-0.5342	7.416218	0.000871	8.713701	2.952282	-0.000349
1019	1.0129e+02	-0.5663	7.141693	0.000689	6.889903	2.334362	-0.000276
1020	1.0139e+02	-0.6080	6.814685	0.000821	8.207090	2.780637	-0.000329
1021	1.0149e+02	-0.6529	6.515937	0.000750	7.497835	2.540335	-0.000300
1022	1.0159e+02	-0.6802	6.160669	0.000892	8.916345	3.020939	-0.000357
1023	1.0169e+02	-0.7251	5.845773	0.000790	7.903124	2.677651	-0.000316
1024	1.0179e+02	-0.7668	5.502616	0.000861	8.612378	2.917953	-0.000345
1025	1.0189e+02	-0.8085	5.199831	0.000760	7.599157	2.574664	-0.000304
1026	1.0199e+02	-0.8374	4.856674	0.000861	8.612378	2.917953	-0.000345
1027	1.0209e+02	-0.8903	4.537741	0.000800	8.004446	2.711980	-0.000321
1028	1.0219e+02	-0.9256	4.238993	0.000750	7.497835	2.540335	-0.000300
1029	1.0229e+02	-0.9722	3.891799	0.000871	8.713701	2.952282	-0.000349
1030	1.0239e+02	-1.0075	3.584977	0.000770	7.700480	2.608993	-0.000308
1031	1.0248e+02	-1.0460	3.221634	0.000912	9.118989	3.089597	-0.000365
1032	1.0258e+02	-1.0877	2.959220	0.000659	6.585936	2.231376	-0.000264
1033	1.0268e+02	-1.1310	2.607990	0.000882	8.815023	2.986611	-0.000353
1034	1.0278e+02	-1.1550	2.268870	0.000851	8.511056	2.883624	-0.000341
1035	1.0288e+02	-1.2112	1.937825	0.000831	8.308412	2.814966	-0.000333
1036	1.0298e+02	-1.2465	1.635040	0.000760	7.599157	2.574664	-0.000304
1037	1.0308e+02	-1.2834	1.316106	0.000800	8.004446	2.711980	-0.000321
1038	1.0318e+02	-1.3187	1.005247	0.000780	7.801802	2.643322	-0.000312
1039	1.0328e+02	-1.3620	0.694387	0.000780	7.801802	2.643322	-0.000312
1040	1.0338e+02	-1.4037	0.355268	0.000851	8.511056	2.883624	-0.000341
1041	1.0348e+02	-1.4406	0.020186	0.000841	8.409734	2.849295	-0.000337
1042	1.0358e+02	-1.4807	-0.282600	0.000760	7.599157	2.574664	-0.000304
1043	1.0368e+02	-1.5320	-0.617682	0.000841	8.409734	2.849295	-0.000337
1044	1.0378e+02	-1.5577	-0.932578	0.000790	7.903124	2.677651	-0.000316
1045	1.0388e+02	-1.5994	-1.259586	0.000821	8.207090	2.780637	-0.000329
1046	1.0398e+02	-1.6443	-1.562372	0.000760	7.599157	2.574664	-0.000304
1047	1.0408e+02	-1.6812	-1.901491	0.000851	8.511056	2.883624	-0.000341
1048	1.0418e+02	-1.7310	-2.252722	0.000882	8.815023	2.986611	-0.000353
1049	1.0428e+02	-1.7631	-2.555507	0.000760	7.599157	2.574664	-0.000304
1050	1.0438e+02	-1.7951	-2.862329	0.000770	7.700480	2.608993	-0.000308
1051	1.0447e+02	-1.8401	-3.197412	0.000841	8.409734	2.849295	-0.000337
1052	1.0457e+02	-1.8850	-3.504234	0.000770	7.700480	2.608993	-0.000308
1053	1.0467e+02	-1.9155	-3.867576	0.000912	9.118989	3.089597	-0.000365
1054	1.0477e+02	-1.9540	-4.190547	0.000811	8.105768	2.746309	-0.000325
1055	1.0487e+02	-2.0005	-4.469109	0.000699	6.991225	2.368691	-0.000280
1056	1.0497e+02	-2.0550	-4.860711	0.000983	9.828244	3.329899	-0.000394
1057	1.0507e+02	-2.0759	-5.115051	0.000638	6.383292	2.162718	-0.000256
1058	1.0517e+02	-2.1176	-5.486467	0.000932	9.321633	3.158255	-0.000373
1059	1.0527e+02	-2.1641	-5.760993	0.000689	6.889903	2.334362	-0.000276
1060	1.0537e+02	-2.1882	-6.120298	0.000902	9.017667	3.055268	-0.000361
1061	1.0547e+02	-2.2475	-6.398860	0.000699	6.991225	2.368691	-0.000280
1062	1.0557e+02	-2.2828	-6.754128	0.000892	8.916345	3.020939	-0.000357
1063	1.0567e+02	-2.3245	-7.064988	0.000780	7.801802	2.643322	-0.000312
1064	1.0577e+02	-2.3550	-7.379884	0.000790	7.903124	2.677651	-0.000316
1065	1.0587e+02	-2.3999	-7.682669	0.000760	7.599157	2.574664	-0.000304
1066	1.0597e+02	-2.4320	-7.993529	0.000780	7.801802	2.643322	-0.000312
1067	1.0607e+02	-2.4753	-8.324574	0.000831	8.308412	2.814966	-0.000333
1068	1.0617e+02	-2.5186	-8.663693	0.000851	8.511056	2.883624	-0.000341
1069	1.0627e+02	-2.5620	-8.994738	0.000831	8.308412	2.814966	-0.000333
1070	1.0637e+02	-2.5989	-9.305598	0.000780	7.801802	2.643322	-0.000312
1071	1.0647e+02	-2.6277	-9.592235	0.000719	7.193869	2.437349	-0.000288
1072	1.0656e+02	-2.6871	-9.947502	0.000892	8.916345	3.020939	-0.000357
1073	1.0666e+02	-2.7272	-10.246251	0.000750	7.497835	2.540335	-0.000300
1074	1.0676e+02	-2.7513	-10.565184	0.000800	8.004446	2.711980	-0.000321
1075	1.0686e+02	-2.8042	-10.900266	0.000841	8.409734	2.849295	-0.000337
1076	1.0696e+02	-2.8475	-11.231312	0.000831	8.308412	2.814966	-0.000333
1077	1.0706e+02	-2.8796	-11.530060	0.000750	7.497835	2.540335	-0.000300
1078	1.0716e+02	-2.9229	-11.828808	0.000750	7.497835	2.540335	-0.000300
1079	1.0726e+02	-2.9566	-12.184076	0.000892	8.916345	3.020939	-0.000357
1080	1.0736e+02	-2.9903	-12.458601	0.000689	6.889903	2.334362	-0.000276
1081	1.0746e+02	-3.0432	-12.761386	0.000760	7.599157	2.574664	-0.000304
1082	1.0756e+02	-3.0833	-13.056097	0.000740	7.396513	2.506007	-0.000296
1083	1.0766e+02	-3.1234	-13.391179	0.000841	8.409734	2.849295	-0.000337
1084	1.0776e+02	-3.1523	-13.714150	0.000811	8.105768	2.746309	-0.000325
1085	1.0786e+02	-3.2004	-13.972527	0.000648	6.484614	2.197047	-0.000260
1086	1.0796e+02	-3.2373	-14.303572	0.000831	8.308412	2.814966	-0.000333
1087	1.0806e+02	-3.2758	-14.622506	0.000800	8.004446	2.711980	-0.000321
1088	1.0816e+02	-3.3176	-14.897031	0.000689	6.889903	2.334362	-0.000276
1089	1.0826e+02	-3.3609	-15.211927	0.000790	7.903124	2.677651	-0.000316
1090	1.0836e+02	-3.3930	-15.559121	0.000871	8.713701	2.952282	-0.000349
1091	1.0845e+02	-3.4411	-15.853832	0.000740	7.396513	2.506007	-0.000296
1092	1.0855e+02	-3.4667	-16.136432	0.000709	7.092547	2.403020	-0.000284
1093	1.0865e+02	-3.5149	-16.455365	0.000800	8.004446	2.711980	-0.000321
1094	1.0875e+02	-3.5630	-16.742002	0.000719	7.193869	2.437349	-0.000288
1095	1.0885e+02	-3.6047	-17.101307	0.000902	9.017667	3.055268	-0.000361
1096	1.0895e+02	-3.6352	-17.335461	0.000588	5.876682	1.991074	-0.000235
1097	1.0905e+02	-3.6801	-17.662469	0.000821	8.207090	2.780637	-0.000329
1098	1.0915e+02	-3.7154	-17.941031	0.000699	6.991225	2.368691	-0.000280
1099	1.0925e+02	-3.7571	-18.239779	0.000750	7.497835	2.540335	-0.000300
1100	1.0935e+02	-3.7988	-18.534490	0.000740	7.396513	2.506007	-0.000296
1101	1.0945e+02	-3.8309	-18.849387	0.000790	7.903124	2.677651	-0.000316
1102	1.0955e+02	-3.8774	-19.160246	0.000780	7.801802	2.643322	-0.000312
1103	1.0965e+02	-3.9127	-19.442846	0.000709	7.092547	2.403020	-0.000284
1104	1.0975e+02	-3.9576	-19.741594	0.000750	7.497835	2.540335	-0.000300
1105	1.0985e+02	-3.9977	-20.044379	0.000760	7.599157	2.574664	-0.000304
1106	1.0995e+02	-4.0330	-20.375424	0.000831	8.308412	2.814966	-0.000333
1107	1.1005e+02	-4.0748	-20.625726	0.000628	6.281970	2.128389	-0.000252
1108	1.1015e+02	-4.1133	-20.928512	0.000760	7.599157	2.574664	-0.000304
1109	1.1025e+02	-4.1598	-21.251483	0.000811	8.105768	2.746309	-0.000325
1110	1.1035e+02	-4.1935	-21.558305	0.000770	7.700480	2.608993	-0.000308
1111	1.1044e+02	-4.2384	-21.824756	0.000669	6.687259	2.265705	-0.000268
1112	1.1054e+02	-4.2689	-22.127541	0.000760	7.599157	2.574664	-0.000304
1113	1.1064e+02	-4.3154	-22.442438	0.000790	7.903124	2.677651	-0.000316
1114	1.1074e+02	-4.3523	-22.741186	0.000750	7.497835	2.540335	-0.000300
1115	1.1084e+02	-4.3908	-22.991488	0.000628	6.281970	2.128389	-0.000252
1116	1.1094e+02	-4.4421	-23.302347	0.000780	7.801802	2.643322	-0.000312
1117	1.1104e+02	-4.4726	-23.584947	0.000709	7.092547	2.403020	-0.000284
1118	1.1114e+02	-4.4983	-23.911955	0.000821	8.207090	2.780637	-0.000329
1119	1.1124e+02	-4.5448	-24.174369	0.000659	6.585936	2.231376	-0.000264
1120	1.1134e+02	-4.5945	-24.481191	0.000770	7.700480	2.608993	-0.000308
1121	1.1144e+02	-4.6282	-24.727456	0.000618	6.180648	2.094060	-0.000248
1122	1.1154e+02	-4.6715	-25.062539	0.000841	8.409734	2.849295	-0.000337
1123	1.1164e+02	-4.7068	-25.353212	0.000730	7.295191	2.471678	-0.000292
1124	1.1174e+02	-4.7485	-25.583329	0.000578	5.775360	1.956745	-0.000231
1125	1.1184e+02	-4.7934	-25.857854	0.000689	6.889903	2.334362	-0.000276
1126	1.1194e+02	-4.8303	-26.184862	0.000821	8.207090	2.780637	-0.000329
1127	1.1204e+02	-4.8785	-26.475536	0.000730	7.295191	2.471678	-0.000292
1128	1.1214e+02	-4.9202	-26.762173	0.000719	7.193869	2.437349	-0.000288
1129	1.1224e+02	-4.9523	-27.028624	0.000669	6.687259	2.265705	-0.000268
1130	1.1234e+02	-4.9924	-27.303149	0.000689	6.889903	2.334362	-0.000276
1131	1.1244e+02	-5.0293	-27.605934	0.000760	7.599157	2.574664	-0.000304
1132	1.1253e+02	-5.0742	-27.916794	0.000780	7.801802	2.643322	-0.000312
1133	1.1263e+02	-5.1079	-28.191319	0.000689	6.889903	2.334362	-0.000276
1134	1.1273e+02	-5.1560	-28.429510	0.000598	5.978004	2.025403	-0.000239
1135	1.1283e+02	-5.1865	-28.732295	0.000760	7.599157	2.574664	-0.000304
1136	1.1293e+02	-5.2314	-28.986635	0.000638	6.383292	2.162718	-0.000256
1137	1.1303e+02	-5.2747	-29.273271	0.000719	7.193869	2.437349	-0.000288
1138	1.1313e+02	-5.3036	-29.572019	0.000750	7.497835	2.540335	-0.000300
1139	1.1323e+02	-5.3565	-29.858656	0.000719	7.193869	2.437349	-0.000288
1140	1.1333e+02	-5.3854	-30.137218	0.000699	6.991225	2.368691	-0.000280
1141	1.1343e+02	-5.4271	-30.403669	0.000669	6.687259	2.265705	-0.000268
1142	1.1353e+02	-5.4640	-30.666083	0.000659	6.585936	2.231376	-0.000264
1143	1.1363e+02	-5.5057	-30.920423	0.000638	6.383292	2.162718	-0.000256
1144	1.1373e+02	-5.5442	-31.227245	0.000770	7.700480	2.608993	-0.000308
1145	1.1383e+02	-5.5875	-31.505807	0.000699	6.991225	2.368691	-0.000280
1146	1.1393e+02	-5.6244	-31.756110	0.000628	6.281970	2.128389	-0.000252
1147	1.1403e+02	-5.6742	-32.071006	0.000790	7.903124	2.677651	-0.000316
1148	1.1413e+02	-5.7111	-32.297086	0.000567	5.674038	1.922416	-0.000227
1149	1.1423e+02	-5.7528	-32.575648	0.000699	6.991225	2.368691	-0.000280
1150	1.1433e+02	-5.7897	-32.886508	0.000780	7.801802	2.643322	-0.000312
1151	1.1442e+02	-5.8282	-33.148922	0.000659	6.585936	2.231376	-0.000264
1152	1.1452e+02	-5.8667	-33.379038	0.000578	5.775360	1.956745	-0.000231
1153	1.1462e+02	-5.9100	-33.673749	0.000740	7.396513	2.506007	-0.000296
1154	1.1472e+02	-5.9469	-33.980572	0.000770	7.700480	2.608993	-0.000308
1155	1.1482e+02	-5.9950	-34.166280	0.000466	4.660817	1.579127	-0.000187
1156	1.1492e+02	-6.0271	-34.533659	0.000922	9.220311	3.123926	-0.000369
1157	1.1502e+02	-6.0688	-34.739553	0.000517	5.167427	1.750772	-0.000207
1158	1.1512e+02	-6.1073	-35.030227	0.000730	7.295191	2.471678	-0.000292
1159	1.1522e+02	-6.1554	-35.308789	0.000699	6.991225	2.368691	-0.000280
1160	1.1532e+02	-6.1972	-35.587352	0.000699	6.991225	2.368691	-0.000280
1161	1.1542e+02	-6.2244	-35.829580	0.000608	6.079326	2.059731	-0.000243
1162	1.1552e+02	-6.2661	-36.100068	0.000679	6.788581	2.300033	-0.000272
1163	1.1562e+02	-6.2998	-36.386704	0.000719	7.193869	2.437349	-0.000288
1164	1.1572e+02	-6.3383	-36.608747	0.000557	5.572715	1.888087	-0.000223
1165	1.1582e+02	-6.3736	-36.911532	0.000760	7.599157	2.574664	-0.000304
1166	1.1592e+02	-6.4266	-37.121463	0.000527	5.268749	1.785101	-0.000211
1167	1.1602e+02	-6.4683	-37.424248	0.000760	7.599157	2.574664	-0.000304
1168	1.1612e+02	-6.5036	-37.702811	0.000699	6.991225	2.368691	-0.000280
1169	1.1622e+02	-6.5437	-37.973299	0.000679	6.788581	2.300033	-0.000272
1170	1.1632e+02	-6.5886	-38.268010	0.000740	7.396513	2.506007	-0.000296
1171	1.1642e+02	-6.6239	-38.522349	0.000638	6.383292	2.162718	-0.000256
1172	1.1651e+02	-6.6608	-38.772652	0.000628	6.281970	2.128389	-0.000252
1173	1.1661e+02	-6.6993	-38.994694	0.000557	5.572715	1.888087	-0.000223
1174	1.1671e+02	-6.7378	-39.317665	0.000811	8.105768	2.746309	-0.000325
1175	1.1681e+02	-6.7795	-39.572005	0.000638	6.383292	2.162718	-0.000256
1176	1.1691e+02	-6.8244	-39.826344	0.000638	6.383292	2.162718	-0.000256
1177	1.1701e+02	-6.8645	-40.100869	0.000689	6.889903	2.334362	-0.000276
1178	1.1711e+02	-6.8966	-40.359246	0.000648	6.484614	2.197047	-0.000260
1179	1.1721e+02	-6.9399	-40.601474	0.000608	6.079326	2.059731	-0.000243
1180	1.1731e+02	-6.9848	-40.912334	0.000780	7.801802	2.643322	-0.000312
1181	1.1741e+02	-7.0249	-41.106116	0.000486	4.863461	1.647785	-0.000195
1182	1.1751e+02	-7.0634	-41.396790	0.000730	7.295191	2.471678	-0.000292
1183	1.1761e+02	-7.1003	-41.659204	0.000659	6.585936	2.231376	-0.000264
1184	1.1771e+02	-7.1517	-41.941803	0.000709	7.092547	2.403020	-0.000284
1185	1.1781e+02	-7.1822	-42.200180	0.000648	6.484614	2.197047	-0.000260
1186	1.1791e+02	-7.2158	-42.470668	0.000679	6.788581	2.300033	-0.000272
1187	1.1801e+02	-7.2559	-42.712896	0.000608	6.079326	2.059731	-0.000243
1188	1.1811e+02	-7.2928	-42.975310	0.000659	6.585936	2.231376	-0.000264
1189	1.1821e+02	-7.3410	-43.270021	0.000740	7.396513	2.506007	-0.000296
1190	1.1831e+02	-7.3731	-43.496100	0.000567	5.674038	1.922416	-0.000227
1191	1.1841e+02	-7.4260	-43.750440	0.000638	6.383292	2.162718	-0.000256
1192	1.1850e+02	-7.4581	-44.000742	0.000628	6.281970	2.128389	-0.000252
1193	1.1860e+02	-7.5030	-44.323713	0.000811	8.105768	2.746309	-0.000325
1194	1.1870e+02	-7.5463	-44.517496	0.000486	4.863461	1.647785	-0.000195
1195	1.1880e+02	-7.5784	-44.767798	0.000628	6.281970	2.128389	-0.000252
1196	1.1890e+02	-7.6201	-45.018101	0.000628	6.281970	2.128389	-0.000252
1197	1.1900e+02	-7.6586	-45.320886	0.000760	7.599157	2.574664	-0.000304
1198	1.1910e+02	-7.6987	-45.530817	0.000527	5.268749	1.785101	-0.000211
1199	1.1920e+02	-7.7356	-45.829565	0.000750	7.497835	2.540335	-0.000300
1200	1.1930e+02	-7.7821	-46.047570	0.000547	5.471393	1.853758	-0.000219
1201	1.1940e+02	-7.8190	-46.318058	0.000679	6.788581	2.300033	-0.000272
1202	1.1950e+02	-7.8559	-46.608732	0.000730	7.295191	2.471678	-0.000292
1203	1.1960e+02	-7.9008	-46.863072	0.000638	6.383292	2.162718	-0.000256
1204	1.1970e+02	-7.9329	-47.101263	0.000598	5.978004	2.025403	-0.000239
1205	1.1980e+02	-7.9762	-47.367714	0.000669	6.687259	2.265705	-0.000268
1206	1.1990e+02	-8.0131	-47.597830	0.000578	5.775360	1.956745	-0.000231
1207	1.2000e+02	-8.0549	-47.884467	0.000719	7.193869	2.437349	-0.000288
1208	1.2010e+02	-8.0950	-48.110547	0.000567	5.674038	1.922416	-0.000227
1209	1.2020e+02	-8.1367	-48.385072	0.000689	6.889903	2.334362	-0.000276
1210	1.2030e+02	-8.1832	-48.647486	0.000659	6.585936	2.231376	-0.000264
1211	1.2039e+02	-8.2105	-48.873565	0.000567	5.674038	1.922416	-0.000227
1212	1.2049e+02	-8.2538	-49.140016	0.000669	6.687259	2.265705	-0.000268
1213	1.2059e+02	-8.2971	-49.430690	0.000730	7.295191	2.471678	-0.000292
1214	1.2069e+02	-8.3388	-49.644658	0.000537	5.370071	1.819429	-0.000215
1215	1.2079e+02	-8.3757	-49.955518	0.000780	7.801802	2.643322	-0.000312
1216	1.2089e+02	-8.4142	-50.189671	0.000588	5.876682	1.991074	-0.000235
1217	1.2099e+02	-8.4479	-50.391528	0.000507	5.066105	1.716443	-0.000203
1218	1.2109e+02	-8.4912	-50.722573	0.000831	8.308412	2.814966	-0.000333
1219	1.2119e+02	-8.5425	-50.924430	0.000507	5.066105	1.716443	-0.000203
1220	1.2129e+02	-8.5730	-51.207030	0.000709	7.092547	2.403020	-0.000284
1221	1.2139e+02	-8.6131	-51.437146	0.000578	5.775360	1.956745	-0.000231
1222	1.2149e+02	-8.6484	-51.703597	0.000669	6.687259	2.265705	-0.000268
1223	1.2159e+02	-8.6933	-51.957937	0.000638	6.383292	2.162718	-0.000256
1224	1.2169e+02	-8.7286	-52.220351	0.000659	6.585936	2.231376	-0.000264
1225	1.2179e+02	-8.7719	-52.458542	0.000598	5.978004	2.025403	-0.000239
1226	1.2189e+02	-8.8056	-52.676547	0.000547	5.471393	1.853758	-0.000219
1227	1.2199e+02	-8.8554	-53.019704	0.000861	8.612378	2.917953	-0.000345
1228	1.2209e+02	-8.8939	-53.257895	0.000598	5.978004	2.025403	-0.000239
1229	1.2219e+02	-8.9260	-53.508197	0.000628	6.281970	2.128389	-0.000252
1230	1.2229e+02	-8.9709	-53.726202	0.000547	5.471393	1.853758	-0.000219
1231	1.2239e+02	-9.0174	-53.984579	0.000648	6.484614	2.197047	-0.000260
1232	1.2248e+02	-9.0463	-54.246993	0.000659	6.585936	2.231376	-0.000264
1233	1.2258e+02	-9.1008	-54.517481	0.000679	6.788581	2.300033	-0.000272
1234	1.2268e+02	-9.1297	-54.723375	0.000517	5.167427	1.750772	-0.000207
1235	1.2278e+02	-9.1730	-54.989826	0.000669	6.687259	2.265705	-0.000268
1236	1.2288e+02	-9.2115	-55.276463	0.000719	7.193869	2.437349	-0.000288
1237	1.2298e+02	-9.2580	-55.478319	0.000507	5.066105	1.716443	-0.000203
1238	1.2308e+02	-9.2949	-55.724585	0.000618	6.180648	2.094060	-0.000248
1239	1.2318e+02	-9.3318	-56.043518	0.000800	8.004446	2.711980	-0.000321
1240	1.2328e+02	-9.3655	-56.277672	0.000588	5.876682	1.991074	-0.000235
1241	1.2338e+02	-9.4152	-56.515863	0.000598	5.978004	2.025403	-0.000239
1242	1.2348e+02	-9.4553	-56.798463	0.000709	7.092547	2.403020	-0.000284
1243	1.2358e+02	-9.4922	-56.988208	0.000476	4.762139	1.613456	-0.000191
1244	1.2368e+02	-9.5275	-57.254659	0.000669	6.687259	2.265705	-0.000268
1245	1.2378e+02	-9.5709	-57.525147	0.000679	6.788581	2.300033	-0.000272
1246	1.2388e+02	-9.6061	-57.763338	0.000598	5.978004	2.025403	-0.000239
1247	1.2398e+02	-9.6527	-58.001529	0.000598	5.978004	2.025403	-0.000239
1248	1.2408e+02	-9.6912	-58.227609	0.000567	5.674038	1.922416	-0.000227
1249	1.2418e+02	-9.7329	-58.498097	0.000679	6.788581	2.300033	-0.000272
1250	1.2428e+02	-9.7730	-58.736288	0.000598	5.978004	2.025403	-0.000239
1251	1.2438e+02	-9.8099	-58.994665	0.000648	6.484614	2.197047	-0.000260
1252	1.2447e+02	-9.8436	-59.249004	0.000638	6.383292	2.162718	-0.000256
1253	1.2457e+02	-9.8933	-59.475084	0.000567	5.674038	1.922416	-0.000227
1254	1.2467e+02	-9.9366	-59.741535	0.000669	6.687259	2.265705	-0.000268
1255	1.2477e+02	-9.9751	-59.991837	0.000628	6.281970	2.128389	-0.000252
1256	1.2487e+02	-10.0056	-60.185620	0.000486	4.863461	1.647785	-0.000195
1257	1.2497e+02	-10.0489	-60.460145	0.000689	6.889903	2.334362	-0.000276
1258	1.2507e+02	-10.0826	-60.698336	0.000598	5.978004	2.025403	-0.000239
1259	1.2517e+02	-10.1371	-60.948638	0.000628	6.281970	2.128389	-0.000252
1260	1.2527e+02	-10.1756	-61.211052	0.000659	6.585936	2.231376	-0.000264
1261	1.2537e+02	-10.2174	-61.457317	0.000618	6.180648	2.094060	-0.000248
1262	1.2547e+02	-10.2478	-61.715694	0.000648	6.484614	2.197047	-0.000260
1263	1.2557e+02	-10.2960	-61.945811	0.000578	5.775360	1.956745	-0.000231
1264	1.2567e+02	-10.3264	-62.167853	0.000557	5.572715	1.888087	-0.000223
1265	1.2577e+02	-10.3714	-62.434304	0.000669	6.687259	2.265705	-0.000268
1266	1.2587e+02	-10.4179	-62.684607	0.000628	6.281970	2.128389	-0.000252
1267	1.2597e+02	-10.4484	-62.890501	0.000517	5.167427	1.750772	-0.000207
1268	1.2607e+02	-10.4853	-63.140803	0.000628	6.281970	2.128389	-0.000252
1269	1.2617e+02	-10.5366	-63.391105	0.000628	6.281970	2.128389	-0.000252
1270	1.2627e+02	-10.5767	-63.665631	0.000689	6.889903	2.334362	-0.000276
1271	1.2636e+02	-10.6072	-63.879599	0.000537	5.370071	1.819429	-0.000215
1272	1.2646e+02	-10.6489	-64.113753	0.000588	5.876682	1.991074	-0.000235
1273	1.2656e+02	-10.6842	-64.376166	0.000659	6.585936	2.231376	-0.000264
1274	1.2666e+02	-10.7227	-64.626469	0.000628	6.281970	2.128389	-0.000252
1275	1.2676e+02	-10.7644	-64.836400	0.000527	5.268749	1.785101	-0.000211
1276	1.2686e+02	-10.8125	-65.118999	0.000709	7.092547	2.403020	-0.000284
1277	1.2696e+02	-10.8430	-65.324893	0.000517	5.167427	1.750772	-0.000207
1278	1.2706e+02	-10.8847	-65.587307	0.000659	6.585936	2.231376	-0.000264
1279	1.2716e+02	-10.9248	-65.809350	0.000557	5.572715	1.888087	-0.000223
1280	1.2726e+02	-10.9762	-66.079838	0.000679	6.788581	2.300033	-0.000272
1281	1.2736e+02	-11.0050	-66.293806	0.000537	5.370071	1.819429	-0.000215
1282	1.2746e+02	-11.0516	-66.556220	0.000659	6.585936	2.231376	-0.000264
1283	1.2756e+02	-11.0852	-66.790374	0.000588	5.876682	1.991074	-0.000235
1284	1.2766e+02	-11.1302	-67.060862	0.000679	6.788581	2.300033	-0.000272
1285	1.2776e+02	-11.1623	-67.258681	0.000496	4.964783	1.682114	-0.000199
1286	1.2786e+02	-11.2088	-67.496872	0.000598	5.978004	2.025403	-0.000239
1287	1.2796e+02	-11.2457	-67.747175	0.000628	6.281970	2.128389	-0.000252
1288	1.2806e+02	-11.2826	-67.985366	0.000598	5.978004	2.025403	-0.000239
1289	1.2816e+02	-11.3355	-68.243743	0.000648	6.484614	2.197047	-0.000260
1290	1.2826e+02	-11.3628	-68.469822	0.000567	5.674038	1.922416	-0.000227
1291	1.2835e+02	-11.4045	-68.663605	0.000486	4.863461	1.647785	-0.000195
1292	1.2845e+02	-11.4414	-68.938130	0.000689	6.889903	2.334362	-0.000276
1293	1.2855e+02	-11.4847	-69.144024	0.000517	5.167427	1.750772	-0.000207
1294	1.2865e+02	-11.5152	-69.430660	0.000719	7.193869	2.437349	-0.000288
1295	1.2875e+02	-11.5665	-69.636554	0.000517	5.167427	1.750772	-0.000207
1296	1.2885e+02	-11.5986	-69.870708	0.000588	5.876682	1.991074	-0.000235
1297	1.2895e+02	-11.6483	-70.104862	0.000588	5.876682	1.991074	-0.000235
1298	1.2905e+02	-11.6916	-70.359202	0.000638	6.383292	2.162718	-0.000256
1299	1.2915e+02	-11.7237	-70.561058	0.000507	5.066105	1.716443	-0.000203
1300	1.2925e+02	-11.7638	-70.787138	0.000567	5.674038	1.922416	-0.000227
1301	1.2935e+02	-11.8088	-71.065700	0.000699	6.991225	2.368691	-0.000280
1302	1.2945e+02	-11.8521	-71.243334	0.000446	4.458172	1.510470	-0.000179
1303	1.2955e+02	-11.8793	-71.542082	0.000750	7.497835	2.540335	-0.000300
1304	1.2965e+02	-11.9227	-71.768162	0.000567	5.674038	1.922416	-0.000227
1305	1.2975e+02	-11.9660	-72.018464	0.000628	6.281970	2.128389	-0.000252
1306	1.2985e+02	-11.9981	-72.200136	0.000456	4.559494	1.544799	-0.000183
1307	1.2995e+02	-12.0414	-72.442364	0.000608	6.079326	2.059731	-0.000243
1308	1.3005e+02	-12.0815	-72.704778	0.000659	6.585936	2.231376	-0.000264
1309	1.3015e+02	-12.1200	-72.918746	0.000537	5.370071	1.819429	-0.000215
1310	1.3025e+02	-12.1649	-73.148862	0.000578	5.775360	1.956745	-0.000231
1311	1.3034e+02	-12.2066	-73.391091	0.000608	6.079326	2.059731	-0.000243
1312	1.3044e+02	-12.2403	-73.621207	0.000578	5.775360	1.956745	-0.000231
1313	1.3054e+02	-12.2772	-73.823064	0.000507	5.066105	1.716443	-0.000203
1314	1.3064e+02	-12.3237	-74.105664	0.000709	7.092547	2.403020	-0.000284
1315	1.3074e+02	-12.3622	-74.303483	0.000496	4.964783	1.682114	-0.000199
1316	1.3084e+02	-12.3895	-74.549749	0.000618	6.180648	2.094060	-0.000248
1317	1.3094e+02	-12.4472	-74.739494	0.000476	4.762139	1.613456	-0.000191
1318	1.3104e+02	-12.4793	-74.997871	0.000648	6.484614	2.197047	-0.000260
1319	1.3114e+02	-12.5242	-75.211839	0.000537	5.370071	1.819429	-0.000215
1320	1.3124e+02	-12.5563	-75.462141	0.000628	6.281970	2.128389	-0.000252
1321	1.3134e+02	-12.5980	-75.663998	0.000507	5.066105	1.716443	-0.000203
1322	1.3144e+02	-12.6398	-75.898152	0.000588	5.876682	1.991074	-0.000235
1323	1.3154e+02	-12.6815	-76.148454	0.000628	6.281970	2.128389	-0.000252
1324	1.3164e+02	-12.7151	-76.358385	0.000527	5.268749	1.785101	-0.000211
1325	1.3174e+02	-12.7585	-76.584465	0.000567	5.674038	1.922416	-0.000227
1326	1.3184e+02	-12.7938	-76.850916	0.000669	6.687259	2.265705	-0.000268
1327	1.3194e+02	-12.8371	-77.072958	0.000557	5.572715	1.888087	-0.000223
1328	1.3204e+02	-12.8772	-77.290964	0.000547	5.471393	1.853758	-0.000219
1329	1.3214e+02	-12.9157	-77.468598	0.000446	4.458172	1.510470	-0.000179
1330	1.3224e+02	-12.9494	-77.763309	0.000740	7.396513	2.506007	-0.000296
1331	1.3234e+02	-12.9895	-77.932868	0.000426	4.255528	1.441812	-0.000170
1332	1.3243e+02	-13.0376	-78.179134	0.000618	6.180648	2.094060	-0.000248
1333	1.3253e+02	-13.0825	-78.445585	0.000669	6.687259	2.265705	-0.000268
1334	1.3263e+02	-13.1210	-78.643404	0.000496	4.964783	1.682114	-0.000199
1335	1.3273e+02	-13.1547	-78.885632	0.000608	6.079326	2.059731	-0.000243
1336	1.3283e+02	-13.1980	-79.083452	0.000496	4.964783	1.682114	-0.000199
1337	1.3293e+02	-13.2413	-79.333754	0.000628	6.281970	2.128389	-0.000252
1338	1.3303e+02	-13.2670	-79.551760	0.000547	5.471393	1.853758	-0.000219
1339	1.3313e+02	-13.3119	-79.765728	0.000537	5.370071	1.819429	-0.000215
1340	1.3323e+02	-13.3536	-79.979696	0.000537	5.370071	1.819429	-0.000215
1341	1.3333e+02	-13.3969	-80.254221	0.000689	6.889903	2.334362	-0.000276
1342	1.3343e+02	-13.4451	-80.472227	0.000547	5.471393	1.853758	-0.000219
1343	1.3353e+02	-13.4723	-80.682158	0.000527	5.268749	1.785101	-0.000211
1344	1.3363e+02	-13.5269	-80.932460	0.000628	6.281970	2.128389	-0.000252
1345	1.3373e+02	-13.5542	-81.162577	0.000578	5.775360	1.956745	-0.000231
1346	1.3383e+02	-13.5927	-81.372508	0.000527	5.268749	1.785101	-0.000211
1347	1.3393e+02	-13.6360	-81.622810	0.000628	6.281970	2.128389	-0.000252
1348	1.3403e+02	-13.6745	-81.865038	0.000608	6.079326	2.059731	-0.000243
1349	1.3413e+02	-13.7178	-82.087081	0.000557	5.572715	1.888087	-0.000223
1350	1.3423e+02	-13.7595	-82.301049	0.000537	5.370071	1.819429	-0.000215
1351	1.3432e+02	-13.8012	-82.519054	0.000547	5.471393	1.853758	-0.000219
1352	1.3442e+02	-13.8301	-82.777431	0.000648	6.484614	2.197047	-0.000260
1353	1.3452e+02	-13.8782	-82.922768	0.000365	3.647596	1.235839	-0.000146
1354	1.3462e+02	-13.9103	-83.185182	0.000659	6.585936	2.231376	-0.000264
1355	1.3472e+02	-13.9472	-83.431447	0.000618	6.180648	2.094060	-0.000248
1356	1.3482e+02	-13.9985	-83.669638	0.000598	5.978004	2.025403	-0.000239
1357	1.3492e+02	-14.0306	-83.851309	0.000456	4.559494	1.544799	-0.000183
1358	1.3502e+02	-14.0739	-84.097575	0.000618	6.180648	2.094060	-0.000248
1359	1.3512e+02	-14.1124	-84.335766	0.000598	5.978004	2.025403	-0.000239
1360	1.3522e+02	-14.1525	-84.577994	0.000608	6.079326	2.059731	-0.000243
1361	1.3532e+02	-14.1975	-84.844445	0.000669	6.687259	2.265705	-0.000268
1362	1.3542e+02	-14.2295	-85.042264	0.000496	4.964783	1.682114	-0.000199
1363	1.3552e+02	-14.2857	-85.252195	0.000527	5.268749	1.785101	-0.000211
1364	1.3562e+02	-14.3162	-85.470201	0.000547	5.471393	1.853758	-0.000219
1365	1.3572e+02	-14.3563	-85.655909	0.000466	4.660817	1.579127	-0.000187
1366	1.3582e+02	-14.3916	-85.934471	0.000699	6.991225	2.368691	-0.000280
1367	1.3592e+02	-14.4253	-86.144402	0.000527	5.268749	1.785101	-0.000211
1368	1.3602e+02	-14.4734	-86.390668	0.000618	6.180648	2.094060	-0.000248
1369	1.3612e+02	-14.5119	-86.645007	0.000638	6.383292	2.162718	-0.000256
1370	1.3622e+02	-14.5456	-86.838790	0.000486	4.863461	1.647785	-0.000195
1371	1.3631e+02	-14.5825	-87.056795	0.000547	5.471393	1.853758	-0.000219
1372	1.3641e+02	-14.6322	-87.307097	0.000628	6.281970	2.128389	-0.000252
1373	1.3651e+02	-14.6707	-87.529140	0.000557	5.572715	1.888087	-0.000223
1374	1.3661e+02	-14.7092	-87.775405	0.000618	6.180648	2.094060	-0.000248
1375	1.3671e+02	-14.7493	-87.965151	0.000476	4.762139	1.613456	-0.000191
1376	1.3681e+02	-14.7894	-88.267936	0.000760	7.599157	2.574664	-0.000304
1377	1.3691e+02	-14.8327	-88.429421	0.000405	4.052884	1.373154	-0.000162
1378	1.3701e+02	-14.8680	-88.655501	0.000567	5.674038	1.922416	-0.000227
1379	1.3711e+02	-14.9049	-88.885618	0.000578	5.775360	1.956745	-0.000231
1380	1.3721e+02	-14.9466	-89.180328	0.000740	7.396513	2.506007	-0.000296
1381	1.3731e+02	-14.9883	-89.357962	0.000446	4.458172	1.510470	-0.000179
1382	1.3741e+02	-15.0365	-89.604228	0.000618	6.180648	2.094060	-0.000248
1383	1.3751e+02	-15.0718	-89.838382	0.000588	5.876682	1.991074	-0.000235
1384	1.3761e+02	-15.1135	-90.064461	0.000567	5.674038	1.922416	-0.000227
1385	1.3771e+02	-15.1552	-90.258244	0.000486	4.863461	1.647785	-0.000195
1386	1.3781e+02	-15.1937	-90.520658	0.000659	6.585936	2.231376	-0.000264
1387	1.3791e+02	-15.2290	-90.746737	0.000567	5.674038	1.922416	-0.000227
1388	1.3801e+02	-15.2691	-90.980891	0.000588	5.876682	1.991074	-0.000235
1389	1.3811e+02	-15.3060	-91.223119	0.000608	6.079326	2.059731	-0.000243
1390	1.3821e+02	-15.3493	-91.461310	0.000598	5.978004	2.025403	-0.000239
1391	1.3831e+02	-15.3878	-91.727761	0.000669	6.687259	2.265705	-0.000268
1392	1.3840e+02	-15.4359	-91.941729	0.000537	5.370071	1.819429	-0.000215
1393	1.3850e+02	-15.4712	-92.159735	0.000547	5.471393	1.853758	-0.000219
1394	1.3860e+02	-15.5097	-92.430223	0.000679	6.788581	2.300033	-0.000272
1395	1.3870e+02	-15.5402	-92.664377	0.000588	5.876682	1.991074	-0.000235
1396	1.3880e+02	-15.5899	-92.878345	0.000537	5.370071	1.819429	-0.000215
1397	1.3890e+02	-15.6268	-93.116536	0.000598	5.978004	2.025403	-0.000239
1398	1.3900e+02	-15.6589	-93.314355	0.000496	4.964783	1.682114	-0.000199
1399	1.3910e+02	-15.7054	-93.572732	0.000648	6.484614	2.197047	-0.000260
1400	1.3920e+02	-15.7471	-93.798812	0.000567	5.674038	1.922416	-0.000227
1401	1.3930e+02	-15.7889	-94.061226	0.000659	6.585936	2.231376	-0.000264
1402	1.3940e+02	-15.8322	-94.347862	0.000719	7.193869	2.437349	-0.000288
1403	1.3950e+02	-15.8675	-94.521459	0.000436	4.356850	1.476141	-0.000174
1404	1.3960e+02	-15.9156	-94.775799	0.000638	6.383292	2.162718	-0.000256
1405	1.3970e+02	-15.9493	-95.034175	0.000648	6.484614	2.197047	-0.000260
1406	1.3980e+02	-15.9830	-95.264292	0.000578	5.775360	1.956745	-0.000231
1407	1.3990e+02	-16.0263	-95.490372	0.000567	5.674038	1.922416	-0.000227
1408	1.4000e+02	-16.0600	-95.728563	0.000598	5.978004	2.025403	-0.000239
1409	1.4010e+02	-16.1113	-95.995014	0.000669	6.687259	2.265705	-0.000268
1410	1.4020e+02	-16.1482	-96.237242	0.000608	6.079326	2.059731	-0.000243
1411	1.4029e+02	-16.1819	-96.426987	0.000476	4.762139	1.613456	-0.000191
1412	1.4039e+02	-16.2204	-96.737847	0.000780	7.801802	2.643322	-0.000312
1413	1.4049e+02	-16.2653	-96.951815	0.000537	5.370071	1.819429	-0.000215
1414	1.4059e+02	-16.3022	-97.214229	0.000659	6.585936	2.231376	-0.000264
1415	1.4069e+02	-16.3423	-97.412048	0.000496	4.964783	1.682114	-0.000199
1416	1.4079e+02	-16.3856	-97.690611	0.000699	6.991225	2.368691	-0.000280
1417	1.4089e+02	-16.4273	-97.900542	0.000527	5.268749	1.785101	-0.000211
1418	1.4099e+02	-16.4562	-98.142770	0.000608	6.079326	2.059731	-0.000243
1419	1.4109e+02	-16.4995	-98.368849	0.000567	5.674038	1.922416	-0.000227
1420	1.4119e+02	-16.5461	-98.631263	0.000659	6.585936	2.231376	-0.000264
1421	1.4129e+02	-16.5894	-98.881566	0.000628	6.281970	2.128389	-0.000252
1422	1.4139e+02	-16.6215	-99.135905	0.000638	6.383292	2.162718	-0.000256
1423	1.4149e+02	-16.6664	-99.353911	0.000547	5.471393	1.853758	-0.000219
1424	1.4159e+02	-16.6953	-99.612287	0.000648	6.484614	2.197047	-0.000260
1425	1.4169e+02	-16.7418	-99.846441	0.000588	5.876682	1.991074	-0.000235
1426	1.4179e+02	-16.7819	-100.108855	0.000659	6.585936	2.231376	-0.000264
1427	1.4189e+02	-16.8268	-100.334934	0.000567	5.674038	1.922416	-0.000227
1428	1.4199e+02	-16.8621	-100.653868	0.000800	8.004446	2.711980	-0.000321
1429	1.4209e+02	-16.9038	-100.883985	0.000578	5.775360	1.956745	-0.000231
1430	1.4219e+02	-16.9455	-101.142362	0.000648	6.484614	2.197047	-0.000260
1431	1.4228e+02	-16.9840	-101.328070	0.000466	4.660817	1.579127	-0.000187
1432	1.4238e+02	-17.0225	-101.598558	0.000679	6.788581	2.300033	-0.000272
1433	1.4248e+02	-17.0610	-101.848860	0.000628	6.281970	2.128389	-0.000252
1434	1.4258e+02	-17.1091	-102.111274	0.000659	6.585936	2.231376	-0.000264
1435	1.4268e+02	-17.1332	-102.309094	0.000496	4.964783	1.682114	-0.000199
1436	1.4278e+02	-17.1878	-102.567471	0.000648	6.484614	2.197047	-0.000260
1437	1.4288e+02	-17.2166	-102.882367	0.000790	7.903124	2.677651	-0.000316
1438	1.4298e+02	-17.2599	-103.100372	0.000547	5.471393	1.853758	-0.000219
1439	1.4308e+02	-17.3049	-103.423343	0.000811	8.105768	2.746309	-0.000325
1440	1.4318e+02	-17.3385	-103.617126	0.000486	4.863461	1.647785	-0.000195
1441	1.4328e+02	-17.3770	-103.911837	0.000740	7.396513	2.506007	-0.000296
1442	1.4338e+02	-17.4236	-104.125805	0.000537	5.370071	1.819429	-0.000215
1443	1.4348e+02	-17.4637	-104.372070	0.000618	6.180648	2.094060	-0.000248
1444	1.4358e+02	-17.4990	-104.666781	0.000740	7.396513	2.506007	-0.000296
1445	1.4368e+02	-17.5503	-104.941306	0.000689	6.889903	2.334362	-0.000276
1446	1.4378e+02	-17.5872	-105.231980	0.000730	7.295191	2.471678	-0.000292
1447	1.4388e+02	-17.6129	-105.482283	0.000628	6.281970	2.128389	-0.000252
1448	1.4398e+02	-17.6546	-105.720474	0.000598	5.978004	2.025403	-0.000239
1449	1.4408e+02	-17.7059	-106.015184	0.000740	7.396513	2.506007	-0.000296
1450	1.4418e+02	-17.7412	-106.229153	0.000537	5.370071	1.819429	-0.000215
1451	1.4428e+02	-17.7781	-106.519826	0.000730	7.295191	2.471678	-0.000292
1452	1.4437e+02	-17.8246	-106.786277	0.000669	6.687259	2.265705	-0.000268
1453	1.4447e+02	-17.8599	-107.008320	0.000557	5.572715	1.888087	-0.000223
1454	1.4457e+02	-17.8888	-107.339365	0.000831	8.308412	2.814966	-0.000333
1455	1.4467e+02	-17.9401	-107.601779	0.000659	6.585936	2.231376	-0.000264
1456	1.4477e+02	-17.9770	-107.872267	0.000679	6.788581	2.300033	-0.000272
1457	1.4487e+02	-18.0203	-108.126606	0.000638	6.383292	2.162718	-0.000256
1458	1.4497e+02	-18.0653	-108.393057	0.000669	6.687259	2.265705	-0.000268
1459	1.4507e+02	-18.1006	-108.663546	0.000679	6.788581	2.300033	-0.000272
1460	1.4517e+02	-18.1423	-108.946145	0.000709	7.092547	2.403020	-0.000284
1461	1.4527e+02	-18.1760	-109.220670	0.000689	6.889903	2.334362	-0.000276
1462	1.4537e+02	-18.2193	-109.495195	0.000689	6.889903	2.334362	-0.000276
1463	1.4547e+02	-18.2594	-109.781832	0.000719	7.193869	2.437349	-0.000288
1464	1.4557e+02	-18.3075	-110.020023	0.000598	5.978004	2.025403	-0.000239
1465	1.4567e+02	-18.3396	-110.302623	0.000709	7.092547	2.403020	-0.000284
1466	1.4577e+02	-18.3845	-110.605408	0.000760	7.599157	2.574664	-0.000304
1467	1.4587e+02	-18.4134	-110.863785	0.000648	6.484614	2.197047	-0.000260
1468	1.4597e+02	-18.4519	-111.190792	0.000821	8.207090	2.780637	-0.000329
1469	1.4607e+02	-18.5016	-111.453206	0.000659	6.585936	2.231376	-0.000264
1470	1.4617e+02	-18.5433	-111.723694	0.000679	6.788581	2.300033	-0.000272
1471	1.4626e+02	-18.5818	-112.038591	0.000790	7.903124	2.677651	-0.000316
1472	1.4636e+02	-18.6171	-112.288893	0.000628	6.281970	2.128389	-0.000252
1473	1.4646e+02	-18.6604	-112.583604	0.000740	7.396513	2.506007	-0.000296
1474	1.4656e+02	-18.6957	-112.882352	0.000750	7.497835	2.540335	-0.000300
1475	1.4666e+02	-18.7358	-113.120543	0.000598	5.978004	2.025403	-0.000239
1476	1.4676e+02	-18.7663	-113.415254	0.000740	7.396513	2.506007	-0.000296
1477	1.4686e+02	-18.8193	-113.701891	0.000719	7.193869	2.437349	-0.000288
1478	1.4696e+02	-18.8594	-114.016788	0.000790	7.903124	2.677651	-0.000316
1479	1.4706e+02	-18.8898	-114.287276	0.000679	6.788581	2.300033	-0.000272
1480	1.4716e+02	-18.9348	-114.569875	0.000709	7.092547	2.403020	-0.000284
1481	1.4726e+02	-18.9717	-114.884772	0.000790	7.903124	2.677651	-0.000316
1482	1.4736e+02	-19.0182	-115.127000	0.000608	6.079326	2.059731	-0.000243
1483	1.4746e+02	-19.0567	-115.454008	0.000821	8.207090	2.780637	-0.000329
1484	1.4756e+02	-19.0968	-115.716422	0.000659	6.585936	2.231376	-0.000264
1485	1.4766e+02	-19.1369	-116.063615	0.000871	8.713701	2.952282	-0.000349
1486	1.4776e+02	-19.1674	-116.354289	0.000730	7.295191	2.471678	-0.000292
1487	1.4786e+02	-19.2203	-116.657074	0.000760	7.599157	2.574664	-0.000304
1488	1.4796e+02	-19.2572	-116.943711	0.000719	7.193869	2.437349	-0.000288
1489	1.4806e+02	-19.3005	-117.242459	0.000750	7.497835	2.540335	-0.000300
1490	1.4816e+02	-19.3294	-117.581578	0.000851	8.511056	2.883624	-0.000341
1491	1.4825e+02	-19.3727	-117.835918	0.000638	6.383292	2.162718	-0.000256
1492	1.4835e+02	-19.4016	-118.146777	0.000780	7.801802	2.643322	-0.000312
1493	1.4845e+02	-19.4593	-118.453600	0.000770	7.700480	2.608993	-0.000308
1494	1.4855e+02	-19.4850	-118.772533	0.000800	8.004446	2.711980	-0.000321
1495	1.4865e+02	-19.5315	-119.030910	0.000648	6.484614	2.197047	-0.000260
1496	1.4875e+02	-19.5813	-119.353881	0.000811	8.105768	2.746309	-0.000325
1497	1.4885e+02	-19.6117	-119.729335	0.000942	9.422955	3.192584	-0.000377
1498	1.4895e+02	-19.6486	-120.024045	0.000740	7.396513	2.506007	-0.000296
1499	1.4905e+02	-19.6920	-120.326831	0.000760	7.599157	2.574664	-0.000304
1500	1.4915e+02	-19.7289	-120.641727	0.000790	7.903124	2.677651	-0.000316
1501	1.4925e+02	-19.7770	-120.964698	0.000811	8.105768	2.746309	-0.000325
1502	1.4935e+02	-19.8026	-121.271520	0.000770	7.700480	2.608993	-0.000308
1503	1.4945e+02	-19.8524	-121.590454	0.000800	8.004446	2.711980	-0.000321
1504	1.4955e+02	-19.9005	-121.953796	0.000912	9.118989	3.089597	-0.000365
1505	1.4965e+02	-19.9278	-122.260619	0.000770	7.700480	2.608993	-0.000308
1506	1.4975e+02	-19.9615	-122.563404	0.000760	7.599157	2.574664	-0.000304
1507	1.4985e+02	-20.0112	-122.926746	0.000912	9.118989	3.089597	-0.000365
1508	1.4995e+02	-19.9871	-122.922709	0.000010	0.101322	0.034329	0.000004
1509	1.5005e+02	-19.9294	-122.934820	-0.000030	-0.303966	-0.102987	-0.000012
1510	1.5015e+02	-19.8877	-122.922709	0.000030	0.303966	0.102987	0.000012
1511	1.5025e+02	-19.8556	-122.878300	0.000111	1.114543	0.377617	0.000045
1512	1.5034e+02	-19.8026	-122.854078	0.000061	0.607933	0.205973	0.000024
1513	1.5044e+02	-19.7754	-122.825818	0.000071	0.709255	0.240302	0.000028
1514	1.5054e+02	-19.7369	-122.789483	0.000091	0.911899	0.308960	0.000037
1515	1.5064e+02	-19.6855	-122.737001	0.000132	1.317187	0.446275	0.000053
1516	1.5074e+02	-19.6486	-122.664332	0.000182	1.823798	0.617919	0.000073
1517	1.5084e+02	-19.6150	-122.640109	0.000061	0.607933	0.205973	0.000024
1518	1.5094e+02	-19.5732	-122.543218	0.000243	2.431730	0.823893	0.000097
1519	1.5104e+02	-19.5299	-122.442290	0.000253	2.533052	0.858221	0.000101
1520	1.5114e+02	-19.4914	-122.418067	0.000061	0.607933	0.205973	0.000024
1521	1.5124e+02	-19.4545	-122.296953	0.000304	3.039663	1.029866	0.000122
1522	1.5134e+02	-19.4208	-122.196025	0.000253	2.533052	0.858221	0.000101
1523	1.5144e+02	-19.3872	-122.131430	0.000162	1.621154	0.549262	0.000065
1524	1.5154e+02	-19.3262	-122.042613	0.000223	2.229086	0.755235	0.000089
1525	1.5164e+02	-19.2845	-121.969945	0.000182	1.823798	0.617919	0.000073
1526	1.5174e+02	-19.2556	-121.844794	0.000314	3.140985	1.064195	0.000126
1527	1.5184e+02	-19.2155	-121.755977	0.000223	2.229086	0.755235	0.000089
1528	1.5194e+02	-19.1898	-121.655048	0.000253	2.533052	0.858221	0.000101
1529	1.5204e+02	-19.1321	-121.525860	0.000324	3.242307	1.098523	0.000130
1530	1.5214e+02	-19.0920	-121.469340	0.000142	1.418509	0.480604	0.000057
1531	1.5224e+02	-19.0503	-121.307855	0.000405	4.052884	1.373154	0.000162
1532	1.5233e+02	-19.0150	-121.247298	0.000152	1.519831	0.514933	0.000061
1533	1.5243e+02	-18.9749	-121.122146	0.000314	3.140985	1.064195	0.000126
1534	1.5253e+02	-18.9380	-120.988921	0.000334	3.343629	1.132852	0.000134
1535	1.5263e+02	-18.8963	-120.851658	0.000344	3.444951	1.167181	0.000138
1536	1.5273e+02	-18.8578	-120.766878	0.000213	2.127764	0.720906	0.000085
1537	1.5283e+02	-18.8193	-120.678061	0.000223	2.229086	0.755235	0.000089
1538	1.5293e+02	-18.7727	-120.544836	0.000334	3.343629	1.132852	0.000134
1539	1.5303e+02	-18.7406	-120.403536	0.000355	3.546273	1.201510	0.000142
1540	1.5313e+02	-18.6973	-120.266274	0.000344	3.444951	1.167181	0.000138
1541	1.5323e+02	-18.6572	-120.137085	0.000324	3.242307	1.098523	0.000130
1542	1.5333e+02	-18.6203	-120.011934	0.000314	3.140985	1.064195	0.000126
1543	1.5343e+02	-18.5706	-119.886783	0.000314	3.140985	1.064195	0.000126
1544	1.5353e+02	-18.5401	-119.749520	0.000344	3.444951	1.167181	0.000138
1545	1.5363e+02	-18.5080	-119.628406	0.000304	3.039663	1.029866	0.000122
1546	1.5373e+02	-18.4519	-119.555738	0.000182	1.823798	0.617919	0.000073
1547	1.5383e+02	-18.4246	-119.361955	0.000486	4.863461	1.647785	0.000195
1548	1.5393e+02	-18.3877	-119.232767	0.000324	3.242307	1.098523	0.000130
1549	1.5403e+02	-18.3364	-119.160098	0.000182	1.823798	0.617919	0.000073
1550	1.5413e+02	-18.2866	-118.982464	0.000446	4.458172	1.510470	0.000179
1551	1.5422e+02	-18.2481	-118.841165	0.000355	3.546273	1.201510	0.000142
1552	1.5432e+02	-18.2337	-118.691791	0.000375	3.748918	1.270168	0.000150
1553	1.5442e+02	-18.1840	-118.582788	0.000274	2.735697	0.926879	0.000110
1554	1.5452e+02	-18.1342	-118.449563	0.000334	3.343629	1.132852	0.000134
1555	1.5462e+02	-18.1022	-118.316337	0.000334	3.343629	1.132852	0.000134
1556	1.5472e+02	-18.0588	-118.195223	0.000304	3.039663	1.029866	0.000122
1557	1.5482e+02	-18.0171	-118.041812	0.000385	3.850240	1.304497	0.000154
1558	1.5492e+02	-17.9786	-117.872252	0.000426	4.255528	1.441812	0.000170
1559	1.5502e+02	-17.9385	-117.767287	0.000263	2.634375	0.892550	0.000105
1560	1.5512e+02	-17.9016	-117.625987	0.000355	3.546273	1.201510	0.000142
1561	1.5522e+02	-17.8615	-117.496799	0.000324	3.242307	1.098523	0.000130
1562	1.5532e+02	-17.8102	-117.311090	0.000466	4.660817	1.579127	0.000187
1563	1.5542e+02	-17.7845	-117.173828	0.000344	3.444951	1.167181	0.000138
1564	1.5552e+02	-17.7316	-117.024454	0.000375	3.748918	1.270168	0.000150
1565	1.5562e+02	-17.6995	-116.903340	0.000304	3.039663	1.029866	0.000122
1566	1.5572e+02	-17.6546	-116.758003	0.000365	3.647596	1.235839	0.000146
1567	1.5582e+02	-17.6193	-116.616703	0.000355	3.546273	1.201510	0.000142
1568	1.5592e+02	-17.5808	-116.487515	0.000324	3.242307	1.098523	0.000130
1569	1.5602e+02	-17.5423	-116.330066	0.000395	3.951562	1.338825	0.000158
1570	1.5612e+02	-17.4990	-116.164544	0.000415	4.154206	1.407483	0.000166
1571	1.5622e+02	-17.4621	-116.071690	0.000233	2.330408	0.789564	0.000093
1572	1.5631e+02	-17.4236	-115.934427	0.000344	3.444951	1.167181	0.000138
1573	1.5641e+02	-17.3819	-115.781016	0.000385	3.850240	1.304497	0.000154
1574	1.5651e+02	-17.3498	-115.623568	0.000395	3.951562	1.338825	0.000158
1575	1.5661e+02	-17.3065	-115.486305	0.000344	3.444951	1.167181	0.000138
1576	1.5671e+02	-17.2680	-115.276374	0.000527	5.268749	1.785101	0.000211
1577	1.5681e+02	-17.2230	-115.187557	0.000223	2.229086	0.755235	0.000089
1578	1.5691e+02	-17.1829	-115.009923	0.000446	4.458172	1.510470	0.000179
1579	1.5701e+02	-17.1476	-114.860549	0.000375	3.748918	1.270168	0.000150
1580	1.5711e+02	-17.1011	-114.666766	0.000486	4.863461	1.647785	0.000195
1581	1.5721e+02	-17.0562	-114.533541	0.000334	3.343629	1.132852	0.000134
1582	1.5731e+02	-17.0209	-114.396278	0.000344	3.444951	1.167181	0.000138
1583	1.5741e+02	-16.9840	-114.267090	0.000324	3.242307	1.098523	0.000130
1584	1.5751e+02	-16.9423	-114.101567	0.000415	4.154206	1.407483	0.000166
1585	1.5761e+02	-16.8990	-113.923933	0.000446	4.458172	1.510470	0.000179
1586	1.5771e+02	-16.8541	-113.806856	0.000294	2.938341	0.995537	0.000118
1587	1.5781e+02	-16.8236	-113.605000	0.000507	5.066105	1.716443	0.000203
1588	1.5791e+02	-16.7819	-113.508108	0.000243	2.431730	0.823893	0.000097
1589	1.5801e+02	-16.7450	-113.346623	0.000405	4.052884	1.373154	0.000162
1590	1.5811e+02	-16.7049	-113.124581	0.000557	5.572715	1.888087	0.000223
1591	1.5821e+02	-16.6616	-113.031726	0.000233	2.330408	0.789564	0.000093
1592	1.5830e+02	-16.6247	-112.833907	0.000496	4.964783	1.682114	0.000199
1593	1.5840e+02	-16.5878	-112.680496	0.000385	3.850240	1.304497	0.000154
1594	1.5850e+02	-16.5525	-112.535159	0.000365	3.647596	1.235839	0.000146
1595	1.5860e+02	-16.4963	-112.381748	0.000385	3.850240	1.304497	0.000154
1596	1.5870e+02	-16.4739	-112.232374	0.000375	3.748918	1.270168	0.000150
1597	1.5880e+02	-16.4225	-112.030517	0.000507	5.066105	1.716443	0.000203
1598	1.5890e+02	-16.3840	-111.885180	0.000365	3.647596	1.235839	0.000146
1599	1.5900e+02	-16.3455	-111.699472	0.000466	4.660817	1.579127	0.000187
1600	1.5910e+02	-16.3006	-111.546060	0.000385	3.850240	1.304497	0.000154
1601	1.5920e+02	-16.2653	-111.433021	0.000284	2.837019	0.961208	0.000114
1602	1.5930e+02	-16.2364	-111.243275	0.000476	4.762139	1.613456	0.000191
1603	1.5940e+02	-16.1835	-111.085827	0.000395	3.951562	1.338825	0.000158
1604	1.5950e+02	-16.1530	-110.940490	0.000365	3.647596	1.235839	0.000146
1605	1.5960e+02	-16.1065	-110.750745	0.000476	4.762139	1.613456	0.000191
1606	1.5970e+02	-16.0680	-110.577148	0.000436	4.356850	1.476141	0.000174
1607	1.5980e+02	-16.0247	-110.435848	0.000355	3.546273	1.201510	0.000142
1608	1.5990e+02	-15.9910	-110.274363	0.000405	4.052884	1.373154	0.000162
1609	1.6000e+02	-15.9461	-110.124989	0.000375	3.748918	1.270168	0.000150
1610	1.6010e+02	-15.9060	-109.943318	0.000456	4.559494	1.544799	0.000183
1611	1.6019e+02	-15.8643	-109.802018	0.000355	3.546273	1.201510	0.000142
1612	1.6029e+02	-15.8306	-109.640532	0.000405	4.052884	1.373154	0.000162
1613	1.6039e+02	-15.7873	-109.442713	0.000496	4.964783	1.682114	0.000199
1614	1.6049e+02	-15.7439	-109.301413	0.000355	3.546273	1.201510	0.000142
1615	1.6059e+02	-15.7086	-109.152039	0.000375	3.748918	1.270168	0.000150
1616	1.6069e+02	-15.6621	-108.978442	0.000436	4.356850	1.476141	0.000174
1617	1.6079e+02	-15.6172	-108.816957	0.000405	4.052884	1.373154	0.000162
1618	1.6089e+02	-15.5915	-108.615100	0.000507	5.066105	1.716443	0.000203
1619	1.6099e+02	-15.5514	-108.465726	0.000375	3.748918	1.270168	0.000150
1620	1.6109e+02	-15.5097	-108.332500	0.000334	3.343629	1.132852	0.000134
1621	1.6119e+02	-15.4680	-108.203312	0.000324	3.242307	1.098523	0.000130
1622	1.6129e+02	-15.4231	-107.985307	0.000547	5.471393	1.853758	0.000219
1623	1.6139e+02	-15.3974	-107.860156	0.000314	3.140985	1.064195	0.000126
1624	1.6149e+02	-15.3429	-107.650224	0.000527	5.268749	1.785101	0.000211
1625	1.6159e+02	-15.3140	-107.468553	0.000456	4.559494	1.544799	0.000183
1626	1.6169e+02	-15.2627	-107.335328	0.000334	3.343629	1.132852	0.000134
1627	1.6179e+02	-15.2354	-107.165768	0.000426	4.255528	1.441812	0.000170
1628	1.6189e+02	-15.1953	-106.980060	0.000466	4.660817	1.579127	0.000187
1629	1.6199e+02	-15.1472	-106.858946	0.000304	3.039663	1.029866	0.000122
1630	1.6209e+02	-15.1022	-106.628829	0.000578	5.775360	1.956745	0.000231
1631	1.6219e+02	-15.0734	-106.435047	0.000486	4.863461	1.647785	0.000195
1632	1.6228e+02	-15.0301	-106.334118	0.000253	2.533052	0.858221	0.000101
1633	1.6238e+02	-14.9980	-106.108039	0.000567	5.674038	1.922416	0.000227
1634	1.6248e+02	-14.9514	-105.934442	0.000436	4.356850	1.476141	0.000174
1635	1.6258e+02	-14.9081	-105.756808	0.000446	4.458172	1.510470	0.000179
1636	1.6268e+02	-14.8680	-105.623582	0.000334	3.343629	1.132852	0.000134
1637	1.6278e+02	-14.8327	-105.441911	0.000456	4.559494	1.544799	0.000183
1638	1.6288e+02	-14.7990	-105.236017	0.000517	5.167427	1.750772	0.000207
1639	1.6298e+02	-14.7429	-105.098755	0.000344	3.444951	1.167181	0.000138
1640	1.6308e+02	-14.6996	-104.937269	0.000405	4.052884	1.373154	0.000162
1641	1.6318e+02	-14.6787	-104.743487	0.000486	4.863461	1.647785	0.000195
1642	1.6328e+02	-14.6258	-104.573927	0.000426	4.255528	1.441812	0.000170
1643	1.6338e+02	-14.5937	-104.372070	0.000507	5.066105	1.716443	0.000203
1644	1.6348e+02	-14.5568	-104.214622	0.000395	3.951562	1.338825	0.000158
1645	1.6358e+02	-14.5119	-104.065248	0.000375	3.748918	1.270168	0.000150
1646	1.6368e+02	-14.4750	-103.847243	0.000547	5.471393	1.853758	0.000219
1647	1.6378e+02	-14.4317	-103.669609	0.000446	4.458172	1.510470	0.000179
1648	1.6388e+02	-14.3948	-103.500049	0.000426	4.255528	1.441812	0.000170
1649	1.6398e+02	-14.3515	-103.318378	0.000456	4.559494	1.544799	0.000183
1650	1.6408e+02	-14.3114	-103.144781	0.000436	4.356850	1.476141	0.000174
1651	1.6418e+02	-14.2729	-102.942924	0.000507	5.066105	1.716443	0.000203
1652	1.6427e+02	-14.2247	-102.805662	0.000344	3.444951	1.167181	0.000138
1653	1.6437e+02	-14.1975	-102.575545	0.000578	5.775360	1.956745	0.000231
1654	1.6447e+02	-14.1477	-102.414059	0.000405	4.052884	1.373154	0.000162
1655	1.6457e+02	-14.1189	-102.264685	0.000375	3.748918	1.270168	0.000150
1656	1.6467e+02	-14.0707	-102.034569	0.000578	5.775360	1.956745	0.000231
1657	1.6477e+02	-14.0290	-101.869046	0.000415	4.154206	1.407483	0.000166
1658	1.6487e+02	-13.9953	-101.699486	0.000426	4.255528	1.441812	0.000170
1659	1.6497e+02	-13.9568	-101.513778	0.000466	4.660817	1.579127	0.000187
1660	1.6507e+02	-13.9135	-101.315958	0.000496	4.964783	1.682114	0.000199
1661	1.6517e+02	-13.8670	-101.134287	0.000456	4.559494	1.544799	0.000183
1662	1.6527e+02	-13.8301	-100.952616	0.000456	4.559494	1.544799	0.000183
1663	1.6537e+02	-13.7948	-100.746722	0.000517	5.167427	1.750772	0.000207
1664	1.6547e+02	-13.7563	-100.613497	0.000334	3.343629	1.132852	0.000134
1665	1.6557e+02	-13.7082	-100.415677	0.000496	4.964783	1.682114	0.000199
1666	1.6567e+02	-13.6793	-100.242080	0.000436	4.356850	1.476141	0.000174
1667	1.6577e+02	-13.6296	-100.056372	0.000466	4.660817	1.579127	0.000187
1668	1.6587e+02	-13.5911	-99.874701	0.000456	4.559494	1.544799	0.000183
1669	1.6597e+02	-13.5558	-99.688993	0.000466	4.660817	1.579127	0.000187
1670	1.6607e+02	-13.5141	-99.519433	0.000426	4.255528	1.441812	0.000170
1671	1.6616e+02	-13.4691	-99.313539	0.000517	5.167427	1.750772	0.000207
1672	1.6626e+02	-13.4322	-99.111682	0.000507	5.066105	1.716443	0.000203
1673	1.6636e+02	-13.3969	-98.990568	0.000304	3.039663	1.029866	0.000122
1674	1.6646e+02	-13.3584	-98.748340	0.000608	6.079326	2.059731	0.000243
1675	1.6656e+02	-13.3119	-98.598966	0.000375	3.748918	1.270168	0.000150
1676	1.6666e+02	-13.2830	-98.425369	0.000436	4.356850	1.476141	0.000174
1677	1.6676e+02	-13.2333	-98.251772	0.000436	4.356850	1.476141	0.000174
1678	1.6686e+02	-13.1964	-98.009544	0.000608	6.079326	2.059731	0.000243
1679	1.6696e+02	-13.1547	-97.880356	0.000324	3.242307	1.098523	0.000130
1680	1.6706e+02	-13.1114	-97.690611	0.000476	4.762139	1.613456	0.000191
1681	1.6716e+02	-13.0697	-97.468568	0.000557	5.572715	1.888087	0.000223
1682	1.6726e+02	-13.0344	-97.294971	0.000436	4.356850	1.476141	0.000174
1683	1.6736e+02	-13.0071	-97.133486	0.000405	4.052884	1.373154	0.000162
1684	1.6746e+02	-12.9622	-96.911443	0.000557	5.572715	1.888087	0.000223
1685	1.6756e+02	-12.9093	-96.725735	0.000466	4.660817	1.579127	0.000187
1686	1.6766e+02	-12.8692	-96.523878	0.000507	5.066105	1.716443	0.000203
1687	1.6776e+02	-12.8419	-96.382579	0.000355	3.546273	1.201510	0.000142
1688	1.6786e+02	-12.8034	-96.213019	0.000426	4.255528	1.441812	0.000170
1689	1.6796e+02	-12.7649	-95.962716	0.000628	6.281970	2.128389	0.000252
1690	1.6806e+02	-12.7200	-95.809305	0.000385	3.850240	1.304497	0.000154
1691	1.6816e+02	-12.6766	-95.619560	0.000476	4.762139	1.613456	0.000191
1692	1.6825e+02	-12.6430	-95.470186	0.000375	3.748918	1.270168	0.000150
1693	1.6835e+02	-12.5964	-95.248143	0.000557	5.572715	1.888087	0.000223
1694	1.6845e+02	-12.5644	-95.062435	0.000466	4.660817	1.579127	0.000187
1695	1.6855e+02	-12.5194	-94.856541	0.000517	5.167427	1.750772	0.000207
1696	1.6865e+02	-12.4745	-94.691019	0.000415	4.154206	1.407483	0.000166
1697	1.6875e+02	-12.4472	-94.468976	0.000557	5.572715	1.888087	0.000223
1698	1.6885e+02	-12.3863	-94.303454	0.000415	4.154206	1.407483	0.000166
1699	1.6895e+02	-12.3590	-94.073337	0.000578	5.775360	1.956745	0.000231
1700	1.6905e+02	-12.3221	-93.923963	0.000375	3.748918	1.270168	0.000150
1701	1.6915e+02	-12.2788	-93.685772	0.000598	5.978004	2.025403	0.000239
1702	1.6925e+02	-12.2371	-93.504101	0.000456	4.559494	1.544799	0.000183
1703	1.6935e+02	-12.2066	-93.330504	0.000436	4.356850	1.476141	0.000174
1704	1.6945e+02	-12.1729	-93.120573	0.000527	5.268749	1.785101	0.000211
1705	1.6955e+02	-12.1264	-92.930828	0.000476	4.762139	1.613456	0.000191
1706	1.6965e+02	-12.0799	-92.741082	0.000476	4.762139	1.613456	0.000191
1707	1.6975e+02	-12.0430	-92.555374	0.000466	4.660817	1.579127	0.000187
1708	1.6985e+02	-12.0109	-92.345443	0.000527	5.268749	1.785101	0.000211
1709	1.6995e+02	-11.9692	-92.171846	0.000436	4.356850	1.476141	0.000174
1710	1.7005e+02	-11.9259	-91.978064	0.000486	4.863461	1.647785	0.000195
1711	1.7015e+02	-11.8809	-91.784281	0.000486	4.863461	1.647785	0.000195
1712	1.7024e+02	-11.8408	-91.578387	0.000517	5.167427	1.750772	0.000207
1713	1.7034e+02	-11.8023	-91.360382	0.000547	5.471393	1.853758	0.000219
1714	1.7044e+02	-11.7670	-91.235231	0.000314	3.140985	1.064195	0.000126
1715	1.7054e+02	-11.7253	-91.013188	0.000557	5.572715	1.888087	0.000223
1716	1.7064e+02	-11.6852	-90.799220	0.000537	5.370071	1.819429	0.000215
1717	1.7074e+02	-11.6499	-90.617549	0.000456	4.559494	1.544799	0.000183
1718	1.7084e+02	-11.6130	-90.443952	0.000436	4.356850	1.476141	0.000174
1719	1.7094e+02	-11.5569	-90.242095	0.000507	5.066105	1.716443	0.000203
1720	1.7104e+02	-11.5232	-89.999867	0.000608	6.079326	2.059731	0.000243
1721	1.7114e+02	-11.4815	-89.814159	0.000466	4.660817	1.579127	0.000187
1722	1.7124e+02	-11.4382	-89.668822	0.000365	3.647596	1.235839	0.000146
1723	1.7134e+02	-11.4093	-89.446779	0.000557	5.572715	1.888087	0.000223
1724	1.7144e+02	-11.3580	-89.257034	0.000476	4.762139	1.613456	0.000191
1725	1.7154e+02	-11.3211	-89.006732	0.000628	6.281970	2.128389	0.000252
1726	1.7164e+02	-11.2922	-88.792763	0.000537	5.370071	1.819429	0.000215
1727	1.7174e+02	-11.2425	-88.671649	0.000304	3.039663	1.029866	0.000122
1728	1.7184e+02	-11.2008	-88.437495	0.000588	5.876682	1.991074	0.000235
1729	1.7194e+02	-11.1655	-88.304270	0.000334	3.343629	1.132852	0.000134
1730	1.7204e+02	-11.1221	-88.045893	0.000648	6.484614	2.197047	0.000260
1731	1.7213e+02	-11.0788	-87.868259	0.000446	4.458172	1.510470	0.000179
1732	1.7223e+02	-11.0548	-87.710811	0.000395	3.951562	1.338825	0.000158
1733	1.7233e+02	-11.0082	-87.484731	0.000567	5.674038	1.922416	0.000227
1734	1.7243e+02	-10.9649	-87.278838	0.000517	5.167427	1.750772	0.000207
1735	1.7253e+02	-10.9280	-87.097166	0.000456	4.559494	1.544799	0.000183
1736	1.7263e+02	-10.8895	-86.903384	0.000486	4.863461	1.647785	0.000195
1737	1.7273e+02	-10.8510	-86.713639	0.000476	4.762139	1.613456	0.000191
1738	1.7283e+02	-10.8173	-86.499670	0.000537	5.370071	1.819429	0.000215
1739	1.7293e+02	-10.7580	-86.301851	0.000496	4.964783	1.682114	0.000199
1740	1.7303e+02	-10.7291	-86.104031	0.000496	4.964783	1.682114	0.000199
1741	1.7313e+02	-10.6954	-85.894100	0.000527	5.268749	1.785101	0.000211
1742	1.7323e+02	-10.6441	-85.720503	0.000436	4.356850	1.476141	0.000174
1743	1.7333e+02	-10.6136	-85.494424	0.000567	5.674038	1.922416	0.000227
1744	1.7343e+02	-10.5687	-85.284492	0.000527	5.268749	1.785101	0.000211
1745	1.7353e+02	-10.5318	-85.086673	0.000496	4.964783	1.682114	0.000199
1746	1.7363e+02	-10.4821	-84.917113	0.000426	4.255528	1.441812	0.000170
1747	1.7373e+02	-10.4452	-84.695071	0.000557	5.572715	1.888087	0.000223
1748	1.7383e+02	-10.4115	-84.477065	0.000547	5.471393	1.853758	0.000219
1749	1.7393e+02	-10.3601	-84.275209	0.000507	5.066105	1.716443	0.000203
1750	1.7403e+02	-10.3281	-84.129872	0.000365	3.647596	1.235839	0.000146
1751	1.7413e+02	-10.2912	-83.855346	0.000689	6.889903	2.334362	0.000276
1752	1.7422e+02	-10.2478	-83.669638	0.000466	4.660817	1.579127	0.000187
1753	1.7432e+02	-10.2061	-83.475856	0.000486	4.863461	1.647785	0.000195
1754	1.7442e+02	-10.1644	-83.245739	0.000578	5.775360	1.956745	0.000231
1755	1.7452e+02	-10.1291	-83.072142	0.000436	4.356850	1.476141	0.000174
1756	1.7462e+02	-10.0922	-82.862211	0.000527	5.268749	1.785101	0.000211
1757	1.7472e+02	-10.0473	-82.660354	0.000507	5.066105	1.716443	0.000203
1758	1.7482e+02	-10.0168	-82.426200	0.000588	5.876682	1.991074	0.000235
1759	1.7492e+02	-9.9703	-82.204158	0.000557	5.572715	1.888087	0.000223
1760	1.7502e+02	-9.9302	-82.002301	0.000507	5.066105	1.716443	0.000203
1761	1.7512e+02	-9.8965	-81.816593	0.000466	4.660817	1.579127	0.000187
1762	1.7522e+02	-9.8484	-81.582439	0.000588	5.876682	1.991074	0.000235
1763	1.7532e+02	-9.8131	-81.384619	0.000496	4.964783	1.682114	0.000199
1764	1.7542e+02	-9.7682	-81.182763	0.000507	5.066105	1.716443	0.000203
1765	1.7552e+02	-9.7313	-80.984943	0.000496	4.964783	1.682114	0.000199
1766	1.7562e+02	-9.6848	-80.758863	0.000567	5.674038	1.922416	0.000227
1767	1.7572e+02	-9.6575	-80.565081	0.000486	4.863461	1.647785	0.000195
1768	1.7582e+02	-9.6126	-80.351113	0.000537	5.370071	1.819429	0.000215
1769	1.7592e+02	-9.5709	-80.137144	0.000537	5.370071	1.819429	0.000215
1770	1.7602e+02	-9.5356	-79.907028	0.000578	5.775360	1.956745	0.000231
1771	1.7612e+02	-9.4922	-79.725357	0.000456	4.559494	1.544799	0.000183
1772	1.7621e+02	-9.4441	-79.507351	0.000547	5.471393	1.853758	0.000219
1773	1.7631e+02	-9.4088	-79.329717	0.000446	4.458172	1.510470	0.000179
1774	1.7641e+02	-9.3735	-79.079415	0.000628	6.281970	2.128389	0.000252
1775	1.7651e+02	-9.3334	-78.861410	0.000547	5.471393	1.853758	0.000219
1776	1.7661e+02	-9.2869	-78.671664	0.000476	4.762139	1.613456	0.000191
1777	1.7671e+02	-9.2677	-78.481919	0.000476	4.762139	1.613456	0.000191
1778	1.7681e+02	-9.2195	-78.207394	0.000689	6.889903	2.334362	0.000276
1779	1.7691e+02	-9.1762	-78.049945	0.000395	3.951562	1.338825	0.000158
1780	1.7701e+02	-9.1297	-77.807717	0.000608	6.079326	2.059731	0.000243
1781	1.7711e+02	-9.0992	-77.597786	0.000527	5.268749	1.785101	0.000211
1782	1.7721e+02	-9.0479	-77.379781	0.000547	5.471393	1.853758	0.000219
1783	1.7731e+02	-9.0158	-77.194072	0.000466	4.660817	1.579127	0.000187
1784	1.7741e+02	-8.9757	-76.907436	0.000719	7.193869	2.437349	0.000288
1785	1.7751e+02	-8.9356	-76.758062	0.000375	3.748918	1.270168	0.000150
1786	1.7761e+02	-8.8955	-76.507759	0.000628	6.281970	2.128389	0.000252
1787	1.7771e+02	-8.8506	-76.322051	0.000466	4.660817	1.579127	0.000187
1788	1.7781e+02	-8.8121	-76.087897	0.000588	5.876682	1.991074	0.000235
1789	1.7791e+02	-8.7687	-75.845669	0.000608	6.079326	2.059731	0.000243
1790	1.7801e+02	-8.7415	-75.647849	0.000496	4.964783	1.682114	0.000199
1791	1.7810e+02	-8.6933	-75.478290	0.000426	4.255528	1.441812	0.000170
1792	1.7820e+02	-8.6548	-75.256247	0.000557	5.572715	1.888087	0.000223
1793	1.7830e+02	-8.6099	-75.022093	0.000588	5.876682	1.991074	0.000235
1794	1.7840e+02	-8.5730	-74.783902	0.000598	5.978004	2.025403	0.000239
1795	1.7850e+02	-8.5297	-74.618380	0.000415	4.154206	1.407483	0.000166
1796	1.7860e+02	-8.4912	-74.331743	0.000719	7.193869	2.437349	0.000288
1797	1.7870e+02	-8.4575	-74.141998	0.000476	4.762139	1.613456	0.000191
1798	1.7880e+02	-8.4174	-73.915918	0.000567	5.674038	1.922416	0.000227
1799	1.7890e+02	-8.3821	-73.722136	0.000486	4.863461	1.647785	0.000195
1800	1.7900e+02	-8.3340	-73.508168	0.000537	5.370071	1.819429	0.000215
1801	1.7910e+02	-8.2987	-73.229605	0.000699	6.991225	2.368691	0.000280
1802	1.7920e+02	-8.2570	-73.015637	0.000537	5.370071	1.819429	0.000215
1803	1.7930e+02	-8.2169	-72.829929	0.000466	4.660817	1.579127	0.000187
1804	1.7940e+02	-8.1848	-72.591738	0.000598	5.978004	2.025403	0.000239
1805	1.7950e+02	-8.1431	-72.397955	0.000486	4.863461	1.647785	0.000195
1806	1.7960e+02	-8.0901	-72.103244	0.000740	7.396513	2.506007	0.000296
1807	1.7970e+02	-8.0565	-71.905425	0.000496	4.964783	1.682114	0.000199
1808	1.7980e+02	-8.0260	-71.643011	0.000659	6.585936	2.231376	0.000264
1809	1.7990e+02	-7.9762	-71.473451	0.000426	4.255528	1.441812	0.000170
1810	1.8000e+02	-7.9329	-71.231223	0.000608	6.079326	2.059731	0.000243
1811	1.8009e+02	-7.8976	-70.980921	0.000628	6.281970	2.128389	0.000252
1812	1.8019e+02	-7.8672	-70.799249	0.000456	4.559494	1.544799	0.000183
1813	1.8029e+02	-7.8287	-70.540873	0.000648	6.484614	2.197047	0.000260
1814	1.8039e+02	-7.7741	-70.298645	0.000608	6.079326	2.059731	0.000243
1815	1.8049e+02	-7.7388	-70.060454	0.000598	5.978004	2.025403	0.000239
1816	1.8059e+02	-7.6939	-69.846485	0.000537	5.370071	1.819429	0.000215
1817	1.8069e+02	-7.6698	-69.596183	0.000628	6.281970	2.128389	0.000252
1818	1.8079e+02	-7.6185	-69.406438	0.000476	4.762139	1.613456	0.000191
1819	1.8089e+02	-7.5752	-69.176321	0.000578	5.775360	1.956745	0.000231
1820	1.8099e+02	-7.5431	-68.938130	0.000598	5.978004	2.025403	0.000239
1821	1.8109e+02	-7.5030	-68.659567	0.000699	6.991225	2.368691	0.000280
1822	1.8119e+02	-7.4581	-68.457711	0.000507	5.066105	1.716443	0.000203
1823	1.8129e+02	-7.4180	-68.231631	0.000567	5.674038	1.922416	0.000227
1824	1.8139e+02	-7.3731	-67.977292	0.000638	6.383292	2.162718	0.000256
1825	1.8149e+02	-7.3426	-67.759286	0.000547	5.471393	1.853758	0.000219
1826	1.8159e+02	-7.2993	-67.513021	0.000618	6.180648	2.094060	0.000248
1827	1.8169e+02	-7.2640	-67.307127	0.000517	5.167427	1.750772	0.000207
1828	1.8179e+02	-7.2255	-67.097196	0.000527	5.268749	1.785101	0.000211
1829	1.8189e+02	-7.1725	-66.822671	0.000689	6.889903	2.334362	0.000276
1830	1.8199e+02	-7.1356	-66.584480	0.000598	5.978004	2.025403	0.000239
1831	1.8209e+02	-7.0955	-66.362437	0.000557	5.572715	1.888087	0.000223
1832	1.8218e+02	-7.0602	-66.140395	0.000557	5.572715	1.888087	0.000223
1833	1.8228e+02	-7.0233	-65.837610	0.000760	7.599157	2.574664	0.000304
1834	1.8238e+02	-6.9848	-65.651901	0.000466	4.660817	1.579127	0.000187
1835	1.8248e+02	-6.9431	-65.421785	0.000578	5.775360	1.956745	0.000231
1836	1.8258e+02	-6.8998	-65.183594	0.000598	5.978004	2.025403	0.000239
1837	1.8268e+02	-6.8661	-64.921180	0.000659	6.585936	2.231376	0.000264
1838	1.8278e+02	-6.8212	-64.666840	0.000638	6.383292	2.162718	0.000256
1839	1.8288e+02	-6.7747	-64.452872	0.000537	5.370071	1.819429	0.000215
1840	1.8298e+02	-6.7474	-64.222755	0.000578	5.775360	1.956745	0.000231
1841	1.8308e+02	-6.7089	-63.936119	0.000719	7.193869	2.437349	0.000288
1842	1.8318e+02	-6.6576	-63.738299	0.000496	4.964783	1.682114	0.000199
1843	1.8328e+02	-6.6223	-63.479922	0.000648	6.484614	2.197047	0.000260
1844	1.8338e+02	-6.5790	-63.257880	0.000557	5.572715	1.888087	0.000223
1845	1.8348e+02	-6.5340	-63.019689	0.000598	5.978004	2.025403	0.000239
1846	1.8358e+02	-6.5132	-62.789572	0.000578	5.775360	1.956745	0.000231
1847	1.8368e+02	-6.4667	-62.579641	0.000527	5.268749	1.785101	0.000211
1848	1.8378e+02	-6.4298	-62.329339	0.000628	6.281970	2.128389	0.000252
1849	1.8388e+02	-6.3881	-62.070962	0.000648	6.484614	2.197047	0.000260
1850	1.8398e+02	-6.3463	-61.865068	0.000517	5.167427	1.750772	0.000207
1851	1.8407e+02	-6.3127	-61.602654	0.000659	6.585936	2.231376	0.000264
1852	1.8417e+02	-6.2597	-61.400797	0.000507	5.066105	1.716443	0.000203
1853	1.8427e+02	-6.2244	-61.106087	0.000740	7.396513	2.506007	0.000296
1854	1.8437e+02	-6.1811	-60.912304	0.000486	4.863461	1.647785	0.000195
1855	1.8447e+02	-6.1490	-60.629705	0.000709	7.092547	2.403020	0.000284
1856	1.8457e+02	-6.1025	-60.456108	0.000436	4.356850	1.476141	0.000174
1857	1.8467e+02	-6.0704	-60.169471	0.000719	7.193869	2.437349	0.000288
1858	1.8477e+02	-6.0239	-59.939354	0.000578	5.775360	1.956745	0.000231
1859	1.8487e+02	-5.9822	-59.648681	0.000730	7.295191	2.471678	0.000292
1860	1.8497e+02	-5.9469	-59.438749	0.000527	5.268749	1.785101	0.000211
1861	1.8507e+02	-5.9100	-59.172299	0.000669	6.687259	2.265705	0.000268
1862	1.8517e+02	-5.8731	-58.926033	0.000618	6.180648	2.094060	0.000248
1863	1.8527e+02	-5.8250	-58.655545	0.000679	6.788581	2.300033	0.000272
1864	1.8537e+02	-5.7865	-58.425428	0.000578	5.775360	1.956745	0.000231
1865	1.8547e+02	-5.7528	-58.179163	0.000618	6.180648	2.094060	0.000248
1866	1.8557e+02	-5.7063	-57.940972	0.000598	5.978004	2.025403	0.000239
1867	1.8567e+02	-5.6742	-57.694707	0.000618	6.180648	2.094060	0.000248
1868	1.8577e+02	-5.6276	-57.436330	0.000648	6.484614	2.197047	0.000260
1869	1.8587e+02	-5.5924	-57.210251	0.000567	5.674038	1.922416	0.000227
1870	1.8597e+02	-5.5474	-56.935725	0.000689	6.889903	2.334362	0.000276
1871	1.8606e+02	-5.5105	-56.673311	0.000659	6.585936	2.231376	0.000264
1872	1.8616e+02	-5.4656	-56.410898	0.000659	6.585936	2.231376	0.000264
1873	1.8626e+02	-5.4287	-56.176744	0.000588	5.876682	1.991074	0.000235
1874	1.8636e+02	-5.3870	-55.906256	0.000679	6.788581	2.300033	0.000272
1875	1.8646e+02	-5.3453	-55.607508	0.000750	7.497835	2.540335	0.000300
1876	1.8656e+02	-5.3148	-55.433911	0.000436	4.356850	1.476141	0.000174
1877	1.8666e+02	-5.2699	-55.159386	0.000689	6.889903	2.334362	0.000276
1878	1.8676e+02	-5.2250	-54.901009	0.000648	6.484614	2.197047	0.000260
1879	1.8686e+02	-5.2041	-54.674929	0.000567	5.674038	1.922416	0.000227
1880	1.8696e+02	-5.1384	-54.380218	0.000740	7.396513	2.506007	0.000296
1881	1.8706e+02	-5.1223	-54.178362	0.000507	5.066105	1.716443	0.000203
1882	1.8716e+02	-5.0710	-53.907874	0.000679	6.788581	2.300033	0.000272
1883	1.8726e+02	-5.0325	-53.649497	0.000648	6.484614	2.197047	0.000260
1884	1.8736e+02	-4.9908	-53.383046	0.000669	6.687259	2.265705	0.000268
1885	1.8746e+02	-4.9491	-53.128706	0.000638	6.383292	2.162718	0.000256
1886	1.8756e+02	-4.9106	-52.862255	0.000669	6.687259	2.265705	0.000268
1887	1.8766e+02	-4.8705	-52.648287	0.000537	5.370071	1.819429	0.000215
1888	1.8776e+02	-4.8239	-52.389910	0.000648	6.484614	2.197047	0.000260
1889	1.8786e+02	-4.7934	-52.091162	0.000750	7.497835	2.540335	0.000300
1890	1.8796e+02	-4.7437	-51.877194	0.000537	5.370071	1.819429	0.000215
1891	1.8806e+02	-4.7052	-51.590558	0.000719	7.193869	2.437349	0.000288
1892	1.8815e+02	-4.6715	-51.352367	0.000598	5.978004	2.025403	0.000239
1893	1.8825e+02	-4.6378	-51.057656	0.000740	7.396513	2.506007	0.000296
1894	1.8835e+02	-4.5897	-50.835613	0.000557	5.572715	1.888087	0.000223
1895	1.8845e+02	-4.5544	-50.621645	0.000537	5.370071	1.819429	0.000215
1896	1.8855e+02	-4.5079	-50.359231	0.000659	6.585936	2.231376	0.000264
1897	1.8865e+02	-4.4758	-50.052409	0.000770	7.700480	2.608993	0.000308
1898	1.8875e+02	-4.4357	-49.777884	0.000689	6.889903	2.334362	0.000276
1899	1.8885e+02	-4.3924	-49.551804	0.000567	5.674038	1.922416	0.000227
1900	1.8895e+02	-4.3555	-49.281316	0.000679	6.788581	2.300033	0.000272
1901	1.8905e+02	-4.3154	-49.010828	0.000679	6.788581	2.300033	0.000272
1902	1.8915e+02	-4.2721	-48.756488	0.000638	6.383292	2.162718	0.000256
1903	1.8925e+02	-4.2416	-48.518297	0.000598	5.978004	2.025403	0.000239
1904	1.8935e+02	-4.1967	-48.247809	0.000679	6.788581	2.300033	0.000272
1905	1.8945e+02	-4.1518	-47.953098	0.000740	7.396513	2.506007	0.000296
1906	1.8955e+02	-4.1197	-47.718944	0.000588	5.876682	1.991074	0.000235
1907	1.8965e+02	-4.0828	-47.412122	0.000770	7.700480	2.608993	0.000308
1908	1.8975e+02	-4.0395	-47.234488	0.000446	4.458172	1.510470	0.000179
1909	1.8985e+02	-4.0010	-46.955926	0.000699	6.991225	2.368691	0.000280
1910	1.8995e+02	-3.9528	-46.669289	0.000719	7.193869	2.437349	0.000288
1911	1.9004e+02	-3.9159	-46.370541	0.000750	7.497835	2.540335	0.000300
1912	1.9014e+02	-3.8774	-46.172721	0.000496	4.964783	1.682114	0.000199
1913	1.9024e+02	-3.8293	-45.817453	0.000892	8.916345	3.020939	0.000357
1914	1.9034e+02	-3.8101	-45.583300	0.000588	5.876682	1.991074	0.000235
1915	1.9044e+02	-3.7523	-45.341071	0.000608	6.079326	2.059731	0.000243
1916	1.9054e+02	-3.7170	-45.034249	0.000770	7.700480	2.608993	0.000308
1917	1.9064e+02	-3.6753	-44.727427	0.000770	7.700480	2.608993	0.000308
1918	1.9074e+02	-3.6400	-44.501347	0.000567	5.674038	1.922416	0.000227
1919	1.9084e+02	-3.5967	-44.259119	0.000608	6.079326	2.059731	0.000243
1920	1.9094e+02	-3.5550	-44.008817	0.000628	6.281970	2.128389	0.000252
1921	1.9104e+02	-3.5197	-43.730254	0.000699	6.991225	2.368691	0.000280
1922	1.9114e+02	-3.4796	-43.399209	0.000831	8.308412	2.814966	0.000333
1923	1.9124e+02	-3.4363	-43.132758	0.000669	6.687259	2.265705	0.000268
1924	1.9134e+02	-3.4010	-42.878419	0.000638	6.383292	2.162718	0.000256
1925	1.9144e+02	-3.3528	-42.603893	0.000689	6.889903	2.334362	0.000276
1926	1.9154e+02	-3.3047	-42.264774	0.000851	8.511056	2.883624	0.000341
1927	1.9164e+02	-3.2791	-42.046769	0.000547	5.471393	1.853758	0.000219
1928	1.9174e+02	-3.2438	-41.752058	0.000740	7.396513	2.506007	0.000296
1929	1.9184e+02	-3.2004	-41.497718	0.000638	6.383292	2.162718	0.000256
1930	1.9194e+02	-3.1539	-41.211082	0.000719	7.193869	2.437349	0.000288
1931	1.9203e+02	-3.1202	-40.960779	0.000628	6.281970	2.128389	0.000252
1932	1.9213e+02	-3.0881	-40.674143	0.000719	7.193869	2.437349	0.000288
1933	1.9223e+02	-3.0336	-40.439989	0.000588	5.876682	1.991074	0.000235
1934	1.9233e+02	-2.9935	-40.088758	0.000882	8.815023	2.986611	0.000353
1935	1.9243e+02	-2.9598	-39.810196	0.000699	6.991225	2.368691	0.000280
1936	1.9253e+02	-2.9149	-39.507410	0.000760	7.599157	2.574664	0.000304
1937	1.9263e+02	-2.8684	-39.244997	0.000659	6.585936	2.231376	0.000264
1938	1.9273e+02	-2.8363	-38.978546	0.000669	6.687259	2.265705	0.000268
1939	1.9283e+02	-2.8026	-38.720169	0.000648	6.484614	2.197047	0.000260
1940	1.9293e+02	-2.7641	-38.441606	0.000699	6.991225	2.368691	0.000280
1941	1.9303e+02	-2.7208	-38.126710	0.000790	7.903124	2.677651	0.000316
1942	1.9313e+02	-2.6791	-37.840073	0.000719	7.193869	2.437349	0.000288
1943	1.9323e+02	-2.6374	-37.549399	0.000730	7.295191	2.471678	0.000292
1944	1.9333e+02	-2.6069	-37.262763	0.000719	7.193869	2.437349	0.000288
1945	1.9343e+02	-2.5620	-36.947866	0.000790	7.903124	2.677651	0.000316
1946	1.9353e+02	-2.5170	-36.713712	0.000588	5.876682	1.991074	0.000235
1947	1.9363e+02	-2.4801	-36.463410	0.000628	6.281970	2.128389	0.000252
1948	1.9373e+02	-2.4352	-36.128328	0.000841	8.409734	2.849295	0.000337
1949	1.9383e+02	-2.3999	-35.837654	0.000730	7.295191	2.471678	0.000292
1950	1.9393e+02	-2.3630	-35.571203	0.000669	6.687259	2.265705	0.000268
1951	1.9403e+02	-2.3181	-35.219972	0.000882	8.815023	2.986611	0.000353
1952	1.9412e+02	-2.2828	-34.953521	0.000669	6.687259	2.265705	0.000268
1953	1.9422e+02	-2.2459	-34.670922	0.000709	7.092547	2.403020	0.000284
1954	1.9432e+02	-2.1994	-34.424656	0.000618	6.180648	2.094060	0.000248
1955	1.9442e+02	-2.1609	-34.041129	0.000963	9.625599	3.261241	0.000385
1956	1.9452e+02	-2.1256	-33.819086	0.000557	5.572715	1.888087	0.000223
1957	1.9462e+02	-2.0999	-33.492078	0.000821	8.207090	2.780637	0.000329
1958	1.9472e+02	-2.0358	-33.201404	0.000730	7.295191	2.471678	0.000292
1959	1.9482e+02	-1.9989	-32.890545	0.000780	7.801802	2.643322	0.000312
1960	1.9492e+02	-1.9588	-32.632168	0.000648	6.484614	2.197047	0.000260
1961	1.9502e+02	-1.9251	-32.305160	0.000821	8.207090	2.780637	0.000329
1962	1.9512e+02	-1.8770	-31.986226	0.000800	8.004446	2.711980	0.000321
1963	1.9522e+02	-1.8449	-31.695553	0.000730	7.295191	2.471678	0.000292
1964	1.9532e+02	-1.8096	-31.441213	0.000638	6.383292	2.162718	0.000256
1965	1.9542e+02	-1.7598	-31.146502	0.000740	7.396513	2.506007	0.000296
1966	1.9552e+02	-1.7197	-30.811420	0.000841	8.409734	2.849295	0.000337
1967	1.9562e+02	-1.6860	-30.520746	0.000730	7.295191	2.471678	0.000292
1968	1.9572e+02	-1.6443	-30.193738	0.000821	8.207090	2.780637	0.000329
1969	1.9582e+02	-1.6026	-29.882879	0.000780	7.801802	2.643322	0.000312
1970	1.9592e+02	-1.5673	-29.596242	0.000719	7.193869	2.437349	0.000288
1971	1.9601e+02	-1.5224	-29.269234	0.000821	8.207090	2.780637	0.000329
1972	1.9611e+02	-1.4791	-28.974523	0.000740	7.396513	2.506007	0.000296
1973	1.9621e+02	-1.4390	-28.691924	0.000709	7.092547	2.403020	0.000284
1974	1.9631e+02	-1.4021	-28.360879	0.000831	8.308412	2.814966	0.000333
1975	1.9641e+02	-1.3620	-28.033871	0.000821	8.207090	2.780637	0.000329
1976	1.9651e+02	-1.3315	-27.755308	0.000699	6.991225	2.368691	0.000280
1977	1.9661e+02	-1.2914	-27.448486	0.000770	7.700480	2.608993	0.000308
1978	1.9671e+02	-1.2497	-27.117441	0.000831	8.308412	2.814966	0.000333
1979	1.9681e+02	-1.2096	-26.798507	0.000800	8.004446	2.711980	0.000321
1980	1.9691e+02	-1.1583	-26.471499	0.000821	8.207090	2.780637	0.000329
1981	1.9701e+02	-1.1214	-26.160640	0.000780	7.801802	2.643322	0.000312
1982	1.9711e+02	-1.0780	-25.853817	0.000770	7.700480	2.608993	0.000308
1983	1.9721e+02	-1.0524	-25.510661	0.000861	8.612378	2.917953	0.000345
1984	1.9731e+02	-1.0059	-25.199801	0.000780	7.801802	2.643322	0.000312
1985	1.9741e+02	-0.9674	-24.868756	0.000831	8.308412	2.814966	0.000333
1986	1.9751e+02	-0.9289	-24.537711	0.000831	8.308412	2.814966	0.000333
1987	1.9761e+02	-0.8903	-24.222814	0.000790	7.903124	2.677651	0.000316
1988	1.9771e+02	-0.8470	-23.936178	0.000719	7.193869	2.437349	0.000288
1989	1.9781e+02	-0.8005	-23.613207	0.000811	8.105768	2.746309	0.000325
1990	1.9791e+02	-0.7700	-23.282162	0.000831	8.308412	2.814966	0.000333
1991	1.9800e+02	-0.7267	-22.926894	0.000892	8.916345	3.020939	0.000357
1992	1.9810e+02	-0.6930	-22.640257	0.000719	7.193869	2.437349	0.000288
1993	1.9820e+02	-0.6433	-22.268841	0.000932	9.321633	3.158255	0.000373
1994	1.9830e+02	-0.6048	-21.966056	0.000760	7.599157	2.574664	0.000304
1995	1.9840e+02	-0.5615	-21.639048	0.000821	8.207090	2.780637	0.000329
1996	1.9850e+02	-0.5310	-21.299928	0.000851	8.511056	2.883624	0.000341
1997	1.9860e+02	-0.4861	-21.013292	0.000719	7.193869	2.437349	0.000288
1998	1.9870e+02	-0.4460	-20.694358	0.000800	8.004446	2.711980	0.000321
1999	1.9880e+02	-0.3978	-20.371387	0.000811	8.105768	2.746309	0.000325
2000	1.9890e+02	-0.3722	-20.004008	0.000922	9.220311	3.123926	0.000369
2001	1.9900e+02	-0.3289	-19.668925	0.000841	8.409734	2.849295	0.000337
2002	1.9910e+02	-0.2888	-19.362103	0.000770	7.700480	2.608993	0.000308
2003	1.9920e+02	-0.2454	-19.018946	0.000861	8.612378	2.917953	0.000345
2004	1.9930e+02	-0.2037	-18.704050	0.000790	7.903124	2.677651	0.000316
2005	1.9940e+02	-0.1700	-18.364930	0.000851	8.511056	2.883624	0.000341
2006	1.9950e+02	-0.1348	-18.029848	0.000841	8.409734	2.849295	0.000337
2007	1.9960e+02	-0.0882	-17.682655	0.000871	8.713701	2.952282	0.000349
2008	1.9970e+02	-0.0529	-17.371795	0.000780	7.801802	2.643322	0.000312
2009	1.9980e+02	-0.0112	-17.016527	0.000780	7.801802	2.643322	0.000357

Center data before PMax,+/-Pr and +/-Vc Calc.

PMax (uC/cm2):	1.23e+02
Pr (uC/cm2):	1.17e+01
-Pr (uC/cm2):	-1.70e+01
PLoss (uC/cm2):	-8.86e+00
Vc:	1.07e+00
-Vc:	-1.44e+00
C (Max-Eff) (nF):	6.15e-01
K (Eff):	2.08e+03
Vert. (+/-Pr) Shift (uC/cm2):	-2.64e+00
Horiz. Shift (+/-Vc):	-1.86e-01
Offset (uC/cm2):	8.16e+00

A (Loop Area - uC/cm2·Volts):	9.00e-02



Hysteresis Version: 5.48.1 - Radiant Technologies, Inc., 1999 - 9/12/24

