»»»»»»»»»»»»»»»»»»»»»»»»»»»»»»»»»»»» Hysteresis ««««««««««««««««««««««««««««««««««««
»»»  Executed Version:	5.48.1
»»»  Vision Version:	5.48.4 (R)
»»»  Vision Compiled:	9/18/24
»»»  Driver Version:	5.47.0
»»»  Windows Version:	Windows 8 or 8.1
»»»  Processor Information:	x86 (AMD or Intel) - 32 Processors
»»»  Tester Name:	PMF21124-494 (100V)
»»»  Tester S/N:	PMF21124-494
»»»  Internal Amp Type:	100V RevK 270k
»»»  Internal Amp S/N:	iAB2-596/K     
»»»  Execution Count:	1
»»»»»»»»»»»»»»»»»»»»»»»»»»»»»»»»»»»»»»»»»»««««««««««««««««««««««««««««««««««««««««««

Stored:	6/5/2025 - 11:18:15
Configured:	06/05/25 10:43:40 AM
Executed:	06/05/25 11:17:36 AM

»»»»»»»»»»»»»»»»»»»»»»»»»»»»»»»»»»» Sample Info ««««««««««««««««««««««««««««««««««««
Sample Name:	
Lot Name:	
Wafer Name:	
Die Row/Column:	0/0
Capacitor Number:	0
Sample Area (cm2):	1.00e-04
Sample Thickness (microns):	3.00e-01

Amplifier:	Internal

»»»»»»»»»»»»»»»»»»»»»»»»»»»»»»»»»»» Tester Info «««««««««««««««««««««««««««««««««««
Tester Name:	PMF21124-494 (100V)
Tester Serial Number:	PMF21124-494
Return Signal Amp. Level:	0.19 [Index: 3]

»»»»»»»»»»»»»»»»»»»»»»»»»»»»»»»» Hysteresis Info ««««««««««««««««««««««««««««««««««
Task Name:	Hyst-187
Volts:	20.00
Field:	666.67 (kV/cm)
DCBias:	0.00
DCField:	0.00 (kV/cm)
Hysteresis Period (ms):	2.00e+02
Preset:	Enabled
Preset Delay (ms):	1.00e+03
Profile:	Standard Bipolar

»»»»»»»»»»»»»»»»»»»»»»»»»»»»»»»»»»»»»» Data «««««««««««««««««««««««««««««««««««««««
Points:	2009

Valid Data

Point	Time (ms)	Drive Voltage	Measured Polarization (uC/cm2)	Capacitance (uF)	Normalized Capacitance (uF/cm2)	Dielectric Constant	Instantaneous Current (mA)
   1	0.0000e+00	-0.0225	-7.719004	0.000496	4.963589	1.681709	0.000199
   2	9.9500e-02	0.0209	-7.521184	0.000496	4.963589	1.681709	0.000199
   3	1.9900e-01	0.0690	-7.206287	0.000790	7.901223	2.677007	0.000316
   4	2.9850e-01	0.1059	-6.887354	0.000800	8.002520	2.711327	0.000321
   5	3.9800e-01	0.1524	-6.584568	0.000760	7.597329	2.574045	0.000304
   6	4.9750e-01	0.1813	-6.253523	0.000831	8.306414	2.814289	0.000333
   7	5.9700e-01	0.2278	-5.934590	0.000800	8.002520	2.711327	0.000321
   8	6.9650e-01	0.2631	-5.607582	0.000821	8.205116	2.779968	0.000329
   9	7.9600e-01	0.3000	-5.268462	0.000851	8.509009	2.882930	0.000341
  10	8.9550e-01	0.3385	-4.977788	0.000729	7.293436	2.471083	0.000292
  11	9.9500e-01	0.3866	-4.602335	0.000942	9.420688	3.191816	0.000377
  12	1.0945e+00	0.4203	-4.287438	0.000790	7.901223	2.677007	0.000316
  13	1.1940e+00	0.4652	-3.952356	0.000841	8.407711	2.848610	0.000337
  14	1.2935e+00	0.4989	-3.572865	0.000952	9.521986	3.226136	0.000381
  15	1.3930e+00	0.5406	-3.253931	0.000800	8.002520	2.711327	0.000321
  16	1.4925e+00	0.5775	-2.934998	0.000800	8.002520	2.711327	0.000321
  17	1.5920e+00	0.6080	-2.583767	0.000881	8.812902	2.985892	0.000353
  18	1.6915e+00	0.6593	-2.252722	0.000831	8.306414	2.814289	0.000333
  19	1.7910e+00	0.6946	-1.941862	0.000780	7.799925	2.642686	0.000312
  20	1.8905e+00	0.7412	-1.570446	0.000932	9.319391	3.157495	0.000373
  21	1.9900e+00	0.7716	-1.235364	0.000841	8.407711	2.848610	0.000337
  22	2.0895e+00	0.8182	-0.859910	0.000942	9.420688	3.191816	0.000377
  23	2.1890e+00	0.8502	-0.528865	0.000831	8.306414	2.814289	0.000333
  24	2.2885e+00	0.8952	-0.161485	0.000922	9.218093	3.123174	0.000369
  25	2.3880e+00	0.9353	0.165523	0.000821	8.205116	2.779968	0.000329
  26	2.4875e+00	0.9786	0.484456	0.000800	8.002520	2.711327	0.000321
  27	2.5870e+00	1.0171	0.851836	0.000922	9.218093	3.123174	0.000369
  28	2.6865e+00	1.0492	1.186918	0.000841	8.407711	2.848610	0.000337
  29	2.7860e+00	1.1021	1.546223	0.000902	9.015498	3.054533	0.000361
  30	2.8855e+00	1.1454	1.917639	0.000932	9.319391	3.157495	0.000373
  31	2.9850e+00	1.1807	2.264833	0.000871	8.711604	2.951571	0.000349
  32	3.0845e+00	1.2176	2.628175	0.000912	9.116795	3.088854	0.000365
  33	3.1840e+00	1.2609	2.995555	0.000922	9.218093	3.123174	0.000369
  34	3.2835e+00	1.2978	3.342748	0.000871	8.711604	2.951571	0.000349
  35	3.3830e+00	1.3363	3.657645	0.000790	7.901223	2.677007	0.000316
  36	3.4825e+00	1.3845	4.020987	0.000912	9.116795	3.088854	0.000365
  37	3.5820e+00	1.4165	4.372218	0.000881	8.812902	2.985892	0.000353
  38	3.6815e+00	1.4566	4.679040	0.000770	7.698627	2.608365	0.000308
  39	3.7810e+00	1.5016	5.062568	0.000962	9.623284	3.260457	0.000385
  40	3.8805e+00	1.5385	5.409762	0.000871	8.711604	2.951571	0.000349
  41	3.9800e+00	1.5866	5.809438	0.001003	10.028475	3.397739	0.000402
  42	4.0795e+00	1.6155	6.156632	0.000871	8.711604	2.951571	0.000349
  43	4.1790e+00	1.6556	6.487677	0.000831	8.306414	2.814289	0.000333
  44	4.2785e+00	1.6941	6.887354	0.001003	10.028475	3.397739	0.000402
  45	4.3780e+00	1.7390	7.254733	0.000922	9.218093	3.123174	0.000369
  46	4.4775e+00	1.7663	7.561555	0.000770	7.698627	2.608365	0.000308
  47	4.5770e+00	1.8144	7.912786	0.000881	8.812902	2.985892	0.000353
  48	4.6765e+00	1.8561	8.296314	0.000962	9.623284	3.260457	0.000385
  49	4.7760e+00	1.8882	8.643508	0.000871	8.711604	2.951571	0.000349
  50	4.8755e+00	1.9315	8.974553	0.000831	8.306414	2.814289	0.000333
  51	4.9750e+00	1.9732	9.354044	0.000952	9.521986	3.226136	0.000381
  52	5.0745e+00	2.0278	9.705274	0.000881	8.812902	2.985892	0.000353
  53	5.1740e+00	2.0566	10.096876	0.000983	9.825879	3.329098	0.000394
  54	5.2735e+00	2.0983	10.456182	0.000902	9.015498	3.054533	0.000361
  55	5.3730e+00	2.1433	10.783190	0.000821	8.205116	2.779968	0.000329
  56	5.4725e+00	2.1834	11.146532	0.000912	9.116795	3.088854	0.000365
  57	5.5720e+00	2.2170	11.501800	0.000891	8.914200	3.020213	0.000357
  58	5.6715e+00	2.2523	11.893402	0.000983	9.825879	3.329098	0.000394
  59	5.7710e+00	2.2908	12.248670	0.000891	8.914200	3.020213	0.000357
  60	5.8705e+00	2.3406	12.595864	0.000871	8.711604	2.951571	0.000349
  61	5.9700e+00	2.3662	12.951131	0.000891	8.914200	3.020213	0.000357
  62	6.0695e+00	2.4192	13.302362	0.000881	8.812902	2.985892	0.000353
  63	6.1690e+00	2.4449	13.657630	0.000891	8.914200	3.020213	0.000357
  64	6.2685e+00	2.5042	14.041158	0.000962	9.623284	3.260457	0.000385
  65	6.3680e+00	2.5427	14.384315	0.000861	8.610307	2.917251	0.000345
  66	6.4675e+00	2.5732	14.751694	0.000922	9.218093	3.123174	0.000369
  67	6.5670e+00	2.6181	15.050442	0.000750	7.496032	2.539724	0.000300
  68	6.6665e+00	2.6518	15.401673	0.000881	8.812902	2.985892	0.000353
  69	6.7660e+00	2.6855	15.801349	0.001003	10.028475	3.397739	0.000402
  70	6.8655e+00	2.7288	16.136432	0.000841	8.407711	2.848610	0.000337
  71	6.9650e+00	2.7769	16.499774	0.000912	9.116795	3.088854	0.000365
  72	7.0645e+00	2.8138	16.883302	0.000962	9.623284	3.260457	0.000385
  73	7.1640e+00	2.8475	17.210310	0.000821	8.205116	2.779968	0.000329
  74	7.2635e+00	2.8860	17.573652	0.000912	9.116795	3.088854	0.000365
  75	7.3630e+00	2.9293	17.916808	0.000861	8.610307	2.917251	0.000345
  76	7.4625e+00	2.9678	18.280151	0.000912	9.116795	3.088854	0.000365
  77	7.5620e+00	3.0063	18.651567	0.000932	9.319391	3.157495	0.000373
  78	7.6615e+00	3.0593	18.974538	0.000810	8.103818	2.745648	0.000325
  79	7.7610e+00	3.0914	19.281360	0.000770	7.698627	2.608365	0.000308
  80	7.8605e+00	3.1315	19.672962	0.000983	9.825879	3.329098	0.000394
  81	7.9600e+00	3.1684	20.008045	0.000841	8.407711	2.848610	0.000337
  82	8.0595e+00	3.2149	20.367350	0.000902	9.015498	3.054533	0.000361
  83	8.1590e+00	3.2470	20.767026	0.001003	10.028475	3.397739	0.000402
  84	8.2585e+00	3.2903	21.077886	0.000780	7.799925	2.642686	0.000312
  85	8.3580e+00	3.3320	21.457376	0.000952	9.521986	3.226136	0.000381
  86	8.4575e+00	3.3833	21.784384	0.000821	8.205116	2.779968	0.000329
  87	8.5570e+00	3.4154	22.131578	0.000871	8.711604	2.951571	0.000349
  88	8.6565e+00	3.4491	22.478772	0.000871	8.711604	2.951571	0.000349
  89	8.7560e+00	3.4812	22.834040	0.000891	8.914200	3.020213	0.000357
  90	8.8555e+00	3.5341	23.152973	0.000800	8.002520	2.711327	0.000321
  91	8.9550e+00	3.5694	23.516316	0.000912	9.116795	3.088854	0.000365
  92	9.0545e+00	3.6095	23.887732	0.000932	9.319391	3.157495	0.000373
  93	9.1540e+00	3.6496	24.222814	0.000841	8.407711	2.848610	0.000337
  94	9.2535e+00	3.6913	24.545785	0.000810	8.103818	2.745648	0.000325
  95	9.3530e+00	3.7363	24.872793	0.000821	8.205116	2.779968	0.000329
  96	9.4525e+00	3.7667	25.228061	0.000891	8.914200	3.020213	0.000357
  97	9.5520e+00	3.8101	25.615626	0.000972	9.724582	3.294777	0.000390
  98	9.6515e+00	3.8470	25.930523	0.000790	7.901223	2.677007	0.000316
  99	9.7510e+00	3.8838	26.293865	0.000912	9.116795	3.088854	0.000365
 100	9.8505e+00	3.9320	26.628947	0.000841	8.407711	2.848610	0.000337
 101	9.9500e+00	3.9721	26.972104	0.000861	8.610307	2.917251	0.000345
 102	1.0050e+01	4.0074	27.278926	0.000770	7.698627	2.608365	0.000308
 103	1.0149e+01	4.0491	27.658417	0.000952	9.521986	3.226136	0.000381
 104	1.0248e+01	4.0812	27.965239	0.000770	7.698627	2.608365	0.000308
 105	1.0348e+01	4.1309	28.276099	0.000780	7.799925	2.642686	0.000312
 106	1.0447e+01	4.1710	28.651552	0.000942	9.420688	3.191816	0.000377
 107	1.0547e+01	4.2095	28.986635	0.000841	8.407711	2.848610	0.000337
 108	1.0646e+01	4.2528	29.317680	0.000831	8.306414	2.814289	0.000333
 109	1.0746e+01	4.2881	29.644688	0.000821	8.205116	2.779968	0.000329
 110	1.0845e+01	4.3314	30.024178	0.000952	9.521986	3.226136	0.000381
 111	1.0945e+01	4.3603	30.363298	0.000851	8.509009	2.882930	0.000341
 112	1.1044e+01	4.4084	30.706454	0.000861	8.610307	2.917251	0.000345
 113	1.1144e+01	4.4389	31.009240	0.000760	7.597329	2.574045	0.000304
 114	1.1243e+01	4.4870	31.360470	0.000881	8.812902	2.985892	0.000353
 115	1.1343e+01	4.5287	31.659218	0.000750	7.496032	2.539724	0.000300
 116	1.1443e+01	4.5689	32.002375	0.000861	8.610307	2.917251	0.000345
 117	1.1542e+01	4.6058	32.361680	0.000902	9.015498	3.054533	0.000361
 118	1.1642e+01	4.6491	32.668502	0.000770	7.698627	2.608365	0.000308
 119	1.1741e+01	4.6972	33.007622	0.000851	8.509009	2.882930	0.000341
 120	1.1841e+01	4.7229	33.342704	0.000841	8.407711	2.848610	0.000337
 121	1.1940e+01	4.7566	33.673749	0.000831	8.306414	2.814289	0.000333
 122	1.2040e+01	4.7983	34.004794	0.000831	8.306414	2.814289	0.000333
 123	1.2139e+01	4.8464	34.335839	0.000831	8.306414	2.814289	0.000333
 124	1.2239e+01	4.8801	34.646699	0.000780	7.799925	2.642686	0.000312
 125	1.2338e+01	4.9170	34.993893	0.000871	8.711604	2.951571	0.000349
 126	1.2438e+01	4.9651	35.320901	0.000821	8.205116	2.779968	0.000329
 127	1.2537e+01	4.9940	35.651946	0.000831	8.306414	2.814289	0.000333
 128	1.2636e+01	5.0469	36.003177	0.000881	8.812902	2.985892	0.000353
 129	1.2736e+01	5.0838	36.314036	0.000780	7.799925	2.642686	0.000312
 130	1.2835e+01	5.1335	36.616821	0.000760	7.597329	2.574045	0.000304
 131	1.2935e+01	5.1672	36.947866	0.000831	8.306414	2.814289	0.000333
 132	1.3034e+01	5.2057	37.291023	0.000861	8.610307	2.917251	0.000345
 133	1.3134e+01	5.2474	37.597845	0.000770	7.698627	2.608365	0.000308
 134	1.3233e+01	5.2843	37.892556	0.000739	7.394734	2.505404	0.000296
 135	1.3333e+01	5.3261	38.243787	0.000881	8.812902	2.985892	0.000353
 136	1.3432e+01	5.3710	38.599055	0.000891	8.914200	3.020213	0.000357
 137	1.3532e+01	5.4095	38.922026	0.000810	8.103818	2.745648	0.000325
 138	1.3632e+01	5.4400	39.192514	0.000679	6.786948	2.299480	0.000272
 139	1.3731e+01	5.4929	39.559893	0.000922	9.218093	3.123174	0.000369
 140	1.3831e+01	5.5170	39.830381	0.000679	6.786948	2.299480	0.000272
 141	1.3930e+01	5.5715	40.197761	0.000922	9.218093	3.123174	0.000369
 142	1.4030e+01	5.6052	40.484397	0.000719	7.192139	2.436762	0.000288
 143	1.4129e+01	5.6405	40.839665	0.000891	8.914200	3.020213	0.000357
 144	1.4229e+01	5.6854	41.114190	0.000689	6.888245	2.333801	0.000276
 145	1.4328e+01	5.7175	41.473495	0.000902	9.015498	3.054533	0.000361
 146	1.4428e+01	5.7672	41.784355	0.000780	7.799925	2.642686	0.000312
 147	1.4527e+01	5.8057	42.062917	0.000699	6.989543	2.368121	0.000280
 148	1.4627e+01	5.8426	42.426259	0.000912	9.116795	3.088854	0.000365
 149	1.4726e+01	5.8891	42.765379	0.000851	8.509009	2.882930	0.000341
 150	1.4825e+01	5.9228	43.064127	0.000750	7.496032	2.539724	0.000300
 151	1.4925e+01	5.9597	43.338652	0.000689	6.888245	2.333801	0.000276
 152	1.5024e+01	6.0062	43.689883	0.000881	8.812902	2.985892	0.000353
 153	1.5124e+01	6.0431	44.004780	0.000790	7.901223	2.677007	0.000316
 154	1.5223e+01	6.0800	44.327750	0.000810	8.103818	2.745648	0.000325
 155	1.5323e+01	6.1201	44.618424	0.000729	7.293436	2.471083	0.000292
 156	1.5422e+01	6.1603	44.949469	0.000831	8.306414	2.814289	0.000333
 157	1.5522e+01	6.2052	45.223995	0.000689	6.888245	2.333801	0.000276
 158	1.5621e+01	6.2421	45.551003	0.000821	8.205116	2.779968	0.000329
 159	1.5721e+01	6.2806	45.869936	0.000800	8.002520	2.711327	0.000321
 160	1.5820e+01	6.3191	46.196944	0.000821	8.205116	2.779968	0.000329
 161	1.5920e+01	6.3576	46.483581	0.000719	7.192139	2.436762	0.000288
 162	1.6020e+01	6.3945	46.818663	0.000841	8.407711	2.848610	0.000337
 163	1.6119e+01	6.4378	47.137597	0.000800	8.002520	2.711327	0.000321
 164	1.6218e+01	6.4763	47.412122	0.000689	6.888245	2.333801	0.000276
 165	1.6318e+01	6.5164	47.710870	0.000750	7.496032	2.539724	0.000300
 166	1.6418e+01	6.5581	48.037878	0.000821	8.205116	2.779968	0.000329
 167	1.6517e+01	6.5950	48.344700	0.000770	7.698627	2.608365	0.000308
 168	1.6616e+01	6.6367	48.655560	0.000780	7.799925	2.642686	0.000312
 169	1.6716e+01	6.6752	48.926048	0.000679	6.786948	2.299480	0.000272
 170	1.6816e+01	6.7217	49.249019	0.000810	8.103818	2.745648	0.000325
 171	1.6915e+01	6.7602	49.543730	0.000739	7.394734	2.505404	0.000296
 172	1.7015e+01	6.7955	49.866701	0.000810	8.103818	2.745648	0.000325
 173	1.7114e+01	6.8356	50.193709	0.000821	8.205116	2.779968	0.000329
 174	1.7213e+01	6.8773	50.480345	0.000719	7.192139	2.436762	0.000288
 175	1.7313e+01	6.9110	50.787168	0.000770	7.698627	2.608365	0.000308
 176	1.7413e+01	6.9592	51.057656	0.000679	6.786948	2.299480	0.000272
 177	1.7512e+01	7.0025	51.408886	0.000881	8.812902	2.985892	0.000353
 178	1.7611e+01	7.0362	51.683412	0.000689	6.888245	2.333801	0.000276
 179	1.7711e+01	7.0682	51.970048	0.000719	7.192139	2.436762	0.000288
 180	1.7811e+01	7.1100	52.288982	0.000800	8.002520	2.711327	0.000321
 181	1.7910e+01	7.1517	52.571582	0.000709	7.090841	2.402442	0.000284
 182	1.8009e+01	7.1918	52.918775	0.000871	8.711604	2.951571	0.000349
 183	1.8109e+01	7.2383	53.185226	0.000669	6.685650	2.265160	0.000268
 184	1.8209e+01	7.2784	53.496086	0.000780	7.799925	2.642686	0.000312
 185	1.8308e+01	7.3281	53.798871	0.000760	7.597329	2.574045	0.000304
 186	1.8407e+01	7.3490	54.073396	0.000689	6.888245	2.333801	0.000276
 187	1.8507e+01	7.4003	54.396367	0.000810	8.103818	2.745648	0.000325
 188	1.8607e+01	7.4340	54.687041	0.000729	7.293436	2.471083	0.000292
 189	1.8706e+01	7.4677	55.014049	0.000821	8.205116	2.779968	0.000329
 190	1.8805e+01	7.5110	55.292611	0.000699	6.989543	2.368121	0.000280
 191	1.8905e+01	7.5543	55.579248	0.000719	7.192139	2.436762	0.000288
 192	1.9005e+01	7.5912	55.873959	0.000739	7.394734	2.505404	0.000296
 193	1.9104e+01	7.6265	56.200967	0.000821	8.205116	2.779968	0.000329
 194	1.9203e+01	7.6827	56.491640	0.000729	7.293436	2.471083	0.000292
 195	1.9303e+01	7.7180	56.770203	0.000699	6.989543	2.368121	0.000280
 196	1.9402e+01	7.7549	57.072988	0.000760	7.597329	2.574045	0.000304
 197	1.9502e+01	7.7934	57.371736	0.000750	7.496032	2.539724	0.000300
 198	1.9602e+01	7.8351	57.646261	0.000689	6.888245	2.333801	0.000276
 199	1.9701e+01	7.8768	57.985381	0.000851	8.509009	2.882930	0.000341
 200	1.9800e+01	7.9089	58.227609	0.000608	6.077864	2.059236	0.000243
 201	1.9900e+01	7.9634	58.514245	0.000719	7.192139	2.436762	0.000288
 202	2.0000e+01	7.9827	58.817031	0.000760	7.597329	2.574045	0.000304
 203	2.0099e+01	8.0340	59.140001	0.000810	8.103818	2.745648	0.000325
 204	2.0198e+01	8.0645	59.414527	0.000689	6.888245	2.333801	0.000276
 205	2.0298e+01	8.1094	59.729423	0.000790	7.901223	2.677007	0.000316
 206	2.0398e+01	8.1495	60.003948	0.000689	6.888245	2.333801	0.000276
 207	2.0497e+01	8.1928	60.302697	0.000750	7.496032	2.539724	0.000300
 208	2.0596e+01	8.2297	60.577222	0.000689	6.888245	2.333801	0.000276
 209	2.0696e+01	8.2746	60.855784	0.000699	6.989543	2.368121	0.000280
 210	2.0796e+01	8.3099	61.166644	0.000780	7.799925	2.642686	0.000312
 211	2.0895e+01	8.3516	61.465392	0.000750	7.496032	2.539724	0.000300
 212	2.0994e+01	8.3998	61.743954	0.000699	6.989543	2.368121	0.000280
 213	2.1094e+01	8.4367	62.030591	0.000719	7.192139	2.436762	0.000288
 214	2.1194e+01	8.4800	62.309153	0.000699	6.989543	2.368121	0.000280
 215	2.1293e+01	8.5137	62.611938	0.000760	7.597329	2.574045	0.000304
 216	2.1392e+01	8.5522	62.910686	0.000750	7.496032	2.539724	0.000300
 217	2.1492e+01	8.5859	63.173100	0.000658	6.584352	2.230839	0.000264
 218	2.1591e+01	8.6292	63.463774	0.000729	7.293436	2.471083	0.000292
 219	2.1691e+01	8.6677	63.790782	0.000821	8.205116	2.779968	0.000329
 220	2.1791e+01	8.7206	64.073381	0.000709	7.090841	2.402442	0.000284
 221	2.1890e+01	8.7591	64.339832	0.000669	6.685650	2.265160	0.000268
 222	2.1989e+01	8.7848	64.642617	0.000760	7.597329	2.574045	0.000304
 223	2.2089e+01	8.8345	64.909068	0.000669	6.685650	2.265160	0.000268
 224	2.2189e+01	8.8714	65.215891	0.000770	7.698627	2.608365	0.000308
 225	2.2288e+01	8.9003	65.486379	0.000679	6.786948	2.299480	0.000272
 226	2.2387e+01	8.9484	65.781090	0.000739	7.394734	2.505404	0.000296
 227	2.2487e+01	8.9869	66.079838	0.000750	7.496032	2.539724	0.000300
 228	2.2587e+01	9.0302	66.318029	0.000598	5.976566	2.024915	0.000239
 229	2.2686e+01	9.0655	66.632925	0.000790	7.901223	2.677007	0.000316
 230	2.2785e+01	9.1040	66.911488	0.000699	6.989543	2.368121	0.000280
 231	2.2885e+01	9.1489	67.169864	0.000648	6.483054	2.196518	0.000260
 232	2.2985e+01	9.1858	67.476687	0.000770	7.698627	2.608365	0.000308
 233	2.3084e+01	9.2259	67.710841	0.000588	5.875268	1.990595	0.000235
 234	2.3183e+01	9.2725	68.021700	0.000780	7.799925	2.642686	0.000312
 235	2.3283e+01	9.3046	68.292188	0.000679	6.786948	2.299480	0.000272
 236	2.3383e+01	9.3591	68.570751	0.000699	6.989543	2.368121	0.000280
 237	2.3482e+01	9.3848	68.857387	0.000719	7.192139	2.436762	0.000288
 238	2.3581e+01	9.4361	69.139987	0.000709	7.090841	2.402442	0.000284
 239	2.3681e+01	9.4778	69.426623	0.000719	7.192139	2.436762	0.000288
 240	2.3780e+01	9.5051	69.725371	0.000750	7.496032	2.539724	0.000300
 241	2.3880e+01	9.5516	69.967599	0.000608	6.077864	2.059236	0.000243
 242	2.3980e+01	9.5901	70.258273	0.000729	7.293436	2.471083	0.000292
 243	2.4079e+01	9.6302	70.561058	0.000760	7.597329	2.574045	0.000304
 244	2.4178e+01	9.6623	70.807324	0.000618	6.179161	2.093557	0.000248
 245	2.4278e+01	9.7040	71.102035	0.000739	7.394734	2.505404	0.000296
 246	2.4378e+01	9.7489	71.364448	0.000658	6.584352	2.230839	0.000264
 247	2.4477e+01	9.7906	71.671271	0.000770	7.698627	2.608365	0.000308
 248	2.4576e+01	9.8307	71.905425	0.000588	5.875268	1.990595	0.000235
 249	2.4676e+01	9.8757	72.224358	0.000800	8.002520	2.711327	0.000321
 250	2.4776e+01	9.9174	72.486772	0.000658	6.584352	2.230839	0.000264
 251	2.4875e+01	9.9543	72.769372	0.000709	7.090841	2.402442	0.000284
 252	2.4974e+01	9.9847	73.047934	0.000699	6.989543	2.368121	0.000280
 253	2.5074e+01	10.0232	73.286125	0.000598	5.976566	2.024915	0.000239
 254	2.5174e+01	10.0617	73.568725	0.000709	7.090841	2.402442	0.000284
 255	2.5273e+01	10.1131	73.891695	0.000810	8.103818	2.745648	0.000325
 256	2.5372e+01	10.1452	74.146035	0.000638	6.381757	2.162198	0.000256
 257	2.5472e+01	10.1837	74.404412	0.000648	6.483054	2.196518	0.000260
 258	2.5572e+01	10.2125	74.642603	0.000598	5.976566	2.024915	0.000239
 259	2.5671e+01	10.2623	74.961536	0.000800	8.002520	2.711327	0.000321
 260	2.5770e+01	10.3056	75.240099	0.000699	6.989543	2.368121	0.000280
 261	2.5870e+01	10.3441	75.458104	0.000547	5.470077	1.853312	0.000219
 262	2.5970e+01	10.3810	75.773001	0.000790	7.901223	2.677007	0.000316
 263	2.6069e+01	10.4243	76.051563	0.000699	6.989543	2.368121	0.000280
 264	2.6169e+01	10.4628	76.309940	0.000648	6.483054	2.196518	0.000260
 265	2.6268e+01	10.5029	76.588502	0.000699	6.989543	2.368121	0.000280
 266	2.6367e+01	10.5366	76.838805	0.000628	6.280459	2.127877	0.000252
 267	2.6467e+01	10.5767	77.105255	0.000669	6.685650	2.265160	0.000268
 268	2.6567e+01	10.6361	77.391892	0.000719	7.192139	2.436762	0.000288
 269	2.6666e+01	10.6714	77.638157	0.000618	6.179161	2.093557	0.000248
 270	2.6765e+01	10.7099	77.940943	0.000760	7.597329	2.574045	0.000304
 271	2.6865e+01	10.7339	78.199319	0.000648	6.483054	2.196518	0.000260
 272	2.6965e+01	10.7853	78.489993	0.000729	7.293436	2.471083	0.000292
 273	2.7064e+01	10.8206	78.744333	0.000638	6.381757	2.162198	0.000256
 274	2.7163e+01	10.8623	78.998672	0.000638	6.381757	2.162198	0.000256
 275	2.7263e+01	10.9056	79.269160	0.000679	6.786948	2.299480	0.000272
 276	2.7363e+01	10.9409	79.567908	0.000750	7.496032	2.539724	0.000300
 277	2.7462e+01	10.9874	79.777839	0.000527	5.267482	1.784671	0.000211
 278	2.7561e+01	11.0259	80.068513	0.000729	7.293436	2.471083	0.000292
 279	2.7661e+01	11.0612	80.322853	0.000638	6.381757	2.162198	0.000256
 280	2.7761e+01	11.1029	80.605452	0.000709	7.090841	2.402442	0.000284
 281	2.7860e+01	11.1430	80.839606	0.000588	5.875268	1.990595	0.000235
 282	2.7959e+01	11.1879	81.146428	0.000770	7.698627	2.608365	0.000308
 283	2.8059e+01	11.2168	81.360397	0.000537	5.368779	1.818992	0.000215
 284	2.8159e+01	11.2585	81.655107	0.000739	7.394734	2.505404	0.000296
 285	2.8258e+01	11.3082	81.965967	0.000780	7.799925	2.642686	0.000312
 286	2.8358e+01	11.3419	82.200121	0.000588	5.875268	1.990595	0.000235
 287	2.8457e+01	11.3884	82.470609	0.000679	6.786948	2.299480	0.000272
 288	2.8556e+01	11.4221	82.724948	0.000638	6.381757	2.162198	0.000256
 289	2.8656e+01	11.4590	82.955065	0.000577	5.773970	1.956274	0.000231
 290	2.8756e+01	11.5007	83.261887	0.000770	7.698627	2.608365	0.000308
 291	2.8855e+01	11.5392	83.524301	0.000658	6.584352	2.230839	0.000264
 292	2.8954e+01	11.5794	83.806901	0.000709	7.090841	2.402442	0.000284
 293	2.9054e+01	11.6195	84.008758	0.000506	5.064886	1.716030	0.000203
 294	2.9154e+01	11.6612	84.283283	0.000689	6.888245	2.333801	0.000276
 295	2.9253e+01	11.7109	84.606254	0.000810	8.103818	2.745648	0.000325
 296	2.9352e+01	11.7398	84.775813	0.000425	4.254504	1.441465	0.000170
 297	2.9452e+01	11.7783	85.042264	0.000669	6.685650	2.265160	0.000268
 298	2.9552e+01	11.8168	85.345050	0.000760	7.597329	2.574045	0.000304
 299	2.9651e+01	11.8601	85.595352	0.000628	6.280459	2.127877	0.000252
 300	2.9750e+01	11.9002	85.877951	0.000709	7.090841	2.402442	0.000284
 301	2.9850e+01	11.9371	86.128254	0.000628	6.280459	2.127877	0.000252
 302	2.9950e+01	11.9772	86.390668	0.000658	6.584352	2.230839	0.000264
 303	3.0049e+01	12.0141	86.649044	0.000648	6.483054	2.196518	0.000260
 304	3.0148e+01	12.0510	86.895310	0.000618	6.179161	2.093557	0.000248
 305	3.0248e+01	12.0959	87.149649	0.000638	6.381757	2.162198	0.000256
 306	3.0348e+01	12.1328	87.399952	0.000628	6.280459	2.127877	0.000252
 307	3.0447e+01	12.1761	87.666403	0.000669	6.685650	2.265160	0.000268
 308	3.0547e+01	12.2243	87.908631	0.000608	6.077864	2.059236	0.000243
 309	3.0646e+01	12.2531	88.175082	0.000669	6.685650	2.265160	0.000268
 310	3.0745e+01	12.2900	88.417310	0.000608	6.077864	2.059236	0.000243
 311	3.0845e+01	12.3317	88.683761	0.000669	6.685650	2.265160	0.000268
 312	3.0945e+01	12.3847	88.950212	0.000669	6.685650	2.265160	0.000268
 313	3.1044e+01	12.4232	89.156106	0.000517	5.166184	1.750351	0.000207
 314	3.1143e+01	12.4537	89.446779	0.000729	7.293436	2.471083	0.000292
 315	3.1243e+01	12.4938	89.717268	0.000679	6.786948	2.299480	0.000272
 316	3.1343e+01	12.5371	89.983718	0.000669	6.685650	2.265160	0.000268
 317	3.1442e+01	12.5788	90.246132	0.000658	6.584352	2.230839	0.000264
 318	3.1541e+01	12.6125	90.464138	0.000547	5.470077	1.853312	0.000219
 319	3.1641e+01	12.6526	90.726551	0.000658	6.584352	2.230839	0.000264
 320	3.1741e+01	12.6959	91.005114	0.000699	6.989543	2.368121	0.000280
 321	3.1840e+01	12.7312	91.231193	0.000567	5.672673	1.921954	0.000227
 322	3.1939e+01	12.7841	91.505719	0.000689	6.888245	2.333801	0.000276
 323	3.2039e+01	12.8210	91.731798	0.000567	5.672673	1.921954	0.000227
 324	3.2139e+01	12.8627	91.986138	0.000638	6.381757	2.162198	0.000256
 325	3.2238e+01	12.8948	92.248552	0.000658	6.584352	2.230839	0.000264
 326	3.2337e+01	12.9317	92.498854	0.000628	6.280459	2.127877	0.000252
 327	3.2437e+01	12.9718	92.716859	0.000547	5.470077	1.853312	0.000219
 328	3.2536e+01	13.0183	92.979273	0.000658	6.584352	2.230839	0.000264
 329	3.2636e+01	13.0456	93.221501	0.000608	6.077864	2.059236	0.000243
 330	3.2736e+01	13.0905	93.479878	0.000648	6.483054	2.196518	0.000260
 331	3.2835e+01	13.1339	93.726143	0.000618	6.179161	2.093557	0.000248
 332	3.2934e+01	13.1724	93.964334	0.000598	5.976566	2.024915	0.000239
 333	3.3034e+01	13.2060	94.255008	0.000729	7.293436	2.471083	0.000292
 334	3.3133e+01	13.2542	94.517422	0.000658	6.584352	2.230839	0.000264
 335	3.3233e+01	13.2943	94.751576	0.000588	5.875268	1.990595	0.000235
 336	3.3333e+01	13.3344	94.957470	0.000517	5.166184	1.750351	0.000207
 337	3.3432e+01	13.3649	95.227958	0.000679	6.786948	2.299480	0.000272
 338	3.3532e+01	13.4034	95.498446	0.000679	6.786948	2.299480	0.000272
 339	3.3631e+01	13.4579	95.724525	0.000567	5.672673	1.921954	0.000227
 340	3.3730e+01	13.4916	95.986939	0.000658	6.584352	2.230839	0.000264
 341	3.3830e+01	13.5301	96.241279	0.000638	6.381757	2.162198	0.000256
 342	3.3929e+01	13.5686	96.483507	0.000608	6.077864	2.059236	0.000243
 343	3.4029e+01	13.6103	96.749958	0.000669	6.685650	2.265160	0.000268
 344	3.4129e+01	13.6584	97.016409	0.000669	6.685650	2.265160	0.000268
 345	3.4228e+01	13.6761	97.185969	0.000425	4.254504	1.441465	0.000170
 346	3.4328e+01	13.7322	97.460494	0.000689	6.888245	2.333801	0.000276
 347	3.4427e+01	13.7675	97.694648	0.000588	5.875268	1.990595	0.000235
 348	3.4526e+01	13.8060	97.969173	0.000689	6.888245	2.333801	0.000276
 349	3.4626e+01	13.8445	98.215438	0.000618	6.179161	2.093557	0.000248
 350	3.4725e+01	13.8814	98.449592	0.000588	5.875268	1.990595	0.000235
 351	3.4825e+01	13.9296	98.728154	0.000699	6.989543	2.368121	0.000280
 352	3.4925e+01	13.9681	98.934048	0.000517	5.166184	1.750351	0.000207
 353	3.5024e+01	14.0210	99.168202	0.000588	5.875268	1.990595	0.000235
 354	3.5123e+01	14.0467	99.434653	0.000669	6.685650	2.265160	0.000268
 355	3.5223e+01	14.0900	99.693030	0.000648	6.483054	2.196518	0.000260
 356	3.5322e+01	14.1253	99.894887	0.000506	5.064886	1.716030	0.000203
 357	3.5422e+01	14.1606	100.173449	0.000699	6.989543	2.368121	0.000280
 358	3.5522e+01	14.2087	100.427789	0.000638	6.381757	2.162198	0.000256
 359	3.5621e+01	14.2456	100.633683	0.000517	5.166184	1.750351	0.000207
 360	3.5721e+01	14.2905	100.871874	0.000598	5.976566	2.024915	0.000239
 361	3.5820e+01	14.3258	101.154473	0.000709	7.090841	2.402442	0.000284
 362	3.5919e+01	14.3659	101.388627	0.000588	5.875268	1.990595	0.000235
 363	3.6019e+01	14.3980	101.614707	0.000567	5.672673	1.921954	0.000227
 364	3.6118e+01	14.4429	101.873083	0.000648	6.483054	2.196518	0.000260
 365	3.6218e+01	14.4894	102.127423	0.000638	6.381757	2.162198	0.000256
 366	3.6318e+01	14.5327	102.369651	0.000608	6.077864	2.059236	0.000243
 367	3.6417e+01	14.5648	102.595731	0.000567	5.672673	1.921954	0.000227
 368	3.6517e+01	14.6146	102.870256	0.000689	6.888245	2.333801	0.000276
 369	3.6616e+01	14.6386	103.084224	0.000537	5.368779	1.818992	0.000215
 370	3.6715e+01	14.6819	103.326452	0.000608	6.077864	2.059236	0.000243
 371	3.6815e+01	14.7156	103.560606	0.000588	5.875268	1.990595	0.000235
 372	3.6914e+01	14.7670	103.827057	0.000669	6.685650	2.265160	0.000268
 373	3.7014e+01	14.8119	104.065248	0.000598	5.976566	2.024915	0.000239
 374	3.7114e+01	14.8520	104.283253	0.000547	5.470077	1.853312	0.000219
 375	3.7213e+01	14.8873	104.545667	0.000658	6.584352	2.230839	0.000264
 376	3.7313e+01	14.9210	104.771747	0.000567	5.672673	1.921954	0.000227
 377	3.7412e+01	14.9547	104.997826	0.000567	5.672673	1.921954	0.000227
 378	3.7511e+01	15.0108	105.292537	0.000739	7.394734	2.505404	0.000296
 379	3.7611e+01	15.0525	105.490357	0.000496	4.963589	1.681709	0.000199
 380	3.7711e+01	15.0878	105.716436	0.000567	5.672673	1.921954	0.000227
 381	3.7810e+01	15.1199	105.982887	0.000669	6.685650	2.265160	0.000268
 382	3.7910e+01	15.1616	106.204930	0.000557	5.571375	1.887633	0.000223
 383	3.8009e+01	15.2001	106.479455	0.000689	6.888245	2.333801	0.000276
 384	3.8108e+01	15.2450	106.713609	0.000588	5.875268	1.990595	0.000235
 385	3.8208e+01	15.2883	106.907391	0.000486	4.862291	1.647389	0.000195
 386	3.8307e+01	15.3268	107.157694	0.000628	6.280459	2.127877	0.000252
 387	3.8407e+01	15.3541	107.440293	0.000709	7.090841	2.402442	0.000284
 388	3.8507e+01	15.4054	107.642150	0.000506	5.064886	1.716030	0.000203
 389	3.8606e+01	15.4488	107.892453	0.000628	6.280459	2.127877	0.000252
 390	3.8706e+01	15.4841	108.094309	0.000506	5.064886	1.716030	0.000203
 391	3.8805e+01	15.5226	108.393057	0.000750	7.496032	2.539724	0.000300
 392	3.8904e+01	15.5675	108.623174	0.000577	5.773970	1.956274	0.000231
 393	3.9004e+01	15.6012	108.913848	0.000729	7.293436	2.471083	0.000292
 394	3.9103e+01	15.6477	109.091482	0.000446	4.457100	1.510106	0.000179
 395	3.9203e+01	15.6814	109.309487	0.000547	5.470077	1.853312	0.000219
 396	3.9303e+01	15.7183	109.584012	0.000689	6.888245	2.333801	0.000276
 397	3.9402e+01	15.7664	109.806055	0.000557	5.571375	1.887633	0.000223
 398	3.9502e+01	15.8017	110.052320	0.000618	6.179161	2.093557	0.000248
 399	3.9601e+01	15.8466	110.246103	0.000486	4.862291	1.647389	0.000195
 400	3.9700e+01	15.8819	110.516591	0.000679	6.786948	2.299480	0.000272
 401	3.9800e+01	15.9236	110.754782	0.000598	5.976566	2.024915	0.000239
 402	3.9900e+01	15.9653	110.976824	0.000557	5.571375	1.887633	0.000223
 403	3.9999e+01	16.0006	111.239238	0.000658	6.584352	2.230839	0.000264
 404	4.0099e+01	16.0391	111.453206	0.000537	5.368779	1.818992	0.000215
 405	4.0198e+01	16.0776	111.691397	0.000598	5.976566	2.024915	0.000239
 406	4.0297e+01	16.1290	111.925551	0.000588	5.875268	1.990595	0.000235
 407	4.0397e+01	16.1723	112.175854	0.000628	6.280459	2.127877	0.000252
 408	4.0496e+01	16.2028	112.389822	0.000537	5.368779	1.818992	0.000215
 409	4.0596e+01	16.2429	112.644161	0.000638	6.381757	2.162198	0.000256
 410	4.0696e+01	16.2765	112.914649	0.000679	6.786948	2.299480	0.000272
 411	4.0795e+01	16.3215	113.096321	0.000456	4.558398	1.544427	0.000183
 412	4.0895e+01	16.3664	113.338549	0.000608	6.077864	2.059236	0.000243
 413	4.0994e+01	16.4017	113.592888	0.000638	6.381757	2.162198	0.000256
 414	4.1093e+01	16.4418	113.847228	0.000638	6.381757	2.162198	0.000256
 415	4.1193e+01	16.4787	114.077345	0.000577	5.773970	1.956274	0.000231
 416	4.1292e+01	16.5204	114.311498	0.000588	5.875268	1.990595	0.000235
 417	4.1392e+01	16.5509	114.509318	0.000496	4.963589	1.681709	0.000199
 418	4.1492e+01	16.6070	114.763658	0.000638	6.381757	2.162198	0.000256
 419	4.1591e+01	16.6391	115.013960	0.000628	6.280459	2.127877	0.000252
 420	4.1691e+01	16.6904	115.244077	0.000577	5.773970	1.956274	0.000231
 421	4.1790e+01	16.7177	115.506491	0.000658	6.584352	2.230839	0.000264
 422	4.1889e+01	16.7514	115.696236	0.000476	4.760993	1.613068	0.000191
 423	4.1989e+01	16.8075	115.942501	0.000618	6.179161	2.093557	0.000248
 424	4.2089e+01	16.8316	116.204915	0.000658	6.584352	2.230839	0.000264
 425	4.2188e+01	16.8749	116.422920	0.000547	5.470077	1.853312	0.000219
 426	4.2288e+01	16.9198	116.673223	0.000628	6.280459	2.127877	0.000252
 427	4.2387e+01	16.9535	116.903340	0.000577	5.773970	1.956274	0.000231
 428	4.2486e+01	16.9952	117.125382	0.000557	5.571375	1.887633	0.000223
 429	4.2586e+01	17.0434	117.371647	0.000618	6.179161	2.093557	0.000248
 430	4.2685e+01	17.0755	117.569467	0.000496	4.963589	1.681709	0.000199
 431	4.2785e+01	17.1188	117.856104	0.000719	7.192139	2.436762	0.000288
 432	4.2885e+01	17.1573	118.057960	0.000506	5.064886	1.716030	0.000203
 433	4.2984e+01	17.1861	118.292114	0.000588	5.875268	1.990595	0.000235
 434	4.3084e+01	17.2359	118.530305	0.000598	5.976566	2.024915	0.000239
 435	4.3183e+01	17.2824	118.752348	0.000557	5.571375	1.887633	0.000223
 436	4.3282e+01	17.3241	119.047059	0.000739	7.394734	2.505404	0.000296
 437	4.3382e+01	17.3498	119.236804	0.000476	4.760993	1.613068	0.000191
 438	4.3481e+01	17.3979	119.454809	0.000547	5.470077	1.853312	0.000219
 439	4.3581e+01	17.4316	119.709149	0.000638	6.381757	2.162198	0.000256
 440	4.3681e+01	17.4781	119.955414	0.000618	6.179161	2.093557	0.000248
 441	4.3780e+01	17.5070	120.165345	0.000527	5.267482	1.784671	0.000211
 442	4.3880e+01	17.5631	120.411611	0.000618	6.179161	2.093557	0.000248
 443	4.3979e+01	17.5968	120.665950	0.000638	6.381757	2.162198	0.000256
 444	4.4078e+01	17.6417	120.892030	0.000567	5.672673	1.921954	0.000227
 445	4.4178e+01	17.6819	121.118109	0.000567	5.672673	1.921954	0.000227
 446	4.4278e+01	17.7188	121.392635	0.000689	6.888245	2.333801	0.000276
 447	4.4377e+01	17.7476	121.602566	0.000527	5.267482	1.784671	0.000211
 448	4.4477e+01	17.7958	121.832682	0.000577	5.773970	1.956274	0.000231
 449	4.4576e+01	17.8359	122.087022	0.000638	6.381757	2.162198	0.000256
 450	4.4675e+01	17.8695	122.292916	0.000517	5.166184	1.750351	0.000207
 451	4.4775e+01	17.9161	122.543218	0.000628	6.280459	2.127877	0.000252
 452	4.4874e+01	17.9594	122.773335	0.000577	5.773970	1.956274	0.000231
 453	4.4974e+01	17.9979	122.995377	0.000557	5.571375	1.887633	0.000223
 454	4.5074e+01	18.0380	123.241643	0.000618	6.179161	2.093557	0.000248
 455	4.5173e+01	18.0605	123.479834	0.000598	5.976566	2.024915	0.000239
 456	4.5273e+01	18.1182	123.726099	0.000618	6.179161	2.093557	0.000248
 457	4.5372e+01	18.1535	123.968327	0.000608	6.077864	2.059236	0.000243
 458	4.5471e+01	18.1904	124.174221	0.000517	5.166184	1.750351	0.000207
 459	4.5571e+01	18.2353	124.428561	0.000638	6.381757	2.162198	0.000256
 460	4.5670e+01	18.2722	124.610232	0.000456	4.558398	1.544427	0.000183
 461	4.5770e+01	18.3139	124.860534	0.000628	6.280459	2.127877	0.000252
 462	4.5870e+01	18.3492	125.102762	0.000608	6.077864	2.059236	0.000243
 463	4.5969e+01	18.3909	125.328842	0.000567	5.672673	1.921954	0.000227
 464	4.6069e+01	18.4278	125.571070	0.000608	6.077864	2.059236	0.000243
 465	4.6168e+01	18.4743	125.825410	0.000638	6.381757	2.162198	0.000256
 466	4.6267e+01	18.5064	126.047452	0.000557	5.571375	1.887633	0.000223
 467	4.6367e+01	18.5562	126.277569	0.000577	5.773970	1.956274	0.000231
 468	4.6467e+01	18.5979	126.560168	0.000709	7.090841	2.402442	0.000284
 469	4.6566e+01	18.6316	126.770099	0.000527	5.267482	1.784671	0.000211
 470	4.6666e+01	18.6701	126.975993	0.000517	5.166184	1.750351	0.000207
 471	4.6765e+01	18.7086	127.230333	0.000638	6.381757	2.162198	0.000256
 472	4.6864e+01	18.7567	127.424115	0.000486	4.862291	1.647389	0.000195
 473	4.6964e+01	18.7856	127.698641	0.000689	6.888245	2.333801	0.000276
 474	4.7063e+01	18.8273	127.948943	0.000628	6.280459	2.127877	0.000252
 475	4.7163e+01	18.8802	128.199245	0.000628	6.280459	2.127877	0.000252
 476	4.7263e+01	18.9155	128.417251	0.000547	5.470077	1.853312	0.000219
 477	4.7362e+01	18.9492	128.606996	0.000476	4.760993	1.613068	0.000191
 478	4.7462e+01	18.9909	128.849224	0.000608	6.077864	2.059236	0.000243
 479	4.7561e+01	19.0358	129.091452	0.000608	6.077864	2.059236	0.000243
 480	4.7660e+01	19.0727	129.349829	0.000648	6.483054	2.196518	0.000260
 481	4.7760e+01	19.1096	129.592057	0.000608	6.077864	2.059236	0.000243
 482	4.7859e+01	19.1417	129.830248	0.000598	5.976566	2.024915	0.000239
 483	4.7959e+01	19.1866	130.056328	0.000567	5.672673	1.921954	0.000227
 484	4.8059e+01	19.2299	130.330853	0.000689	6.888245	2.333801	0.000276
 485	4.8158e+01	19.2636	130.516561	0.000466	4.659695	1.578748	0.000187
 486	4.8258e+01	19.3198	130.791087	0.000689	6.888245	2.333801	0.000276
 487	4.8357e+01	19.3454	130.992943	0.000506	5.064886	1.716030	0.000203
 488	4.8456e+01	19.3791	131.214986	0.000557	5.571375	1.887633	0.000223
 489	4.8556e+01	19.4305	131.449140	0.000588	5.875268	1.990595	0.000235
 490	4.8656e+01	19.4593	131.683294	0.000588	5.875268	1.990595	0.000235
 491	4.8755e+01	19.5027	131.921485	0.000598	5.976566	2.024915	0.000239
 492	4.8855e+01	19.5460	132.175824	0.000638	6.381757	2.162198	0.000256
 493	4.8954e+01	19.5845	132.418052	0.000608	6.077864	2.059236	0.000243
 494	4.9053e+01	19.6310	132.627983	0.000527	5.267482	1.784671	0.000211
 495	4.9153e+01	19.6615	132.886360	0.000648	6.483054	2.196518	0.000260
 496	4.9252e+01	19.7032	133.116477	0.000577	5.773970	1.956274	0.000231
 497	4.9352e+01	19.7449	133.362742	0.000618	6.179161	2.093557	0.000248
 498	4.9452e+01	19.7898	133.604970	0.000608	6.077864	2.059236	0.000243
 499	4.9551e+01	19.8267	133.818938	0.000537	5.368779	1.818992	0.000215
 500	4.9651e+01	19.8716	134.065204	0.000618	6.179161	2.093557	0.000248
 501	4.9750e+01	19.9182	134.323580	0.000648	6.483054	2.196518	0.000260
 502	4.9849e+01	19.9438	134.533511	0.000527	5.267482	1.784671	0.000211
 503	4.9949e+01	19.9903	134.759591	0.000567	5.672673	1.921954	0.000227
 504	5.0048e+01	19.9342	134.674811	0.000213	2.127252	0.720733	-0.000085
 505	5.0148e+01	19.9069	134.521400	0.000385	3.849314	1.304183	-0.000154
 506	5.0248e+01	19.8716	134.404323	0.000294	2.937634	0.995297	-0.000118
 507	5.0347e+01	19.8155	134.307432	0.000243	2.431145	0.823694	-0.000097
 508	5.0447e+01	19.7882	134.214578	0.000233	2.329848	0.789374	-0.000093
 509	5.0546e+01	19.7513	134.061166	0.000385	3.849314	1.304183	-0.000154
 510	5.0645e+01	19.7032	133.931978	0.000324	3.241527	1.098259	-0.000130
 511	5.0745e+01	19.6615	133.806827	0.000314	3.140229	1.063939	-0.000126
 512	5.0844e+01	19.6246	133.673601	0.000334	3.342825	1.132580	-0.000134
 513	5.0944e+01	19.5813	133.544413	0.000324	3.241527	1.098259	-0.000130
 514	5.1044e+01	19.5428	133.403113	0.000355	3.545420	1.201221	-0.000142
 515	5.1143e+01	19.5027	133.241628	0.000405	4.051909	1.372824	-0.000162
 516	5.1242e+01	19.4658	133.088217	0.000385	3.849314	1.304183	-0.000154
 517	5.1342e+01	19.4273	133.011511	0.000192	1.924657	0.652091	-0.000077
 518	5.1441e+01	19.3807	132.845989	0.000415	4.153207	1.407145	-0.000166
 519	5.1541e+01	19.3503	132.676429	0.000425	4.254504	1.441465	-0.000170
 520	5.1641e+01	19.3198	132.486684	0.000476	4.760993	1.613068	-0.000191
 521	5.1740e+01	19.2700	132.345384	0.000355	3.545420	1.201221	-0.000142
 522	5.1840e+01	19.2267	132.232344	0.000284	2.836336	0.960977	-0.000114
 523	5.1939e+01	19.1946	132.062784	0.000425	4.254504	1.441465	-0.000170
 524	5.2038e+01	19.1513	131.905336	0.000395	3.950611	1.338503	-0.000158
 525	5.2138e+01	19.1144	131.780185	0.000314	3.140229	1.063939	-0.000126
 526	5.2237e+01	19.0791	131.606588	0.000436	4.355802	1.475786	-0.000174
 527	5.2337e+01	19.0246	131.437028	0.000425	4.254504	1.441465	-0.000170
 528	5.2437e+01	18.9925	131.279580	0.000395	3.950611	1.338503	-0.000158
 529	5.2536e+01	18.9492	131.130206	0.000375	3.748016	1.269862	-0.000150
 530	5.2636e+01	18.9027	130.952572	0.000446	4.457100	1.510106	-0.000179
 531	5.2735e+01	18.8610	130.815309	0.000344	3.444123	1.166900	-0.000138
 532	5.2834e+01	18.8305	130.633638	0.000456	4.558398	1.544427	-0.000183
 533	5.2934e+01	18.7808	130.472153	0.000405	4.051909	1.372824	-0.000162
 534	5.3033e+01	18.7487	130.359113	0.000284	2.836336	0.960977	-0.000114
 535	5.3133e+01	18.7182	130.161293	0.000496	4.963589	1.681709	-0.000199
 536	5.3233e+01	18.6717	130.019994	0.000355	3.545420	1.201221	-0.000142
 537	5.3332e+01	18.6332	129.830248	0.000476	4.760993	1.613068	-0.000191
 538	5.3431e+01	18.5882	129.680874	0.000375	3.748016	1.269862	-0.000150
 539	5.3531e+01	18.5513	129.495166	0.000466	4.659695	1.578748	-0.000187
 540	5.3630e+01	18.5048	129.289272	0.000517	5.166184	1.750351	-0.000207
 541	5.3730e+01	18.4695	129.176232	0.000284	2.836336	0.960977	-0.000114
 542	5.3830e+01	18.4294	128.990524	0.000466	4.659695	1.578748	-0.000187
 543	5.3929e+01	18.4022	128.865373	0.000314	3.140229	1.063939	-0.000126
 544	5.4029e+01	18.3604	128.663516	0.000506	5.064886	1.716030	-0.000203
 545	5.4128e+01	18.3123	128.497993	0.000415	4.153207	1.407145	-0.000166
 546	5.4227e+01	18.2690	128.320359	0.000446	4.457100	1.510106	-0.000179
 547	5.4327e+01	18.2417	128.138688	0.000456	4.558398	1.544427	-0.000183
 548	5.4426e+01	18.1952	127.977203	0.000405	4.051909	1.372824	-0.000162
 549	5.4526e+01	18.1487	127.803606	0.000436	4.355802	1.475786	-0.000174
 550	5.4626e+01	18.1150	127.625972	0.000446	4.457100	1.510106	-0.000179
 551	5.4725e+01	18.0813	127.428152	0.000496	4.963589	1.681709	-0.000199
 552	5.4825e+01	18.0348	127.274741	0.000385	3.849314	1.304183	-0.000154
 553	5.4924e+01	17.9915	127.080959	0.000486	4.862291	1.647389	-0.000195
 554	5.5023e+01	17.9626	126.927548	0.000385	3.849314	1.304183	-0.000154
 555	5.5123e+01	17.9081	126.766062	0.000405	4.051909	1.372824	-0.000162
 556	5.5222e+01	17.8840	126.564205	0.000506	5.064886	1.716030	-0.000203
 557	5.5322e+01	17.8343	126.406757	0.000395	3.950611	1.338503	-0.000158
 558	5.5422e+01	17.7942	126.233160	0.000436	4.355802	1.475786	-0.000174
 559	5.5521e+01	17.7492	126.035341	0.000496	4.963589	1.681709	-0.000199
 560	5.5620e+01	17.7171	125.857707	0.000446	4.457100	1.510106	-0.000179
 561	5.5720e+01	17.6770	125.712370	0.000365	3.646718	1.235542	-0.000146
 562	5.5819e+01	17.6450	125.498402	0.000537	5.368779	1.818992	-0.000215
 563	5.5919e+01	17.6049	125.332879	0.000415	4.153207	1.407145	-0.000166
 564	5.6019e+01	17.5519	125.167356	0.000415	4.153207	1.407145	-0.000166
 565	5.6118e+01	17.5182	125.005871	0.000405	4.051909	1.372824	-0.000162
 566	5.6218e+01	17.4781	124.795940	0.000527	5.267482	1.784671	-0.000211
 567	5.6317e+01	17.4412	124.626380	0.000425	4.254504	1.441465	-0.000170
 568	5.6416e+01	17.3947	124.416449	0.000527	5.267482	1.784671	-0.000211
 569	5.6516e+01	17.3498	124.246889	0.000425	4.254504	1.441465	-0.000170
 570	5.6615e+01	17.3177	124.105590	0.000355	3.545420	1.201221	-0.000142
 571	5.6715e+01	17.2696	123.879510	0.000567	5.672673	1.921954	-0.000227
 572	5.6815e+01	17.2343	123.673616	0.000517	5.166184	1.750351	-0.000207
 573	5.6914e+01	17.1926	123.483871	0.000476	4.760993	1.613068	-0.000191
 574	5.7014e+01	17.1589	123.350645	0.000334	3.342825	1.132580	-0.000134
 575	5.7113e+01	17.1188	123.148789	0.000506	5.064886	1.716030	-0.000203
 576	5.7212e+01	17.0851	122.955006	0.000486	4.862291	1.647389	-0.000195
 577	5.7312e+01	17.0402	122.745075	0.000527	5.267482	1.784671	-0.000211
 578	5.7411e+01	17.0017	122.603775	0.000355	3.545420	1.201221	-0.000142
 579	5.7511e+01	16.9519	122.389807	0.000537	5.368779	1.818992	-0.000215
 580	5.7611e+01	16.9198	122.244470	0.000365	3.646718	1.235542	-0.000146
 581	5.7710e+01	16.8829	122.038576	0.000517	5.166184	1.750351	-0.000207
 582	5.7809e+01	16.8348	121.856905	0.000456	4.558398	1.544427	-0.000183
 583	5.7909e+01	16.7979	121.699457	0.000395	3.950611	1.338503	-0.000158
 584	5.8008e+01	16.7578	121.469340	0.000577	5.773970	1.956274	-0.000231
 585	5.8108e+01	16.7209	121.295743	0.000436	4.355802	1.475786	-0.000174
 586	5.8208e+01	16.6808	121.126184	0.000425	4.254504	1.441465	-0.000170
 587	5.8307e+01	16.6455	120.964698	0.000405	4.051909	1.372824	-0.000162
 588	5.8407e+01	16.6006	120.778990	0.000466	4.659695	1.578748	-0.000187
 589	5.8506e+01	16.5653	120.589244	0.000476	4.760993	1.613068	-0.000191
 590	5.8605e+01	16.5124	120.371239	0.000547	5.470077	1.853312	-0.000219
 591	5.8705e+01	16.4851	120.201679	0.000425	4.254504	1.441465	-0.000170
 592	5.8804e+01	16.4306	120.003860	0.000496	4.963589	1.681709	-0.000199
 593	5.8904e+01	16.3872	119.810077	0.000486	4.862291	1.647389	-0.000195
 594	5.9004e+01	16.3584	119.612258	0.000496	4.963589	1.681709	-0.000199
 595	5.9103e+01	16.3247	119.426549	0.000466	4.659695	1.578748	-0.000187
 596	5.9203e+01	16.2846	119.285250	0.000355	3.545420	1.201221	-0.000142
 597	5.9302e+01	16.2396	119.030910	0.000638	6.381757	2.162198	-0.000256
 598	5.9401e+01	16.2028	118.869425	0.000405	4.051909	1.372824	-0.000162
 599	5.9501e+01	16.1610	118.691791	0.000446	4.457100	1.510106	-0.000179
 600	5.9600e+01	16.1257	118.461674	0.000577	5.773970	1.956274	-0.000231
 601	5.9700e+01	16.0760	118.300189	0.000405	4.051909	1.372824	-0.000162
 602	5.9800e+01	16.0407	118.114480	0.000466	4.659695	1.578748	-0.000187
 603	5.9899e+01	16.0070	117.957032	0.000395	3.950611	1.338503	-0.000158
 604	5.9998e+01	15.9685	117.739027	0.000547	5.470077	1.853312	-0.000219
 605	6.0098e+01	15.9236	117.557356	0.000456	4.558398	1.544427	-0.000183
 606	6.0197e+01	15.8867	117.343387	0.000537	5.368779	1.818992	-0.000215
 607	6.0297e+01	15.8402	117.133456	0.000527	5.267482	1.784671	-0.000211
 608	6.0397e+01	15.8001	116.967934	0.000415	4.153207	1.407145	-0.000166
 609	6.0496e+01	15.7600	116.782225	0.000466	4.659695	1.578748	-0.000187
 610	6.0596e+01	15.7311	116.560183	0.000557	5.571375	1.887633	-0.000223
 611	6.0695e+01	15.6894	116.386586	0.000436	4.355802	1.475786	-0.000174
 612	6.0794e+01	15.6413	116.180692	0.000517	5.166184	1.750351	-0.000207
 613	6.0894e+01	15.6044	115.994984	0.000466	4.659695	1.578748	-0.000187
 614	6.0993e+01	15.5675	115.809276	0.000466	4.659695	1.578748	-0.000187
 615	6.1093e+01	15.5258	115.607419	0.000506	5.064886	1.716030	-0.000203
 616	6.1193e+01	15.4905	115.429785	0.000446	4.457100	1.510106	-0.000179
 617	6.1292e+01	15.4391	115.223891	0.000517	5.166184	1.750351	-0.000207
 618	6.1392e+01	15.4103	115.030109	0.000486	4.862291	1.647389	-0.000195
 619	6.1491e+01	15.3605	114.848437	0.000456	4.558398	1.544427	-0.000183
 620	6.1590e+01	15.3268	114.650618	0.000496	4.963589	1.681709	-0.000199
 621	6.1690e+01	15.2851	114.408390	0.000608	6.077864	2.059236	-0.000243
 622	6.1789e+01	15.2466	114.263053	0.000365	3.646718	1.235542	-0.000146
 623	6.1889e+01	15.1969	114.053122	0.000527	5.267482	1.784671	-0.000211
 624	6.1989e+01	15.1568	113.903748	0.000375	3.748016	1.269862	-0.000150
 625	6.2088e+01	15.1199	113.665557	0.000598	5.976566	2.024915	-0.000239
 626	6.2188e+01	15.0862	113.467737	0.000496	4.963589	1.681709	-0.000199
 627	6.2287e+01	15.0429	113.237620	0.000577	5.773970	1.956274	-0.000231
 628	6.2386e+01	14.9980	113.055949	0.000456	4.558398	1.544427	-0.000183
 629	6.2486e+01	14.9627	112.837944	0.000547	5.470077	1.853312	-0.000219
 630	6.2586e+01	14.9306	112.652236	0.000466	4.659695	1.578748	-0.000187
 631	6.2685e+01	14.8873	112.490750	0.000405	4.051909	1.372824	-0.000162
 632	6.2785e+01	14.8472	112.288893	0.000506	5.064886	1.716030	-0.000203
 633	6.2884e+01	14.8103	112.058777	0.000577	5.773970	1.956274	-0.000231
 634	6.2983e+01	14.7622	111.852883	0.000517	5.166184	1.750351	-0.000207
 635	6.3083e+01	14.7204	111.683323	0.000425	4.254504	1.441465	-0.000170
 636	6.3182e+01	14.6835	111.477429	0.000517	5.166184	1.750351	-0.000207
 637	6.3282e+01	14.6482	111.303832	0.000436	4.355802	1.475786	-0.000174
 638	6.3382e+01	14.6081	111.053530	0.000628	6.280459	2.127877	-0.000252
 639	6.3481e+01	14.5761	110.843599	0.000527	5.267482	1.784671	-0.000211
 640	6.3581e+01	14.5376	110.674039	0.000425	4.254504	1.441465	-0.000170
 641	6.3680e+01	14.4878	110.472182	0.000506	5.064886	1.716030	-0.000203
 642	6.3779e+01	14.4493	110.278400	0.000486	4.862291	1.647389	-0.000195
 643	6.3879e+01	14.4044	110.052320	0.000567	5.672673	1.921954	-0.000227
 644	6.3978e+01	14.3675	109.858538	0.000486	4.862291	1.647389	-0.000195
 645	6.4078e+01	14.3322	109.636495	0.000557	5.571375	1.887633	-0.000223
 646	6.4177e+01	14.2841	109.454824	0.000456	4.558398	1.544427	-0.000183
 647	6.4277e+01	14.2424	109.261042	0.000486	4.862291	1.647389	-0.000195
 648	6.4376e+01	14.2055	109.083408	0.000446	4.457100	1.510106	-0.000179
 649	6.4476e+01	14.1638	108.849254	0.000588	5.875268	1.990595	-0.000235
 650	6.4576e+01	14.1253	108.639323	0.000527	5.267482	1.784671	-0.000211
 651	6.4675e+01	14.0900	108.465726	0.000436	4.355802	1.475786	-0.000174
 652	6.4775e+01	14.0515	108.227535	0.000598	5.976566	2.024915	-0.000239
 653	6.4874e+01	14.0098	108.017604	0.000527	5.267482	1.784671	-0.000211
 654	6.4974e+01	13.9648	107.852081	0.000415	4.153207	1.407145	-0.000166
 655	6.5073e+01	13.9296	107.646187	0.000517	5.166184	1.750351	-0.000207
 656	6.5172e+01	13.8846	107.448368	0.000496	4.963589	1.681709	-0.000199
 657	6.5272e+01	13.8381	107.214214	0.000588	5.875268	1.990595	-0.000235
 658	6.5371e+01	13.8092	107.040617	0.000436	4.355802	1.475786	-0.000174
 659	6.5471e+01	13.7739	106.802426	0.000598	5.976566	2.024915	-0.000239
 660	6.5570e+01	13.7306	106.576346	0.000567	5.672673	1.921954	-0.000227
 661	6.5670e+01	13.6889	106.426972	0.000375	3.748016	1.269862	-0.000150
 662	6.5769e+01	13.6504	106.213004	0.000537	5.368779	1.818992	-0.000215
 663	6.5869e+01	13.6103	105.994999	0.000547	5.470077	1.853312	-0.000219
 664	6.5969e+01	13.5638	105.781031	0.000537	5.368779	1.818992	-0.000215
 665	6.6068e+01	13.5365	105.542840	0.000598	5.976566	2.024915	-0.000239
 666	6.6168e+01	13.4900	105.357131	0.000466	4.659695	1.578748	-0.000187
 667	6.6267e+01	13.4547	105.155275	0.000506	5.064886	1.716030	-0.000203
 668	6.6367e+01	13.4114	104.969566	0.000466	4.659695	1.578748	-0.000187
 669	6.6466e+01	13.3745	104.743487	0.000567	5.672673	1.921954	-0.000227
 670	6.6566e+01	13.3328	104.513370	0.000577	5.773970	1.956274	-0.000231
 671	6.6665e+01	13.2991	104.327662	0.000466	4.659695	1.578748	-0.000187
 672	6.6764e+01	13.2510	104.077359	0.000628	6.280459	2.127877	-0.000252
 673	6.6864e+01	13.2093	103.871465	0.000517	5.166184	1.750351	-0.000207
 674	6.6963e+01	13.1708	103.661534	0.000527	5.267482	1.784671	-0.000211
 675	6.7063e+01	13.1322	103.459678	0.000506	5.064886	1.716030	-0.000203
 676	6.7162e+01	13.0970	103.257821	0.000506	5.064886	1.716030	-0.000203
 677	6.7262e+01	13.0520	103.003481	0.000638	6.381757	2.162198	-0.000256
 678	6.7362e+01	13.0135	102.870256	0.000334	3.342825	1.132580	-0.000134
 679	6.7461e+01	12.9686	102.587656	0.000709	7.090841	2.402442	-0.000284
 680	6.7561e+01	12.9285	102.410022	0.000446	4.457100	1.510106	-0.000179
 681	6.7660e+01	12.9012	102.204128	0.000517	5.166184	1.750351	-0.000207
 682	6.7760e+01	12.8595	101.982086	0.000557	5.571375	1.887633	-0.000223
 683	6.7859e+01	12.8066	101.768118	0.000537	5.368779	1.818992	-0.000215
 684	6.7959e+01	12.7713	101.570298	0.000496	4.963589	1.681709	-0.000199
 685	6.8058e+01	12.7280	101.340181	0.000577	5.773970	1.956274	-0.000231
 686	6.8157e+01	12.6975	101.130250	0.000527	5.267482	1.784671	-0.000211
 687	6.8257e+01	12.6526	100.904171	0.000567	5.672673	1.921954	-0.000227
 688	6.8356e+01	12.6173	100.706351	0.000496	4.963589	1.681709	-0.000199
 689	6.8456e+01	12.5740	100.500457	0.000517	5.166184	1.750351	-0.000207
 690	6.8555e+01	12.5387	100.266303	0.000588	5.875268	1.990595	-0.000235
 691	6.8655e+01	12.4970	100.072521	0.000486	4.862291	1.647389	-0.000195
 692	6.8754e+01	12.4585	99.846441	0.000567	5.672673	1.921954	-0.000227
 693	6.8854e+01	12.4136	99.616324	0.000577	5.773970	1.956274	-0.000231
 694	6.8954e+01	12.3799	99.442727	0.000436	4.355802	1.475786	-0.000174
 695	6.9053e+01	12.3366	99.232796	0.000527	5.267482	1.784671	-0.000211
 696	6.9153e+01	12.3061	98.990568	0.000608	6.077864	2.059236	-0.000243
 697	6.9252e+01	12.2547	98.768526	0.000557	5.571375	1.887633	-0.000223
 698	6.9352e+01	12.2162	98.558595	0.000527	5.267482	1.784671	-0.000211
 699	6.9451e+01	12.1858	98.364812	0.000486	4.862291	1.647389	-0.000195
 700	6.9550e+01	12.1408	98.110473	0.000638	6.381757	2.162198	-0.000256
 701	6.9650e+01	12.0959	97.872282	0.000598	5.976566	2.024915	-0.000239
 702	6.9749e+01	12.0574	97.678499	0.000486	4.862291	1.647389	-0.000195
 703	6.9849e+01	12.0125	97.464531	0.000537	5.368779	1.818992	-0.000215
 704	6.9948e+01	11.9804	97.226340	0.000598	5.976566	2.024915	-0.000239
 705	7.0048e+01	11.9467	97.008335	0.000547	5.470077	1.853312	-0.000219
 706	7.0147e+01	11.9018	96.814552	0.000486	4.862291	1.647389	-0.000195
 707	7.0247e+01	11.8569	96.604621	0.000527	5.267482	1.784671	-0.000211
 708	7.0347e+01	11.8248	96.374504	0.000577	5.773970	1.956274	-0.000231
 709	7.0446e+01	11.7879	96.128239	0.000618	6.179161	2.093557	-0.000248
 710	7.0546e+01	11.7334	95.910234	0.000547	5.470077	1.853312	-0.000219
 711	7.0645e+01	11.7077	95.692228	0.000547	5.470077	1.853312	-0.000219
 712	7.0745e+01	11.6596	95.474223	0.000547	5.470077	1.853312	-0.000219
 713	7.0844e+01	11.6211	95.252181	0.000557	5.571375	1.887633	-0.000223
 714	7.0944e+01	11.5874	95.038212	0.000537	5.368779	1.818992	-0.000215
 715	7.1043e+01	11.5489	94.824244	0.000537	5.368779	1.818992	-0.000215
 716	7.1142e+01	11.5056	94.618350	0.000517	5.166184	1.750351	-0.000207
 717	7.1242e+01	11.4542	94.392271	0.000567	5.672673	1.921954	-0.000227
 718	7.1341e+01	11.4125	94.141968	0.000628	6.280459	2.127877	-0.000252
 719	7.1441e+01	11.3756	93.928000	0.000537	5.368779	1.818992	-0.000215
 720	7.1540e+01	11.3419	93.705958	0.000557	5.571375	1.887633	-0.000223
 721	7.1640e+01	11.2986	93.475841	0.000577	5.773970	1.956274	-0.000231
 722	7.1740e+01	11.2585	93.221501	0.000638	6.381757	2.162198	-0.000256
 723	7.1839e+01	11.2152	93.031756	0.000476	4.760993	1.613068	-0.000191
 724	7.1939e+01	11.1847	92.817788	0.000537	5.368779	1.818992	-0.000215
 725	7.2038e+01	11.1430	92.559411	0.000648	6.483054	2.196518	-0.000260
 726	7.2138e+01	11.1029	92.321220	0.000598	5.976566	2.024915	-0.000239
 727	7.2237e+01	11.0548	92.123400	0.000496	4.963589	1.681709	-0.000199
 728	7.2337e+01	11.0291	91.897321	0.000567	5.672673	1.921954	-0.000227
 729	7.2436e+01	10.9810	91.667204	0.000577	5.773970	1.956274	-0.000231
 730	7.2535e+01	10.9393	91.445162	0.000557	5.571375	1.887633	-0.000223
 731	7.2635e+01	10.9024	91.231193	0.000537	5.368779	1.818992	-0.000215
 732	7.2734e+01	10.8607	90.984928	0.000618	6.179161	2.093557	-0.000248
 733	7.2834e+01	10.8222	90.754811	0.000577	5.773970	1.956274	-0.000231
 734	7.2933e+01	10.7804	90.569103	0.000466	4.659695	1.578748	-0.000187
 735	7.3033e+01	10.7419	90.290541	0.000699	6.989543	2.368121	-0.000280
 736	7.3132e+01	10.7050	90.048313	0.000608	6.077864	2.059236	-0.000243
 737	7.3232e+01	10.6681	89.830307	0.000547	5.470077	1.853312	-0.000219
 738	7.3332e+01	10.6248	89.616339	0.000537	5.368779	1.818992	-0.000215
 739	7.3431e+01	10.5815	89.353925	0.000658	6.584352	2.230839	-0.000264
 740	7.3531e+01	10.5478	89.148031	0.000517	5.166184	1.750351	-0.000207
 741	7.3630e+01	10.5061	88.921952	0.000567	5.672673	1.921954	-0.000227
 742	7.3730e+01	10.4660	88.687798	0.000588	5.875268	1.990595	-0.000235
 743	7.3829e+01	10.4243	88.429421	0.000648	6.483054	2.196518	-0.000260
 744	7.3928e+01	10.3810	88.239676	0.000476	4.760993	1.613068	-0.000191
 745	7.4028e+01	10.3441	87.969188	0.000679	6.786948	2.299480	-0.000272
 746	7.4127e+01	10.3024	87.759257	0.000527	5.267482	1.784671	-0.000211
 747	7.4227e+01	10.2591	87.541251	0.000547	5.470077	1.853312	-0.000219
 748	7.4326e+01	10.2318	87.274800	0.000669	6.685650	2.265160	-0.000268
 749	7.4426e+01	10.1869	87.093129	0.000456	4.558398	1.544427	-0.000183
 750	7.4525e+01	10.1388	86.830715	0.000658	6.584352	2.230839	-0.000264
 751	7.4625e+01	10.1147	86.596562	0.000588	5.875268	1.990595	-0.000235
 752	7.4725e+01	10.0682	86.382593	0.000537	5.368779	1.818992	-0.000215
 753	7.4824e+01	10.0168	86.140365	0.000608	6.077864	2.059236	-0.000243
 754	7.4924e+01	9.9847	85.853729	0.000719	7.192139	2.436762	-0.000288
 755	7.5023e+01	9.9430	85.676095	0.000446	4.457100	1.510106	-0.000179
 756	7.5123e+01	9.9142	85.433866	0.000608	6.077864	2.059236	-0.000243
 757	7.5222e+01	9.8644	85.195675	0.000598	5.976566	2.024915	-0.000239
 758	7.5322e+01	9.8211	84.973633	0.000557	5.571375	1.887633	-0.000223
 759	7.5421e+01	9.7842	84.751591	0.000557	5.571375	1.887633	-0.000223
 760	7.5520e+01	9.7489	84.513400	0.000598	5.976566	2.024915	-0.000239
 761	7.5620e+01	9.7088	84.246949	0.000669	6.685650	2.265160	-0.000268
 762	7.5719e+01	9.6783	84.016832	0.000577	5.773970	1.956274	-0.000231
 763	7.5819e+01	9.6270	83.782678	0.000588	5.875268	1.990595	-0.000235
 764	7.5918e+01	9.5869	83.528338	0.000638	6.381757	2.162198	-0.000256
 765	7.6018e+01	9.5452	83.282073	0.000618	6.179161	2.093557	-0.000248
 766	7.6118e+01	9.5019	83.043882	0.000598	5.976566	2.024915	-0.000239
 767	7.6217e+01	9.4730	82.842025	0.000506	5.064886	1.716030	-0.000203
 768	7.6317e+01	9.4217	82.587686	0.000638	6.381757	2.162198	-0.000256
 769	7.6416e+01	9.3848	82.369680	0.000547	5.470077	1.853312	-0.000219
 770	7.6516e+01	9.3495	82.087081	0.000709	7.090841	2.402442	-0.000284
 771	7.6615e+01	9.3062	81.865038	0.000557	5.571375	1.887633	-0.000223
 772	7.6715e+01	9.2725	81.622810	0.000608	6.077864	2.059236	-0.000243
 773	7.6814e+01	9.2243	81.388656	0.000588	5.875268	1.990595	-0.000235
 774	7.6913e+01	9.1874	81.166614	0.000557	5.571375	1.887633	-0.000223
 775	7.7013e+01	9.1441	80.884015	0.000709	7.090841	2.402442	-0.000284
 776	7.7112e+01	9.1120	80.661972	0.000557	5.571375	1.887633	-0.000223
 777	7.7212e+01	9.0607	80.431855	0.000577	5.773970	1.956274	-0.000231
 778	7.7311e+01	9.0190	80.165404	0.000669	6.685650	2.265160	-0.000268
 779	7.7411e+01	8.9885	79.939325	0.000567	5.672673	1.921954	-0.000227
 780	7.7510e+01	8.9564	79.684985	0.000638	6.381757	2.162198	-0.000256
 781	7.7610e+01	8.9163	79.434683	0.000628	6.280459	2.127877	-0.000252
 782	7.7710e+01	8.8874	79.208603	0.000567	5.672673	1.921954	-0.000227
 783	7.7809e+01	8.8185	78.958301	0.000628	6.280459	2.127877	-0.000252
 784	7.7909e+01	8.7896	78.683776	0.000689	6.888245	2.333801	-0.000276
 785	7.8008e+01	8.7479	78.477882	0.000517	5.166184	1.750351	-0.000207
 786	7.8108e+01	8.7062	78.223542	0.000638	6.381757	2.162198	-0.000256
 787	7.8207e+01	8.6693	77.957091	0.000669	6.685650	2.265160	-0.000268
 788	7.8306e+01	8.6228	77.731012	0.000567	5.672673	1.921954	-0.000227
 789	7.8406e+01	8.5826	77.484746	0.000618	6.179161	2.093557	-0.000248
 790	7.8505e+01	8.5522	77.270778	0.000537	5.368779	1.818992	-0.000215
 791	7.8605e+01	8.5185	76.988179	0.000709	7.090841	2.402442	-0.000284
 792	7.8704e+01	8.4720	76.729802	0.000648	6.483054	2.196518	-0.000260
 793	7.8804e+01	8.4351	76.479499	0.000628	6.280459	2.127877	-0.000252
 794	7.8903e+01	8.3966	76.229197	0.000628	6.280459	2.127877	-0.000252
 795	7.9003e+01	8.3452	75.986969	0.000608	6.077864	2.059236	-0.000243
 796	7.9103e+01	8.3083	75.736666	0.000628	6.280459	2.127877	-0.000252
 797	7.9202e+01	8.2730	75.470215	0.000669	6.685650	2.265160	-0.000268
 798	7.9302e+01	8.2233	75.215876	0.000638	6.381757	2.162198	-0.000256
 799	7.9401e+01	8.1912	74.993833	0.000557	5.571375	1.887633	-0.000223
 800	7.9501e+01	8.1527	74.751605	0.000608	6.077864	2.059236	-0.000243
 801	7.9600e+01	8.1238	74.477080	0.000689	6.888245	2.333801	-0.000276
 802	7.9700e+01	8.0693	74.218703	0.000648	6.483054	2.196518	-0.000260
 803	7.9799e+01	8.0420	73.988587	0.000577	5.773970	1.956274	-0.000231
 804	7.9898e+01	7.9971	73.738284	0.000628	6.280459	2.127877	-0.000252
 805	7.9998e+01	7.9602	73.487982	0.000628	6.280459	2.127877	-0.000252
 806	8.0097e+01	7.9073	73.241717	0.000618	6.179161	2.093557	-0.000248
 807	8.0197e+01	7.8784	72.951043	0.000729	7.293436	2.471083	-0.000292
 808	8.0296e+01	7.8367	72.724963	0.000567	5.672673	1.921954	-0.000227
 809	8.0396e+01	7.7950	72.406029	0.000800	8.002520	2.711327	-0.000321
 810	8.0496e+01	7.7565	72.220321	0.000466	4.659695	1.578748	-0.000187
 811	8.0595e+01	7.7164	71.917536	0.000760	7.597329	2.574045	-0.000304
 812	8.0695e+01	7.6811	71.683382	0.000588	5.875268	1.990595	-0.000235
 813	8.0794e+01	7.6329	71.433080	0.000628	6.280459	2.127877	-0.000252
 814	8.0894e+01	7.5928	71.166629	0.000669	6.685650	2.265160	-0.000268
 815	8.0993e+01	7.5527	70.916326	0.000628	6.280459	2.127877	-0.000252
 816	8.1093e+01	7.5174	70.645838	0.000679	6.786948	2.299480	-0.000272
 817	8.1192e+01	7.4773	70.423796	0.000557	5.571375	1.887633	-0.000223
 818	8.1291e+01	7.4324	70.157345	0.000669	6.685650	2.265160	-0.000268
 819	8.1391e+01	7.3875	69.882820	0.000689	6.888245	2.333801	-0.000276
 820	8.1490e+01	7.3522	69.620406	0.000658	6.584352	2.230839	-0.000264
 821	8.1590e+01	7.3121	69.398363	0.000557	5.571375	1.887633	-0.000223
 822	8.1689e+01	7.2688	69.091541	0.000770	7.698627	2.608365	-0.000308
 823	8.1789e+01	7.2415	68.865461	0.000567	5.672673	1.921954	-0.000227
 824	8.1888e+01	7.1966	68.578825	0.000719	7.192139	2.436762	-0.000288
 825	8.1988e+01	7.1565	68.328522	0.000628	6.280459	2.127877	-0.000252
 826	8.2088e+01	7.1260	68.078220	0.000628	6.280459	2.127877	-0.000252
 827	8.2187e+01	7.0747	67.767360	0.000780	7.799925	2.642686	-0.000312
 828	8.2287e+01	7.0330	67.577615	0.000476	4.760993	1.613068	-0.000191
 829	8.2386e+01	6.9993	67.274830	0.000760	7.597329	2.574045	-0.000304
 830	8.2486e+01	6.9560	67.012416	0.000658	6.584352	2.230839	-0.000264
 831	8.2585e+01	6.9175	66.745965	0.000669	6.685650	2.265160	-0.000268
 832	8.2684e+01	6.8838	66.463366	0.000709	7.090841	2.402442	-0.000284
 833	8.2784e+01	6.8356	66.249397	0.000537	5.368779	1.818992	-0.000215
 834	8.2883e+01	6.7971	65.999095	0.000628	6.280459	2.127877	-0.000252
 835	8.2983e+01	6.7602	65.700347	0.000750	7.496032	2.539724	-0.000300
 836	8.3082e+01	6.7233	65.454082	0.000618	6.179161	2.093557	-0.000248
 837	8.3182e+01	6.6688	65.147259	0.000770	7.698627	2.608365	-0.000308
 838	8.3281e+01	6.6367	64.896957	0.000628	6.280459	2.127877	-0.000252
 839	8.3381e+01	6.5998	64.622432	0.000689	6.888245	2.333801	-0.000276
 840	8.3481e+01	6.5565	64.355981	0.000669	6.685650	2.265160	-0.000268
 841	8.3580e+01	6.5116	64.097604	0.000648	6.483054	2.196518	-0.000260
 842	8.3680e+01	6.4795	63.827116	0.000679	6.786948	2.299480	-0.000272
 843	8.3779e+01	6.4394	63.576814	0.000628	6.280459	2.127877	-0.000252
 844	8.3879e+01	6.4041	63.326511	0.000628	6.280459	2.127877	-0.000252
 845	8.3978e+01	6.3640	63.027763	0.000750	7.496032	2.539724	-0.000300
 846	8.4078e+01	6.3239	62.765349	0.000658	6.584352	2.230839	-0.000264
 847	8.4177e+01	6.2918	62.498898	0.000669	6.685650	2.265160	-0.000268
 848	8.4276e+01	6.2389	62.244559	0.000638	6.381757	2.162198	-0.000256
 849	8.4376e+01	6.2036	61.949848	0.000739	7.394734	2.505404	-0.000296
 850	8.4475e+01	6.1635	61.667248	0.000709	7.090841	2.402442	-0.000284
 851	8.4575e+01	6.1314	61.416946	0.000628	6.280459	2.127877	-0.000252
 852	8.4674e+01	6.0720	61.102049	0.000790	7.901223	2.677007	-0.000316
 853	8.4774e+01	6.0496	60.871933	0.000577	5.773970	1.956274	-0.000231
 854	8.4874e+01	6.0127	60.589333	0.000709	7.090841	2.402442	-0.000284
 855	8.4973e+01	5.9726	60.318845	0.000679	6.786948	2.299480	-0.000272
 856	8.5073e+01	5.9244	60.048357	0.000679	6.786948	2.299480	-0.000272
 857	8.5172e+01	5.8859	59.737498	0.000780	7.799925	2.642686	-0.000312
 858	8.5272e+01	5.8362	59.471047	0.000669	6.685650	2.265160	-0.000268
 859	8.5371e+01	5.8057	59.172299	0.000750	7.496032	2.539724	-0.000300
 860	8.5471e+01	5.7528	58.913922	0.000648	6.483054	2.196518	-0.000260
 861	8.5570e+01	5.7239	58.671694	0.000608	6.077864	2.059236	-0.000243
 862	8.5669e+01	5.6886	58.368909	0.000760	7.597329	2.574045	-0.000304
 863	8.5769e+01	5.6437	58.110532	0.000648	6.483054	2.196518	-0.000260
 864	8.5868e+01	5.5940	57.840044	0.000679	6.786948	2.299480	-0.000272
 865	8.5968e+01	5.5603	57.529184	0.000780	7.799925	2.642686	-0.000312
 866	8.6067e+01	5.5234	57.278882	0.000628	6.280459	2.127877	-0.000252
 867	8.6167e+01	5.4833	57.000319	0.000699	6.989543	2.368121	-0.000280
 868	8.6266e+01	5.4416	56.701571	0.000750	7.496032	2.539724	-0.000300
 869	8.6366e+01	5.4079	56.467418	0.000588	5.875268	1.990595	-0.000235
 870	8.6466e+01	5.3646	56.148484	0.000800	8.002520	2.711327	-0.000321
 871	8.6565e+01	5.3196	55.817439	0.000831	8.306414	2.814289	-0.000333
 872	8.6665e+01	5.2843	55.583285	0.000588	5.875268	1.990595	-0.000235
 873	8.6764e+01	5.2378	55.345094	0.000598	5.976566	2.024915	-0.000239
 874	8.6864e+01	5.2105	54.993863	0.000881	8.812902	2.985892	-0.000353
 875	8.6963e+01	5.1592	54.727412	0.000669	6.685650	2.265160	-0.000268
 876	8.7063e+01	5.1175	54.452887	0.000689	6.888245	2.333801	-0.000276
 877	8.7162e+01	5.0726	54.162213	0.000729	7.293436	2.471083	-0.000292
 878	8.7261e+01	5.0453	53.907874	0.000638	6.381757	2.162198	-0.000256
 879	8.7361e+01	5.0036	53.584903	0.000810	8.103818	2.745648	-0.000325
 880	8.7460e+01	4.9667	53.306340	0.000699	6.989543	2.368121	-0.000280
 881	8.7560e+01	4.9218	52.995481	0.000780	7.799925	2.642686	-0.000312
 882	8.7659e+01	4.8865	52.720956	0.000689	6.888245	2.333801	-0.000276
 883	8.7759e+01	4.8512	52.446430	0.000689	6.888245	2.333801	-0.000276
 884	8.7859e+01	4.7999	52.147682	0.000750	7.496032	2.539724	-0.000300
 885	8.7958e+01	4.7630	51.844897	0.000760	7.597329	2.574045	-0.000304
 886	8.8058e+01	4.7261	51.586520	0.000648	6.483054	2.196518	-0.000260
 887	8.8157e+01	4.6892	51.320070	0.000669	6.685650	2.265160	-0.000268
 888	8.8257e+01	4.6475	51.029396	0.000729	7.293436	2.471083	-0.000292
 889	8.8356e+01	4.6122	50.678165	0.000881	8.812902	2.985892	-0.000353
 890	8.8456e+01	4.5640	50.427863	0.000628	6.280459	2.127877	-0.000252
 891	8.8555e+01	4.5432	50.149300	0.000699	6.989543	2.368121	-0.000280
 892	8.8654e+01	4.4854	49.854589	0.000739	7.394734	2.505404	-0.000296
 893	8.8754e+01	4.4453	49.527581	0.000821	8.205116	2.779968	-0.000329
 894	8.8853e+01	4.4084	49.236907	0.000729	7.293436	2.471083	-0.000292
 895	8.8953e+01	4.3731	48.990642	0.000618	6.179161	2.093557	-0.000248
 896	8.9052e+01	4.3314	48.667671	0.000810	8.103818	2.745648	-0.000325
 897	8.9152e+01	4.2929	48.381035	0.000719	7.192139	2.436762	-0.000288
 898	8.9251e+01	4.2641	48.094398	0.000719	7.192139	2.436762	-0.000288
 899	8.9351e+01	4.2063	47.783539	0.000780	7.799925	2.642686	-0.000312
 900	8.9451e+01	4.1646	47.496902	0.000719	7.192139	2.436762	-0.000288
 901	8.9550e+01	4.1277	47.186043	0.000780	7.799925	2.642686	-0.000312
 902	8.9650e+01	4.0924	46.915554	0.000679	6.786948	2.299480	-0.000272
 903	8.9749e+01	4.0443	46.592584	0.000810	8.103818	2.745648	-0.000325
 904	8.9849e+01	4.0090	46.285761	0.000770	7.698627	2.608365	-0.000308
 905	8.9948e+01	3.9721	46.027385	0.000648	6.483054	2.196518	-0.000260
 906	9.0047e+01	3.9336	45.688265	0.000851	8.509009	2.882930	-0.000341
 907	9.0147e+01	3.8871	45.405666	0.000709	7.090841	2.402442	-0.000284
 908	9.0246e+01	3.8389	45.119029	0.000719	7.192139	2.436762	-0.000288
 909	9.0346e+01	3.8181	44.800095	0.000800	8.002520	2.711327	-0.000321
 910	9.0445e+01	3.7667	44.497310	0.000760	7.597329	2.574045	-0.000304
 911	9.0545e+01	3.7266	44.222785	0.000689	6.888245	2.333801	-0.000276
 912	9.0644e+01	3.6849	43.932111	0.000729	7.293436	2.471083	-0.000292
 913	9.0744e+01	3.6416	43.621252	0.000780	7.799925	2.642686	-0.000312
 914	9.0844e+01	3.6127	43.326541	0.000739	7.394734	2.505404	-0.000296
 915	9.0943e+01	3.5630	43.007607	0.000800	8.002520	2.711327	-0.000321
 916	9.1043e+01	3.5325	42.688673	0.000800	8.002520	2.711327	-0.000321
 917	9.1142e+01	3.4892	42.402037	0.000719	7.192139	2.436762	-0.000288
 918	9.1242e+01	3.4507	42.095214	0.000770	7.698627	2.608365	-0.000308
 919	9.1341e+01	3.4154	41.800503	0.000739	7.394734	2.505404	-0.000296
 920	9.1441e+01	3.3721	41.457347	0.000861	8.610307	2.917251	-0.000345
 921	9.1540e+01	3.3304	41.170710	0.000719	7.192139	2.436762	-0.000288
 922	9.1639e+01	3.3031	40.888111	0.000709	7.090841	2.402442	-0.000284
 923	9.1739e+01	3.2389	40.577251	0.000780	7.799925	2.642686	-0.000312
 924	9.1838e+01	3.2133	40.282540	0.000739	7.394734	2.505404	-0.000296
 925	9.1938e+01	3.1716	40.003978	0.000699	6.989543	2.368121	-0.000280
 926	9.2037e+01	3.1363	39.636599	0.000922	9.218093	3.123174	-0.000369
 927	9.2137e+01	3.0865	39.313628	0.000810	8.103818	2.745648	-0.000325
 928	9.2237e+01	3.0545	39.039103	0.000689	6.888245	2.333801	-0.000276
 929	9.2336e+01	3.0095	38.679798	0.000902	9.015498	3.054533	-0.000361
 930	9.2436e+01	2.9726	38.405272	0.000689	6.888245	2.333801	-0.000276
 931	9.2535e+01	2.9341	38.090376	0.000790	7.901223	2.677007	-0.000316
 932	9.2635e+01	2.8940	37.791628	0.000750	7.496032	2.539724	-0.000300
 933	9.2734e+01	2.8507	37.480768	0.000780	7.799925	2.642686	-0.000312
 934	9.2834e+01	2.8090	37.141649	0.000851	8.509009	2.882930	-0.000341
 935	9.2933e+01	2.7641	36.871161	0.000679	6.786948	2.299480	-0.000272
 936	9.3032e+01	2.7288	36.560301	0.000780	7.799925	2.642686	-0.000312
 937	9.3132e+01	2.6951	36.205033	0.000891	8.914200	3.020213	-0.000357
 938	9.3231e+01	2.6534	35.890137	0.000790	7.901223	2.677007	-0.000316
 939	9.3331e+01	2.6101	35.631760	0.000648	6.483054	2.196518	-0.000260
 940	9.3430e+01	2.5748	35.264381	0.000922	9.218093	3.123174	-0.000369
 941	9.3530e+01	2.5363	34.985818	0.000699	6.989543	2.368121	-0.000280
 942	9.3629e+01	2.4946	34.634587	0.000881	8.812902	2.985892	-0.000353
 943	9.3729e+01	2.4481	34.351988	0.000709	7.090841	2.402442	-0.000284
 944	9.3829e+01	2.4112	34.004794	0.000871	8.711604	2.951571	-0.000349
 945	9.3928e+01	2.3839	33.693935	0.000780	7.799925	2.642686	-0.000312
 946	9.4028e+01	2.3406	33.350778	0.000861	8.610307	2.917251	-0.000345
 947	9.4127e+01	2.2973	33.035882	0.000790	7.901223	2.677007	-0.000316
 948	9.4227e+01	2.2572	32.708874	0.000821	8.205116	2.779968	-0.000329
 949	9.4326e+01	2.2106	32.406089	0.000760	7.597329	2.574045	-0.000304
 950	9.4425e+01	2.1737	32.034672	0.000932	9.319391	3.157495	-0.000373
 951	9.4525e+01	2.1481	31.703627	0.000831	8.306414	2.814289	-0.000333
 952	9.4624e+01	2.1015	31.445250	0.000648	6.483054	2.196518	-0.000260
 953	9.4724e+01	2.0518	31.126317	0.000800	8.002520	2.711327	-0.000321
 954	9.4823e+01	2.0117	30.767011	0.000902	9.015498	3.054533	-0.000361
 955	9.4923e+01	1.9748	30.452115	0.000790	7.901223	2.677007	-0.000316
 956	9.5022e+01	1.9251	30.133181	0.000800	8.002520	2.711327	-0.000321
 957	9.5122e+01	1.8946	29.798099	0.000841	8.407711	2.848610	-0.000337
 958	9.5222e+01	1.8593	29.483202	0.000790	7.901223	2.677007	-0.000316
 959	9.5321e+01	1.8192	29.156194	0.000821	8.205116	2.779968	-0.000329
 960	9.5421e+01	1.7807	28.829186	0.000821	8.205116	2.779968	-0.000329
 961	9.5520e+01	1.7342	28.530438	0.000750	7.496032	2.539724	-0.000300
 962	9.5620e+01	1.6957	28.138836	0.000983	9.825879	3.329098	-0.000394
 963	9.5719e+01	1.6684	27.852199	0.000719	7.192139	2.436762	-0.000288
 964	9.5819e+01	1.6203	27.488857	0.000912	9.116795	3.088854	-0.000365
 965	9.5918e+01	1.5898	27.206258	0.000709	7.090841	2.402442	-0.000284
 966	9.6017e+01	1.5385	26.806581	0.001003	10.028475	3.397739	-0.000402
 967	9.6117e+01	1.5016	26.479573	0.000821	8.205116	2.779968	-0.000329
 968	9.6216e+01	1.4502	26.172751	0.000770	7.698627	2.608365	-0.000308
 969	9.6316e+01	1.4181	25.853817	0.000800	8.002520	2.711327	-0.000321
 970	9.6415e+01	1.3732	25.514698	0.000851	8.509009	2.882930	-0.000341
 971	9.6515e+01	1.3363	25.155393	0.000902	9.015498	3.054533	-0.000361
 972	9.6615e+01	1.3042	24.860682	0.000739	7.394734	2.505404	-0.000296
 973	9.6714e+01	1.2625	24.497340	0.000912	9.116795	3.088854	-0.000365
 974	9.6814e+01	1.2144	24.170332	0.000821	8.205116	2.779968	-0.000329
 975	9.6913e+01	1.1679	23.847361	0.000810	8.103818	2.745648	-0.000325
 976	9.7013e+01	1.1454	23.471907	0.000942	9.420688	3.191816	-0.000377
 977	9.7112e+01	1.0925	23.161048	0.000780	7.799925	2.642686	-0.000312
 978	9.7212e+01	1.0620	22.793668	0.000922	9.218093	3.123174	-0.000369
 979	9.7311e+01	1.0171	22.470698	0.000810	8.103818	2.745648	-0.000325
 980	9.7410e+01	0.9690	22.119467	0.000881	8.812902	2.985892	-0.000353
 981	9.7510e+01	0.9337	21.764199	0.000891	8.914200	3.020213	-0.000357
 982	9.7609e+01	0.9000	21.453339	0.000780	7.799925	2.642686	-0.000312
 983	9.7709e+01	0.8567	21.102109	0.000881	8.812902	2.985892	-0.000353
 984	9.7808e+01	0.8182	20.779138	0.000810	8.103818	2.745648	-0.000325
 985	9.7908e+01	0.7764	20.444055	0.000841	8.407711	2.848610	-0.000337
 986	9.8007e+01	0.7363	20.100899	0.000861	8.610307	2.917251	-0.000345
 987	9.8107e+01	0.7075	19.749668	0.000881	8.812902	2.985892	-0.000353
 988	9.8207e+01	0.6706	19.406511	0.000861	8.610307	2.917251	-0.000345
 989	9.8306e+01	0.6160	19.031058	0.000942	9.420688	3.191816	-0.000377
 990	9.8406e+01	0.5871	18.659641	0.000932	9.319391	3.157495	-0.000373
 991	9.8505e+01	0.5486	18.364930	0.000739	7.394734	2.505404	-0.000296
 992	9.8605e+01	0.5037	18.029848	0.000841	8.407711	2.848610	-0.000337
 993	9.8704e+01	0.4572	17.670543	0.000902	9.015498	3.054533	-0.000361
 994	9.8803e+01	0.4155	17.319312	0.000881	8.812902	2.985892	-0.000353
 995	9.8903e+01	0.3754	16.955970	0.000912	9.116795	3.088854	-0.000365
 996	9.9002e+01	0.3353	16.584554	0.000932	9.319391	3.157495	-0.000373
 997	9.9102e+01	0.3064	16.269657	0.000790	7.901223	2.677007	-0.000316
 998	9.9201e+01	0.2567	15.906315	0.000912	9.116795	3.088854	-0.000365
 999	9.9301e+01	0.2246	15.510676	0.000993	9.927177	3.363419	-0.000398
1000	9.9400e+01	0.1829	15.211927	0.000750	7.496032	2.539724	-0.000300
1001	9.9500e+01	0.1348	14.856660	0.000891	8.914200	3.020213	-0.000357
1002	9.9600e+01	0.0979	14.517540	0.000851	8.509009	2.882930	-0.000341
1003	9.9699e+01	0.0642	14.109789	0.001023	10.231070	3.466380	-0.000410
1004	9.9799e+01	0.0160	13.758559	0.000881	8.812902	2.985892	-0.000353
1005	9.9898e+01	-0.0112	13.520368	0.000598	5.976566	2.024915	-0.000239
1006	9.9998e+01	-0.0417	13.152988	0.000922	9.218093	3.123174	-0.000369
1007	1.0010e+02	-0.0979	12.789646	0.000912	9.116795	3.088854	-0.000365
1008	1.0020e+02	-0.1299	12.406118	0.000962	9.623284	3.260457	-0.000385
1009	1.0030e+02	-0.1813	12.062962	0.000861	8.610307	2.917251	-0.000345
1010	1.0040e+02	-0.2102	11.691545	0.000932	9.319391	3.157495	-0.000373
1011	1.0050e+02	-0.2503	11.344351	0.000871	8.711604	2.951571	-0.000349
1012	1.0059e+02	-0.2904	10.968898	0.000942	9.420688	3.191816	-0.000377
1013	1.0069e+02	-0.3273	10.629778	0.000851	8.509009	2.882930	-0.000341
1014	1.0079e+02	-0.3626	10.266436	0.000912	9.116795	3.088854	-0.000365
1015	1.0089e+02	-0.4123	9.886945	0.000952	9.521986	3.226136	-0.000381
1016	1.0099e+02	-0.4492	9.559937	0.000821	8.205116	2.779968	-0.000329
1017	1.0109e+02	-0.4845	9.160261	0.001003	10.028475	3.397739	-0.000402
1018	1.0119e+02	-0.5310	8.804993	0.000891	8.914200	3.020213	-0.000357
1019	1.0129e+02	-0.5679	8.473948	0.000831	8.306414	2.814289	-0.000333
1020	1.0139e+02	-0.6048	8.110606	0.000912	9.116795	3.088854	-0.000365
1021	1.0149e+02	-0.6433	7.743226	0.000922	9.218093	3.123174	-0.000369
1022	1.0159e+02	-0.6866	7.387958	0.000891	8.914200	3.020213	-0.000357
1023	1.0169e+02	-0.7251	7.020579	0.000922	9.218093	3.123174	-0.000369
1024	1.0179e+02	-0.7700	6.665311	0.000891	8.914200	3.020213	-0.000357
1025	1.0189e+02	-0.8053	6.301969	0.000912	9.116795	3.088854	-0.000365
1026	1.0199e+02	-0.8486	5.894218	0.001023	10.231070	3.466380	-0.000410
1027	1.0209e+02	-0.8775	5.583359	0.000780	7.799925	2.642686	-0.000312
1028	1.0219e+02	-0.9256	5.167534	0.001043	10.433666	3.535022	-0.000418
1029	1.0229e+02	-0.9609	4.800154	0.000922	9.218093	3.123174	-0.000369
1030	1.0239e+02	-1.0042	4.448924	0.000881	8.812902	2.985892	-0.000353
1031	1.0248e+02	-1.0492	4.089619	0.000902	9.015498	3.054533	-0.000361
1032	1.0258e+02	-1.0796	3.750499	0.000851	8.509009	2.882930	-0.000341
1033	1.0268e+02	-1.1278	3.383120	0.000922	9.218093	3.123174	-0.000369
1034	1.0278e+02	-1.1631	3.027852	0.000891	8.914200	3.020213	-0.000357
1035	1.0288e+02	-1.2128	2.603953	0.001064	10.636261	3.603663	-0.000426
1036	1.0298e+02	-1.2465	2.260796	0.000861	8.610307	2.917251	-0.000345
1037	1.0308e+02	-1.2866	1.889380	0.000932	9.319391	3.157495	-0.000373
1038	1.0318e+02	-1.3219	1.542186	0.000871	8.711604	2.951571	-0.000349
1039	1.0328e+02	-1.3620	1.182881	0.000902	9.015498	3.054533	-0.000361
1040	1.0338e+02	-1.4069	0.815501	0.000922	9.218093	3.123174	-0.000369
1041	1.0348e+02	-1.4518	0.431974	0.000962	9.623284	3.260457	-0.000385
1042	1.0358e+02	-1.4855	0.076706	0.000891	8.914200	3.020213	-0.000357
1043	1.0368e+02	-1.5256	-0.278562	0.000891	8.914200	3.020213	-0.000357
1044	1.0378e+02	-1.5625	-0.666127	0.000972	9.724582	3.294777	-0.000390
1045	1.0388e+02	-1.6026	-0.976987	0.000780	7.799925	2.642686	-0.000312
1046	1.0398e+02	-1.6347	-1.404923	0.001074	10.737559	3.637983	-0.000430
1047	1.0408e+02	-1.6957	-1.731931	0.000821	8.205116	2.779968	-0.000329
1048	1.0418e+02	-1.7197	-2.127571	0.000993	9.927177	3.363419	-0.000398
1049	1.0428e+02	-1.7598	-2.466690	0.000851	8.509009	2.882930	-0.000341
1050	1.0438e+02	-1.7967	-2.850218	0.000962	9.623284	3.260457	-0.000385
1051	1.0447e+02	-1.8449	-3.217597	0.000922	9.218093	3.123174	-0.000369
1052	1.0457e+02	-1.8834	-3.540568	0.000810	8.103818	2.745648	-0.000325
1053	1.0467e+02	-1.9219	-3.936207	0.000993	9.927177	3.363419	-0.000398
1054	1.0477e+02	-1.9668	-4.303587	0.000922	9.218093	3.123174	-0.000369
1055	1.0487e+02	-2.0069	-4.658855	0.000891	8.914200	3.020213	-0.000357
1056	1.0497e+02	-2.0390	-5.002011	0.000861	8.610307	2.917251	-0.000345
1057	1.0507e+02	-2.0743	-5.369391	0.000922	9.218093	3.123174	-0.000369
1058	1.0517e+02	-2.1240	-5.712547	0.000861	8.610307	2.917251	-0.000345
1059	1.0527e+02	-2.1593	-6.092038	0.000952	9.521986	3.226136	-0.000381
1060	1.0537e+02	-2.2010	-6.402897	0.000780	7.799925	2.642686	-0.000312
1061	1.0547e+02	-2.2411	-6.774314	0.000932	9.319391	3.157495	-0.000373
1062	1.0557e+02	-2.2828	-7.149767	0.000942	9.420688	3.191816	-0.000377
1063	1.0567e+02	-2.3213	-7.480813	0.000831	8.306414	2.814289	-0.000333
1064	1.0577e+02	-2.3614	-7.823969	0.000861	8.610307	2.917251	-0.000345
1065	1.0587e+02	-2.3967	-8.255943	0.001084	10.838857	3.672304	-0.000434
1066	1.0597e+02	-2.4432	-8.599099	0.000861	8.610307	2.917251	-0.000345
1067	1.0607e+02	-2.4769	-8.946293	0.000871	8.711604	2.951571	-0.000349
1068	1.0617e+02	-2.5202	-9.341932	0.000993	9.927177	3.363419	-0.000398
1069	1.0627e+02	-2.5620	-9.652792	0.000780	7.799925	2.642686	-0.000312
1070	1.0637e+02	-2.6021	-10.024208	0.000932	9.319391	3.157495	-0.000373
1071	1.0647e+02	-2.6454	-10.391587	0.000922	9.218093	3.123174	-0.000369
1072	1.0656e+02	-2.6791	-10.726670	0.000841	8.407711	2.848610	-0.000337
1073	1.0666e+02	-2.7160	-11.069826	0.000861	8.610307	2.917251	-0.000345
1074	1.0676e+02	-2.7609	-11.445280	0.000942	9.420688	3.191816	-0.000377
1075	1.0686e+02	-2.7978	-11.776325	0.000831	8.306414	2.814289	-0.000333
1076	1.0696e+02	-2.8315	-12.127556	0.000881	8.812902	2.985892	-0.000353
1077	1.0706e+02	-2.8764	-12.494935	0.000922	9.218093	3.123174	-0.000369
1078	1.0716e+02	-2.9133	-12.874426	0.000952	9.521986	3.226136	-0.000381
1079	1.0726e+02	-2.9694	-13.193360	0.000800	8.002520	2.711327	-0.000321
1080	1.0736e+02	-3.0031	-13.532479	0.000851	8.509009	2.882930	-0.000341
1081	1.0746e+02	-3.0416	-13.851413	0.000800	8.002520	2.711327	-0.000321
1082	1.0756e+02	-3.0881	-14.226866	0.000942	9.420688	3.191816	-0.000377
1083	1.0766e+02	-3.1170	-14.574060	0.000871	8.711604	2.951571	-0.000349
1084	1.0776e+02	-3.1587	-14.892994	0.000800	8.002520	2.711327	-0.000321
1085	1.0786e+02	-3.1988	-15.296707	0.001013	10.129773	3.432060	-0.000406
1086	1.0796e+02	-3.2422	-15.571233	0.000689	6.888245	2.333801	-0.000276
1087	1.0806e+02	-3.2774	-15.966872	0.000993	9.927177	3.363419	-0.000398
1088	1.0816e+02	-3.3208	-16.305991	0.000851	8.509009	2.882930	-0.000341
1089	1.0826e+02	-3.3545	-16.592628	0.000719	7.192139	2.436762	-0.000288
1090	1.0836e+02	-3.3946	-16.947896	0.000891	8.914200	3.020213	-0.000357
1091	1.0845e+02	-3.4379	-17.303164	0.000891	8.914200	3.020213	-0.000357
1092	1.0855e+02	-3.4812	-17.634209	0.000831	8.306414	2.814289	-0.000333
1093	1.0865e+02	-3.5036	-18.013700	0.000952	9.521986	3.226136	-0.000381
1094	1.0875e+02	-3.5502	-18.316485	0.000760	7.597329	2.574045	-0.000304
1095	1.0885e+02	-3.6063	-18.691938	0.000942	9.420688	3.191816	-0.000377
1096	1.0895e+02	-3.6400	-18.974538	0.000709	7.090841	2.402442	-0.000284
1097	1.0905e+02	-3.6753	-19.349992	0.000942	9.420688	3.191816	-0.000377
1098	1.0915e+02	-3.7138	-19.648740	0.000750	7.496032	2.539724	-0.000300
1099	1.0925e+02	-3.7587	-19.975748	0.000821	8.205116	2.779968	-0.000329
1100	1.0935e+02	-3.8020	-20.367350	0.000983	9.825879	3.329098	-0.000394
1101	1.0945e+02	-3.8405	-20.653986	0.000719	7.192139	2.436762	-0.000288
1102	1.0955e+02	-3.8726	-21.021366	0.000922	9.218093	3.123174	-0.000369
1103	1.0965e+02	-3.9111	-21.324151	0.000760	7.597329	2.574045	-0.000304
1104	1.0975e+02	-3.9625	-21.679419	0.000891	8.914200	3.020213	-0.000357
1105	1.0985e+02	-4.0026	-22.006427	0.000821	8.205116	2.779968	-0.000329
1106	1.0995e+02	-4.0427	-22.309212	0.000760	7.597329	2.574045	-0.000304
1107	1.1005e+02	-4.0812	-22.692740	0.000962	9.623284	3.260457	-0.000385
1108	1.1015e+02	-4.1229	-23.011674	0.000800	8.002520	2.711327	-0.000321
1109	1.1025e+02	-4.1518	-23.322533	0.000780	7.799925	2.642686	-0.000312
1110	1.1035e+02	-4.1967	-23.673764	0.000881	8.812902	2.985892	-0.000353
1111	1.1044e+02	-4.2384	-23.976549	0.000760	7.597329	2.574045	-0.000304
1112	1.1054e+02	-4.2673	-24.352003	0.000942	9.420688	3.191816	-0.000377
1113	1.1064e+02	-4.3234	-24.654788	0.000760	7.597329	2.574045	-0.000304
1114	1.1074e+02	-4.3603	-24.941425	0.000719	7.192139	2.436762	-0.000288
1115	1.1084e+02	-4.3844	-25.276507	0.000841	8.407711	2.848610	-0.000337
1116	1.1094e+02	-4.4373	-25.595441	0.000800	8.002520	2.711327	-0.000321
1117	1.1104e+02	-4.4806	-25.906300	0.000780	7.799925	2.642686	-0.000312
1118	1.1114e+02	-4.5223	-26.253494	0.000871	8.711604	2.951571	-0.000349
1119	1.1124e+02	-4.5528	-26.552242	0.000750	7.496032	2.539724	-0.000300
1120	1.1134e+02	-4.5897	-26.879250	0.000821	8.205116	2.779968	-0.000329
1121	1.1144e+02	-4.6346	-27.210295	0.000831	8.306414	2.814289	-0.000333
1122	1.1154e+02	-4.6699	-27.509043	0.000750	7.496032	2.539724	-0.000300
1123	1.1164e+02	-4.7148	-27.844125	0.000841	8.407711	2.848610	-0.000337
1124	1.1174e+02	-4.7630	-28.183245	0.000851	8.509009	2.882930	-0.000341
1125	1.1184e+02	-4.7854	-28.506215	0.000810	8.103818	2.745648	-0.000325
1126	1.1194e+02	-4.8336	-28.813038	0.000770	7.698627	2.608365	-0.000308
1127	1.1204e+02	-4.8640	-29.131971	0.000800	8.002520	2.711327	-0.000321
1128	1.1214e+02	-4.9073	-29.463017	0.000831	8.306414	2.814289	-0.000333
1129	1.1224e+02	-4.9523	-29.749653	0.000719	7.192139	2.436762	-0.000288
1130	1.1234e+02	-4.9988	-30.072624	0.000810	8.103818	2.745648	-0.000325
1131	1.1244e+02	-5.0277	-30.387521	0.000790	7.901223	2.677007	-0.000316
1132	1.1253e+02	-5.0790	-30.738752	0.000881	8.812902	2.985892	-0.000353
1133	1.1263e+02	-5.1159	-31.009240	0.000679	6.786948	2.299480	-0.000272
1134	1.1273e+02	-5.1448	-31.364508	0.000891	8.914200	3.020213	-0.000357
1135	1.1283e+02	-5.1849	-31.687478	0.000810	8.103818	2.745648	-0.000325
1136	1.1293e+02	-5.2330	-32.034672	0.000871	8.711604	2.951571	-0.000349
1137	1.1303e+02	-5.2715	-32.317272	0.000709	7.090841	2.402442	-0.000284
1138	1.1313e+02	-5.3132	-32.587760	0.000679	6.786948	2.299480	-0.000272
1139	1.1323e+02	-5.3485	-32.906693	0.000800	8.002520	2.711327	-0.000321
1140	1.1333e+02	-5.3918	-33.221590	0.000790	7.901223	2.677007	-0.000316
1141	1.1343e+02	-5.4351	-33.504189	0.000709	7.090841	2.402442	-0.000284
1142	1.1353e+02	-5.4704	-33.851383	0.000871	8.711604	2.951571	-0.000349
1143	1.1363e+02	-5.5089	-34.158205	0.000770	7.698627	2.608365	-0.000308
1144	1.1373e+02	-5.5490	-34.465028	0.000770	7.698627	2.608365	-0.000308
1145	1.1383e+02	-5.5924	-34.775887	0.000780	7.799925	2.642686	-0.000312
1146	1.1393e+02	-5.6341	-35.131155	0.000891	8.914200	3.020213	-0.000357
1147	1.1403e+02	-5.6645	-35.385495	0.000638	6.381757	2.162198	-0.000256
1148	1.1413e+02	-5.7047	-35.724614	0.000851	8.509009	2.882930	-0.000341
1149	1.1423e+02	-5.7399	-36.019325	0.000739	7.394734	2.505404	-0.000296
1150	1.1433e+02	-5.7768	-36.338259	0.000800	8.002520	2.711327	-0.000321
1151	1.1442e+02	-5.8218	-36.645081	0.000770	7.698627	2.608365	-0.000308
1152	1.1452e+02	-5.8699	-36.947866	0.000760	7.597329	2.574045	-0.000304
1153	1.1462e+02	-5.9052	-37.210280	0.000658	6.584352	2.230839	-0.000264
1154	1.1472e+02	-5.9453	-37.573622	0.000912	9.116795	3.088854	-0.000365
1155	1.1482e+02	-5.9918	-37.840073	0.000669	6.685650	2.265160	-0.000268
1156	1.1492e+02	-6.0287	-38.134784	0.000739	7.394734	2.505404	-0.000296
1157	1.1502e+02	-6.0640	-38.421421	0.000719	7.192139	2.436762	-0.000288
1158	1.1512e+02	-6.1121	-38.768614	0.000871	8.711604	2.951571	-0.000349
1159	1.1522e+02	-6.1394	-39.039103	0.000679	6.786948	2.299480	-0.000272
1160	1.1532e+02	-6.1859	-39.370148	0.000831	8.306414	2.814289	-0.000333
1161	1.1542e+02	-6.2260	-39.681007	0.000780	7.799925	2.642686	-0.000312
1162	1.1552e+02	-6.2693	-39.971681	0.000729	7.293436	2.471083	-0.000292
1163	1.1562e+02	-6.2982	-40.314837	0.000861	8.610307	2.917251	-0.000345
1164	1.1572e+02	-6.3528	-40.585326	0.000679	6.786948	2.299480	-0.000272
1165	1.1582e+02	-6.3881	-40.863888	0.000699	6.989543	2.368121	-0.000280
1166	1.1592e+02	-6.4250	-41.178785	0.000790	7.901223	2.677007	-0.000316
1167	1.1602e+02	-6.4618	-41.469458	0.000729	7.293436	2.471083	-0.000292
1168	1.1612e+02	-6.4987	-41.780318	0.000780	7.799925	2.642686	-0.000312
1169	1.1622e+02	-6.5389	-42.026583	0.000618	6.179161	2.093557	-0.000248
1170	1.1632e+02	-6.5838	-42.365702	0.000851	8.509009	2.882930	-0.000341
1171	1.1642e+02	-6.6255	-42.725008	0.000902	9.015498	3.054533	-0.000361
1172	1.1651e+02	-6.6624	-42.991458	0.000669	6.685650	2.265160	-0.000268
1173	1.1661e+02	-6.7025	-43.213501	0.000557	5.571375	1.887633	-0.000223
1174	1.1671e+02	-6.7458	-43.540509	0.000821	8.205116	2.779968	-0.000329
1175	1.1681e+02	-6.7843	-43.831183	0.000729	7.293436	2.471083	-0.000292
1176	1.1691e+02	-6.8212	-44.138005	0.000770	7.698627	2.608365	-0.000308
1177	1.1701e+02	-6.8661	-44.420605	0.000709	7.090841	2.402442	-0.000284
1178	1.1711e+02	-6.8998	-44.767798	0.000871	8.711604	2.951571	-0.000349
1179	1.1721e+02	-6.9463	-45.054435	0.000719	7.192139	2.436762	-0.000288
1180	1.1731e+02	-6.9816	-45.353183	0.000750	7.496032	2.539724	-0.000300
1181	1.1741e+02	-7.0233	-45.635782	0.000709	7.090841	2.402442	-0.000284
1182	1.1751e+02	-7.0554	-45.934530	0.000750	7.496032	2.539724	-0.000300
1183	1.1761e+02	-7.1035	-46.233278	0.000750	7.496032	2.539724	-0.000300
1184	1.1771e+02	-7.1469	-46.527989	0.000739	7.394734	2.505404	-0.000296
1185	1.1781e+02	-7.1789	-46.814626	0.000719	7.192139	2.436762	-0.000288
1186	1.1791e+02	-7.2239	-47.101263	0.000719	7.192139	2.436762	-0.000288
1187	1.1801e+02	-7.2575	-47.428271	0.000821	8.205116	2.779968	-0.000329
1188	1.1811e+02	-7.2944	-47.694722	0.000669	6.685650	2.265160	-0.000268
1189	1.1821e+02	-7.3426	-47.997507	0.000760	7.597329	2.574045	-0.000304
1190	1.1831e+02	-7.3747	-48.272032	0.000689	6.888245	2.333801	-0.000276
1191	1.1841e+02	-7.4292	-48.522334	0.000628	6.280459	2.127877	-0.000252
1192	1.1850e+02	-7.4581	-48.829157	0.000770	7.698627	2.608365	-0.000308
1193	1.1860e+02	-7.4966	-49.131942	0.000760	7.597329	2.574045	-0.000304
1194	1.1870e+02	-7.5431	-49.422616	0.000729	7.293436	2.471083	-0.000292
1195	1.1880e+02	-7.5784	-49.729438	0.000770	7.698627	2.608365	-0.000308
1196	1.1890e+02	-7.6249	-50.008000	0.000699	6.989543	2.368121	-0.000280
1197	1.1900e+02	-7.6618	-50.282526	0.000689	6.888245	2.333801	-0.000276
1198	1.1910e+02	-7.7019	-50.569162	0.000719	7.192139	2.436762	-0.000288
1199	1.1920e+02	-7.7468	-50.896170	0.000821	8.205116	2.779968	-0.000329
1200	1.1930e+02	-7.7805	-51.158584	0.000658	6.584352	2.230839	-0.000264
1201	1.1940e+02	-7.8190	-51.505778	0.000871	8.711604	2.951571	-0.000349
1202	1.1950e+02	-7.8575	-51.752043	0.000618	6.179161	2.093557	-0.000248
1203	1.1960e+02	-7.8960	-52.038680	0.000719	7.192139	2.436762	-0.000288
1204	1.1970e+02	-7.9377	-52.321279	0.000709	7.090841	2.402442	-0.000284
1205	1.1980e+02	-7.9746	-52.624064	0.000760	7.597329	2.574045	-0.000304
1206	1.1990e+02	-8.0147	-52.926850	0.000760	7.597329	2.574045	-0.000304
1207	1.2000e+02	-8.0532	-53.237709	0.000780	7.799925	2.642686	-0.000312
1208	1.2010e+02	-8.0950	-53.496086	0.000648	6.483054	2.196518	-0.000260
1209	1.2020e+02	-8.1351	-53.722165	0.000567	5.672673	1.921954	-0.000227
1210	1.2030e+02	-8.1752	-54.057248	0.000841	8.407711	2.848610	-0.000337
1211	1.2039e+02	-8.2057	-54.327736	0.000679	6.786948	2.299480	-0.000272
1212	1.2049e+02	-8.2554	-54.606298	0.000699	6.989543	2.368121	-0.000280
1213	1.2059e+02	-8.2971	-54.860638	0.000638	6.381757	2.162198	-0.000256
1214	1.2069e+02	-8.3356	-55.175534	0.000790	7.901223	2.677007	-0.000316
1215	1.2079e+02	-8.3741	-55.462171	0.000719	7.192139	2.436762	-0.000288
1216	1.2089e+02	-8.4126	-55.789179	0.000821	8.205116	2.779968	-0.000329
1217	1.2099e+02	-8.4543	-56.063704	0.000689	6.888245	2.333801	-0.000276
1218	1.2109e+02	-8.5008	-56.309969	0.000618	6.179161	2.093557	-0.000248
1219	1.2119e+02	-8.5441	-56.588532	0.000699	6.989543	2.368121	-0.000280
1220	1.2129e+02	-8.5778	-56.871131	0.000709	7.090841	2.402442	-0.000284
1221	1.2139e+02	-8.6211	-57.165842	0.000739	7.394734	2.505404	-0.000296
1222	1.2149e+02	-8.6564	-57.492850	0.000821	8.205116	2.779968	-0.000329
1223	1.2159e+02	-8.6965	-57.694707	0.000506	5.064886	1.716030	-0.000203
1224	1.2169e+02	-8.7399	-58.017678	0.000810	8.103818	2.745648	-0.000325
1225	1.2179e+02	-8.7655	-58.255869	0.000598	5.976566	2.024915	-0.000239
1226	1.2189e+02	-8.8185	-58.566728	0.000780	7.799925	2.642686	-0.000312
1227	1.2199e+02	-8.8489	-58.837216	0.000679	6.786948	2.299480	-0.000272
1228	1.2209e+02	-8.8939	-59.160187	0.000810	8.103818	2.745648	-0.000325
1229	1.2219e+02	-8.9436	-59.410490	0.000628	6.280459	2.127877	-0.000252
1230	1.2229e+02	-8.9709	-59.709238	0.000750	7.496032	2.539724	-0.000300
1231	1.2239e+02	-9.0174	-59.919169	0.000527	5.267482	1.784671	-0.000211
1232	1.2248e+02	-9.0463	-60.225991	0.000770	7.698627	2.608365	-0.000308
1233	1.2258e+02	-9.0992	-60.508590	0.000709	7.090841	2.402442	-0.000284
1234	1.2268e+02	-9.1377	-60.762930	0.000638	6.381757	2.162198	-0.000256
1235	1.2278e+02	-9.1778	-61.057641	0.000739	7.394734	2.505404	-0.000296
1236	1.2288e+02	-9.2147	-61.356389	0.000750	7.496032	2.539724	-0.000300
1237	1.2298e+02	-9.2532	-61.602654	0.000618	6.179161	2.093557	-0.000248
1238	1.2308e+02	-9.2965	-61.881217	0.000699	6.989543	2.368121	-0.000280
1239	1.2318e+02	-9.3270	-62.192076	0.000780	7.799925	2.642686	-0.000312
1240	1.2328e+02	-9.3735	-62.446416	0.000638	6.381757	2.162198	-0.000256
1241	1.2338e+02	-9.4217	-62.708829	0.000658	6.584352	2.230839	-0.000264
1242	1.2348e+02	-9.4570	-63.011615	0.000760	7.597329	2.574045	-0.000304
1243	1.2358e+02	-9.4874	-63.314400	0.000760	7.597329	2.574045	-0.000304
1244	1.2368e+02	-9.5307	-63.556628	0.000608	6.077864	2.059236	-0.000243
1245	1.2378e+02	-9.5757	-63.823079	0.000669	6.685650	2.265160	-0.000268
1246	1.2388e+02	-9.6045	-64.081456	0.000648	6.483054	2.196518	-0.000260
1247	1.2398e+02	-9.6463	-64.408464	0.000821	8.205116	2.779968	-0.000329
1248	1.2408e+02	-9.6944	-64.650692	0.000608	6.077864	2.059236	-0.000243
1249	1.2418e+02	-9.7329	-64.921180	0.000679	6.786948	2.299480	-0.000272
1250	1.2428e+02	-9.7714	-65.203779	0.000709	7.090841	2.402442	-0.000284
1251	1.2438e+02	-9.8115	-65.482342	0.000699	6.989543	2.368121	-0.000280
1252	1.2447e+02	-9.8420	-65.728607	0.000618	6.179161	2.093557	-0.000248
1253	1.2457e+02	-9.8997	-65.982947	0.000638	6.381757	2.162198	-0.000256
1254	1.2467e+02	-9.9270	-66.233249	0.000628	6.280459	2.127877	-0.000252
1255	1.2477e+02	-9.9655	-66.544108	0.000780	7.799925	2.642686	-0.000312
1256	1.2487e+02	-10.0024	-66.770188	0.000567	5.672673	1.921954	-0.000227
1257	1.2497e+02	-10.0521	-67.068936	0.000750	7.496032	2.539724	-0.000300
1258	1.2507e+02	-10.0970	-67.331350	0.000658	6.584352	2.230839	-0.000264
1259	1.2517e+02	-10.1291	-67.577615	0.000618	6.179161	2.093557	-0.000248
1260	1.2527e+02	-10.1740	-67.844066	0.000669	6.685650	2.265160	-0.000268
1261	1.2537e+02	-10.2029	-68.126666	0.000709	7.090841	2.402442	-0.000284
1262	1.2547e+02	-10.2527	-68.417339	0.000729	7.293436	2.471083	-0.000292
1263	1.2557e+02	-10.2895	-68.663605	0.000618	6.179161	2.093557	-0.000248
1264	1.2567e+02	-10.3248	-68.930056	0.000669	6.685650	2.265160	-0.000268
1265	1.2577e+02	-10.3746	-69.212655	0.000709	7.090841	2.402442	-0.000284
1266	1.2587e+02	-10.4018	-69.491217	0.000699	6.989543	2.368121	-0.000280
1267	1.2597e+02	-10.4564	-69.733446	0.000608	6.077864	2.059236	-0.000243
1268	1.2607e+02	-10.4885	-70.032194	0.000750	7.496032	2.539724	-0.000300
1269	1.2617e+02	-10.5318	-70.254236	0.000557	5.571375	1.887633	-0.000223
1270	1.2627e+02	-10.5703	-70.593356	0.000851	8.509009	2.882930	-0.000341
1271	1.2636e+02	-10.6088	-70.807324	0.000537	5.368779	1.818992	-0.000215
1272	1.2646e+02	-10.6601	-71.073775	0.000669	6.685650	2.265160	-0.000268
1273	1.2656e+02	-10.6874	-71.344263	0.000679	6.786948	2.299480	-0.000272
1274	1.2666e+02	-10.7243	-71.626862	0.000709	7.090841	2.402442	-0.000284
1275	1.2676e+02	-10.7724	-71.852942	0.000567	5.672673	1.921954	-0.000227
1276	1.2686e+02	-10.8061	-72.107281	0.000638	6.381757	2.162198	-0.000256
1277	1.2696e+02	-10.8430	-72.381807	0.000689	6.888245	2.333801	-0.000276
1278	1.2706e+02	-10.8783	-72.676518	0.000739	7.394734	2.505404	-0.000296
1279	1.2716e+02	-10.9377	-72.930857	0.000638	6.381757	2.162198	-0.000256
1280	1.2726e+02	-10.9633	-73.160974	0.000577	5.773970	1.956274	-0.000231
1281	1.2736e+02	-11.0034	-73.463759	0.000760	7.597329	2.574045	-0.000304
1282	1.2746e+02	-11.0484	-73.722136	0.000648	6.483054	2.196518	-0.000260
1283	1.2756e+02	-11.0949	-73.936104	0.000537	5.368779	1.818992	-0.000215
1284	1.2766e+02	-11.1238	-74.222741	0.000719	7.192139	2.436762	-0.000288
1285	1.2776e+02	-11.1687	-74.517451	0.000739	7.394734	2.505404	-0.000296
1286	1.2786e+02	-11.2136	-74.751605	0.000588	5.875268	1.990595	-0.000235
1287	1.2796e+02	-11.2505	-74.985759	0.000588	5.875268	1.990595	-0.000235
1288	1.2806e+02	-11.2890	-75.264322	0.000699	6.989543	2.368121	-0.000280
1289	1.2816e+02	-11.3403	-75.563070	0.000750	7.496032	2.539724	-0.000300
1290	1.2826e+02	-11.3676	-75.773001	0.000527	5.267482	1.784671	-0.000211
1291	1.2835e+02	-11.4061	-76.035414	0.000658	6.584352	2.230839	-0.000264
1292	1.2845e+02	-11.4526	-76.309940	0.000689	6.888245	2.333801	-0.000276
1293	1.2855e+02	-11.4831	-76.560242	0.000628	6.280459	2.127877	-0.000252
1294	1.2865e+02	-11.5296	-76.814582	0.000638	6.381757	2.162198	-0.000256
1295	1.2875e+02	-11.5729	-77.081033	0.000669	6.685650	2.265160	-0.000268
1296	1.2885e+02	-11.6034	-77.343446	0.000658	6.584352	2.230839	-0.000264
1297	1.2895e+02	-11.6483	-77.617972	0.000689	6.888245	2.333801	-0.000276
1298	1.2905e+02	-11.6788	-77.868274	0.000628	6.280459	2.127877	-0.000252
1299	1.2915e+02	-11.7302	-78.078205	0.000527	5.267482	1.784671	-0.000211
1300	1.2925e+02	-11.7542	-78.364842	0.000719	7.192139	2.436762	-0.000288
1301	1.2935e+02	-11.8039	-78.619181	0.000638	6.381757	2.162198	-0.000256
1302	1.2945e+02	-11.8441	-78.873521	0.000638	6.381757	2.162198	-0.000256
1303	1.2955e+02	-11.8906	-79.135935	0.000658	6.584352	2.230839	-0.000264
1304	1.2965e+02	-11.9275	-79.390274	0.000638	6.381757	2.162198	-0.000256
1305	1.2975e+02	-11.9580	-79.628465	0.000598	5.976566	2.024915	-0.000239
1306	1.2985e+02	-11.9981	-79.874731	0.000618	6.179161	2.093557	-0.000248
1307	1.2995e+02	-12.0494	-80.129070	0.000638	6.381757	2.162198	-0.000256
1308	1.3005e+02	-12.0863	-80.431855	0.000760	7.597329	2.574045	-0.000304
1309	1.3015e+02	-12.1296	-80.637749	0.000517	5.166184	1.750351	-0.000207
1310	1.3025e+02	-12.1681	-80.912274	0.000689	6.888245	2.333801	-0.000276
1311	1.3034e+02	-12.2034	-81.178725	0.000669	6.685650	2.265160	-0.000268
1312	1.3044e+02	-12.2387	-81.445176	0.000669	6.685650	2.265160	-0.000268
1313	1.3054e+02	-12.2788	-81.671256	0.000567	5.672673	1.921954	-0.000227
1314	1.3064e+02	-12.3237	-81.957893	0.000719	7.192139	2.436762	-0.000288
1315	1.3074e+02	-12.3670	-82.163787	0.000517	5.166184	1.750351	-0.000207
1316	1.3084e+02	-12.4023	-82.442349	0.000699	6.989543	2.368121	-0.000280
1317	1.3094e+02	-12.4360	-82.716874	0.000689	6.888245	2.333801	-0.000276
1318	1.3104e+02	-12.4681	-82.963139	0.000618	6.179161	2.093557	-0.000248
1319	1.3114e+02	-12.5242	-83.237665	0.000689	6.888245	2.333801	-0.000276
1320	1.3124e+02	-12.5531	-83.451633	0.000537	5.368779	1.818992	-0.000215
1321	1.3134e+02	-12.6029	-83.714047	0.000658	6.584352	2.230839	-0.000264
1322	1.3144e+02	-12.6430	-83.940126	0.000567	5.672673	1.921954	-0.000227
1323	1.3154e+02	-12.6847	-84.194466	0.000638	6.381757	2.162198	-0.000256
1324	1.3164e+02	-12.7216	-84.444768	0.000628	6.280459	2.127877	-0.000252
1325	1.3174e+02	-12.7601	-84.678922	0.000588	5.875268	1.990595	-0.000235
1326	1.3184e+02	-12.8002	-84.977670	0.000750	7.496032	2.539724	-0.000300
1327	1.3194e+02	-12.8451	-85.183564	0.000517	5.166184	1.750351	-0.000207
1328	1.3204e+02	-12.8804	-85.437904	0.000638	6.381757	2.162198	-0.000256
1329	1.3214e+02	-12.9237	-85.676095	0.000598	5.976566	2.024915	-0.000239
1330	1.3224e+02	-12.9542	-85.938508	0.000658	6.584352	2.230839	-0.000264
1331	1.3234e+02	-12.9975	-86.140365	0.000506	5.064886	1.716030	-0.000203
1332	1.3243e+02	-13.0360	-86.427002	0.000719	7.192139	2.436762	-0.000288
1333	1.3253e+02	-13.0745	-86.685379	0.000648	6.483054	2.196518	-0.000260
1334	1.3263e+02	-13.1210	-86.935681	0.000628	6.280459	2.127877	-0.000252
1335	1.3273e+02	-13.1579	-87.177909	0.000608	6.077864	2.059236	-0.000243
1336	1.3283e+02	-13.1980	-87.452434	0.000689	6.888245	2.333801	-0.000276
1337	1.3293e+02	-13.2429	-87.710811	0.000648	6.483054	2.196518	-0.000260
1338	1.3303e+02	-13.2847	-87.928816	0.000547	5.470077	1.853312	-0.000219
1339	1.3313e+02	-13.3167	-88.227564	0.000750	7.496032	2.539724	-0.000300
1340	1.3323e+02	-13.3520	-88.417310	0.000476	4.760993	1.613068	-0.000191
1341	1.3333e+02	-13.3937	-88.691835	0.000689	6.888245	2.333801	-0.000276
1342	1.3343e+02	-13.4258	-88.930026	0.000598	5.976566	2.024915	-0.000239
1343	1.3353e+02	-13.4756	-89.180328	0.000628	6.280459	2.127877	-0.000252
1344	1.3363e+02	-13.5189	-89.418519	0.000598	5.976566	2.024915	-0.000239
1345	1.3373e+02	-13.5574	-89.668822	0.000628	6.280459	2.127877	-0.000252
1346	1.3383e+02	-13.5991	-89.935273	0.000669	6.685650	2.265160	-0.000268
1347	1.3393e+02	-13.6344	-90.185575	0.000628	6.280459	2.127877	-0.000252
1348	1.3403e+02	-13.6745	-90.423766	0.000598	5.976566	2.024915	-0.000239
1349	1.3413e+02	-13.7242	-90.665994	0.000608	6.077864	2.059236	-0.000243
1350	1.3423e+02	-13.7515	-90.912260	0.000618	6.179161	2.093557	-0.000248
1351	1.3432e+02	-13.7964	-91.178711	0.000669	6.685650	2.265160	-0.000268
1352	1.3442e+02	-13.8333	-91.368456	0.000476	4.760993	1.613068	-0.000191
1353	1.3452e+02	-13.8750	-91.695464	0.000821	8.205116	2.779968	-0.000329
1354	1.3462e+02	-13.9135	-91.925581	0.000577	5.773970	1.956274	-0.000231
1355	1.3472e+02	-13.9632	-92.139549	0.000537	5.368779	1.818992	-0.000215
1356	1.3482e+02	-13.9985	-92.373703	0.000588	5.875268	1.990595	-0.000235
1357	1.3492e+02	-14.0322	-92.684562	0.000780	7.799925	2.642686	-0.000312
1358	1.3502e+02	-14.0739	-92.902568	0.000547	5.470077	1.853312	-0.000219
1359	1.3512e+02	-14.1108	-93.140759	0.000598	5.976566	2.024915	-0.000239
1360	1.3522e+02	-14.1525	-93.374912	0.000588	5.875268	1.990595	-0.000235
1361	1.3532e+02	-14.1991	-93.629252	0.000638	6.381757	2.162198	-0.000256
1362	1.3542e+02	-14.2247	-93.899740	0.000679	6.786948	2.299480	-0.000272
1363	1.3552e+02	-14.2745	-94.150043	0.000628	6.280459	2.127877	-0.000252
1364	1.3562e+02	-14.3114	-94.380159	0.000577	5.773970	1.956274	-0.000231
1365	1.3572e+02	-14.3563	-94.674870	0.000739	7.394734	2.505404	-0.000296
1366	1.3582e+02	-14.3996	-94.868653	0.000486	4.862291	1.647389	-0.000195
1367	1.3592e+02	-14.4317	-95.135104	0.000669	6.685650	2.265160	-0.000268
1368	1.3602e+02	-14.4750	-95.361183	0.000567	5.672673	1.921954	-0.000227
1369	1.3612e+02	-14.5119	-95.607449	0.000618	6.179161	2.093557	-0.000248
1370	1.3622e+02	-14.5552	-95.894085	0.000719	7.192139	2.436762	-0.000288
1371	1.3631e+02	-14.5969	-96.099979	0.000517	5.166184	1.750351	-0.000207
1372	1.3641e+02	-14.6370	-96.334133	0.000588	5.875268	1.990595	-0.000235
1373	1.3651e+02	-14.6787	-96.632881	0.000750	7.496032	2.539724	-0.000300
1374	1.3661e+02	-14.7156	-96.830701	0.000496	4.963589	1.681709	-0.000199
1375	1.3671e+02	-14.7429	-97.133486	0.000760	7.597329	2.574045	-0.000304
1376	1.3681e+02	-14.7926	-97.307083	0.000436	4.355802	1.475786	-0.000174
1377	1.3691e+02	-14.8295	-97.621979	0.000790	7.901223	2.677007	-0.000316
1378	1.3701e+02	-14.8744	-97.844022	0.000557	5.571375	1.887633	-0.000223
1379	1.3711e+02	-14.9065	-98.078176	0.000588	5.875268	1.990595	-0.000235
1380	1.3721e+02	-14.9514	-98.344627	0.000669	6.685650	2.265160	-0.000268
1381	1.3731e+02	-14.9916	-98.542446	0.000496	4.963589	1.681709	-0.000199
1382	1.3741e+02	-15.0301	-98.837157	0.000739	7.394734	2.505404	-0.000296
1383	1.3751e+02	-15.0814	-99.075348	0.000598	5.976566	2.024915	-0.000239
1384	1.3761e+02	-15.1039	-99.321613	0.000618	6.179161	2.093557	-0.000248
1385	1.3771e+02	-15.1616	-99.539619	0.000547	5.470077	1.853312	-0.000219
1386	1.3781e+02	-15.1873	-99.854515	0.000790	7.901223	2.677007	-0.000316
1387	1.3791e+02	-15.2274	-100.072521	0.000547	5.470077	1.853312	-0.000219
1388	1.3801e+02	-15.2691	-100.326860	0.000638	6.381757	2.162198	-0.000256
1389	1.3811e+02	-15.3028	-100.536791	0.000527	5.267482	1.784671	-0.000211
1390	1.3821e+02	-15.3461	-100.823428	0.000719	7.192139	2.436762	-0.000288
1391	1.3831e+02	-15.3878	-101.085842	0.000658	6.584352	2.230839	-0.000264
1392	1.3840e+02	-15.4263	-101.328070	0.000608	6.077864	2.059236	-0.000243
1393	1.3850e+02	-15.4632	-101.582409	0.000638	6.381757	2.162198	-0.000256
1394	1.3860e+02	-15.5145	-101.824638	0.000608	6.077864	2.059236	-0.000243
1395	1.3870e+02	-15.5482	-102.066866	0.000608	6.077864	2.059236	-0.000243
1396	1.3880e+02	-15.5835	-102.296982	0.000577	5.773970	1.956274	-0.000231
1397	1.3890e+02	-15.6220	-102.607842	0.000780	7.799925	2.642686	-0.000312
1398	1.3900e+02	-15.6734	-102.801624	0.000486	4.862291	1.647389	-0.000195
1399	1.3910e+02	-15.7054	-103.035778	0.000588	5.875268	1.990595	-0.000235
1400	1.3920e+02	-15.7455	-103.330489	0.000739	7.394734	2.505404	-0.000296
1401	1.3930e+02	-15.7857	-103.540420	0.000527	5.267482	1.784671	-0.000211
1402	1.3940e+02	-15.8370	-103.827057	0.000719	7.192139	2.436762	-0.000288
1403	1.3950e+02	-15.8723	-104.085434	0.000648	6.483054	2.196518	-0.000260
1404	1.3960e+02	-15.9076	-104.323625	0.000598	5.976566	2.024915	-0.000239
1405	1.3970e+02	-15.9493	-104.569890	0.000618	6.179161	2.093557	-0.000248
1406	1.3980e+02	-15.9942	-104.844415	0.000689	6.888245	2.333801	-0.000276
1407	1.3990e+02	-16.0311	-105.094718	0.000628	6.280459	2.127877	-0.000252
1408	1.4000e+02	-16.0648	-105.320797	0.000567	5.672673	1.921954	-0.000227
1409	1.4010e+02	-16.1097	-105.595322	0.000689	6.888245	2.333801	-0.000276
1410	1.4020e+02	-16.1434	-105.877922	0.000709	7.090841	2.402442	-0.000284
1411	1.4029e+02	-16.1899	-106.075742	0.000496	4.963589	1.681709	-0.000199
1412	1.4039e+02	-16.2188	-106.378527	0.000760	7.597329	2.574045	-0.000304
1413	1.4049e+02	-16.2685	-106.620755	0.000608	6.077864	2.059236	-0.000243
1414	1.4059e+02	-16.3054	-106.923540	0.000760	7.597329	2.574045	-0.000304
1415	1.4069e+02	-16.3471	-107.113285	0.000476	4.760993	1.613068	-0.000191
1416	1.4079e+02	-16.3921	-107.367625	0.000638	6.381757	2.162198	-0.000256
1417	1.4089e+02	-16.4209	-107.674447	0.000770	7.698627	2.608365	-0.000308
1418	1.4099e+02	-16.4674	-107.904564	0.000577	5.773970	1.956274	-0.000231
1419	1.4109e+02	-16.5043	-108.171015	0.000669	6.685650	2.265160	-0.000268
1420	1.4119e+02	-16.5380	-108.437466	0.000669	6.685650	2.265160	-0.000268
1421	1.4129e+02	-16.5781	-108.724103	0.000719	7.192139	2.436762	-0.000288
1422	1.4139e+02	-16.6343	-108.954219	0.000577	5.773970	1.956274	-0.000231
1423	1.4149e+02	-16.6632	-109.224707	0.000679	6.786948	2.299480	-0.000272
1424	1.4159e+02	-16.7033	-109.483084	0.000648	6.483054	2.196518	-0.000260
1425	1.4169e+02	-16.7466	-109.777795	0.000739	7.394734	2.505404	-0.000296
1426	1.4179e+02	-16.8011	-109.987726	0.000527	5.267482	1.784671	-0.000211
1427	1.4189e+02	-16.8268	-110.254177	0.000669	6.685650	2.265160	-0.000268
1428	1.4199e+02	-16.8605	-110.504479	0.000628	6.280459	2.127877	-0.000252
1429	1.4209e+02	-16.9038	-110.762856	0.000648	6.483054	2.196518	-0.000260
1430	1.4219e+02	-16.9487	-111.073716	0.000780	7.799925	2.642686	-0.000312
1431	1.4228e+02	-16.9872	-111.311907	0.000598	5.976566	2.024915	-0.000239
1432	1.4238e+02	-17.0145	-111.626803	0.000790	7.901223	2.677007	-0.000316
1433	1.4248e+02	-17.0642	-111.828660	0.000506	5.064886	1.716030	-0.000203
1434	1.4258e+02	-17.1043	-112.115297	0.000719	7.192139	2.436762	-0.000288
1435	1.4268e+02	-17.1412	-112.454416	0.000851	8.509009	2.882930	-0.000341
1436	1.4278e+02	-17.1813	-112.684533	0.000577	5.773970	1.956274	-0.000231
1437	1.4288e+02	-17.2182	-112.967132	0.000709	7.090841	2.402442	-0.000284
1438	1.4298e+02	-17.2648	-113.213398	0.000618	6.179161	2.093557	-0.000248
1439	1.4308e+02	-17.3145	-113.491960	0.000699	6.989543	2.368121	-0.000280
1440	1.4318e+02	-17.3498	-113.754374	0.000658	6.584352	2.230839	-0.000264
1441	1.4328e+02	-17.3931	-114.020825	0.000669	6.685650	2.265160	-0.000268
1442	1.4338e+02	-17.4204	-114.319573	0.000750	7.496032	2.539724	-0.000300
1443	1.4348e+02	-17.4701	-114.569875	0.000628	6.280459	2.127877	-0.000252
1444	1.4358e+02	-17.5118	-114.908995	0.000851	8.509009	2.882930	-0.000341
1445	1.4368e+02	-17.5423	-115.127000	0.000547	5.470077	1.853312	-0.000219
1446	1.4378e+02	-17.5840	-115.409599	0.000709	7.090841	2.402442	-0.000284
1447	1.4388e+02	-17.6161	-115.700273	0.000729	7.293436	2.471083	-0.000292
1448	1.4398e+02	-17.6642	-115.978835	0.000699	6.989543	2.368121	-0.000280
1449	1.4408e+02	-17.7011	-116.257398	0.000699	6.989543	2.368121	-0.000280
1450	1.4418e+02	-17.7412	-116.552109	0.000739	7.394734	2.505404	-0.000296
1451	1.4428e+02	-17.7781	-116.818560	0.000669	6.685650	2.265160	-0.000268
1452	1.4437e+02	-17.8262	-117.125382	0.000770	7.698627	2.608365	-0.000308
1453	1.4447e+02	-17.8599	-117.403944	0.000699	6.989543	2.368121	-0.000280
1454	1.4457e+02	-17.8904	-117.706730	0.000760	7.597329	2.574045	-0.000304
1455	1.4467e+02	-17.9530	-117.948958	0.000608	6.077864	2.059236	-0.000243
1456	1.4477e+02	-17.9770	-118.263854	0.000790	7.901223	2.677007	-0.000316
1457	1.4487e+02	-18.0155	-118.566639	0.000760	7.597329	2.574045	-0.000304
1458	1.4497e+02	-18.0637	-118.885573	0.000800	8.002520	2.711327	-0.000321
1459	1.4507e+02	-18.1022	-119.127801	0.000608	6.077864	2.059236	-0.000243
1460	1.4517e+02	-18.1391	-119.418475	0.000729	7.293436	2.471083	-0.000292
1461	1.4527e+02	-18.1808	-119.705112	0.000719	7.192139	2.436762	-0.000288
1462	1.4537e+02	-18.2145	-120.040194	0.000841	8.407711	2.848610	-0.000337
1463	1.4547e+02	-18.2578	-120.302608	0.000658	6.584352	2.230839	-0.000264
1464	1.4557e+02	-18.3011	-120.657876	0.000891	8.914200	3.020213	-0.000357
1465	1.4567e+02	-18.3444	-120.924327	0.000669	6.685650	2.265160	-0.000268
1466	1.4577e+02	-18.3701	-121.215001	0.000729	7.293436	2.471083	-0.000292
1467	1.4587e+02	-18.4214	-121.509711	0.000739	7.394734	2.505404	-0.000296
1468	1.4597e+02	-18.4535	-121.844794	0.000841	8.407711	2.848610	-0.000337
1469	1.4607e+02	-18.4984	-122.095096	0.000628	6.280459	2.127877	-0.000252
1470	1.4617e+02	-18.5417	-122.426141	0.000831	8.306414	2.814289	-0.000333
1471	1.4626e+02	-18.5754	-122.737001	0.000780	7.799925	2.642686	-0.000312
1472	1.4636e+02	-18.6187	-123.084194	0.000871	8.711604	2.951571	-0.000349
1473	1.4646e+02	-18.6572	-123.382942	0.000750	7.496032	2.539724	-0.000300
1474	1.4656e+02	-18.7021	-123.649393	0.000669	6.685650	2.265160	-0.000268
1475	1.4666e+02	-18.7439	-123.984476	0.000841	8.407711	2.848610	-0.000337
1476	1.4676e+02	-18.7808	-124.319558	0.000841	8.407711	2.848610	-0.000337
1477	1.4686e+02	-18.8128	-124.630417	0.000780	7.799925	2.642686	-0.000312
1478	1.4696e+02	-18.8562	-124.957425	0.000821	8.205116	2.779968	-0.000329
1479	1.4706e+02	-18.8979	-125.231951	0.000689	6.888245	2.333801	-0.000276
1480	1.4716e+02	-18.9316	-125.579144	0.000871	8.711604	2.951571	-0.000349
1481	1.4726e+02	-18.9733	-125.873855	0.000739	7.394734	2.505404	-0.000296
1482	1.4736e+02	-19.0230	-126.196826	0.000810	8.103818	2.745648	-0.000325
1483	1.4746e+02	-19.0615	-126.527871	0.000831	8.306414	2.814289	-0.000333
1484	1.4756e+02	-19.0936	-126.887176	0.000902	9.015498	3.054533	-0.000361
1485	1.4766e+02	-19.1401	-127.161701	0.000689	6.888245	2.333801	-0.000276
1486	1.4776e+02	-19.1786	-127.496784	0.000841	8.407711	2.848610	-0.000337
1487	1.4786e+02	-19.2187	-127.819755	0.000810	8.103818	2.745648	-0.000325
1488	1.4796e+02	-19.2636	-128.138688	0.000800	8.002520	2.711327	-0.000321
1489	1.4806e+02	-19.2909	-128.477808	0.000851	8.509009	2.882930	-0.000341
1490	1.4816e+02	-19.3278	-128.792704	0.000790	7.901223	2.677007	-0.000316
1491	1.4825e+02	-19.3743	-129.119712	0.000821	8.205116	2.779968	-0.000329
1492	1.4835e+02	-19.4112	-129.483055	0.000912	9.116795	3.088854	-0.000365
1493	1.4845e+02	-19.4593	-129.785840	0.000760	7.597329	2.574045	-0.000304
1494	1.4855e+02	-19.4978	-130.120922	0.000841	8.407711	2.848610	-0.000337
1495	1.4865e+02	-19.5363	-130.488301	0.000922	9.218093	3.123174	-0.000369
1496	1.4875e+02	-19.5716	-130.835495	0.000871	8.711604	2.951571	-0.000349
1497	1.4885e+02	-19.6085	-131.170577	0.000841	8.407711	2.848610	-0.000337
1498	1.4895e+02	-19.6470	-131.517771	0.000871	8.711604	2.951571	-0.000349
1499	1.4905e+02	-19.6968	-131.840742	0.000810	8.103818	2.745648	-0.000325
1500	1.4915e+02	-19.7353	-132.191973	0.000881	8.812902	2.985892	-0.000353
1501	1.4925e+02	-19.7738	-132.567426	0.000942	9.420688	3.191816	-0.000377
1502	1.4935e+02	-19.8123	-132.862137	0.000739	7.394734	2.505404	-0.000296
1503	1.4945e+02	-19.8492	-133.273925	0.001033	10.332368	3.500701	-0.000414
1504	1.4955e+02	-19.8989	-133.629193	0.000891	8.914200	3.020213	-0.000357
1505	1.4965e+02	-19.9358	-133.980424	0.000881	8.812902	2.985892	-0.000353
1506	1.4975e+02	-19.9711	-134.359914	0.000952	9.521986	3.226136	-0.000381
1507	1.4985e+02	-20.0144	-134.690960	0.000831	8.306414	2.814289	-0.000333
1508	1.4995e+02	-19.9743	-134.727294	-0.000091	-0.911680	-0.308885	-0.000037
1509	1.5005e+02	-19.9390	-134.759591	-0.000081	-0.810382	-0.274565	-0.000032
1510	1.5015e+02	-19.8893	-134.723257	0.000091	0.911680	0.308885	0.000037
1511	1.5025e+02	-19.8524	-134.751517	-0.000071	-0.709084	-0.240244	-0.000028
1512	1.5034e+02	-19.8155	-134.723257	0.000071	0.709084	0.240244	0.000028
1513	1.5044e+02	-19.7722	-134.686922	0.000091	0.911680	0.308885	0.000037
1514	1.5054e+02	-19.7401	-134.694997	-0.000020	-0.202595	-0.068641	-0.000008
1515	1.5064e+02	-19.7016	-134.630403	0.000162	1.620764	0.549130	0.000065
1516	1.5074e+02	-19.6535	-134.557734	0.000182	1.823359	0.617771	0.000073
1517	1.5084e+02	-19.6117	-134.513326	0.000111	1.114275	0.377527	0.000045
1518	1.5094e+02	-19.5684	-134.501214	0.000030	0.303893	0.102962	0.000012
1519	1.5104e+02	-19.5331	-134.444694	0.000142	1.418168	0.480488	0.000057
1520	1.5114e+02	-19.4914	-134.315506	0.000324	3.241527	1.098259	0.000130
1521	1.5124e+02	-19.4609	-134.343766	-0.000071	-0.709084	-0.240244	-0.000028
1522	1.5134e+02	-19.4080	-134.242838	0.000253	2.532443	0.858015	0.000101
1523	1.5144e+02	-19.3663	-134.154021	0.000223	2.228550	0.755053	0.000089
1524	1.5154e+02	-19.3342	-134.085389	0.000172	1.722061	0.583450	0.000069
1525	1.5164e+02	-19.3021	-133.944090	0.000355	3.545420	1.201221	0.000142
1526	1.5174e+02	-19.2588	-133.931978	0.000030	0.303893	0.102962	0.000012
1527	1.5184e+02	-19.2123	-133.839124	0.000233	2.329848	0.789374	0.000093
1528	1.5194e+02	-19.1754	-133.709936	0.000324	3.241527	1.098259	0.000130
1529	1.5204e+02	-19.1321	-133.604970	0.000263	2.633741	0.892336	0.000105
1530	1.5214e+02	-19.0984	-133.532302	0.000182	1.823359	0.617771	0.000073
1531	1.5224e+02	-19.0599	-133.403113	0.000324	3.241527	1.098259	0.000130
1532	1.5233e+02	-19.0230	-133.306222	0.000243	2.431145	0.823694	0.000097
1533	1.5243e+02	-18.9717	-133.209331	0.000243	2.431145	0.823694	0.000097
1534	1.5253e+02	-18.9396	-133.084180	0.000314	3.140229	1.063939	0.000126
1535	1.5263e+02	-18.9027	-132.979214	0.000263	2.633741	0.892336	0.000105
1536	1.5273e+02	-18.8545	-132.854063	0.000314	3.140229	1.063939	0.000126
1537	1.5283e+02	-18.8096	-132.773320	0.000203	2.025955	0.686412	0.000081
1538	1.5293e+02	-18.7791	-132.660280	0.000284	2.836336	0.960977	0.000114
1539	1.5303e+02	-18.7406	-132.539166	0.000304	3.038932	1.029618	0.000122
1540	1.5313e+02	-18.7021	-132.365569	0.000436	4.355802	1.475786	0.000174
1541	1.5323e+02	-18.6620	-132.268678	0.000243	2.431145	0.823694	0.000097
1542	1.5333e+02	-18.6187	-132.143527	0.000314	3.140229	1.063939	0.000126
1543	1.5343e+02	-18.5818	-132.034524	0.000274	2.735039	0.926656	0.000110
1544	1.5353e+02	-18.5385	-131.881113	0.000385	3.849314	1.304183	0.000154
1545	1.5363e+02	-18.4968	-131.768073	0.000284	2.836336	0.960977	0.000114
1546	1.5373e+02	-18.4615	-131.634848	0.000334	3.342825	1.132580	0.000134
1547	1.5383e+02	-18.4166	-131.525845	0.000274	2.735039	0.926656	0.000110
1548	1.5393e+02	-18.3829	-131.420880	0.000263	2.633741	0.892336	0.000105
1549	1.5403e+02	-18.3412	-131.247283	0.000436	4.355802	1.475786	0.000174
1550	1.5413e+02	-18.2947	-131.110020	0.000344	3.444123	1.166900	0.000138
1551	1.5422e+02	-18.2562	-130.952572	0.000395	3.950611	1.338503	0.000158
1552	1.5432e+02	-18.2193	-130.795124	0.000395	3.950611	1.338503	0.000158
1553	1.5442e+02	-18.1872	-130.686121	0.000274	2.735039	0.926656	0.000110
1554	1.5452e+02	-18.1487	-130.536747	0.000375	3.748016	1.269862	0.000150
1555	1.5462e+02	-18.1006	-130.411596	0.000314	3.140229	1.063939	0.000126
1556	1.5472e+02	-18.0605	-130.302593	0.000274	2.735039	0.926656	0.000110
1557	1.5482e+02	-18.0236	-130.128996	0.000436	4.355802	1.475786	0.000174
1558	1.5492e+02	-17.9786	-130.007882	0.000304	3.038932	1.029618	0.000122
1559	1.5502e+02	-17.9385	-129.822174	0.000466	4.659695	1.578748	0.000187
1560	1.5512e+02	-17.8952	-129.660688	0.000405	4.051909	1.372824	0.000162
1561	1.5522e+02	-17.8615	-129.515352	0.000365	3.646718	1.235542	0.000146
1562	1.5532e+02	-17.8166	-129.410386	0.000263	2.633741	0.892336	0.000105
1563	1.5542e+02	-17.7845	-129.236789	0.000436	4.355802	1.475786	0.000174
1564	1.5552e+02	-17.7332	-129.095489	0.000355	3.545420	1.201221	0.000142
1565	1.5562e+02	-17.7027	-128.897670	0.000496	4.963589	1.681709	0.000199
1566	1.5572e+02	-17.6546	-128.796741	0.000253	2.532443	0.858015	0.000101
1567	1.5582e+02	-17.6177	-128.611033	0.000466	4.659695	1.578748	0.000187
1568	1.5592e+02	-17.5872	-128.481845	0.000324	3.241527	1.098259	0.000130
1569	1.5602e+02	-17.5375	-128.384954	0.000243	2.431145	0.823694	0.000097
1570	1.5612e+02	-17.5022	-128.199245	0.000466	4.659695	1.578748	0.000187
1571	1.5622e+02	-17.4524	-128.070057	0.000324	3.241527	1.098259	0.000130
1572	1.5631e+02	-17.4268	-127.884349	0.000466	4.659695	1.578748	0.000187
1573	1.5641e+02	-17.3835	-127.730938	0.000385	3.849314	1.304183	0.000154
1574	1.5651e+02	-17.3498	-127.553304	0.000446	4.457100	1.510106	0.000179
1575	1.5661e+02	-17.3033	-127.383744	0.000425	4.254504	1.441465	0.000170
1576	1.5671e+02	-17.2631	-127.274741	0.000274	2.735039	0.926656	0.000110
1577	1.5681e+02	-17.2230	-127.109219	0.000415	4.153207	1.407145	0.000166
1578	1.5691e+02	-17.1878	-126.927548	0.000456	4.558398	1.544427	0.000183
1579	1.5701e+02	-17.1492	-126.794322	0.000334	3.342825	1.132580	0.000134
1580	1.5711e+02	-17.0963	-126.632837	0.000405	4.051909	1.372824	0.000162
1581	1.5721e+02	-17.0690	-126.422906	0.000527	5.267482	1.784671	0.000211
1582	1.5731e+02	-17.0241	-126.261420	0.000405	4.051909	1.372824	0.000162
1583	1.5741e+02	-16.9808	-126.124158	0.000344	3.444123	1.166900	0.000138
1584	1.5751e+02	-16.9503	-125.950561	0.000436	4.355802	1.475786	0.000174
1585	1.5761e+02	-16.9022	-125.776964	0.000436	4.355802	1.475786	0.000174
1586	1.5771e+02	-16.8573	-125.627590	0.000375	3.748016	1.269862	0.000150
1587	1.5781e+02	-16.8316	-125.466104	0.000405	4.051909	1.372824	0.000162
1588	1.5791e+02	-16.7803	-125.328842	0.000344	3.444123	1.166900	0.000138
1589	1.5801e+02	-16.7466	-125.131022	0.000496	4.963589	1.681709	0.000199
1590	1.5811e+02	-16.7065	-124.965500	0.000415	4.153207	1.407145	0.000166
1591	1.5821e+02	-16.6648	-124.791903	0.000436	4.355802	1.475786	0.000174
1592	1.5830e+02	-16.6295	-124.654640	0.000344	3.444123	1.166900	0.000138
1593	1.5840e+02	-16.5942	-124.468932	0.000466	4.659695	1.578748	0.000187
1594	1.5850e+02	-16.5396	-124.291298	0.000446	4.457100	1.510106	0.000179
1595	1.5860e+02	-16.4995	-124.145961	0.000365	3.646718	1.235542	0.000146
1596	1.5870e+02	-16.4626	-123.984476	0.000405	4.051909	1.372824	0.000162
1597	1.5880e+02	-16.4273	-123.790693	0.000486	4.862291	1.647389	0.000195
1598	1.5890e+02	-16.3937	-123.609022	0.000456	4.558398	1.544427	0.000183
1599	1.5900e+02	-16.3439	-123.459648	0.000375	3.748016	1.269862	0.000150
1600	1.5910e+02	-16.3070	-123.282014	0.000446	4.457100	1.510106	0.000179
1601	1.5920e+02	-16.2573	-123.104380	0.000446	4.457100	1.510106	0.000179
1602	1.5930e+02	-16.2204	-122.926746	0.000446	4.457100	1.510106	0.000179
1603	1.5940e+02	-16.1835	-122.753149	0.000436	4.355802	1.475786	0.000174
1604	1.5950e+02	-16.1418	-122.583590	0.000425	4.254504	1.441465	0.000170
1605	1.5960e+02	-16.1065	-122.422104	0.000405	4.051909	1.372824	0.000162
1606	1.5970e+02	-16.0632	-122.264656	0.000395	3.950611	1.338503	0.000158
1607	1.5980e+02	-16.0327	-122.087022	0.000446	4.457100	1.510106	0.000179
1608	1.5990e+02	-15.9926	-121.909388	0.000446	4.457100	1.510106	0.000179
1609	1.6000e+02	-15.9397	-121.719643	0.000476	4.760993	1.613068	0.000191
1610	1.6010e+02	-15.9076	-121.566231	0.000385	3.849314	1.304183	0.000154
1611	1.6019e+02	-15.8643	-121.364375	0.000506	5.064886	1.716030	0.000203
1612	1.6029e+02	-15.8258	-121.194815	0.000425	4.254504	1.441465	0.000170
1613	1.6039e+02	-15.7953	-121.045441	0.000375	3.748016	1.269862	0.000150
1614	1.6049e+02	-15.7504	-120.851658	0.000486	4.862291	1.647389	0.000195
1615	1.6059e+02	-15.7119	-120.678061	0.000436	4.355802	1.475786	0.000174
1616	1.6069e+02	-15.6669	-120.472168	0.000517	5.166184	1.750351	0.000207
1617	1.6079e+02	-15.6332	-120.298571	0.000436	4.355802	1.475786	0.000174
1618	1.6089e+02	-15.5915	-120.116900	0.000456	4.558398	1.544427	0.000183
1619	1.6099e+02	-15.5498	-120.003860	0.000284	2.836336	0.960977	0.000114
1620	1.6109e+02	-15.5065	-119.802003	0.000506	5.064886	1.716030	0.000203
1621	1.6119e+02	-15.4696	-119.624369	0.000446	4.457100	1.510106	0.000179
1622	1.6129e+02	-15.4279	-119.454809	0.000425	4.254504	1.441465	0.000170
1623	1.6139e+02	-15.3958	-119.261027	0.000486	4.862291	1.647389	0.000195
1624	1.6149e+02	-15.3493	-119.107616	0.000385	3.849314	1.304183	0.000154
1625	1.6159e+02	-15.3124	-118.897685	0.000527	5.267482	1.784671	0.000211
1626	1.6169e+02	-15.2627	-118.716014	0.000456	4.558398	1.544427	0.000183
1627	1.6179e+02	-15.2386	-118.566639	0.000375	3.748016	1.269862	0.000150
1628	1.6189e+02	-15.1937	-118.324411	0.000608	6.077864	2.059236	0.000243
1629	1.6199e+02	-15.1488	-118.199260	0.000314	3.140229	1.063939	0.000126
1630	1.6209e+02	-15.1167	-117.997403	0.000506	5.064886	1.716030	0.000203
1631	1.6219e+02	-15.0670	-117.852066	0.000365	3.646718	1.235542	0.000146
1632	1.6228e+02	-15.0252	-117.638098	0.000537	5.368779	1.818992	0.000215
1633	1.6238e+02	-14.9932	-117.464501	0.000436	4.355802	1.475786	0.000174
1634	1.6248e+02	-14.9643	-117.282830	0.000456	4.558398	1.544427	0.000183
1635	1.6258e+02	-14.9097	-117.117308	0.000415	4.153207	1.407145	0.000166
1636	1.6268e+02	-14.8744	-116.927562	0.000476	4.760993	1.613068	0.000191
1637	1.6278e+02	-14.8392	-116.762040	0.000415	4.153207	1.407145	0.000166
1638	1.6288e+02	-14.7926	-116.576332	0.000466	4.659695	1.578748	0.000187
1639	1.6298e+02	-14.7493	-116.402735	0.000436	4.355802	1.475786	0.000174
1640	1.6308e+02	-14.7044	-116.208952	0.000486	4.862291	1.647389	0.000195
1641	1.6318e+02	-14.6595	-116.019207	0.000476	4.760993	1.613068	0.000191
1642	1.6328e+02	-14.6354	-115.813313	0.000517	5.166184	1.750351	0.000207
1643	1.6338e+02	-14.5857	-115.631642	0.000456	4.558398	1.544427	0.000183
1644	1.6348e+02	-14.5520	-115.474194	0.000395	3.950611	1.338503	0.000158
1645	1.6358e+02	-14.5135	-115.280411	0.000486	4.862291	1.647389	0.000195
1646	1.6368e+02	-14.4734	-115.122963	0.000395	3.950611	1.338503	0.000158
1647	1.6378e+02	-14.4269	-114.917069	0.000517	5.166184	1.750351	0.000207
1648	1.6388e+02	-14.3932	-114.690989	0.000567	5.672673	1.921954	0.000227
1649	1.6398e+02	-14.3627	-114.521429	0.000425	4.254504	1.441465	0.000170
1650	1.6408e+02	-14.3178	-114.331684	0.000476	4.760993	1.613068	0.000191
1651	1.6418e+02	-14.2777	-114.133864	0.000496	4.963589	1.681709	0.000199
1652	1.6427e+02	-14.2231	-113.964305	0.000425	4.254504	1.441465	0.000170
1653	1.6437e+02	-14.2023	-113.774559	0.000476	4.760993	1.613068	0.000191
1654	1.6447e+02	-14.1509	-113.617111	0.000395	3.950611	1.338503	0.000158
1655	1.6457e+02	-14.1060	-113.391031	0.000567	5.672673	1.921954	0.000227
1656	1.6467e+02	-14.0755	-113.205323	0.000466	4.659695	1.578748	0.000187
1657	1.6477e+02	-14.0274	-113.023652	0.000456	4.558398	1.544427	0.000183
1658	1.6487e+02	-13.9985	-112.797573	0.000567	5.672673	1.921954	0.000227
1659	1.6497e+02	-13.9536	-112.692607	0.000263	2.633741	0.892336	0.000105
1660	1.6507e+02	-13.9119	-112.422119	0.000679	6.786948	2.299480	0.000272
1661	1.6517e+02	-13.8670	-112.256596	0.000415	4.153207	1.407145	0.000166
1662	1.6527e+02	-13.8253	-112.070888	0.000466	4.659695	1.578748	0.000187
1663	1.6537e+02	-13.7932	-111.905366	0.000415	4.153207	1.407145	0.000166
1664	1.6547e+02	-13.7563	-111.683323	0.000557	5.571375	1.887633	0.000223
1665	1.6557e+02	-13.7242	-111.533949	0.000375	3.748016	1.269862	0.000150
1666	1.6567e+02	-13.6777	-111.319981	0.000537	5.368779	1.818992	0.000215
1667	1.6577e+02	-13.6312	-111.114087	0.000517	5.166184	1.750351	0.000207
1668	1.6587e+02	-13.5943	-110.928379	0.000466	4.659695	1.578748	0.000187
1669	1.6597e+02	-13.5574	-110.734596	0.000486	4.862291	1.647389	0.000195
1670	1.6607e+02	-13.5108	-110.560999	0.000436	4.355802	1.475786	0.000174
1671	1.6616e+02	-13.4707	-110.342994	0.000547	5.470077	1.853312	0.000219
1672	1.6626e+02	-13.4419	-110.181509	0.000405	4.051909	1.372824	0.000162
1673	1.6636e+02	-13.3986	-110.020023	0.000405	4.051909	1.372824	0.000162
1674	1.6646e+02	-13.3681	-109.789906	0.000577	5.773970	1.956274	0.000231
1675	1.6656e+02	-13.3151	-109.592087	0.000496	4.963589	1.681709	0.000199
1676	1.6666e+02	-13.2718	-109.430601	0.000405	4.051909	1.372824	0.000162
1677	1.6676e+02	-13.2365	-109.224707	0.000517	5.166184	1.750351	0.000207
1678	1.6686e+02	-13.1980	-109.006702	0.000547	5.470077	1.853312	0.000219
1679	1.6696e+02	-13.1515	-108.825031	0.000456	4.558398	1.544427	0.000183
1680	1.6706e+02	-13.1226	-108.611063	0.000537	5.368779	1.818992	0.000215
1681	1.6716e+02	-13.0761	-108.437466	0.000436	4.355802	1.475786	0.000174
1682	1.6726e+02	-13.0344	-108.255795	0.000456	4.558398	1.544427	0.000183
1683	1.6736e+02	-12.9943	-108.045864	0.000527	5.267482	1.784671	0.000211
1684	1.6746e+02	-12.9638	-107.856118	0.000476	4.760993	1.613068	0.000191
1685	1.6756e+02	-12.9253	-107.642150	0.000537	5.368779	1.818992	0.000215
1686	1.6766e+02	-12.8756	-107.456442	0.000466	4.659695	1.578748	0.000187
1687	1.6776e+02	-12.8290	-107.254585	0.000506	5.064886	1.716030	0.000203
1688	1.6786e+02	-12.8034	-107.089063	0.000415	4.153207	1.407145	0.000166
1689	1.6796e+02	-12.7504	-106.850872	0.000598	5.976566	2.024915	0.000239
1690	1.6806e+02	-12.7184	-106.665163	0.000466	4.659695	1.578748	0.000187
1691	1.6816e+02	-12.6783	-106.443121	0.000557	5.571375	1.887633	0.000223
1692	1.6825e+02	-12.6349	-106.277598	0.000415	4.153207	1.407145	0.000166
1693	1.6835e+02	-12.6029	-106.087853	0.000476	4.760993	1.613068	0.000191
1694	1.6845e+02	-12.5644	-105.881959	0.000517	5.166184	1.750351	0.000207
1695	1.6855e+02	-12.5291	-105.663954	0.000547	5.470077	1.853312	0.000219
1696	1.6865e+02	-12.4793	-105.498431	0.000415	4.153207	1.407145	0.000166
1697	1.6875e+02	-12.4488	-105.304649	0.000486	4.862291	1.647389	0.000195
1698	1.6885e+02	-12.4152	-105.110866	0.000486	4.862291	1.647389	0.000195
1699	1.6895e+02	-12.3542	-104.876712	0.000588	5.875268	1.990595	0.000235
1700	1.6905e+02	-12.3237	-104.719264	0.000395	3.950611	1.338503	0.000158
1701	1.6915e+02	-12.2788	-104.460887	0.000648	6.483054	2.196518	0.000260
1702	1.6925e+02	-12.2387	-104.259030	0.000506	5.064886	1.716030	0.000203
1703	1.6935e+02	-12.2018	-104.069285	0.000476	4.760993	1.613068	0.000191
1704	1.6945e+02	-12.1681	-103.871465	0.000496	4.963589	1.681709	0.000199
1705	1.6955e+02	-12.1184	-103.677683	0.000486	4.862291	1.647389	0.000195
1706	1.6965e+02	-12.0783	-103.479863	0.000496	4.963589	1.681709	0.000199
1707	1.6975e+02	-12.0526	-103.221487	0.000648	6.483054	2.196518	0.000260
1708	1.6985e+02	-12.0045	-103.060001	0.000405	4.051909	1.372824	0.000162
1709	1.6995e+02	-11.9724	-102.866219	0.000486	4.862291	1.647389	0.000195
1710	1.7005e+02	-11.9275	-102.680510	0.000466	4.659695	1.578748	0.000187
1711	1.7015e+02	-11.8761	-102.410022	0.000679	6.786948	2.299480	0.000272
1712	1.7024e+02	-11.8424	-102.260648	0.000375	3.748016	1.269862	0.000150
1713	1.7034e+02	-11.8072	-102.038606	0.000557	5.571375	1.887633	0.000223
1714	1.7044e+02	-11.7574	-101.788303	0.000628	6.280459	2.127877	0.000252
1715	1.7054e+02	-11.7221	-101.630855	0.000395	3.950611	1.338503	0.000158
1716	1.7064e+02	-11.6836	-101.449184	0.000456	4.558398	1.544427	0.000183
1717	1.7074e+02	-11.6435	-101.202919	0.000618	6.179161	2.093557	0.000248
1718	1.7084e+02	-11.6050	-101.013173	0.000476	4.760993	1.613068	0.000191
1719	1.7094e+02	-11.5681	-100.791131	0.000557	5.571375	1.887633	0.000223
1720	1.7104e+02	-11.5168	-100.577163	0.000537	5.368779	1.818992	0.000215
1721	1.7114e+02	-11.4911	-100.355120	0.000557	5.571375	1.887633	0.000223
1722	1.7124e+02	-11.4478	-100.157301	0.000496	4.963589	1.681709	0.000199
1723	1.7134e+02	-11.4077	-99.983704	0.000436	4.355802	1.475786	0.000174
1724	1.7144e+02	-11.3724	-99.741476	0.000608	6.077864	2.059236	0.000243
1725	1.7154e+02	-11.3291	-99.571916	0.000425	4.254504	1.441465	0.000170
1726	1.7164e+02	-11.2858	-99.370059	0.000506	5.064886	1.716030	0.000203
1727	1.7174e+02	-11.2505	-99.156091	0.000537	5.368779	1.818992	0.000215
1728	1.7184e+02	-11.2024	-98.942123	0.000537	5.368779	1.818992	0.000215
1729	1.7194e+02	-11.1751	-98.728154	0.000537	5.368779	1.818992	0.000215
1730	1.7204e+02	-11.1286	-98.514186	0.000537	5.368779	1.818992	0.000215
1731	1.7213e+02	-11.0901	-98.259847	0.000638	6.381757	2.162198	0.000256
1732	1.7223e+02	-11.0500	-98.098361	0.000405	4.051909	1.372824	0.000162
1733	1.7233e+02	-11.0050	-97.880356	0.000547	5.470077	1.853312	0.000219
1734	1.7243e+02	-10.9746	-97.694648	0.000466	4.659695	1.578748	0.000187
1735	1.7253e+02	-10.9248	-97.480680	0.000537	5.368779	1.818992	0.000215
1736	1.7263e+02	-10.8895	-97.214229	0.000669	6.685650	2.265160	0.000268
1737	1.7273e+02	-10.8478	-97.024483	0.000476	4.760993	1.613068	0.000191
1738	1.7283e+02	-10.8141	-96.822626	0.000506	5.064886	1.716030	0.000203
1739	1.7293e+02	-10.7756	-96.600584	0.000557	5.571375	1.887633	0.000223
1740	1.7303e+02	-10.7355	-96.414876	0.000466	4.659695	1.578748	0.000187
1741	1.7313e+02	-10.6922	-96.160536	0.000638	6.381757	2.162198	0.000256
1742	1.7323e+02	-10.6441	-95.942531	0.000547	5.470077	1.853312	0.000219
1743	1.7333e+02	-10.6120	-95.740674	0.000506	5.064886	1.716030	0.000203
1744	1.7343e+02	-10.5671	-95.502483	0.000598	5.976566	2.024915	0.000239
1745	1.7353e+02	-10.5350	-95.304663	0.000496	4.963589	1.681709	0.000199
1746	1.7363e+02	-10.4869	-95.078584	0.000567	5.672673	1.921954	0.000227
1747	1.7373e+02	-10.4355	-94.892876	0.000466	4.659695	1.578748	0.000187
1748	1.7383e+02	-10.4099	-94.654685	0.000598	5.976566	2.024915	0.000239
1749	1.7393e+02	-10.3730	-94.452828	0.000506	5.064886	1.716030	0.000203
1750	1.7403e+02	-10.3313	-94.230785	0.000557	5.571375	1.887633	0.000223
1751	1.7413e+02	-10.2895	-94.016817	0.000537	5.368779	1.818992	0.000215
1752	1.7422e+02	-10.2527	-93.818997	0.000496	4.963589	1.681709	0.000199
1753	1.7432e+02	-10.2109	-93.600992	0.000547	5.470077	1.853312	0.000219
1754	1.7442e+02	-10.1692	-93.362801	0.000598	5.976566	2.024915	0.000239
1755	1.7452e+02	-10.1371	-93.128647	0.000588	5.875268	1.990595	0.000235
1756	1.7462e+02	-10.0858	-92.910642	0.000547	5.470077	1.853312	0.000219
1757	1.7472e+02	-10.0441	-92.716859	0.000486	4.862291	1.647389	0.000195
1758	1.7482e+02	-10.0040	-92.498854	0.000547	5.470077	1.853312	0.000219
1759	1.7492e+02	-9.9623	-92.260663	0.000598	5.976566	2.024915	0.000239
1760	1.7502e+02	-9.9238	-92.070918	0.000476	4.760993	1.613068	0.000191
1761	1.7512e+02	-9.8965	-91.816578	0.000638	6.381757	2.162198	0.000256
1762	1.7522e+02	-9.8548	-91.598573	0.000547	5.470077	1.853312	0.000219
1763	1.7532e+02	-9.8243	-91.340196	0.000648	6.483054	2.196518	0.000260
1764	1.7542e+02	-9.7682	-91.158525	0.000456	4.558398	1.544427	0.000183
1765	1.7552e+02	-9.7217	-90.867851	0.000729	7.293436	2.471083	0.000292
1766	1.7562e+02	-9.6831	-90.718477	0.000375	3.748016	1.269862	0.000150
1767	1.7572e+02	-9.6446	-90.488360	0.000577	5.773970	1.956274	0.000231
1768	1.7582e+02	-9.6013	-90.262281	0.000567	5.672673	1.921954	0.000227
1769	1.7592e+02	-9.5709	-90.052350	0.000527	5.267482	1.784671	0.000211
1770	1.7602e+02	-9.5324	-89.785899	0.000669	6.685650	2.265160	0.000268
1771	1.7612e+02	-9.4906	-89.559819	0.000567	5.672673	1.921954	0.000227
1772	1.7621e+02	-9.4586	-89.366037	0.000486	4.862291	1.647389	0.000195
1773	1.7631e+02	-9.4088	-89.135920	0.000577	5.773970	1.956274	0.000231
1774	1.7641e+02	-9.3687	-88.921952	0.000537	5.368779	1.818992	0.000215
1775	1.7651e+02	-9.3302	-88.691835	0.000577	5.773970	1.956274	0.000231
1776	1.7661e+02	-9.2933	-88.481904	0.000527	5.267482	1.784671	0.000211
1777	1.7671e+02	-9.2564	-88.223527	0.000648	6.483054	2.196518	0.000260
1778	1.7681e+02	-9.2163	-87.985336	0.000598	5.976566	2.024915	0.000239
1779	1.7691e+02	-9.1746	-87.775405	0.000527	5.267482	1.784671	0.000211
1780	1.7701e+02	-9.1345	-87.549326	0.000567	5.672673	1.921954	0.000227
1781	1.7711e+02	-9.0976	-87.311135	0.000598	5.976566	2.024915	0.000239
1782	1.7721e+02	-9.0527	-87.137538	0.000436	4.355802	1.475786	0.000174
1783	1.7731e+02	-9.0094	-86.846864	0.000729	7.293436	2.471083	0.000292
1784	1.7741e+02	-8.9741	-86.624822	0.000557	5.571375	1.887633	0.000223
1785	1.7751e+02	-8.9452	-86.382593	0.000608	6.077864	2.059236	0.000243
1786	1.7761e+02	-8.8939	-86.180737	0.000506	5.064886	1.716030	0.000203
1787	1.7771e+02	-8.8570	-85.950620	0.000577	5.773970	1.956274	0.000231
1788	1.7781e+02	-8.8121	-85.720503	0.000577	5.773970	1.956274	0.000231
1789	1.7791e+02	-8.7735	-85.445978	0.000689	6.888245	2.333801	0.000276
1790	1.7801e+02	-8.7350	-85.248158	0.000496	4.963589	1.681709	0.000199
1791	1.7810e+02	-8.6885	-84.989782	0.000648	6.483054	2.196518	0.000260
1792	1.7820e+02	-8.6548	-84.779850	0.000527	5.267482	1.784671	0.000211
1793	1.7830e+02	-8.6179	-84.525511	0.000638	6.381757	2.162198	0.000256
1794	1.7840e+02	-8.5714	-84.291357	0.000588	5.875268	1.990595	0.000235
1795	1.7850e+02	-8.5345	-84.057203	0.000588	5.875268	1.990595	0.000235
1796	1.7860e+02	-8.5040	-83.863421	0.000486	4.862291	1.647389	0.000195
1797	1.7870e+02	-8.4575	-83.625230	0.000598	5.976566	2.024915	0.000239
1798	1.7880e+02	-8.4206	-83.387039	0.000598	5.976566	2.024915	0.000239
1799	1.7890e+02	-8.3789	-83.140773	0.000618	6.179161	2.093557	0.000248
1800	1.7900e+02	-8.3372	-82.918731	0.000557	5.571375	1.887633	0.000223
1801	1.7910e+02	-8.3035	-82.680540	0.000598	5.976566	2.024915	0.000239
1802	1.7920e+02	-8.2602	-82.442349	0.000598	5.976566	2.024915	0.000239
1803	1.7930e+02	-8.2153	-82.167824	0.000689	6.888245	2.333801	0.000276
1804	1.7940e+02	-8.1639	-81.970004	0.000496	4.963589	1.681709	0.000199
1805	1.7950e+02	-8.1303	-81.723739	0.000618	6.179161	2.093557	0.000248
1806	1.7960e+02	-8.0982	-81.481511	0.000608	6.077864	2.059236	0.000243
1807	1.7970e+02	-8.0532	-81.243320	0.000598	5.976566	2.024915	0.000239
1808	1.7980e+02	-8.0260	-80.952646	0.000729	7.293436	2.471083	0.000292
1809	1.7990e+02	-7.9795	-80.791160	0.000405	4.051909	1.372824	0.000162
1810	1.8000e+02	-7.9410	-80.516635	0.000689	6.888245	2.333801	0.000276
1811	1.8009e+02	-7.8880	-80.246147	0.000679	6.786948	2.299480	0.000272
1812	1.8019e+02	-7.8575	-80.020067	0.000567	5.672673	1.921954	0.000227
1813	1.8029e+02	-7.8174	-79.818211	0.000506	5.064886	1.716030	0.000203
1814	1.8039e+02	-7.7741	-79.580020	0.000598	5.976566	2.024915	0.000239
1815	1.8049e+02	-7.7452	-79.325680	0.000638	6.381757	2.162198	0.000256
1816	1.8059e+02	-7.6987	-79.083452	0.000608	6.077864	2.059236	0.000243
1817	1.8069e+02	-7.6602	-78.845261	0.000598	5.976566	2.024915	0.000239
1818	1.8079e+02	-7.6169	-78.590921	0.000638	6.381757	2.162198	0.000256
1819	1.8089e+02	-7.5864	-78.328508	0.000658	6.584352	2.230839	0.000264
1820	1.8099e+02	-7.5351	-78.066094	0.000658	6.584352	2.230839	0.000264
1821	1.8109e+02	-7.4966	-77.840014	0.000567	5.672673	1.921954	0.000227
1822	1.8119e+02	-7.4581	-77.581637	0.000648	6.483054	2.196518	0.000260
1823	1.8129e+02	-7.4212	-77.351521	0.000577	5.773970	1.956274	0.000231
1824	1.8139e+02	-7.3843	-77.125441	0.000567	5.672673	1.921954	0.000227
1825	1.8149e+02	-7.3458	-76.891287	0.000588	5.875268	1.990595	0.000235
1826	1.8159e+02	-7.3041	-76.620799	0.000679	6.786948	2.299480	0.000272
1827	1.8169e+02	-7.2624	-76.358385	0.000658	6.584352	2.230839	0.000264
1828	1.8179e+02	-7.2303	-76.124231	0.000588	5.875268	1.990595	0.000235
1829	1.8189e+02	-7.1838	-75.861818	0.000658	6.584352	2.230839	0.000264
1830	1.8199e+02	-7.1436	-75.619590	0.000608	6.077864	2.059236	0.000243
1831	1.8209e+02	-7.1003	-75.365250	0.000638	6.381757	2.162198	0.000256
1832	1.8218e+02	-7.0586	-75.110910	0.000638	6.381757	2.162198	0.000256
1833	1.8228e+02	-7.0185	-74.888868	0.000557	5.571375	1.887633	0.000223
1834	1.8238e+02	-6.9848	-74.606268	0.000709	7.090841	2.402442	0.000284
1835	1.8248e+02	-6.9415	-74.360003	0.000618	6.179161	2.093557	0.000248
1836	1.8258e+02	-6.9014	-74.117775	0.000608	6.077864	2.059236	0.000243
1837	1.8268e+02	-6.8517	-73.843250	0.000689	6.888245	2.333801	0.000276
1838	1.8278e+02	-6.8212	-73.641393	0.000506	5.064886	1.716030	0.000203
1839	1.8288e+02	-6.7811	-73.354756	0.000719	7.192139	2.436762	0.000288
1840	1.8298e+02	-6.7394	-73.116565	0.000598	5.976566	2.024915	0.000239
1841	1.8308e+02	-6.7057	-72.854152	0.000658	6.584352	2.230839	0.000264
1842	1.8318e+02	-6.6688	-72.644220	0.000527	5.267482	1.784671	0.000211
1843	1.8328e+02	-6.6239	-72.373732	0.000679	6.786948	2.299480	0.000272
1844	1.8338e+02	-6.5774	-72.127467	0.000618	6.179161	2.093557	0.000248
1845	1.8348e+02	-6.5340	-71.844868	0.000709	7.090841	2.402442	0.000284
1846	1.8358e+02	-6.5020	-71.554194	0.000729	7.293436	2.471083	0.000292
1847	1.8368e+02	-6.4618	-71.368486	0.000466	4.659695	1.578748	0.000187
1848	1.8378e+02	-6.4217	-71.110109	0.000648	6.483054	2.196518	0.000260
1849	1.8388e+02	-6.3848	-70.847695	0.000658	6.584352	2.230839	0.000264
1850	1.8398e+02	-6.3512	-70.609504	0.000598	5.976566	2.024915	0.000239
1851	1.8407e+02	-6.3094	-70.367276	0.000608	6.077864	2.059236	0.000243
1852	1.8417e+02	-6.2693	-70.096788	0.000679	6.786948	2.299480	0.000272
1853	1.8427e+02	-6.2260	-69.822263	0.000689	6.888245	2.333801	0.000276
1854	1.8437e+02	-6.1891	-69.571960	0.000628	6.280459	2.127877	0.000252
1855	1.8447e+02	-6.1394	-69.265138	0.000770	7.698627	2.608365	0.000308
1856	1.8457e+02	-6.1153	-69.075392	0.000476	4.760993	1.613068	0.000191
1857	1.8467e+02	-6.0768	-68.796830	0.000699	6.989543	2.368121	0.000280
1858	1.8477e+02	-6.0303	-68.522305	0.000689	6.888245	2.333801	0.000276
1859	1.8487e+02	-5.9854	-68.243743	0.000699	6.989543	2.368121	0.000280
1860	1.8497e+02	-5.9437	-67.993440	0.000628	6.280459	2.127877	0.000252
1861	1.8507e+02	-5.9196	-67.735063	0.000648	6.483054	2.196518	0.000260
1862	1.8517e+02	-5.8731	-67.452464	0.000709	7.090841	2.402442	0.000284
1863	1.8527e+02	-5.8298	-67.190050	0.000658	6.584352	2.230839	0.000264
1864	1.8537e+02	-5.7881	-66.955896	0.000588	5.875268	1.990595	0.000235
1865	1.8547e+02	-5.7415	-66.701557	0.000638	6.381757	2.162198	0.000256
1866	1.8557e+02	-5.6998	-66.435106	0.000669	6.685650	2.265160	0.000268
1867	1.8567e+02	-5.6662	-66.132321	0.000760	7.597329	2.574045	0.000304
1868	1.8577e+02	-5.6293	-65.882018	0.000628	6.280459	2.127877	0.000252
1869	1.8587e+02	-5.5859	-65.607493	0.000689	6.888245	2.333801	0.000276
1870	1.8597e+02	-5.5474	-65.324893	0.000709	7.090841	2.402442	0.000284
1871	1.8606e+02	-5.5057	-65.094777	0.000577	5.773970	1.956274	0.000231
1872	1.8616e+02	-5.4688	-64.832363	0.000658	6.584352	2.230839	0.000264
1873	1.8626e+02	-5.4319	-64.573986	0.000648	6.483054	2.196518	0.000260
1874	1.8636e+02	-5.3838	-64.287349	0.000719	7.192139	2.436762	0.000288
1875	1.8646e+02	-5.3453	-64.012824	0.000689	6.888245	2.333801	0.000276
1876	1.8656e+02	-5.3132	-63.750410	0.000658	6.584352	2.230839	0.000264
1877	1.8666e+02	-5.2587	-63.459737	0.000729	7.293436	2.471083	0.000292
1878	1.8676e+02	-5.2346	-63.205397	0.000638	6.381757	2.162198	0.000256
1879	1.8686e+02	-5.1865	-62.906649	0.000750	7.496032	2.539724	0.000300
1880	1.8696e+02	-5.1496	-62.611938	0.000739	7.394734	2.505404	0.000296
1881	1.8706e+02	-5.1063	-62.402007	0.000527	5.267482	1.784671	0.000211
1882	1.8716e+02	-5.0726	-62.066925	0.000841	8.407711	2.848610	0.000337
1883	1.8726e+02	-5.0261	-61.832771	0.000588	5.875268	1.990595	0.000235
1884	1.8736e+02	-4.9876	-61.566320	0.000669	6.685650	2.265160	0.000268
1885	1.8746e+02	-4.9571	-61.279683	0.000719	7.192139	2.436762	0.000288
1886	1.8756e+02	-4.9106	-60.972861	0.000770	7.698627	2.608365	0.000308
1887	1.8766e+02	-4.8849	-60.734670	0.000598	5.976566	2.024915	0.000239
1888	1.8776e+02	-4.8352	-60.452071	0.000709	7.090841	2.402442	0.000284
1889	1.8786e+02	-4.7854	-60.181582	0.000679	6.786948	2.299480	0.000272
1890	1.8796e+02	-4.7485	-59.919169	0.000658	6.584352	2.230839	0.000264
1891	1.8806e+02	-4.7148	-59.648681	0.000679	6.786948	2.299480	0.000272
1892	1.8815e+02	-4.6699	-59.358007	0.000729	7.293436	2.471083	0.000292
1893	1.8825e+02	-4.6314	-59.075407	0.000709	7.090841	2.402442	0.000284
1894	1.8835e+02	-4.5961	-58.788771	0.000719	7.192139	2.436762	0.000288
1895	1.8845e+02	-4.5576	-58.465800	0.000810	8.103818	2.745648	0.000325
1896	1.8855e+02	-4.5143	-58.251832	0.000537	5.368779	1.818992	0.000215
1897	1.8865e+02	-4.4870	-57.961158	0.000729	7.293436	2.471083	0.000292
1898	1.8875e+02	-4.4229	-57.694707	0.000669	6.685650	2.265160	0.000268
1899	1.8885e+02	-4.3988	-57.375773	0.000800	8.002520	2.711327	0.000321
1900	1.8895e+02	-4.3603	-57.121434	0.000638	6.381757	2.162198	0.000256
1901	1.8905e+02	-4.3138	-56.806537	0.000790	7.901223	2.677007	0.000316
1902	1.8915e+02	-4.2721	-56.523937	0.000709	7.090841	2.402442	0.000284
1903	1.8925e+02	-4.2368	-56.229227	0.000739	7.394734	2.505404	0.000296
1904	1.8935e+02	-4.1999	-55.982961	0.000618	6.179161	2.093557	0.000248
1905	1.8945e+02	-4.1566	-55.668065	0.000790	7.901223	2.677007	0.000316
1906	1.8955e+02	-4.1181	-55.409688	0.000648	6.483054	2.196518	0.000260
1907	1.8965e+02	-4.0748	-55.094791	0.000790	7.901223	2.677007	0.000316
1908	1.8975e+02	-4.0330	-54.840452	0.000638	6.381757	2.162198	0.000256
1909	1.8985e+02	-3.9945	-54.529592	0.000780	7.799925	2.642686	0.000312
1910	1.8995e+02	-3.9528	-54.299476	0.000577	5.773970	1.956274	0.000231
1911	1.9004e+02	-3.9191	-53.996690	0.000760	7.597329	2.574045	0.000304
1912	1.9014e+02	-3.8774	-53.665645	0.000831	8.306414	2.814289	0.000333
1913	1.9024e+02	-3.8470	-53.383046	0.000709	7.090841	2.402442	0.000284
1914	1.9034e+02	-3.7940	-53.088335	0.000739	7.394734	2.505404	0.000296
1915	1.9044e+02	-3.7507	-52.773438	0.000790	7.901223	2.677007	0.000316
1916	1.9054e+02	-3.7218	-52.498913	0.000689	6.888245	2.333801	0.000276
1917	1.9064e+02	-3.6737	-52.147682	0.000881	8.812902	2.985892	0.000353
1918	1.9074e+02	-3.6336	-51.901417	0.000618	6.179161	2.093557	0.000248
1919	1.9084e+02	-3.5903	-51.610743	0.000729	7.293436	2.471083	0.000292
1920	1.9094e+02	-3.5550	-51.299884	0.000780	7.799925	2.642686	0.000312
1921	1.9104e+02	-3.5069	-51.049581	0.000628	6.280459	2.127877	0.000252
1922	1.9114e+02	-3.4748	-50.722573	0.000821	8.205116	2.779968	0.000329
1923	1.9124e+02	-3.4363	-50.435937	0.000719	7.192139	2.436762	0.000288
1924	1.9134e+02	-3.4010	-50.145263	0.000729	7.293436	2.471083	0.000292
1925	1.9144e+02	-3.3496	-49.826329	0.000800	8.002520	2.711327	0.000321
1926	1.9154e+02	-3.3111	-49.539693	0.000719	7.192139	2.436762	0.000288
1927	1.9164e+02	-3.2823	-49.212685	0.000821	8.205116	2.779968	0.000329
1928	1.9174e+02	-3.2406	-48.909899	0.000760	7.597329	2.574045	0.000304
1929	1.9184e+02	-3.2053	-48.619226	0.000729	7.293436	2.471083	0.000292
1930	1.9194e+02	-3.1635	-48.292218	0.000821	8.205116	2.779968	0.000329
1931	1.9203e+02	-3.1154	-47.989433	0.000760	7.597329	2.574045	0.000304
1932	1.9213e+02	-3.0721	-47.710870	0.000699	6.989543	2.368121	0.000280
1933	1.9223e+02	-3.0368	-47.444419	0.000669	6.685650	2.265160	0.000268
1934	1.9233e+02	-2.9983	-47.113374	0.000831	8.306414	2.814289	0.000333
1935	1.9243e+02	-2.9662	-46.786366	0.000821	8.205116	2.779968	0.000329
1936	1.9253e+02	-2.9165	-46.479544	0.000770	7.698627	2.608365	0.000308
1937	1.9263e+02	-2.8732	-46.184833	0.000739	7.394734	2.505404	0.000296
1938	1.9273e+02	-2.8443	-45.869936	0.000790	7.901223	2.677007	0.000316
1939	1.9283e+02	-2.7946	-45.538891	0.000831	8.306414	2.814289	0.000333
1940	1.9293e+02	-2.7657	-45.240143	0.000750	7.496032	2.539724	0.000300
1941	1.9303e+02	-2.7192	-44.961581	0.000699	6.989543	2.368121	0.000280
1942	1.9313e+02	-2.6807	-44.626498	0.000841	8.407711	2.848610	0.000337
1943	1.9323e+02	-2.6374	-44.339862	0.000719	7.192139	2.436762	0.000288
1944	1.9333e+02	-2.6005	-43.972482	0.000922	9.218093	3.123174	0.000369
1945	1.9343e+02	-2.5620	-43.706031	0.000669	6.685650	2.265160	0.000268
1946	1.9353e+02	-2.5267	-43.407283	0.000750	7.496032	2.539724	0.000300
1947	1.9363e+02	-2.4834	-43.039904	0.000922	9.218093	3.123174	0.000369
1948	1.9373e+02	-2.4400	-42.765379	0.000689	6.888245	2.333801	0.000276
1949	1.9383e+02	-2.4015	-42.434334	0.000831	8.306414	2.814289	0.000333
1950	1.9393e+02	-2.3695	-42.115400	0.000800	8.002520	2.711327	0.000321
1951	1.9403e+02	-2.3101	-41.788392	0.000821	8.205116	2.779968	0.000329
1952	1.9412e+02	-2.2908	-41.493681	0.000739	7.394734	2.505404	0.000296
1953	1.9422e+02	-2.2539	-41.158599	0.000841	8.407711	2.848610	0.000337
1954	1.9432e+02	-2.2010	-40.819479	0.000851	8.509009	2.882930	0.000341
1955	1.9442e+02	-2.1689	-40.496509	0.000810	8.103818	2.745648	0.000325
1956	1.9452e+02	-2.1208	-40.213909	0.000709	7.090841	2.402442	0.000284
1957	1.9462e+02	-2.0871	-39.830381	0.000962	9.623284	3.260457	0.000385
1958	1.9472e+02	-2.0358	-39.547782	0.000709	7.090841	2.402442	0.000284
1959	1.9482e+02	-1.9973	-39.200588	0.000871	8.711604	2.951571	0.000349
1960	1.9492e+02	-1.9684	-38.869543	0.000831	8.306414	2.814289	0.000333
1961	1.9502e+02	-1.9155	-38.534461	0.000841	8.407711	2.848610	0.000337
1962	1.9512e+02	-1.8818	-38.215527	0.000800	8.002520	2.711327	0.000321
1963	1.9522e+02	-1.8417	-37.868333	0.000871	8.711604	2.951571	0.000349
1964	1.9532e+02	-1.7999	-37.549399	0.000800	8.002520	2.711327	0.000321
1965	1.9542e+02	-1.7550	-37.254689	0.000739	7.394734	2.505404	0.000296
1966	1.9552e+02	-1.7246	-36.907495	0.000871	8.711604	2.951571	0.000349
1967	1.9562e+02	-1.6764	-36.576450	0.000831	8.306414	2.814289	0.000333
1968	1.9572e+02	-1.6395	-36.233293	0.000861	8.610307	2.917251	0.000345
1969	1.9582e+02	-1.5962	-35.894174	0.000851	8.509009	2.882930	0.000341
1970	1.9592e+02	-1.5609	-35.591389	0.000760	7.597329	2.574045	0.000304
1971	1.9601e+02	-1.5192	-35.236121	0.000891	8.914200	3.020213	0.000357
1972	1.9611e+02	-1.4855	-34.852593	0.000962	9.623284	3.260457	0.000385
1973	1.9621e+02	-1.4518	-34.541733	0.000780	7.799925	2.642686	0.000312
1974	1.9631e+02	-1.4133	-34.238948	0.000760	7.597329	2.574045	0.000304
1975	1.9641e+02	-1.3604	-33.940200	0.000750	7.496032	2.539724	0.000300
1976	1.9651e+02	-1.3251	-33.512264	0.001074	10.737559	3.637983	0.000430
1977	1.9661e+02	-1.2818	-33.177181	0.000841	8.407711	2.848610	0.000337
1978	1.9671e+02	-1.2433	-32.838062	0.000851	8.509009	2.882930	0.000341
1979	1.9681e+02	-1.2048	-32.519128	0.000800	8.002520	2.711327	0.000321
1980	1.9691e+02	-1.1631	-32.131563	0.000972	9.724582	3.294777	0.000390
1981	1.9701e+02	-1.1214	-31.820704	0.000780	7.799925	2.642686	0.000312
1982	1.9711e+02	-1.0780	-31.437176	0.000962	9.623284	3.260457	0.000385
1983	1.9721e+02	-1.0508	-31.134391	0.000760	7.597329	2.574045	0.000304
1984	1.9731e+02	-1.0042	-30.734714	0.001003	10.028475	3.397739	0.000402
1985	1.9741e+02	-0.9657	-30.440003	0.000739	7.394734	2.505404	0.000296
1986	1.9751e+02	-0.9305	-30.072624	0.000922	9.218093	3.123174	0.000369
1987	1.9761e+02	-0.8871	-29.721393	0.000881	8.812902	2.985892	0.000353
1988	1.9771e+02	-0.8486	-29.382274	0.000851	8.509009	2.882930	0.000341
1989	1.9781e+02	-0.7957	-28.990672	0.000983	9.825879	3.329098	0.000394
1990	1.9791e+02	-0.7748	-28.643478	0.000871	8.711604	2.951571	0.000349
1991	1.9800e+02	-0.7235	-28.276099	0.000922	9.218093	3.123174	0.000369
1992	1.9810e+02	-0.6962	-27.961202	0.000790	7.901223	2.677007	0.000316
1993	1.9820e+02	-0.6513	-27.581711	0.000952	9.521986	3.226136	0.000381
1994	1.9830e+02	-0.6032	-27.206258	0.000942	9.420688	3.191816	0.000377
1995	1.9840e+02	-0.5599	-26.846953	0.000902	9.015498	3.054533	0.000361
1996	1.9850e+02	-0.5326	-26.503796	0.000861	8.610307	2.917251	0.000345
1997	1.9860e+02	-0.4861	-26.144491	0.000902	9.015498	3.054533	0.000361
1998	1.9870e+02	-0.4460	-25.732703	0.001033	10.332368	3.500701	0.000414
1999	1.9880e+02	-0.4059	-25.393584	0.000851	8.509009	2.882930	0.000341
2000	1.9890e+02	-0.3642	-25.030242	0.000912	9.116795	3.088854	0.000365
2001	1.9900e+02	-0.3273	-24.646714	0.000962	9.623284	3.260457	0.000385
2002	1.9910e+02	-0.2904	-24.299520	0.000871	8.711604	2.951571	0.000349
2003	1.9920e+02	-0.2535	-23.948289	0.000881	8.812902	2.985892	0.000353
2004	1.9930e+02	-0.2021	-23.552650	0.000993	9.927177	3.363419	0.000398
2005	1.9940e+02	-0.1668	-23.201419	0.000881	8.812902	2.985892	0.000353
2006	1.9950e+02	-0.1428	-22.777520	0.001064	10.636261	3.603663	0.000426
2007	1.9960e+02	-0.0850	-22.450512	0.000821	8.205116	2.779968	0.000329
2008	1.9970e+02	-0.0561	-22.058910	0.000983	9.825879	3.329098	0.000394
2009	1.9980e+02	-0.0048	-21.695567	0.000983	9.825879	3.329098	0.000365

Center data before PMax,+/-Pr and +/-Vc Calc.

PMax (uC/cm2):	1.35e+02
Pr (uC/cm2):	1.36e+01
-Pr (uC/cm2):	-2.17e+01
PLoss (uC/cm2):	-1.40e+01
Vc:	9.15e-01
-Vc:	-1.49e+00
C (Max-Eff) (nF):	6.74e-01
K (Eff):	2.28e+03
Vert. (+/-Pr) Shift (uC/cm2):	-4.04e+00
Horiz. Shift (+/-Vc):	-2.90e-01
Offset (uC/cm2):	7.73e+00

A (Loop Area - uC/cm2·Volts):	1.63e-01



Hysteresis Version: 5.48.1 - Radiant Technologies, Inc., 1999 - 9/12/24

