»»»»»»»»»»»»»»»»»»»»»»»»»»»»»»»»»»»» Hysteresis ««««««««««««««««««««««««««««««««««««
»»»  Executed Version:	5.48.1
»»»  Vision Version:	5.48.4 (R)
»»»  Vision Compiled:	9/18/24
»»»  Driver Version:	5.47.0
»»»  Windows Version:	Windows 8 or 8.1
»»»  Processor Information:	x86 (AMD or Intel) - 32 Processors
»»»  Tester Name:	PMF21124-494 (100V)
»»»  Tester S/N:	PMF21124-494
»»»  Internal Amp Type:	100V RevK 270k
»»»  Internal Amp S/N:	iAB2-596/K     
»»»  Execution Count:	1
»»»»»»»»»»»»»»»»»»»»»»»»»»»»»»»»»»»»»»»»»»««««««««««««««««««««««««««««««««««««««««««

Stored:	6/4/2025 - 18:15:23
Configured:	06/04/25 04:39:58 PM
Executed:	06/04/25 06:14:43 PM

»»»»»»»»»»»»»»»»»»»»»»»»»»»»»»»»»»» Sample Info ««««««««««««««««««««««««««««««««««««
Sample Name:	
Lot Name:	
Wafer Name:	
Die Row/Column:	0/0
Capacitor Number:	0
Sample Area (cm2):	1.00e-04
Sample Thickness (microns):	3.00e-01

Amplifier:	Internal

»»»»»»»»»»»»»»»»»»»»»»»»»»»»»»»»»»» Tester Info «««««««««««««««««««««««««««««««««««
Tester Name:	PMF21124-494 (100V)
Tester Serial Number:	PMF21124-494
Return Signal Amp. Level:	0.19 [Index: 3]

»»»»»»»»»»»»»»»»»»»»»»»»»»»»»»»» Hysteresis Info ««««««««««««««««««««««««««««««««««
Task Name:	Hyst-147
Volts:	20.00
Field:	666.67 (kV/cm)
DCBias:	0.00
DCField:	0.00 (kV/cm)
Hysteresis Period (ms):	2.00e+02
Preset:	Enabled
Preset Delay (ms):	1.00e+03
Profile:	Standard Bipolar

»»»»»»»»»»»»»»»»»»»»»»»»»»»»»»»»»»»»»» Data «««««««««««««««««««««««««««««««««««««««
Points:	2009

Valid Data

Point	Time (ms)	Drive Voltage	Measured Polarization (uC/cm2)	Capacitance (uF)	Normalized Capacitance (uF/cm2)	Dielectric Constant	Instantaneous Current (mA)
   1	0.0000e+00	0.0016	-10.119081	0.000172	1.722787	0.583696	0.000069
   2	9.9500e-02	0.0305	-10.050449	0.000172	1.722787	0.583696	0.000069
   3	1.9900e-01	0.0626	-9.937410	0.000284	2.837531	0.961381	0.000114
   4	2.9850e-01	0.1027	-9.792073	0.000365	3.648254	1.236062	0.000146
   5	3.9800e-01	0.1524	-9.683070	0.000274	2.736190	0.927046	0.000110
   6	4.9750e-01	0.1925	-9.549845	0.000334	3.344233	1.133057	0.000134
   7	5.9700e-01	0.2358	-9.424693	0.000314	3.141552	1.064387	0.000126
   8	6.9650e-01	0.2759	-9.315691	0.000274	2.736190	0.927046	0.000110
   9	7.9600e-01	0.3000	-9.158242	0.000395	3.952275	1.339067	0.000158
  10	8.9550e-01	0.3529	-9.012906	0.000365	3.648254	1.236062	0.000146
  11	9.9500e-01	0.3834	-8.867569	0.000365	3.648254	1.236062	0.000146
  12	1.0945e+00	0.4315	-8.726269	0.000355	3.546914	1.201727	0.000142
  13	1.1940e+00	0.4668	-8.576895	0.000375	3.749594	1.270397	0.000150
  14	1.2935e+00	0.5118	-8.431558	0.000365	3.648254	1.236062	0.000146
  15	1.3930e+00	0.5438	-8.245850	0.000466	4.661658	1.579412	0.000187
  16	1.4925e+00	0.5936	-8.100513	0.000365	3.648254	1.236062	0.000146
  17	1.5920e+00	0.6337	-7.963250	0.000345	3.445573	1.167392	0.000138
  18	1.6915e+00	0.6738	-7.789653	0.000436	4.357637	1.476407	0.000174
  19	1.7910e+00	0.6962	-7.579722	0.000527	5.269700	1.785423	0.000211
  20	1.8905e+00	0.7508	-7.450534	0.000324	3.242892	1.098722	0.000130
  21	1.9900e+00	0.7829	-7.305197	0.000365	3.648254	1.236062	0.000146
  22	2.0895e+00	0.8262	-7.087192	0.000547	5.472381	1.854093	0.000219
  23	2.1890e+00	0.8647	-6.974152	0.000284	2.837531	0.961381	0.000114
  24	2.2885e+00	0.9064	-6.824778	0.000375	3.749594	1.270397	0.000150
  25	2.3880e+00	0.9465	-6.630995	0.000486	4.864339	1.648083	0.000195
  26	2.4875e+00	0.9898	-6.469510	0.000405	4.053615	1.373402	0.000162
  27	2.5870e+00	1.0187	-6.299950	0.000426	4.256296	1.442072	0.000170
  28	2.6865e+00	1.0652	-6.114242	0.000466	4.661658	1.579412	0.000187
  29	2.7860e+00	1.1101	-5.964868	0.000375	3.749594	1.270397	0.000150
  30	2.8855e+00	1.1422	-5.758974	0.000517	5.168360	1.751088	0.000207
  31	2.9850e+00	1.1855	-5.589414	0.000426	4.256296	1.442072	0.000170
  32	3.0845e+00	1.2256	-5.436003	0.000385	3.850935	1.304732	0.000154
  33	3.1840e+00	1.2657	-5.262406	0.000436	4.357637	1.476407	0.000174
  34	3.2835e+00	1.3058	-5.088810	0.000436	4.357637	1.476407	0.000174
  35	3.3830e+00	1.3460	-4.878879	0.000527	5.269700	1.785423	0.000211
  36	3.4825e+00	1.3957	-4.705282	0.000436	4.357637	1.476407	0.000174
  37	3.5820e+00	1.4278	-4.499388	0.000517	5.168360	1.751088	0.000207
  38	3.6815e+00	1.4775	-4.341939	0.000395	3.952275	1.339067	0.000158
  39	3.7810e+00	1.5016	-4.152194	0.000476	4.762998	1.613747	0.000191
  40	3.8805e+00	1.5449	-3.966486	0.000466	4.661658	1.579412	0.000187
  41	3.9800e+00	1.5834	-3.796926	0.000426	4.256296	1.442072	0.000170
  42	4.0795e+00	1.6235	-3.643515	0.000385	3.850935	1.304732	0.000154
  43	4.1790e+00	1.6700	-3.441658	0.000507	5.067019	1.716753	0.000203
  44	4.2785e+00	1.6989	-3.219616	0.000557	5.573721	1.888428	0.000223
  45	4.3780e+00	1.7470	-3.058130	0.000405	4.053615	1.373402	0.000162
  46	4.4775e+00	1.7903	-2.844162	0.000537	5.371041	1.819758	0.000215
  47	4.5770e+00	1.8224	-2.686714	0.000395	3.952275	1.339067	0.000158
  48	4.6765e+00	1.8657	-2.464671	0.000557	5.573721	1.888428	0.000223
  49	4.7760e+00	1.9058	-2.327409	0.000345	3.445573	1.167392	0.000138
  50	4.8755e+00	1.9395	-2.097292	0.000578	5.776402	1.957098	0.000231
  51	4.9750e+00	1.9844	-1.899472	0.000497	4.965679	1.682418	0.000199
  52	5.0745e+00	2.0310	-1.669356	0.000578	5.776402	1.957098	0.000231
  53	5.1740e+00	2.0679	-1.507870	0.000405	4.053615	1.373402	0.000162
  54	5.2735e+00	2.0983	-1.318125	0.000476	4.762998	1.613747	0.000191
  55	5.3730e+00	2.1465	-1.108194	0.000527	5.269700	1.785423	0.000211
  56	5.4725e+00	2.1818	-0.946708	0.000405	4.053615	1.373402	0.000162
  57	5.5720e+00	2.2299	-0.732740	0.000537	5.371041	1.819758	0.000215
  58	5.6715e+00	2.2556	-0.547032	0.000466	4.661658	1.579412	0.000187
  59	5.7710e+00	2.2989	-0.361324	0.000466	4.661658	1.579412	0.000187
  60	5.8705e+00	2.3374	-0.131207	0.000578	5.776402	1.957098	0.000231
  61	5.9700e+00	2.3791	0.050464	0.000456	4.560317	1.545077	0.000183
  62	6.0695e+00	2.4256	0.284618	0.000588	5.877742	1.991433	0.000235
  63	6.1690e+00	2.4737	0.458215	0.000436	4.357637	1.476407	0.000174
  64	6.2685e+00	2.5026	0.672183	0.000537	5.371041	1.819758	0.000215
  65	6.3680e+00	2.5395	0.849817	0.000446	4.458977	1.510742	0.000179
  66	6.4675e+00	2.5860	1.067822	0.000547	5.472381	1.854093	0.000219
  67	6.5670e+00	2.6245	1.225271	0.000395	3.952275	1.339067	0.000158
  68	6.6665e+00	2.6630	1.487685	0.000659	6.587125	2.231778	0.000264
  69	6.7660e+00	2.6935	1.673393	0.000466	4.661658	1.579412	0.000187
  70	6.8655e+00	2.7352	1.891398	0.000547	5.472381	1.854093	0.000219
  71	6.9650e+00	2.7833	2.093255	0.000507	5.067019	1.716753	0.000203
  72	7.0645e+00	2.8347	2.307223	0.000537	5.371041	1.819758	0.000215
  73	7.1640e+00	2.8620	2.505043	0.000497	4.965679	1.682418	0.000199
  74	7.2635e+00	2.9149	2.710937	0.000517	5.168360	1.751088	0.000207
  75	7.3630e+00	2.9325	2.920868	0.000527	5.269700	1.785423	0.000211
  76	7.4625e+00	2.9791	3.094465	0.000436	4.357637	1.476407	0.000174
  77	7.5620e+00	3.0160	3.348804	0.000638	6.384444	2.163108	0.000256
  78	7.6615e+00	3.0577	3.542587	0.000486	4.864339	1.648083	0.000195
  79	7.7610e+00	3.0946	3.788852	0.000618	6.181764	2.094438	0.000248
  80	7.8605e+00	3.1315	3.950337	0.000405	4.053615	1.373402	0.000162
  81	7.9600e+00	3.1796	4.152194	0.000507	5.067019	1.716753	0.000203
  82	8.0595e+00	3.2197	4.406534	0.000638	6.384444	2.163108	0.000256
  83	8.1590e+00	3.2726	4.572056	0.000415	4.154956	1.407737	0.000166
  84	8.2585e+00	3.3015	4.810247	0.000598	5.979083	2.025768	0.000239
  85	8.3580e+00	3.3448	5.036327	0.000568	5.675062	1.922763	0.000227
  86	8.4575e+00	3.3801	5.209924	0.000436	4.357637	1.476407	0.000174
  87	8.5570e+00	3.4186	5.419855	0.000527	5.269700	1.785423	0.000211
  88	8.6565e+00	3.4571	5.649971	0.000578	5.776402	1.957098	0.000231
  89	8.7560e+00	3.4940	5.867977	0.000547	5.472381	1.854093	0.000219
  90	8.8555e+00	3.5405	6.057722	0.000476	4.762998	1.613747	0.000191
  91	8.9550e+00	3.5742	6.287839	0.000578	5.776402	1.957098	0.000231
  92	9.0545e+00	3.6127	6.517956	0.000578	5.776402	1.957098	0.000231
  93	9.1540e+00	3.6560	6.707701	0.000476	4.762998	1.613747	0.000191
  94	9.2535e+00	3.6929	6.921669	0.000537	5.371041	1.819758	0.000215
  95	9.3530e+00	3.7427	7.111415	0.000476	4.762998	1.613747	0.000191
  96	9.4525e+00	3.7812	7.325383	0.000537	5.371041	1.819758	0.000215
  97	9.5520e+00	3.8181	7.555500	0.000578	5.776402	1.957098	0.000231
  98	9.6515e+00	3.8518	7.777542	0.000557	5.573721	1.888428	0.000223
  99	9.7510e+00	3.8983	7.987473	0.000527	5.269700	1.785423	0.000211
 100	9.8505e+00	3.9320	8.237775	0.000628	6.283104	2.128773	0.000252
 101	9.9500e+00	3.9753	8.435595	0.000497	4.965679	1.682418	0.000199
 102	1.0050e+01	4.0170	8.645526	0.000527	5.269700	1.785423	0.000211
 103	1.0149e+01	4.0603	8.875643	0.000578	5.776402	1.957098	0.000231
 104	1.0248e+01	4.0988	9.061351	0.000466	4.661658	1.579412	0.000187
 105	1.0348e+01	4.1325	9.331839	0.000679	6.789806	2.300449	0.000272
 106	1.0447e+01	4.1678	9.477176	0.000365	3.648254	1.236062	0.000146
 107	1.0547e+01	4.2111	9.751701	0.000689	6.891146	2.334784	0.000276
 108	1.0646e+01	4.2528	9.973744	0.000557	5.573721	1.888428	0.000223
 109	1.0746e+01	4.2865	10.106969	0.000334	3.344233	1.133057	0.000134
 110	1.0845e+01	4.3266	10.377457	0.000679	6.789806	2.300449	0.000272
 111	1.0945e+01	4.3683	10.611611	0.000588	5.877742	1.991433	0.000235
 112	1.1044e+01	4.4213	10.833654	0.000557	5.573721	1.888428	0.000223
 113	1.1144e+01	4.4582	11.007251	0.000436	4.357637	1.476407	0.000174
 114	1.1243e+01	4.4983	11.265627	0.000649	6.485785	2.197443	0.000260
 115	1.1343e+01	4.5384	11.507855	0.000608	6.080423	2.060103	0.000243
 116	1.1443e+01	4.5689	11.673378	0.000415	4.154956	1.407737	0.000166
 117	1.1542e+01	4.6090	11.911569	0.000598	5.979083	2.025768	0.000239
 118	1.1642e+01	4.6587	12.137649	0.000568	5.675062	1.922763	0.000227
 119	1.1741e+01	4.6924	12.343543	0.000517	5.168360	1.751088	0.000207
 120	1.1841e+01	4.7325	12.573659	0.000578	5.776402	1.957098	0.000231
 121	1.1940e+01	4.7742	12.783590	0.000527	5.269700	1.785423	0.000211
 122	1.2040e+01	4.8095	13.001596	0.000547	5.472381	1.854093	0.000219
 123	1.2139e+01	4.8528	13.235750	0.000588	5.877742	1.991433	0.000235
 124	1.2239e+01	4.8961	13.417421	0.000456	4.560317	1.545077	0.000183
 125	1.2338e+01	4.9314	13.635426	0.000547	5.472381	1.854093	0.000219
 126	1.2438e+01	4.9651	13.889766	0.000638	6.384444	2.163108	0.000256
 127	1.2537e+01	5.0084	14.144105	0.000638	6.384444	2.163108	0.000256
 128	1.2636e+01	5.0646	14.297516	0.000385	3.850935	1.304732	0.000154
 129	1.2736e+01	5.0902	14.572041	0.000689	6.891146	2.334784	0.000276
 130	1.2835e+01	5.1384	14.769861	0.000497	4.965679	1.682418	0.000199
 131	1.2935e+01	5.1785	14.991904	0.000557	5.573721	1.888428	0.000223
 132	1.3034e+01	5.2105	15.185686	0.000486	4.864339	1.648083	0.000195
 133	1.3134e+01	5.2555	15.427914	0.000608	6.080423	2.060103	0.000243
 134	1.3233e+01	5.2908	15.641882	0.000537	5.371041	1.819758	0.000215
 135	1.3333e+01	5.3325	15.884111	0.000608	6.080423	2.060103	0.000243
 136	1.3432e+01	5.3822	16.102116	0.000547	5.472381	1.854093	0.000219
 137	1.3532e+01	5.4175	16.320121	0.000547	5.472381	1.854093	0.000219
 138	1.3632e+01	5.4480	16.566387	0.000618	6.181764	2.094438	0.000248
 139	1.3731e+01	5.4817	16.796503	0.000578	5.776402	1.957098	0.000231
 140	1.3831e+01	5.5378	16.974137	0.000446	4.458977	1.510742	0.000179
 141	1.3930e+01	5.5763	17.220402	0.000618	6.181764	2.094438	0.000248
 142	1.4030e+01	5.6052	17.434371	0.000537	5.371041	1.819758	0.000215
 143	1.4129e+01	5.6469	17.648339	0.000537	5.371041	1.819758	0.000215
 144	1.4229e+01	5.6886	17.906716	0.000649	6.485785	2.197443	0.000260
 145	1.4328e+01	5.7319	18.116647	0.000527	5.269700	1.785423	0.000211
 146	1.4428e+01	5.7768	18.318503	0.000507	5.067019	1.716753	0.000203
 147	1.4527e+01	5.8105	18.528434	0.000527	5.269700	1.785423	0.000211
 148	1.4627e+01	5.8490	18.786811	0.000649	6.485785	2.197443	0.000260
 149	1.4726e+01	5.8940	18.992705	0.000517	5.168360	1.751088	0.000207
 150	1.4825e+01	5.9180	19.255119	0.000659	6.587125	2.231778	0.000264
 151	1.4925e+01	5.9613	19.440827	0.000466	4.661658	1.579412	0.000187
 152	1.5024e+01	6.0046	19.654795	0.000537	5.371041	1.819758	0.000215
 153	1.5124e+01	6.0447	19.868764	0.000537	5.371041	1.819758	0.000215
 154	1.5223e+01	6.0865	20.102917	0.000588	5.877742	1.991433	0.000235
 155	1.5323e+01	6.1330	20.328997	0.000568	5.675062	1.922763	0.000227
 156	1.5422e+01	6.1731	20.583337	0.000638	6.384444	2.163108	0.000256
 157	1.5522e+01	6.2132	20.785193	0.000507	5.067019	1.716753	0.000203
 158	1.5621e+01	6.2581	20.987050	0.000507	5.067019	1.716753	0.000203
 159	1.5721e+01	6.2870	21.225241	0.000598	5.979083	2.025768	0.000239
 160	1.5820e+01	6.3335	21.439209	0.000537	5.371041	1.819758	0.000215
 161	1.5920e+01	6.3784	21.624918	0.000466	4.661658	1.579412	0.000187
 162	1.6020e+01	6.4009	21.907517	0.000709	7.093827	2.403454	0.000284
 163	1.6119e+01	6.4410	22.125522	0.000547	5.472381	1.854093	0.000219
 164	1.6218e+01	6.4891	22.343528	0.000547	5.472381	1.854093	0.000219
 165	1.6318e+01	6.5244	22.561533	0.000547	5.472381	1.854093	0.000219
 166	1.6418e+01	6.5677	22.747241	0.000466	4.661658	1.579412	0.000187
 167	1.6517e+01	6.5950	23.021767	0.000689	6.891146	2.334784	0.000276
 168	1.6616e+01	6.6431	23.259958	0.000598	5.979083	2.025768	0.000239
 169	1.6716e+01	6.6816	23.453740	0.000486	4.864339	1.648083	0.000195
 170	1.6816e+01	6.7298	23.687894	0.000588	5.877742	1.991433	0.000235
 171	1.6915e+01	6.7634	23.913974	0.000568	5.675062	1.922763	0.000227
 172	1.7015e+01	6.8068	24.136016	0.000557	5.573721	1.888428	0.000223
 173	1.7114e+01	6.8404	24.341910	0.000517	5.168360	1.751088	0.000207
 174	1.7213e+01	6.8902	24.551841	0.000527	5.269700	1.785423	0.000211
 175	1.7313e+01	6.9303	24.802143	0.000628	6.283104	2.128773	0.000252
 176	1.7413e+01	6.9640	25.036297	0.000588	5.877742	1.991433	0.000235
 177	1.7512e+01	7.0073	25.258340	0.000557	5.573721	1.888428	0.000223
 178	1.7611e+01	7.0458	25.448085	0.000476	4.762998	1.613747	0.000191
 179	1.7711e+01	7.0747	25.706462	0.000649	6.485785	2.197443	0.000260
 180	1.7811e+01	7.1260	25.924467	0.000547	5.472381	1.854093	0.000219
 181	1.7910e+01	7.1645	26.098064	0.000436	4.357637	1.476407	0.000174
 182	1.8009e+01	7.1966	26.348366	0.000628	6.283104	2.128773	0.000252
 183	1.8109e+01	7.2383	26.610780	0.000659	6.587125	2.231778	0.000264
 184	1.8209e+01	7.2832	26.804563	0.000486	4.864339	1.648083	0.000195
 185	1.8308e+01	7.3217	27.095237	0.000730	7.296508	2.472124	0.000292
 186	1.8407e+01	7.3586	27.280945	0.000466	4.661658	1.579412	0.000187
 187	1.8507e+01	7.4019	27.511061	0.000578	5.776402	1.957098	0.000231
 188	1.8607e+01	7.4420	27.733104	0.000557	5.573721	1.888428	0.000223
 189	1.8706e+01	7.4821	27.922849	0.000476	4.762998	1.613747	0.000191
 190	1.8805e+01	7.5174	28.217560	0.000740	7.397848	2.506459	0.000296
 191	1.8905e+01	7.5656	28.370971	0.000385	3.850935	1.304732	0.000154
 192	1.9005e+01	7.6025	28.625311	0.000638	6.384444	2.163108	0.000256
 193	1.9104e+01	7.6474	28.843316	0.000547	5.472381	1.854093	0.000219
 194	1.9203e+01	7.6859	29.069396	0.000568	5.675062	1.922763	0.000227
 195	1.9303e+01	7.7180	29.283364	0.000537	5.371041	1.819758	0.000215
 196	1.9402e+01	7.7613	29.525592	0.000608	6.080423	2.060103	0.000243
 197	1.9502e+01	7.8030	29.723412	0.000497	4.965679	1.682418	0.000199
 198	1.9602e+01	7.8415	29.953529	0.000578	5.776402	1.957098	0.000231
 199	1.9701e+01	7.8784	30.195757	0.000608	6.080423	2.060103	0.000243
 200	1.9800e+01	7.9281	30.389539	0.000486	4.864339	1.648083	0.000195
 201	1.9900e+01	7.9618	30.655990	0.000669	6.688466	2.266113	0.000268
 202	2.0000e+01	8.0051	30.857847	0.000507	5.067019	1.716753	0.000203
 203	2.0099e+01	8.0356	31.100075	0.000608	6.080423	2.060103	0.000243
 204	2.0198e+01	8.0741	31.310006	0.000527	5.269700	1.785423	0.000211
 205	2.0298e+01	8.1158	31.556271	0.000618	6.181764	2.094438	0.000248
 206	2.0398e+01	8.1671	31.782351	0.000568	5.675062	1.922763	0.000227
 207	2.0497e+01	8.1960	31.992282	0.000527	5.269700	1.785423	0.000211
 208	2.0596e+01	8.2329	32.246622	0.000638	6.384444	2.163108	0.000256
 209	2.0696e+01	8.2810	32.456553	0.000527	5.269700	1.785423	0.000211
 210	2.0796e+01	8.3196	32.666484	0.000527	5.269700	1.785423	0.000211
 211	2.0895e+01	8.3581	32.880452	0.000537	5.371041	1.819758	0.000215
 212	2.0994e+01	8.4014	33.098457	0.000547	5.472381	1.854093	0.000219
 213	2.1094e+01	8.4399	33.344723	0.000618	6.181764	2.094438	0.000248
 214	2.1194e+01	8.4816	33.574839	0.000578	5.776402	1.957098	0.000231
 215	2.1293e+01	8.5121	33.776696	0.000507	5.067019	1.716753	0.000203
 216	2.1392e+01	8.5506	34.006813	0.000578	5.776402	1.957098	0.000231
 217	2.1492e+01	8.5987	34.216744	0.000527	5.269700	1.785423	0.000211
 218	2.1591e+01	8.6420	34.454935	0.000598	5.979083	2.025768	0.000239
 219	2.1691e+01	8.6741	34.701200	0.000618	6.181764	2.094438	0.000248
 220	2.1791e+01	8.7206	34.907094	0.000517	5.168360	1.751088	0.000207
 221	2.1890e+01	8.7639	35.112988	0.000517	5.168360	1.751088	0.000207
 222	2.1989e+01	8.8024	35.343105	0.000578	5.776402	1.957098	0.000231
 223	2.2089e+01	8.8345	35.581296	0.000598	5.979083	2.025768	0.000239
 224	2.2189e+01	8.8794	35.807375	0.000568	5.675062	1.922763	0.000227
 225	2.2288e+01	8.9292	36.025381	0.000547	5.472381	1.854093	0.000219
 226	2.2387e+01	8.9516	36.283757	0.000649	6.485785	2.197443	0.000260
 227	2.2487e+01	8.9965	36.465429	0.000456	4.560317	1.545077	0.000183
 228	2.2587e+01	9.0334	36.727842	0.000659	6.587125	2.231778	0.000264
 229	2.2686e+01	9.0719	36.937773	0.000527	5.269700	1.785423	0.000211
 230	2.2785e+01	9.1136	37.151742	0.000537	5.371041	1.819758	0.000215
 231	2.2885e+01	9.1666	37.337450	0.000466	4.661658	1.579412	0.000187
 232	2.2985e+01	9.1939	37.547381	0.000527	5.269700	1.785423	0.000211
 233	2.3084e+01	9.2259	37.777498	0.000578	5.776402	1.957098	0.000231
 234	2.3183e+01	9.2805	38.019726	0.000608	6.080423	2.060103	0.000243
 235	2.3283e+01	9.3142	38.274065	0.000638	6.384444	2.163108	0.000256
 236	2.3383e+01	9.3575	38.475922	0.000507	5.067019	1.716753	0.000203
 237	2.3482e+01	9.3928	38.718150	0.000608	6.080423	2.060103	0.000243
 238	2.3581e+01	9.4441	38.944230	0.000568	5.675062	1.922763	0.000227
 239	2.3681e+01	9.4714	39.170309	0.000568	5.675062	1.922763	0.000227
 240	2.3780e+01	9.5115	39.404463	0.000588	5.877742	1.991433	0.000235
 241	2.3880e+01	9.5500	39.610357	0.000517	5.168360	1.751088	0.000207
 242	2.3980e+01	9.5965	39.828363	0.000547	5.472381	1.854093	0.000219
 243	2.4079e+01	9.6414	40.062516	0.000588	5.877742	1.991433	0.000235
 244	2.4178e+01	9.6719	40.296670	0.000588	5.877742	1.991433	0.000235
 245	2.4278e+01	9.7152	40.546973	0.000628	6.283104	2.128773	0.000252
 246	2.4378e+01	9.7569	40.704421	0.000395	3.952275	1.339067	0.000158
 247	2.4477e+01	9.7922	40.962798	0.000649	6.485785	2.197443	0.000260
 248	2.4576e+01	9.8323	41.172729	0.000527	5.269700	1.785423	0.000211
 249	2.4676e+01	9.8757	41.370548	0.000497	4.965679	1.682418	0.000199
 250	2.4776e+01	9.9110	41.636999	0.000669	6.688466	2.266113	0.000268
 251	2.4875e+01	9.9543	41.867116	0.000578	5.776402	1.957098	0.000231
 252	2.4974e+01	9.9960	42.056862	0.000476	4.762998	1.613747	0.000191
 253	2.5074e+01	10.0297	42.315238	0.000649	6.485785	2.197443	0.000260
 254	2.5174e+01	10.0698	42.513058	0.000497	4.965679	1.682418	0.000199
 255	2.5273e+01	10.1163	42.739137	0.000568	5.675062	1.922763	0.000227
 256	2.5372e+01	10.1516	42.945031	0.000517	5.168360	1.751088	0.000207
 257	2.5472e+01	10.1933	43.191297	0.000618	6.181764	2.094438	0.000248
 258	2.5572e+01	10.2366	43.413339	0.000557	5.573721	1.888428	0.000223
 259	2.5671e+01	10.2719	43.615196	0.000507	5.067019	1.716753	0.000203
 260	2.5770e+01	10.3088	43.845313	0.000578	5.776402	1.957098	0.000231
 261	2.5870e+01	10.3553	44.055244	0.000527	5.269700	1.785423	0.000211
 262	2.5970e+01	10.3890	44.289398	0.000588	5.877742	1.991433	0.000235
 263	2.6069e+01	10.4291	44.511440	0.000557	5.573721	1.888428	0.000223
 264	2.6169e+01	10.4740	44.729445	0.000547	5.472381	1.854093	0.000219
 265	2.6268e+01	10.5077	44.975711	0.000618	6.181764	2.094438	0.000248
 266	2.6367e+01	10.5494	45.193716	0.000547	5.472381	1.854093	0.000219
 267	2.6467e+01	10.5847	45.423833	0.000578	5.776402	1.957098	0.000231
 268	2.6567e+01	10.6441	45.609541	0.000466	4.661658	1.579412	0.000187
 269	2.6666e+01	10.6730	45.807361	0.000497	4.965679	1.682418	0.000199
 270	2.6765e+01	10.7195	46.061700	0.000638	6.384444	2.163108	0.000256
 271	2.6865e+01	10.7580	46.295854	0.000588	5.877742	1.991433	0.000235
 272	2.6965e+01	10.7917	46.517897	0.000557	5.573721	1.888428	0.000223
 273	2.7064e+01	10.8350	46.723790	0.000517	5.168360	1.751088	0.000207
 274	2.7163e+01	10.8655	46.986204	0.000659	6.587125	2.231778	0.000264
 275	2.7263e+01	10.9120	47.171913	0.000466	4.661658	1.579412	0.000187
 276	2.7363e+01	10.9537	47.385881	0.000537	5.371041	1.819758	0.000215
 277	2.7462e+01	10.9890	47.620035	0.000588	5.877742	1.991433	0.000235
 278	2.7561e+01	11.0275	47.834003	0.000537	5.371041	1.819758	0.000215
 279	2.7661e+01	11.0708	48.031822	0.000497	4.965679	1.682418	0.000199
 280	2.7761e+01	11.1077	48.270013	0.000598	5.979083	2.025768	0.000239
 281	2.7860e+01	11.1494	48.520316	0.000628	6.283104	2.128773	0.000252
 282	2.7959e+01	11.1815	48.730247	0.000527	5.269700	1.785423	0.000211
 283	2.8059e+01	11.2264	48.948252	0.000547	5.472381	1.854093	0.000219
 284	2.8159e+01	11.2697	49.121849	0.000436	4.357637	1.476407	0.000174
 285	2.8258e+01	11.3050	49.364077	0.000608	6.080423	2.060103	0.000243
 286	2.8358e+01	11.3467	49.590157	0.000568	5.675062	1.922763	0.000227
 287	2.8457e+01	11.3949	49.808162	0.000547	5.472381	1.854093	0.000219
 288	2.8556e+01	11.4270	50.030205	0.000557	5.573721	1.888428	0.000223
 289	2.8656e+01	11.4687	50.288581	0.000649	6.485785	2.197443	0.000260
 290	2.8756e+01	11.5072	50.490438	0.000507	5.067019	1.716753	0.000203
 291	2.8855e+01	11.5537	50.736703	0.000618	6.181764	2.094438	0.000248
 292	2.8954e+01	11.5938	50.922412	0.000466	4.661658	1.579412	0.000187
 293	2.9054e+01	11.6243	51.156566	0.000588	5.877742	1.991433	0.000235
 294	2.9154e+01	11.6660	51.366497	0.000527	5.269700	1.785423	0.000211
 295	2.9253e+01	11.7045	51.584502	0.000547	5.472381	1.854093	0.000219
 296	2.9352e+01	11.7526	51.802507	0.000547	5.472381	1.854093	0.000219
 297	2.9452e+01	11.7831	52.064921	0.000659	6.587125	2.231778	0.000264
 298	2.9552e+01	11.8280	52.262741	0.000497	4.965679	1.682418	0.000199
 299	2.9651e+01	11.8633	52.468635	0.000517	5.168360	1.751088	0.000207
 300	2.9750e+01	11.9098	52.662417	0.000486	4.864339	1.648083	0.000195
 301	2.9850e+01	11.9531	52.928868	0.000669	6.688466	2.266113	0.000268
 302	2.9950e+01	11.9916	53.163022	0.000588	5.877742	1.991433	0.000235
 303	3.0049e+01	12.0269	53.356804	0.000486	4.864339	1.648083	0.000195
 304	3.0148e+01	12.0558	53.635367	0.000699	6.992487	2.369119	0.000280
 305	3.0248e+01	12.1023	53.796852	0.000405	4.053615	1.373402	0.000162
 306	3.0348e+01	12.1360	53.990635	0.000486	4.864339	1.648083	0.000195
 307	3.0447e+01	12.1841	54.253049	0.000659	6.587125	2.231778	0.000264
 308	3.0547e+01	12.2210	54.442794	0.000476	4.762998	1.613747	0.000191
 309	3.0646e+01	12.2644	54.689059	0.000618	6.181764	2.094438	0.000248
 310	3.0745e+01	12.3045	54.874768	0.000466	4.661658	1.579412	0.000187
 311	3.0845e+01	12.3478	55.104884	0.000578	5.776402	1.957098	0.000231
 312	3.0945e+01	12.3863	55.363261	0.000649	6.485785	2.197443	0.000260
 313	3.1044e+01	12.4200	55.553006	0.000476	4.762998	1.613747	0.000191
 314	3.1143e+01	12.4649	55.754863	0.000507	5.067019	1.716753	0.000203
 315	3.1243e+01	12.4970	55.972868	0.000547	5.472381	1.854093	0.000219
 316	3.1343e+01	12.5499	56.182799	0.000527	5.269700	1.785423	0.000211
 317	3.1442e+01	12.5804	56.437139	0.000638	6.384444	2.163108	0.000256
 318	3.1541e+01	12.6285	56.643033	0.000517	5.168360	1.751088	0.000207
 319	3.1641e+01	12.6590	56.873150	0.000578	5.776402	1.957098	0.000231
 320	3.1741e+01	12.6991	57.079044	0.000517	5.168360	1.751088	0.000207
 321	3.1840e+01	12.7424	57.293012	0.000537	5.371041	1.819758	0.000215
 322	3.1939e+01	12.7841	57.490831	0.000497	4.965679	1.682418	0.000199
 323	3.2039e+01	12.8258	57.749208	0.000649	6.485785	2.197443	0.000260
 324	3.2139e+01	12.8643	57.979325	0.000578	5.776402	1.957098	0.000231
 325	3.2238e+01	12.9044	58.185219	0.000517	5.168360	1.751088	0.000207
 326	3.2337e+01	12.9381	58.419373	0.000588	5.877742	1.991433	0.000235
 327	3.2437e+01	12.9798	58.613155	0.000486	4.864339	1.648083	0.000195
 328	3.2536e+01	13.0151	58.815012	0.000507	5.067019	1.716753	0.000203
 329	3.2636e+01	13.0585	59.045129	0.000578	5.776402	1.957098	0.000231
 330	3.2736e+01	13.0954	59.263134	0.000547	5.472381	1.854093	0.000219
 331	3.2835e+01	13.1419	59.473065	0.000527	5.269700	1.785423	0.000211
 332	3.2934e+01	13.1804	59.703182	0.000578	5.776402	1.957098	0.000231
 333	3.3034e+01	13.2141	59.909076	0.000517	5.168360	1.751088	0.000207
 334	3.3133e+01	13.2638	60.151304	0.000608	6.080423	2.060103	0.000243
 335	3.3233e+01	13.2959	60.308752	0.000395	3.952275	1.339067	0.000158
 336	3.3333e+01	13.3376	60.546943	0.000598	5.979083	2.025768	0.000239
 337	3.3432e+01	13.3777	60.801283	0.000638	6.384444	2.163108	0.000256
 338	3.3532e+01	13.4306	61.035437	0.000588	5.877742	1.991433	0.000235
 339	3.3631e+01	13.4531	61.245368	0.000527	5.269700	1.785423	0.000211
 340	3.3730e+01	13.5012	61.455299	0.000527	5.269700	1.785423	0.000211
 341	3.3830e+01	13.5365	61.632933	0.000446	4.458977	1.510742	0.000179
 342	3.3929e+01	13.5782	61.871124	0.000598	5.979083	2.025768	0.000239
 343	3.4029e+01	13.6167	62.068943	0.000497	4.965679	1.682418	0.000199
 344	3.4129e+01	13.6520	62.303097	0.000588	5.877742	1.991433	0.000235
 345	3.4228e+01	13.7001	62.533214	0.000578	5.776402	1.957098	0.000231
 346	3.4328e+01	13.7435	62.747182	0.000537	5.371041	1.819758	0.000215
 347	3.4427e+01	13.7739	62.949039	0.000507	5.067019	1.716753	0.000203
 348	3.4526e+01	13.8205	63.179156	0.000578	5.776402	1.957098	0.000231
 349	3.4626e+01	13.8542	63.372938	0.000486	4.864339	1.648083	0.000195
 350	3.4725e+01	13.8927	63.631315	0.000649	6.485785	2.197443	0.000260
 351	3.4825e+01	13.9392	63.833172	0.000507	5.067019	1.716753	0.000203
 352	3.4925e+01	13.9745	64.047140	0.000537	5.371041	1.819758	0.000215
 353	3.5024e+01	14.0162	64.228811	0.000456	4.560317	1.545077	0.000183
 354	3.5123e+01	14.0531	64.446816	0.000547	5.472381	1.854093	0.000219
 355	3.5223e+01	14.0884	64.689044	0.000608	6.080423	2.060103	0.000243
 356	3.5322e+01	14.1349	64.911087	0.000557	5.573721	1.888428	0.000223
 357	3.5422e+01	14.1638	65.141204	0.000578	5.776402	1.957098	0.000231
 358	3.5522e+01	14.2231	65.330949	0.000476	4.762998	1.613747	0.000191
 359	3.5621e+01	14.2520	65.561066	0.000578	5.776402	1.957098	0.000231
 360	3.5721e+01	14.2857	65.770997	0.000527	5.269700	1.785423	0.000211
 361	3.5820e+01	14.3338	66.021299	0.000628	6.283104	2.128773	0.000252
 362	3.5919e+01	14.3868	66.227193	0.000517	5.168360	1.751088	0.000207
 363	3.6019e+01	14.4108	66.433087	0.000517	5.168360	1.751088	0.000207
 364	3.6118e+01	14.4557	66.630907	0.000497	4.965679	1.682418	0.000199
 365	3.6218e+01	14.4975	66.869098	0.000598	5.979083	2.025768	0.000239
 366	3.6318e+01	14.5392	67.119400	0.000628	6.283104	2.128773	0.000252
 367	3.6417e+01	14.5761	67.301071	0.000456	4.560317	1.545077	0.000183
 368	3.6517e+01	14.6210	67.490817	0.000476	4.762998	1.613747	0.000191
 369	3.6616e+01	14.6547	67.733045	0.000608	6.080423	2.060103	0.000243
 370	3.6715e+01	14.7028	67.951050	0.000547	5.472381	1.854093	0.000219
 371	3.6815e+01	14.7285	68.140796	0.000476	4.762998	1.613747	0.000191
 372	3.6914e+01	14.7686	68.362838	0.000557	5.573721	1.888428	0.000223
 373	3.7014e+01	14.8167	68.621215	0.000649	6.485785	2.197443	0.000260
 374	3.7114e+01	14.8616	68.786737	0.000415	4.154956	1.407737	0.000166
 375	3.7213e+01	14.8953	69.061263	0.000689	6.891146	2.334784	0.000276
 376	3.7313e+01	14.9354	69.222748	0.000405	4.053615	1.373402	0.000162
 377	3.7412e+01	14.9771	69.440753	0.000547	5.472381	1.854093	0.000219
 378	3.7511e+01	15.0124	69.682981	0.000608	6.080423	2.060103	0.000243
 379	3.7611e+01	15.0541	69.905024	0.000557	5.573721	1.888428	0.000223
 380	3.7711e+01	15.0878	70.102844	0.000497	4.965679	1.682418	0.000199
 381	3.7810e+01	15.1247	70.316812	0.000537	5.371041	1.819758	0.000215
 382	3.7910e+01	15.1776	70.530780	0.000537	5.371041	1.819758	0.000215
 383	3.8009e+01	15.2242	70.744748	0.000537	5.371041	1.819758	0.000215
 384	3.8108e+01	15.2546	70.966791	0.000557	5.573721	1.888428	0.000223
 385	3.8208e+01	15.2803	71.196907	0.000578	5.776402	1.957098	0.000231
 386	3.8307e+01	15.3220	71.366467	0.000426	4.256296	1.442072	0.000170
 387	3.8407e+01	15.3702	71.632918	0.000669	6.688466	2.266113	0.000268
 388	3.8507e+01	15.4071	71.850923	0.000547	5.472381	1.854093	0.000219
 389	3.8606e+01	15.4439	72.052780	0.000507	5.067019	1.716753	0.000203
 390	3.8706e+01	15.4921	72.230414	0.000446	4.458977	1.510742	0.000179
 391	3.8805e+01	15.5274	72.448419	0.000547	5.472381	1.854093	0.000219
 392	3.8904e+01	15.5578	72.650276	0.000507	5.067019	1.716753	0.000203
 393	3.9004e+01	15.6092	72.864244	0.000537	5.371041	1.819758	0.000215
 394	3.9103e+01	15.6509	73.114547	0.000628	6.283104	2.128773	0.000252
 395	3.9203e+01	15.6862	73.324478	0.000527	5.269700	1.785423	0.000211
 396	3.9303e+01	15.7391	73.534409	0.000527	5.269700	1.785423	0.000211
 397	3.9402e+01	15.7712	73.728191	0.000486	4.864339	1.648083	0.000195
 398	3.9502e+01	15.8113	73.974457	0.000618	6.181764	2.094438	0.000248
 399	3.9601e+01	15.8482	74.172276	0.000497	4.965679	1.682418	0.000199
 400	3.9700e+01	15.8835	74.402393	0.000578	5.776402	1.957098	0.000231
 401	3.9800e+01	15.9220	74.563879	0.000405	4.053615	1.373402	0.000162
 402	3.9900e+01	15.9637	74.793995	0.000578	5.776402	1.957098	0.000231
 403	3.9999e+01	16.0167	74.987778	0.000486	4.864339	1.648083	0.000195
 404	4.0099e+01	16.0391	75.234043	0.000618	6.181764	2.094438	0.000248
 405	4.0198e+01	16.0905	75.468197	0.000588	5.877742	1.991433	0.000235
 406	4.0297e+01	16.1241	75.674091	0.000517	5.168360	1.751088	0.000207
 407	4.0397e+01	16.1691	75.843651	0.000426	4.256296	1.442072	0.000170
 408	4.0496e+01	16.1995	76.077804	0.000588	5.877742	1.991433	0.000235
 409	4.0596e+01	16.2493	76.311958	0.000588	5.877742	1.991433	0.000235
 410	4.0696e+01	16.2910	76.477481	0.000415	4.154956	1.407737	0.000166
 411	4.0795e+01	16.3167	76.743932	0.000669	6.688466	2.266113	0.000268
 412	4.0895e+01	16.3600	76.929640	0.000466	4.661658	1.579412	0.000187
 413	4.0994e+01	16.3985	77.155720	0.000568	5.675062	1.922763	0.000227
 414	4.1093e+01	16.4482	77.377762	0.000557	5.573721	1.888428	0.000223
 415	4.1193e+01	16.4851	77.559433	0.000456	4.560317	1.545077	0.000183
 416	4.1292e+01	16.5284	77.801661	0.000608	6.080423	2.060103	0.000243
 417	4.1392e+01	16.5733	78.015630	0.000537	5.371041	1.819758	0.000215
 418	4.1492e+01	16.6086	78.197301	0.000456	4.560317	1.545077	0.000183
 419	4.1591e+01	16.6551	78.419343	0.000557	5.573721	1.888428	0.000223
 420	4.1691e+01	16.6856	78.613126	0.000486	4.864339	1.648083	0.000195
 421	4.1790e+01	16.7305	78.855354	0.000608	6.080423	2.060103	0.000243
 422	4.1889e+01	16.7546	79.041062	0.000466	4.661658	1.579412	0.000187
 423	4.1989e+01	16.8108	79.271179	0.000578	5.776402	1.957098	0.000231
 424	4.2089e+01	16.8460	79.485147	0.000537	5.371041	1.819758	0.000215
 425	4.2188e+01	16.8878	79.674892	0.000476	4.762998	1.613747	0.000191
 426	4.2288e+01	16.9231	79.896935	0.000557	5.573721	1.888428	0.000223
 427	4.2387e+01	16.9616	80.090717	0.000486	4.864339	1.648083	0.000195
 428	4.2486e+01	17.0081	80.357168	0.000669	6.688466	2.266113	0.000268
 429	4.2586e+01	17.0386	80.510579	0.000385	3.850935	1.304732	0.000154
 430	4.2685e+01	17.0883	80.777030	0.000669	6.688466	2.266113	0.000268
 431	4.2785e+01	17.1268	80.918330	0.000355	3.546914	1.201727	0.000142
 432	4.2885e+01	17.1573	81.156521	0.000598	5.979083	2.025768	0.000239
 433	4.2984e+01	17.2006	81.362415	0.000517	5.168360	1.751088	0.000207
 434	4.3084e+01	17.2519	81.584458	0.000557	5.573721	1.888428	0.000223
 435	4.3183e+01	17.2760	81.810537	0.000568	5.675062	1.922763	0.000227
 436	4.3282e+01	17.3225	81.988171	0.000446	4.458977	1.510742	0.000179
 437	4.3382e+01	17.3610	82.234436	0.000618	6.181764	2.094438	0.000248
 438	4.3481e+01	17.4059	82.424182	0.000476	4.762998	1.613747	0.000191
 439	4.3581e+01	17.4412	82.597779	0.000436	4.357637	1.476407	0.000174
 440	4.3681e+01	17.4893	82.864230	0.000669	6.688466	2.266113	0.000268
 441	4.3780e+01	17.5166	83.049938	0.000466	4.661658	1.579412	0.000187
 442	4.3880e+01	17.5631	83.243720	0.000486	4.864339	1.648083	0.000195
 443	4.3979e+01	17.6065	83.465763	0.000557	5.573721	1.888428	0.000223
 444	4.4078e+01	17.6417	83.667620	0.000507	5.067019	1.716753	0.000203
 445	4.4178e+01	17.6915	83.889662	0.000557	5.573721	1.888428	0.000223
 446	4.4278e+01	17.7268	84.099593	0.000527	5.269700	1.785423	0.000211
 447	4.4377e+01	17.7605	84.313561	0.000537	5.371041	1.819758	0.000215
 448	4.4477e+01	17.8054	84.503307	0.000476	4.762998	1.613747	0.000191
 449	4.4576e+01	17.8503	84.721312	0.000547	5.472381	1.854093	0.000219
 450	4.4675e+01	17.8792	84.927206	0.000517	5.168360	1.751088	0.000207
 451	4.4775e+01	17.9257	85.141174	0.000537	5.371041	1.819758	0.000215
 452	4.4874e+01	17.9722	85.343031	0.000507	5.067019	1.716753	0.000203
 453	4.4974e+01	18.0027	85.561036	0.000547	5.472381	1.854093	0.000219
 454	4.5074e+01	18.0508	85.766930	0.000517	5.168360	1.751088	0.000207
 455	4.5173e+01	18.0781	85.980898	0.000537	5.371041	1.819758	0.000215
 456	4.5273e+01	18.1166	86.194867	0.000537	5.371041	1.819758	0.000215
 457	4.5372e+01	18.1663	86.388649	0.000486	4.864339	1.648083	0.000195
 458	4.5471e+01	18.2096	86.630877	0.000608	6.080423	2.060103	0.000243
 459	4.5571e+01	18.2417	86.792363	0.000405	4.053615	1.373402	0.000162
 460	4.5670e+01	18.2802	86.986145	0.000486	4.864339	1.648083	0.000195
 461	4.5770e+01	18.3235	87.236448	0.000628	6.283104	2.128773	0.000252
 462	4.5870e+01	18.3637	87.426193	0.000476	4.762998	1.613747	0.000191
 463	4.5969e+01	18.3989	87.628050	0.000507	5.067019	1.716753	0.000203
 464	4.6069e+01	18.4487	87.878352	0.000628	6.283104	2.128773	0.000252
 465	4.6168e+01	18.4792	88.047912	0.000426	4.256296	1.442072	0.000170
 466	4.6267e+01	18.5177	88.249769	0.000507	5.067019	1.716753	0.000203
 467	4.6367e+01	18.5530	88.459700	0.000527	5.269700	1.785423	0.000211
 468	4.6467e+01	18.5947	88.673668	0.000537	5.371041	1.819758	0.000215
 469	4.6566e+01	18.6348	88.879562	0.000517	5.168360	1.751088	0.000207
 470	4.6666e+01	18.6765	89.073344	0.000486	4.864339	1.648083	0.000195
 471	4.6765e+01	18.7182	89.307498	0.000588	5.877742	1.991433	0.000235
 472	4.6864e+01	18.7679	89.493206	0.000466	4.661658	1.579412	0.000187
 473	4.6964e+01	18.8032	89.686989	0.000486	4.864339	1.648083	0.000195
 474	4.7063e+01	18.8369	89.913069	0.000568	5.675062	1.922763	0.000227
 475	4.7163e+01	18.8722	90.114925	0.000507	5.067019	1.716753	0.000203
 476	4.7263e+01	18.9251	90.341005	0.000568	5.675062	1.922763	0.000227
 477	4.7362e+01	18.9492	90.563047	0.000557	5.573721	1.888428	0.000223
 478	4.7462e+01	18.9973	90.724533	0.000405	4.053615	1.373402	0.000162
 479	4.7561e+01	19.0390	90.966761	0.000608	6.080423	2.060103	0.000243
 480	4.7660e+01	19.0759	91.164581	0.000497	4.965679	1.682418	0.000199
 481	4.7760e+01	19.1000	91.350289	0.000466	4.661658	1.579412	0.000187
 482	4.7859e+01	19.1545	91.560220	0.000527	5.269700	1.785423	0.000211
 483	4.7959e+01	19.1995	91.713631	0.000385	3.850935	1.304732	0.000154
 484	4.8059e+01	19.2348	91.976045	0.000659	6.587125	2.231778	0.000264
 485	4.8158e+01	19.2716	92.202125	0.000568	5.675062	1.922763	0.000227
 486	4.8258e+01	19.3182	92.371684	0.000426	4.256296	1.442072	0.000170
 487	4.8357e+01	19.3599	92.609875	0.000598	5.979083	2.025768	0.000239
 488	4.8456e+01	19.3984	92.803658	0.000486	4.864339	1.648083	0.000195
 489	4.8556e+01	19.4385	93.001477	0.000497	4.965679	1.682418	0.000199
 490	4.8656e+01	19.4738	93.183149	0.000456	4.560317	1.545077	0.000183
 491	4.8755e+01	19.5171	93.405191	0.000557	5.573721	1.888428	0.000223
 492	4.8855e+01	19.5620	93.603011	0.000497	4.965679	1.682418	0.000199
 493	4.8954e+01	19.5861	93.833127	0.000578	5.776402	1.957098	0.000231
 494	4.9053e+01	19.6358	94.002687	0.000426	4.256296	1.442072	0.000170
 495	4.9153e+01	19.6743	94.232804	0.000578	5.776402	1.957098	0.000231
 496	4.9252e+01	19.7064	94.430623	0.000497	4.965679	1.682418	0.000199
 497	4.9352e+01	19.7513	94.676889	0.000618	6.181764	2.094438	0.000248
 498	4.9452e+01	19.7930	94.854523	0.000446	4.458977	1.510742	0.000179
 499	4.9551e+01	19.8315	95.064454	0.000527	5.269700	1.785423	0.000211
 500	4.9651e+01	19.8652	95.229976	0.000415	4.154956	1.407737	0.000166
 501	4.9750e+01	19.9214	95.476242	0.000618	6.181764	2.094438	0.000248
 502	4.9849e+01	19.9567	95.682136	0.000517	5.168360	1.751088	0.000207
 503	4.9949e+01	19.9919	95.851695	0.000426	4.256296	1.442072	0.000170
 504	5.0048e+01	19.9518	95.952624	-0.000253	-2.533510	-0.858376	0.000101
 505	5.0148e+01	19.9069	95.992995	-0.000101	-1.013404	-0.343351	0.000041
 506	5.0248e+01	19.8732	96.025292	-0.000081	-0.810723	-0.274680	0.000032
 507	5.0347e+01	19.8315	96.077775	-0.000132	-1.317425	-0.446356	0.000053
 508	5.0447e+01	19.7946	96.101998	-0.000061	-0.608042	-0.206010	0.000024
 509	5.0546e+01	19.7561	96.134295	-0.000081	-0.810723	-0.274680	0.000032
 510	5.0645e+01	19.7144	96.134295	-0.000000	-0.000000	-0.000000	0.000000
 511	5.0745e+01	19.6711	96.146406	-0.000030	-0.304021	-0.103005	0.000012
 512	5.0844e+01	19.6310	96.158518	-0.000030	-0.304021	-0.103005	0.000012
 513	5.0944e+01	19.5973	96.186778	-0.000071	-0.709383	-0.240345	0.000028
 514	5.1044e+01	19.5572	96.170629	0.000041	0.405362	0.137340	-0.000016
 515	5.1143e+01	19.5123	96.182740	-0.000030	-0.304021	-0.103005	0.000012
 516	5.1242e+01	19.4706	96.190815	-0.000020	-0.202681	-0.068670	0.000008
 517	5.1342e+01	19.4353	96.190815	-0.000000	-0.000000	-0.000000	0.000000
 518	5.1441e+01	19.3984	96.174666	0.000041	0.405362	0.137340	-0.000016
 519	5.1541e+01	19.3567	96.134295	0.000101	1.013404	0.343351	-0.000041
 520	5.1641e+01	19.3150	96.170629	-0.000091	-0.912063	-0.309015	0.000037
 521	5.1740e+01	19.2716	96.130258	0.000101	1.013404	0.343351	-0.000041
 522	5.1840e+01	19.2299	96.122183	0.000020	0.202681	0.068670	-0.000008
 523	5.1939e+01	19.1914	96.081812	0.000101	1.013404	0.343351	-0.000041
 524	5.2038e+01	19.1561	96.089886	-0.000020	-0.202681	-0.068670	0.000008
 525	5.2138e+01	19.1144	96.049515	0.000101	1.013404	0.343351	-0.000041
 526	5.2237e+01	19.0807	96.041441	0.000020	0.202681	0.068670	-0.000008
 527	5.2337e+01	19.0422	96.025292	0.000041	0.405362	0.137340	-0.000016
 528	5.2437e+01	19.0053	96.005106	0.000051	0.506702	0.171675	-0.000020
 529	5.2536e+01	18.9636	95.944549	0.000152	1.520106	0.515026	-0.000061
 530	5.2636e+01	18.9283	95.896104	0.000122	1.216085	0.412021	-0.000049
 531	5.2735e+01	18.8770	95.875918	0.000051	0.506702	0.171675	-0.000020
 532	5.2834e+01	18.8321	95.875918	-0.000000	-0.000000	-0.000000	0.000000
 533	5.2934e+01	18.8016	95.811324	0.000162	1.621446	0.549361	-0.000065
 534	5.3033e+01	18.7567	95.774990	0.000091	0.912063	0.309015	-0.000037
 535	5.3133e+01	18.7246	95.714433	0.000152	1.520106	0.515026	-0.000061
 536	5.3233e+01	18.6781	95.694247	0.000051	0.506702	0.171675	-0.000020
 537	5.3332e+01	18.6267	95.670024	0.000061	0.608042	0.206010	-0.000024
 538	5.3431e+01	18.6059	95.617541	0.000132	1.317425	0.446356	-0.000053
 539	5.3531e+01	18.5642	95.577170	0.000101	1.013404	0.343351	-0.000041
 540	5.3630e+01	18.5193	95.544873	0.000081	0.810723	0.274680	-0.000032
 541	5.3730e+01	18.4872	95.500464	0.000111	1.114744	0.377686	-0.000045
 542	5.3830e+01	18.4423	95.431833	0.000172	1.722787	0.583696	-0.000069
 543	5.3929e+01	18.3973	95.379350	0.000132	1.317425	0.446356	-0.000053
 544	5.4029e+01	18.3524	95.330905	0.000122	1.216085	0.412021	-0.000049
 545	5.4128e+01	18.3235	95.318793	0.000030	0.304021	0.103005	-0.000012
 546	5.4227e+01	18.2658	95.266311	0.000132	1.317425	0.446356	-0.000053
 547	5.4327e+01	18.2481	95.189605	0.000193	1.925467	0.652366	-0.000077
 548	5.4426e+01	18.2032	95.141159	0.000122	1.216085	0.412021	-0.000049
 549	5.4526e+01	18.1599	95.068491	0.000182	1.824127	0.618031	-0.000073
 550	5.4626e+01	18.1278	95.060417	0.000020	0.202681	0.068670	-0.000008
 551	5.4725e+01	18.0781	94.995822	0.000162	1.621446	0.549361	-0.000065
 552	5.4825e+01	18.0380	94.919117	0.000193	1.925467	0.652366	-0.000077
 553	5.4924e+01	18.0075	94.862597	0.000142	1.418765	0.480691	-0.000057
 554	5.5023e+01	17.9642	94.806077	0.000142	1.418765	0.480691	-0.000057
 555	5.5123e+01	17.9193	94.733409	0.000182	1.824127	0.618031	-0.000073
 556	5.5222e+01	17.8776	94.705149	0.000071	0.709383	0.240345	-0.000028
 557	5.5322e+01	17.8551	94.640555	0.000162	1.621446	0.549361	-0.000065
 558	5.5422e+01	17.7958	94.563849	0.000193	1.925467	0.652366	-0.000077
 559	5.5521e+01	17.7717	94.511366	0.000132	1.317425	0.446356	-0.000053
 560	5.5620e+01	17.7171	94.466958	0.000111	1.114744	0.377686	-0.000045
 561	5.5720e+01	17.6835	94.361992	0.000263	2.634850	0.892711	-0.000105
 562	5.5819e+01	17.6482	94.309509	0.000132	1.317425	0.446356	-0.000053
 563	5.5919e+01	17.6113	94.236841	0.000182	1.824127	0.618031	-0.000073
 564	5.6019e+01	17.5567	94.200507	0.000091	0.912063	0.309015	-0.000037
 565	5.6118e+01	17.5230	94.135913	0.000162	1.621446	0.549361	-0.000065
 566	5.6218e+01	17.4813	94.030947	0.000263	2.634850	0.892711	-0.000105
 567	5.6317e+01	17.4396	93.974427	0.000142	1.418765	0.480691	-0.000057
 568	5.6416e+01	17.3979	93.925982	0.000122	1.216085	0.412021	-0.000049
 569	5.6516e+01	17.3594	93.845239	0.000203	2.026808	0.686701	-0.000081
 570	5.6615e+01	17.3193	93.768533	0.000193	1.925467	0.652366	-0.000077
 571	5.6715e+01	17.2872	93.667605	0.000253	2.533510	0.858376	-0.000101
 572	5.6815e+01	17.2439	93.627233	0.000101	1.013404	0.343351	-0.000041
 573	5.6914e+01	17.2022	93.542454	0.000213	2.128148	0.721036	-0.000085
 574	5.7014e+01	17.1589	93.477859	0.000162	1.621446	0.549361	-0.000065
 575	5.7113e+01	17.1284	93.405191	0.000182	1.824127	0.618031	-0.000073
 576	5.7212e+01	17.0851	93.280040	0.000314	3.141552	1.064387	-0.000126
 577	5.7312e+01	17.0498	93.231594	0.000122	1.216085	0.412021	-0.000049
 578	5.7411e+01	17.0017	93.171037	0.000152	1.520106	0.515026	-0.000061
 579	5.7511e+01	16.9728	93.086257	0.000213	2.128148	0.721036	-0.000085
 580	5.7611e+01	16.9150	93.033775	0.000132	1.317425	0.446356	-0.000053
 581	5.7710e+01	16.8942	92.969180	0.000162	1.621446	0.549361	-0.000065
 582	5.7809e+01	16.8460	92.864215	0.000263	2.634850	0.892711	-0.000105
 583	5.7909e+01	16.8156	92.779435	0.000213	2.128148	0.721036	-0.000085
 584	5.8008e+01	16.7674	92.690618	0.000223	2.229489	0.755371	-0.000089
 585	5.8108e+01	16.7289	92.634098	0.000142	1.418765	0.480691	-0.000057
 586	5.8208e+01	16.6904	92.573541	0.000152	1.520106	0.515026	-0.000061
 587	5.8307e+01	16.6407	92.468576	0.000263	2.634850	0.892711	-0.000105
 588	5.8407e+01	16.6054	92.395907	0.000182	1.824127	0.618031	-0.000073
 589	5.8506e+01	16.5637	92.270756	0.000314	3.141552	1.064387	-0.000126
 590	5.8605e+01	16.5316	92.194050	0.000193	1.925467	0.652366	-0.000077
 591	5.8705e+01	16.4915	92.141568	0.000132	1.317425	0.446356	-0.000053
 592	5.8804e+01	16.4530	92.048713	0.000233	2.330829	0.789706	-0.000093
 593	5.8904e+01	16.3969	91.988156	0.000152	1.520106	0.515026	-0.000061
 594	5.9004e+01	16.3648	91.867042	0.000304	3.040212	1.030052	-0.000122
 595	5.9103e+01	16.3279	91.770151	0.000243	2.432169	0.824041	-0.000097
 596	5.9203e+01	16.2846	91.705557	0.000162	1.621446	0.549361	-0.000065
 597	5.9302e+01	16.2461	91.616740	0.000223	2.229489	0.755371	-0.000089
 598	5.9401e+01	16.2092	91.523886	0.000233	2.330829	0.789706	-0.000093
 599	5.9501e+01	16.1707	91.435069	0.000223	2.229489	0.755371	-0.000089
 600	5.9600e+01	16.1257	91.362400	0.000182	1.824127	0.618031	-0.000073
 601	5.9700e+01	16.1033	91.261472	0.000253	2.533510	0.858376	-0.000101
 602	5.9800e+01	16.0520	91.144395	0.000294	2.938871	0.995717	-0.000118
 603	5.9899e+01	16.0247	91.071727	0.000182	1.824127	0.618031	-0.000073
 604	5.9998e+01	15.9717	91.003095	0.000172	1.722787	0.583696	-0.000069
 605	6.0098e+01	15.9220	90.873907	0.000324	3.242892	1.098722	-0.000130
 606	6.0197e+01	15.8851	90.781053	0.000233	2.330829	0.789706	-0.000093
 607	6.0297e+01	15.8530	90.692236	0.000223	2.229489	0.755371	-0.000089
 608	6.0397e+01	15.8065	90.635716	0.000142	1.418765	0.480691	-0.000057
 609	6.0496e+01	15.7744	90.526713	0.000274	2.736190	0.927046	-0.000110
 610	6.0596e+01	15.7263	90.389451	0.000345	3.445573	1.167392	-0.000138
 611	6.0695e+01	15.6942	90.357154	0.000081	0.810723	0.274680	-0.000032
 612	6.0794e+01	15.6525	90.215854	0.000355	3.546914	1.201727	-0.000142
 613	6.0894e+01	15.6108	90.135111	0.000203	2.026808	0.686701	-0.000081
 614	6.0993e+01	15.5707	90.022071	0.000284	2.837531	0.961381	-0.000114
 615	6.1093e+01	15.5354	89.957477	0.000162	1.621446	0.549361	-0.000065
 616	6.1193e+01	15.4905	89.795992	0.000405	4.053615	1.373402	-0.000162
 617	6.1292e+01	15.4488	89.775806	0.000051	0.506702	0.171675	-0.000020
 618	6.1392e+01	15.4135	89.670840	0.000263	2.634850	0.892711	-0.000105
 619	6.1491e+01	15.3782	89.573949	0.000243	2.432169	0.824041	-0.000097
 620	6.1590e+01	15.3429	89.448798	0.000314	3.141552	1.064387	-0.000126
 621	6.1690e+01	15.2835	89.359981	0.000223	2.229489	0.755371	-0.000089
 622	6.1789e+01	15.2514	89.230793	0.000324	3.242892	1.098722	-0.000130
 623	6.1889e+01	15.2097	89.146013	0.000213	2.128148	0.721036	-0.000085
 624	6.1989e+01	15.1680	89.016824	0.000324	3.242892	1.098722	-0.000130
 625	6.2088e+01	15.1311	88.911859	0.000263	2.634850	0.892711	-0.000105
 626	6.2188e+01	15.0846	88.810931	0.000253	2.533510	0.858376	-0.000101
 627	6.2287e+01	15.0557	88.758448	0.000132	1.317425	0.446356	-0.000053
 628	6.2386e+01	15.0172	88.641371	0.000294	2.938871	0.995717	-0.000118
 629	6.2486e+01	14.9691	88.487960	0.000385	3.850935	1.304732	-0.000154
 630	6.2586e+01	14.9306	88.451625	0.000091	0.912063	0.309015	-0.000037
 631	6.2685e+01	14.8905	88.294177	0.000395	3.952275	1.339067	-0.000158
 632	6.2785e+01	14.8664	88.177100	0.000294	2.938871	0.995717	-0.000118
 633	6.2884e+01	14.8119	88.084246	0.000233	2.330829	0.789706	-0.000093
 634	6.2983e+01	14.7670	87.983318	0.000253	2.533510	0.858376	-0.000101
 635	6.3083e+01	14.7301	87.922761	0.000152	1.520106	0.515026	-0.000061
 636	6.3182e+01	14.7060	87.781461	0.000355	3.546914	1.201727	-0.000142
 637	6.3282e+01	14.6563	87.664384	0.000294	2.938871	0.995717	-0.000118
 638	6.3382e+01	14.6226	87.567493	0.000243	2.432169	0.824041	-0.000097
 639	6.3481e+01	14.5809	87.478676	0.000223	2.229489	0.755371	-0.000089
 640	6.3581e+01	14.5360	87.333339	0.000365	3.648254	1.236062	-0.000146
 641	6.3680e+01	14.5007	87.220299	0.000284	2.837531	0.961381	-0.000114
 642	6.3779e+01	14.4541	87.099185	0.000304	3.040212	1.030052	-0.000122
 643	6.3879e+01	14.4012	87.018442	0.000203	2.026808	0.686701	-0.000081
 644	6.3978e+01	14.3739	86.877143	0.000355	3.546914	1.201727	-0.000142
 645	6.4078e+01	14.3386	86.739880	0.000345	3.445573	1.167392	-0.000138
 646	6.4177e+01	14.2953	86.647026	0.000233	2.330829	0.789706	-0.000093
 647	6.4277e+01	14.2568	86.570320	0.000193	1.925467	0.652366	-0.000077
 648	6.4376e+01	14.2135	86.449206	0.000304	3.040212	1.030052	-0.000122
 649	6.4476e+01	14.1814	86.332129	0.000294	2.938871	0.995717	-0.000118
 650	6.4576e+01	14.1317	86.227164	0.000263	2.634850	0.892711	-0.000105
 651	6.4675e+01	14.0900	86.114124	0.000284	2.837531	0.961381	-0.000114
 652	6.4775e+01	14.0547	85.997047	0.000294	2.938871	0.995717	-0.000118
 653	6.4874e+01	14.0210	85.871896	0.000314	3.141552	1.064387	-0.000126
 654	6.4974e+01	13.9777	85.762893	0.000274	2.736190	0.927046	-0.000110
 655	6.5073e+01	13.9376	85.657928	0.000263	2.634850	0.892711	-0.000105
 656	6.5172e+01	13.9023	85.540851	0.000294	2.938871	0.995717	-0.000118
 657	6.5272e+01	13.8574	85.411662	0.000324	3.242892	1.098722	-0.000130
 658	6.5371e+01	13.8253	85.278437	0.000334	3.344233	1.133057	-0.000134
 659	6.5471e+01	13.7772	85.157323	0.000304	3.040212	1.030052	-0.000122
 660	6.5570e+01	13.7386	85.024097	0.000334	3.344233	1.133057	-0.000134
 661	6.5670e+01	13.6953	84.878760	0.000365	3.648254	1.236062	-0.000146
 662	6.5769e+01	13.6536	84.818203	0.000152	1.520106	0.515026	-0.000061
 663	6.5869e+01	13.6151	84.684978	0.000334	3.344233	1.133057	-0.000134
 664	6.5969e+01	13.5846	84.555789	0.000324	3.242892	1.098722	-0.000130
 665	6.6068e+01	13.5381	84.487158	0.000172	1.722787	0.583696	-0.000069
 666	6.6168e+01	13.4964	84.321636	0.000415	4.154956	1.407737	-0.000166
 667	6.6267e+01	13.4643	84.196484	0.000314	3.141552	1.064387	-0.000126
 668	6.6367e+01	13.4130	84.047110	0.000375	3.749594	1.270397	-0.000150
 669	6.6466e+01	13.3777	83.970405	0.000193	1.925467	0.652366	-0.000077
 670	6.6566e+01	13.3424	83.849291	0.000304	3.040212	1.030052	-0.000122
 671	6.6665e+01	13.3007	83.707991	0.000355	3.546914	1.201727	-0.000142
 672	6.6764e+01	13.2558	83.582840	0.000314	3.141552	1.064387	-0.000126
 673	6.6864e+01	13.2125	83.445577	0.000345	3.445573	1.167392	-0.000138
 674	6.6963e+01	13.1756	83.308315	0.000345	3.445573	1.167392	-0.000138
 675	6.7063e+01	13.1403	83.223535	0.000213	2.128148	0.721036	-0.000085
 676	6.7162e+01	13.1018	83.062049	0.000405	4.053615	1.373402	-0.000162
 677	6.7262e+01	13.0601	82.932861	0.000324	3.242892	1.098722	-0.000130
 678	6.7362e+01	13.0135	82.815784	0.000294	2.938871	0.995717	-0.000118
 679	6.7461e+01	12.9750	82.698707	0.000294	2.938871	0.995717	-0.000118
 680	6.7561e+01	12.9365	82.601816	0.000243	2.432169	0.824041	-0.000097
 681	6.7660e+01	12.9012	82.440330	0.000405	4.053615	1.373402	-0.000162
 682	6.7760e+01	12.8643	82.339402	0.000253	2.533510	0.858376	-0.000101
 683	6.7859e+01	12.8226	82.185991	0.000385	3.850935	1.304732	-0.000154
 684	6.7959e+01	12.7841	82.076988	0.000274	2.736190	0.927046	-0.000110
 685	6.8058e+01	12.7360	81.947800	0.000324	3.242892	1.098722	-0.000130
 686	6.8157e+01	12.6959	81.838797	0.000274	2.736190	0.927046	-0.000110
 687	6.8257e+01	12.6606	81.689423	0.000375	3.749594	1.270397	-0.000150
 688	6.8356e+01	12.6285	81.580420	0.000274	2.736190	0.927046	-0.000110
 689	6.8456e+01	12.5788	81.427009	0.000385	3.850935	1.304732	-0.000154
 690	6.8555e+01	12.5387	81.313969	0.000284	2.837531	0.961381	-0.000114
 691	6.8655e+01	12.5002	81.160558	0.000385	3.850935	1.304732	-0.000154
 692	6.8754e+01	12.4633	81.019259	0.000355	3.546914	1.201727	-0.000142
 693	6.8854e+01	12.4232	80.938516	0.000203	2.026808	0.686701	-0.000081
 694	6.8954e+01	12.3799	80.789142	0.000375	3.749594	1.270397	-0.000150
 695	6.9053e+01	12.3333	80.647842	0.000355	3.546914	1.201727	-0.000142
 696	6.9153e+01	12.2997	80.502505	0.000365	3.648254	1.236062	-0.000146
 697	6.9252e+01	12.2612	80.413688	0.000223	2.229489	0.755371	-0.000089
 698	6.9352e+01	12.2194	80.232017	0.000456	4.560317	1.545077	-0.000183
 699	6.9451e+01	12.1809	80.114940	0.000294	2.938871	0.995717	-0.000118
 700	6.9550e+01	12.1392	79.953455	0.000405	4.053615	1.373402	-0.000162
 701	6.9650e+01	12.1023	79.852526	0.000253	2.533510	0.858376	-0.000101
 702	6.9749e+01	12.0686	79.715264	0.000345	3.445573	1.167392	-0.000138
 703	6.9849e+01	12.0269	79.553778	0.000405	4.053615	1.373402	-0.000162
 704	6.9948e+01	11.9852	79.420553	0.000334	3.344233	1.133057	-0.000134
 705	7.0048e+01	11.9371	79.299439	0.000304	3.040212	1.030052	-0.000122
 706	7.0147e+01	11.9018	79.154102	0.000365	3.648254	1.236062	-0.000146
 707	7.0247e+01	11.8681	79.028951	0.000314	3.141552	1.064387	-0.000126
 708	7.0347e+01	11.8360	78.887651	0.000355	3.546914	1.201727	-0.000142
 709	7.0446e+01	11.7863	78.734240	0.000385	3.850935	1.304732	-0.000154
 710	7.0546e+01	11.7462	78.588903	0.000365	3.648254	1.236062	-0.000146
 711	7.0645e+01	11.7109	78.479900	0.000274	2.736190	0.927046	-0.000110
 712	7.0745e+01	11.6692	78.314378	0.000415	4.154956	1.407737	-0.000166
 713	7.0844e+01	11.6339	78.169041	0.000365	3.648254	1.236062	-0.000146
 714	7.0944e+01	11.5810	78.031778	0.000345	3.445573	1.167392	-0.000138
 715	7.1043e+01	11.5537	77.946998	0.000213	2.128148	0.721036	-0.000085
 716	7.1142e+01	11.5184	77.757253	0.000476	4.762998	1.613747	-0.000191
 717	7.1242e+01	11.4767	77.644213	0.000284	2.837531	0.961381	-0.000114
 718	7.1341e+01	11.4270	77.502913	0.000355	3.546914	1.201727	-0.000142
 719	7.1441e+01	11.3804	77.341428	0.000405	4.053615	1.373402	-0.000162
 720	7.1540e+01	11.3467	77.179942	0.000405	4.053615	1.373402	-0.000162
 721	7.1640e+01	11.3098	77.030568	0.000375	3.749594	1.270397	-0.000150
 722	7.1740e+01	11.2778	76.921566	0.000274	2.736190	0.927046	-0.000110
 723	7.1839e+01	11.2184	76.788340	0.000334	3.344233	1.133057	-0.000134
 724	7.1939e+01	11.1959	76.626855	0.000405	4.053615	1.373402	-0.000162
 725	7.2038e+01	11.1478	76.461332	0.000415	4.154956	1.407737	-0.000166
 726	7.2138e+01	11.1109	76.332144	0.000324	3.242892	1.098722	-0.000130
 727	7.2237e+01	11.0676	76.194881	0.000345	3.445573	1.167392	-0.000138
 728	7.2337e+01	11.0371	76.073767	0.000304	3.040212	1.030052	-0.000122
 729	7.2436e+01	10.9938	75.908245	0.000415	4.154956	1.407737	-0.000166
 730	7.2535e+01	10.9425	75.766945	0.000355	3.546914	1.201727	-0.000142
 731	7.2635e+01	10.9088	75.617571	0.000375	3.749594	1.270397	-0.000150
 732	7.2734e+01	10.8751	75.460123	0.000395	3.952275	1.339067	-0.000158
 733	7.2834e+01	10.8334	75.298637	0.000405	4.053615	1.373402	-0.000162
 734	7.2933e+01	10.7885	75.149263	0.000375	3.749594	1.270397	-0.000150
 735	7.3033e+01	10.7548	75.052372	0.000243	2.432169	0.824041	-0.000097
 736	7.3132e+01	10.7050	74.866664	0.000466	4.661658	1.579412	-0.000187
 737	7.3232e+01	10.6762	74.701141	0.000415	4.154956	1.407737	-0.000166
 738	7.3332e+01	10.6377	74.535619	0.000415	4.154956	1.407737	-0.000166
 739	7.3431e+01	10.5847	74.414504	0.000304	3.040212	1.030052	-0.000122
 740	7.3531e+01	10.5591	74.244945	0.000426	4.256296	1.442072	-0.000170
 741	7.3630e+01	10.5238	74.123831	0.000304	3.040212	1.030052	-0.000122
 742	7.3730e+01	10.4772	73.934085	0.000476	4.762998	1.613747	-0.000191
 743	7.3829e+01	10.4323	73.821046	0.000284	2.837531	0.961381	-0.000114
 744	7.3928e+01	10.3890	73.659560	0.000405	4.053615	1.373402	-0.000162
 745	7.4028e+01	10.3489	73.530372	0.000324	3.242892	1.098722	-0.000130
 746	7.4127e+01	10.3248	73.360812	0.000426	4.256296	1.442072	-0.000170
 747	7.4227e+01	10.2799	73.207401	0.000385	3.850935	1.304732	-0.000154
 748	7.4326e+01	10.2318	73.033804	0.000436	4.357637	1.476407	-0.000174
 749	7.4426e+01	10.1805	72.872319	0.000405	4.053615	1.373402	-0.000162
 750	7.4525e+01	10.1644	72.751205	0.000304	3.040212	1.030052	-0.000122
 751	7.4625e+01	10.1099	72.557422	0.000486	4.864339	1.648083	-0.000195
 752	7.4725e+01	10.0666	72.432271	0.000314	3.141552	1.064387	-0.000126
 753	7.4824e+01	10.0393	72.250600	0.000456	4.560317	1.545077	-0.000183
 754	7.4924e+01	9.9880	72.109300	0.000355	3.546914	1.201727	-0.000142
 755	7.5023e+01	9.9591	71.955889	0.000385	3.850935	1.304732	-0.000154
 756	7.5123e+01	9.9077	71.794403	0.000405	4.053615	1.373402	-0.000162
 757	7.5222e+01	9.8741	71.649067	0.000365	3.648254	1.236062	-0.000146
 758	7.5322e+01	9.8291	71.459321	0.000476	4.762998	1.613747	-0.000191
 759	7.5421e+01	9.7987	71.350318	0.000274	2.736190	0.927046	-0.000110
 760	7.5520e+01	9.7585	71.164610	0.000466	4.661658	1.579412	-0.000187
 761	7.5620e+01	9.7168	71.019273	0.000365	3.648254	1.236062	-0.000146
 762	7.5719e+01	9.6815	70.869899	0.000375	3.749594	1.270397	-0.000150
 763	7.5819e+01	9.6382	70.696302	0.000436	4.357637	1.476407	-0.000174
 764	7.5918e+01	9.5869	70.546928	0.000375	3.749594	1.270397	-0.000150
 765	7.6018e+01	9.5484	70.417740	0.000324	3.242892	1.098722	-0.000130
 766	7.6118e+01	9.5099	70.219920	0.000497	4.965679	1.682418	-0.000199
 767	7.6217e+01	9.4762	70.062472	0.000395	3.952275	1.339067	-0.000158
 768	7.6317e+01	9.4473	69.913098	0.000375	3.749594	1.270397	-0.000150
 769	7.6416e+01	9.4024	69.747576	0.000415	4.154956	1.407737	-0.000166
 770	7.6516e+01	9.3543	69.582053	0.000415	4.154956	1.407737	-0.000166
 771	7.6615e+01	9.3190	69.444790	0.000345	3.445573	1.167392	-0.000138
 772	7.6715e+01	9.2837	69.226785	0.000547	5.472381	1.854093	-0.000219
 773	7.6814e+01	9.2420	69.093560	0.000334	3.344233	1.133057	-0.000134
 774	7.6913e+01	9.1939	68.952260	0.000355	3.546914	1.201727	-0.000142
 775	7.7013e+01	9.1570	68.758477	0.000486	4.864339	1.648083	-0.000195
 776	7.7112e+01	9.1136	68.584880	0.000436	4.357637	1.476407	-0.000174
 777	7.7212e+01	9.0719	68.451655	0.000334	3.344233	1.133057	-0.000134
 778	7.7311e+01	9.0382	68.274021	0.000446	4.458977	1.510742	-0.000179
 779	7.7411e+01	8.9997	68.104461	0.000426	4.256296	1.442072	-0.000170
 780	7.7510e+01	8.9564	67.955087	0.000375	3.749594	1.270397	-0.000150
 781	7.7610e+01	8.9211	67.769379	0.000466	4.661658	1.579412	-0.000187
 782	7.7710e+01	8.8826	67.587708	0.000456	4.560317	1.545077	-0.000183
 783	7.7809e+01	8.8393	67.438334	0.000375	3.749594	1.270397	-0.000150
 784	7.7909e+01	8.7912	67.264737	0.000436	4.357637	1.476407	-0.000174
 785	7.8008e+01	8.7623	67.107289	0.000395	3.952275	1.339067	-0.000158
 786	7.8108e+01	8.7190	66.949841	0.000395	3.952275	1.339067	-0.000158
 787	7.8207e+01	8.6805	66.784318	0.000415	4.154956	1.407737	-0.000166
 788	7.8306e+01	8.6324	66.582461	0.000507	5.067019	1.716753	-0.000203
 789	7.8406e+01	8.5987	66.437124	0.000365	3.648254	1.236062	-0.000146
 790	7.8505e+01	8.5602	66.279676	0.000395	3.952275	1.339067	-0.000158
 791	7.8605e+01	8.5137	66.118191	0.000405	4.053615	1.373402	-0.000162
 792	7.8704e+01	8.4800	65.952668	0.000415	4.154956	1.407737	-0.000166
 793	7.8804e+01	8.4431	65.754848	0.000497	4.965679	1.682418	-0.000199
 794	7.8903e+01	8.4014	65.581251	0.000436	4.357637	1.476407	-0.000174
 795	7.9003e+01	8.3661	65.435915	0.000365	3.648254	1.236062	-0.000146
 796	7.9103e+01	8.3260	65.234058	0.000507	5.067019	1.716753	-0.000203
 797	7.9202e+01	8.2746	65.084684	0.000375	3.749594	1.270397	-0.000150
 798	7.9302e+01	8.2409	64.919161	0.000415	4.154956	1.407737	-0.000166
 799	7.9401e+01	8.2040	64.741527	0.000446	4.458977	1.510742	-0.000179
 800	7.9501e+01	8.1495	64.563893	0.000446	4.458977	1.510742	-0.000179
 801	7.9600e+01	8.1158	64.378185	0.000466	4.661658	1.579412	-0.000187
 802	7.9700e+01	8.0837	64.172291	0.000517	5.168360	1.751088	-0.000207
 803	7.9799e+01	8.0484	64.022917	0.000375	3.749594	1.270397	-0.000150
 804	7.9898e+01	7.9987	63.861432	0.000405	4.053615	1.373402	-0.000162
 805	7.9998e+01	7.9618	63.712058	0.000375	3.749594	1.270397	-0.000150
 806	8.0097e+01	7.9265	63.498089	0.000537	5.371041	1.819758	-0.000215
 807	8.0197e+01	7.8752	63.316418	0.000456	4.560317	1.545077	-0.000183
 808	8.0296e+01	7.8447	63.142822	0.000436	4.357637	1.476407	-0.000174
 809	8.0396e+01	7.8046	63.001522	0.000355	3.546914	1.201727	-0.000142
 810	8.0496e+01	7.7549	62.779479	0.000557	5.573721	1.888428	-0.000223
 811	8.0595e+01	7.7244	62.638180	0.000355	3.546914	1.201727	-0.000142
 812	8.0695e+01	7.6859	62.444397	0.000486	4.864339	1.648083	-0.000195
 813	8.0794e+01	7.6378	62.290986	0.000385	3.850935	1.304732	-0.000154
 814	8.0894e+01	7.6009	62.077018	0.000537	5.371041	1.819758	-0.000215
 815	8.0993e+01	7.5624	61.927644	0.000375	3.749594	1.270397	-0.000150
 816	8.1093e+01	7.5190	61.750010	0.000446	4.458977	1.510742	-0.000179
 817	8.1192e+01	7.4757	61.548153	0.000507	5.067019	1.716753	-0.000203
 818	8.1291e+01	7.4517	61.386667	0.000405	4.053615	1.373402	-0.000162
 819	8.1391e+01	7.4003	61.176736	0.000527	5.269700	1.785423	-0.000211
 820	8.1490e+01	7.3618	61.027362	0.000375	3.749594	1.270397	-0.000150
 821	8.1590e+01	7.3233	60.877988	0.000375	3.749594	1.270397	-0.000150
 822	8.1689e+01	7.2800	60.651909	0.000568	5.675062	1.922763	-0.000227
 823	8.1789e+01	7.2399	60.498498	0.000385	3.850935	1.304732	-0.000154
 824	8.1888e+01	7.2014	60.312789	0.000466	4.661658	1.579412	-0.000187
 825	8.1988e+01	7.1581	60.147267	0.000415	4.154956	1.407737	-0.000166
 826	8.2088e+01	7.1276	59.937336	0.000527	5.269700	1.785423	-0.000211
 827	8.2187e+01	7.0843	59.743553	0.000486	4.864339	1.648083	-0.000195
 828	8.2287e+01	7.0378	59.594179	0.000375	3.749594	1.270397	-0.000150
 829	8.2386e+01	6.9993	59.416545	0.000446	4.458977	1.510742	-0.000179
 830	8.2486e+01	6.9720	59.186428	0.000578	5.776402	1.957098	-0.000231
 831	8.2585e+01	6.9207	59.012832	0.000436	4.357637	1.476407	-0.000174
 832	8.2684e+01	6.8902	58.835198	0.000446	4.458977	1.510742	-0.000179
 833	8.2784e+01	6.8469	58.681787	0.000385	3.850935	1.304732	-0.000154
 834	8.2883e+01	6.8003	58.447633	0.000588	5.877742	1.991433	-0.000235
 835	8.2983e+01	6.7634	58.253850	0.000486	4.864339	1.648083	-0.000195
 836	8.3082e+01	6.7346	58.084290	0.000426	4.256296	1.442072	-0.000170
 837	8.3182e+01	6.6816	57.890508	0.000486	4.864339	1.648083	-0.000195
 838	8.3281e+01	6.6495	57.688651	0.000507	5.067019	1.716753	-0.000203
 839	8.3381e+01	6.6094	57.523129	0.000415	4.154956	1.407737	-0.000166
 840	8.3481e+01	6.5709	57.361643	0.000405	4.053615	1.373402	-0.000162
 841	8.3580e+01	6.5244	57.167861	0.000486	4.864339	1.648083	-0.000195
 842	8.3680e+01	6.4811	56.966004	0.000507	5.067019	1.716753	-0.000203
 843	8.3779e+01	6.4586	56.792407	0.000436	4.357637	1.476407	-0.000174
 844	8.3879e+01	6.4073	56.626884	0.000415	4.154956	1.407737	-0.000166
 845	8.3978e+01	6.3656	56.416953	0.000527	5.269700	1.785423	-0.000211
 846	8.4078e+01	6.3303	56.219134	0.000497	4.965679	1.682418	-0.000199
 847	8.4177e+01	6.2886	56.045537	0.000436	4.357637	1.476407	-0.000174
 848	8.4276e+01	6.2533	55.875977	0.000426	4.256296	1.442072	-0.000170
 849	8.4376e+01	6.2036	55.678158	0.000497	4.965679	1.682418	-0.000199
 850	8.4475e+01	6.1731	55.484375	0.000486	4.864339	1.648083	-0.000195
 851	8.4575e+01	6.1346	55.254258	0.000578	5.776402	1.957098	-0.000231
 852	8.4674e+01	6.0993	55.092773	0.000405	4.053615	1.373402	-0.000162
 853	8.4774e+01	6.0544	54.923213	0.000426	4.256296	1.442072	-0.000170
 854	8.4874e+01	6.0111	54.709245	0.000537	5.371041	1.819758	-0.000215
 855	8.4973e+01	5.9694	54.555834	0.000385	3.850935	1.304732	-0.000154
 856	8.5073e+01	5.9325	54.325717	0.000578	5.776402	1.957098	-0.000231
 857	8.5172e+01	5.8988	54.119823	0.000517	5.168360	1.751088	-0.000207
 858	8.5272e+01	5.8474	53.897781	0.000557	5.573721	1.888428	-0.000223
 859	8.5371e+01	5.8153	53.716110	0.000456	4.560317	1.545077	-0.000183
 860	8.5471e+01	5.7720	53.522327	0.000486	4.864339	1.648083	-0.000195
 861	8.5570e+01	5.7335	53.356804	0.000415	4.154956	1.407737	-0.000166
 862	8.5669e+01	5.6838	53.138799	0.000547	5.472381	1.854093	-0.000219
 863	8.5769e+01	5.6469	52.961165	0.000446	4.458977	1.510742	-0.000179
 864	8.5868e+01	5.6052	52.775457	0.000466	4.661658	1.579412	-0.000187
 865	8.5968e+01	5.5699	52.609934	0.000415	4.154956	1.407737	-0.000166
 866	8.6067e+01	5.5282	52.367706	0.000608	6.080423	2.060103	-0.000243
 867	8.6167e+01	5.4945	52.173924	0.000486	4.864339	1.648083	-0.000195
 868	8.6266e+01	5.4496	51.963993	0.000527	5.269700	1.785423	-0.000211
 869	8.6366e+01	5.4063	51.762136	0.000507	5.067019	1.716753	-0.000203
 870	8.6466e+01	5.3630	51.596613	0.000415	4.154956	1.407737	-0.000166
 871	8.6565e+01	5.3405	51.394757	0.000507	5.067019	1.716753	-0.000203
 872	8.6665e+01	5.2795	51.196937	0.000497	4.965679	1.682418	-0.000199
 873	8.6764e+01	5.2539	50.999117	0.000497	4.965679	1.682418	-0.000199
 874	8.6864e+01	5.2138	50.785149	0.000537	5.371041	1.819758	-0.000215
 875	8.6963e+01	5.1640	50.591367	0.000486	4.864339	1.648083	-0.000195
 876	8.7063e+01	5.1303	50.377398	0.000537	5.371041	1.819758	-0.000215
 877	8.7162e+01	5.0983	50.211876	0.000415	4.154956	1.407737	-0.000166
 878	8.7261e+01	5.0533	49.985796	0.000568	5.675062	1.922763	-0.000227
 879	8.7361e+01	5.0036	49.792014	0.000486	4.864339	1.648083	-0.000195
 880	8.7460e+01	4.9731	49.590157	0.000507	5.067019	1.716753	-0.000203
 881	8.7560e+01	4.9298	49.380226	0.000527	5.269700	1.785423	-0.000211
 882	8.7659e+01	4.9025	49.186443	0.000486	4.864339	1.648083	-0.000195
 883	8.7759e+01	4.8576	49.008809	0.000446	4.458977	1.510742	-0.000179
 884	8.7859e+01	4.8127	48.754470	0.000638	6.384444	2.163108	-0.000256
 885	8.7958e+01	4.7774	48.556650	0.000497	4.965679	1.682418	-0.000199
 886	8.8058e+01	4.7421	48.362868	0.000486	4.864339	1.648083	-0.000195
 887	8.8157e+01	4.6988	48.201382	0.000405	4.053615	1.373402	-0.000162
 888	8.8257e+01	4.6555	47.995488	0.000517	5.168360	1.751088	-0.000207
 889	8.8356e+01	4.6106	47.789594	0.000517	5.168360	1.751088	-0.000207
 890	8.8456e+01	4.5705	47.551403	0.000598	5.979083	2.025768	-0.000239
 891	8.8555e+01	4.5384	47.361658	0.000476	4.762998	1.613747	-0.000191
 892	8.8654e+01	4.4967	47.147690	0.000537	5.371041	1.819758	-0.000215
 893	8.8754e+01	4.4550	46.941796	0.000517	5.168360	1.751088	-0.000207
 894	8.8853e+01	4.4165	46.715716	0.000568	5.675062	1.922763	-0.000227
 895	8.8953e+01	4.3667	46.534045	0.000456	4.560317	1.545077	-0.000183
 896	8.9052e+01	4.3378	46.312003	0.000557	5.573721	1.888428	-0.000223
 897	8.9152e+01	4.2945	46.098034	0.000537	5.371041	1.819758	-0.000215
 898	8.9251e+01	4.2544	45.912326	0.000466	4.661658	1.579412	-0.000187
 899	8.9351e+01	4.2079	45.682209	0.000578	5.776402	1.957098	-0.000231
 900	8.9451e+01	4.1774	45.488427	0.000486	4.864339	1.648083	-0.000195
 901	8.9550e+01	4.1357	45.262347	0.000568	5.675062	1.922763	-0.000227
 902	8.9650e+01	4.0924	45.052416	0.000527	5.269700	1.785423	-0.000211
 903	8.9749e+01	4.0555	44.854597	0.000497	4.965679	1.682418	-0.000199
 904	8.9849e+01	4.0202	44.660814	0.000486	4.864339	1.648083	-0.000195
 905	8.9948e+01	3.9785	44.462994	0.000497	4.965679	1.682418	-0.000199
 906	9.0047e+01	3.9384	44.224803	0.000598	5.979083	2.025768	-0.000239
 907	9.0147e+01	3.8999	43.994687	0.000578	5.776402	1.957098	-0.000231
 908	9.0246e+01	3.8550	43.768607	0.000568	5.675062	1.922763	-0.000227
 909	9.0346e+01	3.8181	43.603085	0.000415	4.154956	1.407737	-0.000166
 910	9.0445e+01	3.7699	43.401228	0.000507	5.067019	1.716753	-0.000203
 911	9.0545e+01	3.7427	43.171111	0.000578	5.776402	1.957098	-0.000231
 912	9.0644e+01	3.7026	42.957143	0.000537	5.371041	1.819758	-0.000215
 913	9.0744e+01	3.6625	42.751249	0.000517	5.168360	1.751088	-0.000207
 914	9.0844e+01	3.6175	42.553429	0.000497	4.965679	1.682418	-0.000199
 915	9.0943e+01	3.5774	42.359647	0.000486	4.864339	1.648083	-0.000195
 916	9.1043e+01	3.5277	42.109344	0.000628	6.283104	2.128773	-0.000252
 917	9.1142e+01	3.5004	41.875190	0.000588	5.877742	1.991433	-0.000235
 918	9.1242e+01	3.4555	41.689482	0.000466	4.661658	1.579412	-0.000187
 919	9.1341e+01	3.4202	41.443217	0.000618	6.181764	2.094438	-0.000248
 920	9.1441e+01	3.3721	41.233286	0.000527	5.269700	1.785423	-0.000211
 921	9.1540e+01	3.3368	41.047578	0.000466	4.661658	1.579412	-0.000187
 922	9.1639e+01	3.2951	40.805349	0.000608	6.080423	2.060103	-0.000243
 923	9.1739e+01	3.2566	40.591381	0.000537	5.371041	1.819758	-0.000215
 924	9.1838e+01	3.2245	40.373376	0.000547	5.472381	1.854093	-0.000219
 925	9.1938e+01	3.1812	40.171519	0.000507	5.067019	1.716753	-0.000203
 926	9.2037e+01	3.1379	39.933328	0.000598	5.979083	2.025768	-0.000239
 927	9.2137e+01	3.0930	39.731471	0.000507	5.067019	1.716753	-0.000203
 928	9.2237e+01	3.0577	39.505392	0.000568	5.675062	1.922763	-0.000227
 929	9.2336e+01	3.0288	39.259126	0.000618	6.181764	2.094438	-0.000248
 930	9.2436e+01	2.9742	39.045158	0.000537	5.371041	1.819758	-0.000215
 931	9.2535e+01	2.9390	38.831190	0.000537	5.371041	1.819758	-0.000215
 932	9.2635e+01	2.9069	38.613185	0.000547	5.472381	1.854093	-0.000219
 933	9.2734e+01	2.8684	38.379031	0.000588	5.877742	1.991433	-0.000235
 934	9.2834e+01	2.8218	38.152951	0.000568	5.675062	1.922763	-0.000227
 935	9.2933e+01	2.7769	37.999540	0.000385	3.850935	1.304732	-0.000154
 936	9.3032e+01	2.7416	37.765386	0.000588	5.877742	1.991433	-0.000235
 937	9.3132e+01	2.6951	37.498935	0.000669	6.688466	2.266113	-0.000268
 938	9.3231e+01	2.6550	37.260744	0.000598	5.979083	2.025768	-0.000239
 939	9.3331e+01	2.6213	37.062925	0.000497	4.965679	1.682418	-0.000199
 940	9.3430e+01	2.5860	36.824734	0.000598	5.979083	2.025768	-0.000239
 941	9.3530e+01	2.5395	36.598654	0.000568	5.675062	1.922763	-0.000227
 942	9.3629e+01	2.5026	36.348352	0.000628	6.283104	2.128773	-0.000252
 943	9.3729e+01	2.4689	36.162643	0.000466	4.661658	1.579412	-0.000187
 944	9.3829e+01	2.4176	35.972898	0.000476	4.762998	1.613747	-0.000191
 945	9.3928e+01	2.3839	35.710484	0.000659	6.587125	2.231778	-0.000264
 946	9.4028e+01	2.3406	35.496516	0.000537	5.371041	1.819758	-0.000215
 947	9.4127e+01	2.3117	35.250251	0.000618	6.181764	2.094438	-0.000248
 948	9.4227e+01	2.2684	35.052431	0.000497	4.965679	1.682418	-0.000199
 949	9.4326e+01	2.2347	34.818277	0.000588	5.877742	1.991433	-0.000235
 950	9.4425e+01	2.1785	34.584123	0.000588	5.877742	1.991433	-0.000235
 951	9.4525e+01	2.1481	34.337858	0.000618	6.181764	2.094438	-0.000248
 952	9.4624e+01	2.0999	34.095630	0.000608	6.080423	2.060103	-0.000243
 953	9.4724e+01	2.0614	33.897810	0.000497	4.965679	1.682418	-0.000199
 954	9.4823e+01	2.0149	33.679805	0.000547	5.472381	1.854093	-0.000219
 955	9.4923e+01	1.9941	33.453725	0.000568	5.675062	1.922763	-0.000227
 956	9.5022e+01	1.9427	33.211497	0.000608	6.080423	2.060103	-0.000243
 957	9.5122e+01	1.9058	33.013677	0.000497	4.965679	1.682418	-0.000199
 958	9.5222e+01	1.8625	32.706855	0.000770	7.701869	2.609464	-0.000308
 959	9.5321e+01	1.8192	32.484813	0.000557	5.573721	1.888428	-0.000223
 960	9.5421e+01	1.7855	32.286993	0.000497	4.965679	1.682418	-0.000199
 961	9.5520e+01	1.7438	32.040728	0.000618	6.181764	2.094438	-0.000248
 962	9.5620e+01	1.7037	31.842908	0.000497	4.965679	1.682418	-0.000199
 963	9.5719e+01	1.6668	31.596643	0.000618	6.181764	2.094438	-0.000248
 964	9.5819e+01	1.6235	31.350378	0.000618	6.181764	2.094438	-0.000248
 965	9.5918e+01	1.5882	31.128335	0.000557	5.573721	1.888428	-0.000223
 966	9.6017e+01	1.5433	30.890144	0.000598	5.979083	2.025768	-0.000239
 967	9.6117e+01	1.5016	30.668102	0.000557	5.573721	1.888428	-0.000223
 968	9.6216e+01	1.4679	30.409725	0.000649	6.485785	2.197443	-0.000260
 969	9.6316e+01	1.4181	30.171534	0.000598	5.979083	2.025768	-0.000239
 970	9.6415e+01	1.3877	29.961603	0.000527	5.269700	1.785423	-0.000211
 971	9.6515e+01	1.3492	29.687078	0.000689	6.891146	2.334784	-0.000276
 972	9.6615e+01	1.2994	29.485221	0.000507	5.067019	1.716753	-0.000203
 973	9.6714e+01	1.2706	29.242993	0.000608	6.080423	2.060103	-0.000243
 974	9.6814e+01	1.2337	29.016913	0.000568	5.675062	1.922763	-0.000227
 975	9.6913e+01	1.1791	28.754499	0.000659	6.587125	2.231778	-0.000264
 976	9.7013e+01	1.1438	28.540531	0.000537	5.371041	1.819758	-0.000215
 977	9.7112e+01	1.1005	28.274080	0.000669	6.688466	2.266113	-0.000268
 978	9.7212e+01	1.0588	28.052038	0.000557	5.573721	1.888428	-0.000223
 979	9.7311e+01	1.0219	27.829995	0.000557	5.573721	1.888428	-0.000223
 980	9.7410e+01	0.9882	27.575656	0.000638	6.384444	2.163108	-0.000256
 981	9.7510e+01	0.9449	27.329390	0.000618	6.181764	2.094438	-0.000248
 982	9.7609e+01	0.9096	27.066977	0.000659	6.587125	2.231778	-0.000264
 983	9.7709e+01	0.8631	26.857045	0.000527	5.269700	1.785423	-0.000211
 984	9.7808e+01	0.8262	26.626929	0.000578	5.776402	1.957098	-0.000231
 985	9.7908e+01	0.7797	26.392775	0.000588	5.877742	1.991433	-0.000235
 986	9.8007e+01	0.7476	26.142472	0.000628	6.283104	2.128773	-0.000252
 987	9.8107e+01	0.6978	25.880059	0.000659	6.587125	2.231778	-0.000264
 988	9.8207e+01	0.6722	25.666090	0.000537	5.371041	1.819758	-0.000215
 989	9.8306e+01	0.6289	25.419825	0.000618	6.181764	2.094438	-0.000248
 990	9.8406e+01	0.5920	25.153374	0.000669	6.688466	2.266113	-0.000268
 991	9.8505e+01	0.5470	24.919220	0.000588	5.877742	1.991433	-0.000235
 992	9.8605e+01	0.5037	24.697178	0.000557	5.573721	1.888428	-0.000223
 993	9.8704e+01	0.4716	24.430727	0.000669	6.688466	2.266113	-0.000268
 994	9.8803e+01	0.4347	24.208684	0.000557	5.573721	1.888428	-0.000223
 995	9.8903e+01	0.3898	23.966456	0.000608	6.080423	2.060103	-0.000243
 996	9.9002e+01	0.3481	23.683857	0.000709	7.093827	2.403454	-0.000284
 997	9.9102e+01	0.3160	23.441629	0.000608	6.080423	2.060103	-0.000243
 998	9.9201e+01	0.2727	23.219586	0.000557	5.573721	1.888428	-0.000223
 999	9.9301e+01	0.2342	22.941024	0.000699	6.992487	2.369119	-0.000280
1000	9.9400e+01	0.1925	22.723019	0.000547	5.472381	1.854093	-0.000219
1001	9.9500e+01	0.1460	22.476753	0.000618	6.181764	2.094438	-0.000248
1002	9.9600e+01	0.1075	22.214339	0.000659	6.587125	2.231778	-0.000264
1003	9.9699e+01	0.0658	21.955963	0.000649	6.485785	2.197443	-0.000260
1004	9.9799e+01	0.0337	21.721809	0.000588	5.877742	1.991433	-0.000235
1005	9.9898e+01	0.0048	21.503804	0.000547	5.472381	1.854093	-0.000219
1006	9.9998e+01	-0.0401	21.265613	0.000598	5.979083	2.025768	-0.000239
1007	1.0010e+02	-0.0882	21.019347	0.000618	6.181764	2.094438	-0.000248
1008	1.0020e+02	-0.1171	20.752896	0.000669	6.688466	2.266113	-0.000268
1009	1.0030e+02	-0.1636	20.547002	0.000517	5.168360	1.751088	-0.000207
1010	1.0040e+02	-0.2021	20.236143	0.000780	7.803210	2.643799	-0.000312
1011	1.0050e+02	-0.2374	20.006026	0.000578	5.776402	1.957098	-0.000231
1012	1.0059e+02	-0.2807	19.779947	0.000568	5.675062	1.922763	-0.000227
1013	1.0069e+02	-0.3241	19.505421	0.000689	6.891146	2.334784	-0.000276
1014	1.0079e+02	-0.3610	19.287416	0.000547	5.472381	1.854093	-0.000219
1015	1.0089e+02	-0.3930	18.984631	0.000760	7.600529	2.575129	-0.000304
1016	1.0099e+02	-0.4380	18.790848	0.000486	4.864339	1.648083	-0.000195
1017	1.0109e+02	-0.4797	18.552657	0.000598	5.979083	2.025768	-0.000239
1018	1.0119e+02	-0.5246	18.294281	0.000649	6.485785	2.197443	-0.000260
1019	1.0129e+02	-0.5567	18.003607	0.000730	7.296508	2.472124	-0.000292
1020	1.0139e+02	-0.5952	17.785601	0.000547	5.472381	1.854093	-0.000219
1021	1.0149e+02	-0.6433	17.523188	0.000659	6.587125	2.231778	-0.000264
1022	1.0159e+02	-0.6770	17.280960	0.000608	6.080423	2.060103	-0.000243
1023	1.0169e+02	-0.7187	17.010471	0.000679	6.789806	2.300449	-0.000272
1024	1.0179e+02	-0.7588	16.744020	0.000669	6.688466	2.266113	-0.000268
1025	1.0189e+02	-0.8037	16.517941	0.000568	5.675062	1.922763	-0.000227
1026	1.0199e+02	-0.8342	16.267638	0.000628	6.283104	2.128773	-0.000252
1027	1.0209e+02	-0.8839	16.001187	0.000669	6.688466	2.266113	-0.000268
1028	1.0219e+02	-0.9176	15.754922	0.000618	6.181764	2.094438	-0.000248
1029	1.0229e+02	-0.9561	15.472323	0.000709	7.093827	2.403454	-0.000284
1030	1.0239e+02	-1.0010	15.213946	0.000649	6.485785	2.197443	-0.000260
1031	1.0248e+02	-1.0428	14.947495	0.000669	6.688466	2.266113	-0.000268
1032	1.0258e+02	-1.0732	14.729490	0.000547	5.472381	1.854093	-0.000219
1033	1.0268e+02	-1.1198	14.459002	0.000679	6.789806	2.300449	-0.000272
1034	1.0278e+02	-1.1502	14.200625	0.000649	6.485785	2.197443	-0.000260
1035	1.0288e+02	-1.1984	13.938211	0.000659	6.587125	2.231778	-0.000264
1036	1.0298e+02	-1.2433	13.691946	0.000618	6.181764	2.094438	-0.000248
1037	1.0308e+02	-1.2770	13.449718	0.000608	6.080423	2.060103	-0.000243
1038	1.0318e+02	-1.3155	13.223638	0.000568	5.675062	1.922763	-0.000227
1039	1.0328e+02	-1.3588	12.912779	0.000780	7.803210	2.643799	-0.000312
1040	1.0338e+02	-1.3973	12.690736	0.000557	5.573721	1.888428	-0.000223
1041	1.0348e+02	-1.4310	12.391988	0.000750	7.499189	2.540794	-0.000300
1042	1.0358e+02	-1.4711	12.149760	0.000608	6.080423	2.060103	-0.000243
1043	1.0368e+02	-1.5240	11.915606	0.000588	5.877742	1.991433	-0.000235
1044	1.0378e+02	-1.5593	11.661267	0.000638	6.384444	2.163108	-0.000256
1045	1.0388e+02	-1.5962	11.406927	0.000638	6.384444	2.163108	-0.000256
1046	1.0398e+02	-1.6331	11.160662	0.000618	6.181764	2.094438	-0.000248
1047	1.0408e+02	-1.6748	10.882099	0.000699	6.992487	2.369119	-0.000280
1048	1.0418e+02	-1.7133	10.619686	0.000659	6.587125	2.231778	-0.000264
1049	1.0428e+02	-1.7486	10.361309	0.000649	6.485785	2.197443	-0.000260
1050	1.0438e+02	-1.7919	10.127155	0.000588	5.877742	1.991433	-0.000235
1051	1.0447e+02	-1.8368	9.848593	0.000699	6.992487	2.369119	-0.000280
1052	1.0457e+02	-1.8818	9.598290	0.000628	6.283104	2.128773	-0.000252
1053	1.0467e+02	-1.9235	9.303579	0.000740	7.397848	2.506459	-0.000296
1054	1.0477e+02	-1.9524	9.069425	0.000588	5.877742	1.991433	-0.000235
1055	1.0487e+02	-1.9892	8.798937	0.000679	6.789806	2.300449	-0.000272
1056	1.0497e+02	-2.0374	8.532486	0.000669	6.688466	2.266113	-0.000268
1057	1.0507e+02	-2.0759	8.298333	0.000588	5.877742	1.991433	-0.000235
1058	1.0517e+02	-2.1112	8.031882	0.000669	6.688466	2.266113	-0.000268
1059	1.0527e+02	-2.1561	7.765431	0.000669	6.688466	2.266113	-0.000268
1060	1.0537e+02	-2.2010	7.539351	0.000568	5.675062	1.922763	-0.000227
1061	1.0547e+02	-2.2315	7.252714	0.000720	7.195167	2.437789	-0.000288
1062	1.0557e+02	-2.2716	7.010486	0.000608	6.080423	2.060103	-0.000243
1063	1.0567e+02	-2.3117	6.707701	0.000760	7.600529	2.575129	-0.000304
1064	1.0577e+02	-2.3486	6.481621	0.000568	5.675062	1.922763	-0.000227
1065	1.0587e+02	-2.3919	6.211133	0.000679	6.789806	2.300449	-0.000272
1066	1.0597e+02	-2.4400	5.981017	0.000578	5.776402	1.957098	-0.000231
1067	1.0607e+02	-2.4577	5.722640	0.000649	6.485785	2.197443	-0.000260
1068	1.0617e+02	-2.5154	5.403706	0.000801	8.005891	2.712469	-0.000321
1069	1.0627e+02	-2.5507	5.181664	0.000557	5.573721	1.888428	-0.000223
1070	1.0637e+02	-2.5940	4.915213	0.000669	6.688466	2.266113	-0.000268
1071	1.0647e+02	-2.6261	4.668947	0.000618	6.181764	2.094438	-0.000248
1072	1.0656e+02	-2.6727	4.426719	0.000608	6.080423	2.060103	-0.000243
1073	1.0666e+02	-2.7176	4.152194	0.000689	6.891146	2.334784	-0.000276
1074	1.0676e+02	-2.7577	3.897855	0.000638	6.384444	2.163108	-0.000256
1075	1.0686e+02	-2.7817	3.667738	0.000578	5.776402	1.957098	-0.000231
1076	1.0696e+02	-2.8395	3.397250	0.000679	6.789806	2.300449	-0.000272
1077	1.0706e+02	-2.8636	3.118687	0.000699	6.992487	2.369119	-0.000280
1078	1.0716e+02	-2.9149	2.872422	0.000618	6.181764	2.094438	-0.000248
1079	1.0726e+02	-2.9502	2.577711	0.000740	7.397848	2.506459	-0.000296
1080	1.0736e+02	-2.9903	2.367780	0.000527	5.269700	1.785423	-0.000211
1081	1.0746e+02	-3.0320	2.093255	0.000689	6.891146	2.334784	-0.000276
1082	1.0756e+02	-3.0705	1.830841	0.000659	6.587125	2.231778	-0.000264
1083	1.0766e+02	-3.1170	1.588613	0.000608	6.080423	2.060103	-0.000243
1084	1.0776e+02	-3.1395	1.306013	0.000709	7.093827	2.403454	-0.000284
1085	1.0786e+02	-3.1860	1.015340	0.000730	7.296508	2.472124	-0.000292
1086	1.0796e+02	-3.2325	0.821557	0.000486	4.864339	1.648083	-0.000195
1087	1.0806e+02	-3.2726	0.510698	0.000780	7.803210	2.643799	-0.000312
1088	1.0816e+02	-3.3079	0.288655	0.000557	5.573721	1.888428	-0.000223
1089	1.0826e+02	-3.3577	0.018167	0.000679	6.789806	2.300449	-0.000272
1090	1.0836e+02	-3.3849	-0.211950	0.000578	5.776402	1.957098	-0.000231
1091	1.0845e+02	-3.4234	-0.502623	0.000730	7.296508	2.472124	-0.000292
1092	1.0855e+02	-3.4667	-0.712554	0.000527	5.269700	1.785423	-0.000211
1093	1.0865e+02	-3.5085	-0.970931	0.000649	6.485785	2.197443	-0.000260
1094	1.0875e+02	-3.5454	-1.261605	0.000730	7.296508	2.472124	-0.000292
1095	1.0885e+02	-3.5935	-1.552279	0.000730	7.296508	2.472124	-0.000292
1096	1.0895e+02	-3.6224	-1.762210	0.000527	5.269700	1.785423	-0.000211
1097	1.0905e+02	-3.6657	-2.036735	0.000689	6.891146	2.334784	-0.000276
1098	1.0915e+02	-3.7026	-2.274926	0.000598	5.979083	2.025768	-0.000239
1099	1.0925e+02	-3.7491	-2.553488	0.000699	6.992487	2.369119	-0.000280
1100	1.0935e+02	-3.7844	-2.807828	0.000638	6.384444	2.163108	-0.000256
1101	1.0945e+02	-3.8213	-3.050056	0.000608	6.080423	2.060103	-0.000243
1102	1.0955e+02	-3.8582	-3.340730	0.000730	7.296508	2.472124	-0.000292
1103	1.0965e+02	-3.9127	-3.595069	0.000638	6.384444	2.163108	-0.000256
1104	1.0975e+02	-3.9480	-3.857483	0.000659	6.587125	2.231778	-0.000264
1105	1.0985e+02	-3.9881	-4.055303	0.000497	4.965679	1.682418	-0.000199
1106	1.0995e+02	-4.0314	-4.333865	0.000699	6.992487	2.369119	-0.000280
1107	1.1005e+02	-4.0555	-4.572056	0.000598	5.979083	2.025768	-0.000239
1108	1.1015e+02	-4.1068	-4.858693	0.000720	7.195167	2.437789	-0.000288
1109	1.1025e+02	-4.1453	-5.108995	0.000628	6.283104	2.128773	-0.000252
1110	1.1035e+02	-4.1870	-5.351223	0.000608	6.080423	2.060103	-0.000243
1111	1.1044e+02	-4.2255	-5.613637	0.000659	6.587125	2.231778	-0.000264
1112	1.1054e+02	-4.2657	-5.851828	0.000598	5.979083	2.025768	-0.000239
1113	1.1064e+02	-4.3138	-6.146539	0.000740	7.397848	2.506459	-0.000296
1114	1.1074e+02	-4.3443	-6.392804	0.000618	6.181764	2.094438	-0.000248
1115	1.1084e+02	-4.3763	-6.663293	0.000679	6.789806	2.300449	-0.000272
1116	1.1094e+02	-4.4245	-6.877261	0.000537	5.371041	1.819758	-0.000215
1117	1.1104e+02	-4.4694	-7.147749	0.000679	6.789806	2.300449	-0.000272
1118	1.1114e+02	-4.5127	-7.389977	0.000608	6.080423	2.060103	-0.000243
1119	1.1124e+02	-4.5432	-7.603945	0.000537	5.371041	1.819758	-0.000215
1120	1.1134e+02	-4.5849	-7.882508	0.000699	6.992487	2.369119	-0.000280
1121	1.1144e+02	-4.6250	-8.128773	0.000618	6.181764	2.094438	-0.000248
1122	1.1154e+02	-4.6651	-8.403298	0.000689	6.891146	2.334784	-0.000276
1123	1.1164e+02	-4.7084	-8.641489	0.000598	5.979083	2.025768	-0.000239
1124	1.1174e+02	-4.7437	-8.911977	0.000679	6.789806	2.300449	-0.000272
1125	1.1184e+02	-4.7822	-9.174391	0.000659	6.587125	2.231778	-0.000264
1126	1.1194e+02	-4.8271	-9.408545	0.000588	5.877742	1.991433	-0.000235
1127	1.1204e+02	-4.8576	-9.654810	0.000618	6.181764	2.094438	-0.000248
1128	1.1214e+02	-4.8993	-9.909150	0.000638	6.384444	2.163108	-0.000256
1129	1.1224e+02	-4.9442	-10.187712	0.000699	6.992487	2.369119	-0.000280
1130	1.1234e+02	-4.9811	-10.438014	0.000628	6.283104	2.128773	-0.000252
1131	1.1244e+02	-5.0196	-10.696391	0.000649	6.485785	2.197443	-0.000260
1132	1.1253e+02	-5.0630	-10.958805	0.000659	6.587125	2.231778	-0.000264
1133	1.1263e+02	-5.0950	-11.196996	0.000598	5.979083	2.025768	-0.000239
1134	1.1273e+02	-5.1512	-11.439224	0.000608	6.080423	2.060103	-0.000243
1135	1.1283e+02	-5.1913	-11.709712	0.000679	6.789806	2.300449	-0.000272
1136	1.1293e+02	-5.2282	-11.931755	0.000557	5.573721	1.888428	-0.000223
1137	1.1303e+02	-5.2619	-12.210317	0.000699	6.992487	2.369119	-0.000280
1138	1.1313e+02	-5.3020	-12.452545	0.000608	6.080423	2.060103	-0.000243
1139	1.1323e+02	-5.3421	-12.658439	0.000517	5.168360	1.751088	-0.000207
1140	1.1333e+02	-5.3854	-12.937001	0.000699	6.992487	2.369119	-0.000280
1141	1.1343e+02	-5.4255	-13.191341	0.000638	6.384444	2.163108	-0.000256
1142	1.1353e+02	-5.4624	-13.409346	0.000547	5.472381	1.854093	-0.000219
1143	1.1363e+02	-5.5105	-13.683872	0.000689	6.891146	2.334784	-0.000276
1144	1.1373e+02	-5.5442	-13.970508	0.000720	7.195167	2.437789	-0.000288
1145	1.1383e+02	-5.5843	-14.180439	0.000527	5.269700	1.785423	-0.000211
1146	1.1393e+02	-5.6228	-14.414593	0.000588	5.877742	1.991433	-0.000235
1147	1.1403e+02	-5.6613	-14.656821	0.000608	6.080423	2.060103	-0.000243
1148	1.1413e+02	-5.6950	-14.951532	0.000740	7.397848	2.506459	-0.000296
1149	1.1423e+02	-5.7432	-15.201835	0.000628	6.283104	2.128773	-0.000252
1150	1.1433e+02	-5.7736	-15.411766	0.000527	5.269700	1.785423	-0.000211
1151	1.1442e+02	-5.8266	-15.645920	0.000588	5.877742	1.991433	-0.000235
1152	1.1452e+02	-5.8603	-15.924482	0.000699	6.992487	2.369119	-0.000280
1153	1.1462e+02	-5.8891	-16.182859	0.000649	6.485785	2.197443	-0.000260
1154	1.1472e+02	-5.9453	-16.425087	0.000608	6.080423	2.060103	-0.000243
1155	1.1482e+02	-5.9822	-16.655203	0.000578	5.776402	1.957098	-0.000231
1156	1.1492e+02	-6.0207	-16.921654	0.000669	6.688466	2.266113	-0.000268
1157	1.1502e+02	-6.0544	-17.159845	0.000598	5.979083	2.025768	-0.000239
1158	1.1512e+02	-6.0929	-17.406111	0.000618	6.181764	2.094438	-0.000248
1159	1.1522e+02	-6.1378	-17.648339	0.000608	6.080423	2.060103	-0.000243
1160	1.1532e+02	-6.1795	-17.939013	0.000730	7.296508	2.472124	-0.000292
1161	1.1542e+02	-6.2148	-18.193352	0.000638	6.384444	2.163108	-0.000256
1162	1.1552e+02	-6.2597	-18.411358	0.000547	5.472381	1.854093	-0.000219
1163	1.1562e+02	-6.2902	-18.669734	0.000649	6.485785	2.197443	-0.000260
1164	1.1572e+02	-6.3383	-18.911962	0.000608	6.080423	2.060103	-0.000243
1165	1.1582e+02	-6.3768	-19.146116	0.000588	5.877742	1.991433	-0.000235
1166	1.1592e+02	-6.4314	-19.388344	0.000608	6.080423	2.060103	-0.000243
1167	1.1602e+02	-6.4618	-19.646721	0.000649	6.485785	2.197443	-0.000260
1168	1.1612e+02	-6.4891	-19.872801	0.000568	5.675062	1.922763	-0.000227
1169	1.1622e+02	-6.5405	-20.102917	0.000578	5.776402	1.957098	-0.000231
1170	1.1632e+02	-6.5774	-20.381480	0.000699	6.992487	2.369119	-0.000280
1171	1.1642e+02	-6.6239	-20.579299	0.000497	4.965679	1.682418	-0.000199
1172	1.1651e+02	-6.6608	-20.878047	0.000750	7.499189	2.540794	-0.000300
1173	1.1661e+02	-6.6848	-21.067793	0.000476	4.762998	1.613747	-0.000191
1174	1.1671e+02	-6.7394	-21.346355	0.000699	6.992487	2.369119	-0.000280
1175	1.1681e+02	-6.7699	-21.576472	0.000578	5.776402	1.957098	-0.000231
1176	1.1691e+02	-6.8116	-21.842923	0.000669	6.688466	2.266113	-0.000268
1177	1.1701e+02	-6.8469	-22.081114	0.000598	5.979083	2.025768	-0.000239
1178	1.1711e+02	-6.8998	-22.311231	0.000578	5.776402	1.957098	-0.000231
1179	1.1721e+02	-6.9287	-22.553459	0.000608	6.080423	2.060103	-0.000243
1180	1.1731e+02	-6.9688	-22.815873	0.000659	6.587125	2.231778	-0.000264
1181	1.1741e+02	-7.0105	-23.021767	0.000517	5.168360	1.751088	-0.000207
1182	1.1751e+02	-7.0506	-23.296292	0.000689	6.891146	2.334784	-0.000276
1183	1.1761e+02	-7.0907	-23.518334	0.000557	5.573721	1.888428	-0.000223
1184	1.1771e+02	-7.1260	-23.784785	0.000669	6.688466	2.266113	-0.000268
1185	1.1781e+02	-7.1757	-23.994716	0.000527	5.269700	1.785423	-0.000211
1186	1.1791e+02	-7.2142	-24.261167	0.000669	6.688466	2.266113	-0.000268
1187	1.1801e+02	-7.2495	-24.495321	0.000588	5.877742	1.991433	-0.000235
1188	1.1811e+02	-7.2864	-24.757735	0.000659	6.587125	2.231778	-0.000264
1189	1.1821e+02	-7.3346	-25.008037	0.000628	6.283104	2.128773	-0.000252
1190	1.1831e+02	-7.3731	-25.197783	0.000476	4.762998	1.613747	-0.000191
1191	1.1841e+02	-7.4083	-25.464234	0.000669	6.688466	2.266113	-0.000268
1192	1.1850e+02	-7.4549	-25.771056	0.000770	7.701869	2.609464	-0.000308
1193	1.1860e+02	-7.4966	-25.924467	0.000385	3.850935	1.304732	-0.000154
1194	1.1870e+02	-7.5255	-26.186881	0.000659	6.587125	2.231778	-0.000264
1195	1.1880e+02	-7.5688	-26.477555	0.000730	7.296508	2.472124	-0.000292
1196	1.1890e+02	-7.6057	-26.675374	0.000497	4.965679	1.682418	-0.000199
1197	1.1900e+02	-7.6506	-26.953937	0.000699	6.992487	2.369119	-0.000280
1198	1.1910e+02	-7.6907	-27.139645	0.000466	4.661658	1.579412	-0.000187
1199	1.1920e+02	-7.7260	-27.414170	0.000689	6.891146	2.334784	-0.000276
1200	1.1930e+02	-7.7677	-27.640250	0.000568	5.675062	1.922763	-0.000227
1201	1.1940e+02	-7.8094	-27.870367	0.000578	5.776402	1.957098	-0.000231
1202	1.1950e+02	-7.8591	-28.144892	0.000689	6.891146	2.334784	-0.000276
1203	1.1960e+02	-7.8880	-28.395194	0.000628	6.283104	2.128773	-0.000252
1204	1.1970e+02	-7.9265	-28.593014	0.000497	4.965679	1.682418	-0.000199
1205	1.1980e+02	-7.9682	-28.843316	0.000628	6.283104	2.128773	-0.000252
1206	1.1990e+02	-8.0212	-29.081507	0.000598	5.979083	2.025768	-0.000239
1207	1.2000e+02	-8.0452	-29.279327	0.000497	4.965679	1.682418	-0.000199
1208	1.2010e+02	-8.0885	-29.557889	0.000699	6.992487	2.369119	-0.000280
1209	1.2020e+02	-8.1303	-29.828377	0.000679	6.789806	2.300449	-0.000272
1210	1.2030e+02	-8.1639	-30.050420	0.000557	5.573721	1.888428	-0.000223
1211	1.2039e+02	-8.2185	-30.276499	0.000568	5.675062	1.922763	-0.000227
1212	1.2049e+02	-8.2538	-30.522765	0.000618	6.181764	2.094438	-0.000248
1213	1.2059e+02	-8.2955	-30.736733	0.000537	5.371041	1.819758	-0.000215
1214	1.2069e+02	-8.3276	-30.995110	0.000649	6.485785	2.197443	-0.000260
1215	1.2079e+02	-8.3629	-31.221189	0.000568	5.675062	1.922763	-0.000227
1216	1.2089e+02	-8.4110	-31.467455	0.000618	6.181764	2.094438	-0.000248
1217	1.2099e+02	-8.4511	-31.709683	0.000608	6.080423	2.060103	-0.000243
1218	1.2109e+02	-8.4896	-31.931725	0.000557	5.573721	1.888428	-0.000223
1219	1.2119e+02	-8.5217	-32.153768	0.000557	5.573721	1.888428	-0.000223
1220	1.2129e+02	-8.5586	-32.432330	0.000699	6.992487	2.369119	-0.000280
1221	1.2139e+02	-8.6099	-32.650335	0.000547	5.472381	1.854093	-0.000219
1222	1.2149e+02	-8.6468	-32.888526	0.000598	5.979083	2.025768	-0.000239
1223	1.2159e+02	-8.6853	-33.154977	0.000669	6.688466	2.266113	-0.000268
1224	1.2169e+02	-8.7270	-33.385094	0.000578	5.776402	1.957098	-0.000231
1225	1.2179e+02	-8.7623	-33.582914	0.000497	4.965679	1.682418	-0.000199
1226	1.2189e+02	-8.7992	-33.837253	0.000638	6.384444	2.163108	-0.000256
1227	1.2199e+02	-8.8457	-34.083518	0.000618	6.181764	2.094438	-0.000248
1228	1.2209e+02	-8.8858	-34.305561	0.000557	5.573721	1.888428	-0.000223
1229	1.2219e+02	-8.9260	-34.543752	0.000598	5.979083	2.025768	-0.000239
1230	1.2229e+02	-8.9628	-34.794054	0.000628	6.283104	2.128773	-0.000252
1231	1.2239e+02	-9.0014	-35.052431	0.000649	6.485785	2.197443	-0.000260
1232	1.2248e+02	-9.0463	-35.266399	0.000537	5.371041	1.819758	-0.000215
1233	1.2258e+02	-9.0832	-35.512665	0.000618	6.181764	2.094438	-0.000248
1234	1.2268e+02	-9.1281	-35.730670	0.000547	5.472381	1.854093	-0.000219
1235	1.2278e+02	-9.1714	-35.948675	0.000547	5.472381	1.854093	-0.000219
1236	1.2288e+02	-9.2035	-36.231275	0.000709	7.093827	2.403454	-0.000284
1237	1.2298e+02	-9.2484	-36.437169	0.000517	5.168360	1.751088	-0.000207
1238	1.2308e+02	-9.2869	-36.691508	0.000638	6.384444	2.163108	-0.000256
1239	1.2318e+02	-9.3206	-36.913551	0.000557	5.573721	1.888428	-0.000223
1240	1.2328e+02	-9.3527	-37.159816	0.000618	6.181764	2.094438	-0.000248
1241	1.2338e+02	-9.4024	-37.385896	0.000568	5.675062	1.922763	-0.000227
1242	1.2348e+02	-9.4489	-37.636198	0.000628	6.283104	2.128773	-0.000252
1243	1.2358e+02	-9.4890	-37.834018	0.000497	4.965679	1.682418	-0.000199
1244	1.2368e+02	-9.5195	-38.096431	0.000659	6.587125	2.231778	-0.000264
1245	1.2378e+02	-9.5676	-38.322511	0.000568	5.675062	1.922763	-0.000227
1246	1.2388e+02	-9.6029	-38.580888	0.000649	6.485785	2.197443	-0.000260
1247	1.2398e+02	-9.6446	-38.802930	0.000557	5.573721	1.888428	-0.000223
1248	1.2408e+02	-9.6767	-39.024973	0.000557	5.573721	1.888428	-0.000223
1249	1.2418e+02	-9.7249	-39.238941	0.000537	5.371041	1.819758	-0.000215
1250	1.2428e+02	-9.7553	-39.489243	0.000628	6.283104	2.128773	-0.000252
1251	1.2438e+02	-9.8035	-39.723397	0.000588	5.877742	1.991433	-0.000235
1252	1.2447e+02	-9.8420	-39.953514	0.000578	5.776402	1.957098	-0.000231
1253	1.2457e+02	-9.8885	-40.175556	0.000557	5.573721	1.888428	-0.000223
1254	1.2467e+02	-9.9222	-40.417784	0.000608	6.080423	2.060103	-0.000243
1255	1.2477e+02	-9.9671	-40.631753	0.000537	5.371041	1.819758	-0.000215
1256	1.2487e+02	-10.0056	-40.873981	0.000608	6.080423	2.060103	-0.000243
1257	1.2497e+02	-10.0361	-41.104098	0.000578	5.776402	1.957098	-0.000231
1258	1.2507e+02	-10.0762	-41.326140	0.000557	5.573721	1.888428	-0.000223
1259	1.2517e+02	-10.1211	-41.556257	0.000578	5.776402	1.957098	-0.000231
1260	1.2527e+02	-10.1580	-41.814633	0.000649	6.485785	2.197443	-0.000260
1261	1.2537e+02	-10.1997	-42.060899	0.000618	6.181764	2.094438	-0.000248
1262	1.2547e+02	-10.2318	-42.242570	0.000456	4.560317	1.545077	-0.000183
1263	1.2557e+02	-10.2767	-42.500946	0.000649	6.485785	2.197443	-0.000260
1264	1.2567e+02	-10.3248	-42.722989	0.000557	5.573721	1.888428	-0.000223
1265	1.2577e+02	-10.3585	-42.957143	0.000588	5.877742	1.991433	-0.000235
1266	1.2587e+02	-10.4034	-43.211482	0.000638	6.384444	2.163108	-0.000256
1267	1.2597e+02	-10.4452	-43.433525	0.000557	5.573721	1.888428	-0.000223
1268	1.2607e+02	-10.4740	-43.655567	0.000557	5.573721	1.888428	-0.000223
1269	1.2617e+02	-10.5190	-43.913944	0.000649	6.485785	2.197443	-0.000260
1270	1.2627e+02	-10.5510	-44.107727	0.000486	4.864339	1.648083	-0.000195
1271	1.2636e+02	-10.6024	-44.341880	0.000588	5.877742	1.991433	-0.000235
1272	1.2646e+02	-10.6345	-44.612368	0.000679	6.789806	2.300449	-0.000272
1273	1.2656e+02	-10.6778	-44.785965	0.000436	4.357637	1.476407	-0.000174
1274	1.2666e+02	-10.7243	-45.044342	0.000649	6.485785	2.197443	-0.000260
1275	1.2676e+02	-10.7548	-45.306756	0.000659	6.587125	2.231778	-0.000264
1276	1.2686e+02	-10.7965	-45.492464	0.000466	4.661658	1.579412	-0.000187
1277	1.2696e+02	-10.8382	-45.762952	0.000679	6.789806	2.300449	-0.000272
1278	1.2706e+02	-10.8847	-45.968846	0.000517	5.168360	1.751088	-0.000207
1279	1.2716e+02	-10.9184	-46.219148	0.000628	6.283104	2.128773	-0.000252
1280	1.2726e+02	-10.9489	-46.400820	0.000456	4.560317	1.545077	-0.000183
1281	1.2736e+02	-11.0050	-46.667271	0.000669	6.688466	2.266113	-0.000268
1282	1.2746e+02	-11.0323	-46.869127	0.000507	5.067019	1.716753	-0.000203
1283	1.2756e+02	-11.0772	-47.135578	0.000669	6.688466	2.266113	-0.000268
1284	1.2766e+02	-11.1189	-47.381844	0.000618	6.181764	2.094438	-0.000248
1285	1.2776e+02	-11.1574	-47.575626	0.000486	4.864339	1.648083	-0.000195
1286	1.2786e+02	-11.1991	-47.797669	0.000557	5.573721	1.888428	-0.000223
1287	1.2796e+02	-11.2409	-48.043934	0.000618	6.181764	2.094438	-0.000248
1288	1.2806e+02	-11.2762	-48.310385	0.000669	6.688466	2.266113	-0.000268
1289	1.2816e+02	-11.3195	-48.504167	0.000486	4.864339	1.648083	-0.000195
1290	1.2826e+02	-11.3612	-48.746395	0.000608	6.080423	2.060103	-0.000243
1291	1.2835e+02	-11.3965	-48.919992	0.000436	4.357637	1.476407	-0.000174
1292	1.2845e+02	-11.4350	-49.198555	0.000699	6.992487	2.369119	-0.000280
1293	1.2855e+02	-11.4847	-49.420597	0.000557	5.573721	1.888428	-0.000223
1294	1.2865e+02	-11.5040	-49.658788	0.000598	5.979083	2.025768	-0.000239
1295	1.2875e+02	-11.5585	-49.888905	0.000578	5.776402	1.957098	-0.000231
1296	1.2885e+02	-11.5938	-50.086725	0.000497	4.965679	1.682418	-0.000199
1297	1.2895e+02	-11.6339	-50.292618	0.000517	5.168360	1.751088	-0.000207
1298	1.2905e+02	-11.6708	-50.550995	0.000649	6.485785	2.197443	-0.000260
1299	1.2915e+02	-11.7109	-50.777075	0.000568	5.675062	1.922763	-0.000227
1300	1.2925e+02	-11.7430	-51.019303	0.000608	6.080423	2.060103	-0.000243
1301	1.2935e+02	-11.7863	-51.221160	0.000507	5.067019	1.716753	-0.000203
1302	1.2945e+02	-11.8376	-51.455314	0.000588	5.877742	1.991433	-0.000235
1303	1.2955e+02	-11.8649	-51.673319	0.000547	5.472381	1.854093	-0.000219
1304	1.2965e+02	-11.9082	-51.907473	0.000588	5.877742	1.991433	-0.000235
1305	1.2975e+02	-11.9563	-52.125478	0.000547	5.472381	1.854093	-0.000219
1306	1.2985e+02	-11.9916	-52.359632	0.000588	5.877742	1.991433	-0.000235
1307	1.2995e+02	-12.0317	-52.581674	0.000557	5.573721	1.888428	-0.000223
1308	1.3005e+02	-12.0638	-52.799680	0.000547	5.472381	1.854093	-0.000219
1309	1.3015e+02	-12.1120	-53.045945	0.000618	6.181764	2.094438	-0.000248
1310	1.3025e+02	-12.1569	-53.288173	0.000608	6.080423	2.060103	-0.000243
1311	1.3034e+02	-12.1874	-53.494067	0.000517	5.168360	1.751088	-0.000207
1312	1.3044e+02	-12.2291	-53.776667	0.000709	7.093827	2.403454	-0.000284
1313	1.3054e+02	-12.2756	-53.978523	0.000507	5.067019	1.716753	-0.000203
1314	1.3064e+02	-12.3157	-54.196529	0.000547	5.472381	1.854093	-0.000219
1315	1.3074e+02	-12.3430	-54.410497	0.000537	5.371041	1.819758	-0.000215
1316	1.3084e+02	-12.4039	-54.612354	0.000507	5.067019	1.716753	-0.000203
1317	1.3094e+02	-12.4296	-54.866693	0.000638	6.384444	2.163108	-0.000256
1318	1.3104e+02	-12.4761	-55.060476	0.000486	4.864339	1.648083	-0.000195
1319	1.3114e+02	-12.5130	-55.302704	0.000608	6.080423	2.060103	-0.000243
1320	1.3124e+02	-12.5499	-55.524746	0.000557	5.573721	1.888428	-0.000223
1321	1.3134e+02	-12.5884	-55.766975	0.000608	6.080423	2.060103	-0.000243
1322	1.3144e+02	-12.6333	-55.956720	0.000476	4.762998	1.613747	-0.000191
1323	1.3154e+02	-12.6622	-56.211059	0.000638	6.384444	2.163108	-0.000256
1324	1.3164e+02	-12.7007	-56.461362	0.000628	6.283104	2.128773	-0.000252
1325	1.3174e+02	-12.7520	-56.638996	0.000446	4.458977	1.510742	-0.000179
1326	1.3184e+02	-12.7938	-56.889298	0.000628	6.283104	2.128773	-0.000252
1327	1.3194e+02	-12.8323	-57.070969	0.000456	4.560317	1.545077	-0.000183
1328	1.3204e+02	-12.8756	-57.301086	0.000578	5.776402	1.957098	-0.000231
1329	1.3214e+02	-12.9044	-57.515054	0.000537	5.371041	1.819758	-0.000215
1330	1.3224e+02	-12.9478	-57.753245	0.000598	5.979083	2.025768	-0.000239
1331	1.3234e+02	-12.9815	-57.967213	0.000537	5.371041	1.819758	-0.000215
1332	1.3243e+02	-13.0296	-58.225590	0.000649	6.485785	2.197443	-0.000260
1333	1.3253e+02	-13.0665	-58.455707	0.000578	5.776402	1.957098	-0.000231
1334	1.3263e+02	-13.1050	-58.625267	0.000426	4.256296	1.442072	-0.000170
1335	1.3273e+02	-13.1515	-58.887680	0.000659	6.587125	2.231778	-0.000264
1336	1.3283e+02	-13.1964	-59.093574	0.000517	5.168360	1.751088	-0.000207
1337	1.3293e+02	-13.2237	-59.299468	0.000517	5.168360	1.751088	-0.000207
1338	1.3303e+02	-13.2686	-59.549771	0.000628	6.283104	2.128773	-0.000252
1339	1.3313e+02	-13.3151	-59.775850	0.000568	5.675062	1.922763	-0.000227
1340	1.3323e+02	-13.3408	-60.038264	0.000659	6.587125	2.231778	-0.000264
1341	1.3333e+02	-13.3921	-60.191675	0.000385	3.850935	1.304732	-0.000154
1342	1.3343e+02	-13.4242	-60.417755	0.000568	5.675062	1.922763	-0.000227
1343	1.3353e+02	-13.4675	-60.659983	0.000608	6.080423	2.060103	-0.000243
1344	1.3363e+02	-13.5189	-60.857803	0.000497	4.965679	1.682418	-0.000199
1345	1.3373e+02	-13.5574	-61.100031	0.000608	6.080423	2.060103	-0.000243
1346	1.3383e+02	-13.5846	-61.334185	0.000588	5.877742	1.991433	-0.000235
1347	1.3393e+02	-13.6296	-61.584487	0.000628	6.283104	2.128773	-0.000252
1348	1.3403e+02	-13.6713	-61.766158	0.000456	4.560317	1.545077	-0.000183
1349	1.3413e+02	-13.7050	-61.976089	0.000527	5.269700	1.785423	-0.000211
1350	1.3423e+02	-13.7515	-62.214280	0.000598	5.979083	2.025768	-0.000239
1351	1.3432e+02	-13.7820	-62.440360	0.000568	5.675062	1.922763	-0.000227
1352	1.3442e+02	-13.8237	-62.630105	0.000476	4.762998	1.613747	-0.000191
1353	1.3452e+02	-13.8702	-62.827925	0.000497	4.965679	1.682418	-0.000199
1354	1.3462e+02	-13.9055	-63.106487	0.000699	6.992487	2.369119	-0.000280
1355	1.3472e+02	-13.9440	-63.324493	0.000547	5.472381	1.854093	-0.000219
1356	1.3482e+02	-13.9825	-63.506164	0.000456	4.560317	1.545077	-0.000183
1357	1.3492e+02	-14.0322	-63.744355	0.000598	5.979083	2.025768	-0.000239
1358	1.3502e+02	-14.0675	-63.970434	0.000568	5.675062	1.922763	-0.000227
1359	1.3512e+02	-14.1028	-64.184403	0.000537	5.371041	1.819758	-0.000215
1360	1.3522e+02	-14.1413	-64.454891	0.000679	6.789806	2.300449	-0.000272
1361	1.3532e+02	-14.1846	-64.644636	0.000476	4.762998	1.613747	-0.000191
1362	1.3542e+02	-14.2199	-64.858604	0.000537	5.371041	1.819758	-0.000215
1363	1.3552e+02	-14.2664	-65.096795	0.000598	5.979083	2.025768	-0.000239
1364	1.3562e+02	-14.3065	-65.282503	0.000466	4.661658	1.579412	-0.000187
1365	1.3572e+02	-14.3418	-65.520694	0.000598	5.979083	2.025768	-0.000239
1366	1.3582e+02	-14.3707	-65.730626	0.000527	5.269700	1.785423	-0.000211
1367	1.3592e+02	-14.4172	-65.972854	0.000608	6.080423	2.060103	-0.000243
1368	1.3602e+02	-14.4654	-66.174710	0.000507	5.067019	1.716753	-0.000203
1369	1.3612e+02	-14.4991	-66.400790	0.000568	5.675062	1.922763	-0.000227
1370	1.3622e+02	-14.5424	-66.655130	0.000638	6.384444	2.163108	-0.000256
1371	1.3631e+02	-14.5809	-66.812578	0.000395	3.952275	1.339067	-0.000158
1372	1.3641e+02	-14.6210	-67.034620	0.000557	5.573721	1.888428	-0.000223
1373	1.3651e+02	-14.6659	-67.244551	0.000527	5.269700	1.785423	-0.000211
1374	1.3661e+02	-14.6980	-67.422185	0.000446	4.458977	1.510742	-0.000179
1375	1.3671e+02	-14.7413	-67.676525	0.000638	6.384444	2.163108	-0.000256
1376	1.3681e+02	-14.7734	-67.947013	0.000679	6.789806	2.300449	-0.000272
1377	1.3691e+02	-14.8263	-68.136758	0.000476	4.762998	1.613747	-0.000191
1378	1.3701e+02	-14.8616	-68.358801	0.000557	5.573721	1.888428	-0.000223
1379	1.3711e+02	-14.9017	-68.524323	0.000415	4.154956	1.407737	-0.000166
1380	1.3721e+02	-14.9402	-68.810960	0.000720	7.195167	2.437789	-0.000288
1381	1.3731e+02	-14.9739	-69.020891	0.000527	5.269700	1.785423	-0.000211
1382	1.3741e+02	-15.0156	-69.255045	0.000588	5.877742	1.991433	-0.000235
1383	1.3751e+02	-15.0589	-69.436716	0.000456	4.560317	1.545077	-0.000183
1384	1.3761e+02	-15.1006	-69.622424	0.000466	4.661658	1.579412	-0.000187
1385	1.3771e+02	-15.1568	-69.856578	0.000588	5.877742	1.991433	-0.000235
1386	1.3781e+02	-15.1825	-70.098806	0.000608	6.080423	2.060103	-0.000243
1387	1.3791e+02	-15.2178	-70.288552	0.000476	4.762998	1.613747	-0.000191
1388	1.3801e+02	-15.2563	-70.538854	0.000628	6.283104	2.128773	-0.000252
1389	1.3811e+02	-15.3028	-70.748785	0.000527	5.269700	1.785423	-0.000211
1390	1.3821e+02	-15.3461	-70.930456	0.000456	4.560317	1.545077	-0.000183
1391	1.3831e+02	-15.3766	-71.217093	0.000720	7.195167	2.437789	-0.000288
1392	1.3840e+02	-15.4231	-71.398764	0.000456	4.560317	1.545077	-0.000183
1393	1.3850e+02	-15.4648	-71.592547	0.000486	4.864339	1.648083	-0.000195
1394	1.3860e+02	-15.4969	-71.790366	0.000497	4.965679	1.682418	-0.000199
1395	1.3870e+02	-15.5466	-72.020483	0.000578	5.776402	1.957098	-0.000231
1396	1.3880e+02	-15.5771	-72.274823	0.000638	6.384444	2.163108	-0.000256
1397	1.3890e+02	-15.6172	-72.468605	0.000486	4.864339	1.648083	-0.000195
1398	1.3900e+02	-15.6589	-72.686610	0.000547	5.472381	1.854093	-0.000219
1399	1.3910e+02	-15.7022	-72.892504	0.000517	5.168360	1.751088	-0.000207
1400	1.3920e+02	-15.7455	-73.142807	0.000628	6.283104	2.128773	-0.000252
1401	1.3930e+02	-15.7792	-73.312366	0.000426	4.256296	1.442072	-0.000170
1402	1.3940e+02	-15.8113	-73.554595	0.000608	6.080423	2.060103	-0.000243
1403	1.3950e+02	-15.8594	-73.776637	0.000557	5.573721	1.888428	-0.000223
1404	1.3960e+02	-15.9012	-73.986568	0.000527	5.269700	1.785423	-0.000211
1405	1.3970e+02	-15.9397	-74.200536	0.000537	5.371041	1.819758	-0.000215
1406	1.3980e+02	-15.9733	-74.430653	0.000578	5.776402	1.957098	-0.000231
1407	1.3990e+02	-16.0070	-74.624436	0.000486	4.864339	1.648083	-0.000195
1408	1.4000e+02	-16.0584	-74.830329	0.000517	5.168360	1.751088	-0.000207
1409	1.4010e+02	-16.1081	-75.052372	0.000557	5.573721	1.888428	-0.000223
1410	1.4020e+02	-16.1498	-75.278452	0.000568	5.675062	1.922763	-0.000227
1411	1.4029e+02	-16.1803	-75.484345	0.000517	5.168360	1.751088	-0.000207
1412	1.4039e+02	-16.2156	-75.698314	0.000537	5.371041	1.819758	-0.000215
1413	1.4049e+02	-16.2541	-75.904208	0.000517	5.168360	1.751088	-0.000207
1414	1.4059e+02	-16.3022	-76.142399	0.000598	5.979083	2.025768	-0.000239
1415	1.4069e+02	-16.3375	-76.376552	0.000588	5.877742	1.991433	-0.000235
1416	1.4079e+02	-16.3824	-76.542075	0.000415	4.154956	1.407737	-0.000166
1417	1.4089e+02	-16.4193	-76.760080	0.000547	5.472381	1.854093	-0.000219
1418	1.4099e+02	-16.4578	-76.990197	0.000578	5.776402	1.957098	-0.000231
1419	1.4109e+02	-16.4963	-77.216277	0.000568	5.675062	1.922763	-0.000227
1420	1.4119e+02	-16.5428	-77.401985	0.000466	4.661658	1.579412	-0.000187
1421	1.4129e+02	-16.5749	-77.632102	0.000578	5.776402	1.957098	-0.000231
1422	1.4139e+02	-16.6199	-77.846070	0.000537	5.371041	1.819758	-0.000215
1423	1.4149e+02	-16.6487	-78.023704	0.000446	4.458977	1.510742	-0.000179
1424	1.4159e+02	-16.6920	-78.265932	0.000608	6.080423	2.060103	-0.000243
1425	1.4169e+02	-16.7289	-78.463752	0.000497	4.965679	1.682418	-0.000199
1426	1.4179e+02	-16.7771	-78.681757	0.000547	5.472381	1.854093	-0.000219
1427	1.4189e+02	-16.8172	-78.923985	0.000608	6.080423	2.060103	-0.000243
1428	1.4199e+02	-16.8509	-79.117768	0.000486	4.864339	1.648083	-0.000195
1429	1.4209e+02	-16.8974	-79.355959	0.000598	5.979083	2.025768	-0.000239
1430	1.4219e+02	-16.9359	-79.573964	0.000547	5.472381	1.854093	-0.000219
1431	1.4228e+02	-16.9696	-79.727375	0.000385	3.850935	1.304732	-0.000154
1432	1.4238e+02	-17.0129	-79.977678	0.000628	6.283104	2.128773	-0.000252
1433	1.4248e+02	-17.0594	-80.163386	0.000466	4.661658	1.579412	-0.000187
1434	1.4258e+02	-17.0883	-80.381391	0.000547	5.472381	1.854093	-0.000219
1435	1.4268e+02	-17.1412	-80.599396	0.000547	5.472381	1.854093	-0.000219
1436	1.4278e+02	-17.1765	-80.849699	0.000628	6.283104	2.128773	-0.000252
1437	1.4288e+02	-17.2054	-81.031370	0.000456	4.560317	1.545077	-0.000183
1438	1.4298e+02	-17.2503	-81.261487	0.000578	5.776402	1.957098	-0.000231
1439	1.4308e+02	-17.2920	-81.483529	0.000557	5.573721	1.888428	-0.000223
1440	1.4318e+02	-17.3369	-81.649052	0.000415	4.154956	1.407737	-0.000166
1441	1.4328e+02	-17.3787	-81.927614	0.000699	6.992487	2.369119	-0.000280
1442	1.4338e+02	-17.4172	-82.113322	0.000466	4.661658	1.579412	-0.000187
1443	1.4348e+02	-17.4637	-82.299031	0.000466	4.661658	1.579412	-0.000187
1444	1.4358e+02	-17.4893	-82.512999	0.000537	5.371041	1.819758	-0.000215
1445	1.4368e+02	-17.5295	-82.735041	0.000557	5.573721	1.888428	-0.000223
1446	1.4378e+02	-17.5728	-82.928824	0.000486	4.864339	1.648083	-0.000195
1447	1.4388e+02	-17.6113	-83.138755	0.000527	5.269700	1.785423	-0.000211
1448	1.4398e+02	-17.6514	-83.340612	0.000507	5.067019	1.716753	-0.000203
1449	1.4408e+02	-17.6995	-83.603025	0.000659	6.587125	2.231778	-0.000264
1450	1.4418e+02	-17.7316	-83.808919	0.000517	5.168360	1.751088	-0.000207
1451	1.4428e+02	-17.7717	-84.010776	0.000507	5.067019	1.716753	-0.000203
1452	1.4437e+02	-17.8134	-84.253004	0.000608	6.080423	2.060103	-0.000243
1453	1.4447e+02	-17.8535	-84.422564	0.000426	4.256296	1.442072	-0.000170
1454	1.4457e+02	-17.8888	-84.644606	0.000557	5.573721	1.888428	-0.000223
1455	1.4467e+02	-17.9337	-84.854538	0.000527	5.269700	1.785423	-0.000211
1456	1.4477e+02	-17.9674	-85.040246	0.000466	4.661658	1.579412	-0.000187
1457	1.4487e+02	-18.0171	-85.274400	0.000588	5.877742	1.991433	-0.000235
1458	1.4497e+02	-18.0524	-85.484331	0.000527	5.269700	1.785423	-0.000211
1459	1.4507e+02	-18.0925	-85.686187	0.000507	5.067019	1.716753	-0.000203
1460	1.4517e+02	-18.1262	-85.916304	0.000578	5.776402	1.957098	-0.000231
1461	1.4527e+02	-18.1647	-86.102012	0.000466	4.661658	1.579412	-0.000187
1462	1.4537e+02	-18.2193	-86.324055	0.000557	5.573721	1.888428	-0.000223
1463	1.4547e+02	-18.2530	-86.538023	0.000537	5.371041	1.819758	-0.000215
1464	1.4557e+02	-18.2850	-86.780251	0.000608	6.080423	2.060103	-0.000243
1465	1.4567e+02	-18.3300	-86.957885	0.000446	4.458977	1.510742	-0.000179
1466	1.4577e+02	-18.3765	-87.167816	0.000527	5.269700	1.785423	-0.000211
1467	1.4587e+02	-18.4118	-87.393896	0.000568	5.675062	1.922763	-0.000227
1468	1.4597e+02	-18.4439	-87.567493	0.000436	4.357637	1.476407	-0.000174
1469	1.4607e+02	-18.4872	-87.765312	0.000497	4.965679	1.682418	-0.000199
1470	1.4617e+02	-18.5225	-87.991392	0.000568	5.675062	1.922763	-0.000227
1471	1.4626e+02	-18.5834	-88.233620	0.000608	6.080423	2.060103	-0.000243
1472	1.4636e+02	-18.6155	-88.439514	0.000517	5.168360	1.751088	-0.000207
1473	1.4646e+02	-18.6476	-88.653482	0.000537	5.371041	1.819758	-0.000215
1474	1.4656e+02	-18.6941	-88.863413	0.000527	5.269700	1.785423	-0.000211
1475	1.4666e+02	-18.7278	-89.065270	0.000507	5.067019	1.716753	-0.000203
1476	1.4676e+02	-18.7663	-89.279238	0.000537	5.371041	1.819758	-0.000215
1477	1.4686e+02	-18.8064	-89.468984	0.000476	4.762998	1.613747	-0.000191
1478	1.4696e+02	-18.8417	-89.695063	0.000568	5.675062	1.922763	-0.000227
1479	1.4706e+02	-18.8882	-89.900957	0.000517	5.168360	1.751088	-0.000207
1480	1.4716e+02	-18.9267	-90.131074	0.000578	5.776402	1.957098	-0.000231
1481	1.4726e+02	-18.9620	-90.284485	0.000385	3.850935	1.304732	-0.000154
1482	1.4736e+02	-19.0053	-90.522676	0.000598	5.979083	2.025768	-0.000239
1483	1.4746e+02	-19.0535	-90.696273	0.000436	4.357637	1.476407	-0.000174
1484	1.4756e+02	-19.0936	-90.950612	0.000638	6.384444	2.163108	-0.000256
1485	1.4766e+02	-19.1209	-91.164581	0.000537	5.371041	1.819758	-0.000215
1486	1.4776e+02	-19.1658	-91.378549	0.000537	5.371041	1.819758	-0.000215
1487	1.4786e+02	-19.2091	-91.584443	0.000517	5.168360	1.751088	-0.000207
1488	1.4796e+02	-19.2476	-91.782262	0.000497	4.965679	1.682418	-0.000199
1489	1.4806e+02	-19.2765	-91.951822	0.000426	4.256296	1.442072	-0.000170
1490	1.4816e+02	-19.3262	-92.198087	0.000618	6.181764	2.094438	-0.000248
1491	1.4825e+02	-19.3615	-92.359573	0.000405	4.053615	1.373402	-0.000162
1492	1.4835e+02	-19.4032	-92.557392	0.000497	4.965679	1.682418	-0.000199
1493	1.4845e+02	-19.4449	-92.823843	0.000669	6.688466	2.266113	-0.000268
1494	1.4855e+02	-19.4818	-93.045886	0.000557	5.573721	1.888428	-0.000223
1495	1.4865e+02	-19.5283	-93.227557	0.000456	4.560317	1.545077	-0.000183
1496	1.4875e+02	-19.5716	-93.409228	0.000456	4.560317	1.545077	-0.000183
1497	1.4885e+02	-19.5957	-93.651456	0.000608	6.080423	2.060103	-0.000243
1498	1.4895e+02	-19.6358	-93.816979	0.000415	4.154956	1.407737	-0.000166
1499	1.4905e+02	-19.6807	-94.047096	0.000578	5.776402	1.957098	-0.000231
1500	1.4915e+02	-19.7176	-94.236841	0.000476	4.762998	1.613747	-0.000191
1501	1.4925e+02	-19.7593	-94.495218	0.000649	6.485785	2.197443	-0.000260
1502	1.4935e+02	-19.8075	-94.713223	0.000547	5.472381	1.854093	-0.000219
1503	1.4945e+02	-19.8460	-94.874708	0.000405	4.053615	1.373402	-0.000162
1504	1.4955e+02	-19.8764	-95.108862	0.000588	5.877742	1.991433	-0.000235
1505	1.4965e+02	-19.9262	-95.290533	0.000456	4.560317	1.545077	-0.000183
1506	1.4975e+02	-19.9583	-95.512576	0.000557	5.573721	1.888428	-0.000223
1507	1.4985e+02	-20.0096	-95.694247	0.000456	4.560317	1.545077	-0.000183
1508	1.4995e+02	-19.9679	-95.746730	-0.000132	-1.317425	-0.446356	-0.000053
1509	1.5005e+02	-19.9262	-95.859770	-0.000284	-2.837531	-0.961381	-0.000114
1510	1.5015e+02	-19.8764	-95.928401	-0.000172	-1.722787	-0.583696	-0.000069
1511	1.5025e+02	-19.8460	-95.952624	-0.000061	-0.608042	-0.206010	-0.000024
1512	1.5034e+02	-19.8043	-95.992995	-0.000101	-1.013404	-0.343351	-0.000041
1513	1.5044e+02	-19.7658	-96.053552	-0.000152	-1.520106	-0.515026	-0.000061
1514	1.5054e+02	-19.7240	-96.057589	-0.000010	-0.101340	-0.034335	-0.000004
1515	1.5064e+02	-19.6887	-96.110072	-0.000132	-1.317425	-0.446356	-0.000053
1516	1.5074e+02	-19.6438	-96.089886	0.000051	0.506702	0.171675	0.000020
1517	1.5084e+02	-19.6117	-96.118146	-0.000071	-0.709383	-0.240345	-0.000028
1518	1.5094e+02	-19.5588	-96.146406	-0.000071	-0.709383	-0.240345	-0.000028
1519	1.5104e+02	-19.5219	-96.146406	0.000000	0.000000	0.000000	0.000000
1520	1.5114e+02	-19.4850	-96.186778	-0.000101	-1.013404	-0.343351	-0.000041
1521	1.5124e+02	-19.4417	-96.158518	0.000071	0.709383	0.240345	0.000028
1522	1.5134e+02	-19.4032	-96.154480	0.000010	0.101340	0.034335	0.000004
1523	1.5144e+02	-19.3775	-96.178703	-0.000061	-0.608042	-0.206010	-0.000024
1524	1.5154e+02	-19.3198	-96.178703	0.000000	0.000000	0.000000	0.000000
1525	1.5164e+02	-19.2813	-96.146406	0.000081	0.810723	0.274680	0.000032
1526	1.5174e+02	-19.2492	-96.174666	-0.000071	-0.709383	-0.240345	-0.000028
1527	1.5184e+02	-19.2043	-96.170629	0.000010	0.101340	0.034335	0.000004
1528	1.5194e+02	-19.1658	-96.162555	0.000020	0.202681	0.068670	0.000008
1529	1.5204e+02	-19.1225	-96.190815	-0.000071	-0.709383	-0.240345	-0.000028
1530	1.5214e+02	-19.0888	-96.174666	0.000041	0.405362	0.137340	0.000016
1531	1.5224e+02	-19.0455	-96.118146	0.000142	1.418765	0.480691	0.000057
1532	1.5233e+02	-19.0005	-96.122183	-0.000010	-0.101340	-0.034335	-0.000004
1533	1.5243e+02	-18.9668	-96.122183	0.000000	0.000000	0.000000	0.000000
1534	1.5253e+02	-18.9267	-96.122183	0.000000	0.000000	0.000000	0.000000
1535	1.5263e+02	-18.8930	-96.049515	0.000182	1.824127	0.618031	0.000073
1536	1.5273e+02	-18.8481	-96.061626	-0.000030	-0.304021	-0.103005	-0.000012
1537	1.5283e+02	-18.8096	-96.045478	0.000041	0.405362	0.137340	0.000016
1538	1.5293e+02	-18.7631	-96.037404	0.000020	0.202681	0.068670	0.000008
1539	1.5303e+02	-18.7294	-96.001069	0.000091	0.912063	0.309015	0.000037
1540	1.5313e+02	-18.6877	-95.984921	0.000041	0.405362	0.137340	0.000016
1541	1.5323e+02	-18.6444	-95.940512	0.000111	1.114744	0.377686	0.000045
1542	1.5333e+02	-18.6091	-95.904178	0.000091	0.912063	0.309015	0.000037
1543	1.5343e+02	-18.5658	-95.916289	-0.000030	-0.304021	-0.103005	-0.000012
1544	1.5353e+02	-18.5193	-95.859770	0.000142	1.418765	0.480691	0.000057
1545	1.5363e+02	-18.4856	-95.835547	0.000061	0.608042	0.206010	0.000024
1546	1.5373e+02	-18.4503	-95.851695	-0.000041	-0.405362	-0.137340	-0.000016
1547	1.5383e+02	-18.4102	-95.762878	0.000223	2.229489	0.755371	0.000089
1548	1.5393e+02	-18.3653	-95.742693	0.000051	0.506702	0.171675	0.000020
1549	1.5403e+02	-18.3252	-95.678098	0.000162	1.621446	0.549361	0.000065
1550	1.5413e+02	-18.2915	-95.722507	-0.000111	-1.114744	-0.377686	-0.000045
1551	1.5422e+02	-18.2433	-95.670024	0.000132	1.317425	0.446356	0.000053
1552	1.5432e+02	-18.2129	-95.589281	0.000203	2.026808	0.686701	0.000081
1553	1.5442e+02	-18.1679	-95.552947	0.000091	0.912063	0.309015	0.000037
1554	1.5452e+02	-18.1230	-95.504502	0.000122	1.216085	0.412021	0.000049
1555	1.5462e+02	-18.0893	-95.464130	0.000101	1.013404	0.343351	0.000041
1556	1.5472e+02	-18.0492	-95.435870	0.000071	0.709383	0.240345	0.000028
1557	1.5482e+02	-18.0059	-95.375313	0.000152	1.520106	0.515026	0.000061
1558	1.5492e+02	-17.9722	-95.343016	0.000081	0.810723	0.274680	0.000032
1559	1.5502e+02	-17.9337	-95.322830	0.000051	0.506702	0.171675	0.000020
1560	1.5512e+02	-17.8984	-95.286496	0.000091	0.912063	0.309015	0.000037
1561	1.5522e+02	-17.8567	-95.246125	0.000101	1.013404	0.343351	0.000041
1562	1.5532e+02	-17.8070	-95.177494	0.000172	1.722787	0.583696	0.000069
1563	1.5542e+02	-17.7733	-95.157308	0.000051	0.506702	0.171675	0.000020
1564	1.5552e+02	-17.7316	-95.076565	0.000203	2.026808	0.686701	0.000081
1565	1.5562e+02	-17.6915	-95.040231	0.000091	0.912063	0.309015	0.000037
1566	1.5572e+02	-17.6578	-94.959488	0.000203	2.026808	0.686701	0.000081
1567	1.5582e+02	-17.6097	-94.935265	0.000061	0.608042	0.206010	0.000024
1568	1.5592e+02	-17.5760	-94.902968	0.000081	0.810723	0.274680	0.000032
1569	1.5602e+02	-17.5423	-94.846448	0.000142	1.418765	0.480691	0.000057
1570	1.5612e+02	-17.4958	-94.773780	0.000182	1.824127	0.618031	0.000073
1571	1.5622e+02	-17.4476	-94.713223	0.000152	1.520106	0.515026	0.000061
1572	1.5631e+02	-17.4156	-94.684963	0.000071	0.709383	0.240345	0.000028
1573	1.5641e+02	-17.3754	-94.624406	0.000152	1.520106	0.515026	0.000061
1574	1.5651e+02	-17.3305	-94.563849	0.000152	1.520106	0.515026	0.000061
1575	1.5661e+02	-17.2952	-94.491181	0.000182	1.824127	0.618031	0.000073
1576	1.5671e+02	-17.2567	-94.454846	0.000091	0.912063	0.309015	0.000037
1577	1.5681e+02	-17.2246	-94.366029	0.000223	2.229489	0.755371	0.000089
1578	1.5691e+02	-17.1797	-94.333732	0.000081	0.810723	0.274680	0.000032
1579	1.5701e+02	-17.1348	-94.265101	0.000172	1.722787	0.583696	0.000069
1580	1.5711e+02	-17.0931	-94.200507	0.000162	1.621446	0.549361	0.000065
1581	1.5721e+02	-17.0450	-94.164173	0.000091	0.912063	0.309015	0.000037
1582	1.5731e+02	-17.0129	-94.103615	0.000152	1.520106	0.515026	0.000061
1583	1.5741e+02	-16.9872	-94.010761	0.000233	2.330829	0.789706	0.000093
1584	1.5751e+02	-16.9327	-93.978464	0.000081	0.810723	0.274680	0.000032
1585	1.5761e+02	-16.8910	-93.885610	0.000233	2.330829	0.789706	0.000093
1586	1.5771e+02	-16.8605	-93.849276	0.000091	0.912063	0.309015	0.000037
1587	1.5781e+02	-16.8124	-93.776607	0.000182	1.824127	0.618031	0.000073
1588	1.5791e+02	-16.7771	-93.736236	0.000101	1.013404	0.343351	0.000041
1589	1.5801e+02	-16.7434	-93.643382	0.000233	2.330829	0.789706	0.000093
1590	1.5811e+02	-16.6936	-93.586862	0.000142	1.418765	0.480691	0.000057
1591	1.5821e+02	-16.6535	-93.530342	0.000142	1.418765	0.480691	0.000057
1592	1.5830e+02	-16.6134	-93.453637	0.000193	1.925467	0.652366	0.000077
1593	1.5840e+02	-16.5749	-93.409228	0.000111	1.114744	0.377686	0.000045
1594	1.5850e+02	-16.5380	-93.300225	0.000274	2.736190	0.927046	0.000110
1595	1.5860e+02	-16.4899	-93.243706	0.000142	1.418765	0.480691	0.000057
1596	1.5870e+02	-16.4546	-93.191223	0.000132	1.317425	0.446356	0.000053
1597	1.5880e+02	-16.4129	-93.134703	0.000142	1.418765	0.480691	0.000057
1598	1.5890e+02	-16.3728	-93.025700	0.000274	2.736190	0.927046	0.000110
1599	1.5900e+02	-16.3391	-92.989366	0.000091	0.912063	0.309015	0.000037
1600	1.5910e+02	-16.3006	-92.908623	0.000203	2.026808	0.686701	0.000081
1601	1.5920e+02	-16.2573	-92.864215	0.000111	1.114744	0.377686	0.000045
1602	1.5930e+02	-16.2156	-92.787509	0.000193	1.925467	0.652366	0.000077
1603	1.5940e+02	-16.1787	-92.698692	0.000223	2.229489	0.755371	0.000089
1604	1.5950e+02	-16.1418	-92.617950	0.000203	2.026808	0.686701	0.000081
1605	1.5960e+02	-16.0969	-92.553355	0.000162	1.621446	0.549361	0.000065
1606	1.5970e+02	-16.0487	-92.464538	0.000223	2.229489	0.755371	0.000089
1607	1.5980e+02	-16.0263	-92.355536	0.000274	2.736190	0.927046	0.000110
1608	1.5990e+02	-15.9717	-92.307090	0.000122	1.216085	0.412021	0.000049
1609	1.6000e+02	-15.9429	-92.234422	0.000182	1.824127	0.618031	0.000073
1610	1.6010e+02	-15.8979	-92.173865	0.000152	1.520106	0.515026	0.000061
1611	1.6019e+02	-15.8659	-92.060825	0.000284	2.837531	0.961381	0.000114
1612	1.6029e+02	-15.8193	-92.004305	0.000142	1.418765	0.480691	0.000057
1613	1.6039e+02	-15.7824	-91.903377	0.000253	2.533510	0.858376	0.000101
1614	1.6049e+02	-15.7455	-91.858968	0.000111	1.114744	0.377686	0.000045
1615	1.6059e+02	-15.7006	-91.745928	0.000284	2.837531	0.961381	0.000114
1616	1.6069e+02	-15.6557	-91.636926	0.000274	2.736190	0.927046	0.000110
1617	1.6079e+02	-15.6252	-91.624814	0.000030	0.304021	0.103005	0.000012
1618	1.6089e+02	-15.5819	-91.519849	0.000263	2.634850	0.892711	0.000105
1619	1.6099e+02	-15.5434	-91.463329	0.000142	1.418765	0.480691	0.000057
1620	1.6109e+02	-15.4985	-91.338178	0.000314	3.141552	1.064387	0.000126
1621	1.6119e+02	-15.4568	-91.233212	0.000263	2.634850	0.892711	0.000105
1622	1.6129e+02	-15.4231	-91.204952	0.000071	0.709383	0.240345	0.000028
1623	1.6139e+02	-15.3766	-91.136321	0.000172	1.722787	0.583696	0.000069
1624	1.6149e+02	-15.3397	-91.031355	0.000263	2.634850	0.892711	0.000105
1625	1.6159e+02	-15.3076	-90.954650	0.000193	1.925467	0.652366	0.000077
1626	1.6169e+02	-15.2659	-90.861795	0.000233	2.330829	0.789706	0.000093
1627	1.6179e+02	-15.2226	-90.744719	0.000294	2.938871	0.995717	0.000118
1628	1.6189e+02	-15.1857	-90.728570	0.000041	0.405362	0.137340	0.000016
1629	1.6199e+02	-15.1424	-90.595345	0.000334	3.344233	1.133057	0.000134
1630	1.6209e+02	-15.1087	-90.546899	0.000122	1.216085	0.412021	0.000049
1631	1.6219e+02	-15.0654	-90.417711	0.000324	3.242892	1.098722	0.000130
1632	1.6228e+02	-15.0236	-90.332931	0.000213	2.128148	0.721036	0.000085
1633	1.6238e+02	-14.9851	-90.268337	0.000162	1.621446	0.549361	0.000065
1634	1.6248e+02	-14.9386	-90.167408	0.000253	2.533510	0.858376	0.000101
1635	1.6258e+02	-14.9001	-90.090703	0.000193	1.925467	0.652366	0.000077
1636	1.6268e+02	-14.8664	-90.009960	0.000203	2.026808	0.686701	0.000081
1637	1.6278e+02	-14.8215	-89.888846	0.000304	3.040212	1.030052	0.000122
1638	1.6288e+02	-14.7862	-89.804066	0.000213	2.128148	0.721036	0.000085
1639	1.6298e+02	-14.7349	-89.686989	0.000294	2.938871	0.995717	0.000118
1640	1.6308e+02	-14.7076	-89.602209	0.000213	2.128148	0.721036	0.000085
1641	1.6318e+02	-14.6595	-89.537615	0.000162	1.621446	0.549361	0.000065
1642	1.6328e+02	-14.6242	-89.444761	0.000233	2.330829	0.789706	0.000093
1643	1.6338e+02	-14.5873	-89.335758	0.000274	2.736190	0.927046	0.000110
1644	1.6348e+02	-14.5472	-89.267127	0.000172	1.722787	0.583696	0.000069
1645	1.6358e+02	-14.5039	-89.166198	0.000253	2.533510	0.858376	0.000101
1646	1.6368e+02	-14.4590	-89.097567	0.000172	1.722787	0.583696	0.000069
1647	1.6378e+02	-14.4172	-88.980490	0.000294	2.938871	0.995717	0.000118
1648	1.6388e+02	-14.3739	-88.891673	0.000223	2.229489	0.755371	0.000089
1649	1.6398e+02	-14.3370	-88.766522	0.000314	3.141552	1.064387	0.000126
1650	1.6408e+02	-14.3162	-88.685779	0.000203	2.026808	0.686701	0.000081
1651	1.6418e+02	-14.2552	-88.596962	0.000223	2.229489	0.755371	0.000089
1652	1.6427e+02	-14.2311	-88.471811	0.000314	3.141552	1.064387	0.000126
1653	1.6437e+02	-14.1814	-88.387031	0.000213	2.128148	0.721036	0.000085
1654	1.6447e+02	-14.1477	-88.286103	0.000253	2.533510	0.858376	0.000101
1655	1.6457e+02	-14.1092	-88.217472	0.000172	1.722787	0.583696	0.000069
1656	1.6467e+02	-14.0691	-88.088283	0.000324	3.242892	1.098722	0.000130
1657	1.6477e+02	-14.0274	-88.011578	0.000193	1.925467	0.652366	0.000077
1658	1.6487e+02	-13.9873	-87.890464	0.000304	3.040212	1.030052	0.000122
1659	1.6497e+02	-13.9472	-87.833944	0.000142	1.418765	0.480691	0.000057
1660	1.6507e+02	-13.8991	-87.720904	0.000284	2.837531	0.961381	0.000114
1661	1.6517e+02	-13.8670	-87.583641	0.000345	3.445573	1.167392	0.000138
1662	1.6527e+02	-13.8237	-87.458490	0.000314	3.141552	1.064387	0.000126
1663	1.6537e+02	-13.7852	-87.385822	0.000182	1.824127	0.618031	0.000073
1664	1.6547e+02	-13.7419	-87.313153	0.000182	1.824127	0.618031	0.000073
1665	1.6557e+02	-13.7082	-87.175891	0.000345	3.445573	1.167392	0.000138
1666	1.6567e+02	-13.6777	-87.115334	0.000152	1.520106	0.515026	0.000061
1667	1.6577e+02	-13.6231	-86.986145	0.000324	3.242892	1.098722	0.000130
1668	1.6587e+02	-13.5862	-86.897328	0.000223	2.229489	0.755371	0.000089
1669	1.6597e+02	-13.5413	-86.804474	0.000233	2.330829	0.789706	0.000093
1670	1.6607e+02	-13.5012	-86.667211	0.000345	3.445573	1.167392	0.000138
1671	1.6616e+02	-13.4691	-86.558209	0.000274	2.736190	0.927046	0.000110
1672	1.6626e+02	-13.4226	-86.453243	0.000263	2.634850	0.892711	0.000105
1673	1.6636e+02	-13.3889	-86.324055	0.000324	3.242892	1.098722	0.000130
1674	1.6646e+02	-13.3488	-86.206978	0.000294	2.938871	0.995717	0.000118
1675	1.6656e+02	-13.3055	-86.154495	0.000132	1.317425	0.446356	0.000053
1676	1.6666e+02	-13.2622	-86.073753	0.000203	2.026808	0.686701	0.000081
1677	1.6676e+02	-13.2189	-85.924378	0.000375	3.749594	1.270397	0.000150
1678	1.6686e+02	-13.1884	-85.823450	0.000253	2.533510	0.858376	0.000101
1679	1.6696e+02	-13.1451	-85.738670	0.000213	2.128148	0.721036	0.000085
1680	1.6706e+02	-13.1114	-85.605445	0.000334	3.344233	1.133057	0.000134
1681	1.6716e+02	-13.0633	-85.520665	0.000213	2.128148	0.721036	0.000085
1682	1.6726e+02	-13.0344	-85.379365	0.000355	3.546914	1.201727	0.000142
1683	1.6736e+02	-12.9815	-85.258251	0.000304	3.040212	1.030052	0.000122
1684	1.6746e+02	-12.9446	-85.161360	0.000243	2.432169	0.824041	0.000097
1685	1.6756e+02	-12.9093	-85.048320	0.000284	2.837531	0.961381	0.000114
1686	1.6766e+02	-12.8692	-84.919132	0.000324	3.242892	1.098722	0.000130
1687	1.6776e+02	-12.8355	-84.834352	0.000213	2.128148	0.721036	0.000085
1688	1.6786e+02	-12.8034	-84.693052	0.000355	3.546914	1.201727	0.000142
1689	1.6796e+02	-12.7472	-84.588087	0.000263	2.634850	0.892711	0.000105
1690	1.6806e+02	-12.7103	-84.462935	0.000314	3.141552	1.064387	0.000126
1691	1.6816e+02	-12.6686	-84.386230	0.000193	1.925467	0.652366	0.000077
1692	1.6825e+02	-12.6221	-84.236856	0.000375	3.749594	1.270397	0.000150
1693	1.6835e+02	-12.5900	-84.144002	0.000233	2.330829	0.789706	0.000093
1694	1.6845e+02	-12.5499	-84.043073	0.000253	2.533510	0.858376	0.000101
1695	1.6855e+02	-12.5210	-83.869476	0.000436	4.357637	1.476407	0.000174
1696	1.6865e+02	-12.4665	-83.800845	0.000172	1.722787	0.583696	0.000069
1697	1.6875e+02	-12.4376	-83.691842	0.000274	2.736190	0.927046	0.000110
1698	1.6885e+02	-12.3991	-83.582840	0.000274	2.736190	0.927046	0.000110
1699	1.6895e+02	-12.3558	-83.481911	0.000253	2.533510	0.858376	0.000101
1700	1.6905e+02	-12.3157	-83.332537	0.000375	3.749594	1.270397	0.000150
1701	1.6915e+02	-12.2788	-83.203349	0.000324	3.242892	1.098722	0.000130
1702	1.6925e+02	-12.2339	-83.110495	0.000233	2.330829	0.789706	0.000093
1703	1.6935e+02	-12.1970	-82.953047	0.000395	3.952275	1.339067	0.000158
1704	1.6945e+02	-12.1537	-82.860192	0.000233	2.330829	0.789706	0.000093
1705	1.6955e+02	-12.1104	-82.751190	0.000274	2.736190	0.927046	0.000110
1706	1.6965e+02	-12.0735	-82.613927	0.000345	3.445573	1.167392	0.000138
1707	1.6975e+02	-12.0430	-82.500887	0.000284	2.837531	0.961381	0.000114
1708	1.6985e+02	-11.9868	-82.383810	0.000294	2.938871	0.995717	0.000118
1709	1.6995e+02	-11.9547	-82.282882	0.000253	2.533510	0.858376	0.000101
1710	1.7005e+02	-11.9146	-82.141582	0.000355	3.546914	1.201727	0.000142
1711	1.7015e+02	-11.8745	-82.000283	0.000355	3.546914	1.201727	0.000142
1712	1.7024e+02	-11.8344	-81.887243	0.000284	2.837531	0.961381	0.000114
1713	1.7034e+02	-11.7959	-81.766129	0.000304	3.040212	1.030052	0.000122
1714	1.7044e+02	-11.7366	-81.665200	0.000253	2.533510	0.858376	0.000101
1715	1.7054e+02	-11.7189	-81.572346	0.000233	2.330829	0.789706	0.000093
1716	1.7064e+02	-11.6692	-81.443158	0.000324	3.242892	1.098722	0.000130
1717	1.7074e+02	-11.6323	-81.269561	0.000436	4.357637	1.476407	0.000174
1718	1.7084e+02	-11.5938	-81.148447	0.000304	3.040212	1.030052	0.000122
1719	1.7094e+02	-11.5537	-81.031370	0.000294	2.938871	0.995717	0.000118
1720	1.7104e+02	-11.5216	-80.926404	0.000263	2.634850	0.892711	0.000105
1721	1.7114e+02	-11.4751	-80.760882	0.000415	4.154956	1.407737	0.000166
1722	1.7124e+02	-11.4334	-80.643805	0.000294	2.938871	0.995717	0.000118
1723	1.7134e+02	-11.3981	-80.530765	0.000284	2.837531	0.961381	0.000114
1724	1.7144e+02	-11.3564	-80.369280	0.000405	4.053615	1.373402	0.000162
1725	1.7154e+02	-11.3195	-80.300648	0.000172	1.722787	0.583696	0.000069
1726	1.7164e+02	-11.2762	-80.211831	0.000223	2.229489	0.755371	0.000089
1727	1.7174e+02	-11.2344	-80.038235	0.000436	4.357637	1.476407	0.000174
1728	1.7184e+02	-11.1975	-79.905009	0.000334	3.344233	1.133057	0.000134
1729	1.7194e+02	-11.1671	-79.751598	0.000385	3.850935	1.304732	0.000154
1730	1.7204e+02	-11.1077	-79.654707	0.000243	2.432169	0.824041	0.000097
1731	1.7213e+02	-11.0724	-79.537630	0.000294	2.938871	0.995717	0.000118
1732	1.7223e+02	-11.0387	-79.408441	0.000324	3.242892	1.098722	0.000130
1733	1.7233e+02	-10.9906	-79.246956	0.000405	4.053615	1.373402	0.000162
1734	1.7243e+02	-10.9585	-79.117768	0.000324	3.242892	1.098722	0.000130
1735	1.7253e+02	-10.9152	-78.948208	0.000426	4.256296	1.442072	0.000170
1736	1.7263e+02	-10.8799	-78.855354	0.000233	2.330829	0.789706	0.000093
1737	1.7273e+02	-10.8414	-78.722128	0.000334	3.344233	1.133057	0.000134
1738	1.7283e+02	-10.7933	-78.605051	0.000294	2.938871	0.995717	0.000118
1739	1.7293e+02	-10.7548	-78.447603	0.000395	3.952275	1.339067	0.000158
1740	1.7303e+02	-10.7163	-78.342638	0.000263	2.634850	0.892711	0.000105
1741	1.7313e+02	-10.6858	-78.225561	0.000294	2.938871	0.995717	0.000118
1742	1.7323e+02	-10.6377	-78.080224	0.000365	3.648254	1.236062	0.000146
1743	1.7333e+02	-10.6072	-77.938924	0.000355	3.546914	1.201727	0.000142
1744	1.7343e+02	-10.5559	-77.785513	0.000385	3.850935	1.304732	0.000154
1745	1.7353e+02	-10.5238	-77.652287	0.000334	3.344233	1.133057	0.000134
1746	1.7363e+02	-10.4821	-77.543285	0.000274	2.736190	0.927046	0.000110
1747	1.7373e+02	-10.4420	-77.381799	0.000405	4.053615	1.373402	0.000162
1748	1.7383e+02	-10.3922	-77.276834	0.000263	2.634850	0.892711	0.000105
1749	1.7393e+02	-10.3473	-77.091125	0.000466	4.661658	1.579412	0.000187
1750	1.7403e+02	-10.3184	-77.002308	0.000223	2.229489	0.755371	0.000089
1751	1.7413e+02	-10.2719	-76.840823	0.000405	4.053615	1.373402	0.000162
1752	1.7422e+02	-10.2366	-76.707598	0.000334	3.344233	1.133057	0.000134
1753	1.7432e+02	-10.2045	-76.578409	0.000324	3.242892	1.098722	0.000130
1754	1.7442e+02	-10.1484	-76.445184	0.000334	3.344233	1.133057	0.000134
1755	1.7452e+02	-10.1307	-76.311958	0.000334	3.344233	1.133057	0.000134
1756	1.7462e+02	-10.0810	-76.178733	0.000334	3.344233	1.133057	0.000134
1757	1.7472e+02	-10.0425	-76.029359	0.000375	3.749594	1.270397	0.000150
1758	1.7482e+02	-9.9928	-75.859799	0.000426	4.256296	1.442072	0.000170
1759	1.7492e+02	-9.9655	-75.738685	0.000304	3.040212	1.030052	0.000122
1760	1.7502e+02	-9.9110	-75.581237	0.000395	3.952275	1.339067	0.000158
1761	1.7512e+02	-9.8757	-75.468197	0.000284	2.837531	0.961381	0.000114
1762	1.7522e+02	-9.8356	-75.326897	0.000355	3.546914	1.201727	0.000142
1763	1.7532e+02	-9.8051	-75.193672	0.000334	3.344233	1.133057	0.000134
1764	1.7542e+02	-9.7585	-75.007963	0.000466	4.661658	1.579412	0.000187
1765	1.7552e+02	-9.7281	-74.907035	0.000253	2.533510	0.858376	0.000101
1766	1.7562e+02	-9.6783	-74.769772	0.000345	3.445573	1.167392	0.000138
1767	1.7572e+02	-9.6430	-74.616361	0.000385	3.850935	1.304732	0.000154
1768	1.7582e+02	-9.6013	-74.495247	0.000304	3.040212	1.030052	0.000122
1769	1.7592e+02	-9.5644	-74.349910	0.000365	3.648254	1.236062	0.000146
1770	1.7602e+02	-9.5275	-74.220722	0.000324	3.242892	1.098722	0.000130
1771	1.7612e+02	-9.4842	-74.075385	0.000365	3.648254	1.236062	0.000146
1772	1.7621e+02	-9.4505	-73.913900	0.000405	4.053615	1.373402	0.000162
1773	1.7631e+02	-9.3976	-73.772600	0.000355	3.546914	1.201727	0.000142
1774	1.7641e+02	-9.3639	-73.615152	0.000395	3.952275	1.339067	0.000158
1775	1.7651e+02	-9.3238	-73.457703	0.000395	3.952275	1.339067	0.000158
1776	1.7661e+02	-9.2933	-73.292181	0.000415	4.154956	1.407737	0.000166
1777	1.7671e+02	-9.2516	-73.191252	0.000253	2.533510	0.858376	0.000101
1778	1.7681e+02	-9.1971	-73.037841	0.000385	3.850935	1.304732	0.000154
1779	1.7691e+02	-9.1634	-72.924801	0.000284	2.837531	0.961381	0.000114
1780	1.7701e+02	-9.1217	-72.726982	0.000497	4.965679	1.682418	0.000199
1781	1.7711e+02	-9.0896	-72.601831	0.000314	3.141552	1.064387	0.000126
1782	1.7721e+02	-9.0495	-72.436308	0.000415	4.154956	1.407737	0.000166
1783	1.7731e+02	-9.0030	-72.299045	0.000345	3.445573	1.167392	0.000138
1784	1.7741e+02	-8.9757	-72.157746	0.000355	3.546914	1.201727	0.000142
1785	1.7751e+02	-8.9147	-72.008372	0.000375	3.749594	1.270397	0.000150
1786	1.7761e+02	-8.8762	-71.875146	0.000334	3.344233	1.133057	0.000134
1787	1.7771e+02	-8.8602	-71.729809	0.000365	3.648254	1.236062	0.000146
1788	1.7781e+02	-8.7992	-71.588509	0.000355	3.546914	1.201727	0.000142
1789	1.7791e+02	-8.7639	-71.378578	0.000527	5.269700	1.785423	0.000211
1790	1.7801e+02	-8.7238	-71.237279	0.000355	3.546914	1.201727	0.000142
1791	1.7810e+02	-8.6837	-71.116165	0.000304	3.040212	1.030052	0.000122
1792	1.7820e+02	-8.6500	-70.934493	0.000456	4.560317	1.545077	0.000183
1793	1.7830e+02	-8.6035	-70.756860	0.000446	4.458977	1.510742	0.000179
1794	1.7840e+02	-8.5762	-70.627671	0.000324	3.242892	1.098722	0.000130
1795	1.7850e+02	-8.5313	-70.490409	0.000345	3.445573	1.167392	0.000138
1796	1.7860e+02	-8.4944	-70.324886	0.000415	4.154956	1.407737	0.000166
1797	1.7870e+02	-8.4463	-70.147252	0.000446	4.458977	1.510742	0.000179
1798	1.7880e+02	-8.4126	-70.030175	0.000294	2.938871	0.995717	0.000118
1799	1.7890e+02	-8.3597	-69.888875	0.000355	3.546914	1.201727	0.000142
1800	1.7900e+02	-8.3292	-69.707204	0.000456	4.560317	1.545077	0.000183
1801	1.7910e+02	-8.2923	-69.557830	0.000375	3.749594	1.270397	0.000150
1802	1.7920e+02	-8.2506	-69.416530	0.000355	3.546914	1.201727	0.000142
1803	1.7930e+02	-8.2089	-69.242934	0.000436	4.357637	1.476407	0.000174
1804	1.7940e+02	-8.1607	-69.089522	0.000385	3.850935	1.304732	0.000154
1805	1.7950e+02	-8.1206	-68.919963	0.000426	4.256296	1.442072	0.000170
1806	1.7960e+02	-8.0918	-68.802886	0.000294	2.938871	0.995717	0.000118
1807	1.7970e+02	-8.0516	-68.621215	0.000456	4.560317	1.545077	0.000183
1808	1.7980e+02	-8.0164	-68.483952	0.000345	3.445573	1.167392	0.000138
1809	1.7990e+02	-7.9698	-68.322467	0.000405	4.053615	1.373402	0.000162
1810	1.8000e+02	-7.9297	-68.148870	0.000436	4.357637	1.476407	0.000174
1811	1.8009e+02	-7.8944	-68.011607	0.000345	3.445573	1.167392	0.000138
1812	1.8019e+02	-7.8559	-67.821862	0.000476	4.762998	1.613747	0.000191
1813	1.8029e+02	-7.8174	-67.704785	0.000294	2.938871	0.995717	0.000118
1814	1.8039e+02	-7.7741	-67.551374	0.000385	3.850935	1.304732	0.000154
1815	1.8049e+02	-7.7372	-67.329331	0.000557	5.573721	1.888428	0.000223
1816	1.8059e+02	-7.6907	-67.175920	0.000385	3.850935	1.304732	0.000154
1817	1.8069e+02	-7.6490	-66.994249	0.000456	4.560317	1.545077	0.000183
1818	1.8079e+02	-7.6009	-66.889283	0.000263	2.634850	0.892711	0.000105
1819	1.8089e+02	-7.5800	-66.663204	0.000568	5.675062	1.922763	0.000227
1820	1.8099e+02	-7.5255	-66.550164	0.000284	2.837531	0.961381	0.000114
1821	1.8109e+02	-7.4966	-66.392716	0.000395	3.952275	1.339067	0.000158
1822	1.8119e+02	-7.4436	-66.251416	0.000355	3.546914	1.201727	0.000142
1823	1.8129e+02	-7.4148	-66.093968	0.000395	3.952275	1.339067	0.000158
1824	1.8139e+02	-7.3714	-65.871925	0.000557	5.573721	1.888428	0.000223
1825	1.8149e+02	-7.3410	-65.718514	0.000385	3.850935	1.304732	0.000154
1826	1.8159e+02	-7.2928	-65.573177	0.000365	3.648254	1.236062	0.000146
1827	1.8169e+02	-7.2415	-65.431877	0.000355	3.546914	1.201727	0.000142
1828	1.8179e+02	-7.2078	-65.282503	0.000375	3.749594	1.270397	0.000150
1829	1.8189e+02	-7.1725	-65.084684	0.000497	4.965679	1.682418	0.000199
1830	1.8199e+02	-7.1372	-64.898976	0.000466	4.661658	1.579412	0.000187
1831	1.8209e+02	-7.0875	-64.798047	0.000253	2.533510	0.858376	0.000101
1832	1.8218e+02	-7.0554	-64.584079	0.000537	5.371041	1.819758	0.000215
1833	1.8228e+02	-7.0153	-64.426631	0.000395	3.952275	1.339067	0.000158
1834	1.8238e+02	-6.9800	-64.257071	0.000426	4.256296	1.442072	0.000170
1835	1.8248e+02	-6.9367	-64.103660	0.000385	3.850935	1.304732	0.000154
1836	1.8258e+02	-6.8950	-63.921989	0.000456	4.560317	1.545077	0.000183
1837	1.8268e+02	-6.8469	-63.732243	0.000476	4.762998	1.613747	0.000191
1838	1.8278e+02	-6.8116	-63.574795	0.000395	3.952275	1.339067	0.000158
1839	1.8288e+02	-6.7683	-63.389087	0.000466	4.661658	1.579412	0.000187
1840	1.8298e+02	-6.7362	-63.223564	0.000415	4.154956	1.407737	0.000166
1841	1.8308e+02	-6.6929	-63.082264	0.000355	3.546914	1.201727	0.000142
1842	1.8318e+02	-6.6544	-62.896556	0.000466	4.661658	1.579412	0.000187
1843	1.8328e+02	-6.6126	-62.743145	0.000385	3.850935	1.304732	0.000154
1844	1.8338e+02	-6.5758	-62.549363	0.000486	4.864339	1.648083	0.000195
1845	1.8348e+02	-6.5308	-62.379803	0.000426	4.256296	1.442072	0.000170
1846	1.8358e+02	-6.4875	-62.226392	0.000385	3.850935	1.304732	0.000154
1847	1.8368e+02	-6.4538	-62.044721	0.000456	4.560317	1.545077	0.000183
1848	1.8378e+02	-6.4121	-61.875161	0.000426	4.256296	1.442072	0.000170
1849	1.8388e+02	-6.3848	-61.693490	0.000456	4.560317	1.545077	0.000183
1850	1.8398e+02	-6.3383	-61.532004	0.000405	4.053615	1.373402	0.000162
1851	1.8407e+02	-6.2998	-61.398779	0.000334	3.344233	1.133057	0.000134
1852	1.8417e+02	-6.2677	-61.148476	0.000628	6.283104	2.128773	0.000252
1853	1.8427e+02	-6.2164	-60.995065	0.000385	3.850935	1.304732	0.000154
1854	1.8437e+02	-6.1875	-60.833580	0.000405	4.053615	1.373402	0.000162
1855	1.8447e+02	-6.1346	-60.655946	0.000446	4.458977	1.510742	0.000179
1856	1.8457e+02	-6.0993	-60.482349	0.000436	4.357637	1.476407	0.000174
1857	1.8467e+02	-6.0544	-60.308752	0.000436	4.357637	1.476407	0.000174
1858	1.8477e+02	-6.0191	-60.110933	0.000497	4.965679	1.682418	0.000199
1859	1.8487e+02	-5.9758	-59.933299	0.000446	4.458977	1.510742	0.000179
1860	1.8497e+02	-5.9357	-59.783925	0.000375	3.749594	1.270397	0.000150
1861	1.8507e+02	-5.9180	-59.578031	0.000517	5.168360	1.751088	0.000207
1862	1.8517e+02	-5.8554	-59.416545	0.000405	4.053615	1.373402	0.000162
1863	1.8527e+02	-5.8153	-59.275245	0.000355	3.546914	1.201727	0.000142
1864	1.8537e+02	-5.7752	-59.089537	0.000466	4.661658	1.579412	0.000187
1865	1.8547e+02	-5.7480	-58.887680	0.000507	5.067019	1.716753	0.000203
1866	1.8557e+02	-5.7095	-58.657564	0.000578	5.776402	1.957098	0.000231
1867	1.8567e+02	-5.6629	-58.556635	0.000253	2.533510	0.858376	0.000101
1868	1.8577e+02	-5.6180	-58.354779	0.000507	5.067019	1.716753	0.000203
1869	1.8587e+02	-5.5859	-58.201367	0.000385	3.850935	1.304732	0.000154
1870	1.8597e+02	-5.5330	-57.983362	0.000547	5.472381	1.854093	0.000219
1871	1.8606e+02	-5.4929	-57.825914	0.000395	3.952275	1.339067	0.000158
1872	1.8616e+02	-5.4560	-57.620020	0.000517	5.168360	1.751088	0.000207
1873	1.8626e+02	-5.4207	-57.454497	0.000415	4.154956	1.407737	0.000166
1874	1.8636e+02	-5.3870	-57.268789	0.000466	4.661658	1.579412	0.000187
1875	1.8646e+02	-5.3293	-57.091155	0.000446	4.458977	1.510742	0.000179
1876	1.8656e+02	-5.3068	-56.852964	0.000598	5.979083	2.025768	0.000239
1877	1.8666e+02	-5.2619	-56.671293	0.000456	4.560317	1.545077	0.000183
1878	1.8676e+02	-5.2218	-56.513845	0.000395	3.952275	1.339067	0.000158
1879	1.8686e+02	-5.1865	-56.332174	0.000456	4.560317	1.545077	0.000183
1880	1.8696e+02	-5.1480	-56.138391	0.000486	4.864339	1.648083	0.000195
1881	1.8706e+02	-5.1047	-55.964794	0.000436	4.357637	1.476407	0.000174
1882	1.8716e+02	-5.0726	-55.783123	0.000456	4.560317	1.545077	0.000183
1883	1.8726e+02	-5.0261	-55.601452	0.000456	4.560317	1.545077	0.000183
1884	1.8736e+02	-4.9876	-55.379409	0.000557	5.573721	1.888428	0.000223
1885	1.8746e+02	-4.9491	-55.217924	0.000405	4.053615	1.373402	0.000162
1886	1.8756e+02	-4.9138	-54.999919	0.000547	5.472381	1.854093	0.000219
1887	1.8766e+02	-4.8576	-54.858619	0.000355	3.546914	1.201727	0.000142
1888	1.8776e+02	-4.8287	-54.652725	0.000517	5.168360	1.751088	0.000207
1889	1.8786e+02	-4.7790	-54.454905	0.000497	4.965679	1.682418	0.000199
1890	1.8796e+02	-4.7485	-54.277271	0.000446	4.458977	1.510742	0.000179
1891	1.8806e+02	-4.7020	-54.095600	0.000456	4.560317	1.545077	0.000183
1892	1.8815e+02	-4.6587	-53.917966	0.000446	4.458977	1.510742	0.000179
1893	1.8825e+02	-4.6314	-53.708035	0.000527	5.269700	1.785423	0.000211
1894	1.8835e+02	-4.5833	-53.518290	0.000476	4.762998	1.613747	0.000191
1895	1.8845e+02	-4.5448	-53.324507	0.000486	4.864339	1.648083	0.000195
1896	1.8855e+02	-4.5047	-53.122651	0.000507	5.067019	1.716753	0.000203
1897	1.8865e+02	-4.4678	-52.961165	0.000405	4.053615	1.373402	0.000162
1898	1.8875e+02	-4.4229	-52.759308	0.000507	5.067019	1.716753	0.000203
1899	1.8885e+02	-4.3828	-52.545340	0.000537	5.371041	1.819758	0.000215
1900	1.8895e+02	-4.3459	-52.331372	0.000537	5.371041	1.819758	0.000215
1901	1.8905e+02	-4.3074	-52.177961	0.000385	3.850935	1.304732	0.000154
1902	1.8915e+02	-4.2721	-51.976104	0.000507	5.067019	1.716753	0.000203
1903	1.8925e+02	-4.2272	-51.814619	0.000405	4.053615	1.373402	0.000162
1904	1.8935e+02	-4.1822	-51.596613	0.000547	5.472381	1.854093	0.000219
1905	1.8945e+02	-4.1357	-51.394757	0.000507	5.067019	1.716753	0.000203
1906	1.8955e+02	-4.1116	-51.200974	0.000486	4.864339	1.648083	0.000195
1907	1.8965e+02	-4.0699	-50.999117	0.000507	5.067019	1.716753	0.000203
1908	1.8975e+02	-4.0250	-50.829558	0.000426	4.256296	1.442072	0.000170
1909	1.8985e+02	-3.9849	-50.607515	0.000557	5.573721	1.888428	0.000223
1910	1.8995e+02	-3.9464	-50.433918	0.000436	4.357637	1.476407	0.000174
1911	1.9004e+02	-3.9047	-50.228024	0.000517	5.168360	1.751088	0.000207
1912	1.9014e+02	-3.8614	-50.022130	0.000517	5.168360	1.751088	0.000207
1913	1.9024e+02	-3.8309	-49.787976	0.000588	5.877742	1.991433	0.000235
1914	1.9034e+02	-3.7908	-49.614380	0.000436	4.357637	1.476407	0.000174
1915	1.9044e+02	-3.7587	-49.448857	0.000415	4.154956	1.407737	0.000166
1916	1.9054e+02	-3.7106	-49.206629	0.000608	6.080423	2.060103	0.000243
1917	1.9064e+02	-3.6737	-49.045144	0.000405	4.053615	1.373402	0.000162
1918	1.9074e+02	-3.6368	-48.835212	0.000527	5.269700	1.785423	0.000211
1919	1.9084e+02	-3.5758	-48.580873	0.000638	6.384444	2.163108	0.000256
1920	1.9094e+02	-3.5470	-48.407276	0.000436	4.357637	1.476407	0.000174
1921	1.9104e+02	-3.5117	-48.221568	0.000466	4.661658	1.579412	0.000187
1922	1.9114e+02	-3.4700	-47.995488	0.000568	5.675062	1.922763	0.000227
1923	1.9124e+02	-3.4347	-47.785557	0.000527	5.269700	1.785423	0.000211
1924	1.9134e+02	-3.3913	-47.571589	0.000537	5.371041	1.819758	0.000215
1925	1.9144e+02	-3.3416	-47.389918	0.000456	4.560317	1.545077	0.000183
1926	1.9154e+02	-3.3127	-47.184024	0.000517	5.168360	1.751088	0.000207
1927	1.9164e+02	-3.2598	-46.982167	0.000507	5.067019	1.716753	0.000203
1928	1.9174e+02	-3.2245	-46.772236	0.000527	5.269700	1.785423	0.000211
1929	1.9184e+02	-3.1876	-46.542119	0.000578	5.776402	1.957098	0.000231
1930	1.9194e+02	-3.1459	-46.368523	0.000436	4.357637	1.476407	0.000174
1931	1.9203e+02	-3.1202	-46.162629	0.000517	5.168360	1.751088	0.000207
1932	1.9213e+02	-3.0689	-45.916363	0.000618	6.181764	2.094438	0.000248
1933	1.9223e+02	-3.0304	-45.750841	0.000415	4.154956	1.407737	0.000166
1934	1.9233e+02	-2.9919	-45.512650	0.000598	5.979083	2.025768	0.000239
1935	1.9243e+02	-2.9646	-45.326941	0.000466	4.661658	1.579412	0.000187
1936	1.9253e+02	-2.9213	-45.141233	0.000466	4.661658	1.579412	0.000187
1937	1.9263e+02	-2.8636	-44.899005	0.000608	6.080423	2.060103	0.000243
1938	1.9273e+02	-2.8251	-44.705223	0.000486	4.864339	1.648083	0.000195
1939	1.9283e+02	-2.7962	-44.483180	0.000557	5.573721	1.888428	0.000223
1940	1.9293e+02	-2.7593	-44.305546	0.000446	4.458977	1.510742	0.000179
1941	1.9303e+02	-2.7144	-44.059281	0.000618	6.181764	2.094438	0.000248
1942	1.9313e+02	-2.6694	-43.853387	0.000517	5.168360	1.751088	0.000207
1943	1.9323e+02	-2.6374	-43.643456	0.000527	5.269700	1.785423	0.000211
1944	1.9333e+02	-2.5989	-43.461785	0.000456	4.560317	1.545077	0.000183
1945	1.9343e+02	-2.5555	-43.211482	0.000628	6.283104	2.128773	0.000252
1946	1.9353e+02	-2.5235	-42.997514	0.000537	5.371041	1.819758	0.000215
1947	1.9363e+02	-2.4657	-42.739137	0.000649	6.485785	2.197443	0.000260
1948	1.9373e+02	-2.4208	-42.581689	0.000395	3.952275	1.339067	0.000158
1949	1.9383e+02	-2.3871	-42.355610	0.000568	5.675062	1.922763	0.000227
1950	1.9393e+02	-2.3598	-42.149716	0.000517	5.168360	1.751088	0.000207
1951	1.9403e+02	-2.3149	-41.931710	0.000547	5.472381	1.854093	0.000219
1952	1.9412e+02	-2.2732	-41.705631	0.000568	5.675062	1.922763	0.000227
1953	1.9422e+02	-2.2315	-41.515885	0.000476	4.762998	1.613747	0.000191
1954	1.9432e+02	-2.2026	-41.301917	0.000537	5.371041	1.819758	0.000215
1955	1.9442e+02	-2.1449	-41.047578	0.000638	6.384444	2.163108	0.000256
1956	1.9452e+02	-2.1192	-40.821498	0.000568	5.675062	1.922763	0.000227
1957	1.9462e+02	-2.0695	-40.623678	0.000497	4.965679	1.682418	0.000199
1958	1.9472e+02	-2.0294	-40.425859	0.000497	4.965679	1.682418	0.000199
1959	1.9482e+02	-1.9957	-40.155371	0.000679	6.789806	2.300449	0.000272
1960	1.9492e+02	-1.9459	-39.953514	0.000507	5.067019	1.716753	0.000203
1961	1.9502e+02	-1.9203	-39.723397	0.000578	5.776402	1.957098	0.000231
1962	1.9512e+02	-1.8770	-39.517503	0.000517	5.168360	1.751088	0.000207
1963	1.9522e+02	-1.8449	-39.283349	0.000588	5.877742	1.991433	0.000235
1964	1.9532e+02	-1.7951	-39.045158	0.000598	5.979083	2.025768	0.000239
1965	1.9542e+02	-1.7566	-38.839264	0.000517	5.168360	1.751088	0.000207
1966	1.9552e+02	-1.7117	-38.645482	0.000486	4.864339	1.648083	0.000195
1967	1.9562e+02	-1.6700	-38.415365	0.000578	5.776402	1.957098	0.000231
1968	1.9572e+02	-1.6443	-38.132766	0.000709	7.093827	2.403454	0.000284
1969	1.9582e+02	-1.5882	-37.983392	0.000375	3.749594	1.270397	0.000150
1970	1.9592e+02	-1.5625	-37.745201	0.000598	5.979083	2.025768	0.000239
1971	1.9601e+02	-1.5064	-37.478750	0.000669	6.688466	2.266113	0.000268
1972	1.9611e+02	-1.4823	-37.228447	0.000628	6.283104	2.128773	0.000252
1973	1.9621e+02	-1.4358	-37.062925	0.000415	4.154956	1.407737	0.000166
1974	1.9631e+02	-1.4005	-36.824734	0.000598	5.979083	2.025768	0.000239
1975	1.9641e+02	-1.3588	-36.570394	0.000638	6.384444	2.163108	0.000256
1976	1.9651e+02	-1.3203	-36.340277	0.000578	5.776402	1.957098	0.000231
1977	1.9661e+02	-1.2545	-36.114198	0.000568	5.675062	1.922763	0.000227
1978	1.9671e+02	-1.2304	-35.884081	0.000578	5.776402	1.957098	0.000231
1979	1.9681e+02	-1.1952	-35.658001	0.000568	5.675062	1.922763	0.000227
1980	1.9691e+02	-1.1534	-35.439996	0.000547	5.472381	1.854093	0.000219
1981	1.9701e+02	-1.1182	-35.217954	0.000557	5.573721	1.888428	0.000223
1982	1.9711e+02	-1.0748	-34.987837	0.000578	5.776402	1.957098	0.000231
1983	1.9721e+02	-1.0347	-34.765794	0.000557	5.573721	1.888428	0.000223
1984	1.9731e+02	-0.9930	-34.491269	0.000689	6.891146	2.334784	0.000276
1985	1.9741e+02	-0.9657	-34.305561	0.000466	4.661658	1.579412	0.000187
1986	1.9751e+02	-0.9144	-34.055259	0.000628	6.283104	2.128773	0.000252
1987	1.9761e+02	-0.8823	-33.792845	0.000659	6.587125	2.231778	0.000264
1988	1.9771e+02	-0.8358	-33.590988	0.000507	5.067019	1.716753	0.000203
1989	1.9781e+02	-0.8021	-33.300314	0.000730	7.296508	2.472124	0.000292
1990	1.9791e+02	-0.7636	-33.126717	0.000436	4.357637	1.476407	0.000174
1991	1.9800e+02	-0.7139	-32.860266	0.000669	6.688466	2.266113	0.000268
1992	1.9810e+02	-0.6850	-32.614001	0.000618	6.181764	2.094438	0.000248
1993	1.9820e+02	-0.6385	-32.400033	0.000537	5.371041	1.819758	0.000215
1994	1.9830e+02	-0.5952	-32.149730	0.000628	6.283104	2.128773	0.000252
1995	1.9840e+02	-0.5583	-31.919614	0.000578	5.776402	1.957098	0.000231
1996	1.9850e+02	-0.5150	-31.689497	0.000578	5.776402	1.957098	0.000231
1997	1.9860e+02	-0.4732	-31.427083	0.000659	6.587125	2.231778	0.000264
1998	1.9870e+02	-0.4428	-31.213115	0.000537	5.371041	1.819758	0.000215
1999	1.9880e+02	-0.4059	-30.966850	0.000618	6.181764	2.094438	0.000248
2000	1.9890e+02	-0.3642	-30.700399	0.000669	6.688466	2.266113	0.000268
2001	1.9900e+02	-0.3192	-30.478356	0.000557	5.573721	1.888428	0.000223
2002	1.9910e+02	-0.2791	-30.260351	0.000547	5.472381	1.854093	0.000219
2003	1.9920e+02	-0.2358	-30.014086	0.000618	6.181764	2.094438	0.000248
2004	1.9930e+02	-0.1989	-29.775895	0.000598	5.979083	2.025768	0.000239
2005	1.9940e+02	-0.1556	-29.501369	0.000689	6.891146	2.334784	0.000276
2006	1.9950e+02	-0.1332	-29.295475	0.000517	5.168360	1.751088	0.000207
2007	1.9960e+02	-0.0866	-29.029025	0.000669	6.688466	2.266113	0.000268
2008	1.9970e+02	-0.0417	-28.811019	0.000547	5.472381	1.854093	0.000219
2009	1.9980e+02	-0.0080	-28.548605	0.000547	5.472381	1.854093	0.000264

Center data before PMax,+/-Pr and +/-Vc Calc.

PMax (uC/cm2):	9.59e+01
Pr (uC/cm2):	2.15e+01
-Pr (uC/cm2):	-2.85e+01
PLoss (uC/cm2):	-1.84e+01
Vc:	2.37e+00
-Vc:	-3.36e+00
C (Max-Eff) (nF):	4.79e-01
K (Eff):	1.62e+03
Vert. (+/-Pr) Shift (uC/cm2):	-3.54e+00
Horiz. Shift (+/-Vc):	-4.96e-01
Offset (uC/cm2):	1.01e+01

A (Loop Area - uC/cm2·Volts):	2.41e-02



Hysteresis Version: 5.48.1 - Radiant Technologies, Inc., 1999 - 9/12/24

