»»»»»»»»»»»»»»»»»»»»»»»»»»»»»»»»»»»» Hysteresis ««««««««««««««««««««««««««««««««««««
»»»  Executed Version:	5.48.1
»»»  Vision Version:	5.48.4 (R)
»»»  Vision Compiled:	9/18/24
»»»  Driver Version:	5.47.0
»»»  Windows Version:	Windows 8 or 8.1
»»»  Processor Information:	x86 (AMD or Intel) - 32 Processors
»»»  Tester Name:	PMF21124-494 (100V)
»»»  Tester S/N:	PMF21124-494
»»»  Internal Amp Type:	100V RevK 270k
»»»  Internal Amp S/N:	iAB2-596/K     
»»»  Execution Count:	1
»»»»»»»»»»»»»»»»»»»»»»»»»»»»»»»»»»»»»»»»»»««««««««««««««««««««««««««««««««««««««««««

Stored:	6/4/2025 - 18:21:32
Configured:	06/04/25 04:39:58 PM
Executed:	06/04/25 06:20:57 PM

»»»»»»»»»»»»»»»»»»»»»»»»»»»»»»»»»»» Sample Info ««««««««««««««««««««««««««««««««««««
Sample Name:	
Lot Name:	
Wafer Name:	
Die Row/Column:	0/0
Capacitor Number:	0
Sample Area (cm2):	1.00e-04
Sample Thickness (microns):	3.00e-01

Amplifier:	Internal

»»»»»»»»»»»»»»»»»»»»»»»»»»»»»»»»»»» Tester Info «««««««««««««««««««««««««««««««««««
Tester Name:	PMF21124-494 (100V)
Tester Serial Number:	PMF21124-494
Return Signal Amp. Level:	0.19 [Index: 3]

»»»»»»»»»»»»»»»»»»»»»»»»»»»»»»»» Hysteresis Info ««««««««««««««««««««««««««««««««««
Task Name:	Hyst-147
Volts:	20.00
Field:	666.67 (kV/cm)
DCBias:	0.00
DCField:	0.00 (kV/cm)
Hysteresis Period (ms):	2.00e+02
Preset:	Enabled
Preset Delay (ms):	1.00e+03
Profile:	Standard Bipolar

»»»»»»»»»»»»»»»»»»»»»»»»»»»»»»»»»»»»»» Data «««««««««««««««««««««««««««««««««««««««
Points:	2009

Valid Data

Point	Time (ms)	Drive Voltage	Measured Polarization (uC/cm2)	Capacitance (uF)	Normalized Capacitance (uF/cm2)	Dielectric Constant	Instantaneous Current (mA)
   1	0.0000e+00	0.0064	7.149767	0.000486	4.863558	1.647818	0.000195
   2	9.9500e-02	0.0337	7.343550	0.000486	4.863558	1.647818	0.000195
   3	1.9900e-01	0.0690	7.577704	0.000588	5.876800	1.991114	0.000235
   4	2.9850e-01	0.1059	7.848192	0.000679	6.788717	2.300080	0.000272
   5	3.9800e-01	0.1524	8.033900	0.000466	4.660910	1.579159	0.000187
   6	4.9750e-01	0.1925	8.280165	0.000618	6.180772	2.094102	0.000248
   7	5.9700e-01	0.2310	8.578913	0.000750	7.497986	2.540386	0.000300
   8	6.9650e-01	0.2759	8.772696	0.000486	4.863558	1.647818	0.000195
   9	7.9600e-01	0.3064	9.055295	0.000709	7.092689	2.403068	0.000284
  10	8.9550e-01	0.3529	9.333858	0.000699	6.991365	2.368739	0.000280
  11	9.9500e-01	0.3914	9.632606	0.000750	7.497986	2.540386	0.000300
  12	1.0945e+00	0.4315	9.866760	0.000588	5.876800	1.991114	0.000235
  13	1.1940e+00	0.4765	10.076691	0.000527	5.268855	1.785136	0.000211
  14	1.2935e+00	0.5118	10.371402	0.000740	7.396662	2.506057	0.000296
  15	1.3930e+00	0.5470	10.617667	0.000618	6.180772	2.094102	0.000248
  16	1.4925e+00	0.5936	10.839709	0.000557	5.572827	1.888125	0.000223
  17	1.5920e+00	0.6417	11.102123	0.000659	6.586069	2.231420	0.000264
  18	1.6915e+00	0.6722	11.344351	0.000608	6.079448	2.059773	0.000243
  19	1.7910e+00	0.7075	11.598691	0.000638	6.383420	2.162761	0.000256
  20	1.8905e+00	0.7652	11.865142	0.000669	6.687393	2.265750	0.000268
  21	1.9900e+00	0.7845	12.107370	0.000608	6.079448	2.059773	0.000243
  22	2.0895e+00	0.8294	12.333450	0.000567	5.674151	1.922455	0.000227
  23	2.1890e+00	0.8711	12.636235	0.000760	7.599310	2.574716	0.000304
  24	2.2885e+00	0.9096	12.862314	0.000567	5.674151	1.922455	0.000227
  25	2.3880e+00	0.9417	13.157025	0.000740	7.396662	2.506057	0.000296
  26	2.4875e+00	0.9818	13.391179	0.000588	5.876800	1.991114	0.000235
  27	2.5870e+00	1.0267	13.710113	0.000800	8.004606	2.712034	0.000321
  28	2.6865e+00	1.0684	13.972527	0.000659	6.586069	2.231420	0.000264
  29	2.7860e+00	1.1117	14.251089	0.000699	6.991365	2.368739	0.000280
  30	2.8855e+00	1.1534	14.505429	0.000638	6.383420	2.162761	0.000256
  31	2.9850e+00	1.1903	14.771880	0.000669	6.687393	2.265750	0.000268
  32	3.0845e+00	1.2112	15.078702	0.000770	7.700634	2.609045	0.000308
  33	3.1840e+00	1.2609	15.316893	0.000598	5.978124	2.025443	0.000239
  34	3.2835e+00	1.3074	15.547010	0.000578	5.775475	1.956784	0.000231
  35	3.3830e+00	1.3540	15.861906	0.000790	7.903282	2.677704	0.000316
  36	3.4825e+00	1.3828	16.067800	0.000517	5.167531	1.750807	0.000207
  37	3.5820e+00	1.4246	16.326177	0.000648	6.484744	2.197091	0.000260
  38	3.6815e+00	1.4631	16.592628	0.000669	6.687393	2.265750	0.000268
  39	3.7810e+00	1.5064	16.859079	0.000669	6.687393	2.265750	0.000268
  40	3.8805e+00	1.5449	17.145715	0.000719	7.194013	2.437398	0.000288
  41	3.9800e+00	1.5866	17.420241	0.000689	6.890041	2.334409	0.000276
  42	4.0795e+00	1.6203	17.678617	0.000648	6.484744	2.197091	0.000260
  43	4.1790e+00	1.6684	17.977365	0.000750	7.497986	2.540386	0.000300
  44	4.2785e+00	1.7021	18.247854	0.000679	6.788717	2.300080	0.000272
  45	4.3780e+00	1.7438	18.514304	0.000669	6.687393	2.265750	0.000268
  46	4.4775e+00	1.7823	18.813053	0.000750	7.497986	2.540386	0.000300
  47	4.5770e+00	1.8224	19.095652	0.000709	7.092689	2.403068	0.000284
  48	4.6765e+00	1.8657	19.366140	0.000679	6.788717	2.300080	0.000272
  49	4.7760e+00	1.9042	19.668925	0.000760	7.599310	2.574716	0.000304
  50	4.8755e+00	1.9395	19.947488	0.000699	6.991365	2.368739	0.000280
  51	4.9750e+00	1.9876	20.209902	0.000659	6.586069	2.231420	0.000264
  52	5.0745e+00	2.0213	20.480390	0.000679	6.788717	2.300080	0.000272
  53	5.1740e+00	2.0679	20.779138	0.000750	7.497986	2.540386	0.000300
  54	5.2735e+00	2.1064	21.005217	0.000567	5.674151	1.922455	0.000227
  55	5.3730e+00	2.1465	21.271668	0.000669	6.687393	2.265750	0.000268
  56	5.4725e+00	2.1834	21.578491	0.000770	7.700634	2.609045	0.000308
  57	5.5720e+00	2.2203	21.808607	0.000578	5.775475	1.956784	0.000231
  58	5.6715e+00	2.2636	22.099281	0.000730	7.295337	2.471727	0.000292
  59	5.7710e+00	2.3101	22.385918	0.000719	7.194013	2.437398	0.000288
  60	5.8705e+00	2.3486	22.664480	0.000699	6.991365	2.368739	0.000280
  61	5.9700e+00	2.3711	22.934968	0.000679	6.788717	2.300080	0.000272
  62	6.0695e+00	2.4240	23.221605	0.000719	7.194013	2.437398	0.000288
  63	6.1690e+00	2.4577	23.508241	0.000719	7.194013	2.437398	0.000288
  64	6.2685e+00	2.5010	23.794878	0.000719	7.194013	2.437398	0.000288
  65	6.3680e+00	2.5411	24.101700	0.000770	7.700634	2.609045	0.000308
  66	6.4675e+00	2.5828	24.372188	0.000679	6.788717	2.300080	0.000272
  67	6.5670e+00	2.6277	24.646714	0.000689	6.890041	2.334409	0.000276
  68	6.6665e+00	2.6727	24.929313	0.000709	7.092689	2.403068	0.000284
  69	6.7660e+00	2.7047	25.179616	0.000628	6.282096	2.128432	0.000252
  70	6.8655e+00	2.7432	25.458178	0.000699	6.991365	2.368739	0.000280
  71	6.9650e+00	2.7849	25.704443	0.000618	6.180772	2.094102	0.000248
  72	7.0645e+00	2.8202	25.999154	0.000740	7.396662	2.506057	0.000296
  73	7.1640e+00	2.8603	26.265605	0.000669	6.687393	2.265750	0.000268
  74	7.2635e+00	2.9021	26.540130	0.000689	6.890041	2.334409	0.000276
  75	7.3630e+00	2.9438	26.810618	0.000679	6.788717	2.300080	0.000272
  76	7.4625e+00	2.9839	27.089181	0.000699	6.991365	2.368739	0.000280
  77	7.5620e+00	3.0192	27.400040	0.000780	7.801958	2.643375	0.000312
  78	7.6615e+00	3.0625	27.686677	0.000719	7.194013	2.437398	0.000288
  79	7.7610e+00	3.0994	27.928905	0.000608	6.079448	2.059773	0.000243
  80	7.8605e+00	3.1331	28.239764	0.000780	7.801958	2.643375	0.000312
  81	7.9600e+00	3.1908	28.506215	0.000669	6.687393	2.265750	0.000268
  82	8.0595e+00	3.2197	28.817075	0.000780	7.801958	2.643375	0.000312
  83	8.1590e+00	3.2646	29.115823	0.000750	7.497986	2.540386	0.000300
  84	8.2585e+00	3.2951	29.390348	0.000689	6.890041	2.334409	0.000276
  85	8.3580e+00	3.3368	29.672948	0.000709	7.092689	2.403068	0.000284
  86	8.4575e+00	3.3689	29.963621	0.000730	7.295337	2.471727	0.000292
  87	8.5570e+00	3.4154	30.254295	0.000730	7.295337	2.471727	0.000292
  88	8.6565e+00	3.4635	30.464226	0.000527	5.268855	1.785136	0.000211
  89	8.7560e+00	3.5069	30.750863	0.000719	7.194013	2.437398	0.000288
  90	8.8555e+00	3.5421	31.009240	0.000648	6.484744	2.197091	0.000260
  91	8.9550e+00	3.5806	31.291839	0.000709	7.092689	2.403068	0.000284
  92	9.0545e+00	3.6240	31.566364	0.000689	6.890041	2.334409	0.000276
  93	9.1540e+00	3.6689	31.885298	0.000800	8.004606	2.712034	0.000321
  94	9.2535e+00	3.6994	32.147712	0.000659	6.586069	2.231420	0.000264
  95	9.3530e+00	3.7282	32.450497	0.000760	7.599310	2.574716	0.000304
  96	9.4525e+00	3.7796	32.720985	0.000679	6.788717	2.300080	0.000272
  97	9.5520e+00	3.8101	33.007622	0.000719	7.194013	2.437398	0.000288
  98	9.6515e+00	3.8614	33.322518	0.000790	7.903282	2.677704	0.000316
  99	9.7510e+00	3.9047	33.572821	0.000628	6.282096	2.128432	0.000252
 100	9.8505e+00	3.9336	33.867532	0.000740	7.396662	2.506057	0.000296
 101	9.9500e+00	3.9753	34.218763	0.000882	8.815199	2.986670	0.000353
 102	1.0050e+01	4.0186	34.481176	0.000659	6.586069	2.231420	0.000264
 103	1.0149e+01	4.0619	34.759739	0.000699	6.991365	2.368739	0.000280
 104	1.0248e+01	4.1036	35.026190	0.000669	6.687393	2.265750	0.000268
 105	1.0348e+01	4.1309	35.288603	0.000659	6.586069	2.231420	0.000264
 106	1.0447e+01	4.1758	35.583314	0.000740	7.396662	2.506057	0.000296
 107	1.0547e+01	4.2191	35.817468	0.000588	5.876800	1.991114	0.000235
 108	1.0646e+01	4.2576	36.128328	0.000780	7.801958	2.643375	0.000312
 109	1.0746e+01	4.2929	36.410927	0.000709	7.092689	2.403068	0.000284
 110	1.0845e+01	4.3394	36.685452	0.000689	6.890041	2.334409	0.000276
 111	1.0945e+01	4.3796	36.996312	0.000780	7.801958	2.643375	0.000312
 112	1.1044e+01	4.4148	37.202206	0.000517	5.167531	1.750807	0.000207
 113	1.1144e+01	4.4550	37.492880	0.000730	7.295337	2.471727	0.000292
 114	1.1243e+01	4.4983	37.815850	0.000811	8.105930	2.746364	0.000325
 115	1.1343e+01	4.5400	38.041930	0.000567	5.674151	1.922455	0.000227
 116	1.1443e+01	4.5673	38.332604	0.000730	7.295337	2.471727	0.000292
 117	1.1542e+01	4.6154	38.607129	0.000689	6.890041	2.334409	0.000276
 118	1.1642e+01	4.6555	38.889729	0.000709	7.092689	2.403068	0.000284
 119	1.1741e+01	4.6860	39.204625	0.000790	7.903282	2.677704	0.000316
 120	1.1841e+01	4.7357	39.511447	0.000770	7.700634	2.609045	0.000308
 121	1.1940e+01	4.7774	39.785973	0.000689	6.890041	2.334409	0.000276
 122	1.2040e+01	4.8143	40.032238	0.000618	6.180772	2.094102	0.000248
 123	1.2139e+01	4.8640	40.322912	0.000730	7.295337	2.471727	0.000292
 124	1.2239e+01	4.9025	40.589363	0.000669	6.687393	2.265750	0.000268
 125	1.2338e+01	4.9394	40.871962	0.000709	7.092689	2.403068	0.000284
 126	1.2438e+01	4.9827	41.150525	0.000699	6.991365	2.368739	0.000280
 127	1.2537e+01	5.0148	41.421013	0.000679	6.788717	2.300080	0.000272
 128	1.2636e+01	5.0581	41.703612	0.000709	7.092689	2.403068	0.000284
 129	1.2736e+01	5.0983	41.953915	0.000628	6.282096	2.128432	0.000252
 130	1.2835e+01	5.1303	42.256700	0.000760	7.599310	2.574716	0.000304
 131	1.2935e+01	5.1753	42.543336	0.000719	7.194013	2.437398	0.000288
 132	1.3034e+01	5.2089	42.801713	0.000648	6.484744	2.197091	0.000260
 133	1.3134e+01	5.2619	43.116610	0.000790	7.903282	2.677704	0.000316
 134	1.3233e+01	5.2940	43.346726	0.000578	5.775475	1.956784	0.000231
 135	1.3333e+01	5.3357	43.673734	0.000821	8.207255	2.780693	0.000329
 136	1.3432e+01	5.3758	43.956334	0.000709	7.092689	2.403068	0.000284
 137	1.3532e+01	5.4143	44.230859	0.000689	6.890041	2.334409	0.000276
 138	1.3632e+01	5.4576	44.509422	0.000699	6.991365	2.368739	0.000280
 139	1.3731e+01	5.4897	44.751650	0.000608	6.079448	2.059773	0.000243
 140	1.3831e+01	5.5314	45.022138	0.000679	6.788717	2.300080	0.000272
 141	1.3930e+01	5.5779	45.276477	0.000638	6.383420	2.162761	0.000256
 142	1.4030e+01	5.6068	45.555040	0.000699	6.991365	2.368739	0.000280
 143	1.4129e+01	5.6565	45.821491	0.000669	6.687393	2.265750	0.000268
 144	1.4229e+01	5.6934	46.108127	0.000719	7.194013	2.437398	0.000288
 145	1.4328e+01	5.7335	46.386690	0.000699	6.991365	2.368739	0.000280
 146	1.4428e+01	5.7784	46.649103	0.000659	6.586069	2.231420	0.000264
 147	1.4527e+01	5.8186	46.964000	0.000790	7.903282	2.677704	0.000316
 148	1.4627e+01	5.8522	47.226414	0.000659	6.586069	2.231420	0.000264
 149	1.4726e+01	5.8940	47.529199	0.000760	7.599310	2.574716	0.000304
 150	1.4825e+01	5.9373	47.759316	0.000578	5.775475	1.956784	0.000231
 151	1.4925e+01	5.9694	48.021730	0.000659	6.586069	2.231420	0.000264
 152	1.5024e+01	6.0143	48.324515	0.000760	7.599310	2.574716	0.000304
 153	1.5124e+01	6.0447	48.590966	0.000669	6.687393	2.265750	0.000268
 154	1.5223e+01	6.0897	48.938159	0.000871	8.713875	2.952341	0.000349
 155	1.5323e+01	6.1282	49.253056	0.000790	7.903282	2.677704	0.000316
 156	1.5422e+01	6.1603	49.483173	0.000578	5.775475	1.956784	0.000231
 157	1.5522e+01	6.2068	49.761735	0.000699	6.991365	2.368739	0.000280
 158	1.5621e+01	6.2501	49.995889	0.000588	5.876800	1.991114	0.000235
 159	1.5721e+01	6.2918	50.310786	0.000790	7.903282	2.677704	0.000316
 160	1.5820e+01	6.3239	50.577237	0.000669	6.687393	2.265750	0.000268
 161	1.5920e+01	6.3656	50.811390	0.000588	5.876800	1.991114	0.000235
 162	1.6020e+01	6.4121	51.126287	0.000790	7.903282	2.677704	0.000316
 163	1.6119e+01	6.4474	51.396775	0.000679	6.788717	2.300080	0.000272
 164	1.6218e+01	6.4827	51.663226	0.000669	6.687393	2.265750	0.000268
 165	1.6318e+01	6.5276	51.913528	0.000628	6.282096	2.128432	0.000252
 166	1.6418e+01	6.5629	52.216314	0.000760	7.599310	2.574716	0.000304
 167	1.6517e+01	6.5950	52.442393	0.000567	5.674151	1.922455	0.000227
 168	1.6616e+01	6.6415	52.737104	0.000740	7.396662	2.506057	0.000296
 169	1.6716e+01	6.6784	52.991444	0.000638	6.383420	2.162761	0.000256
 170	1.6816e+01	6.7298	53.265969	0.000689	6.890041	2.334409	0.000276
 171	1.6915e+01	6.7602	53.568754	0.000760	7.599310	2.574716	0.000304
 172	1.7015e+01	6.8052	53.851354	0.000709	7.092689	2.403068	0.000284
 173	1.7114e+01	6.8469	54.121842	0.000679	6.788717	2.300080	0.000272
 174	1.7213e+01	6.8950	54.448850	0.000821	8.207255	2.780693	0.000329
 175	1.7313e+01	6.9207	54.695115	0.000618	6.180772	2.094102	0.000248
 176	1.7413e+01	6.9640	54.941380	0.000618	6.180772	2.094102	0.000248
 177	1.7512e+01	7.0073	55.183608	0.000608	6.079448	2.059773	0.000243
 178	1.7611e+01	7.0490	55.470245	0.000719	7.194013	2.437398	0.000288
 179	1.7711e+01	7.0859	55.720547	0.000628	6.282096	2.128432	0.000252
 180	1.7811e+01	7.1228	56.039481	0.000800	8.004606	2.712034	0.000321
 181	1.7910e+01	7.1629	56.309969	0.000679	6.788717	2.300080	0.000272
 182	1.8009e+01	7.2014	56.580457	0.000679	6.788717	2.300080	0.000272
 183	1.8109e+01	7.2383	56.875168	0.000740	7.396662	2.506057	0.000296
 184	1.8209e+01	7.2848	57.109322	0.000588	5.876800	1.991114	0.000235
 185	1.8308e+01	7.3265	57.404033	0.000740	7.396662	2.506057	0.000296
 186	1.8407e+01	7.3618	57.658373	0.000638	6.383420	2.162761	0.000256
 187	1.8507e+01	7.4132	57.949046	0.000730	7.295337	2.471727	0.000292
 188	1.8607e+01	7.4501	58.223572	0.000689	6.890041	2.334409	0.000276
 189	1.8706e+01	7.4757	58.498097	0.000689	6.890041	2.334409	0.000276
 190	1.8805e+01	7.5255	58.784733	0.000719	7.194013	2.437398	0.000288
 191	1.8905e+01	7.5640	59.063296	0.000699	6.991365	2.368739	0.000280
 192	1.9005e+01	7.6009	59.337821	0.000689	6.890041	2.334409	0.000276
 193	1.9104e+01	7.6490	59.624458	0.000719	7.194013	2.437398	0.000288
 194	1.9203e+01	7.6843	59.866686	0.000608	6.079448	2.059773	0.000243
 195	1.9303e+01	7.7324	60.145248	0.000699	6.991365	2.368739	0.000280
 196	1.9402e+01	7.7725	60.375365	0.000578	5.775475	1.956784	0.000231
 197	1.9502e+01	7.8078	60.674113	0.000750	7.497986	2.540386	0.000300
 198	1.9602e+01	7.8415	60.932490	0.000648	6.484744	2.197091	0.000260
 199	1.9701e+01	7.8784	61.235275	0.000760	7.599310	2.574716	0.000304
 200	1.9800e+01	7.9313	61.477503	0.000608	6.079448	2.059773	0.000243
 201	1.9900e+01	7.9618	61.776251	0.000750	7.497986	2.540386	0.000300
 202	2.0000e+01	8.0067	62.046739	0.000679	6.788717	2.300080	0.000272
 203	2.0099e+01	8.0388	62.301079	0.000638	6.383420	2.162761	0.000256
 204	2.0198e+01	8.0741	62.579641	0.000699	6.991365	2.368739	0.000280
 205	2.0298e+01	8.1270	62.878389	0.000750	7.497986	2.540386	0.000300
 206	2.0398e+01	8.1543	63.136766	0.000648	6.484744	2.197091	0.000260
 207	2.0497e+01	8.2040	63.403217	0.000669	6.687393	2.265750	0.000268
 208	2.0596e+01	8.2458	63.669668	0.000669	6.687393	2.265750	0.000268
 209	2.0696e+01	8.2794	63.960341	0.000730	7.295337	2.471727	0.000292
 210	2.0796e+01	8.3147	64.242941	0.000709	7.092689	2.403068	0.000284
 211	2.0895e+01	8.3597	64.541689	0.000750	7.497986	2.540386	0.000300
 212	2.0994e+01	8.3998	64.763732	0.000557	5.572827	1.888125	0.000223
 213	2.1094e+01	8.4383	65.042294	0.000699	6.991365	2.368739	0.000280
 214	2.1194e+01	8.4752	65.324893	0.000709	7.092689	2.403068	0.000284
 215	2.1293e+01	8.5185	65.603456	0.000699	6.991365	2.368739	0.000280
 216	2.1392e+01	8.5570	65.886055	0.000709	7.092689	2.403068	0.000284
 217	2.1492e+01	8.5971	66.124246	0.000598	5.978124	2.025443	0.000239
 218	2.1591e+01	8.6420	66.418957	0.000740	7.396662	2.506057	0.000296
 219	2.1691e+01	8.6805	66.689445	0.000679	6.788717	2.300080	0.000272
 220	2.1791e+01	8.7222	66.939748	0.000628	6.282096	2.128432	0.000252
 221	2.1890e+01	8.7623	67.234459	0.000740	7.396662	2.506057	0.000296
 222	2.1989e+01	8.7992	67.513021	0.000699	6.991365	2.368739	0.000280
 223	2.2089e+01	8.8393	67.739101	0.000567	5.674151	1.922455	0.000227
 224	2.2189e+01	8.8907	68.066109	0.000821	8.207255	2.780693	0.000329
 225	2.2288e+01	8.9211	68.328522	0.000659	6.586069	2.231420	0.000264
 226	2.2387e+01	8.9596	68.586899	0.000648	6.484744	2.197091	0.000260
 227	2.2487e+01	9.0030	68.865461	0.000699	6.991365	2.368739	0.000280
 228	2.2587e+01	9.0302	69.127875	0.000659	6.586069	2.231420	0.000264
 229	2.2686e+01	9.0848	69.398363	0.000679	6.788717	2.300080	0.000272
 230	2.2785e+01	9.1265	69.664814	0.000669	6.687393	2.265750	0.000268
 231	2.2885e+01	9.1570	69.894931	0.000578	5.775475	1.956784	0.000231
 232	2.2985e+01	9.2067	70.197716	0.000760	7.599310	2.574716	0.000304
 233	2.3084e+01	9.2388	70.456093	0.000648	6.484744	2.197091	0.000260
 234	2.3183e+01	9.2757	70.726581	0.000679	6.788717	2.300080	0.000272
 235	2.3283e+01	9.3190	71.037440	0.000780	7.801958	2.643375	0.000312
 236	2.3383e+01	9.3607	71.271594	0.000588	5.876800	1.991114	0.000235
 237	2.3482e+01	9.4024	71.538045	0.000669	6.687393	2.265750	0.000268
 238	2.3581e+01	9.4377	71.828719	0.000730	7.295337	2.471727	0.000292
 239	2.3681e+01	9.4810	72.091133	0.000659	6.586069	2.231420	0.000264
 240	2.3780e+01	9.5179	72.309138	0.000547	5.471503	1.853795	0.000219
 241	2.3880e+01	9.5564	72.607886	0.000750	7.497986	2.540386	0.000300
 242	2.3980e+01	9.5965	72.870300	0.000659	6.586069	2.231420	0.000264
 243	2.4079e+01	9.6366	73.156937	0.000719	7.194013	2.437398	0.000288
 244	2.4178e+01	9.6719	73.403202	0.000618	6.180772	2.094102	0.000248
 245	2.4278e+01	9.7152	73.669653	0.000669	6.687393	2.265750	0.000268
 246	2.4378e+01	9.7569	73.976475	0.000770	7.700634	2.609045	0.000308
 247	2.4477e+01	9.8083	74.234852	0.000648	6.484744	2.197091	0.000260
 248	2.4576e+01	9.8339	74.448820	0.000537	5.370179	1.819466	0.000215
 249	2.4676e+01	9.8757	74.703160	0.000638	6.383420	2.162761	0.000256
 250	2.4776e+01	9.9045	74.985759	0.000709	7.092689	2.403068	0.000284
 251	2.4875e+01	9.9543	75.260284	0.000689	6.890041	2.334409	0.000276
 252	2.4974e+01	9.9896	75.530773	0.000679	6.788717	2.300080	0.000272
 253	2.5074e+01	10.0409	75.805298	0.000689	6.890041	2.334409	0.000276
 254	2.5174e+01	10.0778	76.039452	0.000588	5.876800	1.991114	0.000235
 255	2.5273e+01	10.1163	76.362422	0.000811	8.105930	2.746364	0.000325
 256	2.5372e+01	10.1452	76.536019	0.000436	4.356938	1.476170	0.000174
 257	2.5472e+01	10.1885	76.846879	0.000780	7.801958	2.643375	0.000312
 258	2.5572e+01	10.2190	77.097181	0.000628	6.282096	2.128432	0.000252
 259	2.5671e+01	10.2703	77.359595	0.000659	6.586069	2.231420	0.000264
 260	2.5770e+01	10.3200	77.642195	0.000709	7.092689	2.403068	0.000284
 261	2.5870e+01	10.3489	77.896534	0.000638	6.383420	2.162761	0.000256
 262	2.5970e+01	10.3906	78.130688	0.000588	5.876800	1.991114	0.000235
 263	2.6069e+01	10.4307	78.401176	0.000679	6.788717	2.300080	0.000272
 264	2.6169e+01	10.4788	78.764518	0.000912	9.119172	3.089659	0.000365
 265	2.6268e+01	10.5125	79.022895	0.000648	6.484744	2.197091	0.000260
 266	2.6367e+01	10.5559	79.224752	0.000507	5.066207	1.716477	0.000203
 267	2.6467e+01	10.5992	79.491203	0.000669	6.687393	2.265750	0.000268
 268	2.6567e+01	10.6345	79.733431	0.000608	6.079448	2.059773	0.000243
 269	2.6666e+01	10.6730	80.040253	0.000770	7.700634	2.609045	0.000308
 270	2.6765e+01	10.7163	80.254221	0.000537	5.370179	1.819466	0.000215
 271	2.6865e+01	10.7564	80.500487	0.000618	6.180772	2.094102	0.000248
 272	2.6965e+01	10.7949	80.750789	0.000628	6.282096	2.128432	0.000252
 273	2.7064e+01	10.8350	81.057611	0.000770	7.700634	2.609045	0.000308
 274	2.7163e+01	10.8767	81.303877	0.000618	6.180772	2.094102	0.000248
 275	2.7263e+01	10.9168	81.546105	0.000608	6.079448	2.059773	0.000243
 276	2.7363e+01	10.9457	81.816593	0.000679	6.788717	2.300080	0.000272
 277	2.7462e+01	10.9810	82.083044	0.000669	6.687393	2.265750	0.000268
 278	2.7561e+01	11.0371	82.325272	0.000608	6.079448	2.059773	0.000243
 279	2.7661e+01	11.0644	82.539240	0.000537	5.370179	1.819466	0.000215
 280	2.7761e+01	11.1077	82.878360	0.000851	8.511227	2.883682	0.000341
 281	2.7860e+01	11.1446	83.128662	0.000628	6.282096	2.128432	0.000252
 282	2.7959e+01	11.1911	83.374927	0.000618	6.180772	2.094102	0.000248
 283	2.8059e+01	11.2248	83.653490	0.000699	6.991365	2.368739	0.000280
 284	2.8159e+01	11.2745	83.928015	0.000689	6.890041	2.334409	0.000276
 285	2.8258e+01	11.3050	84.121797	0.000486	4.863558	1.647818	0.000195
 286	2.8358e+01	11.3564	84.364026	0.000608	6.079448	2.059773	0.000243
 287	2.8457e+01	11.3901	84.642588	0.000699	6.991365	2.368739	0.000280
 288	2.8556e+01	11.4270	84.876742	0.000588	5.876800	1.991114	0.000235
 289	2.8656e+01	11.4703	85.131081	0.000638	6.383420	2.162761	0.000256
 290	2.8756e+01	11.5072	85.413681	0.000709	7.092689	2.403068	0.000284
 291	2.8855e+01	11.5425	85.643798	0.000578	5.775475	1.956784	0.000231
 292	2.8954e+01	11.5858	85.902174	0.000648	6.484744	2.197091	0.000260
 293	2.9054e+01	11.6307	86.172662	0.000679	6.788717	2.300080	0.000272
 294	2.9154e+01	11.6580	86.374519	0.000507	5.066207	1.716477	0.000203
 295	2.9253e+01	11.7125	86.689416	0.000790	7.903282	2.677704	0.000316
 296	2.9352e+01	11.7398	86.903384	0.000537	5.370179	1.819466	0.000215
 297	2.9452e+01	11.7991	87.161761	0.000648	6.484744	2.197091	0.000260
 298	2.9552e+01	11.8264	87.412063	0.000628	6.282096	2.128432	0.000252
 299	2.9651e+01	11.8617	87.670440	0.000648	6.484744	2.197091	0.000260
 300	2.9750e+01	11.9162	87.908631	0.000598	5.978124	2.025443	0.000239
 301	2.9850e+01	11.9499	88.203342	0.000740	7.396662	2.506057	0.000296
 302	2.9950e+01	11.9820	88.425384	0.000557	5.572827	1.888125	0.000223
 303	3.0049e+01	12.0205	88.671649	0.000618	6.180772	2.094102	0.000248
 304	3.0148e+01	12.0735	88.869469	0.000496	4.964882	1.682148	0.000199
 305	3.0248e+01	12.0975	89.148031	0.000699	6.991365	2.368739	0.000280
 306	3.0348e+01	12.1440	89.422557	0.000689	6.890041	2.334409	0.000276
 307	3.0447e+01	12.1777	89.648636	0.000567	5.674151	1.922455	0.000227
 308	3.0547e+01	12.2259	89.878753	0.000578	5.775475	1.956784	0.000231
 309	3.0646e+01	12.2692	90.145204	0.000669	6.687393	2.265750	0.000268
 310	3.0745e+01	12.3077	90.383395	0.000598	5.978124	2.025443	0.000239
 311	3.0845e+01	12.3414	90.641772	0.000648	6.484744	2.197091	0.000260
 312	3.0945e+01	12.3847	90.888037	0.000618	6.180772	2.094102	0.000248
 313	3.1044e+01	12.4248	91.150451	0.000659	6.586069	2.231420	0.000264
 314	3.1143e+01	12.4697	91.400753	0.000628	6.282096	2.128432	0.000252
 315	3.1243e+01	12.5130	91.638944	0.000598	5.978124	2.025443	0.000239
 316	3.1343e+01	12.5419	91.905395	0.000669	6.687393	2.265750	0.000268
 317	3.1442e+01	12.5932	92.196069	0.000730	7.295337	2.471727	0.000292
 318	3.1541e+01	12.6221	92.434260	0.000598	5.978124	2.025443	0.000239
 319	3.1641e+01	12.6638	92.712822	0.000699	6.991365	2.368739	0.000280
 320	3.1741e+01	12.7071	92.938902	0.000567	5.674151	1.922455	0.000227
 321	3.1840e+01	12.7472	93.160944	0.000557	5.572827	1.888125	0.000223
 322	3.1939e+01	12.7825	93.411247	0.000628	6.282096	2.128432	0.000252
 323	3.2039e+01	12.8210	93.685772	0.000689	6.890041	2.334409	0.000276
 324	3.2139e+01	12.8611	93.911852	0.000567	5.674151	1.922455	0.000227
 325	3.2238e+01	12.8980	94.150043	0.000598	5.978124	2.025443	0.000239
 326	3.2337e+01	12.9430	94.400345	0.000628	6.282096	2.128432	0.000252
 327	3.2437e+01	12.9750	94.610276	0.000527	5.268855	1.785136	0.000211
 328	3.2536e+01	13.0200	94.884801	0.000689	6.890041	2.334409	0.000276
 329	3.2636e+01	13.0585	95.122992	0.000598	5.978124	2.025443	0.000239
 330	3.2736e+01	13.1002	95.353109	0.000578	5.775475	1.956784	0.000231
 331	3.2835e+01	13.1306	95.607449	0.000638	6.383420	2.162761	0.000256
 332	3.2934e+01	13.1788	95.869862	0.000659	6.586069	2.231420	0.000264
 333	3.3034e+01	13.2125	96.112091	0.000608	6.079448	2.059773	0.000243
 334	3.3133e+01	13.2638	96.354319	0.000608	6.079448	2.059773	0.000243
 335	3.3233e+01	13.2911	96.632881	0.000699	6.991365	2.368739	0.000280
 336	3.3333e+01	13.3360	96.854923	0.000557	5.572827	1.888125	0.000223
 337	3.3432e+01	13.3825	97.145597	0.000730	7.295337	2.471727	0.000292
 338	3.3532e+01	13.4258	97.359565	0.000537	5.370179	1.819466	0.000215
 339	3.3631e+01	13.4547	97.581608	0.000557	5.572827	1.888125	0.000223
 340	3.3730e+01	13.5012	97.795576	0.000537	5.370179	1.819466	0.000215
 341	3.3830e+01	13.5413	98.070101	0.000689	6.890041	2.334409	0.000276
 342	3.3929e+01	13.5798	98.300218	0.000578	5.775475	1.956784	0.000231
 343	3.4029e+01	13.6215	98.550521	0.000628	6.282096	2.128432	0.000252
 344	3.4129e+01	13.6697	98.808897	0.000648	6.484744	2.197091	0.000260
 345	3.4228e+01	13.6937	99.026903	0.000547	5.471503	1.853795	0.000219
 346	3.4328e+01	13.7322	99.285279	0.000648	6.484744	2.197091	0.000260
 347	3.4427e+01	13.7836	99.515396	0.000578	5.775475	1.956784	0.000231
 348	3.4526e+01	13.8140	99.785884	0.000679	6.788717	2.300080	0.000272
 349	3.4626e+01	13.8638	99.999852	0.000537	5.370179	1.819466	0.000215
 350	3.4725e+01	13.8911	100.250155	0.000628	6.282096	2.128432	0.000252
 351	3.4825e+01	13.9424	100.476234	0.000567	5.674151	1.922455	0.000227
 352	3.4925e+01	13.9713	100.738648	0.000659	6.586069	2.231420	0.000264
 353	3.5024e+01	14.0242	100.992988	0.000638	6.383420	2.162761	0.000256
 354	3.5123e+01	14.0499	101.267513	0.000689	6.890041	2.334409	0.000276
 355	3.5223e+01	14.0964	101.517815	0.000628	6.282096	2.128432	0.000252
 356	3.5322e+01	14.1477	101.743895	0.000567	5.674151	1.922455	0.000227
 357	3.5422e+01	14.1814	101.986123	0.000608	6.079448	2.059773	0.000243
 358	3.5522e+01	14.2119	102.192017	0.000517	5.167531	1.750807	0.000207
 359	3.5621e+01	14.2600	102.434245	0.000608	6.079448	2.059773	0.000243
 360	3.5721e+01	14.3033	102.656288	0.000557	5.572827	1.888125	0.000223
 361	3.5820e+01	14.3322	102.946961	0.000730	7.295337	2.471727	0.000292
 362	3.5919e+01	14.3755	103.152855	0.000517	5.167531	1.750807	0.000207
 363	3.6019e+01	14.4092	103.387009	0.000588	5.876800	1.991114	0.000235
 364	3.6118e+01	14.4557	103.673646	0.000719	7.194013	2.437398	0.000288
 365	3.6218e+01	14.4975	103.911837	0.000598	5.978124	2.025443	0.000239
 366	3.6318e+01	14.5327	104.141953	0.000578	5.775475	1.956784	0.000231
 367	3.6417e+01	14.5745	104.372070	0.000578	5.775475	1.956784	0.000231
 368	3.6517e+01	14.6162	104.654670	0.000709	7.092689	2.403068	0.000284
 369	3.6616e+01	14.6434	104.860564	0.000517	5.167531	1.750807	0.000207
 370	3.6715e+01	14.6964	105.118940	0.000648	6.484744	2.197091	0.000260
 371	3.6815e+01	14.7269	105.353094	0.000588	5.876800	1.991114	0.000235
 372	3.6914e+01	14.7766	105.647805	0.000740	7.396662	2.506057	0.000296
 373	3.7014e+01	14.8167	105.869848	0.000557	5.572827	1.888125	0.000223
 374	3.7114e+01	14.8584	106.136299	0.000669	6.687393	2.265750	0.000268
 375	3.7213e+01	14.9001	106.330081	0.000486	4.863558	1.647818	0.000195
 376	3.7313e+01	14.9274	106.572309	0.000608	6.079448	2.059773	0.000243
 377	3.7412e+01	14.9675	106.806463	0.000588	5.876800	1.991114	0.000235
 378	3.7511e+01	15.0172	107.052728	0.000618	6.180772	2.094102	0.000248
 379	3.7611e+01	15.0541	107.254585	0.000507	5.066207	1.716477	0.000203
 380	3.7711e+01	15.0942	107.500850	0.000618	6.180772	2.094102	0.000248
 381	3.7810e+01	15.1327	107.739041	0.000598	5.978124	2.025443	0.000239
 382	3.7910e+01	15.1841	108.009530	0.000679	6.788717	2.300080	0.000272
 383	3.8009e+01	15.2194	108.235609	0.000567	5.674151	1.922455	0.000227
 384	3.8108e+01	15.2498	108.489949	0.000638	6.383420	2.162761	0.000256
 385	3.8208e+01	15.2883	108.728140	0.000598	5.978124	2.025443	0.000239
 386	3.8307e+01	15.3333	108.962294	0.000588	5.876800	1.991114	0.000235
 387	3.8407e+01	15.3686	109.204522	0.000608	6.079448	2.059773	0.000243
 388	3.8507e+01	15.4103	109.483084	0.000699	6.991365	2.368739	0.000280
 389	3.8606e+01	15.4568	109.749535	0.000669	6.687393	2.265750	0.000268
 390	3.8706e+01	15.4969	109.999837	0.000628	6.282096	2.128432	0.000252
 391	3.8805e+01	15.5466	110.274363	0.000689	6.890041	2.334409	0.000276
 392	3.8904e+01	15.5739	110.496405	0.000557	5.572827	1.888125	0.000223
 393	3.9004e+01	15.6220	110.710373	0.000537	5.370179	1.819466	0.000215
 394	3.9103e+01	15.6461	110.936453	0.000567	5.674151	1.922455	0.000227
 395	3.9203e+01	15.6942	111.142347	0.000517	5.167531	1.750807	0.000207
 396	3.9303e+01	15.7247	111.416872	0.000689	6.890041	2.334409	0.000276
 397	3.9402e+01	15.7648	111.634877	0.000547	5.471503	1.853795	0.000219
 398	3.9502e+01	15.8097	111.869031	0.000588	5.876800	1.991114	0.000235
 399	3.9601e+01	15.8514	112.058777	0.000476	4.762234	1.613489	0.000191
 400	3.9700e+01	15.8931	112.321191	0.000659	6.586069	2.231420	0.000264
 401	3.9800e+01	15.9413	112.575530	0.000638	6.383420	2.162761	0.000256
 402	3.9900e+01	15.9750	112.781424	0.000517	5.167531	1.750807	0.000207
 403	3.9999e+01	16.0086	113.035764	0.000638	6.383420	2.162761	0.000256
 404	4.0099e+01	16.0536	113.265880	0.000578	5.775475	1.956784	0.000231
 405	4.0198e+01	16.0905	113.504071	0.000598	5.978124	2.025443	0.000239
 406	4.0297e+01	16.1274	113.794745	0.000730	7.295337	2.471727	0.000292
 407	4.0397e+01	16.1723	114.041010	0.000618	6.180772	2.094102	0.000248
 408	4.0496e+01	16.2060	114.267090	0.000567	5.674151	1.922455	0.000227
 409	4.0596e+01	16.2525	114.485095	0.000547	5.471503	1.853795	0.000219
 410	4.0696e+01	16.2846	114.763658	0.000699	6.991365	2.368739	0.000280
 411	4.0795e+01	16.3263	114.969552	0.000517	5.167531	1.750807	0.000207
 412	4.0895e+01	16.3648	115.127000	0.000395	3.951641	1.338852	0.000158
 413	4.0994e+01	16.4033	115.373265	0.000618	6.180772	2.094102	0.000248
 414	4.1093e+01	16.4450	115.623568	0.000628	6.282096	2.128432	0.000252
 415	4.1193e+01	16.4883	115.825424	0.000507	5.066207	1.716477	0.000203
 416	4.1292e+01	16.5220	116.108024	0.000709	7.092689	2.403068	0.000284
 417	4.1392e+01	16.5701	116.289695	0.000456	4.559586	1.544830	0.000183
 418	4.1492e+01	16.6118	116.572294	0.000709	7.092689	2.403068	0.000284
 419	4.1591e+01	16.6391	116.778188	0.000517	5.167531	1.750807	0.000207
 420	4.1691e+01	16.6808	117.012342	0.000588	5.876800	1.991114	0.000235
 421	4.1790e+01	16.7305	117.250533	0.000598	5.978124	2.025443	0.000239
 422	4.1889e+01	16.7723	117.480650	0.000578	5.775475	1.956784	0.000231
 423	4.1989e+01	16.8124	117.718841	0.000598	5.978124	2.025443	0.000239
 424	4.2089e+01	16.8477	117.981255	0.000659	6.586069	2.231420	0.000264
 425	4.2188e+01	16.8829	118.239631	0.000648	6.484744	2.197091	0.000260
 426	4.2288e+01	16.9311	118.465711	0.000567	5.674151	1.922455	0.000227
 427	4.2387e+01	16.9632	118.748311	0.000709	7.092689	2.403068	0.000284
 428	4.2486e+01	17.0097	118.934019	0.000466	4.660910	1.579159	0.000187
 429	4.2586e+01	17.0466	119.156061	0.000557	5.572827	1.888125	0.000223
 430	4.2685e+01	17.0931	119.345807	0.000476	4.762234	1.613489	0.000191
 431	4.2785e+01	17.1316	119.575923	0.000578	5.775475	1.956784	0.000231
 432	4.2885e+01	17.1621	119.802003	0.000567	5.674151	1.922455	0.000227
 433	4.2984e+01	17.2182	120.020008	0.000547	5.471503	1.853795	0.000219
 434	4.3084e+01	17.2391	120.302608	0.000709	7.092689	2.403068	0.000284
 435	4.3183e+01	17.2760	120.480242	0.000446	4.458262	1.510500	0.000179
 436	4.3282e+01	17.3257	120.730544	0.000628	6.282096	2.128432	0.000252
 437	4.3382e+01	17.3642	120.932401	0.000507	5.066207	1.716477	0.000203
 438	4.3481e+01	17.4059	121.182703	0.000628	6.282096	2.128432	0.000252
 439	4.3581e+01	17.4380	121.416857	0.000588	5.876800	1.991114	0.000235
 440	4.3681e+01	17.4797	121.659085	0.000608	6.079448	2.059773	0.000243
 441	4.3780e+01	17.5150	121.852868	0.000486	4.863558	1.647818	0.000195
 442	4.3880e+01	17.5471	122.131430	0.000699	6.991365	2.368739	0.000280
 443	4.3979e+01	17.6000	122.349436	0.000547	5.471503	1.853795	0.000219
 444	4.4078e+01	17.6466	122.595701	0.000618	6.180772	2.094102	0.000248
 445	4.4178e+01	17.6851	122.813706	0.000547	5.471503	1.853795	0.000219
 446	4.4278e+01	17.7332	123.043823	0.000578	5.775475	1.956784	0.000231
 447	4.4377e+01	17.7637	123.257791	0.000537	5.370179	1.819466	0.000215
 448	4.4477e+01	17.7974	123.447537	0.000476	4.762234	1.613489	0.000191
 449	4.4576e+01	17.8391	123.677653	0.000578	5.775475	1.956784	0.000231
 450	4.4675e+01	17.8792	123.879510	0.000507	5.066207	1.716477	0.000203
 451	4.4775e+01	17.9273	124.085404	0.000517	5.167531	1.750807	0.000207
 452	4.4874e+01	17.9706	124.307447	0.000557	5.572827	1.888125	0.000223
 453	4.4974e+01	17.9979	124.573897	0.000669	6.687393	2.265750	0.000268
 454	4.5074e+01	18.0412	124.808051	0.000588	5.876800	1.991114	0.000235
 455	4.5173e+01	18.0829	125.022020	0.000537	5.370179	1.819466	0.000215
 456	4.5273e+01	18.1166	125.260211	0.000598	5.978124	2.025443	0.000239
 457	4.5372e+01	18.1583	125.433807	0.000436	4.356938	1.476170	0.000174
 458	4.5471e+01	18.1968	125.696221	0.000659	6.586069	2.231420	0.000264
 459	4.5571e+01	18.2433	125.934412	0.000598	5.978124	2.025443	0.000239
 460	4.5670e+01	18.2770	126.188752	0.000638	6.383420	2.162761	0.000256
 461	4.5770e+01	18.3171	126.406757	0.000547	5.471503	1.853795	0.000219
 462	4.5870e+01	18.3556	126.616688	0.000527	5.268855	1.785136	0.000211
 463	4.5969e+01	18.3989	126.834693	0.000547	5.471503	1.853795	0.000219
 464	4.6069e+01	18.4374	127.080959	0.000618	6.180772	2.094102	0.000248
 465	4.6168e+01	18.4743	127.262630	0.000456	4.559586	1.544830	0.000183
 466	4.6267e+01	18.5305	127.472561	0.000527	5.268855	1.785136	0.000211
 467	4.6367e+01	18.5626	127.666343	0.000486	4.863558	1.647818	0.000195
 468	4.6467e+01	18.5979	127.904534	0.000598	5.978124	2.025443	0.000239
 469	4.6566e+01	18.6396	128.090243	0.000466	4.660910	1.579159	0.000187
 470	4.6666e+01	18.6845	128.312285	0.000557	5.572827	1.888125	0.000223
 471	4.6765e+01	18.7262	128.554513	0.000608	6.079448	2.059773	0.000243
 472	4.6864e+01	18.7583	128.776556	0.000557	5.572827	1.888125	0.000223
 473	4.6964e+01	18.7984	128.998598	0.000557	5.572827	1.888125	0.000223
 474	4.7063e+01	18.8401	129.208529	0.000527	5.268855	1.785136	0.000211
 475	4.7163e+01	18.8818	129.450757	0.000608	6.079448	2.059773	0.000243
 476	4.7263e+01	18.9219	129.672800	0.000557	5.572827	1.888125	0.000223
 477	4.7362e+01	18.9636	129.838322	0.000415	4.154289	1.407511	0.000166
 478	4.7462e+01	19.0053	130.104773	0.000669	6.687393	2.265750	0.000268
 479	4.7561e+01	19.0374	130.342964	0.000598	5.978124	2.025443	0.000239
 480	4.7660e+01	19.0727	130.573081	0.000578	5.775475	1.956784	0.000231
 481	4.7760e+01	19.1176	130.791087	0.000547	5.471503	1.853795	0.000219
 482	4.7859e+01	19.1529	131.017166	0.000567	5.674151	1.922455	0.000227
 483	4.7959e+01	19.1946	131.231134	0.000537	5.370179	1.819466	0.000215
 484	4.8059e+01	19.2396	131.412805	0.000456	4.559586	1.544830	0.000183
 485	4.8158e+01	19.2781	131.622736	0.000527	5.268855	1.785136	0.000211
 486	4.8258e+01	19.3134	131.848816	0.000567	5.674151	1.922455	0.000227
 487	4.8357e+01	19.3567	132.050673	0.000507	5.066207	1.716477	0.000203
 488	4.8456e+01	19.3952	132.248493	0.000496	4.964882	1.682148	0.000199
 489	4.8556e+01	19.4385	132.478609	0.000578	5.775475	1.956784	0.000231
 490	4.8656e+01	19.4834	132.688540	0.000527	5.268855	1.785136	0.000211
 491	4.8755e+01	19.5155	132.910583	0.000557	5.572827	1.888125	0.000223
 492	4.8855e+01	19.5508	133.144737	0.000588	5.876800	1.991114	0.000235
 493	4.8954e+01	19.5877	133.378891	0.000588	5.876800	1.991114	0.000235
 494	4.9053e+01	19.6374	133.592859	0.000537	5.370179	1.819466	0.000215
 495	4.9153e+01	19.6727	133.794715	0.000507	5.066207	1.716477	0.000203
 496	4.9252e+01	19.7176	134.028869	0.000588	5.876800	1.991114	0.000235
 497	4.9352e+01	19.7545	134.271098	0.000608	6.079448	2.059773	0.000243
 498	4.9452e+01	19.7930	134.525437	0.000638	6.383420	2.162761	0.000256
 499	4.9551e+01	19.8347	134.727294	0.000507	5.066207	1.716477	0.000203
 500	4.9651e+01	19.8748	134.933188	0.000517	5.167531	1.750807	0.000207
 501	4.9750e+01	19.9166	135.143119	0.000527	5.268855	1.785136	0.000211
 502	4.9849e+01	19.9615	135.336901	0.000486	4.863558	1.647818	0.000195
 503	4.9949e+01	20.0000	135.530684	0.000486	4.863558	1.647818	0.000195
 504	5.0048e+01	19.9551	135.421681	0.000274	2.735752	0.926898	-0.000110
 505	5.0148e+01	19.9149	135.332864	0.000223	2.229131	0.755250	-0.000089
 506	5.0248e+01	19.8732	135.171379	0.000405	4.052965	1.373182	-0.000162
 507	5.0347e+01	19.8283	135.062376	0.000274	2.735752	0.926898	-0.000110
 508	5.0447e+01	19.7866	134.892816	0.000426	4.255613	1.441841	-0.000170
 509	5.0546e+01	19.7561	134.799962	0.000233	2.330455	0.789580	-0.000093
 510	5.0645e+01	19.7208	134.650588	0.000375	3.748993	1.270193	-0.000150
 511	5.0745e+01	19.6791	134.529474	0.000304	3.039724	1.029886	-0.000122
 512	5.0844e+01	19.6262	134.388174	0.000355	3.546345	1.201534	-0.000142
 513	5.0944e+01	19.5989	134.279172	0.000274	2.735752	0.926898	-0.000110
 514	5.1044e+01	19.5492	134.133835	0.000365	3.647669	1.235864	-0.000146
 515	5.1143e+01	19.5059	133.992535	0.000355	3.546345	1.201534	-0.000142
 516	5.1242e+01	19.4802	133.859310	0.000334	3.343696	1.132875	-0.000134
 517	5.1342e+01	19.4337	133.762418	0.000243	2.431779	0.823909	-0.000097
 518	5.1441e+01	19.3936	133.592859	0.000426	4.255613	1.441841	-0.000170
 519	5.1541e+01	19.3615	133.439448	0.000385	3.850317	1.304523	-0.000154
 520	5.1641e+01	19.3214	133.302185	0.000345	3.445020	1.167205	-0.000138
 521	5.1740e+01	19.2813	133.164922	0.000345	3.445020	1.167205	-0.000138
 522	5.1840e+01	19.2412	132.942880	0.000557	5.572827	1.888125	-0.000223
 523	5.1939e+01	19.1882	132.769283	0.000436	4.356938	1.476170	-0.000174
 524	5.2038e+01	19.1610	132.672392	0.000243	2.431779	0.823909	-0.000097
 525	5.2138e+01	19.1209	132.506869	0.000415	4.154289	1.407511	-0.000166
 526	5.2237e+01	19.0807	132.397867	0.000274	2.735752	0.926898	-0.000110
 527	5.2337e+01	19.0438	132.264641	0.000334	3.343696	1.132875	-0.000134
 528	5.2437e+01	19.0053	132.082970	0.000456	4.559586	1.544830	-0.000183
 529	5.2536e+01	18.9636	131.901299	0.000456	4.559586	1.544830	-0.000183
 530	5.2636e+01	18.9107	131.768073	0.000334	3.343696	1.132875	-0.000134
 531	5.2735e+01	18.8866	131.634848	0.000334	3.343696	1.132875	-0.000134
 532	5.2834e+01	18.8449	131.457214	0.000446	4.458262	1.510500	-0.000179
 533	5.2934e+01	18.8064	131.344174	0.000284	2.837076	0.961227	-0.000114
 534	5.3033e+01	18.7679	131.174614	0.000426	4.255613	1.441841	-0.000170
 535	5.3133e+01	18.7246	131.041389	0.000334	3.343696	1.132875	-0.000134
 536	5.3233e+01	18.6813	130.956609	0.000213	2.127807	0.720920	-0.000085
 537	5.3332e+01	18.6396	130.730529	0.000567	5.674151	1.922455	-0.000227
 538	5.3431e+01	18.6059	130.560970	0.000426	4.255613	1.441841	-0.000170
 539	5.3531e+01	18.5562	130.395447	0.000415	4.154289	1.407511	-0.000166
 540	5.3630e+01	18.5273	130.217813	0.000446	4.458262	1.510500	-0.000179
 541	5.3730e+01	18.4872	130.048254	0.000426	4.255613	1.441841	-0.000170
 542	5.3830e+01	18.4407	129.915028	0.000334	3.343696	1.132875	-0.000134
 543	5.3929e+01	18.4086	129.729320	0.000466	4.660910	1.579159	-0.000187
 544	5.4029e+01	18.3604	129.600131	0.000324	3.242372	1.098545	-0.000130
 545	5.4128e+01	18.3203	129.438646	0.000405	4.052965	1.373182	-0.000162
 546	5.4227e+01	18.2786	129.281198	0.000395	3.951641	1.338852	-0.000158
 547	5.4327e+01	18.2449	129.131824	0.000375	3.748993	1.270193	-0.000150
 548	5.4426e+01	18.2016	128.974375	0.000395	3.951641	1.338852	-0.000158
 549	5.4526e+01	18.1615	128.780593	0.000486	4.863558	1.647818	-0.000195
 550	5.4626e+01	18.1230	128.615070	0.000415	4.154289	1.407511	-0.000166
 551	5.4725e+01	18.0813	128.510105	0.000263	2.634427	0.892568	-0.000105
 552	5.4825e+01	18.0524	128.344582	0.000415	4.154289	1.407511	-0.000166
 553	5.4924e+01	18.0011	128.235580	0.000274	2.735752	0.926898	-0.000110
 554	5.5023e+01	17.9642	128.049871	0.000466	4.660910	1.579159	-0.000187
 555	5.5123e+01	17.9177	127.880312	0.000426	4.255613	1.441841	-0.000170
 556	5.5222e+01	17.8840	127.702678	0.000446	4.458262	1.510500	-0.000179
 557	5.5322e+01	17.8439	127.525044	0.000446	4.458262	1.510500	-0.000179
 558	5.5422e+01	17.8038	127.303001	0.000557	5.572827	1.888125	-0.000223
 559	5.5521e+01	17.7605	127.177850	0.000314	3.141048	1.064216	-0.000126
 560	5.5620e+01	17.7220	126.975993	0.000507	5.066207	1.716477	-0.000203
 561	5.5720e+01	17.6851	126.806434	0.000426	4.255613	1.441841	-0.000170
 562	5.5819e+01	17.6385	126.648985	0.000395	3.951641	1.338852	-0.000158
 563	5.5919e+01	17.5952	126.499611	0.000375	3.748993	1.270193	-0.000150
 564	5.6019e+01	17.5583	126.334089	0.000415	4.154289	1.407511	-0.000166
 565	5.6118e+01	17.5311	126.156455	0.000446	4.458262	1.510500	-0.000179
 566	5.6218e+01	17.4749	125.962672	0.000486	4.863558	1.647818	-0.000195
 567	5.6317e+01	17.4380	125.825410	0.000345	3.445020	1.167205	-0.000138
 568	5.6416e+01	17.3995	125.627590	0.000496	4.964882	1.682148	-0.000199
 569	5.6516e+01	17.3674	125.470142	0.000395	3.951641	1.338852	-0.000158
 570	5.6615e+01	17.3321	125.349028	0.000304	3.039724	1.029886	-0.000122
 571	5.6715e+01	17.2856	125.175431	0.000436	4.356938	1.476170	-0.000174
 572	5.6815e+01	17.2471	125.013945	0.000405	4.052965	1.373182	-0.000162
 573	5.6914e+01	17.2022	124.856497	0.000395	3.951641	1.338852	-0.000158
 574	5.7014e+01	17.1685	124.658677	0.000496	4.964882	1.682148	-0.000199
 575	5.7113e+01	17.1268	124.485080	0.000436	4.356938	1.476170	-0.000174
 576	5.7212e+01	17.0835	124.295335	0.000476	4.762234	1.613489	-0.000191
 577	5.7312e+01	17.0482	124.109627	0.000466	4.660910	1.579159	-0.000187
 578	5.7411e+01	17.0065	123.919881	0.000476	4.762234	1.613489	-0.000191
 579	5.7511e+01	16.9616	123.746285	0.000436	4.356938	1.476170	-0.000174
 580	5.7611e+01	16.9247	123.564614	0.000456	4.559586	1.544830	-0.000183
 581	5.7710e+01	16.8846	123.350645	0.000537	5.370179	1.819466	-0.000215
 582	5.7809e+01	16.8637	123.197234	0.000385	3.850317	1.304523	-0.000154
 583	5.7909e+01	16.7995	123.043823	0.000385	3.850317	1.304523	-0.000154
 584	5.8008e+01	16.7690	122.862152	0.000456	4.559586	1.544830	-0.000183
 585	5.8108e+01	16.7257	122.692592	0.000426	4.255613	1.441841	-0.000170
 586	5.8208e+01	16.6936	122.478624	0.000537	5.370179	1.819466	-0.000215
 587	5.8307e+01	16.6503	122.321176	0.000395	3.951641	1.338852	-0.000158
 588	5.8407e+01	16.6070	122.191987	0.000324	3.242372	1.098545	-0.000130
 589	5.8506e+01	16.5669	122.054725	0.000345	3.445020	1.167205	-0.000138
 590	5.8605e+01	16.5236	121.848831	0.000517	5.167531	1.750807	-0.000207
 591	5.8705e+01	16.4835	121.679271	0.000426	4.255613	1.441841	-0.000170
 592	5.8804e+01	16.4546	121.513749	0.000415	4.154289	1.407511	-0.000166
 593	5.8904e+01	16.4065	121.332077	0.000456	4.559586	1.544830	-0.000183
 594	5.9004e+01	16.3728	121.114072	0.000547	5.471503	1.853795	-0.000219
 595	5.9103e+01	16.3247	120.920290	0.000486	4.863558	1.647818	-0.000195
 596	5.9203e+01	16.2846	120.702284	0.000547	5.471503	1.853795	-0.000219
 597	5.9302e+01	16.2380	120.520613	0.000456	4.559586	1.544830	-0.000183
 598	5.9401e+01	16.2076	120.363165	0.000395	3.951641	1.338852	-0.000158
 599	5.9501e+01	16.1691	120.181494	0.000456	4.559586	1.544830	-0.000183
 600	5.9600e+01	16.1290	120.011934	0.000426	4.255613	1.441841	-0.000170
 601	5.9700e+01	16.0889	119.830263	0.000456	4.559586	1.544830	-0.000183
 602	5.9800e+01	16.0616	119.636480	0.000486	4.863558	1.647818	-0.000195
 603	5.9899e+01	16.0054	119.438661	0.000496	4.964882	1.682148	-0.000199
 604	5.9998e+01	15.9782	119.236804	0.000507	5.066207	1.716477	-0.000203
 605	6.0098e+01	15.9236	119.131838	0.000263	2.634427	0.892568	-0.000105
 606	6.0197e+01	15.8899	118.942093	0.000476	4.762234	1.613489	-0.000191
 607	6.0297e+01	15.8450	118.776571	0.000415	4.154289	1.407511	-0.000166
 608	6.0397e+01	15.7985	118.566639	0.000527	5.268855	1.785136	-0.000211
 609	6.0496e+01	15.7664	118.401117	0.000415	4.154289	1.407511	-0.000166
 610	6.0596e+01	15.7311	118.223483	0.000446	4.458262	1.510500	-0.000179
 611	6.0695e+01	15.6878	118.041812	0.000456	4.559586	1.544830	-0.000183
 612	6.0794e+01	15.6461	117.819769	0.000557	5.572827	1.888125	-0.000223
 613	6.0894e+01	15.6156	117.630024	0.000476	4.762234	1.613489	-0.000191
 614	6.0993e+01	15.5691	117.407982	0.000557	5.572827	1.888125	-0.000223
 615	6.1093e+01	15.5290	117.218236	0.000476	4.762234	1.613489	-0.000191
 616	6.1193e+01	15.4921	116.992157	0.000567	5.674151	1.922455	-0.000227
 617	6.1292e+01	15.4568	116.814523	0.000446	4.458262	1.510500	-0.000179
 618	6.1392e+01	15.4135	116.628814	0.000466	4.660910	1.579159	-0.000187
 619	6.1491e+01	15.3734	116.443106	0.000466	4.660910	1.579159	-0.000187
 620	6.1590e+01	15.3381	116.277584	0.000415	4.154289	1.407511	-0.000166
 621	6.1690e+01	15.2996	116.031318	0.000618	6.180772	2.094102	-0.000248
 622	6.1789e+01	15.2530	115.885981	0.000365	3.647669	1.235864	-0.000146
 623	6.1889e+01	15.2194	115.700273	0.000466	4.660910	1.579159	-0.000187
 624	6.1989e+01	15.1712	115.534751	0.000415	4.154289	1.407511	-0.000166
 625	6.2088e+01	15.1343	115.361154	0.000436	4.356938	1.476170	-0.000174
 626	6.2188e+01	15.0862	115.151223	0.000527	5.268855	1.785136	-0.000211
 627	6.2287e+01	15.0525	114.941292	0.000527	5.268855	1.785136	-0.000211
 628	6.2386e+01	15.0028	114.767695	0.000436	4.356938	1.476170	-0.000174
 629	6.2486e+01	14.9771	114.586024	0.000456	4.559586	1.544830	-0.000183
 630	6.2586e+01	14.9322	114.380130	0.000517	5.167531	1.750807	-0.000207
 631	6.2685e+01	14.8953	114.154050	0.000567	5.674151	1.922455	-0.000227
 632	6.2785e+01	14.8696	113.984490	0.000426	4.255613	1.441841	-0.000170
 633	6.2884e+01	14.8167	113.758411	0.000567	5.674151	1.922455	-0.000227
 634	6.2983e+01	14.7766	113.532331	0.000567	5.674151	1.922455	-0.000227
 635	6.3083e+01	14.7317	113.306252	0.000567	5.674151	1.922455	-0.000227
 636	6.3182e+01	14.6900	113.132655	0.000436	4.356938	1.476170	-0.000174
 637	6.3282e+01	14.6547	112.950984	0.000456	4.559586	1.544830	-0.000183
 638	6.3382e+01	14.6210	112.749127	0.000507	5.066207	1.716477	-0.000203
 639	6.3481e+01	14.5793	112.523047	0.000567	5.674151	1.922455	-0.000227
 640	6.3581e+01	14.5343	112.373673	0.000375	3.748993	1.270193	-0.000150
 641	6.3680e+01	14.4958	112.175854	0.000496	4.964882	1.682148	-0.000199
 642	6.3779e+01	14.4573	111.973997	0.000507	5.066207	1.716477	-0.000203
 643	6.3879e+01	14.4108	111.792326	0.000456	4.559586	1.544830	-0.000183
 644	6.3978e+01	14.3675	111.594506	0.000496	4.964882	1.682148	-0.000199
 645	6.4078e+01	14.3290	111.376501	0.000547	5.471503	1.853795	-0.000219
 646	6.4177e+01	14.2921	111.210978	0.000415	4.154289	1.407511	-0.000166
 647	6.4277e+01	14.2632	110.992973	0.000547	5.471503	1.853795	-0.000219
 648	6.4376e+01	14.2087	110.787079	0.000517	5.167531	1.750807	-0.000207
 649	6.4476e+01	14.1814	110.581185	0.000517	5.167531	1.750807	-0.000207
 650	6.4576e+01	14.1381	110.355105	0.000567	5.674151	1.922455	-0.000227
 651	6.4675e+01	14.0964	110.153249	0.000507	5.066207	1.716477	-0.000203
 652	6.4775e+01	14.0547	109.947355	0.000517	5.167531	1.750807	-0.000207
 653	6.4874e+01	14.0178	109.765684	0.000456	4.559586	1.544830	-0.000183
 654	6.4974e+01	13.9761	109.535567	0.000578	5.775475	1.956784	-0.000231
 655	6.5073e+01	13.9360	109.333710	0.000507	5.066207	1.716477	-0.000203
 656	6.5172e+01	13.8959	109.139928	0.000486	4.863558	1.647818	-0.000195
 657	6.5272e+01	13.8574	108.925959	0.000537	5.370179	1.819466	-0.000215
 658	6.5371e+01	13.8173	108.772548	0.000385	3.850317	1.304523	-0.000154
 659	6.5471e+01	13.7804	108.602988	0.000426	4.255613	1.441841	-0.000170
 660	6.5570e+01	13.7403	108.368835	0.000588	5.876800	1.991114	-0.000235
 661	6.5670e+01	13.7018	108.187164	0.000456	4.559586	1.544830	-0.000183
 662	6.5769e+01	13.6616	107.993381	0.000486	4.863558	1.647818	-0.000195
 663	6.5869e+01	13.6167	107.779413	0.000537	5.370179	1.819466	-0.000215
 664	6.5969e+01	13.5718	107.581593	0.000496	4.964882	1.682148	-0.000199
 665	6.6068e+01	13.5301	107.355514	0.000567	5.674151	1.922455	-0.000227
 666	6.6168e+01	13.4980	107.121360	0.000588	5.876800	1.991114	-0.000235
 667	6.6267e+01	13.4595	106.935651	0.000466	4.660910	1.579159	-0.000187
 668	6.6367e+01	13.4162	106.685349	0.000628	6.282096	2.128432	-0.000252
 669	6.6466e+01	13.3729	106.487529	0.000496	4.964882	1.682148	-0.000199
 670	6.6566e+01	13.3392	106.289710	0.000496	4.964882	1.682148	-0.000199
 671	6.6665e+01	13.3007	106.075742	0.000537	5.370179	1.819466	-0.000215
 672	6.6764e+01	13.2542	105.849662	0.000567	5.674151	1.922455	-0.000227
 673	6.6864e+01	13.2125	105.647805	0.000507	5.066207	1.716477	-0.000203
 674	6.6963e+01	13.1804	105.470171	0.000446	4.458262	1.510500	-0.000179
 675	6.7063e+01	13.1451	105.280426	0.000476	4.762234	1.613489	-0.000191
 676	6.7162e+01	13.1050	105.098755	0.000456	4.559586	1.544830	-0.000183
 677	6.7262e+01	13.0585	104.860564	0.000598	5.978124	2.025443	-0.000239
 678	6.7362e+01	13.0200	104.666781	0.000486	4.863558	1.647818	-0.000195
 679	6.7461e+01	12.9782	104.440702	0.000567	5.674151	1.922455	-0.000227
 680	6.7561e+01	12.9397	104.234808	0.000517	5.167531	1.750807	-0.000207
 681	6.7660e+01	12.8996	104.049099	0.000466	4.660910	1.579159	-0.000187
 682	6.7760e+01	12.8611	103.835131	0.000537	5.370179	1.819466	-0.000215
 683	6.7859e+01	12.8210	103.613089	0.000557	5.572827	1.888125	-0.000223
 684	6.7959e+01	12.7873	103.399121	0.000537	5.370179	1.819466	-0.000215
 685	6.8058e+01	12.7472	103.136707	0.000659	6.586069	2.231420	-0.000264
 686	6.8157e+01	12.7055	102.938887	0.000496	4.964882	1.682148	-0.000199
 687	6.8257e+01	12.6622	102.704733	0.000588	5.876800	1.991114	-0.000235
 688	6.8356e+01	12.6269	102.527099	0.000446	4.458262	1.510500	-0.000179
 689	6.8456e+01	12.5852	102.280834	0.000618	6.180772	2.094102	-0.000248
 690	6.8555e+01	12.5355	102.083014	0.000496	4.964882	1.682148	-0.000199
 691	6.8655e+01	12.4986	101.852898	0.000578	5.775475	1.956784	-0.000231
 692	6.8754e+01	12.4665	101.663152	0.000476	4.762234	1.613489	-0.000191
 693	6.8854e+01	12.4280	101.509741	0.000385	3.850317	1.304523	-0.000154
 694	6.8954e+01	12.3943	101.283661	0.000567	5.674151	1.922455	-0.000227
 695	6.9053e+01	12.3430	101.085842	0.000496	4.964882	1.682148	-0.000199
 696	6.9153e+01	12.3077	100.851688	0.000588	5.876800	1.991114	-0.000235
 697	6.9252e+01	12.2644	100.657905	0.000486	4.863558	1.647818	-0.000195
 698	6.9352e+01	12.2243	100.472197	0.000466	4.660910	1.579159	-0.000187
 699	6.9451e+01	12.1874	100.234006	0.000598	5.978124	2.025443	-0.000239
 700	6.9550e+01	12.1424	100.016001	0.000547	5.471503	1.853795	-0.000219
 701	6.9650e+01	12.1136	99.785884	0.000578	5.775475	1.956784	-0.000231
 702	6.9749e+01	12.0622	99.567879	0.000547	5.471503	1.853795	-0.000219
 703	6.9849e+01	12.0205	99.374096	0.000486	4.863558	1.647818	-0.000195
 704	6.9948e+01	11.9932	99.099571	0.000689	6.890041	2.334409	-0.000276
 705	7.0048e+01	11.9515	98.873491	0.000567	5.674151	1.922455	-0.000227
 706	7.0147e+01	11.9066	98.695857	0.000446	4.458262	1.510500	-0.000179
 707	7.0247e+01	11.8649	98.461704	0.000588	5.876800	1.991114	-0.000235
 708	7.0347e+01	11.8280	98.259847	0.000507	5.066207	1.716477	-0.000203
 709	7.0446e+01	11.7879	98.017619	0.000608	6.079448	2.059773	-0.000243
 710	7.0546e+01	11.7414	97.835947	0.000456	4.559586	1.544830	-0.000183
 711	7.0645e+01	11.7125	97.646202	0.000476	4.762234	1.613489	-0.000191
 712	7.0745e+01	11.6644	97.424160	0.000557	5.572827	1.888125	-0.000223
 713	7.0844e+01	11.6291	97.202117	0.000557	5.572827	1.888125	-0.000223
 714	7.0944e+01	11.5890	97.008335	0.000486	4.863558	1.647818	-0.000195
 715	7.1043e+01	11.5441	96.806478	0.000507	5.066207	1.716477	-0.000203
 716	7.1142e+01	11.5056	96.604621	0.000507	5.066207	1.716477	-0.000203
 717	7.1242e+01	11.4671	96.374504	0.000578	5.775475	1.956784	-0.000231
 718	7.1341e+01	11.4302	96.132276	0.000608	6.079448	2.059773	-0.000243
 719	7.1441e+01	11.3901	95.906197	0.000567	5.674151	1.922455	-0.000227
 720	7.1540e+01	11.3548	95.684154	0.000557	5.572827	1.888125	-0.000223
 721	7.1640e+01	11.3066	95.482297	0.000507	5.066207	1.716477	-0.000203
 722	7.1740e+01	11.2665	95.227958	0.000638	6.383420	2.162761	-0.000256
 723	7.1839e+01	11.2296	95.038212	0.000476	4.762234	1.613489	-0.000191
 724	7.1939e+01	11.1895	94.808096	0.000578	5.775475	1.956784	-0.000231
 725	7.2038e+01	11.1574	94.577979	0.000578	5.775475	1.956784	-0.000231
 726	7.2138e+01	11.1093	94.359974	0.000547	5.471503	1.853795	-0.000219
 727	7.2237e+01	11.0660	94.150043	0.000527	5.268855	1.785136	-0.000211
 728	7.2337e+01	11.0291	93.919926	0.000578	5.775475	1.956784	-0.000231
 729	7.2436e+01	10.9890	93.714032	0.000517	5.167531	1.750807	-0.000207
 730	7.2535e+01	10.9505	93.524287	0.000476	4.762234	1.613489	-0.000191
 731	7.2635e+01	10.8992	93.286095	0.000598	5.978124	2.025443	-0.000239
 732	7.2734e+01	10.8655	93.051942	0.000588	5.876800	1.991114	-0.000235
 733	7.2834e+01	10.8334	92.874308	0.000446	4.458262	1.510500	-0.000179
 734	7.2933e+01	10.7837	92.640154	0.000588	5.876800	1.991114	-0.000235
 735	7.3033e+01	10.7516	92.438297	0.000507	5.066207	1.716477	-0.000203
 736	7.3132e+01	10.7066	92.208180	0.000578	5.775475	1.956784	-0.000231
 737	7.3232e+01	10.6730	91.969989	0.000598	5.978124	2.025443	-0.000239
 738	7.3332e+01	10.6232	91.756021	0.000537	5.370179	1.819466	-0.000215
 739	7.3431e+01	10.5992	91.509756	0.000618	6.180772	2.094102	-0.000248
 740	7.3531e+01	10.5591	91.251379	0.000648	6.484744	2.197091	-0.000260
 741	7.3630e+01	10.5077	91.041448	0.000527	5.268855	1.785136	-0.000211
 742	7.3730e+01	10.4740	90.787108	0.000638	6.383420	2.162761	-0.000256
 743	7.3829e+01	10.4307	90.573140	0.000537	5.370179	1.819466	-0.000215
 744	7.3928e+01	10.3906	90.326875	0.000618	6.180772	2.094102	-0.000248
 745	7.4028e+01	10.3521	90.084647	0.000608	6.079448	2.059773	-0.000243
 746	7.4127e+01	10.3152	89.927199	0.000395	3.951641	1.338852	-0.000158
 747	7.4227e+01	10.2719	89.717268	0.000527	5.268855	1.785136	-0.000211
 748	7.4326e+01	10.2286	89.495225	0.000557	5.572827	1.888125	-0.000223
 749	7.4426e+01	10.1901	89.252997	0.000608	6.079448	2.059773	-0.000243
 750	7.4525e+01	10.1580	89.006732	0.000618	6.180772	2.094102	-0.000248
 751	7.4625e+01	10.1067	88.800838	0.000517	5.167531	1.750807	-0.000207
 752	7.4725e+01	10.0698	88.598981	0.000507	5.066207	1.716477	-0.000203
 753	7.4824e+01	10.0265	88.364827	0.000588	5.876800	1.991114	-0.000235
 754	7.4924e+01	9.9944	88.134710	0.000578	5.775475	1.956784	-0.000231
 755	7.5023e+01	9.9559	87.872296	0.000659	6.586069	2.231420	-0.000264
 756	7.5123e+01	9.9093	87.662365	0.000527	5.268855	1.785136	-0.000211
 757	7.5222e+01	9.8741	87.424174	0.000598	5.978124	2.025443	-0.000239
 758	7.5322e+01	9.8388	87.153686	0.000679	6.788717	2.300080	-0.000272
 759	7.5421e+01	9.8051	86.943755	0.000527	5.268855	1.785136	-0.000211
 760	7.5520e+01	9.7602	86.693453	0.000628	6.282096	2.128432	-0.000252
 761	7.5620e+01	9.7120	86.467373	0.000567	5.674151	1.922455	-0.000227
 762	7.5719e+01	9.6783	86.225145	0.000608	6.079448	2.059773	-0.000243
 763	7.5819e+01	9.6398	85.982917	0.000608	6.079448	2.059773	-0.000243
 764	7.5918e+01	9.5997	85.772986	0.000527	5.268855	1.785136	-0.000211
 765	7.6018e+01	9.5580	85.571129	0.000507	5.066207	1.716477	-0.000203
 766	7.6118e+01	9.5131	85.361198	0.000527	5.268855	1.785136	-0.000211
 767	7.6217e+01	9.4794	85.131081	0.000578	5.775475	1.956784	-0.000231
 768	7.6317e+01	9.4393	84.892890	0.000598	5.978124	2.025443	-0.000239
 769	7.6416e+01	9.3864	84.654699	0.000598	5.978124	2.025443	-0.000239
 770	7.6516e+01	9.3527	84.436694	0.000547	5.471503	1.853795	-0.000219
 771	7.6615e+01	9.3174	84.162169	0.000689	6.890041	2.334409	-0.000276
 772	7.6715e+01	9.2757	83.940126	0.000557	5.572827	1.888125	-0.000223
 773	7.6814e+01	9.2356	83.734232	0.000517	5.167531	1.750807	-0.000207
 774	7.6913e+01	9.1906	83.471819	0.000659	6.586069	2.231420	-0.000264
 775	7.7013e+01	9.1521	83.241702	0.000578	5.775475	1.956784	-0.000231
 776	7.7112e+01	9.1233	83.011585	0.000578	5.775475	1.956784	-0.000231
 777	7.7212e+01	9.0816	82.708800	0.000760	7.599310	2.574716	-0.000304
 778	7.7311e+01	9.0415	82.470609	0.000598	5.978124	2.025443	-0.000239
 779	7.7411e+01	8.9965	82.240492	0.000578	5.775475	1.956784	-0.000231
 780	7.7510e+01	8.9564	81.986153	0.000638	6.383420	2.162761	-0.000256
 781	7.7610e+01	8.9147	81.731813	0.000638	6.383420	2.162761	-0.000256
 782	7.7710e+01	8.8794	81.521882	0.000527	5.268855	1.785136	-0.000211
 783	7.7809e+01	8.8425	81.320025	0.000507	5.066207	1.716477	-0.000203
 784	7.7909e+01	8.7960	81.049537	0.000679	6.788717	2.300080	-0.000272
 785	7.8008e+01	8.7511	80.831532	0.000547	5.471503	1.853795	-0.000219
 786	7.8108e+01	8.7174	80.581229	0.000628	6.282096	2.128432	-0.000252
 787	7.8207e+01	8.6789	80.355150	0.000567	5.674151	1.922455	-0.000227
 788	7.8306e+01	8.6468	80.145219	0.000527	5.268855	1.785136	-0.000211
 789	7.8406e+01	8.6035	79.878768	0.000669	6.687393	2.265750	-0.000268
 790	7.8505e+01	8.5634	79.640577	0.000598	5.978124	2.025443	-0.000239
 791	7.8605e+01	8.5201	79.406423	0.000588	5.876800	1.991114	-0.000235
 792	7.8704e+01	8.4848	79.164195	0.000608	6.079448	2.059773	-0.000243
 793	7.8804e+01	8.4399	78.934078	0.000578	5.775475	1.956784	-0.000231
 794	7.8903e+01	8.3950	78.643404	0.000730	7.295337	2.471727	-0.000292
 795	7.9003e+01	8.3677	78.405213	0.000598	5.978124	2.025443	-0.000239
 796	7.9103e+01	8.3196	78.142799	0.000659	6.586069	2.231420	-0.000264
 797	7.9202e+01	8.2843	77.868274	0.000689	6.890041	2.334409	-0.000276
 798	7.9302e+01	8.2409	77.601823	0.000669	6.687393	2.265750	-0.000268
 799	7.9401e+01	8.1960	77.351521	0.000628	6.282096	2.128432	-0.000252
 800	7.9501e+01	8.1543	77.149664	0.000507	5.066207	1.716477	-0.000203
 801	7.9600e+01	8.1254	76.931659	0.000547	5.471503	1.853795	-0.000219
 802	7.9700e+01	8.0821	76.685393	0.000618	6.180772	2.094102	-0.000248
 803	7.9799e+01	8.0404	76.439128	0.000618	6.180772	2.094102	-0.000248
 804	7.9898e+01	8.0051	76.204974	0.000588	5.876800	1.991114	-0.000235
 805	7.9998e+01	7.9618	75.938523	0.000669	6.687393	2.265750	-0.000268
 806	8.0097e+01	7.9217	75.651887	0.000719	7.194013	2.437398	-0.000288
 807	8.0197e+01	7.8816	75.441956	0.000527	5.268855	1.785136	-0.000211
 808	8.0296e+01	7.8447	75.183579	0.000648	6.484744	2.197091	-0.000260
 809	8.0396e+01	7.8030	74.957499	0.000567	5.674151	1.922455	-0.000227
 810	8.0496e+01	7.7613	74.670863	0.000719	7.194013	2.437398	-0.000288
 811	8.0595e+01	7.7260	74.416523	0.000638	6.383420	2.162761	-0.000256
 812	8.0695e+01	7.7003	74.178332	0.000598	5.978124	2.025443	-0.000239
 813	8.0794e+01	7.6458	73.883621	0.000740	7.396662	2.506057	-0.000296
 814	8.0894e+01	7.6041	73.609096	0.000689	6.890041	2.334409	-0.000276
 815	8.0993e+01	7.5704	73.374942	0.000588	5.876800	1.991114	-0.000235
 816	8.1093e+01	7.5239	73.128677	0.000618	6.180772	2.094102	-0.000248
 817	8.1192e+01	7.4886	72.914709	0.000537	5.370179	1.819466	-0.000215
 818	8.1291e+01	7.4468	72.660369	0.000638	6.383420	2.162761	-0.000256
 819	8.1391e+01	7.4051	72.406029	0.000638	6.383420	2.162761	-0.000256
 820	8.1490e+01	7.3666	72.192061	0.000537	5.370179	1.819466	-0.000215
 821	8.1590e+01	7.3201	71.937722	0.000638	6.383420	2.162761	-0.000256
 822	8.1689e+01	7.2864	71.651085	0.000719	7.194013	2.437398	-0.000288
 823	8.1789e+01	7.2463	71.396746	0.000638	6.383420	2.162761	-0.000256
 824	8.1888e+01	7.1966	71.154517	0.000608	6.079448	2.059773	-0.000243
 825	8.1988e+01	7.1693	70.908252	0.000618	6.180772	2.094102	-0.000248
 826	8.2088e+01	7.1292	70.649875	0.000648	6.484744	2.197091	-0.000260
 827	8.2187e+01	7.0827	70.375350	0.000689	6.890041	2.334409	-0.000276
 828	8.2287e+01	7.0410	70.133122	0.000608	6.079448	2.059773	-0.000243
 829	8.2386e+01	7.0025	69.886857	0.000618	6.180772	2.094102	-0.000248
 830	8.2486e+01	6.9688	69.616369	0.000679	6.788717	2.300080	-0.000272
 831	8.2585e+01	6.9255	69.337806	0.000699	6.991365	2.368739	-0.000280
 832	8.2684e+01	6.8886	69.067318	0.000679	6.788717	2.300080	-0.000272
 833	8.2784e+01	6.8453	68.800867	0.000669	6.687393	2.265750	-0.000268
 834	8.2883e+01	6.8132	68.578825	0.000557	5.572827	1.888125	-0.000223
 835	8.2983e+01	6.7699	68.332560	0.000618	6.180772	2.094102	-0.000248
 836	8.3082e+01	6.7201	68.106480	0.000567	5.674151	1.922455	-0.000227
 837	8.3182e+01	6.6897	67.864252	0.000608	6.079448	2.059773	-0.000243
 838	8.3281e+01	6.6528	67.565504	0.000750	7.497986	2.540386	-0.000300
 839	8.3381e+01	6.6030	67.343461	0.000557	5.572827	1.888125	-0.000223
 840	8.3481e+01	6.5725	67.077010	0.000669	6.687393	2.265750	-0.000268
 841	8.3580e+01	6.5292	66.814596	0.000659	6.586069	2.231420	-0.000264
 842	8.3680e+01	6.4859	66.604665	0.000527	5.268855	1.785136	-0.000211
 843	8.3779e+01	6.4458	66.318029	0.000719	7.194013	2.437398	-0.000288
 844	8.3879e+01	6.4041	66.067726	0.000628	6.282096	2.128432	-0.000252
 845	8.3978e+01	6.3704	65.817424	0.000628	6.282096	2.128432	-0.000252
 846	8.4078e+01	6.3335	65.522713	0.000740	7.396662	2.506057	-0.000296
 847	8.4177e+01	6.2838	65.292596	0.000578	5.775475	1.956784	-0.000231
 848	8.4276e+01	6.2677	64.993848	0.000750	7.497986	2.540386	-0.000300
 849	8.4376e+01	6.2052	64.682989	0.000780	7.801958	2.643375	-0.000312
 850	8.4475e+01	6.1715	64.444798	0.000598	5.978124	2.025443	-0.000239
 851	8.4575e+01	6.1346	64.162198	0.000709	7.092689	2.403068	-0.000284
 852	8.4674e+01	6.0881	63.887673	0.000689	6.890041	2.334409	-0.000276
 853	8.4774e+01	6.0544	63.633334	0.000638	6.383420	2.162761	-0.000256
 854	8.4874e+01	6.0111	63.419365	0.000537	5.370179	1.819466	-0.000215
 855	8.4973e+01	5.9629	63.197323	0.000557	5.572827	1.888125	-0.000223
 856	8.5073e+01	5.9260	62.922798	0.000689	6.890041	2.334409	-0.000276
 857	8.5172e+01	5.8956	62.652310	0.000679	6.788717	2.300080	-0.000272
 858	8.5272e+01	5.8490	62.406044	0.000618	6.180772	2.094102	-0.000248
 859	8.5371e+01	5.8057	62.127482	0.000699	6.991365	2.368739	-0.000280
 860	8.5471e+01	5.7624	61.873142	0.000638	6.383420	2.162761	-0.000256
 861	8.5570e+01	5.7367	61.622840	0.000628	6.282096	2.128432	-0.000252
 862	8.5669e+01	5.6902	61.360426	0.000659	6.586069	2.231420	-0.000264
 863	8.5769e+01	5.6517	61.089938	0.000679	6.788717	2.300080	-0.000272
 864	8.5868e+01	5.6116	60.762930	0.000821	8.207255	2.780693	-0.000329
 865	8.5968e+01	5.5763	60.565110	0.000496	4.964882	1.682148	-0.000199
 866	8.6067e+01	5.5362	60.286548	0.000699	6.991365	2.368739	-0.000280
 867	8.6167e+01	5.4865	59.959540	0.000821	8.207255	2.780693	-0.000329
 868	8.6266e+01	5.4512	59.713275	0.000618	6.180772	2.094102	-0.000248
 869	8.6366e+01	5.4175	59.483158	0.000578	5.775475	1.956784	-0.000231
 870	8.6466e+01	5.3838	59.236893	0.000618	6.180772	2.094102	-0.000248
 871	8.6565e+01	5.3453	58.926033	0.000780	7.801958	2.643375	-0.000312
 872	8.6665e+01	5.2908	58.655545	0.000679	6.788717	2.300080	-0.000272
 873	8.6764e+01	5.2490	58.445614	0.000527	5.268855	1.785136	-0.000211
 874	8.6864e+01	5.2186	58.207423	0.000598	5.978124	2.025443	-0.000239
 875	8.6963e+01	5.1769	57.924824	0.000709	7.092689	2.403068	-0.000284
 876	8.7063e+01	5.1400	57.638187	0.000719	7.194013	2.437398	-0.000288
 877	8.7162e+01	5.0886	57.363662	0.000689	6.890041	2.334409	-0.000276
 878	8.7261e+01	5.0565	57.149694	0.000537	5.370179	1.819466	-0.000215
 879	8.7361e+01	5.0132	56.859020	0.000730	7.295337	2.471727	-0.000292
 880	8.7460e+01	4.9715	56.584495	0.000689	6.890041	2.334409	-0.000276
 881	8.7560e+01	4.9314	56.326118	0.000648	6.484744	2.197091	-0.000260
 882	8.7659e+01	4.9009	56.104075	0.000557	5.572827	1.888125	-0.000223
 883	8.7759e+01	4.8544	55.797253	0.000770	7.700634	2.609045	-0.000308
 884	8.7859e+01	4.8191	55.538876	0.000648	6.484744	2.197091	-0.000260
 885	8.7958e+01	4.7758	55.228017	0.000780	7.801958	2.643375	-0.000312
 886	8.8058e+01	4.7357	54.945417	0.000709	7.092689	2.403068	-0.000284
 887	8.8157e+01	4.6940	54.678966	0.000669	6.687393	2.265750	-0.000268
 888	8.8257e+01	4.6571	54.416553	0.000659	6.586069	2.231420	-0.000264
 889	8.8356e+01	4.6138	54.158176	0.000648	6.484744	2.197091	-0.000260
 890	8.8456e+01	4.5769	53.919985	0.000598	5.978124	2.025443	-0.000239
 891	8.8555e+01	4.5400	53.629311	0.000730	7.295337	2.471727	-0.000292
 892	8.8654e+01	4.4967	53.411306	0.000547	5.471503	1.853795	-0.000219
 893	8.8754e+01	4.4550	53.128706	0.000709	7.092689	2.403068	-0.000284
 894	8.8853e+01	4.4229	52.866292	0.000659	6.586069	2.231420	-0.000264
 895	8.8953e+01	4.3731	52.579656	0.000719	7.194013	2.437398	-0.000288
 896	8.9052e+01	4.3298	52.353576	0.000567	5.674151	1.922455	-0.000227
 897	8.9152e+01	4.2961	52.075014	0.000699	6.991365	2.368739	-0.000280
 898	8.9251e+01	4.2496	51.768192	0.000770	7.700634	2.609045	-0.000308
 899	8.9351e+01	4.2111	51.554223	0.000537	5.370179	1.819466	-0.000215
 900	8.9451e+01	4.1758	51.255475	0.000750	7.497986	2.540386	-0.000300
 901	8.9550e+01	4.1437	50.936542	0.000800	8.004606	2.712034	-0.000321
 902	8.9650e+01	4.1004	50.702388	0.000588	5.876800	1.991114	-0.000235
 903	8.9749e+01	4.0683	50.415751	0.000719	7.194013	2.437398	-0.000288
 904	8.9849e+01	4.0202	50.060483	0.000892	8.916524	3.021000	-0.000357
 905	8.9948e+01	3.9785	49.814218	0.000618	6.180772	2.094102	-0.000248
 906	9.0047e+01	3.9432	49.523544	0.000730	7.295337	2.471727	-0.000292
 907	9.0147e+01	3.8967	49.285353	0.000598	5.978124	2.025443	-0.000239
 908	9.0246e+01	3.8630	48.990642	0.000740	7.396662	2.506057	-0.000296
 909	9.0346e+01	3.8084	48.744377	0.000618	6.180772	2.094102	-0.000248
 910	9.0445e+01	3.7764	48.498112	0.000618	6.180772	2.094102	-0.000248
 911	9.0545e+01	3.7411	48.219549	0.000699	6.991365	2.368739	-0.000280
 912	9.0644e+01	3.7010	47.940987	0.000699	6.991365	2.368739	-0.000280
 913	9.0744e+01	3.6705	47.678573	0.000659	6.586069	2.231420	-0.000264
 914	9.0844e+01	3.6240	47.428271	0.000628	6.282096	2.128432	-0.000252
 915	9.0943e+01	3.5806	47.149708	0.000699	6.991365	2.368739	-0.000280
 916	9.1043e+01	3.5373	46.822700	0.000821	8.207255	2.780693	-0.000329
 917	9.1142e+01	3.4908	46.572398	0.000628	6.282096	2.128432	-0.000252
 918	9.1242e+01	3.4539	46.289798	0.000709	7.092689	2.403068	-0.000284
 919	9.1341e+01	3.4122	45.999125	0.000730	7.295337	2.471727	-0.000292
 920	9.1441e+01	3.3801	45.716525	0.000709	7.092689	2.403068	-0.000284
 921	9.1540e+01	3.3336	45.466223	0.000628	6.282096	2.128432	-0.000252
 922	9.1639e+01	3.3079	45.147289	0.000800	8.004606	2.712034	-0.000321
 923	9.1739e+01	3.2566	44.860652	0.000719	7.194013	2.437398	-0.000288
 924	9.1838e+01	3.2149	44.565941	0.000740	7.396662	2.506057	-0.000296
 925	9.1938e+01	3.1812	44.283342	0.000709	7.092689	2.403068	-0.000284
 926	9.2037e+01	3.1443	43.996705	0.000719	7.194013	2.437398	-0.000288
 927	9.2137e+01	3.0881	43.726217	0.000679	6.788717	2.300080	-0.000272
 928	9.2237e+01	3.0625	43.500138	0.000567	5.674151	1.922455	-0.000227
 929	9.2336e+01	3.0160	43.245798	0.000638	6.383420	2.162761	-0.000256
 930	9.2436e+01	2.9807	42.938976	0.000770	7.700634	2.609045	-0.000308
 931	9.2535e+01	2.9550	42.676562	0.000659	6.586069	2.231420	-0.000264
 932	9.2635e+01	2.9053	42.410111	0.000669	6.687393	2.265750	-0.000268
 933	9.2734e+01	2.8539	42.107326	0.000760	7.599310	2.574716	-0.000304
 934	9.2834e+01	2.8202	41.844912	0.000659	6.586069	2.231420	-0.000264
 935	9.2933e+01	2.7753	41.530015	0.000790	7.903282	2.677704	-0.000316
 936	9.3032e+01	2.7464	41.247416	0.000709	7.092689	2.403068	-0.000284
 937	9.3132e+01	2.6967	40.980965	0.000669	6.687393	2.265750	-0.000268
 938	9.3231e+01	2.6582	40.702403	0.000699	6.991365	2.368739	-0.000280
 939	9.3331e+01	2.6261	40.379432	0.000811	8.105930	2.746364	-0.000325
 940	9.3430e+01	2.5812	40.133166	0.000618	6.180772	2.094102	-0.000248
 941	9.3530e+01	2.5459	39.802121	0.000831	8.308579	2.815023	-0.000333
 942	9.3629e+01	2.5090	39.495299	0.000770	7.700634	2.609045	-0.000308
 943	9.3729e+01	2.4577	39.196551	0.000750	7.497986	2.540386	-0.000300
 944	9.3829e+01	2.4240	38.909914	0.000719	7.194013	2.437398	-0.000288
 945	9.3928e+01	2.3823	38.619240	0.000730	7.295337	2.471727	-0.000292
 946	9.4028e+01	2.3422	38.356827	0.000659	6.586069	2.231420	-0.000264
 947	9.4127e+01	2.3037	38.098450	0.000648	6.484744	2.197091	-0.000260
 948	9.4227e+01	2.2700	37.836036	0.000659	6.586069	2.231420	-0.000264
 949	9.4326e+01	2.2219	37.541325	0.000740	7.396662	2.506057	-0.000296
 950	9.4425e+01	2.1769	37.286986	0.000638	6.383420	2.162761	-0.000256
 951	9.4525e+01	2.1400	36.980163	0.000770	7.700634	2.609045	-0.000308
 952	9.4624e+01	2.1015	36.641044	0.000851	8.511227	2.883682	-0.000341
 953	9.4724e+01	2.0679	36.366519	0.000689	6.890041	2.334409	-0.000276
 954	9.4823e+01	2.0278	36.055659	0.000780	7.801958	2.643375	-0.000312
 955	9.4923e+01	1.9876	35.797283	0.000648	6.484744	2.197091	-0.000260
 956	9.5022e+01	1.9427	35.494497	0.000760	7.599310	2.574716	-0.000304
 957	9.5122e+01	1.9090	35.191712	0.000760	7.599310	2.574716	-0.000304
 958	9.5222e+01	1.8641	34.917187	0.000689	6.890041	2.334409	-0.000276
 959	9.5321e+01	1.8272	34.638625	0.000699	6.991365	2.368739	-0.000280
 960	9.5421e+01	1.7791	34.307580	0.000831	8.308579	2.815023	-0.000333
 961	9.5520e+01	1.7486	33.980572	0.000821	8.207255	2.780693	-0.000329
 962	9.5620e+01	1.7085	33.681823	0.000750	7.497986	2.540386	-0.000300
 963	9.5719e+01	1.6652	33.403261	0.000699	6.991365	2.368739	-0.000280
 964	9.5819e+01	1.6299	33.096439	0.000770	7.700634	2.609045	-0.000308
 965	9.5918e+01	1.5850	32.862285	0.000588	5.876800	1.991114	-0.000235
 966	9.6017e+01	1.5417	32.543351	0.000800	8.004606	2.712034	-0.000321
 967	9.6117e+01	1.5064	32.244603	0.000750	7.497986	2.540386	-0.000300
 968	9.6216e+01	1.4582	31.970078	0.000689	6.890041	2.334409	-0.000276
 969	9.6316e+01	1.4181	31.651144	0.000800	8.004606	2.712034	-0.000321
 970	9.6415e+01	1.3877	31.388730	0.000659	6.586069	2.231420	-0.000264
 971	9.6515e+01	1.3379	31.061722	0.000821	8.207255	2.780693	-0.000329
 972	9.6615e+01	1.3042	30.742789	0.000800	8.004606	2.712034	-0.000321
 973	9.6714e+01	1.2738	30.484412	0.000648	6.484744	2.197091	-0.000260
 974	9.6814e+01	1.2272	30.177590	0.000770	7.700634	2.609045	-0.000308
 975	9.6913e+01	1.1791	29.870767	0.000770	7.700634	2.609045	-0.000308
 976	9.7013e+01	1.1518	29.596242	0.000689	6.890041	2.334409	-0.000276
 977	9.7112e+01	1.1021	29.212714	0.000963	9.625792	3.261307	-0.000385
 978	9.7212e+01	1.0604	28.913966	0.000750	7.497986	2.540386	-0.000300
 979	9.7311e+01	1.0347	28.619255	0.000740	7.396662	2.506057	-0.000296
 980	9.7410e+01	0.9946	28.328581	0.000730	7.295337	2.471727	-0.000292
 981	9.7510e+01	0.9433	28.037908	0.000730	7.295337	2.471727	-0.000292
 982	9.7609e+01	0.9112	27.706863	0.000831	8.308579	2.815023	-0.000333
 983	9.7709e+01	0.8695	27.460597	0.000618	6.180772	2.094102	-0.000248
 984	9.7808e+01	0.8358	27.173961	0.000719	7.194013	2.437398	-0.000288
 985	9.7908e+01	0.7861	26.871175	0.000760	7.599310	2.574716	-0.000304
 986	9.8007e+01	0.7492	26.580502	0.000730	7.295337	2.471727	-0.000292
 987	9.8107e+01	0.7075	26.225234	0.000892	8.916524	3.021000	-0.000357
 988	9.8207e+01	0.6658	25.983006	0.000608	6.079448	2.059773	-0.000243
 989	9.8306e+01	0.6257	25.692332	0.000730	7.295337	2.471727	-0.000292
 990	9.8406e+01	0.5888	25.349175	0.000861	8.612551	2.918011	-0.000345
 991	9.8505e+01	0.5551	25.062539	0.000719	7.194013	2.437398	-0.000288
 992	9.8605e+01	0.5069	24.783976	0.000699	6.991365	2.368739	-0.000280
 993	9.8704e+01	0.4668	24.477154	0.000770	7.700634	2.609045	-0.000308
 994	9.8803e+01	0.4347	24.190517	0.000719	7.194013	2.437398	-0.000288
 995	9.8903e+01	0.3946	23.831212	0.000902	9.017848	3.055329	-0.000361
 996	9.9002e+01	0.3465	23.536501	0.000740	7.396662	2.506057	-0.000296
 997	9.9102e+01	0.3080	23.221605	0.000790	7.903282	2.677704	-0.000316
 998	9.9201e+01	0.2711	22.890560	0.000831	8.308579	2.815023	-0.000333
 999	9.9301e+01	0.2246	22.595849	0.000740	7.396662	2.506057	-0.000296
1000	9.9400e+01	0.1829	22.309212	0.000719	7.194013	2.437398	-0.000288
1001	9.9500e+01	0.1492	21.990278	0.000800	8.004606	2.712034	-0.000321
1002	9.9600e+01	0.1139	21.691530	0.000750	7.497986	2.540386	-0.000300
1003	9.9699e+01	0.0706	21.457376	0.000588	5.876800	1.991114	-0.000235
1004	9.9799e+01	0.0305	21.126331	0.000831	8.308579	2.815023	-0.000333
1005	9.9898e+01	0.0048	20.859880	0.000669	6.687393	2.265750	-0.000268
1006	9.9998e+01	-0.0369	20.597467	0.000659	6.586069	2.231420	-0.000264
1007	1.0010e+02	-0.0834	20.266421	0.000831	8.308579	2.815023	-0.000333
1008	1.0020e+02	-0.1219	19.971710	0.000740	7.396662	2.506057	-0.000296
1009	1.0030e+02	-0.1524	19.656814	0.000790	7.903282	2.677704	-0.000316
1010	1.0040e+02	-0.2102	19.333843	0.000811	8.105930	2.746364	-0.000325
1011	1.0050e+02	-0.2342	19.014909	0.000800	8.004606	2.712034	-0.000321
1012	1.0059e+02	-0.2727	18.740384	0.000689	6.890041	2.334409	-0.000276
1013	1.0069e+02	-0.3160	18.433562	0.000770	7.700634	2.609045	-0.000308
1014	1.0079e+02	-0.3545	18.066182	0.000922	9.220496	3.123989	-0.000369
1015	1.0089e+02	-0.4043	17.747249	0.000800	8.004606	2.712034	-0.000321
1016	1.0099e+02	-0.4428	17.412166	0.000841	8.409903	2.849352	-0.000337
1017	1.0109e+02	-0.4765	17.145715	0.000669	6.687393	2.265750	-0.000268
1018	1.0119e+02	-0.5198	16.806596	0.000851	8.511227	2.883682	-0.000341
1019	1.0129e+02	-0.5567	16.544182	0.000659	6.586069	2.231420	-0.000264
1020	1.0139e+02	-0.5888	16.221211	0.000811	8.105930	2.746364	-0.000325
1021	1.0149e+02	-0.6353	15.938612	0.000709	7.092689	2.403068	-0.000284
1022	1.0159e+02	-0.6850	15.635827	0.000760	7.599310	2.574716	-0.000304
1023	1.0169e+02	-0.7219	15.369376	0.000669	6.687393	2.265750	-0.000268
1024	1.0179e+02	-0.7540	15.050442	0.000800	8.004606	2.712034	-0.000321
1025	1.0189e+02	-0.7957	14.759768	0.000730	7.295337	2.471727	-0.000292
1026	1.0199e+02	-0.8374	14.396426	0.000912	9.119172	3.089659	-0.000365
1027	1.0209e+02	-0.8823	14.105752	0.000730	7.295337	2.471727	-0.000292
1028	1.0219e+02	-0.9192	13.782781	0.000811	8.105930	2.746364	-0.000325
1029	1.0229e+02	-0.9529	13.496145	0.000719	7.194013	2.437398	-0.000288
1030	1.0239e+02	-0.9866	13.205471	0.000730	7.295337	2.471727	-0.000292
1031	1.0248e+02	-1.0476	12.874426	0.000831	8.308579	2.815023	-0.000333
1032	1.0258e+02	-1.0780	12.547418	0.000821	8.207255	2.780693	-0.000329
1033	1.0268e+02	-1.1182	12.196187	0.000882	8.815199	2.986670	-0.000353
1034	1.0278e+02	-1.1550	11.861105	0.000841	8.409903	2.849352	-0.000337
1035	1.0288e+02	-1.2048	11.626951	0.000588	5.876800	1.991114	-0.000235
1036	1.0298e+02	-1.2369	11.279757	0.000871	8.713875	2.952341	-0.000349
1037	1.0308e+02	-1.2770	10.960824	0.000800	8.004606	2.712034	-0.000321
1038	1.0318e+02	-1.3203	10.710521	0.000628	6.282096	2.128432	-0.000252
1039	1.0328e+02	-1.3572	10.399662	0.000780	7.801958	2.643375	-0.000312
1040	1.0338e+02	-1.3989	10.076691	0.000811	8.105930	2.746364	-0.000325
1041	1.0348e+02	-1.4390	9.790054	0.000719	7.194013	2.437398	-0.000288
1042	1.0358e+02	-1.4743	9.475158	0.000790	7.903282	2.677704	-0.000316
1043	1.0368e+02	-1.5192	9.196595	0.000699	6.991365	2.368739	-0.000280
1044	1.0378e+02	-1.5545	8.857476	0.000851	8.511227	2.883682	-0.000341
1045	1.0388e+02	-1.6026	8.578913	0.000699	6.991365	2.368739	-0.000280
1046	1.0398e+02	-1.6363	8.251905	0.000821	8.207255	2.780693	-0.000329
1047	1.0408e+02	-1.6812	7.953157	0.000750	7.497986	2.540386	-0.000300
1048	1.0418e+02	-1.7021	7.662484	0.000730	7.295337	2.471727	-0.000292
1049	1.0428e+02	-1.7486	7.363736	0.000750	7.497986	2.540386	-0.000300
1050	1.0438e+02	-1.7967	7.020579	0.000861	8.612551	2.918011	-0.000345
1051	1.0447e+02	-1.8401	6.685497	0.000841	8.409903	2.849352	-0.000337
1052	1.0457e+02	-1.8673	6.402897	0.000709	7.092689	2.403068	-0.000284
1053	1.0467e+02	-1.9155	6.088001	0.000790	7.903282	2.677704	-0.000316
1054	1.0477e+02	-1.9427	5.797327	0.000730	7.295337	2.471727	-0.000292
1055	1.0487e+02	-1.9828	5.518765	0.000699	6.991365	2.368739	-0.000280
1056	1.0497e+02	-2.0261	5.207905	0.000780	7.801958	2.643375	-0.000312
1057	1.0507e+02	-2.0727	4.941454	0.000669	6.687393	2.265750	-0.000268
1058	1.0517e+02	-2.1096	4.654818	0.000719	7.194013	2.437398	-0.000288
1059	1.0527e+02	-2.1529	4.331847	0.000811	8.105930	2.746364	-0.000325
1060	1.0537e+02	-2.1946	3.988690	0.000861	8.612551	2.918011	-0.000345
1061	1.0547e+02	-2.2363	3.710128	0.000699	6.991365	2.368739	-0.000280
1062	1.0557e+02	-2.2764	3.439640	0.000679	6.788717	2.300080	-0.000272
1063	1.0567e+02	-2.3133	3.084372	0.000892	8.916524	3.021000	-0.000357
1064	1.0577e+02	-2.3614	2.825995	0.000648	6.484744	2.197091	-0.000260
1065	1.0587e+02	-2.3887	2.498987	0.000821	8.207255	2.780693	-0.000329
1066	1.0597e+02	-2.4352	2.216388	0.000709	7.092689	2.403068	-0.000284
1067	1.0607e+02	-2.4689	1.913602	0.000760	7.599310	2.574716	-0.000304
1068	1.0617e+02	-2.5170	1.562372	0.000882	8.815199	2.986670	-0.000353
1069	1.0627e+02	-2.5507	1.259586	0.000760	7.599310	2.574716	-0.000304
1070	1.0637e+02	-2.5892	0.944690	0.000790	7.903282	2.677704	-0.000316
1071	1.0647e+02	-2.6293	0.629793	0.000790	7.903282	2.677704	-0.000316
1072	1.0656e+02	-2.6630	0.355268	0.000689	6.890041	2.334409	-0.000276
1073	1.0666e+02	-2.7047	0.032297	0.000811	8.105930	2.746364	-0.000325
1074	1.0676e+02	-2.7545	-0.209931	0.000608	6.079448	2.059773	-0.000243
1075	1.0686e+02	-2.7914	-0.540976	0.000831	8.308579	2.815023	-0.000333
1076	1.0696e+02	-2.8315	-0.827613	0.000719	7.194013	2.437398	-0.000288
1077	1.0706e+02	-2.8732	-1.126361	0.000750	7.497986	2.540386	-0.000300
1078	1.0716e+02	-2.9053	-1.417035	0.000730	7.295337	2.471727	-0.000292
1079	1.0726e+02	-2.9534	-1.731931	0.000790	7.903282	2.677704	-0.000316
1080	1.0736e+02	-2.9983	-2.002419	0.000679	6.788717	2.300080	-0.000272
1081	1.0746e+02	-3.0320	-2.329427	0.000821	8.207255	2.780693	-0.000329
1082	1.0756e+02	-3.0673	-2.607990	0.000699	6.991365	2.368739	-0.000280
1083	1.0766e+02	-3.1154	-2.955183	0.000871	8.713875	2.952341	-0.000349
1084	1.0776e+02	-3.1459	-3.221634	0.000669	6.687393	2.265750	-0.000268
1085	1.0786e+02	-3.1956	-3.536531	0.000790	7.903282	2.677704	-0.000316
1086	1.0796e+02	-3.2277	-3.855465	0.000800	8.004606	2.712034	-0.000321
1087	1.0806e+02	-3.2662	-4.125953	0.000679	6.788717	2.300080	-0.000272
1088	1.0816e+02	-3.3127	-4.444886	0.000800	8.004606	2.712034	-0.000321
1089	1.0826e+02	-3.3480	-4.784006	0.000851	8.511227	2.883682	-0.000341
1090	1.0836e+02	-3.3946	-5.018160	0.000588	5.876800	1.991114	-0.000235
1091	1.0845e+02	-3.4250	-5.353242	0.000841	8.409903	2.849352	-0.000337
1092	1.0855e+02	-3.4667	-5.611619	0.000648	6.484744	2.197091	-0.000260
1093	1.0865e+02	-3.5069	-5.869995	0.000648	6.484744	2.197091	-0.000260
1094	1.0875e+02	-3.5421	-6.180855	0.000780	7.801958	2.643375	-0.000312
1095	1.0885e+02	-3.5903	-6.471529	0.000730	7.295337	2.471727	-0.000292
1096	1.0895e+02	-3.6336	-6.770277	0.000750	7.497986	2.540386	-0.000300
1097	1.0905e+02	-3.6753	-7.101322	0.000831	8.308579	2.815023	-0.000333
1098	1.0915e+02	-3.6994	-7.339513	0.000598	5.978124	2.025443	-0.000239
1099	1.0925e+02	-3.7523	-7.650372	0.000780	7.801958	2.643375	-0.000312
1100	1.0935e+02	-3.7796	-7.945083	0.000740	7.396662	2.506057	-0.000296
1101	1.0945e+02	-3.8245	-8.231720	0.000719	7.194013	2.437398	-0.000288
1102	1.0955e+02	-3.8598	-8.538542	0.000770	7.700634	2.609045	-0.000308
1103	1.0965e+02	-3.9127	-8.873624	0.000841	8.409903	2.849352	-0.000337
1104	1.0975e+02	-3.9496	-9.152187	0.000699	6.991365	2.368739	-0.000280
1105	1.0985e+02	-3.9897	-9.467083	0.000790	7.903282	2.677704	-0.000316
1106	1.0995e+02	-4.0282	-9.769868	0.000760	7.599310	2.574716	-0.000304
1107	1.1005e+02	-4.0699	-10.036319	0.000669	6.687393	2.265750	-0.000268
1108	1.1015e+02	-4.1084	-10.363327	0.000821	8.207255	2.780693	-0.000329
1109	1.1025e+02	-4.1453	-10.629778	0.000669	6.687393	2.265750	-0.000268
1110	1.1035e+02	-4.1919	-10.944675	0.000790	7.903282	2.677704	-0.000316
1111	1.1044e+02	-4.2239	-11.174792	0.000578	5.775475	1.956784	-0.000231
1112	1.1054e+02	-4.2624	-11.469503	0.000740	7.396662	2.506057	-0.000296
1113	1.1064e+02	-4.3009	-11.784399	0.000790	7.903282	2.677704	-0.000316
1114	1.1074e+02	-4.3507	-12.042776	0.000648	6.484744	2.197091	-0.000260
1115	1.1084e+02	-4.3940	-12.345561	0.000760	7.599310	2.574716	-0.000304
1116	1.1094e+02	-4.4293	-12.607975	0.000659	6.586069	2.231420	-0.000264
1117	1.1104e+02	-4.4694	-12.939020	0.000831	8.308579	2.815023	-0.000333
1118	1.1114e+02	-4.4983	-13.225657	0.000719	7.194013	2.437398	-0.000288
1119	1.1124e+02	-4.5464	-13.532479	0.000770	7.700634	2.609045	-0.000308
1120	1.1134e+02	-4.5801	-13.811041	0.000699	6.991365	2.368739	-0.000280
1121	1.1144e+02	-4.6154	-14.121901	0.000780	7.801958	2.643375	-0.000312
1122	1.1154e+02	-4.6619	-14.448909	0.000821	8.207255	2.780693	-0.000329
1123	1.1164e+02	-4.6972	-14.691137	0.000608	6.079448	2.059773	-0.000243
1124	1.1174e+02	-4.7437	-15.050442	0.000902	9.017848	3.055329	-0.000361
1125	1.1184e+02	-4.7902	-15.300744	0.000628	6.282096	2.128432	-0.000252
1126	1.1194e+02	-4.8303	-15.559121	0.000648	6.484744	2.197091	-0.000260
1127	1.1204e+02	-4.8608	-15.853832	0.000740	7.396662	2.506057	-0.000296
1128	1.1214e+02	-4.9041	-16.128357	0.000689	6.890041	2.334409	-0.000276
1129	1.1224e+02	-4.9458	-16.394808	0.000669	6.687393	2.265750	-0.000268
1130	1.1234e+02	-4.9795	-16.709705	0.000790	7.903282	2.677704	-0.000316
1131	1.1244e+02	-5.0229	-16.972119	0.000659	6.586069	2.231420	-0.000264
1132	1.1253e+02	-5.0678	-17.254718	0.000709	7.092689	2.403068	-0.000284
1133	1.1263e+02	-5.0983	-17.581726	0.000821	8.207255	2.780693	-0.000329
1134	1.1273e+02	-5.1448	-17.852214	0.000679	6.788717	2.300080	-0.000272
1135	1.1283e+02	-5.1769	-18.142888	0.000730	7.295337	2.471727	-0.000292
1136	1.1293e+02	-5.2282	-18.441636	0.000750	7.497986	2.540386	-0.000300
1137	1.1303e+02	-5.2523	-18.724236	0.000709	7.092689	2.403068	-0.000284
1138	1.1313e+02	-5.2924	-19.031058	0.000770	7.700634	2.609045	-0.000308
1139	1.1323e+02	-5.3469	-19.321732	0.000730	7.295337	2.471727	-0.000292
1140	1.1333e+02	-5.3838	-19.628554	0.000770	7.700634	2.609045	-0.000308
1141	1.1343e+02	-5.4191	-19.931339	0.000760	7.599310	2.574716	-0.000304
1142	1.1353e+02	-5.4688	-20.197790	0.000669	6.687393	2.265750	-0.000268
1143	1.1363e+02	-5.5057	-20.524798	0.000821	8.207255	2.780693	-0.000329
1144	1.1373e+02	-5.5378	-20.738766	0.000537	5.370179	1.819466	-0.000215
1145	1.1383e+02	-5.5811	-21.021366	0.000709	7.092689	2.403068	-0.000284
1146	1.1393e+02	-5.6244	-21.316077	0.000740	7.396662	2.506057	-0.000296
1147	1.1403e+02	-5.6678	-21.610788	0.000740	7.396662	2.506057	-0.000296
1148	1.1413e+02	-5.6934	-21.869164	0.000648	6.484744	2.197091	-0.000260
1149	1.1423e+02	-5.7528	-22.143690	0.000689	6.890041	2.334409	-0.000276
1150	1.1433e+02	-5.7817	-22.422252	0.000699	6.991365	2.368739	-0.000280
1151	1.1442e+02	-5.8186	-22.712926	0.000730	7.295337	2.471727	-0.000292
1152	1.1452e+02	-5.8571	-22.963228	0.000628	6.282096	2.128432	-0.000252
1153	1.1462e+02	-5.9052	-23.282162	0.000800	8.004606	2.712034	-0.000321
1154	1.1472e+02	-5.9373	-23.544576	0.000659	6.586069	2.231420	-0.000264
1155	1.1482e+02	-5.9726	-23.883695	0.000851	8.511227	2.883682	-0.000341
1156	1.1492e+02	-6.0255	-24.142072	0.000648	6.484744	2.197091	-0.000260
1157	1.1502e+02	-6.0640	-24.456968	0.000790	7.903282	2.677704	-0.000316
1158	1.1512e+02	-6.0977	-24.727456	0.000679	6.788717	2.300080	-0.000272
1159	1.1522e+02	-6.1426	-25.014093	0.000719	7.194013	2.437398	-0.000288
1160	1.1532e+02	-6.1827	-25.312841	0.000750	7.497986	2.540386	-0.000300
1161	1.1542e+02	-6.2164	-25.551032	0.000598	5.978124	2.025443	-0.000239
1162	1.1552e+02	-6.2597	-25.865929	0.000790	7.903282	2.677704	-0.000316
1163	1.1562e+02	-6.2982	-26.075860	0.000527	5.268855	1.785136	-0.000211
1164	1.1572e+02	-6.3383	-26.342311	0.000669	6.687393	2.265750	-0.000268
1165	1.1582e+02	-6.3800	-26.628947	0.000719	7.194013	2.437398	-0.000288
1166	1.1592e+02	-6.4217	-26.883287	0.000638	6.383420	2.162761	-0.000256
1167	1.1602e+02	-6.4522	-27.157812	0.000689	6.890041	2.334409	-0.000276
1168	1.1612e+02	-6.5004	-27.420226	0.000659	6.586069	2.231420	-0.000264
1169	1.1622e+02	-6.5308	-27.666491	0.000618	6.180772	2.094102	-0.000248
1170	1.1632e+02	-6.5693	-27.985425	0.000800	8.004606	2.712034	-0.000321
1171	1.1642e+02	-6.6078	-28.255913	0.000679	6.788717	2.300080	-0.000272
1172	1.1651e+02	-6.6560	-28.546587	0.000730	7.295337	2.471727	-0.000292
1173	1.1661e+02	-6.6864	-28.885706	0.000851	8.511227	2.883682	-0.000341
1174	1.1671e+02	-6.7346	-29.131971	0.000618	6.180772	2.094102	-0.000248
1175	1.1681e+02	-6.7827	-29.386311	0.000638	6.383420	2.162761	-0.000256
1176	1.1691e+02	-6.8068	-29.685059	0.000750	7.497986	2.540386	-0.000300
1177	1.1701e+02	-6.8533	-29.987844	0.000760	7.599310	2.574716	-0.000304
1178	1.1711e+02	-6.8918	-30.262369	0.000689	6.890041	2.334409	-0.000276
1179	1.1721e+02	-6.9335	-30.528820	0.000669	6.687393	2.265750	-0.000268
1180	1.1731e+02	-6.9688	-30.815457	0.000719	7.194013	2.437398	-0.000288
1181	1.1741e+02	-7.0105	-31.025388	0.000527	5.268855	1.785136	-0.000211
1182	1.1751e+02	-7.0426	-31.340285	0.000790	7.903282	2.677704	-0.000316
1183	1.1761e+02	-7.0955	-31.598661	0.000648	6.484744	2.197091	-0.000260
1184	1.1771e+02	-7.1324	-31.820704	0.000557	5.572827	1.888125	-0.000223
1185	1.1781e+02	-7.1645	-32.107341	0.000719	7.194013	2.437398	-0.000288
1186	1.1791e+02	-7.2174	-32.393977	0.000719	7.194013	2.437398	-0.000288
1187	1.1801e+02	-7.2479	-32.628131	0.000588	5.876800	1.991114	-0.000235
1188	1.1811e+02	-7.2944	-32.938990	0.000780	7.801958	2.643375	-0.000312
1189	1.1821e+02	-7.3297	-33.257924	0.000800	8.004606	2.712034	-0.000321
1190	1.1831e+02	-7.3666	-33.512264	0.000638	6.383420	2.162761	-0.000256
1191	1.1841e+02	-7.4100	-33.843309	0.000831	8.308579	2.815023	-0.000333
1192	1.1850e+02	-7.4517	-34.008831	0.000415	4.154289	1.407511	-0.000166
1193	1.1860e+02	-7.4950	-34.351988	0.000861	8.612551	2.918011	-0.000345
1194	1.1870e+02	-7.5319	-34.610365	0.000648	6.484744	2.197091	-0.000260
1195	1.1880e+02	-7.5624	-34.868741	0.000648	6.484744	2.197091	-0.000260
1196	1.1890e+02	-7.6137	-35.155378	0.000719	7.194013	2.437398	-0.000288
1197	1.1900e+02	-7.6458	-35.454126	0.000750	7.497986	2.540386	-0.000300
1198	1.1910e+02	-7.6923	-35.716540	0.000659	6.586069	2.231420	-0.000264
1199	1.1920e+02	-7.7340	-35.926471	0.000527	5.268855	1.785136	-0.000211
1200	1.1930e+02	-7.7693	-36.192922	0.000669	6.687393	2.265750	-0.000268
1201	1.1940e+02	-7.8142	-36.447261	0.000638	6.383420	2.162761	-0.000256
1202	1.1950e+02	-7.8543	-36.725824	0.000699	6.991365	2.368739	-0.000280
1203	1.1960e+02	-7.8896	-37.004386	0.000699	6.991365	2.368739	-0.000280
1204	1.1970e+02	-7.9345	-37.250651	0.000618	6.180772	2.094102	-0.000248
1205	1.1980e+02	-7.9778	-37.517102	0.000669	6.687393	2.265750	-0.000268
1206	1.1990e+02	-8.0083	-37.803739	0.000719	7.194013	2.437398	-0.000288
1207	1.2000e+02	-8.0516	-38.050004	0.000618	6.180772	2.094102	-0.000248
1208	1.2010e+02	-8.0934	-38.352790	0.000760	7.599310	2.574716	-0.000304
1209	1.2020e+02	-8.1254	-38.643463	0.000730	7.295337	2.471727	-0.000292
1210	1.2030e+02	-8.1607	-38.885691	0.000608	6.079448	2.059773	-0.000243
1211	1.2039e+02	-8.2105	-39.176365	0.000730	7.295337	2.471727	-0.000292
1212	1.2049e+02	-8.2458	-39.414556	0.000598	5.978124	2.025443	-0.000239
1213	1.2059e+02	-8.2891	-39.693119	0.000699	6.991365	2.368739	-0.000280
1214	1.2069e+02	-8.3228	-39.911124	0.000547	5.471503	1.853795	-0.000219
1215	1.2079e+02	-8.3661	-40.189686	0.000699	6.991365	2.368739	-0.000280
1216	1.2089e+02	-8.4110	-40.448063	0.000648	6.484744	2.197091	-0.000260
1217	1.2099e+02	-8.4447	-40.690291	0.000608	6.079448	2.059773	-0.000243
1218	1.2109e+02	-8.4800	-40.964816	0.000689	6.890041	2.334409	-0.000276
1219	1.2119e+02	-8.5313	-41.211082	0.000618	6.180772	2.094102	-0.000248
1220	1.2129e+02	-8.5666	-41.493681	0.000709	7.092689	2.403068	-0.000284
1221	1.2139e+02	-8.6099	-41.719761	0.000567	5.674151	1.922455	-0.000227
1222	1.2149e+02	-8.6436	-42.006397	0.000719	7.194013	2.437398	-0.000288
1223	1.2159e+02	-8.6821	-42.232477	0.000567	5.674151	1.922455	-0.000227
1224	1.2169e+02	-8.7174	-42.531225	0.000750	7.497986	2.540386	-0.000300
1225	1.2179e+02	-8.7671	-42.793639	0.000659	6.586069	2.231420	-0.000264
1226	1.2189e+02	-8.8104	-43.072201	0.000699	6.991365	2.368739	-0.000280
1227	1.2199e+02	-8.8506	-43.330578	0.000648	6.484744	2.197091	-0.000260
1228	1.2209e+02	-8.8810	-43.601066	0.000679	6.788717	2.300080	-0.000272
1229	1.2219e+02	-8.9211	-43.851368	0.000628	6.282096	2.128432	-0.000252
1230	1.2229e+02	-8.9596	-44.113782	0.000659	6.586069	2.231420	-0.000264
1231	1.2239e+02	-8.9949	-44.388307	0.000689	6.890041	2.334409	-0.000276
1232	1.2248e+02	-9.0479	-44.606313	0.000547	5.471503	1.853795	-0.000219
1233	1.2258e+02	-9.0928	-44.876801	0.000679	6.788717	2.300080	-0.000272
1234	1.2268e+02	-9.1217	-45.135178	0.000648	6.484744	2.197091	-0.000260
1235	1.2278e+02	-9.1634	-45.409703	0.000689	6.890041	2.334409	-0.000276
1236	1.2288e+02	-9.2099	-45.567151	0.000395	3.951641	1.338852	-0.000158
1237	1.2298e+02	-9.2484	-45.878011	0.000780	7.801958	2.643375	-0.000312
1238	1.2308e+02	-9.2853	-46.120239	0.000608	6.079448	2.059773	-0.000243
1239	1.2318e+02	-9.3238	-46.378615	0.000648	6.484744	2.197091	-0.000260
1240	1.2328e+02	-9.3591	-46.649103	0.000679	6.788717	2.300080	-0.000272
1241	1.2338e+02	-9.3976	-46.923629	0.000689	6.890041	2.334409	-0.000276
1242	1.2348e+02	-9.4553	-47.194117	0.000679	6.788717	2.300080	-0.000272
1243	1.2358e+02	-9.4874	-47.472679	0.000699	6.991365	2.368739	-0.000280
1244	1.2368e+02	-9.5163	-47.751242	0.000699	6.991365	2.368739	-0.000280
1245	1.2378e+02	-9.5676	-47.985395	0.000588	5.876800	1.991114	-0.000235
1246	1.2388e+02	-9.6126	-48.284143	0.000750	7.497986	2.540386	-0.000300
1247	1.2398e+02	-9.6446	-48.530409	0.000618	6.180772	2.094102	-0.000248
1248	1.2408e+02	-9.6783	-48.780711	0.000628	6.282096	2.128432	-0.000252
1249	1.2418e+02	-9.7233	-49.006791	0.000567	5.674151	1.922455	-0.000227
1250	1.2428e+02	-9.7537	-49.273242	0.000669	6.687393	2.265750	-0.000268
1251	1.2438e+02	-9.8051	-49.576027	0.000760	7.599310	2.574716	-0.000304
1252	1.2447e+02	-9.8452	-49.773847	0.000496	4.964882	1.682148	-0.000199
1253	1.2457e+02	-9.8805	-50.032223	0.000648	6.484744	2.197091	-0.000260
1254	1.2467e+02	-9.9190	-50.254266	0.000557	5.572827	1.888125	-0.000223
1255	1.2477e+02	-9.9623	-50.476308	0.000557	5.572827	1.888125	-0.000223
1256	1.2487e+02	-9.9976	-50.754870	0.000699	6.991365	2.368739	-0.000280
1257	1.2497e+02	-10.0425	-51.021321	0.000669	6.687393	2.265750	-0.000268
1258	1.2507e+02	-10.0778	-51.283735	0.000659	6.586069	2.231420	-0.000264
1259	1.2517e+02	-10.1243	-51.534038	0.000628	6.282096	2.128432	-0.000252
1260	1.2527e+02	-10.1612	-51.808563	0.000689	6.890041	2.334409	-0.000276
1261	1.2537e+02	-10.2013	-52.075014	0.000669	6.687393	2.265750	-0.000268
1262	1.2547e+02	-10.2398	-52.341465	0.000669	6.687393	2.265750	-0.000268
1263	1.2557e+02	-10.2783	-52.603879	0.000659	6.586069	2.231420	-0.000264
1264	1.2567e+02	-10.3152	-52.846107	0.000608	6.079448	2.059773	-0.000243
1265	1.2577e+02	-10.3601	-53.039889	0.000486	4.863558	1.647818	-0.000195
1266	1.2587e+02	-10.4034	-53.379009	0.000851	8.511227	2.883682	-0.000341
1267	1.2597e+02	-10.4339	-53.556643	0.000446	4.458262	1.510500	-0.000179
1268	1.2607e+02	-10.4788	-53.839242	0.000709	7.092689	2.403068	-0.000284
1269	1.2617e+02	-10.5222	-54.077433	0.000598	5.978124	2.025443	-0.000239
1270	1.2627e+02	-10.5591	-54.339847	0.000659	6.586069	2.231420	-0.000264
1271	1.2636e+02	-10.5976	-54.606298	0.000669	6.687393	2.265750	-0.000268
1272	1.2646e+02	-10.6345	-54.816229	0.000527	5.268855	1.785136	-0.000211
1273	1.2656e+02	-10.6874	-55.086717	0.000679	6.788717	2.300080	-0.000272
1274	1.2666e+02	-10.7131	-55.288574	0.000507	5.066207	1.716477	-0.000203
1275	1.2676e+02	-10.7612	-55.587322	0.000750	7.497986	2.540386	-0.000300
1276	1.2686e+02	-10.7917	-55.801290	0.000537	5.370179	1.819466	-0.000215
1277	1.2696e+02	-10.8302	-56.083890	0.000709	7.092689	2.403068	-0.000284
1278	1.2706e+02	-10.8783	-56.362452	0.000699	6.991365	2.368739	-0.000280
1279	1.2716e+02	-10.9120	-56.596606	0.000588	5.876800	1.991114	-0.000235
1280	1.2726e+02	-10.9553	-56.879205	0.000709	7.092689	2.403068	-0.000284
1281	1.2736e+02	-10.9986	-57.113359	0.000588	5.876800	1.991114	-0.000235
1282	1.2746e+02	-11.0355	-57.383847	0.000679	6.788717	2.300080	-0.000272
1283	1.2756e+02	-11.0836	-57.618001	0.000588	5.876800	1.991114	-0.000235
1284	1.2766e+02	-11.1173	-57.900601	0.000709	7.092689	2.403068	-0.000284
1285	1.2776e+02	-11.1639	-58.134755	0.000588	5.876800	1.991114	-0.000235
1286	1.2786e+02	-11.1911	-58.389094	0.000638	6.383420	2.162761	-0.000256
1287	1.2796e+02	-11.2377	-58.651508	0.000659	6.586069	2.231420	-0.000264
1288	1.2806e+02	-11.2794	-58.877588	0.000567	5.674151	1.922455	-0.000227
1289	1.2816e+02	-11.3130	-59.095593	0.000547	5.471503	1.853795	-0.000219
1290	1.2826e+02	-11.3532	-59.337821	0.000608	6.079448	2.059773	-0.000243
1291	1.2835e+02	-11.3981	-59.616383	0.000699	6.991365	2.368739	-0.000280
1292	1.2845e+02	-11.4414	-59.834389	0.000547	5.471503	1.853795	-0.000219
1293	1.2855e+02	-11.4735	-60.125063	0.000730	7.295337	2.471727	-0.000292
1294	1.2865e+02	-11.5152	-60.355179	0.000578	5.775475	1.956784	-0.000231
1295	1.2875e+02	-11.5521	-60.629705	0.000689	6.890041	2.334409	-0.000276
1296	1.2885e+02	-11.5826	-60.928453	0.000750	7.497986	2.540386	-0.000300
1297	1.2895e+02	-11.6259	-61.142421	0.000537	5.370179	1.819466	-0.000215
1298	1.2905e+02	-11.6740	-61.416946	0.000689	6.890041	2.334409	-0.000276
1299	1.2915e+02	-11.7205	-61.663211	0.000618	6.180772	2.094102	-0.000248
1300	1.2925e+02	-11.7558	-61.925625	0.000659	6.586069	2.231420	-0.000264
1301	1.2935e+02	-11.7911	-62.179965	0.000638	6.383420	2.162761	-0.000256
1302	1.2945e+02	-11.8328	-62.418156	0.000598	5.978124	2.025443	-0.000239
1303	1.2955e+02	-11.8745	-62.672495	0.000638	6.383420	2.162761	-0.000256
1304	1.2965e+02	-11.9130	-62.878389	0.000517	5.167531	1.750807	-0.000207
1305	1.2975e+02	-11.9531	-63.136766	0.000648	6.484744	2.197091	-0.000260
1306	1.2985e+02	-12.0045	-63.366883	0.000578	5.775475	1.956784	-0.000231
1307	1.2995e+02	-12.0366	-63.605074	0.000598	5.978124	2.025443	-0.000239
1308	1.3005e+02	-12.0686	-63.871525	0.000669	6.687393	2.265750	-0.000268
1309	1.3015e+02	-12.1168	-64.077418	0.000517	5.167531	1.750807	-0.000207
1310	1.3025e+02	-12.1569	-64.376166	0.000750	7.497986	2.540386	-0.000300
1311	1.3034e+02	-12.1922	-64.622432	0.000618	6.180772	2.094102	-0.000248
1312	1.3044e+02	-12.2275	-64.880808	0.000648	6.484744	2.197091	-0.000260
1313	1.3054e+02	-12.2676	-65.163408	0.000709	7.092689	2.403068	-0.000284
1314	1.3064e+02	-12.3125	-65.369302	0.000517	5.167531	1.750807	-0.000207
1315	1.3074e+02	-12.3494	-65.627679	0.000648	6.484744	2.197091	-0.000260
1316	1.3084e+02	-12.3895	-65.873944	0.000618	6.180772	2.094102	-0.000248
1317	1.3094e+02	-12.4392	-66.128283	0.000638	6.383420	2.162761	-0.000256
1318	1.3104e+02	-12.4745	-66.390697	0.000659	6.586069	2.231420	-0.000264
1319	1.3114e+02	-12.5034	-66.641000	0.000628	6.282096	2.128432	-0.000252
1320	1.3124e+02	-12.5515	-66.891302	0.000628	6.282096	2.128432	-0.000252
1321	1.3134e+02	-12.5868	-67.149679	0.000648	6.484744	2.197091	-0.000260
1322	1.3144e+02	-12.6317	-67.367684	0.000547	5.471503	1.853795	-0.000219
1323	1.3154e+02	-12.6686	-67.617986	0.000628	6.282096	2.128432	-0.000252
1324	1.3164e+02	-12.7087	-67.864252	0.000618	6.180772	2.094102	-0.000248
1325	1.3174e+02	-12.7504	-68.070146	0.000517	5.167531	1.750807	-0.000207
1326	1.3184e+02	-12.7970	-68.312374	0.000608	6.079448	2.059773	-0.000243
1327	1.3194e+02	-12.8290	-68.518268	0.000517	5.167531	1.750807	-0.000207
1328	1.3204e+02	-12.8772	-68.817016	0.000750	7.497986	2.540386	-0.000300
1329	1.3214e+02	-12.9028	-69.047133	0.000578	5.775475	1.956784	-0.000231
1330	1.3224e+02	-12.9478	-69.309546	0.000659	6.586069	2.231420	-0.000264
1331	1.3234e+02	-12.9815	-69.563886	0.000638	6.383420	2.162761	-0.000256
1332	1.3243e+02	-13.0216	-69.802077	0.000598	5.978124	2.025443	-0.000239
1333	1.3253e+02	-13.0649	-70.056416	0.000638	6.383420	2.162761	-0.000256
1334	1.3263e+02	-13.1002	-70.270385	0.000537	5.370179	1.819466	-0.000215
1335	1.3273e+02	-13.1467	-70.548947	0.000699	6.991365	2.368739	-0.000280
1336	1.3283e+02	-13.1916	-70.795212	0.000618	6.180772	2.094102	-0.000248
1337	1.3293e+02	-13.2285	-71.001106	0.000517	5.167531	1.750807	-0.000207
1338	1.3303e+02	-13.2622	-71.303891	0.000760	7.599310	2.574716	-0.000304
1339	1.3313e+02	-13.3087	-71.550157	0.000618	6.180772	2.094102	-0.000248
1340	1.3323e+02	-13.3520	-71.747976	0.000496	4.964882	1.682148	-0.000199
1341	1.3333e+02	-13.4002	-71.990204	0.000608	6.079448	2.059773	-0.000243
1342	1.3343e+02	-13.4338	-72.196098	0.000517	5.167531	1.750807	-0.000207
1343	1.3353e+02	-13.4707	-72.438327	0.000608	6.079448	2.059773	-0.000243
1344	1.3363e+02	-13.5141	-72.720926	0.000709	7.092689	2.403068	-0.000284
1345	1.3373e+02	-13.5445	-72.914709	0.000486	4.863558	1.647818	-0.000195
1346	1.3383e+02	-13.5927	-73.193271	0.000699	6.991365	2.368739	-0.000280
1347	1.3393e+02	-13.6312	-73.439536	0.000618	6.180772	2.094102	-0.000248
1348	1.3403e+02	-13.6616	-73.730210	0.000730	7.295337	2.471727	-0.000292
1349	1.3413e+02	-13.7050	-73.928030	0.000496	4.964882	1.682148	-0.000199
1350	1.3423e+02	-13.7386	-74.182369	0.000638	6.383420	2.162761	-0.000256
1351	1.3432e+02	-13.7884	-74.428634	0.000618	6.180772	2.094102	-0.000248
1352	1.3442e+02	-13.8269	-74.715271	0.000719	7.194013	2.437398	-0.000288
1353	1.3452e+02	-13.8654	-74.905016	0.000476	4.762234	1.613489	-0.000191
1354	1.3462e+02	-13.8943	-75.163393	0.000648	6.484744	2.197091	-0.000260
1355	1.3472e+02	-13.9440	-75.429844	0.000669	6.687393	2.265750	-0.000268
1356	1.3482e+02	-13.9809	-75.708406	0.000699	6.991365	2.368739	-0.000280
1357	1.3492e+02	-14.0274	-75.894115	0.000466	4.660910	1.579159	-0.000187
1358	1.3502e+02	-14.0675	-76.172677	0.000699	6.991365	2.368739	-0.000280
1359	1.3512e+02	-14.1044	-76.427017	0.000638	6.383420	2.162761	-0.000256
1360	1.3522e+02	-14.1429	-76.701542	0.000689	6.890041	2.334409	-0.000276
1361	1.3532e+02	-14.1910	-76.919547	0.000547	5.471503	1.853795	-0.000219
1362	1.3542e+02	-14.2231	-77.117367	0.000496	4.964882	1.682148	-0.000199
1363	1.3552e+02	-14.2680	-77.440338	0.000811	8.105930	2.746364	-0.000325
1364	1.3562e+02	-14.3001	-77.690640	0.000628	6.282096	2.128432	-0.000252
1365	1.3572e+02	-14.3338	-77.904608	0.000537	5.370179	1.819466	-0.000215
1366	1.3582e+02	-14.3739	-78.219505	0.000790	7.903282	2.677704	-0.000316
1367	1.3592e+02	-14.4204	-78.494030	0.000689	6.890041	2.334409	-0.000276
1368	1.3602e+02	-14.4622	-78.695887	0.000507	5.066207	1.716477	-0.000203
1369	1.3612e+02	-14.4991	-78.978486	0.000709	7.092689	2.403068	-0.000284
1370	1.3622e+02	-14.5456	-79.265123	0.000719	7.194013	2.437398	-0.000288
1371	1.3631e+02	-14.5825	-79.535611	0.000679	6.788717	2.300080	-0.000272
1372	1.3641e+02	-14.6242	-79.777839	0.000608	6.079448	2.059773	-0.000243
1373	1.3651e+02	-14.6643	-80.076587	0.000750	7.497986	2.540386	-0.000300
1374	1.3661e+02	-14.7012	-80.339001	0.000659	6.586069	2.231420	-0.000264
1375	1.3671e+02	-14.7397	-80.613526	0.000689	6.890041	2.334409	-0.000276
1376	1.3681e+02	-14.7814	-80.888052	0.000689	6.890041	2.334409	-0.000276
1377	1.3691e+02	-14.8215	-81.134317	0.000618	6.180772	2.094102	-0.000248
1378	1.3701e+02	-14.8616	-81.429028	0.000740	7.396662	2.506057	-0.000296
1379	1.3711e+02	-14.9017	-81.663182	0.000588	5.876800	1.991114	-0.000235
1380	1.3721e+02	-14.9450	-81.974041	0.000780	7.801958	2.643375	-0.000312
1381	1.3731e+02	-14.9707	-82.224344	0.000628	6.282096	2.128432	-0.000252
1382	1.3741e+02	-15.0172	-82.551352	0.000821	8.207255	2.780693	-0.000329
1383	1.3751e+02	-15.0589	-82.846062	0.000740	7.396662	2.506057	-0.000296
1384	1.3761e+02	-15.1006	-83.156922	0.000780	7.801958	2.643375	-0.000312
1385	1.3771e+02	-15.1375	-83.443559	0.000719	7.194013	2.437398	-0.000288
1386	1.3781e+02	-15.1809	-83.774604	0.000831	8.308579	2.815023	-0.000333
1387	1.3791e+02	-15.2194	-84.085463	0.000780	7.801958	2.643375	-0.000312
1388	1.3801e+02	-15.2563	-84.359988	0.000689	6.890041	2.334409	-0.000276
1389	1.3811e+02	-15.2980	-84.646625	0.000719	7.194013	2.437398	-0.000288
1390	1.3821e+02	-15.3381	-84.989782	0.000861	8.612551	2.918011	-0.000345
1391	1.3831e+02	-15.3782	-85.264307	0.000689	6.890041	2.334409	-0.000276
1392	1.3840e+02	-15.4199	-85.563055	0.000750	7.497986	2.540386	-0.000300
1393	1.3850e+02	-15.4632	-85.841617	0.000699	6.991365	2.368739	-0.000280
1394	1.3860e+02	-15.5017	-86.196885	0.000892	8.916524	3.021000	-0.000357
1395	1.3870e+02	-15.5434	-86.463336	0.000669	6.687393	2.265750	-0.000268
1396	1.3880e+02	-15.5771	-86.741898	0.000699	6.991365	2.368739	-0.000280
1397	1.3890e+02	-15.6124	-87.089092	0.000871	8.713875	2.952341	-0.000349
1398	1.3900e+02	-15.6493	-87.420137	0.000831	8.308579	2.815023	-0.000333
1399	1.3910e+02	-15.6910	-87.795591	0.000942	9.423144	3.192648	-0.000377
1400	1.3920e+02	-15.7279	-88.078190	0.000709	7.092689	2.403068	-0.000284
1401	1.3930e+02	-15.7824	-88.401161	0.000811	8.105930	2.746364	-0.000325
1402	1.3940e+02	-15.8145	-88.760466	0.000902	9.017848	3.055329	-0.000361
1403	1.3950e+02	-15.8627	-89.087474	0.000821	8.207255	2.780693	-0.000329
1404	1.3960e+02	-15.8947	-89.410445	0.000811	8.105930	2.746364	-0.000325
1405	1.3970e+02	-15.9429	-89.737453	0.000821	8.207255	2.780693	-0.000329
1406	1.3980e+02	-15.9782	-90.036201	0.000750	7.497986	2.540386	-0.000300
1407	1.3990e+02	-16.0167	-90.391469	0.000892	8.916524	3.021000	-0.000357
1408	1.4000e+02	-16.0520	-90.750774	0.000902	9.017848	3.055329	-0.000361
1409	1.4010e+02	-16.1017	-91.089894	0.000851	8.511227	2.883682	-0.000341
1410	1.4020e+02	-16.1338	-91.416902	0.000821	8.207255	2.780693	-0.000329
1411	1.4029e+02	-16.1819	-91.772170	0.000892	8.916524	3.021000	-0.000357
1412	1.4039e+02	-16.2108	-92.107252	0.000841	8.409903	2.849352	-0.000337
1413	1.4049e+02	-16.2573	-92.418111	0.000780	7.801958	2.643375	-0.000312
1414	1.4059e+02	-16.3022	-92.781454	0.000912	9.119172	3.089659	-0.000365
1415	1.4069e+02	-16.3311	-93.116536	0.000841	8.409903	2.849352	-0.000337
1416	1.4079e+02	-16.3728	-93.483915	0.000922	9.220496	3.123989	-0.000369
1417	1.4089e+02	-16.4145	-93.875517	0.000983	9.828441	3.329966	-0.000394
1418	1.4099e+02	-16.4498	-94.226748	0.000882	8.815199	2.986670	-0.000353
1419	1.4109e+02	-16.4979	-94.549719	0.000811	8.105930	2.746364	-0.000325
1420	1.4119e+02	-16.5396	-94.917098	0.000922	9.220496	3.123989	-0.000369
1421	1.4129e+02	-16.5765	-95.308701	0.000983	9.828441	3.329966	-0.000394
1422	1.4139e+02	-16.6118	-95.615523	0.000770	7.700634	2.609045	-0.000308
1423	1.4149e+02	-16.6648	-95.995014	0.000952	9.524468	3.226977	-0.000381
1424	1.4159e+02	-16.6985	-96.346244	0.000882	8.815199	2.986670	-0.000353
1425	1.4169e+02	-16.7386	-96.774181	0.001074	10.740358	3.638932	-0.000430
1426	1.4179e+02	-16.7787	-97.081003	0.000770	7.700634	2.609045	-0.000308
1427	1.4189e+02	-16.8204	-97.488754	0.001023	10.233737	3.467284	-0.000410
1428	1.4199e+02	-16.8557	-97.848059	0.000902	9.017848	3.055329	-0.000361
1429	1.4209e+02	-16.9006	-98.154881	0.000770	7.700634	2.609045	-0.000308
1430	1.4219e+02	-16.9407	-98.562632	0.001023	10.233737	3.467284	-0.000410
1431	1.4228e+02	-16.9712	-98.913863	0.000882	8.815199	2.986670	-0.000353
1432	1.4238e+02	-17.0033	-99.289316	0.000942	9.423144	3.192648	-0.000377
1433	1.4248e+02	-17.0450	-99.709178	0.001054	10.537710	3.570273	-0.000422
1434	1.4258e+02	-17.0899	-100.068484	0.000902	9.017848	3.055329	-0.000361
1435	1.4268e+02	-17.1332	-100.480271	0.001034	10.335061	3.501614	-0.000414
1436	1.4278e+02	-17.1797	-100.879948	0.001003	10.031089	3.398625	-0.000402
1437	1.4288e+02	-17.2102	-101.251364	0.000932	9.321820	3.158318	-0.000373
1438	1.4298e+02	-17.2535	-101.647004	0.000993	9.929765	3.364295	-0.000398
1439	1.4308e+02	-17.2952	-102.030532	0.000963	9.625792	3.261307	-0.000385
1440	1.4318e+02	-17.3353	-102.418097	0.000973	9.727117	3.295636	-0.000390
1441	1.4328e+02	-17.3754	-102.805662	0.000973	9.727117	3.295636	-0.000390
1442	1.4338e+02	-17.4043	-103.209375	0.001013	10.132413	3.432954	-0.000406
1443	1.4348e+02	-17.4476	-103.617126	0.001023	10.233737	3.467284	-0.000410
1444	1.4358e+02	-17.4910	-104.004691	0.000973	9.727117	3.295636	-0.000390
1445	1.4368e+02	-17.5343	-104.408404	0.001013	10.132413	3.432954	-0.000406
1446	1.4378e+02	-17.5647	-104.824229	0.001044	10.436385	3.535943	-0.000418
1447	1.4388e+02	-17.6177	-105.183535	0.000902	9.017848	3.055329	-0.000361
1448	1.4398e+02	-17.6594	-105.563025	0.000952	9.524468	3.226977	-0.000381
1449	1.4408e+02	-17.6899	-106.007110	0.001115	11.145654	3.776250	-0.000446
1450	1.4418e+02	-17.7316	-106.443121	0.001094	10.943006	3.707591	-0.000438
1451	1.4428e+02	-17.7765	-106.887206	0.001115	11.145654	3.776250	-0.000446
1452	1.4437e+02	-17.8102	-107.294957	0.001023	10.233737	3.467284	-0.000410
1453	1.4447e+02	-17.8359	-107.666373	0.000932	9.321820	3.158318	-0.000373
1454	1.4457e+02	-17.8904	-108.130644	0.001165	11.652275	3.947898	-0.000467
1455	1.4467e+02	-17.9257	-108.558580	0.001074	10.740358	3.638932	-0.000430
1456	1.4477e+02	-17.9674	-108.986516	0.001074	10.740358	3.638932	-0.000430
1457	1.4487e+02	-18.0203	-109.434638	0.001125	11.246979	3.810579	-0.000450
1458	1.4497e+02	-18.0428	-109.870649	0.001094	10.943006	3.707591	-0.000438
1459	1.4507e+02	-18.0829	-110.266288	0.000993	9.929765	3.364295	-0.000398
1460	1.4517e+02	-18.1262	-110.710373	0.001115	11.145654	3.776250	-0.000446
1461	1.4527e+02	-18.1727	-111.178681	0.001175	11.753599	3.982227	-0.000471
1462	1.4537e+02	-18.2113	-111.614692	0.001094	10.943006	3.707591	-0.000438
1463	1.4547e+02	-18.2578	-112.026480	0.001034	10.335061	3.501614	-0.000414
1464	1.4557e+02	-18.2818	-112.462490	0.001094	10.943006	3.707591	-0.000438
1465	1.4567e+02	-18.3396	-112.850055	0.000973	9.727117	3.295636	-0.000390
1466	1.4577e+02	-18.3685	-113.362772	0.001287	12.868165	4.359852	-0.000515
1467	1.4587e+02	-18.4038	-113.794745	0.001084	10.841682	3.673261	-0.000434
1468	1.4597e+02	-18.4423	-114.254979	0.001155	11.550951	3.913568	-0.000463
1469	1.4607e+02	-18.4888	-114.735398	0.001206	12.057572	4.085216	-0.000483
1470	1.4617e+02	-18.5209	-115.203705	0.001175	11.753599	3.982227	-0.000471
1471	1.4626e+02	-18.5690	-115.684125	0.001206	12.057572	4.085216	-0.000483
1472	1.4636e+02	-18.6059	-116.156469	0.001185	11.854923	4.016557	-0.000475
1473	1.4646e+02	-18.6476	-116.649000	0.001236	12.361544	4.188204	-0.000495
1474	1.4656e+02	-18.6877	-117.089048	0.001104	11.044330	3.741920	-0.000442
1475	1.4666e+02	-18.7246	-117.561393	0.001185	11.854923	4.016557	-0.000475
1476	1.4676e+02	-18.7743	-118.061998	0.001256	12.564192	4.256864	-0.000503
1477	1.4686e+02	-18.8080	-118.534342	0.001185	11.854923	4.016557	-0.000475
1478	1.4696e+02	-18.8481	-118.994576	0.001155	11.550951	3.913568	-0.000463
1479	1.4706e+02	-18.8834	-119.503255	0.001277	12.766840	4.325523	-0.000511
1480	1.4716e+02	-18.9251	-120.044231	0.001358	13.577434	4.600159	-0.000544
1481	1.4726e+02	-18.9684	-120.476205	0.001084	10.841682	3.673261	-0.000434
1482	1.4736e+02	-19.0021	-120.948550	0.001185	11.854923	4.016557	-0.000475
1483	1.4746e+02	-19.0455	-121.453192	0.001267	12.665516	4.291193	-0.000507
1484	1.4756e+02	-19.0856	-121.937648	0.001216	12.158896	4.119545	-0.000487
1485	1.4766e+02	-19.1160	-122.454401	0.001297	12.969489	4.394182	-0.000519
1486	1.4776e+02	-19.1513	-122.987303	0.001337	13.374785	4.531500	-0.000536
1487	1.4786e+02	-19.2107	-123.508094	0.001307	13.070813	4.428511	-0.000523
1488	1.4796e+02	-19.2428	-123.984476	0.001196	11.956247	4.050886	-0.000479
1489	1.4806e+02	-19.2765	-124.505266	0.001307	13.070813	4.428511	-0.000523
1490	1.4816e+02	-19.3230	-125.022020	0.001297	12.969489	4.394182	-0.000519
1491	1.4825e+02	-19.3615	-125.546847	0.001317	13.172137	4.462841	-0.000527
1492	1.4835e+02	-19.3920	-126.071675	0.001317	13.172137	4.462841	-0.000527
1493	1.4845e+02	-19.4369	-126.596502	0.001317	13.172137	4.462841	-0.000527
1494	1.4855e+02	-19.4754	-127.125367	0.001327	13.273461	4.497170	-0.000532
1495	1.4865e+02	-19.5251	-127.670381	0.001368	13.678758	4.634489	-0.000548
1496	1.4875e+02	-19.5620	-128.183097	0.001287	12.868165	4.359852	-0.000515
1497	1.4885e+02	-19.6085	-128.711962	0.001327	13.273461	4.497170	-0.000532
1498	1.4895e+02	-19.6406	-129.277161	0.001419	14.185378	4.806136	-0.000568
1499	1.4905e+02	-19.6887	-129.826211	0.001378	13.780082	4.668818	-0.000552
1500	1.4915e+02	-19.7176	-130.338927	0.001287	12.868165	4.359852	-0.000515
1501	1.4925e+02	-19.7674	-130.883941	0.001368	13.678758	4.634489	-0.000548
1502	1.4935e+02	-19.7882	-131.469325	0.001469	14.691999	4.977784	-0.000588
1503	1.4945e+02	-19.8331	-132.054710	0.001469	14.691999	4.977784	-0.000588
1504	1.4955e+02	-19.8684	-132.563389	0.001277	12.766840	4.325523	-0.000511
1505	1.4965e+02	-19.9262	-133.160885	0.001500	14.995971	5.080773	-0.000600
1506	1.4975e+02	-19.9551	-133.766456	0.001520	15.198620	5.149432	-0.000609
1507	1.4985e+02	-20.0032	-134.311469	0.001368	13.678758	4.634489	-0.000548
1508	1.4995e+02	-19.9567	-134.565808	-0.000638	-6.383420	-2.162761	-0.000256
1509	1.5005e+02	-19.9085	-134.751517	-0.000466	-4.660910	-1.579159	-0.000187
1510	1.5015e+02	-19.8829	-134.884742	-0.000334	-3.343696	-1.132875	-0.000134
1511	1.5025e+02	-19.8556	-135.038153	-0.000385	-3.850317	-1.304523	-0.000154
1512	1.5034e+02	-19.8059	-135.155230	-0.000294	-2.938400	-0.995557	-0.000118
1513	1.5044e+02	-19.7561	-135.300567	-0.000365	-3.647669	-1.235864	-0.000146
1514	1.5054e+02	-19.7305	-135.349013	-0.000122	-1.215890	-0.411955	-0.000049
1515	1.5064e+02	-19.6775	-135.397458	-0.000122	-1.215890	-0.411955	-0.000049
1516	1.5074e+02	-19.6374	-135.466090	-0.000172	-1.722510	-0.583602	-0.000069
1517	1.5084e+02	-19.6053	-135.518572	-0.000132	-1.317214	-0.446284	-0.000053
1518	1.5094e+02	-19.5524	-135.530684	-0.000030	-0.303972	-0.102989	-0.000012
1519	1.5104e+02	-19.5203	-135.510498	0.000051	0.506621	0.171648	0.000020
1520	1.5114e+02	-19.4770	-135.478201	0.000081	0.810593	0.274636	0.000032
1521	1.5124e+02	-19.4369	-135.514535	-0.000091	-0.911917	-0.308966	-0.000037
1522	1.5134e+02	-19.4064	-135.522610	-0.000020	-0.202648	-0.068659	-0.000008
1523	1.5144e+02	-19.3679	-135.482238	0.000101	1.013241	0.343295	0.000041
1524	1.5154e+02	-19.3214	-135.470127	0.000030	0.303972	0.102989	0.000012
1525	1.5164e+02	-19.2829	-135.458015	0.000030	0.303972	0.102989	0.000012
1526	1.5174e+02	-19.2428	-135.381310	0.000193	1.925158	0.652261	0.000077
1527	1.5184e+02	-19.2075	-135.385347	-0.000010	-0.101324	-0.034330	-0.000004
1528	1.5194e+02	-19.1738	-135.296530	0.000223	2.229131	0.755250	0.000089
1529	1.5204e+02	-19.1176	-135.288456	0.000020	0.202648	0.068659	0.000008
1530	1.5214e+02	-19.0840	-135.207713	0.000203	2.026483	0.686591	0.000081
1531	1.5224e+02	-19.0422	-135.151193	0.000142	1.418538	0.480614	0.000057
1532	1.5233e+02	-19.0182	-135.058339	0.000233	2.330455	0.789580	0.000093
1533	1.5243e+02	-18.9701	-135.017968	0.000101	1.013241	0.343295	0.000041
1534	1.5253e+02	-18.9332	-134.913002	0.000263	2.634427	0.892568	0.000105
1535	1.5263e+02	-18.8770	-134.860519	0.000132	1.317214	0.446284	0.000053
1536	1.5273e+02	-18.8401	-134.727294	0.000334	3.343696	1.132875	0.000134
1537	1.5283e+02	-18.8080	-134.638477	0.000223	2.229131	0.755250	0.000089
1538	1.5293e+02	-18.7631	-134.557734	0.000203	2.026483	0.686591	0.000081
1539	1.5303e+02	-18.7262	-134.493140	0.000162	1.621186	0.549273	0.000065
1540	1.5313e+02	-18.6781	-134.343766	0.000375	3.748993	1.270193	0.000150
1541	1.5323e+02	-18.6444	-134.238800	0.000263	2.634427	0.892568	0.000105
1542	1.5333e+02	-18.6139	-134.154021	0.000213	2.127807	0.720920	0.000085
1543	1.5343e+02	-18.5738	-134.036944	0.000294	2.938400	0.995557	0.000118
1544	1.5353e+02	-18.5353	-133.907755	0.000324	3.242372	1.098545	0.000130
1545	1.5363e+02	-18.4920	-133.774530	0.000334	3.343696	1.132875	0.000134
1546	1.5373e+02	-18.4567	-133.697824	0.000193	1.925158	0.652261	0.000077
1547	1.5383e+02	-18.4102	-133.544413	0.000385	3.850317	1.304523	0.000154
1548	1.5393e+02	-18.3701	-133.471745	0.000182	1.823834	0.617932	0.000073
1549	1.5403e+02	-18.3268	-133.334482	0.000345	3.445020	1.167205	0.000138
1550	1.5413e+02	-18.2915	-133.225479	0.000274	2.735752	0.926898	0.000110
1551	1.5422e+02	-18.2433	-133.152811	0.000182	1.823834	0.617932	0.000073
1552	1.5432e+02	-18.2016	-133.035734	0.000294	2.938400	0.995557	0.000118
1553	1.5442e+02	-18.1711	-132.886360	0.000375	3.748993	1.270193	0.000150
1554	1.5452e+02	-18.1326	-132.704689	0.000456	4.559586	1.544830	0.000183
1555	1.5462e+02	-18.0925	-132.575501	0.000324	3.242372	1.098545	0.000130
1556	1.5472e+02	-18.0492	-132.430164	0.000365	3.647669	1.235864	0.000146
1557	1.5482e+02	-18.0091	-132.280790	0.000375	3.748993	1.270193	0.000150
1558	1.5492e+02	-17.9690	-132.191973	0.000223	2.229131	0.755250	0.000089
1559	1.5502e+02	-17.9337	-132.014339	0.000446	4.458262	1.510500	0.000179
1560	1.5512e+02	-17.8888	-131.860927	0.000385	3.850317	1.304523	0.000154
1561	1.5522e+02	-17.8471	-131.836705	0.000061	0.607945	0.205977	0.000024
1562	1.5532e+02	-17.8150	-131.614662	0.000557	5.572827	1.888125	0.000223
1563	1.5542e+02	-17.7765	-131.505660	0.000274	2.735752	0.926898	0.000110
1564	1.5552e+02	-17.7284	-131.376471	0.000324	3.242372	1.098545	0.000130
1565	1.5562e+02	-17.6931	-131.186726	0.000476	4.762234	1.613489	0.000191
1566	1.5572e+02	-17.6417	-131.061575	0.000314	3.141048	1.064216	0.000126
1567	1.5582e+02	-17.6145	-130.956609	0.000263	2.634427	0.892568	0.000105
1568	1.5592e+02	-17.5696	-130.807235	0.000375	3.748993	1.270193	0.000150
1569	1.5602e+02	-17.5391	-130.694195	0.000284	2.837076	0.961227	0.000114
1570	1.5612e+02	-17.4926	-130.532710	0.000405	4.052965	1.373182	0.000162
1571	1.5622e+02	-17.4476	-130.395447	0.000345	3.445020	1.167205	0.000138
1572	1.5631e+02	-17.4139	-130.197628	0.000496	4.964882	1.682148	0.000199
1573	1.5641e+02	-17.3770	-130.060365	0.000345	3.445020	1.167205	0.000138
1574	1.5651e+02	-17.3289	-129.919065	0.000355	3.546345	1.201534	0.000142
1575	1.5661e+02	-17.2888	-129.777765	0.000355	3.546345	1.201534	0.000142
1576	1.5671e+02	-17.2615	-129.612243	0.000415	4.154289	1.407511	0.000166
1577	1.5681e+02	-17.2166	-129.458832	0.000385	3.850317	1.304523	0.000154
1578	1.5691e+02	-17.1669	-129.345792	0.000284	2.837076	0.961227	0.000114
1579	1.5701e+02	-17.1380	-129.192381	0.000385	3.850317	1.304523	0.000154
1580	1.5711e+02	-17.1027	-129.079341	0.000284	2.837076	0.961227	0.000114
1581	1.5721e+02	-17.0610	-128.849224	0.000578	5.775475	1.956784	0.000231
1582	1.5731e+02	-17.0161	-128.711962	0.000345	3.445020	1.167205	0.000138
1583	1.5741e+02	-16.9696	-128.574699	0.000345	3.445020	1.167205	0.000138
1584	1.5751e+02	-16.9231	-128.469733	0.000263	2.634427	0.892568	0.000105
1585	1.5761e+02	-16.8974	-128.316322	0.000385	3.850317	1.304523	0.000154
1586	1.5771e+02	-16.8557	-128.158874	0.000395	3.951641	1.338852	0.000158
1587	1.5781e+02	-16.8188	-128.037760	0.000304	3.039724	1.029886	0.000122
1588	1.5791e+02	-16.7755	-127.864163	0.000436	4.356938	1.476170	0.000174
1589	1.5801e+02	-16.7289	-127.642121	0.000557	5.572827	1.888125	0.000223
1590	1.5811e+02	-16.6953	-127.496784	0.000365	3.647669	1.235864	0.000146
1591	1.5821e+02	-16.6519	-127.335298	0.000405	4.052965	1.373182	0.000162
1592	1.5830e+02	-16.6118	-127.173813	0.000405	4.052965	1.373182	0.000162
1593	1.5840e+02	-16.5797	-126.971956	0.000507	5.066207	1.716477	0.000203
1594	1.5850e+02	-16.5477	-126.850842	0.000304	3.039724	1.029886	0.000122
1595	1.5860e+02	-16.4979	-126.673208	0.000446	4.458262	1.510500	0.000179
1596	1.5870e+02	-16.4562	-126.531908	0.000355	3.546345	1.201534	0.000142
1597	1.5880e+02	-16.4129	-126.406757	0.000314	3.141048	1.064216	0.000126
1598	1.5890e+02	-16.3760	-126.212975	0.000486	4.863558	1.647818	0.000195
1599	1.5900e+02	-16.3455	-126.043415	0.000426	4.255613	1.441841	0.000170
1600	1.5910e+02	-16.3038	-125.914227	0.000324	3.242372	1.098545	0.000130
1601	1.5920e+02	-16.2509	-125.772927	0.000355	3.546345	1.201534	0.000142
1602	1.5930e+02	-16.2124	-125.627590	0.000365	3.647669	1.235864	0.000146
1603	1.5940e+02	-16.1723	-125.437845	0.000476	4.762234	1.613489	0.000191
1604	1.5950e+02	-16.1386	-125.300582	0.000345	3.445020	1.167205	0.000138
1605	1.5960e+02	-16.1049	-125.114874	0.000466	4.660910	1.579159	0.000187
1606	1.5970e+02	-16.0536	-124.977611	0.000345	3.445020	1.167205	0.000138
1607	1.5980e+02	-16.0199	-124.783829	0.000486	4.863558	1.647818	0.000195
1608	1.5990e+02	-15.9878	-124.642529	0.000355	3.546345	1.201534	0.000142
1609	1.6000e+02	-15.9429	-124.432598	0.000527	5.268855	1.785136	0.000211
1610	1.6010e+02	-15.8963	-124.242852	0.000476	4.762234	1.613489	0.000191
1611	1.6019e+02	-15.8610	-124.109627	0.000334	3.343696	1.132875	0.000134
1612	1.6029e+02	-15.8113	-123.923919	0.000466	4.660910	1.579159	0.000187
1613	1.6039e+02	-15.7873	-123.770507	0.000385	3.850317	1.304523	0.000154
1614	1.6049e+02	-15.7439	-123.600948	0.000426	4.255613	1.441841	0.000170
1615	1.6059e+02	-15.7022	-123.415240	0.000466	4.660910	1.579159	0.000187
1616	1.6069e+02	-15.6589	-123.282014	0.000334	3.343696	1.132875	0.000134
1617	1.6079e+02	-15.6156	-123.164937	0.000294	2.938400	0.995557	0.000118
1618	1.6089e+02	-15.5739	-122.975192	0.000476	4.762234	1.613489	0.000191
1619	1.6099e+02	-15.5402	-122.841966	0.000334	3.343696	1.132875	0.000134
1620	1.6109e+02	-15.4969	-122.680481	0.000405	4.052965	1.373182	0.000162
1621	1.6119e+02	-15.4632	-122.470550	0.000527	5.268855	1.785136	0.000211
1622	1.6129e+02	-15.4215	-122.300990	0.000426	4.255613	1.441841	0.000170
1623	1.6139e+02	-15.3846	-122.135467	0.000415	4.154289	1.407511	0.000166
1624	1.6149e+02	-15.3381	-121.925536	0.000527	5.268855	1.785136	0.000211
1625	1.6159e+02	-15.3012	-121.776162	0.000375	3.748993	1.270193	0.000150
1626	1.6169e+02	-15.2659	-121.566231	0.000527	5.268855	1.785136	0.000211
1627	1.6179e+02	-15.2258	-121.445117	0.000304	3.039724	1.029886	0.000122
1628	1.6189e+02	-15.1889	-121.263446	0.000456	4.559586	1.544830	0.000183
1629	1.6199e+02	-15.1391	-121.069664	0.000486	4.863558	1.647818	0.000195
1630	1.6209e+02	-15.0974	-120.928364	0.000355	3.546345	1.201534	0.000142
1631	1.6219e+02	-15.0702	-120.758804	0.000426	4.255613	1.441841	0.000170
1632	1.6228e+02	-15.0268	-120.565022	0.000486	4.863558	1.647818	0.000195
1633	1.6238e+02	-14.9771	-120.415648	0.000375	3.748993	1.270193	0.000150
1634	1.6248e+02	-14.9354	-120.262237	0.000385	3.850317	1.304523	0.000154
1635	1.6258e+02	-14.8969	-120.104788	0.000395	3.951641	1.338852	0.000158
1636	1.6268e+02	-14.8648	-119.967526	0.000345	3.445020	1.167205	0.000138
1637	1.6278e+02	-14.8247	-119.802003	0.000415	4.154289	1.407511	0.000166
1638	1.6288e+02	-14.7814	-119.636480	0.000415	4.154289	1.407511	0.000166
1639	1.6298e+02	-14.7429	-119.426549	0.000527	5.268855	1.785136	0.000211
1640	1.6308e+02	-14.6964	-119.248915	0.000446	4.458262	1.510500	0.000179
1641	1.6318e+02	-14.6611	-119.083393	0.000415	4.154289	1.407511	0.000166
1642	1.6328e+02	-14.6258	-118.897685	0.000466	4.660910	1.579159	0.000187
1643	1.6338e+02	-14.5825	-118.707939	0.000476	4.762234	1.613489	0.000191
1644	1.6348e+02	-14.5504	-118.526268	0.000456	4.559586	1.544830	0.000183
1645	1.6358e+02	-14.5055	-118.348634	0.000446	4.458262	1.510500	0.000179
1646	1.6368e+02	-14.4606	-118.142740	0.000517	5.167531	1.750807	0.000207
1647	1.6378e+02	-14.4188	-117.973181	0.000426	4.255613	1.441841	0.000170
1648	1.6388e+02	-14.3900	-117.815732	0.000395	3.951641	1.338852	0.000158
1649	1.6398e+02	-14.3531	-117.662321	0.000385	3.850317	1.304523	0.000154
1650	1.6408e+02	-14.3049	-117.484687	0.000446	4.458262	1.510500	0.000179
1651	1.6418e+02	-14.2584	-117.327239	0.000395	3.951641	1.338852	0.000158
1652	1.6427e+02	-14.2279	-117.149605	0.000446	4.458262	1.510500	0.000179
1653	1.6437e+02	-14.1702	-116.984082	0.000415	4.154289	1.407511	0.000166
1654	1.6447e+02	-14.1397	-116.846820	0.000345	3.445020	1.167205	0.000138
1655	1.6457e+02	-14.1124	-116.632851	0.000537	5.370179	1.819466	0.000215
1656	1.6467e+02	-14.0643	-116.471366	0.000405	4.052965	1.373182	0.000162
1657	1.6477e+02	-14.0274	-116.269509	0.000507	5.066207	1.716477	0.000203
1658	1.6487e+02	-13.9825	-116.091875	0.000446	4.458262	1.510500	0.000179
1659	1.6497e+02	-13.9392	-115.861759	0.000578	5.775475	1.956784	0.000231
1660	1.6507e+02	-13.9039	-115.712385	0.000375	3.748993	1.270193	0.000150
1661	1.6517e+02	-13.8750	-115.490342	0.000557	5.572827	1.888125	0.000223
1662	1.6527e+02	-13.8237	-115.300597	0.000476	4.762234	1.613489	0.000191
1663	1.6537e+02	-13.7804	-115.131037	0.000426	4.255613	1.441841	0.000170
1664	1.6547e+02	-13.7483	-114.945329	0.000466	4.660910	1.579159	0.000187
1665	1.6557e+02	-13.7114	-114.767695	0.000446	4.458262	1.510500	0.000179
1666	1.6567e+02	-13.6729	-114.565838	0.000507	5.066207	1.716477	0.000203
1667	1.6577e+02	-13.6296	-114.392241	0.000436	4.356938	1.476170	0.000174
1668	1.6587e+02	-13.5879	-114.254979	0.000345	3.445020	1.167205	0.000138
1669	1.6597e+02	-13.5413	-114.049085	0.000517	5.167531	1.750807	0.000207
1670	1.6607e+02	-13.5060	-113.883562	0.000415	4.154289	1.407511	0.000166
1671	1.6616e+02	-13.4675	-113.738225	0.000365	3.647669	1.235864	0.000146
1672	1.6626e+02	-13.4274	-113.528294	0.000527	5.268855	1.785136	0.000211
1673	1.6636e+02	-13.3905	-113.334512	0.000486	4.863558	1.647818	0.000195
1674	1.6646e+02	-13.3488	-113.120543	0.000537	5.370179	1.819466	0.000215
1675	1.6656e+02	-13.3055	-112.991355	0.000324	3.242372	1.098545	0.000130
1676	1.6666e+02	-13.2702	-112.781424	0.000527	5.268855	1.785136	0.000211
1677	1.6676e+02	-13.2317	-112.583604	0.000496	4.964882	1.682148	0.000199
1678	1.6686e+02	-13.1868	-112.353488	0.000578	5.775475	1.956784	0.000231
1679	1.6696e+02	-13.1499	-112.163742	0.000476	4.762234	1.613489	0.000191
1680	1.6706e+02	-13.1002	-111.957848	0.000517	5.167531	1.750807	0.000207
1681	1.6716e+02	-13.0729	-111.784251	0.000436	4.356938	1.476170	0.000174
1682	1.6726e+02	-13.0360	-111.626803	0.000395	3.951641	1.338852	0.000158
1683	1.6736e+02	-12.9927	-111.416872	0.000527	5.268855	1.785136	0.000211
1684	1.6746e+02	-12.9446	-111.235201	0.000456	4.559586	1.544830	0.000183
1685	1.6756e+02	-12.9093	-111.069678	0.000415	4.154289	1.407511	0.000166
1686	1.6766e+02	-12.8756	-110.908193	0.000405	4.052965	1.373182	0.000162
1687	1.6776e+02	-12.8274	-110.649816	0.000648	6.484744	2.197091	0.000260
1688	1.6786e+02	-12.7889	-110.540814	0.000274	2.735752	0.926898	0.000110
1689	1.6796e+02	-12.7424	-110.314734	0.000567	5.674151	1.922455	0.000227
1690	1.6806e+02	-12.7119	-110.124989	0.000476	4.762234	1.613489	0.000191
1691	1.6816e+02	-12.6670	-109.951392	0.000436	4.356938	1.476170	0.000174
1692	1.6825e+02	-12.6317	-109.745498	0.000517	5.167531	1.750807	0.000207
1693	1.6835e+02	-12.5916	-109.547678	0.000496	4.964882	1.682148	0.000199
1694	1.6845e+02	-12.5483	-109.386193	0.000405	4.052965	1.373182	0.000162
1695	1.6855e+02	-12.5050	-109.164150	0.000557	5.572827	1.888125	0.000223
1696	1.6865e+02	-12.4825	-108.990554	0.000436	4.356938	1.476170	0.000174
1697	1.6875e+02	-12.4360	-108.744288	0.000618	6.180772	2.094102	0.000248
1698	1.6885e+02	-12.3927	-108.554543	0.000476	4.762234	1.613489	0.000191
1699	1.6895e+02	-12.3510	-108.328463	0.000567	5.674151	1.922455	0.000227
1700	1.6905e+02	-12.2997	-108.130644	0.000496	4.964882	1.682148	0.000199
1701	1.6915e+02	-12.2676	-107.932824	0.000496	4.964882	1.682148	0.000199
1702	1.6925e+02	-12.2194	-107.803636	0.000324	3.242372	1.098545	0.000130
1703	1.6935e+02	-12.1890	-107.585630	0.000547	5.471503	1.853795	0.000219
1704	1.6945e+02	-12.1601	-107.363588	0.000557	5.572827	1.888125	0.000223
1705	1.6955e+02	-12.1120	-107.181917	0.000456	4.559586	1.544830	0.000183
1706	1.6965e+02	-12.0702	-107.040617	0.000355	3.546345	1.201534	0.000142
1707	1.6975e+02	-12.0334	-106.826649	0.000537	5.370179	1.819466	0.000215
1708	1.6985e+02	-11.9868	-106.628829	0.000496	4.964882	1.682148	0.000199
1709	1.6995e+02	-11.9499	-106.402750	0.000567	5.674151	1.922455	0.000227
1710	1.7005e+02	-11.9114	-106.196856	0.000517	5.167531	1.750807	0.000207
1711	1.7015e+02	-11.8745	-105.999036	0.000496	4.964882	1.682148	0.000199
1712	1.7024e+02	-11.8312	-105.785068	0.000537	5.370179	1.819466	0.000215
1713	1.7034e+02	-11.7959	-105.615508	0.000426	4.255613	1.441841	0.000170
1714	1.7044e+02	-11.7558	-105.361168	0.000638	6.383420	2.162761	0.000256
1715	1.7054e+02	-11.7253	-105.163349	0.000496	4.964882	1.682148	0.000199
1716	1.7064e+02	-11.6740	-104.969566	0.000486	4.863558	1.647818	0.000195
1717	1.7074e+02	-11.6339	-104.719264	0.000628	6.282096	2.128432	0.000252
1718	1.7084e+02	-11.5890	-104.586038	0.000334	3.343696	1.132875	0.000134
1719	1.7094e+02	-11.5569	-104.396293	0.000476	4.762234	1.613489	0.000191
1720	1.7104e+02	-11.5136	-104.166176	0.000578	5.775475	1.956784	0.000231
1721	1.7114e+02	-11.4799	-103.968357	0.000496	4.964882	1.682148	0.000199
1722	1.7124e+02	-11.4286	-103.754388	0.000537	5.370179	1.819466	0.000215
1723	1.7134e+02	-11.3917	-103.544457	0.000527	5.268855	1.785136	0.000211
1724	1.7144e+02	-11.3532	-103.342601	0.000507	5.066207	1.716477	0.000203
1725	1.7154e+02	-11.3114	-103.173041	0.000426	4.255613	1.441841	0.000170
1726	1.7164e+02	-11.2778	-102.950998	0.000557	5.572827	1.888125	0.000223
1727	1.7174e+02	-11.2425	-102.724919	0.000567	5.674151	1.922455	0.000227
1728	1.7184e+02	-11.2024	-102.502876	0.000557	5.572827	1.888125	0.000223
1729	1.7194e+02	-11.1558	-102.301020	0.000507	5.066207	1.716477	0.000203
1730	1.7204e+02	-11.1286	-102.107237	0.000486	4.863558	1.647818	0.000195
1731	1.7213e+02	-11.0740	-101.905380	0.000507	5.066207	1.716477	0.000203
1732	1.7223e+02	-11.0451	-101.667189	0.000598	5.978124	2.025443	0.000239
1733	1.7233e+02	-10.9986	-101.449184	0.000547	5.471503	1.853795	0.000219
1734	1.7243e+02	-10.9473	-101.235216	0.000537	5.370179	1.819466	0.000215
1735	1.7253e+02	-10.9104	-101.033359	0.000507	5.066207	1.716477	0.000203
1736	1.7263e+02	-10.8767	-100.847651	0.000466	4.660910	1.579159	0.000187
1737	1.7273e+02	-10.8398	-100.641757	0.000517	5.167531	1.750807	0.000207
1738	1.7283e+02	-10.7949	-100.419714	0.000557	5.572827	1.888125	0.000223
1739	1.7293e+02	-10.7596	-100.213820	0.000517	5.167531	1.750807	0.000207
1740	1.7303e+02	-10.7227	-99.995815	0.000547	5.471503	1.853795	0.000219
1741	1.7313e+02	-10.6826	-99.826255	0.000426	4.255613	1.441841	0.000170
1742	1.7323e+02	-10.6296	-99.584027	0.000608	6.079448	2.059773	0.000243
1743	1.7333e+02	-10.5992	-99.361985	0.000557	5.572827	1.888125	0.000223
1744	1.7343e+02	-10.5526	-99.156091	0.000517	5.167531	1.750807	0.000207
1745	1.7353e+02	-10.5270	-98.986531	0.000426	4.255613	1.441841	0.000170
1746	1.7363e+02	-10.4756	-98.776600	0.000527	5.268855	1.785136	0.000211
1747	1.7373e+02	-10.4436	-98.526298	0.000628	6.282096	2.128432	0.000252
1748	1.7383e+02	-10.4051	-98.324441	0.000507	5.066207	1.716477	0.000203
1749	1.7393e+02	-10.3601	-98.086250	0.000598	5.978124	2.025443	0.000239
1750	1.7403e+02	-10.3200	-97.860170	0.000567	5.674151	1.922455	0.000227
1751	1.7413e+02	-10.2751	-97.642165	0.000547	5.471503	1.853795	0.000219
1752	1.7422e+02	-10.2462	-97.472605	0.000426	4.255613	1.441841	0.000170
1753	1.7432e+02	-10.1933	-97.282860	0.000476	4.762234	1.613489	0.000191
1754	1.7442e+02	-10.1596	-97.064855	0.000547	5.471503	1.853795	0.000219
1755	1.7452e+02	-10.1147	-96.838775	0.000567	5.674151	1.922455	0.000227
1756	1.7462e+02	-10.0746	-96.628844	0.000527	5.268855	1.785136	0.000211
1757	1.7472e+02	-10.0345	-96.382579	0.000618	6.180772	2.094102	0.000248
1758	1.7482e+02	-10.0040	-96.184759	0.000496	4.964882	1.682148	0.000199
1759	1.7492e+02	-9.9607	-95.962716	0.000557	5.572827	1.888125	0.000223
1760	1.7502e+02	-9.9158	-95.772971	0.000476	4.762234	1.613489	0.000191
1761	1.7512e+02	-9.8805	-95.554966	0.000547	5.471503	1.853795	0.000219
1762	1.7522e+02	-9.8356	-95.328886	0.000567	5.674151	1.922455	0.000227
1763	1.7532e+02	-9.8019	-95.147215	0.000456	4.559586	1.544830	0.000183
1764	1.7542e+02	-9.7650	-94.896913	0.000628	6.282096	2.128432	0.000252
1765	1.7552e+02	-9.7184	-94.642573	0.000638	6.383420	2.162761	0.000256
1766	1.7562e+02	-9.6799	-94.489162	0.000385	3.850317	1.304523	0.000154
1767	1.7572e+02	-9.6398	-94.234822	0.000638	6.383420	2.162761	0.000256
1768	1.7582e+02	-9.6029	-93.976446	0.000648	6.484744	2.197091	0.000260
1769	1.7592e+02	-9.5548	-93.762478	0.000537	5.370179	1.819466	0.000215
1770	1.7602e+02	-9.5211	-93.564658	0.000496	4.964882	1.682148	0.000199
1771	1.7612e+02	-9.4810	-93.350690	0.000537	5.370179	1.819466	0.000215
1772	1.7621e+02	-9.4553	-93.124610	0.000567	5.674151	1.922455	0.000227
1773	1.7631e+02	-9.4088	-92.906605	0.000547	5.471503	1.853795	0.000219
1774	1.7641e+02	-9.3655	-92.664377	0.000608	6.079448	2.059773	0.000243
1775	1.7651e+02	-9.3206	-92.438297	0.000567	5.674151	1.922455	0.000227
1776	1.7661e+02	-9.2789	-92.292960	0.000365	3.647669	1.235864	0.000146
1777	1.7671e+02	-9.2468	-92.014398	0.000699	6.991365	2.368739	0.000280
1778	1.7681e+02	-9.1955	-91.808504	0.000517	5.167531	1.750807	0.000207
1779	1.7691e+02	-9.1698	-91.598573	0.000527	5.268855	1.785136	0.000211
1780	1.7701e+02	-9.1120	-91.396716	0.000507	5.066207	1.716477	0.000203
1781	1.7711e+02	-9.0848	-91.162562	0.000588	5.876800	1.991114	0.000235
1782	1.7721e+02	-9.0479	-90.924371	0.000598	5.978124	2.025443	0.000239
1783	1.7731e+02	-9.0030	-90.682143	0.000608	6.079448	2.059773	0.000243
1784	1.7741e+02	-8.9677	-90.472212	0.000527	5.268855	1.785136	0.000211
1785	1.7751e+02	-8.9243	-90.274392	0.000496	4.964882	1.682148	0.000199
1786	1.7761e+02	-8.8907	-90.056387	0.000547	5.471503	1.853795	0.000219
1787	1.7771e+02	-8.8297	-89.806084	0.000628	6.282096	2.128432	0.000252
1788	1.7781e+02	-8.7960	-89.592116	0.000537	5.370179	1.819466	0.000215
1789	1.7791e+02	-8.7527	-89.410445	0.000456	4.559586	1.544830	0.000183
1790	1.7801e+02	-8.7302	-89.172254	0.000598	5.978124	2.025443	0.000239
1791	1.7810e+02	-8.6949	-88.942137	0.000578	5.775475	1.956784	0.000231
1792	1.7820e+02	-8.6452	-88.724132	0.000547	5.471503	1.853795	0.000219
1793	1.7830e+02	-8.6035	-88.465755	0.000648	6.484744	2.197091	0.000260
1794	1.7840e+02	-8.5618	-88.296196	0.000426	4.255613	1.441841	0.000170
1795	1.7850e+02	-8.5297	-88.045893	0.000628	6.282096	2.128432	0.000252
1796	1.7860e+02	-8.4864	-87.791554	0.000638	6.383420	2.162761	0.000256
1797	1.7870e+02	-8.4591	-87.565474	0.000567	5.674151	1.922455	0.000227
1798	1.7880e+02	-8.4062	-87.379766	0.000466	4.660910	1.579159	0.000187
1799	1.7890e+02	-8.3741	-87.165798	0.000537	5.370179	1.819466	0.000215
1800	1.7900e+02	-8.3228	-86.919532	0.000618	6.180772	2.094102	0.000248
1801	1.7910e+02	-8.2923	-86.689416	0.000578	5.775475	1.956784	0.000231
1802	1.7920e+02	-8.2490	-86.479485	0.000527	5.268855	1.785136	0.000211
1803	1.7930e+02	-8.2024	-86.261479	0.000547	5.471503	1.853795	0.000219
1804	1.7940e+02	-8.1639	-86.047511	0.000537	5.370179	1.819466	0.000215
1805	1.7950e+02	-8.1254	-85.793172	0.000638	6.383420	2.162761	0.000256
1806	1.7960e+02	-8.0918	-85.554981	0.000598	5.978124	2.025443	0.000239
1807	1.7970e+02	-8.0436	-85.316790	0.000598	5.978124	2.025443	0.000239
1808	1.7980e+02	-8.0019	-85.110896	0.000517	5.167531	1.750807	0.000207
1809	1.7990e+02	-7.9666	-84.872705	0.000598	5.978124	2.025443	0.000239
1810	1.8000e+02	-7.9201	-84.642588	0.000578	5.775475	1.956784	0.000231
1811	1.8009e+02	-7.8896	-84.448805	0.000486	4.863558	1.647818	0.000195
1812	1.8019e+02	-7.8527	-84.198503	0.000628	6.282096	2.128432	0.000252
1813	1.8029e+02	-7.8110	-83.972423	0.000567	5.674151	1.922455	0.000227
1814	1.8039e+02	-7.7741	-83.802864	0.000426	4.255613	1.441841	0.000170
1815	1.8049e+02	-7.7340	-83.536413	0.000669	6.687393	2.265750	0.000268
1816	1.8059e+02	-7.6923	-83.306296	0.000578	5.775475	1.956784	0.000231
1817	1.8069e+02	-7.6586	-83.051956	0.000638	6.383420	2.162761	0.000256
1818	1.8079e+02	-7.6041	-82.842025	0.000527	5.268855	1.785136	0.000211
1819	1.8089e+02	-7.5672	-82.628057	0.000537	5.370179	1.819466	0.000215
1820	1.8099e+02	-7.5303	-82.361606	0.000669	6.687393	2.265750	0.000268
1821	1.8109e+02	-7.4870	-82.143601	0.000547	5.471503	1.853795	0.000219
1822	1.8119e+02	-7.4404	-81.885224	0.000648	6.484744	2.197091	0.000260
1823	1.8129e+02	-7.4132	-81.703553	0.000456	4.559586	1.544830	0.000183
1824	1.8139e+02	-7.3666	-81.429028	0.000689	6.890041	2.334409	0.000276
1825	1.8149e+02	-7.3297	-81.202948	0.000567	5.674151	1.922455	0.000227
1826	1.8159e+02	-7.2977	-80.956683	0.000618	6.180772	2.094102	0.000248
1827	1.8169e+02	-7.2495	-80.742715	0.000537	5.370179	1.819466	0.000215
1828	1.8179e+02	-7.2190	-80.536821	0.000517	5.167531	1.750807	0.000207
1829	1.8189e+02	-7.1757	-80.238073	0.000750	7.497986	2.540386	0.000300
1830	1.8199e+02	-7.1308	-80.040253	0.000496	4.964882	1.682148	0.000199
1831	1.8209e+02	-7.0923	-79.822248	0.000547	5.471503	1.853795	0.000219
1832	1.8218e+02	-7.0554	-79.575983	0.000618	6.180772	2.094102	0.000248
1833	1.8228e+02	-7.0089	-79.297420	0.000699	6.991365	2.368739	0.000280
1834	1.8238e+02	-6.9672	-79.095563	0.000507	5.066207	1.716477	0.000203
1835	1.8248e+02	-6.9367	-78.808927	0.000719	7.194013	2.437398	0.000288
1836	1.8258e+02	-6.8902	-78.603033	0.000517	5.167531	1.750807	0.000207
1837	1.8268e+02	-6.8388	-78.385027	0.000547	5.471503	1.853795	0.000219
1838	1.8278e+02	-6.8003	-78.158948	0.000567	5.674151	1.922455	0.000227
1839	1.8288e+02	-6.7715	-77.932868	0.000567	5.674151	1.922455	0.000227
1840	1.8298e+02	-6.7330	-77.666417	0.000669	6.687393	2.265750	0.000268
1841	1.8308e+02	-6.6961	-77.424189	0.000608	6.079448	2.059773	0.000243
1842	1.8318e+02	-6.6544	-77.153701	0.000679	6.788717	2.300080	0.000272
1843	1.8328e+02	-6.6159	-76.984141	0.000426	4.255613	1.441841	0.000170
1844	1.8338e+02	-6.5725	-76.693468	0.000730	7.295337	2.471727	0.000292
1845	1.8348e+02	-6.5244	-76.487574	0.000517	5.167531	1.750807	0.000207
1846	1.8358e+02	-6.4955	-76.225160	0.000659	6.586069	2.231420	0.000264
1847	1.8368e+02	-6.4490	-75.986969	0.000598	5.978124	2.025443	0.000239
1848	1.8378e+02	-6.4217	-75.789149	0.000496	4.964882	1.682148	0.000199
1849	1.8388e+02	-6.3720	-75.530773	0.000648	6.484744	2.197091	0.000260
1850	1.8398e+02	-6.3447	-75.256247	0.000689	6.890041	2.334409	0.000276
1851	1.8407e+02	-6.2982	-75.058428	0.000496	4.964882	1.682148	0.000199
1852	1.8417e+02	-6.2581	-74.812162	0.000618	6.180772	2.094102	0.000248
1853	1.8427e+02	-6.2180	-74.553786	0.000648	6.484744	2.197091	0.000260
1854	1.8437e+02	-6.1731	-74.315595	0.000598	5.978124	2.025443	0.000239
1855	1.8447e+02	-6.1330	-74.105664	0.000527	5.268855	1.785136	0.000211
1856	1.8457e+02	-6.0961	-73.875547	0.000578	5.775475	1.956784	0.000231
1857	1.8467e+02	-6.0528	-73.653504	0.000557	5.572827	1.888125	0.000223
1858	1.8477e+02	-6.0127	-73.322459	0.000831	8.308579	2.815023	0.000333
1859	1.8487e+02	-5.9758	-73.051971	0.000679	6.788717	2.300080	0.000272
1860	1.8497e+02	-5.9325	-72.866263	0.000466	4.660910	1.579159	0.000187
1861	1.8507e+02	-5.9164	-72.579626	0.000719	7.194013	2.437398	0.000288
1862	1.8517e+02	-5.8619	-72.361621	0.000547	5.471503	1.853795	0.000219
1863	1.8527e+02	-5.8121	-72.095170	0.000669	6.687393	2.265750	0.000268
1864	1.8537e+02	-5.7833	-71.877165	0.000547	5.471503	1.853795	0.000219
1865	1.8547e+02	-5.7383	-71.634937	0.000608	6.079448	2.059773	0.000243
1866	1.8557e+02	-5.7063	-71.356374	0.000699	6.991365	2.368739	0.000280
1867	1.8567e+02	-5.6694	-71.106072	0.000628	6.282096	2.128432	0.000252
1868	1.8577e+02	-5.6196	-70.896141	0.000527	5.268855	1.785136	0.000211
1869	1.8587e+02	-5.5891	-70.653913	0.000608	6.079448	2.059773	0.000243
1870	1.8597e+02	-5.5362	-70.367276	0.000719	7.194013	2.437398	0.000288
1871	1.8606e+02	-5.5041	-70.121011	0.000618	6.180772	2.094102	0.000248
1872	1.8616e+02	-5.4544	-69.894931	0.000567	5.674151	1.922455	0.000227
1873	1.8626e+02	-5.4159	-69.656740	0.000598	5.978124	2.025443	0.000239
1874	1.8636e+02	-5.3838	-69.406438	0.000628	6.282096	2.128432	0.000252
1875	1.8646e+02	-5.3309	-69.135950	0.000679	6.788717	2.300080	0.000272
1876	1.8656e+02	-5.2876	-68.829127	0.000770	7.700634	2.609045	0.000308
1877	1.8666e+02	-5.2667	-68.619196	0.000527	5.268855	1.785136	0.000211
1878	1.8676e+02	-5.2202	-68.368894	0.000628	6.282096	2.128432	0.000252
1879	1.8686e+02	-5.1865	-68.066109	0.000760	7.599310	2.574716	0.000304
1880	1.8696e+02	-5.1368	-67.876363	0.000476	4.762234	1.613489	0.000191
1881	1.8706e+02	-5.1031	-67.573578	0.000760	7.599310	2.574716	0.000304
1882	1.8716e+02	-5.0630	-67.311164	0.000659	6.586069	2.231420	0.000264
1883	1.8726e+02	-5.0212	-67.064899	0.000618	6.180772	2.094102	0.000248
1884	1.8736e+02	-4.9763	-66.830745	0.000588	5.876800	1.991114	0.000235
1885	1.8746e+02	-4.9410	-66.536034	0.000740	7.396662	2.506057	0.000296
1886	1.8756e+02	-4.9057	-66.305917	0.000578	5.775475	1.956784	0.000231
1887	1.8766e+02	-4.8592	-66.023318	0.000709	7.092689	2.403068	0.000284
1888	1.8776e+02	-4.8191	-65.837610	0.000466	4.660910	1.579159	0.000187
1889	1.8786e+02	-4.7838	-65.579233	0.000648	6.484744	2.197091	0.000260
1890	1.8796e+02	-4.7373	-65.337005	0.000608	6.079448	2.059773	0.000243
1891	1.8806e+02	-4.7052	-65.022108	0.000790	7.903282	2.677704	0.000316
1892	1.8815e+02	-4.6667	-64.743546	0.000699	6.991365	2.368739	0.000280
1893	1.8825e+02	-4.6266	-64.485169	0.000648	6.484744	2.197091	0.000260
1894	1.8835e+02	-4.5881	-64.230830	0.000638	6.383420	2.162761	0.000256
1895	1.8845e+02	-4.5368	-63.996676	0.000588	5.876800	1.991114	0.000235
1896	1.8855e+02	-4.5095	-63.722150	0.000689	6.890041	2.334409	0.000276
1897	1.8865e+02	-4.4662	-63.475885	0.000618	6.180772	2.094102	0.000248
1898	1.8875e+02	-4.4084	-63.197323	0.000699	6.991365	2.368739	0.000280
1899	1.8885e+02	-4.3796	-62.866278	0.000831	8.308579	2.815023	0.000333
1900	1.8895e+02	-4.3459	-62.672495	0.000486	4.863558	1.647818	0.000195
1901	1.8905e+02	-4.3074	-62.442378	0.000578	5.775475	1.956784	0.000231
1902	1.8915e+02	-4.2544	-62.147668	0.000740	7.396662	2.506057	0.000296
1903	1.8925e+02	-4.2288	-61.869105	0.000699	6.991365	2.368739	0.000280
1904	1.8935e+02	-4.1822	-61.586506	0.000709	7.092689	2.403068	0.000284
1905	1.8945e+02	-4.1421	-61.344278	0.000608	6.079448	2.059773	0.000243
1906	1.8955e+02	-4.1052	-61.098012	0.000618	6.180772	2.094102	0.000248
1907	1.8965e+02	-4.0539	-60.851747	0.000618	6.180772	2.094102	0.000248
1908	1.8975e+02	-4.0298	-60.585296	0.000669	6.687393	2.265750	0.000268
1909	1.8985e+02	-3.9897	-60.262325	0.000811	8.105930	2.746364	0.000325
1910	1.8995e+02	-3.9512	-59.971651	0.000730	7.295337	2.471727	0.000292
1911	1.9004e+02	-3.8983	-59.769795	0.000507	5.066207	1.716477	0.000203
1912	1.9014e+02	-3.8678	-59.462972	0.000770	7.700634	2.609045	0.000308
1913	1.9024e+02	-3.8229	-59.240930	0.000557	5.572827	1.888125	0.000223
1914	1.9034e+02	-3.7828	-58.930070	0.000780	7.801958	2.643375	0.000312
1915	1.9044e+02	-3.7459	-58.671694	0.000648	6.484744	2.197091	0.000260
1916	1.9054e+02	-3.7026	-58.364871	0.000770	7.700634	2.609045	0.000308
1917	1.9064e+02	-3.6689	-58.146866	0.000547	5.471503	1.853795	0.000219
1918	1.9074e+02	-3.6320	-57.884452	0.000659	6.586069	2.231420	0.000264
1919	1.9084e+02	-3.5855	-57.613964	0.000679	6.788717	2.300080	0.000272
1920	1.9094e+02	-3.5470	-57.323290	0.000730	7.295337	2.471727	0.000292
1921	1.9104e+02	-3.5036	-57.052802	0.000679	6.788717	2.300080	0.000272
1922	1.9114e+02	-3.4603	-56.846908	0.000517	5.167531	1.750807	0.000207
1923	1.9124e+02	-3.4331	-56.568346	0.000699	6.991365	2.368739	0.000280
1924	1.9134e+02	-3.3849	-56.330155	0.000598	5.978124	2.025443	0.000239
1925	1.9144e+02	-3.3480	-55.995073	0.000841	8.409903	2.849352	0.000337
1926	1.9154e+02	-3.3015	-55.712473	0.000709	7.092689	2.403068	0.000284
1927	1.9164e+02	-3.2774	-55.441985	0.000679	6.788717	2.300080	0.000272
1928	1.9174e+02	-3.2261	-55.159386	0.000709	7.092689	2.403068	0.000284
1929	1.9184e+02	-3.1860	-54.917157	0.000608	6.079448	2.059773	0.000243
1930	1.9194e+02	-3.1523	-54.658781	0.000648	6.484744	2.197091	0.000260
1931	1.9203e+02	-3.1202	-54.339847	0.000800	8.004606	2.712034	0.000321
1932	1.9213e+02	-3.0641	-54.097619	0.000608	6.079448	2.059773	0.000243
1933	1.9223e+02	-3.0256	-53.786759	0.000780	7.801958	2.643375	0.000312
1934	1.9233e+02	-2.9919	-53.524346	0.000659	6.586069	2.231420	0.000264
1935	1.9243e+02	-2.9518	-53.314415	0.000527	5.268855	1.785136	0.000211
1936	1.9253e+02	-2.9133	-52.967221	0.000871	8.713875	2.952341	0.000349
1937	1.9263e+02	-2.8732	-52.688659	0.000699	6.991365	2.368739	0.000280
1938	1.9273e+02	-2.8315	-52.442393	0.000618	6.180772	2.094102	0.000248
1939	1.9283e+02	-2.7914	-52.119422	0.000811	8.105930	2.746364	0.000325
1940	1.9293e+02	-2.7481	-51.881231	0.000598	5.978124	2.025443	0.000239
1941	1.9303e+02	-2.7063	-51.622855	0.000648	6.484744	2.197091	0.000260
1942	1.9313e+02	-2.6678	-51.352367	0.000679	6.788717	2.300080	0.000272
1943	1.9323e+02	-2.6342	-51.077841	0.000689	6.890041	2.334409	0.000276
1944	1.9333e+02	-2.5908	-50.714499	0.000912	9.119172	3.089659	0.000365
1945	1.9343e+02	-2.5459	-50.512642	0.000507	5.066207	1.716477	0.000203
1946	1.9353e+02	-2.5090	-50.185634	0.000821	8.207255	2.780693	0.000329
1947	1.9363e+02	-2.4657	-49.874775	0.000780	7.801958	2.643375	0.000312
1948	1.9373e+02	-2.4304	-49.652732	0.000557	5.572827	1.888125	0.000223
1949	1.9383e+02	-2.3903	-49.362059	0.000730	7.295337	2.471727	0.000292
1950	1.9393e+02	-2.3566	-49.079459	0.000709	7.092689	2.403068	0.000284
1951	1.9403e+02	-2.3085	-48.804934	0.000689	6.890041	2.334409	0.000276
1952	1.9412e+02	-2.2716	-48.538483	0.000669	6.687393	2.265750	0.000268
1953	1.9422e+02	-2.2363	-48.239735	0.000750	7.497986	2.540386	0.000300
1954	1.9432e+02	-2.1818	-47.973284	0.000669	6.687393	2.265750	0.000268
1955	1.9442e+02	-2.1545	-47.646276	0.000821	8.207255	2.780693	0.000329
1956	1.9452e+02	-2.1128	-47.400011	0.000618	6.180772	2.094102	0.000248
1957	1.9462e+02	-2.0630	-47.117411	0.000709	7.092689	2.403068	0.000284
1958	1.9472e+02	-2.0310	-46.863072	0.000638	6.383420	2.162761	0.000256
1959	1.9482e+02	-2.0005	-46.560286	0.000760	7.599310	2.574716	0.000304
1960	1.9492e+02	-1.9475	-46.322095	0.000598	5.978124	2.025443	0.000239
1961	1.9502e+02	-1.9138	-45.995087	0.000821	8.207255	2.780693	0.000329
1962	1.9512e+02	-1.8705	-45.704414	0.000730	7.295337	2.471727	0.000292
1963	1.9522e+02	-1.8385	-45.421814	0.000709	7.092689	2.403068	0.000284
1964	1.9532e+02	-1.7935	-45.135178	0.000719	7.194013	2.437398	0.000288
1965	1.9542e+02	-1.7438	-44.808170	0.000821	8.207255	2.780693	0.000329
1966	1.9552e+02	-1.7133	-44.521533	0.000719	7.194013	2.437398	0.000288
1967	1.9562e+02	-1.6716	-44.279305	0.000608	6.079448	2.059773	0.000243
1968	1.9572e+02	-1.6379	-43.924037	0.000892	8.916524	3.021000	0.000357
1969	1.9582e+02	-1.5946	-43.706031	0.000547	5.471503	1.853795	0.000219
1970	1.9592e+02	-1.5609	-43.403246	0.000760	7.599310	2.574716	0.000304
1971	1.9601e+02	-1.5080	-43.104498	0.000750	7.497986	2.540386	0.000300
1972	1.9611e+02	-1.4775	-42.846122	0.000648	6.484744	2.197091	0.000260
1973	1.9621e+02	-1.4326	-42.547374	0.000750	7.497986	2.540386	0.000300
1974	1.9631e+02	-1.3893	-42.268811	0.000699	6.991365	2.368739	0.000280
1975	1.9641e+02	-1.3572	-41.998323	0.000679	6.788717	2.300080	0.000272
1976	1.9651e+02	-1.3203	-41.760132	0.000598	5.978124	2.025443	0.000239
1977	1.9661e+02	-1.2738	-41.421013	0.000851	8.511227	2.883682	0.000341
1978	1.9671e+02	-1.2369	-41.174747	0.000618	6.180772	2.094102	0.000248
1979	1.9681e+02	-1.1952	-40.884074	0.000730	7.295337	2.471727	0.000292
1980	1.9691e+02	-1.1518	-40.524769	0.000902	9.017848	3.055329	0.000361
1981	1.9701e+02	-1.1262	-40.270429	0.000638	6.383420	2.162761	0.000256
1982	1.9711e+02	-1.0764	-39.919198	0.000882	8.815199	2.986670	0.000353
1983	1.9721e+02	-1.0411	-39.668896	0.000628	6.282096	2.128432	0.000252
1984	1.9731e+02	-1.0042	-39.333813	0.000841	8.409903	2.849352	0.000337
1985	1.9741e+02	-0.9609	-39.051214	0.000709	7.092689	2.403068	0.000284
1986	1.9751e+02	-0.9224	-38.760540	0.000730	7.295337	2.471727	0.000292
1987	1.9761e+02	-0.8823	-38.465829	0.000740	7.396662	2.506057	0.000296
1988	1.9771e+02	-0.8358	-38.191304	0.000689	6.890041	2.334409	0.000276
1989	1.9781e+02	-0.7973	-37.844110	0.000871	8.713875	2.952341	0.000349
1990	1.9791e+02	-0.7620	-37.585734	0.000648	6.484744	2.197091	0.000260
1991	1.9800e+02	-0.7187	-37.307171	0.000699	6.991365	2.368739	0.000280
1992	1.9810e+02	-0.6738	-37.020535	0.000719	7.194013	2.437398	0.000288
1993	1.9820e+02	-0.6369	-36.713712	0.000770	7.700634	2.609045	0.000308
1994	1.9830e+02	-0.6000	-36.487633	0.000567	5.674151	1.922455	0.000227
1995	1.9840e+02	-0.5599	-36.168699	0.000800	8.004606	2.712034	0.000321
1996	1.9850e+02	-0.5182	-35.890137	0.000699	6.991365	2.368739	0.000280
1997	1.9860e+02	-0.4797	-35.563129	0.000821	8.207255	2.780693	0.000329
1998	1.9870e+02	-0.4492	-35.264381	0.000750	7.497986	2.540386	0.000300
1999	1.9880e+02	-0.3995	-34.933336	0.000831	8.308579	2.815023	0.000333
2000	1.9890e+02	-0.3610	-34.626513	0.000770	7.700634	2.609045	0.000308
2001	1.9900e+02	-0.3225	-34.327765	0.000750	7.497986	2.540386	0.000300
2002	1.9910e+02	-0.2856	-34.037091	0.000730	7.295337	2.471727	0.000292
2003	1.9920e+02	-0.2374	-33.710083	0.000821	8.207255	2.780693	0.000329
2004	1.9930e+02	-0.1989	-33.427484	0.000709	7.092689	2.403068	0.000284
2005	1.9940e+02	-0.1668	-33.096439	0.000831	8.308579	2.815023	0.000333
2006	1.9950e+02	-0.1235	-32.801728	0.000740	7.396662	2.506057	0.000296
2007	1.9960e+02	-0.0770	-32.515091	0.000719	7.194013	2.437398	0.000288
2008	1.9970e+02	-0.0289	-32.252677	0.000659	6.586069	2.231420	0.000264
2009	1.9980e+02	0.0064	-31.925669	0.000659	6.586069	2.231420	0.000329

Center data before PMax,+/-Pr and +/-Vc Calc.

PMax (uC/cm2):	1.36e+02
Pr (uC/cm2):	2.08e+01
-Pr (uC/cm2):	-3.19e+01
PLoss (uC/cm2):	-3.91e+01
-Vc:	-2.71e+00
C (Max-Eff) (nF):	6.78e-01
K (Eff):	2.30e+03
Vert. (+/-Pr) Shift (uC/cm2):	-5.55e+00
Offset (uC/cm2):	-7.25e+00

A (Loop Area - uC/cm2·Volts):	3.94e-01



Hysteresis Version: 5.48.1 - Radiant Technologies, Inc., 1999 - 9/12/24

