»»»»»»»»»»»»»»»»»»»»»»»»»»»»»»»»»»»» Hysteresis ««««««««««««««««««««««««««««««««««««
»»»  Executed Version:	5.48.1
»»»  Vision Version:	5.48.4 (R)
»»»  Vision Compiled:	9/18/24
»»»  Driver Version:	5.47.0
»»»  Windows Version:	Windows 8 or 8.1
»»»  Processor Information:	x86 (AMD or Intel) - 32 Processors
»»»  Tester Name:	PMF21124-494 (100V)
»»»  Tester S/N:	PMF21124-494
»»»  Internal Amp Type:	100V RevK 270k
»»»  Internal Amp S/N:	iAB2-596/K     
»»»  Execution Count:	1
»»»»»»»»»»»»»»»»»»»»»»»»»»»»»»»»»»»»»»»»»»««««««««««««««««««««««««««««««««««««««««««

Stored:	6/5/2025 - 10:53:36
Configured:	06/05/25 10:43:40 AM
Executed:	06/05/25 10:52:55 AM

»»»»»»»»»»»»»»»»»»»»»»»»»»»»»»»»»»» Sample Info ««««««««««««««««««««««««««««««««««««
Sample Name:	
Lot Name:	
Wafer Name:	
Die Row/Column:	0/0
Capacitor Number:	0
Sample Area (cm2):	1.00e-04
Sample Thickness (microns):	3.00e-01

Amplifier:	Internal

»»»»»»»»»»»»»»»»»»»»»»»»»»»»»»»»»»» Tester Info «««««««««««««««««««««««««««««««««««
Tester Name:	PMF21124-494 (100V)
Tester Serial Number:	PMF21124-494
Return Signal Amp. Level:	0.19 [Index: 3]

»»»»»»»»»»»»»»»»»»»»»»»»»»»»»»»» Hysteresis Info ««««««««««««««««««««««««««««««««««
Task Name:	Hyst-187
Volts:	20.00
Field:	666.67 (kV/cm)
DCBias:	0.00
DCField:	0.00 (kV/cm)
Hysteresis Period (ms):	2.00e+02
Preset:	Enabled
Preset Delay (ms):	1.00e+03
Profile:	Standard Bipolar

»»»»»»»»»»»»»»»»»»»»»»»»»»»»»»»»»»»»»» Data «««««««««««««««««««««««««««««««««««««««
Points:	2009

Valid Data

Point	Time (ms)	Drive Voltage	Measured Polarization (uC/cm2)	Capacitance (uF)	Normalized Capacitance (uF/cm2)	Dielectric Constant	Instantaneous Current (mA)
   1	0.0000e+00	-0.0193	-0.932578	0.000507	5.067527	1.716925	0.000203
   2	9.9500e-02	0.0096	-0.730722	0.000507	5.067527	1.716925	0.000203
   3	1.9900e-01	0.0594	-0.476382	0.000639	6.385085	2.163325	0.000256
   4	2.9850e-01	0.0882	-0.197820	0.000699	6.993188	2.369356	0.000280
   5	3.9800e-01	0.1219	0.060557	0.000649	6.486435	2.197664	0.000260
   6	4.9750e-01	0.1684	0.294711	0.000588	5.878332	1.991633	0.000235
   7	5.9700e-01	0.2166	0.577310	0.000709	7.094538	2.403695	0.000284
   8	6.9650e-01	0.2438	0.843761	0.000669	6.689136	2.266341	0.000268
   9	7.9600e-01	0.2936	1.110212	0.000669	6.689136	2.266341	0.000268
  10	8.9550e-01	0.3353	1.364552	0.000639	6.385085	2.163325	0.000256
  11	9.9500e-01	0.3722	1.675411	0.000780	7.803992	2.644064	0.000312
  12	1.0945e+00	0.4139	1.897454	0.000557	5.574280	1.888617	0.000223
  13	1.1940e+00	0.4396	2.192165	0.000740	7.398590	2.506710	0.000296
  14	1.2935e+00	0.4941	2.438430	0.000618	6.182384	2.094648	0.000248
  15	1.3930e+00	0.5198	2.733141	0.000740	7.398590	2.506710	0.000296
  16	1.4925e+00	0.5711	2.967295	0.000588	5.878332	1.991633	0.000235
  17	1.5920e+00	0.6128	3.253931	0.000720	7.195889	2.438033	0.000288
  18	1.6915e+00	0.6529	3.512308	0.000649	6.486435	2.197664	0.000260
  19	1.7910e+00	0.6914	3.807019	0.000740	7.398590	2.506710	0.000296
  20	1.8905e+00	0.7331	4.093656	0.000720	7.195889	2.438033	0.000288
  21	1.9900e+00	0.7588	4.327810	0.000588	5.878332	1.991633	0.000235
  22	2.0895e+00	0.8133	4.626558	0.000750	7.499941	2.541049	0.000300
  23	2.1890e+00	0.8470	4.880897	0.000639	6.385085	2.163325	0.000256
  24	2.2885e+00	0.9000	5.171571	0.000730	7.297240	2.472372	0.000292
  25	2.3880e+00	0.9240	5.438022	0.000669	6.689136	2.266341	0.000268
  26	2.4875e+00	0.9641	5.708510	0.000679	6.790487	2.300679	0.000272
  27	2.5870e+00	1.0107	5.987072	0.000699	6.993188	2.369356	0.000280
  28	2.6865e+00	1.0508	6.265635	0.000699	6.993188	2.369356	0.000280
  29	2.7860e+00	1.0893	6.540160	0.000689	6.891837	2.335018	0.000276
  30	2.8855e+00	1.1262	6.798537	0.000649	6.486435	2.197664	0.000260
  31	2.9850e+00	1.1631	7.085173	0.000720	7.195889	2.438033	0.000288
  32	3.0845e+00	1.2032	7.351624	0.000669	6.689136	2.266341	0.000268
  33	3.1840e+00	1.2449	7.662484	0.000780	7.803992	2.644064	0.000312
  34	3.2835e+00	1.2930	7.904712	0.000608	6.081033	2.060310	0.000243
  35	3.3830e+00	1.3283	8.219608	0.000791	7.905343	2.678403	0.000316
  36	3.4825e+00	1.3588	8.461837	0.000608	6.081033	2.060310	0.000243
  37	3.5820e+00	1.4053	8.740399	0.000699	6.993188	2.369356	0.000280
  38	3.6815e+00	1.4438	8.998776	0.000649	6.486435	2.197664	0.000260
  39	3.7810e+00	1.4919	9.305598	0.000770	7.702642	2.609726	0.000308
  40	3.8805e+00	1.5336	9.608383	0.000760	7.601291	2.575387	0.000304
  41	3.9800e+00	1.5705	9.838500	0.000578	5.776981	1.957294	0.000231
  42	4.0795e+00	1.6026	10.189731	0.000882	8.817498	2.987449	0.000353
  43	4.1790e+00	1.6443	10.444070	0.000639	6.385085	2.163325	0.000256
  44	4.2785e+00	1.6780	10.690335	0.000618	6.182384	2.094648	0.000248
  45	4.3780e+00	1.7390	10.952749	0.000659	6.587786	2.232002	0.000264
  46	4.4775e+00	1.7711	11.271683	0.000801	8.006693	2.712741	0.000321
  47	4.5770e+00	1.7999	11.594654	0.000811	8.108044	2.747080	0.000325
  48	4.6765e+00	1.8497	11.804585	0.000527	5.270229	1.785602	0.000211
  49	4.7760e+00	1.8898	12.099296	0.000740	7.398590	2.506710	0.000296
  50	4.8755e+00	1.9155	12.410155	0.000780	7.803992	2.644064	0.000312
  51	4.9750e+00	1.9652	12.664495	0.000639	6.385085	2.163325	0.000256
  52	5.0745e+00	2.0037	12.922871	0.000649	6.486435	2.197664	0.000260
  53	5.1740e+00	2.0406	13.225657	0.000760	7.601291	2.575387	0.000304
  54	5.2735e+00	2.0855	13.492108	0.000669	6.689136	2.266341	0.000268
  55	5.3730e+00	2.1224	13.823153	0.000831	8.310745	2.815757	0.000333
  56	5.4725e+00	2.1625	14.089604	0.000669	6.689136	2.266341	0.000268
  57	5.5720e+00	2.2042	14.323758	0.000588	5.878332	1.991633	0.000235
  58	5.6715e+00	2.2379	14.699211	0.000943	9.425601	3.193480	0.000377
  59	5.7710e+00	2.2908	14.949514	0.000628	6.283734	2.128987	0.000252
  60	5.8705e+00	2.3229	15.207890	0.000649	6.486435	2.197664	0.000260
  61	5.9700e+00	2.3614	15.530861	0.000811	8.108044	2.747080	0.000325
  62	6.0695e+00	2.4112	15.809424	0.000699	6.993188	2.369356	0.000280
  63	6.1690e+00	2.4449	16.112209	0.000760	7.601291	2.575387	0.000304
  64	6.2685e+00	2.4898	16.410957	0.000750	7.499941	2.541049	0.000300
  65	6.3680e+00	2.5267	16.645111	0.000588	5.878332	1.991633	0.000235
  66	6.4675e+00	2.5652	16.992304	0.000872	8.716147	2.953111	0.000349
  67	6.5670e+00	2.6037	17.258755	0.000669	6.689136	2.266341	0.000268
  68	6.6665e+00	2.6438	17.529243	0.000679	6.790487	2.300679	0.000272
  69	6.7660e+00	2.6743	17.803769	0.000689	6.891837	2.335018	0.000276
  70	6.8655e+00	2.7256	18.146925	0.000861	8.614797	2.918772	0.000345
  71	6.9650e+00	2.7593	18.401265	0.000639	6.385085	2.163325	0.000256
  72	7.0645e+00	2.7994	18.679827	0.000699	6.993188	2.369356	0.000280
  73	7.1640e+00	2.8443	18.982612	0.000760	7.601291	2.575387	0.000304
  74	7.2635e+00	2.8780	19.245026	0.000659	6.587786	2.232002	0.000264
  75	7.3630e+00	2.9245	19.543774	0.000750	7.499941	2.541049	0.000300
  76	7.4625e+00	2.9582	19.854634	0.000780	7.803992	2.644064	0.000312
  77	7.5620e+00	3.0063	20.108973	0.000639	6.385085	2.163325	0.000256
  78	7.6615e+00	3.0384	20.407721	0.000750	7.499941	2.541049	0.000300
  79	7.7610e+00	3.0865	20.714543	0.000770	7.702642	2.609726	0.000308
  80	7.8605e+00	3.1218	20.985032	0.000679	6.790487	2.300679	0.000272
  81	7.9600e+00	3.1603	21.259557	0.000689	6.891837	2.335018	0.000276
  82	8.0595e+00	3.1972	21.530045	0.000679	6.790487	2.300679	0.000272
  83	8.1590e+00	3.2341	21.816682	0.000720	7.195889	2.438033	0.000288
  84	8.2585e+00	3.2855	22.131578	0.000791	7.905343	2.678403	0.000316
  85	8.3580e+00	3.3192	22.414178	0.000709	7.094538	2.403695	0.000284
  86	8.4575e+00	3.3432	22.704851	0.000730	7.297240	2.472372	0.000292
  87	8.5570e+00	3.4010	22.926894	0.000557	5.574280	1.888617	0.000223
  88	8.6565e+00	3.4411	23.233716	0.000770	7.702642	2.609726	0.000308
  89	8.7560e+00	3.4748	23.532464	0.000750	7.499941	2.541049	0.000300
  90	8.8555e+00	3.5197	23.798915	0.000669	6.689136	2.266341	0.000268
  91	8.9550e+00	3.5614	24.117849	0.000801	8.006693	2.712741	0.000321
  92	9.0545e+00	3.5983	24.380263	0.000659	6.587786	2.232002	0.000264
  93	9.1540e+00	3.6352	24.699196	0.000801	8.006693	2.712741	0.000321
  94	9.2535e+00	3.6785	24.929313	0.000578	5.776981	1.957294	0.000231
  95	9.3530e+00	3.7234	25.252284	0.000811	8.108044	2.747080	0.000325
  96	9.4525e+00	3.7539	25.526809	0.000689	6.891837	2.335018	0.000276
  97	9.5520e+00	3.7988	25.805372	0.000699	6.993188	2.369356	0.000280
  98	9.6515e+00	3.8453	26.108157	0.000760	7.601291	2.575387	0.000304
  99	9.7510e+00	3.8726	26.370571	0.000659	6.587786	2.232002	0.000264
 100	9.8505e+00	3.9143	26.657207	0.000720	7.195889	2.438033	0.000288
 101	9.9500e+00	3.9609	26.968067	0.000780	7.803992	2.644064	0.000312
 102	1.0050e+01	3.9929	27.206258	0.000598	5.979682	2.025971	0.000239
 103	1.0149e+01	4.0411	27.505006	0.000750	7.499941	2.541049	0.000300
 104	1.0248e+01	4.0828	27.799717	0.000740	7.398590	2.506710	0.000296
 105	1.0348e+01	4.1229	28.066168	0.000669	6.689136	2.266341	0.000268
 106	1.0447e+01	4.1518	28.348767	0.000709	7.094538	2.403695	0.000284
 107	1.0547e+01	4.1967	28.635404	0.000720	7.195889	2.438033	0.000288
 108	1.0646e+01	4.2336	28.930115	0.000740	7.398590	2.506710	0.000296
 109	1.0746e+01	4.2801	29.224826	0.000740	7.398590	2.506710	0.000296
 110	1.0845e+01	4.3186	29.495314	0.000679	6.790487	2.300679	0.000272
 111	1.0945e+01	4.3491	29.810210	0.000791	7.905343	2.678403	0.000316
 112	1.1044e+01	4.4052	30.052438	0.000608	6.081033	2.060310	0.000243
 113	1.1144e+01	4.4389	30.351186	0.000750	7.499941	2.541049	0.000300
 114	1.1243e+01	4.4694	30.625712	0.000689	6.891837	2.335018	0.000276
 115	1.1343e+01	4.5207	30.912348	0.000720	7.195889	2.438033	0.000288
 116	1.1443e+01	4.5592	31.186874	0.000689	6.891837	2.335018	0.000276
 117	1.1542e+01	4.6009	31.477547	0.000730	7.297240	2.472372	0.000292
 118	1.1642e+01	4.6330	31.723813	0.000618	6.182384	2.094648	0.000248
 119	1.1741e+01	4.6812	32.042746	0.000801	8.006693	2.712741	0.000321
 120	1.1841e+01	4.7213	32.313234	0.000679	6.790487	2.300679	0.000272
 121	1.1940e+01	4.7501	32.575648	0.000659	6.587786	2.232002	0.000264
 122	1.2040e+01	4.7967	32.874396	0.000750	7.499941	2.541049	0.000300
 123	1.2139e+01	4.8352	33.132773	0.000649	6.486435	2.197664	0.000260
 124	1.2239e+01	4.8769	33.415373	0.000709	7.094538	2.403695	0.000284
 125	1.2338e+01	4.9122	33.669712	0.000639	6.385085	2.163325	0.000256
 126	1.2438e+01	4.9619	33.948274	0.000699	6.993188	2.369356	0.000280
 127	1.2537e+01	4.9876	34.226837	0.000699	6.993188	2.369356	0.000280
 128	1.2636e+01	5.0325	34.517511	0.000730	7.297240	2.472372	0.000292
 129	1.2736e+01	5.0726	34.787999	0.000679	6.790487	2.300679	0.000272
 130	1.2835e+01	5.1159	35.050412	0.000659	6.587786	2.232002	0.000264
 131	1.2935e+01	5.1528	35.349161	0.000750	7.499941	2.541049	0.000300
 132	1.3034e+01	5.2057	35.611574	0.000659	6.587786	2.232002	0.000264
 133	1.3134e+01	5.2346	35.898211	0.000720	7.195889	2.438033	0.000288
 134	1.3233e+01	5.2699	36.148513	0.000628	6.283734	2.128987	0.000252
 135	1.3333e+01	5.3084	36.447261	0.000750	7.499941	2.541049	0.000300
 136	1.3432e+01	5.3517	36.725824	0.000699	6.993188	2.369356	0.000280
 137	1.3532e+01	5.3934	36.988238	0.000659	6.587786	2.232002	0.000264
 138	1.3632e+01	5.4383	37.238540	0.000628	6.283734	2.128987	0.000252
 139	1.3731e+01	5.4769	37.521140	0.000709	7.094538	2.403695	0.000284
 140	1.3831e+01	5.5057	37.807776	0.000720	7.195889	2.438033	0.000288
 141	1.3930e+01	5.5539	38.118636	0.000780	7.803992	2.644064	0.000312
 142	1.4030e+01	5.5924	38.332604	0.000537	5.371579	1.819940	0.000215
 143	1.4129e+01	5.6260	38.635389	0.000760	7.601291	2.575387	0.000304
 144	1.4229e+01	5.6758	38.873580	0.000598	5.979682	2.025971	0.000239
 145	1.4328e+01	5.7111	39.192514	0.000801	8.006693	2.712741	0.000321
 146	1.4428e+01	5.7480	39.422630	0.000578	5.776981	1.957294	0.000231
 147	1.4527e+01	5.7817	39.713304	0.000730	7.297240	2.472372	0.000292
 148	1.4627e+01	5.8234	40.003978	0.000730	7.297240	2.472372	0.000292
 149	1.4726e+01	5.8699	40.282540	0.000699	6.993188	2.369356	0.000280
 150	1.4825e+01	5.9116	40.524769	0.000608	6.081033	2.060310	0.000243
 151	1.4925e+01	5.9501	40.823517	0.000750	7.499941	2.541049	0.000300
 152	1.5024e+01	5.9934	41.053633	0.000578	5.776981	1.957294	0.000231
 153	1.5124e+01	6.0255	41.316047	0.000659	6.587786	2.232002	0.000264
 154	1.5223e+01	6.0736	41.622869	0.000770	7.702642	2.609726	0.000308
 155	1.5323e+01	6.1137	41.877209	0.000639	6.385085	2.163325	0.000256
 156	1.5422e+01	6.1538	42.179994	0.000760	7.601291	2.575387	0.000304
 157	1.5522e+01	6.1907	42.418185	0.000598	5.979682	2.025971	0.000239
 158	1.5621e+01	6.2260	42.712896	0.000740	7.398590	2.506710	0.000296
 159	1.5721e+01	6.2677	42.934939	0.000557	5.574280	1.888617	0.000223
 160	1.5820e+01	6.3062	43.201390	0.000669	6.689136	2.266341	0.000268
 161	1.5920e+01	6.3528	43.492063	0.000730	7.297240	2.472372	0.000292
 162	1.6020e+01	6.3945	43.774663	0.000709	7.094538	2.403695	0.000284
 163	1.6119e+01	6.4266	44.053225	0.000699	6.993188	2.369356	0.000280
 164	1.6218e+01	6.4667	44.307565	0.000639	6.385085	2.163325	0.000256
 165	1.6318e+01	6.5116	44.553830	0.000618	6.182384	2.094648	0.000248
 166	1.6418e+01	6.5581	44.816244	0.000659	6.587786	2.232002	0.000264
 167	1.6517e+01	6.5918	45.127103	0.000780	7.803992	2.644064	0.000312
 168	1.6616e+01	6.6223	45.373369	0.000618	6.182384	2.094648	0.000248
 169	1.6716e+01	6.6672	45.651931	0.000699	6.993188	2.369356	0.000280
 170	1.6816e+01	6.7057	45.930493	0.000699	6.993188	2.369356	0.000280
 171	1.6915e+01	6.7346	46.184833	0.000639	6.385085	2.163325	0.000256
 172	1.7015e+01	6.7891	46.467432	0.000709	7.094538	2.403695	0.000284
 173	1.7114e+01	6.8212	46.717735	0.000628	6.283734	2.128987	0.000252
 174	1.7213e+01	6.8613	46.988223	0.000679	6.790487	2.300679	0.000272
 175	1.7313e+01	6.9014	47.250637	0.000659	6.587786	2.232002	0.000264
 176	1.7413e+01	6.9479	47.549385	0.000750	7.499941	2.541049	0.000300
 177	1.7512e+01	6.9864	47.799687	0.000628	6.283734	2.128987	0.000252
 178	1.7611e+01	7.0185	47.997507	0.000497	4.966177	1.682586	0.000199
 179	1.7711e+01	7.0682	48.328552	0.000831	8.310745	2.815757	0.000333
 180	1.7811e+01	7.1116	48.550594	0.000557	5.574280	1.888617	0.000223
 181	1.7910e+01	7.1420	48.873565	0.000811	8.108044	2.747080	0.000325
 182	1.8009e+01	7.1870	49.103682	0.000578	5.776981	1.957294	0.000231
 183	1.8109e+01	7.2271	49.386281	0.000709	7.094538	2.403695	0.000284
 184	1.8209e+01	7.2608	49.672918	0.000720	7.195889	2.438033	0.000288
 185	1.8308e+01	7.3041	49.898998	0.000568	5.675631	1.922956	0.000227
 186	1.8407e+01	7.3522	50.157374	0.000649	6.486435	2.197664	0.000260
 187	1.8507e+01	7.3859	50.423825	0.000669	6.689136	2.266341	0.000268
 188	1.8607e+01	7.4244	50.690276	0.000669	6.689136	2.266341	0.000268
 189	1.8706e+01	7.4661	50.960764	0.000679	6.790487	2.300679	0.000272
 190	1.8805e+01	7.4966	51.235290	0.000689	6.891837	2.335018	0.000276
 191	1.8905e+01	7.5463	51.481555	0.000618	6.182384	2.094648	0.000248
 192	1.9005e+01	7.5832	51.768192	0.000720	7.195889	2.438033	0.000288
 193	1.9104e+01	7.6185	51.982160	0.000537	5.371579	1.819940	0.000215
 194	1.9203e+01	7.6650	52.260722	0.000699	6.993188	2.369356	0.000280
 195	1.9303e+01	7.7035	52.547359	0.000720	7.195889	2.438033	0.000288
 196	1.9402e+01	7.7388	52.777476	0.000578	5.776981	1.957294	0.000231
 197	1.9502e+01	7.7950	53.060075	0.000709	7.094538	2.403695	0.000284
 198	1.9602e+01	7.8287	53.318452	0.000649	6.486435	2.197664	0.000260
 199	1.9701e+01	7.8623	53.588940	0.000679	6.790487	2.300679	0.000272
 200	1.9800e+01	7.9073	53.847316	0.000649	6.486435	2.197664	0.000260
 201	1.9900e+01	7.9329	54.117805	0.000679	6.790487	2.300679	0.000272
 202	2.0000e+01	7.9714	54.355996	0.000598	5.979682	2.025971	0.000239
 203	2.0099e+01	8.0212	54.654744	0.000750	7.499941	2.541049	0.000300
 204	2.0198e+01	8.0613	54.888897	0.000588	5.878332	1.991633	0.000235
 205	2.0298e+01	8.1046	55.123051	0.000588	5.878332	1.991633	0.000235
 206	2.0398e+01	8.1399	55.389502	0.000669	6.689136	2.266341	0.000268
 207	2.0497e+01	8.1816	55.627693	0.000598	5.979682	2.025971	0.000239
 208	2.0596e+01	8.2089	55.898181	0.000679	6.790487	2.300679	0.000272
 209	2.0696e+01	8.2634	56.192892	0.000740	7.398590	2.506710	0.000296
 210	2.0796e+01	8.3003	56.439158	0.000618	6.182384	2.094648	0.000248
 211	2.0895e+01	8.3452	56.705609	0.000669	6.689136	2.266341	0.000268
 212	2.0994e+01	8.3757	56.988208	0.000709	7.094538	2.403695	0.000284
 213	2.1094e+01	8.4126	57.206213	0.000547	5.472930	1.854279	0.000219
 214	2.1194e+01	8.4575	57.464590	0.000649	6.486435	2.197664	0.000260
 215	2.1293e+01	8.5040	57.755264	0.000730	7.297240	2.472372	0.000292
 216	2.1392e+01	8.5457	57.997492	0.000608	6.081033	2.060310	0.000243
 217	2.1492e+01	8.5762	58.255869	0.000649	6.486435	2.197664	0.000260
 218	2.1591e+01	8.6324	58.518283	0.000659	6.587786	2.232002	0.000264
 219	2.1691e+01	8.6516	58.760511	0.000608	6.081033	2.060310	0.000243
 220	2.1791e+01	8.7030	58.994665	0.000588	5.878332	1.991633	0.000235
 221	2.1890e+01	8.7415	59.273227	0.000699	6.993188	2.369356	0.000280
 222	2.1989e+01	8.7816	59.515455	0.000608	6.081033	2.060310	0.000243
 223	2.2089e+01	8.8201	59.781906	0.000669	6.689136	2.266341	0.000268
 224	2.2189e+01	8.8586	60.044320	0.000659	6.587786	2.232002	0.000264
 225	2.2288e+01	8.9019	60.290585	0.000618	6.182384	2.094648	0.000248
 226	2.2387e+01	8.9372	60.548962	0.000649	6.486435	2.197664	0.000260
 227	2.2487e+01	8.9773	60.819450	0.000679	6.790487	2.300679	0.000272
 228	2.2587e+01	9.0094	61.081864	0.000659	6.587786	2.232002	0.000264
 229	2.2686e+01	9.0591	61.348315	0.000669	6.689136	2.266341	0.000268
 230	2.2785e+01	9.0992	61.622840	0.000689	6.891837	2.335018	0.000276
 231	2.2885e+01	9.1393	61.848920	0.000568	5.675631	1.922956	0.000227
 232	2.2985e+01	9.1746	62.123445	0.000689	6.891837	2.335018	0.000276
 233	2.3084e+01	9.2083	62.377784	0.000639	6.385085	2.163325	0.000256
 234	2.3183e+01	9.2516	62.640198	0.000659	6.587786	2.232002	0.000264
 235	2.3283e+01	9.2981	62.942983	0.000760	7.601291	2.575387	0.000304
 236	2.3383e+01	9.3350	63.173100	0.000578	5.776981	1.957294	0.000231
 237	2.3482e+01	9.3799	63.431477	0.000649	6.486435	2.197664	0.000260
 238	2.3581e+01	9.4185	63.738299	0.000770	7.702642	2.609726	0.000308
 239	2.3681e+01	9.4682	63.956304	0.000547	5.472930	1.854279	0.000219
 240	2.3780e+01	9.4874	64.202570	0.000618	6.182384	2.094648	0.000248
 241	2.3880e+01	9.5324	64.464983	0.000659	6.587786	2.232002	0.000264
 242	2.3980e+01	9.5725	64.695100	0.000578	5.776981	1.957294	0.000231
 243	2.4079e+01	9.6142	64.989811	0.000740	7.398590	2.506710	0.000296
 244	2.4178e+01	9.6559	65.223965	0.000588	5.878332	1.991633	0.000235
 245	2.4278e+01	9.6976	65.474267	0.000628	6.283734	2.128987	0.000252
 246	2.4378e+01	9.7345	65.716496	0.000608	6.081033	2.060310	0.000243
 247	2.4477e+01	9.7714	65.982947	0.000669	6.689136	2.266341	0.000268
 248	2.4576e+01	9.8115	66.221138	0.000598	5.979682	2.025971	0.000239
 249	2.4676e+01	9.8564	66.487588	0.000669	6.689136	2.266341	0.000268
 250	2.4776e+01	9.8901	66.754039	0.000669	6.689136	2.266341	0.000268
 251	2.4875e+01	9.9302	66.984156	0.000578	5.776981	1.957294	0.000231
 252	2.4974e+01	9.9719	67.222347	0.000598	5.979682	2.025971	0.000239
 253	2.5074e+01	10.0072	67.500910	0.000699	6.993188	2.369356	0.000280
 254	2.5174e+01	10.0553	67.747175	0.000618	6.182384	2.094648	0.000248
 255	2.5273e+01	10.0938	67.973254	0.000568	5.675631	1.922956	0.000227
 256	2.5372e+01	10.1339	68.255854	0.000709	7.094538	2.403695	0.000284
 257	2.5472e+01	10.1756	68.481934	0.000568	5.675631	1.922956	0.000227
 258	2.5572e+01	10.2158	68.752422	0.000679	6.790487	2.300679	0.000272
 259	2.5671e+01	10.2527	68.990613	0.000598	5.979682	2.025971	0.000239
 260	2.5770e+01	10.2976	69.257064	0.000669	6.689136	2.266341	0.000268
 261	2.5870e+01	10.3441	69.499292	0.000608	6.081033	2.060310	0.000243
 262	2.5970e+01	10.3778	69.697111	0.000497	4.966177	1.682586	0.000199
 263	2.6069e+01	10.4115	70.007971	0.000780	7.803992	2.644064	0.000312
 264	2.6169e+01	10.4532	70.217902	0.000527	5.270229	1.785602	0.000211
 265	2.6268e+01	10.4917	70.504539	0.000720	7.195889	2.438033	0.000288
 266	2.6367e+01	10.5286	70.758878	0.000639	6.385085	2.163325	0.000256
 267	2.6467e+01	10.5671	70.993032	0.000588	5.878332	1.991633	0.000235
 268	2.6567e+01	10.6120	71.223149	0.000578	5.776981	1.957294	0.000231
 269	2.6666e+01	10.6441	71.489600	0.000669	6.689136	2.266341	0.000268
 270	2.6765e+01	10.6938	71.707605	0.000547	5.472930	1.854279	0.000219
 271	2.6865e+01	10.7323	71.953870	0.000618	6.182384	2.094648	0.000248
 272	2.6965e+01	10.7692	72.236470	0.000709	7.094538	2.403695	0.000284
 273	2.7064e+01	10.8206	72.486772	0.000628	6.283734	2.128987	0.000252
 274	2.7163e+01	10.8510	72.688629	0.000507	5.067527	1.716925	0.000203
 275	2.7263e+01	10.8959	72.938931	0.000628	6.283734	2.128987	0.000252
 276	2.7363e+01	10.9345	73.221531	0.000709	7.094538	2.403695	0.000284
 277	2.7462e+01	10.9697	73.459722	0.000598	5.979682	2.025971	0.000239
 278	2.7561e+01	11.0115	73.677727	0.000547	5.472930	1.854279	0.000219
 279	2.7661e+01	11.0451	73.932067	0.000639	6.385085	2.163325	0.000256
 280	2.7761e+01	11.0804	74.174295	0.000608	6.081033	2.060310	0.000243
 281	2.7860e+01	11.1318	74.412486	0.000598	5.979682	2.025971	0.000239
 282	2.7959e+01	11.1735	74.674900	0.000659	6.587786	2.232002	0.000264
 283	2.8059e+01	11.2008	74.868682	0.000486	4.864826	1.648248	0.000195
 284	2.8159e+01	11.2425	75.131096	0.000659	6.587786	2.232002	0.000264
 285	2.8258e+01	11.2858	75.397547	0.000669	6.689136	2.266341	0.000268
 286	2.8358e+01	11.3387	75.599404	0.000507	5.067527	1.716925	0.000203
 287	2.8457e+01	11.3644	75.833558	0.000588	5.878332	1.991633	0.000235
 288	2.8556e+01	11.4109	76.095972	0.000659	6.587786	2.232002	0.000264
 289	2.8656e+01	11.4430	76.313977	0.000547	5.472930	1.854279	0.000219
 290	2.8756e+01	11.4959	76.527945	0.000537	5.371579	1.819940	0.000215
 291	2.8855e+01	11.5248	76.838805	0.000780	7.803992	2.644064	0.000312
 292	2.8954e+01	11.5697	77.048736	0.000527	5.270229	1.785602	0.000211
 293	2.9054e+01	11.6082	77.295001	0.000618	6.182384	2.094648	0.000248
 294	2.9154e+01	11.6515	77.504932	0.000527	5.270229	1.785602	0.000211
 295	2.9253e+01	11.6868	77.759271	0.000639	6.385085	2.163325	0.000256
 296	2.9352e+01	11.7253	78.005537	0.000618	6.182384	2.094648	0.000248
 297	2.9452e+01	11.7638	78.280062	0.000689	6.891837	2.335018	0.000276
 298	2.9552e+01	11.8072	78.502104	0.000557	5.574280	1.888617	0.000223
 299	2.9651e+01	11.8408	78.764518	0.000659	6.587786	2.232002	0.000264
 300	2.9750e+01	11.8890	78.954264	0.000476	4.763476	1.613909	0.000191
 301	2.9850e+01	11.9307	79.196492	0.000608	6.081033	2.060310	0.000243
 302	2.9950e+01	11.9692	79.410460	0.000537	5.371579	1.819940	0.000215
 303	3.0049e+01	12.0013	79.680948	0.000679	6.790487	2.300679	0.000272
 304	3.0148e+01	12.0430	79.866656	0.000466	4.662125	1.579571	0.000187
 305	3.0248e+01	12.0847	80.129070	0.000659	6.587786	2.232002	0.000264
 306	3.0348e+01	12.1248	80.355150	0.000568	5.675631	1.922956	0.000227
 307	3.0447e+01	12.1745	80.617564	0.000659	6.587786	2.232002	0.000264
 308	3.0547e+01	12.1986	80.827495	0.000527	5.270229	1.785602	0.000211
 309	3.0646e+01	12.2467	81.089908	0.000659	6.587786	2.232002	0.000264
 310	3.0745e+01	12.2868	81.307914	0.000547	5.472930	1.854279	0.000219
 311	3.0845e+01	12.3269	81.558216	0.000628	6.283734	2.128987	0.000252
 312	3.0945e+01	12.3670	81.792370	0.000588	5.878332	1.991633	0.000235
 313	3.1044e+01	12.4055	81.998264	0.000517	5.168878	1.751263	0.000207
 314	3.1143e+01	12.4569	82.260678	0.000659	6.587786	2.232002	0.000264
 315	3.1243e+01	12.4825	82.434275	0.000436	4.358074	1.476555	0.000174
 316	3.1343e+01	12.5194	82.676503	0.000608	6.081033	2.060310	0.000243
 317	3.1442e+01	12.5644	82.926805	0.000628	6.283734	2.128987	0.000252
 318	3.1541e+01	12.6061	83.160959	0.000588	5.878332	1.991633	0.000235
 319	3.1641e+01	12.6430	83.383002	0.000557	5.574280	1.888617	0.000223
 320	3.1741e+01	12.6847	83.629267	0.000618	6.182384	2.094648	0.000248
 321	3.1840e+01	12.7232	83.851309	0.000557	5.574280	1.888617	0.000223
 322	3.1939e+01	12.7585	84.089500	0.000598	5.979682	2.025971	0.000239
 323	3.2039e+01	12.7986	84.315580	0.000568	5.675631	1.922956	0.000227
 324	3.2139e+01	12.8435	84.493214	0.000446	4.459424	1.510894	0.000179
 325	3.2238e+01	12.8836	84.767739	0.000689	6.891837	2.335018	0.000276
 326	3.2337e+01	12.9269	84.977670	0.000527	5.270229	1.785602	0.000211
 327	3.2437e+01	12.9574	85.179527	0.000507	5.067527	1.716925	0.000203
 328	3.2536e+01	12.9991	85.437904	0.000649	6.486435	2.197664	0.000260
 329	3.2636e+01	13.0424	85.672057	0.000588	5.878332	1.991633	0.000235
 330	3.2736e+01	13.0873	85.881989	0.000527	5.270229	1.785602	0.000211
 331	3.2835e+01	13.1210	86.095957	0.000537	5.371579	1.819940	0.000215
 332	3.2934e+01	13.1627	86.350296	0.000639	6.385085	2.163325	0.000256
 333	3.3034e+01	13.1948	86.584450	0.000588	5.878332	1.991633	0.000235
 334	3.3133e+01	13.2365	86.810530	0.000568	5.675631	1.922956	0.000227
 335	3.3233e+01	13.2830	87.036609	0.000568	5.675631	1.922956	0.000227
 336	3.3333e+01	13.3119	87.266726	0.000578	5.776981	1.957294	0.000231
 337	3.3432e+01	13.3601	87.476657	0.000527	5.270229	1.785602	0.000211
 338	3.3532e+01	13.4018	87.702737	0.000568	5.675631	1.922956	0.000227
 339	3.3631e+01	13.4419	87.920742	0.000547	5.472930	1.854279	0.000219
 340	3.3730e+01	13.4772	88.130673	0.000527	5.270229	1.785602	0.000211
 341	3.3830e+01	13.5269	88.409236	0.000699	6.993188	2.369356	0.000280
 342	3.3929e+01	13.5558	88.655501	0.000618	6.182384	2.094648	0.000248
 343	3.4029e+01	13.5911	88.869469	0.000537	5.371579	1.819940	0.000215
 344	3.4129e+01	13.6440	89.071326	0.000507	5.067527	1.716925	0.000203
 345	3.4228e+01	13.6825	89.285294	0.000537	5.371579	1.819940	0.000215
 346	3.4328e+01	13.7162	89.511374	0.000568	5.675631	1.922956	0.000227
 347	3.4427e+01	13.7579	89.773787	0.000659	6.587786	2.232002	0.000264
 348	3.4526e+01	13.8012	89.943347	0.000426	4.256723	1.442217	0.000170
 349	3.4626e+01	13.8413	90.185575	0.000608	6.081033	2.060310	0.000243
 350	3.4725e+01	13.8814	90.403581	0.000547	5.472930	1.854279	0.000219
 351	3.4825e+01	13.9151	90.653883	0.000628	6.283734	2.128987	0.000252
 352	3.4925e+01	13.9552	90.879963	0.000568	5.675631	1.922956	0.000227
 353	3.5024e+01	13.9985	91.102005	0.000557	5.574280	1.888617	0.000223
 354	3.5123e+01	14.0386	91.320010	0.000547	5.472930	1.854279	0.000219
 355	3.5223e+01	14.0787	91.521867	0.000507	5.067527	1.716925	0.000203
 356	3.5322e+01	14.1172	91.780244	0.000649	6.486435	2.197664	0.000260
 357	3.5422e+01	14.1606	91.998249	0.000547	5.472930	1.854279	0.000219
 358	3.5522e+01	14.1782	92.196069	0.000497	4.966177	1.682586	0.000199
 359	3.5621e+01	14.2360	92.422148	0.000568	5.675631	1.922956	0.000227
 360	3.5721e+01	14.2825	92.632080	0.000527	5.270229	1.785602	0.000211
 361	3.5820e+01	14.3178	92.878345	0.000618	6.182384	2.094648	0.000248
 362	3.5919e+01	14.3611	93.080202	0.000507	5.067527	1.716925	0.000203
 363	3.6019e+01	14.4060	93.306281	0.000568	5.675631	1.922956	0.000227
 364	3.6118e+01	14.4397	93.544472	0.000598	5.979682	2.025971	0.000239
 365	3.6218e+01	14.4814	93.774589	0.000578	5.776981	1.957294	0.000231
 366	3.6318e+01	14.5135	93.956260	0.000456	4.560775	1.545232	0.000183
 367	3.6417e+01	14.5504	94.154080	0.000497	4.966177	1.682586	0.000199
 368	3.6517e+01	14.5953	94.412456	0.000649	6.486435	2.197664	0.000260
 369	3.6616e+01	14.6338	94.674870	0.000659	6.587786	2.232002	0.000264
 370	3.6715e+01	14.6787	94.876727	0.000507	5.067527	1.716925	0.000203
 371	3.6815e+01	14.7156	95.074547	0.000497	4.966177	1.682586	0.000199
 372	3.6914e+01	14.7541	95.308701	0.000588	5.878332	1.991633	0.000235
 373	3.7014e+01	14.7926	95.530743	0.000557	5.574280	1.888617	0.000223
 374	3.7114e+01	14.8408	95.748748	0.000547	5.472930	1.854279	0.000219
 375	3.7213e+01	14.8680	95.962716	0.000537	5.371579	1.819940	0.000215
 376	3.7313e+01	14.9194	96.172648	0.000527	5.270229	1.785602	0.000211
 377	3.7412e+01	14.9514	96.410839	0.000598	5.979682	2.025971	0.000239
 378	3.7511e+01	14.9964	96.616732	0.000517	5.168878	1.751263	0.000207
 379	3.7611e+01	15.0317	96.850886	0.000588	5.878332	1.991633	0.000235
 380	3.7711e+01	15.0782	97.040632	0.000476	4.763476	1.613909	0.000191
 381	3.7810e+01	15.1183	97.307083	0.000669	6.689136	2.266341	0.000268
 382	3.7910e+01	15.1552	97.484717	0.000446	4.459424	1.510894	0.000179
 383	3.8009e+01	15.1953	97.718871	0.000588	5.878332	1.991633	0.000235
 384	3.8108e+01	15.2338	97.944950	0.000568	5.675631	1.922956	0.000227
 385	3.8208e+01	15.2755	98.146807	0.000507	5.067527	1.716925	0.000203
 386	3.8307e+01	15.3108	98.401146	0.000639	6.385085	2.163325	0.000256
 387	3.8407e+01	15.3573	98.607040	0.000517	5.168878	1.751263	0.000207
 388	3.8507e+01	15.3910	98.821009	0.000537	5.371579	1.819940	0.000215
 389	3.8606e+01	15.4279	99.026903	0.000517	5.168878	1.751263	0.000207
 390	3.8706e+01	15.4680	99.240871	0.000537	5.371579	1.819940	0.000215
 391	3.8805e+01	15.5081	99.462913	0.000557	5.574280	1.888617	0.000223
 392	3.8904e+01	15.5546	99.684956	0.000557	5.574280	1.888617	0.000223
 393	3.9004e+01	15.5915	99.902961	0.000547	5.472930	1.854279	0.000219
 394	3.9103e+01	15.6332	100.088669	0.000466	4.662125	1.579571	0.000187
 395	3.9203e+01	15.6734	100.359157	0.000679	6.790487	2.300679	0.000272
 396	3.9303e+01	15.7103	100.589274	0.000578	5.776981	1.957294	0.000231
 397	3.9402e+01	15.7471	100.815354	0.000568	5.675631	1.922956	0.000227
 398	3.9502e+01	15.7905	101.013173	0.000497	4.966177	1.682586	0.000199
 399	3.9601e+01	15.8306	101.219067	0.000517	5.168878	1.751263	0.000207
 400	3.9700e+01	15.8707	101.441110	0.000557	5.574280	1.888617	0.000223
 401	3.9800e+01	15.9060	101.687375	0.000618	6.182384	2.094648	0.000248
 402	3.9900e+01	15.9525	101.873083	0.000466	4.662125	1.579571	0.000187
 403	3.9999e+01	15.9958	102.103200	0.000578	5.776981	1.957294	0.000231
 404	4.0099e+01	16.0263	102.325242	0.000557	5.574280	1.888617	0.000223
 405	4.0198e+01	16.0664	102.519025	0.000486	4.864826	1.648248	0.000195
 406	4.0297e+01	16.1129	102.741067	0.000557	5.574280	1.888617	0.000223
 407	4.0397e+01	16.1418	102.950998	0.000527	5.270229	1.785602	0.000211
 408	4.0496e+01	16.1931	103.189189	0.000598	5.979682	2.025971	0.000239
 409	4.0596e+01	16.2252	103.395083	0.000517	5.168878	1.751263	0.000207
 410	4.0696e+01	16.2717	103.625200	0.000578	5.776981	1.957294	0.000231
 411	4.0795e+01	16.3118	103.863391	0.000598	5.979682	2.025971	0.000239
 412	4.0895e+01	16.3568	104.065248	0.000507	5.067527	1.716925	0.000203
 413	4.0994e+01	16.3840	104.295365	0.000578	5.776981	1.957294	0.000231
 414	4.1093e+01	16.4289	104.501259	0.000517	5.168878	1.751263	0.000207
 415	4.1193e+01	16.4658	104.715227	0.000537	5.371579	1.819940	0.000215
 416	4.1292e+01	16.5076	104.929195	0.000537	5.371579	1.819940	0.000215
 417	4.1392e+01	16.5364	105.135089	0.000517	5.168878	1.751263	0.000207
 418	4.1492e+01	16.6038	105.369243	0.000588	5.878332	1.991633	0.000235
 419	4.1591e+01	16.6247	105.575137	0.000517	5.168878	1.751263	0.000207
 420	4.1691e+01	16.6712	105.781031	0.000517	5.168878	1.751263	0.000207
 421	4.1790e+01	16.7097	106.003073	0.000557	5.574280	1.888617	0.000223
 422	4.1889e+01	16.7418	106.196856	0.000486	4.864826	1.648248	0.000195
 423	4.1989e+01	16.7947	106.398712	0.000507	5.067527	1.716925	0.000203
 424	4.2089e+01	16.8252	106.612681	0.000537	5.371579	1.819940	0.000215
 425	4.2188e+01	16.8621	106.826649	0.000537	5.371579	1.819940	0.000215
 426	4.2288e+01	16.9022	107.032543	0.000517	5.168878	1.751263	0.000207
 427	4.2387e+01	16.9455	107.234399	0.000507	5.067527	1.716925	0.000203
 428	4.2486e+01	16.9872	107.488739	0.000639	6.385085	2.163325	0.000256
 429	4.2586e+01	17.0273	107.698670	0.000527	5.270229	1.785602	0.000211
 430	4.2685e+01	17.0594	107.944935	0.000618	6.182384	2.094648	0.000248
 431	4.2785e+01	17.1140	108.086235	0.000355	3.547269	1.201847	0.000142
 432	4.2885e+01	17.1460	108.300203	0.000537	5.371579	1.819940	0.000215
 433	4.2984e+01	17.1861	108.489949	0.000476	4.763476	1.613909	0.000191
 434	4.3084e+01	17.2279	108.732177	0.000608	6.081033	2.060310	0.000243
 435	4.3183e+01	17.2615	108.921922	0.000476	4.763476	1.613909	0.000191
 436	4.3282e+01	17.3145	109.148002	0.000568	5.675631	1.922956	0.000227
 437	4.3382e+01	17.3514	109.341784	0.000486	4.864826	1.648248	0.000195
 438	4.3481e+01	17.3851	109.571901	0.000578	5.776981	1.957294	0.000231
 439	4.3581e+01	17.4204	109.777795	0.000517	5.168878	1.751263	0.000207
 440	4.3681e+01	17.4669	109.999837	0.000557	5.574280	1.888617	0.000223
 441	4.3780e+01	17.4990	110.209769	0.000527	5.270229	1.785602	0.000211
 442	4.3880e+01	17.5407	110.456034	0.000618	6.182384	2.094648	0.000248
 443	4.3979e+01	17.5872	110.637705	0.000456	4.560775	1.545232	0.000183
 444	4.4078e+01	17.6241	110.835525	0.000497	4.966177	1.682586	0.000199
 445	4.4178e+01	17.6658	111.021233	0.000466	4.662125	1.579571	0.000187
 446	4.4278e+01	17.6995	111.239238	0.000547	5.472930	1.854279	0.000219
 447	4.4377e+01	17.7428	111.473392	0.000588	5.878332	1.991633	0.000235
 448	4.4477e+01	17.7829	111.667175	0.000486	4.864826	1.648248	0.000195
 449	4.4576e+01	17.8214	111.869031	0.000507	5.067527	1.716925	0.000203
 450	4.4675e+01	17.8631	112.066851	0.000497	4.966177	1.682586	0.000199
 451	4.4775e+01	17.9016	112.268708	0.000507	5.067527	1.716925	0.000203
 452	4.4874e+01	17.9482	112.454416	0.000466	4.662125	1.579571	0.000187
 453	4.4974e+01	17.9979	112.704718	0.000628	6.283734	2.128987	0.000252
 454	4.5074e+01	18.0252	112.882352	0.000446	4.459424	1.510894	0.000179
 455	4.5173e+01	18.0588	113.116506	0.000588	5.878332	1.991633	0.000235
 456	4.5273e+01	18.1070	113.286066	0.000426	4.256723	1.442217	0.000170
 457	4.5372e+01	18.1359	113.508108	0.000557	5.574280	1.888617	0.000223
 458	4.5471e+01	18.1808	113.738225	0.000578	5.776981	1.957294	0.000231
 459	4.5571e+01	18.2225	113.927971	0.000476	4.763476	1.613909	0.000191
 460	4.5670e+01	18.2594	114.162124	0.000588	5.878332	1.991633	0.000235
 461	4.5770e+01	18.3043	114.335721	0.000436	4.358074	1.476555	0.000174
 462	4.5870e+01	18.3524	114.545652	0.000527	5.270229	1.785602	0.000211
 463	4.5969e+01	18.3877	114.739435	0.000486	4.864826	1.648248	0.000195
 464	4.6069e+01	18.4278	114.953403	0.000537	5.371579	1.819940	0.000215
 465	4.6168e+01	18.4663	115.151223	0.000497	4.966177	1.682586	0.000199
 466	4.6267e+01	18.5016	115.345005	0.000486	4.864826	1.648248	0.000195
 467	4.6367e+01	18.5369	115.538788	0.000486	4.864826	1.648248	0.000195
 468	4.6467e+01	18.5786	115.760830	0.000557	5.574280	1.888617	0.000223
 469	4.6566e+01	18.6139	115.930390	0.000426	4.256723	1.442217	0.000170
 470	4.6666e+01	18.6620	116.164544	0.000588	5.878332	1.991633	0.000235
 471	4.6765e+01	18.7021	116.366401	0.000507	5.067527	1.716925	0.000203
 472	4.6864e+01	18.7358	116.592480	0.000568	5.675631	1.922956	0.000227
 473	4.6964e+01	18.7824	116.741854	0.000375	3.749970	1.270524	0.000150
 474	4.7063e+01	18.8241	116.951785	0.000527	5.270229	1.785602	0.000211
 475	4.7163e+01	18.8562	117.177865	0.000568	5.675631	1.922956	0.000227
 476	4.7263e+01	18.9075	117.387796	0.000527	5.270229	1.785602	0.000211
 477	4.7362e+01	18.9428	117.557356	0.000426	4.256723	1.442217	0.000170
 478	4.7462e+01	18.9893	117.755175	0.000497	4.966177	1.682586	0.000199
 479	4.7561e+01	19.0150	117.952995	0.000497	4.966177	1.682586	0.000199
 480	4.7660e+01	19.0583	118.203297	0.000628	6.283734	2.128987	0.000252
 481	4.7760e+01	19.1032	118.328448	0.000314	3.141867	1.064493	0.000126
 482	4.7859e+01	19.1385	118.554528	0.000568	5.675631	1.922956	0.000227
 483	4.7959e+01	19.1786	118.752348	0.000497	4.966177	1.682586	0.000199
 484	4.8059e+01	19.2283	118.966316	0.000537	5.371579	1.819940	0.000215
 485	4.8158e+01	19.2460	119.164136	0.000497	4.966177	1.682586	0.000199
 486	4.8258e+01	19.2957	119.357918	0.000486	4.864826	1.648248	0.000195
 487	4.8357e+01	19.3390	119.555738	0.000497	4.966177	1.682586	0.000199
 488	4.8456e+01	19.3807	119.737409	0.000456	4.560775	1.545232	0.000183
 489	4.8556e+01	19.4176	119.959451	0.000557	5.574280	1.888617	0.000223
 490	4.8656e+01	19.4481	120.108825	0.000375	3.749970	1.270524	0.000150
 491	4.8755e+01	19.4946	120.318756	0.000527	5.270229	1.785602	0.000211
 492	4.8855e+01	19.5380	120.520613	0.000507	5.067527	1.716925	0.000203
 493	4.8954e+01	19.5797	120.730544	0.000527	5.270229	1.785602	0.000211
 494	4.9053e+01	19.6069	120.912215	0.000456	4.560775	1.545232	0.000183
 495	4.9153e+01	19.6615	121.134258	0.000557	5.574280	1.888617	0.000223
 496	4.9252e+01	19.6920	121.307855	0.000436	4.358074	1.476555	0.000174
 497	4.9352e+01	19.7305	121.525860	0.000547	5.472930	1.854279	0.000219
 498	4.9452e+01	19.7786	121.723680	0.000497	4.966177	1.682586	0.000199
 499	4.9551e+01	19.8203	121.913425	0.000476	4.763476	1.613909	0.000191
 500	4.9651e+01	19.8524	122.111245	0.000497	4.966177	1.682586	0.000199
 501	4.9750e+01	19.8861	122.309064	0.000497	4.966177	1.682586	0.000199
 502	4.9849e+01	19.9374	122.486698	0.000446	4.459424	1.510894	0.000179
 503	4.9949e+01	19.9743	122.716815	0.000578	5.776981	1.957294	0.000231
 504	5.0048e+01	19.9342	122.587627	0.000324	3.243218	1.098832	-0.000130
 505	5.0148e+01	19.8925	122.466513	0.000304	3.040516	1.030155	-0.000122
 506	5.0248e+01	19.8444	122.317139	0.000375	3.749970	1.270524	-0.000150
 507	5.0347e+01	19.8187	122.167765	0.000375	3.749970	1.270524	-0.000150
 508	5.0447e+01	19.7770	122.038576	0.000324	3.243218	1.098832	-0.000130
 509	5.0546e+01	19.7401	121.889202	0.000375	3.749970	1.270524	-0.000150
 510	5.0645e+01	19.6952	121.723680	0.000416	4.155373	1.407878	-0.000166
 511	5.0745e+01	19.6583	121.582380	0.000355	3.547269	1.201847	-0.000142
 512	5.0844e+01	19.6101	121.437043	0.000365	3.648620	1.236186	-0.000146
 513	5.0944e+01	19.5716	121.291706	0.000365	3.648620	1.236186	-0.000146
 514	5.1044e+01	19.5380	121.154443	0.000345	3.445919	1.167509	-0.000138
 515	5.1143e+01	19.5011	121.005069	0.000375	3.749970	1.270524	-0.000150
 516	5.1242e+01	19.4577	120.803213	0.000507	5.067527	1.716925	-0.000203
 517	5.1342e+01	19.4128	120.674024	0.000324	3.243218	1.098832	-0.000130
 518	5.1441e+01	19.3695	120.512539	0.000405	4.054022	1.373540	-0.000162
 519	5.1541e+01	19.3374	120.363165	0.000375	3.749970	1.270524	-0.000150
 520	5.1641e+01	19.3053	120.205717	0.000395	3.952671	1.339201	-0.000158
 521	5.1740e+01	19.2636	120.072491	0.000334	3.344568	1.133170	-0.000134
 522	5.1840e+01	19.2235	119.874671	0.000497	4.966177	1.682586	-0.000199
 523	5.1939e+01	19.1786	119.733372	0.000355	3.547269	1.201847	-0.000142
 524	5.2038e+01	19.1385	119.596109	0.000345	3.445919	1.167509	-0.000138
 525	5.2138e+01	19.0920	119.402327	0.000486	4.864826	1.648248	-0.000195
 526	5.2237e+01	19.0583	119.261027	0.000355	3.547269	1.201847	-0.000142
 527	5.2337e+01	19.0214	119.099541	0.000405	4.054022	1.373540	-0.000162
 528	5.2437e+01	18.9893	118.925945	0.000436	4.358074	1.476555	-0.000174
 529	5.2536e+01	18.9396	118.784645	0.000355	3.547269	1.201847	-0.000142
 530	5.2636e+01	18.9075	118.611048	0.000436	4.358074	1.476555	-0.000174
 531	5.2735e+01	18.8594	118.441488	0.000426	4.256723	1.442217	-0.000170
 532	5.2834e+01	18.8241	118.304226	0.000345	3.445919	1.167509	-0.000138
 533	5.2934e+01	18.7840	118.110443	0.000486	4.864826	1.648248	-0.000195
 534	5.3033e+01	18.7358	117.924735	0.000466	4.662125	1.579571	-0.000187
 535	5.3133e+01	18.7038	117.771324	0.000385	3.851321	1.304863	-0.000154
 536	5.3233e+01	18.6540	117.634061	0.000345	3.445919	1.167509	-0.000138
 537	5.3332e+01	18.6155	117.492761	0.000355	3.547269	1.201847	-0.000142
 538	5.3431e+01	18.5770	117.323202	0.000426	4.256723	1.442217	-0.000170
 539	5.3531e+01	18.5433	117.153642	0.000426	4.256723	1.442217	-0.000170
 540	5.3630e+01	18.5064	116.971971	0.000456	4.560775	1.545232	-0.000183
 541	5.3730e+01	18.4663	116.822597	0.000375	3.749970	1.270524	-0.000150
 542	5.3830e+01	18.4214	116.644963	0.000446	4.459424	1.510894	-0.000179
 543	5.3929e+01	18.3861	116.467329	0.000446	4.459424	1.510894	-0.000179
 544	5.4029e+01	18.3524	116.301806	0.000416	4.155373	1.407878	-0.000166
 545	5.4128e+01	18.3043	116.192804	0.000274	2.736465	0.927139	-0.000110
 546	5.4227e+01	18.2594	115.990947	0.000507	5.067527	1.716925	-0.000203
 547	5.4327e+01	18.2305	115.825424	0.000416	4.155373	1.407878	-0.000166
 548	5.4426e+01	18.1904	115.647790	0.000446	4.459424	1.510894	-0.000179
 549	5.4526e+01	18.1391	115.482268	0.000416	4.155373	1.407878	-0.000166
 550	5.4626e+01	18.1038	115.304634	0.000446	4.459424	1.510894	-0.000179
 551	5.4725e+01	18.0588	115.167371	0.000345	3.445919	1.167509	-0.000138
 552	5.4825e+01	18.0220	114.969552	0.000497	4.966177	1.682586	-0.000199
 553	5.4924e+01	17.9818	114.832289	0.000345	3.445919	1.167509	-0.000138
 554	5.5023e+01	17.9482	114.618321	0.000537	5.371579	1.819940	-0.000215
 555	5.5123e+01	17.9145	114.464910	0.000385	3.851321	1.304863	-0.000154
 556	5.5222e+01	17.8631	114.311498	0.000385	3.851321	1.304863	-0.000154
 557	5.5322e+01	17.8214	114.125790	0.000466	4.662125	1.579571	-0.000187
 558	5.5422e+01	17.7813	113.980453	0.000365	3.648620	1.236186	-0.000146
 559	5.5521e+01	17.7380	113.798782	0.000456	4.560775	1.545232	-0.000183
 560	5.5620e+01	17.7011	113.629222	0.000426	4.256723	1.442217	-0.000170
 561	5.5720e+01	17.6658	113.459663	0.000426	4.256723	1.442217	-0.000170
 562	5.5819e+01	17.6289	113.318363	0.000355	3.547269	1.201847	-0.000142
 563	5.5919e+01	17.5808	113.128618	0.000476	4.763476	1.613909	-0.000191
 564	5.6019e+01	17.5423	112.938872	0.000476	4.763476	1.613909	-0.000191
 565	5.6118e+01	17.5102	112.809684	0.000324	3.243218	1.098832	-0.000130
 566	5.6218e+01	17.4685	112.595716	0.000537	5.371579	1.819940	-0.000215
 567	5.6317e+01	17.4284	112.474602	0.000304	3.040516	1.030155	-0.000122
 568	5.6416e+01	17.3787	112.240448	0.000588	5.878332	1.991633	-0.000235
 569	5.6516e+01	17.3530	112.115297	0.000314	3.141867	1.064493	-0.000126
 570	5.6615e+01	17.3113	111.917477	0.000497	4.966177	1.682586	-0.000199
 571	5.6715e+01	17.2680	111.735806	0.000456	4.560775	1.545232	-0.000183
 572	5.6815e+01	17.2166	111.570283	0.000416	4.155373	1.407878	-0.000166
 573	5.6914e+01	17.1813	111.428984	0.000355	3.547269	1.201847	-0.000142
 574	5.7014e+01	17.1380	111.259424	0.000426	4.256723	1.442217	-0.000170
 575	5.7113e+01	17.1027	111.069678	0.000476	4.763476	1.613909	-0.000191
 576	5.7212e+01	17.0674	110.879933	0.000476	4.763476	1.613909	-0.000191
 577	5.7312e+01	17.0225	110.730559	0.000375	3.749970	1.270524	-0.000150
 578	5.7411e+01	16.9776	110.548888	0.000456	4.560775	1.545232	-0.000183
 579	5.7511e+01	16.9471	110.387402	0.000405	4.054022	1.373540	-0.000162
 580	5.7611e+01	16.9102	110.201694	0.000466	4.662125	1.579571	-0.000187
 581	5.7710e+01	16.8637	110.032135	0.000426	4.256723	1.442217	-0.000170
 582	5.7809e+01	16.8236	109.882761	0.000375	3.749970	1.270524	-0.000150
 583	5.7909e+01	16.7819	109.676867	0.000517	5.168878	1.751263	-0.000207
 584	5.8008e+01	16.7498	109.539604	0.000345	3.445919	1.167509	-0.000138
 585	5.8108e+01	16.7097	109.321599	0.000547	5.472930	1.854279	-0.000219
 586	5.8208e+01	16.6648	109.123779	0.000497	4.966177	1.682586	-0.000199
 587	5.8307e+01	16.6279	108.950182	0.000436	4.358074	1.476555	-0.000174
 588	5.8407e+01	16.5846	108.788697	0.000405	4.054022	1.373540	-0.000162
 589	5.8506e+01	16.5428	108.582803	0.000517	5.168878	1.751263	-0.000207
 590	5.8605e+01	16.5156	108.389020	0.000486	4.864826	1.648248	-0.000195
 591	5.8705e+01	16.4578	108.211386	0.000446	4.459424	1.510894	-0.000179
 592	5.8804e+01	16.4273	108.053938	0.000395	3.952671	1.339201	-0.000158
 593	5.8904e+01	16.3840	107.856118	0.000497	4.966177	1.682586	-0.000199
 594	5.9004e+01	16.3487	107.686559	0.000426	4.256723	1.442217	-0.000170
 595	5.9103e+01	16.3006	107.512962	0.000436	4.358074	1.476555	-0.000174
 596	5.9203e+01	16.2717	107.335328	0.000446	4.459424	1.510894	-0.000179
 597	5.9302e+01	16.2316	107.137508	0.000497	4.966177	1.682586	-0.000199
 598	5.9401e+01	16.1883	106.996208	0.000355	3.547269	1.201847	-0.000142
 599	5.9501e+01	16.1450	106.782240	0.000537	5.371579	1.819940	-0.000215
 600	5.9600e+01	16.1113	106.584421	0.000497	4.966177	1.682586	-0.000199
 601	5.9700e+01	16.0712	106.426972	0.000395	3.952671	1.339201	-0.000158
 602	5.9800e+01	16.0311	106.277598	0.000375	3.749970	1.270524	-0.000150
 603	5.9899e+01	15.9926	106.075742	0.000507	5.067527	1.716925	-0.000203
 604	5.9998e+01	15.9477	105.865810	0.000527	5.270229	1.785602	-0.000211
 605	6.0098e+01	15.9092	105.704325	0.000405	4.054022	1.373540	-0.000162
 606	6.0197e+01	15.8659	105.550914	0.000385	3.851321	1.304863	-0.000154
 607	6.0297e+01	15.8290	105.357131	0.000486	4.864826	1.648248	-0.000195
 608	6.0397e+01	15.7921	105.175460	0.000456	4.560775	1.545232	-0.000183
 609	6.0496e+01	15.7536	104.969566	0.000517	5.168878	1.751263	-0.000207
 610	6.0596e+01	15.7151	104.787895	0.000456	4.560775	1.545232	-0.000183
 611	6.0695e+01	15.6734	104.614298	0.000436	4.358074	1.476555	-0.000174
 612	6.0794e+01	15.6300	104.424553	0.000476	4.763476	1.613909	-0.000191
 613	6.0894e+01	15.5803	104.234808	0.000476	4.763476	1.613909	-0.000191
 614	6.0993e+01	15.5546	104.093508	0.000355	3.547269	1.201847	-0.000142
 615	6.1093e+01	15.5033	103.871465	0.000557	5.574280	1.888617	-0.000223
 616	6.1193e+01	15.4648	103.669609	0.000507	5.067527	1.716925	-0.000203
 617	6.1292e+01	15.4327	103.483900	0.000466	4.662125	1.579571	-0.000187
 618	6.1392e+01	15.3910	103.322415	0.000405	4.054022	1.373540	-0.000162
 619	6.1491e+01	15.3557	103.112484	0.000527	5.270229	1.785602	-0.000211
 620	6.1590e+01	15.3172	102.942924	0.000426	4.256723	1.442217	-0.000170
 621	6.1690e+01	15.2659	102.728956	0.000537	5.371579	1.819940	-0.000215
 622	6.1789e+01	15.2338	102.563433	0.000416	4.155373	1.407878	-0.000166
 623	6.1889e+01	15.2001	102.397911	0.000416	4.155373	1.407878	-0.000166
 624	6.1989e+01	15.1552	102.159720	0.000598	5.979682	2.025971	-0.000239
 625	6.2088e+01	15.1119	101.974012	0.000466	4.662125	1.579571	-0.000187
 626	6.2188e+01	15.0750	101.784266	0.000476	4.763476	1.613909	-0.000191
 627	6.2287e+01	15.0333	101.610669	0.000436	4.358074	1.476555	-0.000174
 628	6.2386e+01	14.9996	101.420924	0.000476	4.763476	1.613909	-0.000191
 629	6.2486e+01	14.9498	101.223104	0.000497	4.966177	1.682586	-0.000199
 630	6.2586e+01	14.9113	101.009136	0.000537	5.371579	1.819940	-0.000215
 631	6.2685e+01	14.8777	100.823428	0.000466	4.662125	1.579571	-0.000187
 632	6.2785e+01	14.8231	100.649831	0.000436	4.358074	1.476555	-0.000174
 633	6.2884e+01	14.8039	100.447974	0.000507	5.067527	1.716925	-0.000203
 634	6.2983e+01	14.7557	100.246118	0.000507	5.067527	1.716925	-0.000203
 635	6.3083e+01	14.7124	100.076558	0.000426	4.256723	1.442217	-0.000170
 636	6.3182e+01	14.6851	99.882775	0.000486	4.864826	1.648248	-0.000195
 637	6.3282e+01	14.6338	99.632473	0.000628	6.283734	2.128987	-0.000252
 638	6.3382e+01	14.6017	99.454839	0.000446	4.459424	1.510894	-0.000179
 639	6.3481e+01	14.5552	99.293353	0.000405	4.054022	1.373540	-0.000162
 640	6.3581e+01	14.5103	99.091497	0.000507	5.067527	1.716925	-0.000203
 641	6.3680e+01	14.4814	98.877528	0.000537	5.371579	1.819940	-0.000215
 642	6.3779e+01	14.4349	98.699895	0.000446	4.459424	1.510894	-0.000179
 643	6.3879e+01	14.3900	98.506112	0.000486	4.864826	1.648248	-0.000195
 644	6.3978e+01	14.3515	98.348664	0.000395	3.952671	1.339201	-0.000158
 645	6.4078e+01	14.3210	98.146807	0.000507	5.067527	1.716925	-0.000203
 646	6.4177e+01	14.2841	97.928802	0.000547	5.472930	1.854279	-0.000219
 647	6.4277e+01	14.2344	97.722908	0.000517	5.168878	1.751263	-0.000207
 648	6.4376e+01	14.1926	97.525088	0.000497	4.966177	1.682586	-0.000199
 649	6.4476e+01	14.1477	97.327268	0.000497	4.966177	1.682586	-0.000199
 650	6.4576e+01	14.1205	97.121374	0.000517	5.168878	1.751263	-0.000207
 651	6.4675e+01	14.0852	96.895295	0.000568	5.675631	1.922956	-0.000227
 652	6.4775e+01	14.0306	96.705549	0.000476	4.763476	1.613909	-0.000191
 653	6.4874e+01	13.9873	96.515804	0.000476	4.763476	1.613909	-0.000191
 654	6.4974e+01	13.9536	96.330096	0.000466	4.662125	1.579571	-0.000187
 655	6.5073e+01	13.9215	96.104016	0.000568	5.675631	1.922956	-0.000227
 656	6.5172e+01	13.8766	95.890048	0.000537	5.371579	1.819940	-0.000215
 657	6.5272e+01	13.8445	95.700303	0.000476	4.763476	1.613909	-0.000191
 658	6.5371e+01	13.7964	95.530743	0.000426	4.256723	1.442217	-0.000170
 659	6.5471e+01	13.7627	95.276403	0.000639	6.385085	2.163325	-0.000256
 660	6.5570e+01	13.7194	95.110881	0.000416	4.155373	1.407878	-0.000166
 661	6.5670e+01	13.6761	94.917098	0.000486	4.864826	1.648248	-0.000195
 662	6.5769e+01	13.6424	94.723316	0.000486	4.864826	1.648248	-0.000195
 663	6.5869e+01	13.5991	94.501273	0.000557	5.574280	1.888617	-0.000223
 664	6.5969e+01	13.5574	94.287305	0.000537	5.371579	1.819940	-0.000215
 665	6.6068e+01	13.5157	94.097560	0.000476	4.763476	1.613909	-0.000191
 666	6.6168e+01	13.4740	93.899740	0.000497	4.966177	1.682586	-0.000199
 667	6.6267e+01	13.4451	93.714032	0.000466	4.662125	1.579571	-0.000187
 668	6.6367e+01	13.4018	93.475841	0.000598	5.979682	2.025971	-0.000239
 669	6.6466e+01	13.3617	93.290133	0.000466	4.662125	1.579571	-0.000187
 670	6.6566e+01	13.3232	93.088276	0.000507	5.067527	1.716925	-0.000203
 671	6.6665e+01	13.2782	92.866233	0.000557	5.574280	1.888617	-0.000223
 672	6.6764e+01	13.2397	92.720896	0.000365	3.648620	1.236186	-0.000146
 673	6.6864e+01	13.2093	92.486743	0.000588	5.878332	1.991633	-0.000235
 674	6.6963e+01	13.1611	92.284886	0.000507	5.067527	1.716925	-0.000203
 675	6.7063e+01	13.1210	92.058806	0.000568	5.675631	1.922956	-0.000227
 676	6.7162e+01	13.0777	91.893284	0.000416	4.155373	1.407878	-0.000166
 677	6.7262e+01	13.0344	91.634907	0.000649	6.486435	2.197664	-0.000260
 678	6.7362e+01	13.0007	91.461310	0.000436	4.358074	1.476555	-0.000174
 679	6.7461e+01	12.9590	91.255416	0.000517	5.168878	1.751263	-0.000207
 680	6.7561e+01	12.9173	91.025299	0.000578	5.776981	1.957294	-0.000231
 681	6.7660e+01	12.8852	90.843628	0.000456	4.560775	1.545232	-0.000183
 682	6.7760e+01	12.8419	90.637734	0.000517	5.168878	1.751263	-0.000207
 683	6.7859e+01	12.8018	90.452026	0.000466	4.662125	1.579571	-0.000187
 684	6.7959e+01	12.7697	90.258244	0.000486	4.864826	1.648248	-0.000195
 685	6.8058e+01	12.7344	90.032164	0.000568	5.675631	1.922956	-0.000227
 686	6.8157e+01	12.6895	89.810122	0.000557	5.574280	1.888617	-0.000223
 687	6.8257e+01	12.6430	89.596153	0.000537	5.371579	1.819940	-0.000215
 688	6.8356e+01	12.6029	89.410445	0.000466	4.662125	1.579571	-0.000187
 689	6.8456e+01	12.5627	89.224737	0.000466	4.662125	1.579571	-0.000187
 690	6.8555e+01	12.5323	88.978472	0.000618	6.182384	2.094648	-0.000248
 691	6.8655e+01	12.4857	88.752392	0.000568	5.675631	1.922956	-0.000227
 692	6.8754e+01	12.4505	88.562647	0.000476	4.763476	1.613909	-0.000191
 693	6.8854e+01	12.4023	88.352716	0.000527	5.270229	1.785602	-0.000211
 694	6.8954e+01	12.3718	88.154896	0.000497	4.966177	1.682586	-0.000199
 695	6.9053e+01	12.3301	87.953039	0.000507	5.067527	1.716925	-0.000203
 696	6.9153e+01	12.2820	87.718885	0.000588	5.878332	1.991633	-0.000235
 697	6.9252e+01	12.2435	87.533177	0.000466	4.662125	1.579571	-0.000187
 698	6.9352e+01	12.2050	87.274800	0.000649	6.486435	2.197664	-0.000260
 699	6.9451e+01	12.1697	87.109278	0.000416	4.155373	1.407878	-0.000166
 700	6.9550e+01	12.1296	86.887235	0.000557	5.574280	1.888617	-0.000223
 701	6.9650e+01	12.0943	86.701527	0.000466	4.662125	1.579571	-0.000187
 702	6.9749e+01	12.0414	86.455262	0.000618	6.182384	2.094648	-0.000248
 703	6.9849e+01	12.0045	86.253405	0.000507	5.067527	1.716925	-0.000203
 704	6.9948e+01	11.9676	86.071734	0.000456	4.560775	1.545232	-0.000183
 705	7.0048e+01	11.9291	85.853729	0.000547	5.472930	1.854279	-0.000219
 706	7.0147e+01	11.8826	85.595352	0.000649	6.486435	2.197664	-0.000260
 707	7.0247e+01	11.8489	85.421755	0.000436	4.358074	1.476555	-0.000174
 708	7.0347e+01	11.8055	85.187601	0.000588	5.878332	1.991633	-0.000235
 709	7.0446e+01	11.7622	85.009967	0.000446	4.459424	1.510894	-0.000179
 710	7.0546e+01	11.7302	84.771776	0.000598	5.979682	2.025971	-0.000239
 711	7.0645e+01	11.6933	84.582031	0.000476	4.763476	1.613909	-0.000191
 712	7.0745e+01	11.6515	84.376137	0.000517	5.168878	1.751263	-0.000207
 713	7.0844e+01	11.6146	84.129872	0.000618	6.182384	2.094648	-0.000248
 714	7.0944e+01	11.5697	83.899755	0.000578	5.776981	1.957294	-0.000231
 715	7.1043e+01	11.5232	83.726158	0.000436	4.358074	1.476555	-0.000174
 716	7.1142e+01	11.4831	83.496041	0.000578	5.776981	1.957294	-0.000231
 717	7.1242e+01	11.4510	83.294185	0.000507	5.067527	1.716925	-0.000203
 718	7.1341e+01	11.4109	83.060031	0.000588	5.878332	1.991633	-0.000235
 719	7.1441e+01	11.3772	82.870285	0.000476	4.763476	1.613909	-0.000191
 720	7.1540e+01	11.3307	82.636131	0.000588	5.878332	1.991633	-0.000235
 721	7.1640e+01	11.3002	82.426200	0.000527	5.270229	1.785602	-0.000211
 722	7.1740e+01	11.2553	82.260678	0.000416	4.155373	1.407878	-0.000166
 723	7.1839e+01	11.2088	82.026524	0.000588	5.878332	1.991633	-0.000235
 724	7.1939e+01	11.1671	81.816593	0.000527	5.270229	1.785602	-0.000211
 725	7.2038e+01	11.1334	81.610699	0.000517	5.168878	1.751263	-0.000207
 726	7.2138e+01	11.0949	81.372508	0.000598	5.979682	2.025971	-0.000239
 727	7.2237e+01	11.0451	81.158540	0.000537	5.371579	1.819940	-0.000215
 728	7.2337e+01	11.0098	80.952646	0.000517	5.168878	1.751263	-0.000207
 729	7.2436e+01	10.9633	80.690232	0.000659	6.587786	2.232002	-0.000264
 730	7.2535e+01	10.9280	80.488375	0.000507	5.067527	1.716925	-0.000203
 731	7.2635e+01	10.8847	80.286518	0.000507	5.067527	1.716925	-0.000203
 732	7.2734e+01	10.8478	80.056402	0.000578	5.776981	1.957294	-0.000231
 733	7.2834e+01	10.8061	79.870693	0.000466	4.662125	1.579571	-0.000187
 734	7.2933e+01	10.7708	79.656725	0.000537	5.371579	1.819940	-0.000215
 735	7.3033e+01	10.7355	79.426609	0.000578	5.776981	1.957294	-0.000231
 736	7.3132e+01	10.6890	79.253012	0.000436	4.358074	1.476555	-0.000174
 737	7.3232e+01	10.6521	78.994635	0.000649	6.486435	2.197664	-0.000260
 738	7.3332e+01	10.6200	78.788741	0.000517	5.168878	1.751263	-0.000207
 739	7.3431e+01	10.5655	78.570736	0.000547	5.472930	1.854279	-0.000219
 740	7.3531e+01	10.5334	78.344656	0.000568	5.675631	1.922956	-0.000227
 741	7.3630e+01	10.4965	78.150874	0.000486	4.864826	1.648248	-0.000195
 742	7.3730e+01	10.4612	77.916720	0.000588	5.878332	1.991633	-0.000235
 743	7.3829e+01	10.4115	77.694677	0.000557	5.574280	1.888617	-0.000223
 744	7.3928e+01	10.3810	77.513006	0.000456	4.560775	1.545232	-0.000183
 745	7.4028e+01	10.3297	77.250592	0.000659	6.587786	2.232002	-0.000264
 746	7.4127e+01	10.2912	77.024513	0.000568	5.675631	1.922956	-0.000227
 747	7.4227e+01	10.2494	76.838805	0.000466	4.662125	1.579571	-0.000187
 748	7.4326e+01	10.2093	76.568316	0.000679	6.790487	2.300679	-0.000272
 749	7.4426e+01	10.1740	76.410868	0.000395	3.952671	1.339201	-0.000158
 750	7.4525e+01	10.1323	76.160566	0.000628	6.283734	2.128987	-0.000252
 751	7.4625e+01	10.0938	75.930449	0.000578	5.776981	1.957294	-0.000231
 752	7.4725e+01	10.0457	75.700332	0.000578	5.776981	1.957294	-0.000231
 753	7.4824e+01	10.0232	75.530773	0.000426	4.256723	1.442217	-0.000170
 754	7.4924e+01	9.9735	75.248173	0.000709	7.094538	2.403695	-0.000284
 755	7.5023e+01	9.9318	75.046316	0.000507	5.067527	1.716925	-0.000203
 756	7.5123e+01	9.8885	74.804088	0.000608	6.081033	2.060310	-0.000243
 757	7.5222e+01	9.8580	74.590120	0.000537	5.371579	1.819940	-0.000215
 758	7.5322e+01	9.8195	74.364040	0.000568	5.675631	1.922956	-0.000227
 759	7.5421e+01	9.7810	74.113738	0.000628	6.283734	2.128987	-0.000252
 760	7.5520e+01	9.7377	73.956290	0.000395	3.952671	1.339201	-0.000158
 761	7.5620e+01	9.7024	73.685801	0.000679	6.790487	2.300679	-0.000272
 762	7.5719e+01	9.6591	73.479908	0.000517	5.168878	1.751263	-0.000207
 763	7.5819e+01	9.6190	73.286125	0.000486	4.864826	1.648248	-0.000195
 764	7.5918e+01	9.5692	73.019674	0.000669	6.689136	2.266341	-0.000268
 765	7.6018e+01	9.5372	72.773409	0.000618	6.182384	2.094648	-0.000248
 766	7.6118e+01	9.4922	72.567515	0.000517	5.168878	1.751263	-0.000207
 767	7.6217e+01	9.4650	72.337398	0.000578	5.776981	1.957294	-0.000231
 768	7.6317e+01	9.4217	72.099207	0.000598	5.979682	2.025971	-0.000239
 769	7.6416e+01	9.3799	71.921573	0.000446	4.459424	1.510894	-0.000179
 770	7.6516e+01	9.3286	71.671271	0.000628	6.283734	2.128987	-0.000252
 771	7.6615e+01	9.3046	71.445191	0.000568	5.675631	1.922956	-0.000227
 772	7.6715e+01	9.2628	71.219112	0.000568	5.675631	1.922956	-0.000227
 773	7.6814e+01	9.2163	70.997069	0.000557	5.574280	1.888617	-0.000223
 774	7.6913e+01	9.1810	70.738692	0.000649	6.486435	2.197664	-0.000260
 775	7.7013e+01	9.1281	70.524724	0.000537	5.371579	1.819940	-0.000215
 776	7.7112e+01	9.0960	70.306719	0.000547	5.472930	1.854279	-0.000219
 777	7.7212e+01	9.0671	70.056416	0.000628	6.283734	2.128987	-0.000252
 778	7.7311e+01	9.0302	69.874745	0.000456	4.560775	1.545232	-0.000183
 779	7.7411e+01	8.9725	69.592146	0.000709	7.094538	2.403695	-0.000284
 780	7.7510e+01	8.9356	69.374141	0.000547	5.472930	1.854279	-0.000219
 781	7.7610e+01	8.9067	69.148061	0.000568	5.675631	1.922956	-0.000227
 782	7.7710e+01	8.8602	68.934093	0.000537	5.371579	1.819940	-0.000215
 783	7.7809e+01	8.8137	68.683790	0.000628	6.283734	2.128987	-0.000252
 784	7.7909e+01	8.7832	68.469822	0.000537	5.371579	1.819940	-0.000215
 785	7.8008e+01	8.7399	68.211445	0.000649	6.486435	2.197664	-0.000260
 786	7.8108e+01	8.7014	68.005552	0.000517	5.168878	1.751263	-0.000207
 787	7.8207e+01	8.6596	67.767360	0.000598	5.979682	2.025971	-0.000239
 788	7.8306e+01	8.6115	67.517058	0.000628	6.283734	2.128987	-0.000252
 789	7.8406e+01	8.5810	67.270793	0.000618	6.182384	2.094648	-0.000248
 790	7.8505e+01	8.5409	67.044713	0.000568	5.675631	1.922956	-0.000227
 791	7.8605e+01	8.4992	66.802485	0.000608	6.081033	2.060310	-0.000243
 792	7.8704e+01	8.4720	66.544108	0.000649	6.486435	2.197664	-0.000260
 793	7.8804e+01	8.4286	66.342252	0.000507	5.067527	1.716925	-0.000203
 794	7.8903e+01	8.3805	66.100023	0.000608	6.081033	2.060310	-0.000243
 795	7.9003e+01	8.3372	65.865870	0.000588	5.878332	1.991633	-0.000235
 796	7.9103e+01	8.3003	65.639790	0.000568	5.675631	1.922956	-0.000227
 797	7.9202e+01	8.2602	65.357190	0.000709	7.094538	2.403695	-0.000284
 798	7.9302e+01	8.2169	65.127074	0.000578	5.776981	1.957294	-0.000231
 799	7.9401e+01	8.1784	64.900994	0.000568	5.675631	1.922956	-0.000227
 800	7.9501e+01	8.1367	64.674915	0.000568	5.675631	1.922956	-0.000227
 801	7.9600e+01	8.0901	64.392315	0.000709	7.094538	2.403695	-0.000284
 802	7.9700e+01	8.0565	64.182384	0.000527	5.270229	1.785602	-0.000211
 803	7.9799e+01	8.0276	63.932082	0.000628	6.283734	2.128987	-0.000252
 804	7.9898e+01	7.9795	63.669668	0.000659	6.587786	2.232002	-0.000264
 805	7.9998e+01	7.9393	63.443588	0.000568	5.675631	1.922956	-0.000227
 806	8.0097e+01	7.9025	63.213471	0.000578	5.776981	1.957294	-0.000231
 807	8.0197e+01	7.8527	62.959132	0.000639	6.385085	2.163325	-0.000256
 808	8.0296e+01	7.8238	62.720941	0.000598	5.979682	2.025971	-0.000239
 809	8.0396e+01	7.7950	62.478713	0.000608	6.081033	2.060310	-0.000243
 810	8.0496e+01	7.7388	62.196113	0.000709	7.094538	2.403695	-0.000284
 811	8.0595e+01	7.7051	62.002331	0.000486	4.864826	1.648248	-0.000195
 812	8.0695e+01	7.6714	61.739917	0.000659	6.587786	2.232002	-0.000264
 813	8.0794e+01	7.6217	61.501726	0.000598	5.979682	2.025971	-0.000239
 814	8.0894e+01	7.5832	61.267572	0.000588	5.878332	1.991633	-0.000235
 815	8.0993e+01	7.5463	61.029381	0.000598	5.979682	2.025971	-0.000239
 816	8.1093e+01	7.5014	60.766967	0.000659	6.587786	2.232002	-0.000264
 817	8.1192e+01	7.4677	60.524739	0.000608	6.081033	2.060310	-0.000243
 818	8.1291e+01	7.4244	60.254251	0.000679	6.790487	2.300679	-0.000272
 819	8.1391e+01	7.3779	60.024134	0.000578	5.776981	1.957294	-0.000231
 820	8.1490e+01	7.3426	59.765757	0.000649	6.486435	2.197664	-0.000260
 821	8.1590e+01	7.2977	59.547752	0.000547	5.472930	1.854279	-0.000219
 822	8.1689e+01	7.2704	59.281301	0.000669	6.689136	2.266341	-0.000268
 823	8.1789e+01	7.2319	59.059259	0.000557	5.574280	1.888617	-0.000223
 824	8.1888e+01	7.1854	58.760511	0.000750	7.499941	2.541049	-0.000300
 825	8.1988e+01	7.1420	58.494060	0.000669	6.689136	2.266341	-0.000268
 826	8.2088e+01	7.1003	58.255869	0.000598	5.979682	2.025971	-0.000239
 827	8.2187e+01	7.0586	58.062086	0.000486	4.864826	1.648248	-0.000195
 828	8.2287e+01	7.0265	57.783524	0.000699	6.993188	2.369356	-0.000280
 829	8.2386e+01	6.9848	57.529184	0.000639	6.385085	2.163325	-0.000256
 830	8.2486e+01	6.9495	57.282919	0.000618	6.182384	2.094648	-0.000248
 831	8.2585e+01	6.8998	57.028579	0.000639	6.385085	2.163325	-0.000256
 832	8.2684e+01	6.8725	56.778277	0.000628	6.283734	2.128987	-0.000252
 833	8.2784e+01	6.8164	56.540086	0.000598	5.979682	2.025971	-0.000239
 834	8.2883e+01	6.7827	56.249412	0.000730	7.297240	2.472372	-0.000292
 835	8.2983e+01	6.7442	56.019296	0.000578	5.776981	1.957294	-0.000231
 836	8.3082e+01	6.7073	55.760919	0.000649	6.486435	2.197664	-0.000260
 837	8.3182e+01	6.6672	55.546951	0.000537	5.371579	1.819940	-0.000215
 838	8.3281e+01	6.6303	55.292611	0.000639	6.385085	2.163325	-0.000256
 839	8.3381e+01	6.5902	55.022123	0.000679	6.790487	2.300679	-0.000272
 840	8.3481e+01	6.5469	54.800081	0.000557	5.574280	1.888617	-0.000223
 841	8.3580e+01	6.5084	54.521518	0.000699	6.993188	2.369356	-0.000280
 842	8.3680e+01	6.4683	54.230844	0.000730	7.297240	2.472372	-0.000292
 843	8.3779e+01	6.4217	54.016876	0.000537	5.371579	1.819940	-0.000215
 844	8.3879e+01	6.3832	53.778685	0.000598	5.979682	2.025971	-0.000239
 845	8.3978e+01	6.3415	53.524346	0.000639	6.385085	2.163325	-0.000256
 846	8.4078e+01	6.3111	53.270006	0.000639	6.385085	2.163325	-0.000256
 847	8.4177e+01	6.2677	53.031815	0.000598	5.979682	2.025971	-0.000239
 848	8.4276e+01	6.2276	52.753253	0.000699	6.993188	2.369356	-0.000280
 849	8.4376e+01	6.1923	52.486802	0.000669	6.689136	2.266341	-0.000268
 850	8.4475e+01	6.1474	52.228425	0.000649	6.486435	2.197664	-0.000260
 851	8.4575e+01	6.1137	51.990234	0.000598	5.979682	2.025971	-0.000239
 852	8.4674e+01	6.0736	51.743969	0.000618	6.182384	2.094648	-0.000248
 853	8.4774e+01	6.0383	51.481555	0.000659	6.587786	2.232002	-0.000264
 854	8.4874e+01	5.9998	51.166658	0.000791	7.905343	2.678403	-0.000316
 855	8.4973e+01	5.9533	50.944616	0.000557	5.574280	1.888617	-0.000223
 856	8.5073e+01	5.9100	50.706425	0.000598	5.979682	2.025971	-0.000239
 857	8.5172e+01	5.8699	50.444011	0.000659	6.587786	2.232002	-0.000264
 858	8.5272e+01	5.8282	50.129114	0.000791	7.905343	2.678403	-0.000316
 859	8.5371e+01	5.7961	49.931295	0.000497	4.966177	1.682586	-0.000199
 860	8.5471e+01	5.7432	49.672918	0.000649	6.486435	2.197664	-0.000260
 861	8.5570e+01	5.7143	49.418579	0.000639	6.385085	2.163325	-0.000256
 862	8.5669e+01	5.6790	49.140016	0.000699	6.993188	2.369356	-0.000280
 863	8.5769e+01	5.6325	48.889714	0.000628	6.283734	2.128987	-0.000252
 864	8.5868e+01	5.5908	48.635374	0.000639	6.385085	2.163325	-0.000256
 865	8.5968e+01	5.5522	48.389109	0.000618	6.182384	2.094648	-0.000248
 866	8.6067e+01	5.5154	48.094398	0.000740	7.398590	2.506710	-0.000296
 867	8.6167e+01	5.4624	47.840058	0.000639	6.385085	2.163325	-0.000256
 868	8.6266e+01	5.4367	47.541310	0.000750	7.499941	2.541049	-0.000300
 869	8.6366e+01	5.3950	47.303119	0.000598	5.979682	2.025971	-0.000239
 870	8.6466e+01	5.3517	47.068966	0.000588	5.878332	1.991633	-0.000235
 871	8.6565e+01	5.3068	46.810589	0.000649	6.486435	2.197664	-0.000260
 872	8.6665e+01	5.2667	46.511841	0.000750	7.499941	2.541049	-0.000300
 873	8.6764e+01	5.2346	46.261538	0.000628	6.283734	2.128987	-0.000252
 874	8.6864e+01	5.1929	46.023347	0.000598	5.979682	2.025971	-0.000239
 875	8.6963e+01	5.1528	45.720562	0.000760	7.601291	2.575387	-0.000304
 876	8.7063e+01	5.1095	45.474297	0.000618	6.182384	2.094648	-0.000248
 877	8.7162e+01	5.0694	45.219957	0.000639	6.385085	2.163325	-0.000256
 878	8.7261e+01	5.0261	44.953506	0.000669	6.689136	2.266341	-0.000268
 879	8.7361e+01	4.9924	44.650721	0.000760	7.601291	2.575387	-0.000304
 880	8.7460e+01	4.9523	44.416567	0.000588	5.878332	1.991633	-0.000235
 881	8.7560e+01	4.9090	44.190488	0.000568	5.675631	1.922956	-0.000227
 882	8.7659e+01	4.8785	43.924037	0.000669	6.689136	2.266341	-0.000268
 883	8.7759e+01	4.8384	43.641437	0.000709	7.094538	2.403695	-0.000284
 884	8.7859e+01	4.8063	43.374986	0.000669	6.689136	2.266341	-0.000268
 885	8.7958e+01	4.7517	43.092387	0.000709	7.094538	2.403695	-0.000284
 886	8.8058e+01	4.7100	42.829973	0.000659	6.587786	2.232002	-0.000264
 887	8.8157e+01	4.6763	42.583708	0.000618	6.182384	2.094648	-0.000248
 888	8.8257e+01	4.6378	42.309183	0.000689	6.891837	2.335018	-0.000276
 889	8.8356e+01	4.5897	42.050806	0.000649	6.486435	2.197664	-0.000260
 890	8.8456e+01	4.5432	41.743984	0.000770	7.702642	2.609726	-0.000308
 891	8.8555e+01	4.5095	41.521941	0.000557	5.574280	1.888617	-0.000223
 892	8.8654e+01	4.4822	41.215119	0.000770	7.702642	2.609726	-0.000308
 893	8.8754e+01	4.4389	40.993076	0.000557	5.574280	1.888617	-0.000223
 894	8.8853e+01	4.4004	40.738737	0.000639	6.385085	2.163325	-0.000256
 895	8.8953e+01	4.3651	40.480360	0.000649	6.486435	2.197664	-0.000260
 896	8.9052e+01	4.3122	40.226020	0.000639	6.385085	2.163325	-0.000256
 897	8.9152e+01	4.2689	39.955532	0.000679	6.790487	2.300679	-0.000272
 898	8.9251e+01	4.2352	39.672933	0.000709	7.094538	2.403695	-0.000284
 899	8.9351e+01	4.2031	39.382259	0.000730	7.297240	2.472372	-0.000292
 900	8.9451e+01	4.1630	39.111771	0.000679	6.790487	2.300679	-0.000272
 901	8.9550e+01	4.1213	38.873580	0.000598	5.979682	2.025971	-0.000239
 902	8.9650e+01	4.0812	38.582906	0.000730	7.297240	2.472372	-0.000292
 903	8.9749e+01	4.0459	38.344715	0.000598	5.979682	2.025971	-0.000239
 904	8.9849e+01	3.9897	38.106524	0.000598	5.979682	2.025971	-0.000239
 905	8.9948e+01	3.9592	37.827962	0.000699	6.993188	2.369356	-0.000280
 906	9.0047e+01	3.9191	37.509028	0.000801	8.006693	2.712741	-0.000321
 907	9.0147e+01	3.8774	37.291023	0.000547	5.472930	1.854279	-0.000219
 908	9.0246e+01	3.8325	37.012460	0.000699	6.993188	2.369356	-0.000280
 909	9.0346e+01	3.7972	36.758121	0.000639	6.385085	2.163325	-0.000256
 910	9.0445e+01	3.7619	36.491670	0.000669	6.689136	2.266341	-0.000268
 911	9.0545e+01	3.7122	36.184848	0.000770	7.702642	2.609726	-0.000308
 912	9.0644e+01	3.6737	35.930508	0.000639	6.385085	2.163325	-0.000256
 913	9.0744e+01	3.6352	35.688280	0.000608	6.081033	2.060310	-0.000243
 914	9.0844e+01	3.5951	35.393569	0.000740	7.398590	2.506710	-0.000296
 915	9.0943e+01	3.5534	35.127118	0.000669	6.689136	2.266341	-0.000268
 916	9.1043e+01	3.5197	34.844519	0.000709	7.094538	2.403695	-0.000284
 917	9.1142e+01	3.4732	34.590179	0.000639	6.385085	2.163325	-0.000256
 918	9.1242e+01	3.4298	34.356025	0.000588	5.878332	1.991633	-0.000235
 919	9.1341e+01	3.3946	34.077463	0.000699	6.993188	2.369356	-0.000280
 920	9.1441e+01	3.3496	33.794863	0.000709	7.094538	2.403695	-0.000284
 921	9.1540e+01	3.3208	33.516301	0.000699	6.993188	2.369356	-0.000280
 922	9.1639e+01	3.2839	33.213516	0.000760	7.601291	2.575387	-0.000304
 923	9.1739e+01	3.2406	32.967250	0.000618	6.182384	2.094648	-0.000248
 924	9.1838e+01	3.2037	32.704837	0.000659	6.587786	2.232002	-0.000264
 925	9.1938e+01	3.1587	32.398014	0.000770	7.702642	2.609726	-0.000308
 926	9.2037e+01	3.1315	32.139638	0.000649	6.486435	2.197664	-0.000260
 927	9.2137e+01	3.0817	31.861075	0.000699	6.993188	2.369356	-0.000280
 928	9.2237e+01	3.0400	31.630959	0.000578	5.776981	1.957294	-0.000231
 929	9.2336e+01	3.0063	31.312025	0.000801	8.006693	2.712741	-0.000321
 930	9.2436e+01	2.9710	31.045574	0.000669	6.689136	2.266341	-0.000268
 931	9.2535e+01	2.9229	30.754900	0.000730	7.297240	2.472372	-0.000292
 932	9.2635e+01	2.8748	30.484412	0.000679	6.790487	2.300679	-0.000272
 933	9.2734e+01	2.8507	30.217961	0.000669	6.689136	2.266341	-0.000268
 934	9.2834e+01	2.8026	29.943436	0.000689	6.891837	2.335018	-0.000276
 935	9.2933e+01	2.7593	29.660836	0.000709	7.094538	2.403695	-0.000284
 936	9.3032e+01	2.7224	29.402460	0.000649	6.486435	2.197664	-0.000260
 937	9.3132e+01	2.6871	29.123897	0.000699	6.993188	2.369356	-0.000280
 938	9.3231e+01	2.6390	28.857446	0.000669	6.689136	2.266341	-0.000268
 939	9.3331e+01	2.5973	28.542550	0.000791	7.905343	2.678403	-0.000316
 940	9.3430e+01	2.5636	28.231690	0.000780	7.803992	2.644064	-0.000312
 941	9.3530e+01	2.5283	27.973314	0.000649	6.486435	2.197664	-0.000260
 942	9.3629e+01	2.4866	27.718974	0.000639	6.385085	2.163325	-0.000256
 943	9.3729e+01	2.4352	27.460597	0.000649	6.486435	2.197664	-0.000260
 944	9.3829e+01	2.4063	27.169924	0.000730	7.297240	2.472372	-0.000292
 945	9.3928e+01	2.3630	26.883287	0.000720	7.195889	2.438033	-0.000288
 946	9.4028e+01	2.3197	26.596650	0.000720	7.195889	2.438033	-0.000288
 947	9.4127e+01	2.2844	26.305976	0.000730	7.297240	2.472372	-0.000292
 948	9.4227e+01	2.2443	26.039526	0.000669	6.689136	2.266341	-0.000268
 949	9.4326e+01	2.2026	25.773075	0.000669	6.689136	2.266341	-0.000268
 950	9.4425e+01	2.1577	25.442029	0.000831	8.310745	2.815757	-0.000333
 951	9.4525e+01	2.1240	25.183653	0.000649	6.486435	2.197664	-0.000260
 952	9.4624e+01	2.0871	24.856645	0.000821	8.209395	2.781418	-0.000329
 953	9.4724e+01	2.0422	24.618454	0.000598	5.979682	2.025971	-0.000239
 954	9.4823e+01	1.9989	24.327780	0.000730	7.297240	2.472372	-0.000292
 955	9.4923e+01	1.9684	24.016921	0.000780	7.803992	2.644064	-0.000312
 956	9.5022e+01	1.9315	23.738358	0.000699	6.993188	2.369356	-0.000280
 957	9.5122e+01	1.8914	23.435573	0.000760	7.601291	2.575387	-0.000304
 958	9.5222e+01	1.8352	23.140862	0.000740	7.398590	2.506710	-0.000296
 959	9.5321e+01	1.7999	22.878448	0.000659	6.587786	2.232002	-0.000264
 960	9.5421e+01	1.7711	22.571626	0.000770	7.702642	2.609726	-0.000308
 961	9.5520e+01	1.7326	22.313249	0.000649	6.486435	2.197664	-0.000260
 962	9.5620e+01	1.6748	22.026613	0.000720	7.195889	2.438033	-0.000288
 963	9.5719e+01	1.6508	21.756124	0.000679	6.790487	2.300679	-0.000272
 964	9.5819e+01	1.6106	21.417005	0.000851	8.513446	2.884434	-0.000341
 965	9.5918e+01	1.5609	21.186888	0.000578	5.776981	1.957294	-0.000231
 966	9.6017e+01	1.5304	20.876029	0.000780	7.803992	2.644064	-0.000312
 967	9.6117e+01	1.4887	20.593429	0.000709	7.094538	2.403695	-0.000284
 968	9.6216e+01	1.4454	20.318904	0.000689	6.891837	2.335018	-0.000276
 969	9.6316e+01	1.4021	20.012082	0.000770	7.702642	2.609726	-0.000308
 970	9.6415e+01	1.3716	19.701222	0.000780	7.803992	2.644064	-0.000312
 971	9.6515e+01	1.3251	19.438809	0.000659	6.587786	2.232002	-0.000264
 972	9.6615e+01	1.2866	19.107763	0.000831	8.310745	2.815757	-0.000333
 973	9.6714e+01	1.2465	18.817090	0.000730	7.297240	2.472372	-0.000292
 974	9.6814e+01	1.2112	18.522379	0.000740	7.398590	2.506710	-0.000296
 975	9.6913e+01	1.1663	18.264002	0.000649	6.486435	2.197664	-0.000260
 976	9.7013e+01	1.1246	17.977365	0.000720	7.195889	2.438033	-0.000288
 977	9.7112e+01	1.0764	17.690729	0.000720	7.195889	2.438033	-0.000288
 978	9.7212e+01	1.0476	17.379869	0.000780	7.803992	2.644064	-0.000312
 979	9.7311e+01	1.0091	17.121493	0.000649	6.486435	2.197664	-0.000260
 980	9.7410e+01	0.9754	16.774299	0.000872	8.716147	2.953111	-0.000349
 981	9.7510e+01	0.9240	16.475551	0.000750	7.499941	2.541049	-0.000300
 982	9.7609e+01	0.8839	16.201026	0.000689	6.891837	2.335018	-0.000276
 983	9.7709e+01	0.8567	15.890166	0.000780	7.803992	2.644064	-0.000312
 984	9.7808e+01	0.8117	15.575270	0.000791	7.905343	2.678403	-0.000316
 985	9.7908e+01	0.7652	15.272484	0.000760	7.601291	2.575387	-0.000304
 986	9.8007e+01	0.7235	15.018145	0.000639	6.385085	2.163325	-0.000256
 987	9.8107e+01	0.6946	14.703248	0.000791	7.905343	2.678403	-0.000316
 988	9.8207e+01	0.6577	14.412575	0.000730	7.297240	2.472372	-0.000292
 989	9.8306e+01	0.6096	14.117864	0.000740	7.398590	2.506710	-0.000296
 990	9.8406e+01	0.5599	13.811041	0.000770	7.702642	2.609726	-0.000308
 991	9.8505e+01	0.5182	13.492108	0.000801	8.006693	2.712741	-0.000321
 992	9.8605e+01	0.4973	13.245842	0.000618	6.182384	2.094648	-0.000248
 993	9.8704e+01	0.4604	12.918834	0.000821	8.209395	2.781418	-0.000329
 994	9.8803e+01	0.4091	12.599901	0.000801	8.006693	2.712741	-0.000321
 995	9.8903e+01	0.3610	12.301153	0.000750	7.499941	2.541049	-0.000300
 996	9.9002e+01	0.3289	12.014516	0.000720	7.195889	2.438033	-0.000288
 997	9.9102e+01	0.2856	11.723842	0.000730	7.297240	2.472372	-0.000292
 998	9.9201e+01	0.2503	11.388760	0.000841	8.412096	2.850095	-0.000337
 999	9.9301e+01	0.2086	11.073863	0.000791	7.905343	2.678403	-0.000316
1000	9.9400e+01	0.1684	10.823561	0.000628	6.283734	2.128987	-0.000252
1001	9.9500e+01	0.1315	10.504627	0.000801	8.006693	2.712741	-0.000321
1002	9.9600e+01	0.0914	10.213953	0.000730	7.297240	2.472372	-0.000292
1003	9.9699e+01	0.0545	9.911168	0.000760	7.601291	2.575387	-0.000304
1004	9.9799e+01	0.0176	9.632606	0.000699	6.993188	2.369356	-0.000280
1005	9.9898e+01	-0.0193	9.382303	0.000628	6.283734	2.128987	-0.000252
1006	9.9998e+01	-0.0578	9.051258	0.000831	8.310745	2.815757	-0.000333
1007	1.0010e+02	-0.0946	8.776733	0.000689	6.891837	2.335018	-0.000276
1008	1.0020e+02	-0.1364	8.510282	0.000669	6.689136	2.266341	-0.000268
1009	1.0030e+02	-0.1845	8.163088	0.000872	8.716147	2.953111	-0.000349
1010	1.0040e+02	-0.2069	7.876452	0.000720	7.195889	2.438033	-0.000288
1011	1.0050e+02	-0.2615	7.581741	0.000740	7.398590	2.506710	-0.000296
1012	1.0059e+02	-0.3000	7.295104	0.000720	7.195889	2.438033	-0.000288
1013	1.0069e+02	-0.3481	6.947911	0.000872	8.716147	2.953111	-0.000349
1014	1.0079e+02	-0.3786	6.665311	0.000709	7.094538	2.403695	-0.000284
1015	1.0089e+02	-0.4171	6.382712	0.000709	7.094538	2.403695	-0.000284
1016	1.0099e+02	-0.4572	6.063778	0.000801	8.006693	2.712741	-0.000321
1017	1.0109e+02	-0.4973	5.720621	0.000861	8.614797	2.918772	-0.000345
1018	1.0119e+02	-0.5422	5.417836	0.000760	7.601291	2.575387	-0.000304
1019	1.0129e+02	-0.5759	5.094865	0.000811	8.108044	2.747080	-0.000325
1020	1.0139e+02	-0.6160	4.840526	0.000639	6.385085	2.163325	-0.000256
1021	1.0149e+02	-0.6577	4.509481	0.000831	8.310745	2.815757	-0.000333
1022	1.0159e+02	-0.7010	4.255141	0.000639	6.385085	2.163325	-0.000256
1023	1.0169e+02	-0.7396	3.948319	0.000770	7.702642	2.609726	-0.000308
1024	1.0179e+02	-0.7877	3.621311	0.000821	8.209395	2.781418	-0.000329
1025	1.0189e+02	-0.8166	3.314488	0.000770	7.702642	2.609726	-0.000308
1026	1.0199e+02	-0.8663	3.023815	0.000730	7.297240	2.472372	-0.000292
1027	1.0209e+02	-0.8936	2.737178	0.000720	7.195889	2.438033	-0.000288
1028	1.0219e+02	-0.9401	2.394021	0.000861	8.614797	2.918772	-0.000345
1029	1.0229e+02	-0.9706	2.151793	0.000608	6.081033	2.060310	-0.000243
1030	1.0239e+02	-1.0171	1.764228	0.000973	9.729653	3.296496	-0.000390
1031	1.0248e+02	-1.0524	1.469517	0.000740	7.398590	2.506710	-0.000296
1032	1.0258e+02	-1.0989	1.203066	0.000669	6.689136	2.266341	-0.000268
1033	1.0268e+02	-1.1374	0.888170	0.000791	7.905343	2.678403	-0.000316
1034	1.0278e+02	-1.1759	0.557125	0.000831	8.310745	2.815757	-0.000333
1035	1.0288e+02	-1.2144	0.254340	0.000760	7.601291	2.575387	-0.000304
1036	1.0298e+02	-1.2513	-0.008074	0.000659	6.587786	2.232002	-0.000264
1037	1.0308e+02	-1.2994	-0.322971	0.000791	7.905343	2.678403	-0.000316
1038	1.0318e+02	-1.3379	-0.641905	0.000801	8.006693	2.712741	-0.000321
1039	1.0328e+02	-1.3748	-0.948727	0.000770	7.702642	2.609726	-0.000308
1040	1.0338e+02	-1.4165	-1.227289	0.000699	6.993188	2.369356	-0.000280
1041	1.0348e+02	-1.4518	-1.501814	0.000689	6.891837	2.335018	-0.000276
1042	1.0358e+02	-1.4951	-1.849008	0.000872	8.716147	2.953111	-0.000349
1043	1.0368e+02	-1.5288	-2.123533	0.000689	6.891837	2.335018	-0.000276
1044	1.0378e+02	-1.5818	-2.442467	0.000801	8.006693	2.712741	-0.000321
1045	1.0388e+02	-1.6187	-2.696807	0.000639	6.385085	2.163325	-0.000256
1046	1.0398e+02	-1.6604	-3.019778	0.000811	8.108044	2.747080	-0.000325
1047	1.0408e+02	-1.7005	-3.310451	0.000730	7.297240	2.472372	-0.000292
1048	1.0418e+02	-1.7342	-3.669756	0.000902	9.020199	3.056126	-0.000361
1049	1.0428e+02	-1.7791	-3.911985	0.000608	6.081033	2.060310	-0.000243
1050	1.0438e+02	-1.8144	-4.226881	0.000791	7.905343	2.678403	-0.000316
1051	1.0447e+02	-1.8561	-4.505443	0.000699	6.993188	2.369356	-0.000280
1052	1.0457e+02	-1.8850	-4.852637	0.000872	8.716147	2.953111	-0.000349
1053	1.0467e+02	-1.9267	-5.167534	0.000791	7.905343	2.678403	-0.000316
1054	1.0477e+02	-1.9716	-5.446096	0.000699	6.993188	2.369356	-0.000280
1055	1.0487e+02	-2.0117	-5.756956	0.000780	7.803992	2.644064	-0.000312
1056	1.0497e+02	-2.0534	-6.055704	0.000750	7.499941	2.541049	-0.000300
1057	1.0507e+02	-2.1015	-6.354452	0.000750	7.499941	2.541049	-0.000300
1058	1.0517e+02	-2.1368	-6.673385	0.000801	8.006693	2.712741	-0.000321
1059	1.0527e+02	-2.1785	-6.931762	0.000649	6.486435	2.197664	-0.000260
1060	1.0537e+02	-2.2187	-7.226473	0.000740	7.398590	2.506710	-0.000296
1061	1.0547e+02	-2.2459	-7.505035	0.000699	6.993188	2.369356	-0.000280
1062	1.0557e+02	-2.2908	-7.836080	0.000831	8.310745	2.815757	-0.000333
1063	1.0567e+02	-2.3277	-8.134829	0.000750	7.499941	2.541049	-0.000300
1064	1.0577e+02	-2.3711	-8.441651	0.000770	7.702642	2.609726	-0.000308
1065	1.0587e+02	-2.4176	-8.700028	0.000649	6.486435	2.197664	-0.000260
1066	1.0597e+02	-2.4529	-9.031073	0.000831	8.310745	2.815757	-0.000333
1067	1.0607e+02	-2.4898	-9.301561	0.000679	6.790487	2.300679	-0.000272
1068	1.0617e+02	-2.5379	-9.563975	0.000659	6.587786	2.232002	-0.000264
1069	1.0627e+02	-2.5748	-9.842537	0.000699	6.993188	2.369356	-0.000280
1070	1.0637e+02	-2.6037	-10.185693	0.000861	8.614797	2.918772	-0.000345
1071	1.0647e+02	-2.6486	-10.456182	0.000679	6.790487	2.300679	-0.000272
1072	1.0656e+02	-2.6871	-10.730707	0.000689	6.891837	2.335018	-0.000276
1073	1.0666e+02	-2.7240	-11.013306	0.000709	7.094538	2.403695	-0.000284
1074	1.0676e+02	-2.7705	-11.320129	0.000770	7.702642	2.609726	-0.000308
1075	1.0686e+02	-2.8154	-11.622914	0.000760	7.601291	2.575387	-0.000304
1076	1.0696e+02	-2.8491	-11.933773	0.000780	7.803992	2.644064	-0.000312
1077	1.0706e+02	-2.8988	-12.188113	0.000639	6.385085	2.163325	-0.000256
1078	1.0716e+02	-2.9309	-12.478787	0.000730	7.297240	2.472372	-0.000292
1079	1.0726e+02	-2.9694	-12.773497	0.000740	7.398590	2.506710	-0.000296
1080	1.0736e+02	-3.0224	-13.056097	0.000709	7.094538	2.403695	-0.000284
1081	1.0746e+02	-3.0561	-13.342734	0.000720	7.195889	2.438033	-0.000288
1082	1.0756e+02	-3.0833	-13.633407	0.000730	7.297240	2.472372	-0.000292
1083	1.0766e+02	-3.1299	-13.940230	0.000770	7.702642	2.609726	-0.000308
1084	1.0776e+02	-3.1732	-14.234941	0.000740	7.398590	2.506710	-0.000296
1085	1.0786e+02	-3.2133	-14.529652	0.000740	7.398590	2.506710	-0.000296
1086	1.0796e+02	-3.2470	-14.783991	0.000639	6.385085	2.163325	-0.000256
1087	1.0806e+02	-3.2967	-15.082739	0.000750	7.499941	2.541049	-0.000300
1088	1.0816e+02	-3.3288	-15.369376	0.000720	7.195889	2.438033	-0.000288
1089	1.0826e+02	-3.3689	-15.647938	0.000699	6.993188	2.369356	-0.000280
1090	1.0836e+02	-3.4090	-15.958798	0.000780	7.803992	2.644064	-0.000312
1091	1.0845e+02	-3.4491	-16.217174	0.000649	6.486435	2.197664	-0.000260
1092	1.0855e+02	-3.4828	-16.519959	0.000760	7.601291	2.575387	-0.000304
1093	1.0865e+02	-3.5293	-16.810633	0.000730	7.297240	2.472372	-0.000292
1094	1.0875e+02	-3.5614	-17.052861	0.000608	6.081033	2.060310	-0.000243
1095	1.0885e+02	-3.6127	-17.343535	0.000730	7.297240	2.472372	-0.000292
1096	1.0895e+02	-3.6464	-17.626135	0.000709	7.094538	2.403695	-0.000284
1097	1.0905e+02	-3.6817	-17.973328	0.000872	8.716147	2.953111	-0.000349
1098	1.0915e+02	-3.7218	-18.211519	0.000598	5.979682	2.025971	-0.000239
1099	1.0925e+02	-3.7699	-18.502193	0.000730	7.297240	2.472372	-0.000292
1100	1.0935e+02	-3.8036	-18.804978	0.000760	7.601291	2.575387	-0.000304
1101	1.0945e+02	-3.8453	-19.075466	0.000679	6.790487	2.300679	-0.000272
1102	1.0955e+02	-3.8855	-19.333843	0.000649	6.486435	2.197664	-0.000260
1103	1.0965e+02	-3.9175	-19.644703	0.000780	7.803992	2.644064	-0.000312
1104	1.0975e+02	-3.9689	-19.935376	0.000730	7.297240	2.472372	-0.000292
1105	1.0985e+02	-4.0074	-20.189716	0.000639	6.385085	2.163325	-0.000256
1106	1.0995e+02	-4.0507	-20.472315	0.000709	7.094538	2.403695	-0.000284
1107	1.1005e+02	-4.0908	-20.730692	0.000649	6.486435	2.197664	-0.000260
1108	1.1015e+02	-4.1261	-21.037514	0.000770	7.702642	2.609726	-0.000308
1109	1.1025e+02	-4.1614	-21.299928	0.000659	6.587786	2.232002	-0.000264
1110	1.1035e+02	-4.2015	-21.602713	0.000760	7.601291	2.575387	-0.000304
1111	1.1044e+02	-4.2432	-21.873201	0.000679	6.790487	2.300679	-0.000272
1112	1.1054e+02	-4.2881	-22.143690	0.000679	6.790487	2.300679	-0.000272
1113	1.1064e+02	-4.3298	-22.422252	0.000699	6.993188	2.369356	-0.000280
1114	1.1074e+02	-4.3635	-22.700814	0.000699	6.993188	2.369356	-0.000280
1115	1.1084e+02	-4.4020	-22.955154	0.000639	6.385085	2.163325	-0.000256
1116	1.1094e+02	-4.4469	-23.266013	0.000780	7.803992	2.644064	-0.000312
1117	1.1104e+02	-4.4822	-23.524390	0.000649	6.486435	2.197664	-0.000260
1118	1.1114e+02	-4.5271	-23.766618	0.000608	6.081033	2.060310	-0.000243
1119	1.1124e+02	-4.5689	-24.057292	0.000730	7.297240	2.472372	-0.000292
1120	1.1134e+02	-4.6090	-24.343929	0.000720	7.195889	2.438033	-0.000288
1121	1.1144e+02	-4.6443	-24.634602	0.000730	7.297240	2.472372	-0.000292
1122	1.1154e+02	-4.6860	-24.888942	0.000639	6.385085	2.163325	-0.000256
1123	1.1164e+02	-4.7197	-25.179616	0.000730	7.297240	2.472372	-0.000292
1124	1.1174e+02	-4.7630	-25.417807	0.000598	5.979682	2.025971	-0.000239
1125	1.1184e+02	-4.8047	-25.724629	0.000770	7.702642	2.609726	-0.000308
1126	1.1194e+02	-4.8368	-25.999154	0.000689	6.891837	2.335018	-0.000276
1127	1.1204e+02	-4.8769	-26.285791	0.000720	7.195889	2.438033	-0.000288
1128	1.1214e+02	-4.9106	-26.556279	0.000679	6.790487	2.300679	-0.000272
1129	1.1224e+02	-4.9699	-26.814656	0.000649	6.486435	2.197664	-0.000260
1130	1.1234e+02	-5.0052	-27.081107	0.000669	6.689136	2.266341	-0.000268
1131	1.1244e+02	-5.0469	-27.375817	0.000740	7.398590	2.506710	-0.000296
1132	1.1253e+02	-5.0822	-27.638231	0.000659	6.587786	2.232002	-0.000264
1133	1.1263e+02	-5.1223	-27.936979	0.000750	7.499941	2.541049	-0.000300
1134	1.1273e+02	-5.1672	-28.191319	0.000639	6.385085	2.163325	-0.000256
1135	1.1283e+02	-5.1977	-28.441621	0.000628	6.283734	2.128987	-0.000252
1136	1.1293e+02	-5.2426	-28.728258	0.000720	7.195889	2.438033	-0.000288
1137	1.1303e+02	-5.2699	-29.002783	0.000689	6.891837	2.335018	-0.000276
1138	1.1313e+02	-5.3164	-29.281346	0.000699	6.993188	2.369356	-0.000280
1139	1.1323e+02	-5.3662	-29.555871	0.000689	6.891837	2.335018	-0.000276
1140	1.1333e+02	-5.3982	-29.846545	0.000730	7.297240	2.472372	-0.000292
1141	1.1343e+02	-5.4383	-30.096847	0.000628	6.283734	2.128987	-0.000252
1142	1.1353e+02	-5.4801	-30.339075	0.000608	6.081033	2.060310	-0.000243
1143	1.1363e+02	-5.5234	-30.589377	0.000628	6.283734	2.128987	-0.000252
1144	1.1373e+02	-5.5555	-30.920423	0.000831	8.310745	2.815757	-0.000333
1145	1.1383e+02	-5.6052	-31.182836	0.000659	6.587786	2.232002	-0.000264
1146	1.1393e+02	-5.6341	-31.421027	0.000598	5.979682	2.025971	-0.000239
1147	1.1403e+02	-5.6774	-31.691516	0.000679	6.790487	2.300679	-0.000272
1148	1.1413e+02	-5.7335	-31.966041	0.000689	6.891837	2.335018	-0.000276
1149	1.1423e+02	-5.7624	-32.224417	0.000649	6.486435	2.197664	-0.000260
1150	1.1433e+02	-5.7961	-32.511054	0.000720	7.195889	2.438033	-0.000288
1151	1.1442e+02	-5.8362	-32.769431	0.000649	6.486435	2.197664	-0.000260
1152	1.1452e+02	-5.8795	-33.060105	0.000730	7.297240	2.472372	-0.000292
1153	1.1462e+02	-5.9308	-33.261961	0.000507	5.067527	1.716925	-0.000203
1154	1.1472e+02	-5.9629	-33.593006	0.000831	8.310745	2.815757	-0.000333
1155	1.1482e+02	-5.9966	-33.843309	0.000628	6.283734	2.128987	-0.000252
1156	1.1492e+02	-6.0415	-34.125908	0.000709	7.094538	2.403695	-0.000284
1157	1.1502e+02	-6.0736	-34.396396	0.000679	6.790487	2.300679	-0.000272
1158	1.1512e+02	-6.1201	-34.614402	0.000547	5.472930	1.854279	-0.000219
1159	1.1522e+02	-6.1619	-34.884890	0.000679	6.790487	2.300679	-0.000272
1160	1.1532e+02	-6.1907	-35.219972	0.000841	8.412096	2.850095	-0.000337
1161	1.1542e+02	-6.2324	-35.413755	0.000486	4.864826	1.648248	-0.000195
1162	1.1552e+02	-6.2790	-35.712503	0.000750	7.499941	2.541049	-0.000300
1163	1.1562e+02	-6.3223	-35.938582	0.000568	5.675631	1.922956	-0.000227
1164	1.1572e+02	-6.3624	-36.225219	0.000720	7.195889	2.438033	-0.000288
1165	1.1582e+02	-6.3945	-36.491670	0.000669	6.689136	2.266341	-0.000268
1166	1.1592e+02	-6.4346	-36.746009	0.000639	6.385085	2.163325	-0.000256
1167	1.1602e+02	-6.4667	-37.000349	0.000639	6.385085	2.163325	-0.000256
1168	1.1612e+02	-6.5148	-37.250651	0.000628	6.283734	2.128987	-0.000252
1169	1.1622e+02	-6.5597	-37.500954	0.000628	6.283734	2.128987	-0.000252
1170	1.1632e+02	-6.5774	-37.747219	0.000618	6.182384	2.094648	-0.000248
1171	1.1642e+02	-6.6367	-38.045967	0.000750	7.499941	2.541049	-0.000300
1172	1.1651e+02	-6.6736	-38.328567	0.000709	7.094538	2.403695	-0.000284
1173	1.1661e+02	-6.7201	-38.566758	0.000598	5.979682	2.025971	-0.000239
1174	1.1671e+02	-6.7538	-38.804949	0.000598	5.979682	2.025971	-0.000239
1175	1.1681e+02	-6.7955	-39.067363	0.000659	6.587786	2.232002	-0.000264
1176	1.1691e+02	-6.8372	-39.317665	0.000628	6.283734	2.128987	-0.000252
1177	1.1701e+02	-6.8661	-39.580079	0.000659	6.587786	2.232002	-0.000264
1178	1.1711e+02	-6.9126	-39.834418	0.000639	6.385085	2.163325	-0.000256
1179	1.1721e+02	-6.9495	-40.056461	0.000557	5.574280	1.888617	-0.000223
1180	1.1731e+02	-6.9993	-40.367320	0.000780	7.803992	2.644064	-0.000312
1181	1.1741e+02	-7.0394	-40.613586	0.000618	6.182384	2.094648	-0.000248
1182	1.1751e+02	-7.0634	-40.843702	0.000578	5.776981	1.957294	-0.000231
1183	1.1761e+02	-7.1164	-41.146487	0.000760	7.601291	2.575387	-0.000304
1184	1.1771e+02	-7.1549	-41.404864	0.000649	6.486435	2.197664	-0.000260
1185	1.1781e+02	-7.1966	-41.651129	0.000618	6.182384	2.094648	-0.000248
1186	1.1791e+02	-7.2383	-41.889320	0.000598	5.979682	2.025971	-0.000239
1187	1.1801e+02	-7.2640	-42.179994	0.000730	7.297240	2.472372	-0.000292
1188	1.1811e+02	-7.3169	-42.434334	0.000639	6.385085	2.163325	-0.000256
1189	1.1821e+02	-7.3554	-42.652339	0.000547	5.472930	1.854279	-0.000219
1190	1.1831e+02	-7.3859	-42.894567	0.000608	6.081033	2.060310	-0.000243
1191	1.1841e+02	-7.4324	-43.169092	0.000689	6.891837	2.335018	-0.000276
1192	1.1850e+02	-7.4693	-43.411321	0.000608	6.081033	2.060310	-0.000243
1193	1.1860e+02	-7.5014	-43.665660	0.000639	6.385085	2.163325	-0.000256
1194	1.1870e+02	-7.5479	-43.899814	0.000588	5.878332	1.991633	-0.000235
1195	1.1880e+02	-7.5896	-44.186451	0.000720	7.195889	2.438033	-0.000288
1196	1.1890e+02	-7.6217	-44.452902	0.000669	6.689136	2.266341	-0.000268
1197	1.1900e+02	-7.6746	-44.666870	0.000537	5.371579	1.819940	-0.000215
1198	1.1910e+02	-7.7051	-44.953506	0.000720	7.195889	2.438033	-0.000288
1199	1.1920e+02	-7.7452	-45.215920	0.000659	6.587786	2.232002	-0.000264
1200	1.1930e+02	-7.7837	-45.458148	0.000608	6.081033	2.060310	-0.000243
1201	1.1940e+02	-7.8287	-45.680191	0.000557	5.574280	1.888617	-0.000223
1202	1.1950e+02	-7.8752	-45.942605	0.000659	6.587786	2.232002	-0.000264
1203	1.1960e+02	-7.9169	-46.152536	0.000527	5.270229	1.785602	-0.000211
1204	1.1970e+02	-7.9410	-46.447247	0.000740	7.398590	2.506710	-0.000296
1205	1.1980e+02	-7.9891	-46.693512	0.000618	6.182384	2.094648	-0.000248
1206	1.1990e+02	-8.0356	-46.947851	0.000639	6.385085	2.163325	-0.000256
1207	1.2000e+02	-8.0709	-47.206228	0.000649	6.486435	2.197664	-0.000260
1208	1.2010e+02	-8.1126	-47.460568	0.000639	6.385085	2.163325	-0.000256
1209	1.2020e+02	-8.1479	-47.686647	0.000568	5.675631	1.922956	-0.000227
1210	1.2030e+02	-8.2024	-47.904653	0.000547	5.472930	1.854279	-0.000219
1211	1.2039e+02	-8.2297	-48.219549	0.000791	7.905343	2.678403	-0.000316
1212	1.2049e+02	-8.2666	-48.405257	0.000466	4.662125	1.579571	-0.000187
1213	1.2059e+02	-8.3051	-48.647486	0.000608	6.081033	2.060310	-0.000243
1214	1.2069e+02	-8.3468	-48.917974	0.000679	6.790487	2.300679	-0.000272
1215	1.2079e+02	-8.3853	-49.140016	0.000557	5.574280	1.888617	-0.000223
1216	1.2089e+02	-8.4270	-49.422616	0.000709	7.094538	2.403695	-0.000284
1217	1.2099e+02	-8.4671	-49.604287	0.000456	4.560775	1.545232	-0.000183
1218	1.2109e+02	-8.5105	-49.870738	0.000669	6.689136	2.266341	-0.000268
1219	1.2119e+02	-8.5474	-50.161412	0.000730	7.297240	2.472372	-0.000292
1220	1.2129e+02	-8.5875	-50.347120	0.000466	4.662125	1.579571	-0.000187
1221	1.2139e+02	-8.6340	-50.605496	0.000649	6.486435	2.197664	-0.000260
1222	1.2149e+02	-8.6693	-50.855799	0.000628	6.283734	2.128987	-0.000252
1223	1.2159e+02	-8.7110	-51.106101	0.000628	6.283734	2.128987	-0.000252
1224	1.2169e+02	-8.7447	-51.352367	0.000618	6.182384	2.094648	-0.000248
1225	1.2179e+02	-8.7896	-51.550186	0.000497	4.966177	1.682586	-0.000199
1226	1.2189e+02	-8.8217	-51.812600	0.000659	6.587786	2.232002	-0.000264
1227	1.2199e+02	-8.8554	-52.062902	0.000628	6.283734	2.128987	-0.000252
1228	1.2209e+02	-8.9083	-52.321279	0.000649	6.486435	2.197664	-0.000260
1229	1.2219e+02	-8.9484	-52.535247	0.000537	5.371579	1.819940	-0.000215
1230	1.2229e+02	-8.9885	-52.789587	0.000639	6.385085	2.163325	-0.000256
1231	1.2239e+02	-9.0302	-53.007592	0.000547	5.472930	1.854279	-0.000219
1232	1.2248e+02	-9.0703	-53.265969	0.000649	6.486435	2.197664	-0.000260
1233	1.2258e+02	-9.1024	-53.536457	0.000679	6.790487	2.300679	-0.000272
1234	1.2268e+02	-9.1377	-53.710054	0.000436	4.358074	1.476555	-0.000174
1235	1.2278e+02	-9.1826	-54.004765	0.000740	7.398590	2.506710	-0.000296
1236	1.2288e+02	-9.2243	-54.214696	0.000527	5.270229	1.785602	-0.000211
1237	1.2298e+02	-9.2693	-54.460961	0.000618	6.182384	2.094648	-0.000248
1238	1.2308e+02	-9.2997	-54.678966	0.000547	5.472930	1.854279	-0.000219
1239	1.2318e+02	-9.3414	-54.905046	0.000568	5.675631	1.922956	-0.000227
1240	1.2328e+02	-9.3799	-55.171497	0.000669	6.689136	2.266341	-0.000268
1241	1.2338e+02	-9.4281	-55.413725	0.000608	6.081033	2.060310	-0.000243
1242	1.2348e+02	-9.4618	-55.627693	0.000537	5.371579	1.819940	-0.000215
1243	1.2358e+02	-9.5003	-55.877996	0.000628	6.283734	2.128987	-0.000252
1244	1.2368e+02	-9.5372	-56.120224	0.000608	6.081033	2.060310	-0.000243
1245	1.2378e+02	-9.5853	-56.330155	0.000527	5.270229	1.785602	-0.000211
1246	1.2388e+02	-9.6126	-56.576420	0.000618	6.182384	2.094648	-0.000248
1247	1.2398e+02	-9.6591	-56.814611	0.000598	5.979682	2.025971	-0.000239
1248	1.2408e+02	-9.6912	-57.016468	0.000507	5.067527	1.716925	-0.000203
1249	1.2418e+02	-9.7473	-57.254659	0.000598	5.979682	2.025971	-0.000239
1250	1.2428e+02	-9.7858	-57.521110	0.000669	6.689136	2.266341	-0.000268
1251	1.2438e+02	-9.8179	-57.714893	0.000486	4.864826	1.648248	-0.000195
1252	1.2447e+02	-9.8548	-57.949046	0.000588	5.878332	1.991633	-0.000235
1253	1.2457e+02	-9.8965	-58.199349	0.000628	6.283734	2.128987	-0.000252
1254	1.2467e+02	-9.9446	-58.457725	0.000649	6.486435	2.197664	-0.000260
1255	1.2477e+02	-9.9783	-58.671694	0.000537	5.371579	1.819940	-0.000215
1256	1.2487e+02	-10.0152	-58.934108	0.000659	6.587786	2.232002	-0.000264
1257	1.2497e+02	-10.0634	-59.168261	0.000588	5.878332	1.991633	-0.000235
1258	1.2507e+02	-10.1083	-59.394341	0.000568	5.675631	1.922956	-0.000227
1259	1.2517e+02	-10.1452	-59.616383	0.000557	5.574280	1.888617	-0.000223
1260	1.2527e+02	-10.1708	-59.846500	0.000578	5.776981	1.957294	-0.000231
1261	1.2537e+02	-10.2302	-60.096803	0.000628	6.283734	2.128987	-0.000252
1262	1.2547e+02	-10.2543	-60.310771	0.000537	5.371579	1.819940	-0.000215
1263	1.2557e+02	-10.2960	-60.557036	0.000618	6.182384	2.094648	-0.000248
1264	1.2567e+02	-10.3425	-60.771004	0.000537	5.371579	1.819940	-0.000215
1265	1.2577e+02	-10.3810	-61.033418	0.000659	6.587786	2.232002	-0.000264
1266	1.2587e+02	-10.4195	-61.207015	0.000436	4.358074	1.476555	-0.000174
1267	1.2597e+02	-10.4612	-61.473466	0.000669	6.689136	2.266341	-0.000268
1268	1.2607e+02	-10.5013	-61.707620	0.000588	5.878332	1.991633	-0.000235
1269	1.2617e+02	-10.5366	-61.921588	0.000537	5.371579	1.819940	-0.000215
1270	1.2627e+02	-10.5847	-62.155742	0.000588	5.878332	1.991633	-0.000235
1271	1.2636e+02	-10.6216	-62.410081	0.000639	6.385085	2.163325	-0.000256
1272	1.2646e+02	-10.6553	-62.611938	0.000507	5.067527	1.716925	-0.000203
1273	1.2656e+02	-10.7050	-62.846092	0.000588	5.878332	1.991633	-0.000235
1274	1.2666e+02	-10.7371	-63.076209	0.000578	5.776981	1.957294	-0.000231
1275	1.2676e+02	-10.7804	-63.350734	0.000689	6.891837	2.335018	-0.000276
1276	1.2686e+02	-10.8270	-63.564702	0.000537	5.371579	1.819940	-0.000215
1277	1.2696e+02	-10.8607	-63.762522	0.000497	4.966177	1.682586	-0.000199
1278	1.2706e+02	-10.9024	-63.996676	0.000588	5.878332	1.991633	-0.000235
1279	1.2716e+02	-10.9393	-64.206607	0.000527	5.270229	1.785602	-0.000211
1280	1.2726e+02	-10.9778	-64.469021	0.000659	6.587786	2.232002	-0.000264
1281	1.2736e+02	-11.0147	-64.695100	0.000568	5.675631	1.922956	-0.000227
1282	1.2746e+02	-11.0628	-64.888883	0.000486	4.864826	1.648248	-0.000195
1283	1.2756e+02	-11.0885	-65.118999	0.000578	5.776981	1.957294	-0.000231
1284	1.2766e+02	-11.1398	-65.345079	0.000568	5.675631	1.922956	-0.000227
1285	1.2776e+02	-11.1751	-65.603456	0.000649	6.486435	2.197664	-0.000260
1286	1.2786e+02	-11.2136	-65.857795	0.000639	6.385085	2.163325	-0.000256
1287	1.2796e+02	-11.2569	-66.075801	0.000547	5.472930	1.854279	-0.000219
1288	1.2806e+02	-11.3066	-66.269583	0.000486	4.864826	1.648248	-0.000195
1289	1.2816e+02	-11.3419	-66.511811	0.000608	6.081033	2.060310	-0.000243
1290	1.2826e+02	-11.3852	-66.737891	0.000568	5.675631	1.922956	-0.000227
1291	1.2835e+02	-11.4205	-66.996268	0.000649	6.486435	2.197664	-0.000260
1292	1.2845e+02	-11.4526	-67.222347	0.000568	5.675631	1.922956	-0.000227
1293	1.2855e+02	-11.4863	-67.420167	0.000497	4.966177	1.682586	-0.000199
1294	1.2865e+02	-11.5328	-67.678544	0.000649	6.486435	2.197664	-0.000260
1295	1.2875e+02	-11.5777	-67.884437	0.000517	5.168878	1.751263	-0.000207
1296	1.2885e+02	-11.6146	-68.110517	0.000568	5.675631	1.922956	-0.000227
1297	1.2895e+02	-11.6499	-68.385042	0.000689	6.891837	2.335018	-0.000276
1298	1.2905e+02	-11.6997	-68.586899	0.000507	5.067527	1.716925	-0.000203
1299	1.2915e+02	-11.7382	-68.833164	0.000618	6.182384	2.094648	-0.000248
1300	1.2925e+02	-11.7799	-69.063281	0.000578	5.776981	1.957294	-0.000231
1301	1.2935e+02	-11.8200	-69.281286	0.000547	5.472930	1.854279	-0.000219
1302	1.2945e+02	-11.8617	-69.491217	0.000527	5.270229	1.785602	-0.000211
1303	1.2955e+02	-11.8970	-69.721334	0.000578	5.776981	1.957294	-0.000231
1304	1.2965e+02	-11.9371	-69.951451	0.000578	5.776981	1.957294	-0.000231
1305	1.2975e+02	-11.9740	-70.193679	0.000608	6.081033	2.060310	-0.000243
1306	1.2985e+02	-12.0141	-70.399573	0.000517	5.168878	1.751263	-0.000207
1307	1.2995e+02	-12.0574	-70.678135	0.000699	6.993188	2.369356	-0.000280
1308	1.3005e+02	-12.0959	-70.904215	0.000568	5.675631	1.922956	-0.000227
1309	1.3015e+02	-12.1264	-71.085886	0.000456	4.560775	1.545232	-0.000183
1310	1.3025e+02	-12.1761	-71.328114	0.000608	6.081033	2.060310	-0.000243
1311	1.3034e+02	-12.2130	-71.529971	0.000507	5.067527	1.716925	-0.000203
1312	1.3044e+02	-12.2515	-71.752013	0.000557	5.574280	1.888617	-0.000223
1313	1.3054e+02	-12.2900	-72.002316	0.000628	6.283734	2.128987	-0.000252
1314	1.3064e+02	-12.3333	-72.212247	0.000527	5.270229	1.785602	-0.000211
1315	1.3074e+02	-12.3654	-72.422178	0.000527	5.270229	1.785602	-0.000211
1316	1.3084e+02	-12.4136	-72.672480	0.000628	6.283734	2.128987	-0.000252
1317	1.3094e+02	-12.4456	-72.947006	0.000689	6.891837	2.335018	-0.000276
1318	1.3104e+02	-12.4857	-73.156937	0.000527	5.270229	1.785602	-0.000211
1319	1.3114e+02	-12.5323	-73.354756	0.000497	4.966177	1.682586	-0.000199
1320	1.3124e+02	-12.5692	-73.601022	0.000618	6.182384	2.094648	-0.000248
1321	1.3134e+02	-12.6077	-73.831138	0.000578	5.776981	1.957294	-0.000231
1322	1.3144e+02	-12.6574	-74.032995	0.000507	5.067527	1.716925	-0.000203
1323	1.3154e+02	-12.6975	-74.259075	0.000568	5.675631	1.922956	-0.000227
1324	1.3164e+02	-12.7296	-74.505340	0.000618	6.182384	2.094648	-0.000248
1325	1.3174e+02	-12.7697	-74.759680	0.000639	6.385085	2.163325	-0.000256
1326	1.3184e+02	-12.8098	-74.985759	0.000568	5.675631	1.922956	-0.000227
1327	1.3194e+02	-12.8531	-75.248173	0.000659	6.587786	2.232002	-0.000264
1328	1.3204e+02	-12.8932	-75.429844	0.000456	4.560775	1.545232	-0.000183
1329	1.3214e+02	-12.9269	-75.643812	0.000537	5.371579	1.819940	-0.000215
1330	1.3224e+02	-12.9718	-75.861818	0.000547	5.472930	1.854279	-0.000219
1331	1.3234e+02	-13.0071	-76.112120	0.000628	6.283734	2.128987	-0.000252
1332	1.3243e+02	-13.0408	-76.342237	0.000578	5.776981	1.957294	-0.000231
1333	1.3253e+02	-13.0873	-76.576391	0.000588	5.878332	1.991633	-0.000235
1334	1.3263e+02	-13.1322	-76.814582	0.000598	5.979682	2.025971	-0.000239
1335	1.3273e+02	-13.1611	-77.004327	0.000476	4.763476	1.613909	-0.000191
1336	1.3283e+02	-13.2125	-77.234444	0.000578	5.776981	1.957294	-0.000231
1337	1.3293e+02	-13.2478	-77.456486	0.000557	5.574280	1.888617	-0.000223
1338	1.3303e+02	-13.2879	-77.666417	0.000527	5.270229	1.785602	-0.000211
1339	1.3313e+02	-13.3296	-77.900571	0.000588	5.878332	1.991633	-0.000235
1340	1.3323e+02	-13.3713	-78.179134	0.000699	6.993188	2.369356	-0.000280
1341	1.3333e+02	-13.4066	-78.385027	0.000517	5.168878	1.751263	-0.000207
1342	1.3343e+02	-13.4515	-78.578810	0.000486	4.864826	1.648248	-0.000195
1343	1.3353e+02	-13.4836	-78.885632	0.000770	7.702642	2.609726	-0.000308
1344	1.3363e+02	-13.5205	-79.035006	0.000375	3.749970	1.270524	-0.000150
1345	1.3373e+02	-13.5622	-79.253012	0.000547	5.472930	1.854279	-0.000219
1346	1.3383e+02	-13.6135	-79.503314	0.000628	6.283734	2.128987	-0.000252
1347	1.3393e+02	-13.6520	-79.773802	0.000679	6.790487	2.300679	-0.000272
1348	1.3403e+02	-13.6873	-79.955473	0.000456	4.560775	1.545232	-0.000183
1349	1.3413e+02	-13.7226	-80.169441	0.000537	5.371579	1.819940	-0.000215
1350	1.3423e+02	-13.7547	-80.448004	0.000699	6.993188	2.369356	-0.000280
1351	1.3432e+02	-13.8060	-80.649861	0.000507	5.067527	1.716925	-0.000203
1352	1.3442e+02	-13.8461	-80.896126	0.000618	6.182384	2.094648	-0.000248
1353	1.3452e+02	-13.8830	-81.081834	0.000466	4.662125	1.579571	-0.000187
1354	1.3462e+02	-13.9231	-81.352322	0.000679	6.790487	2.300679	-0.000272
1355	1.3472e+02	-13.9616	-81.546105	0.000486	4.864826	1.648248	-0.000195
1356	1.3482e+02	-14.0162	-81.784296	0.000598	5.979682	2.025971	-0.000239
1357	1.3492e+02	-14.0515	-82.010375	0.000568	5.675631	1.922956	-0.000227
1358	1.3502e+02	-14.0707	-82.212232	0.000507	5.067527	1.716925	-0.000203
1359	1.3512e+02	-14.1221	-82.510980	0.000750	7.499941	2.541049	-0.000300
1360	1.3522e+02	-14.1654	-82.704763	0.000486	4.864826	1.648248	-0.000195
1361	1.3532e+02	-14.2135	-82.934879	0.000578	5.776981	1.957294	-0.000231
1362	1.3542e+02	-14.2520	-83.181145	0.000618	6.182384	2.094648	-0.000248
1363	1.3552e+02	-14.2761	-83.399150	0.000547	5.472930	1.854279	-0.000219
1364	1.3562e+02	-14.3226	-83.609081	0.000527	5.270229	1.785602	-0.000211
1365	1.3572e+02	-14.3643	-83.883606	0.000689	6.891837	2.335018	-0.000276
1366	1.3582e+02	-14.4044	-84.093537	0.000527	5.270229	1.785602	-0.000211
1367	1.3592e+02	-14.4445	-84.351914	0.000649	6.486435	2.197664	-0.000260
1368	1.3602e+02	-14.4878	-84.569919	0.000547	5.472930	1.854279	-0.000219
1369	1.3612e+02	-14.5231	-84.779850	0.000527	5.270229	1.785602	-0.000211
1370	1.3622e+02	-14.5712	-84.989782	0.000527	5.270229	1.785602	-0.000211
1371	1.3631e+02	-14.6049	-85.268344	0.000699	6.993188	2.369356	-0.000280
1372	1.3641e+02	-14.6434	-85.502498	0.000588	5.878332	1.991633	-0.000235
1373	1.3651e+02	-14.6803	-85.704355	0.000507	5.067527	1.716925	-0.000203
1374	1.3661e+02	-14.7188	-85.974843	0.000679	6.790487	2.300679	-0.000272
1375	1.3671e+02	-14.7557	-86.204959	0.000578	5.776981	1.957294	-0.000231
1376	1.3681e+02	-14.7942	-86.422965	0.000547	5.472930	1.854279	-0.000219
1377	1.3691e+02	-14.8488	-86.665193	0.000608	6.081033	2.060310	-0.000243
1378	1.3701e+02	-14.8777	-86.863013	0.000497	4.966177	1.682586	-0.000199
1379	1.3711e+02	-14.9097	-87.089092	0.000568	5.675631	1.922956	-0.000227
1380	1.3721e+02	-14.9611	-87.343432	0.000639	6.385085	2.163325	-0.000256
1381	1.3731e+02	-14.9980	-87.569511	0.000568	5.675631	1.922956	-0.000227
1382	1.3741e+02	-15.0477	-87.819814	0.000628	6.283734	2.128987	-0.000252
1383	1.3751e+02	-15.0830	-88.070116	0.000628	6.283734	2.128987	-0.000252
1384	1.3761e+02	-15.1151	-88.271973	0.000507	5.067527	1.716925	-0.000203
1385	1.3771e+02	-15.1648	-88.518238	0.000618	6.182384	2.094648	-0.000248
1386	1.3781e+02	-15.2017	-88.736244	0.000547	5.472930	1.854279	-0.000219
1387	1.3791e+02	-15.2306	-88.986546	0.000628	6.283734	2.128987	-0.000252
1388	1.3801e+02	-15.2867	-89.216663	0.000578	5.776981	1.957294	-0.000231
1389	1.3811e+02	-15.3172	-89.426594	0.000527	5.270229	1.785602	-0.000211
1390	1.3821e+02	-15.3669	-89.660748	0.000588	5.878332	1.991633	-0.000235
1391	1.3831e+02	-15.3990	-89.923161	0.000659	6.587786	2.232002	-0.000264
1392	1.3840e+02	-15.4359	-90.157315	0.000588	5.878332	1.991633	-0.000235
1393	1.3850e+02	-15.4792	-90.411655	0.000639	6.385085	2.163325	-0.000256
1394	1.3860e+02	-15.5193	-90.649846	0.000598	5.979682	2.025971	-0.000239
1395	1.3870e+02	-15.5627	-90.875925	0.000568	5.675631	1.922956	-0.000227
1396	1.3880e+02	-15.6060	-91.134302	0.000649	6.486435	2.197664	-0.000260
1397	1.3890e+02	-15.6381	-91.368456	0.000588	5.878332	1.991633	-0.000235
1398	1.3900e+02	-15.6798	-91.558201	0.000476	4.763476	1.613909	-0.000191
1399	1.3910e+02	-15.7215	-91.832727	0.000689	6.891837	2.335018	-0.000276
1400	1.3920e+02	-15.7632	-92.095140	0.000659	6.587786	2.232002	-0.000264
1401	1.3930e+02	-15.8001	-92.284886	0.000476	4.763476	1.613909	-0.000191
1402	1.3940e+02	-15.8322	-92.502891	0.000547	5.472930	1.854279	-0.000219
1403	1.3950e+02	-15.8787	-92.817788	0.000791	7.905343	2.678403	-0.000316
1404	1.3960e+02	-15.9156	-92.975236	0.000395	3.952671	1.339201	-0.000158
1405	1.3970e+02	-15.9557	-93.290133	0.000791	7.905343	2.678403	-0.000316
1406	1.3980e+02	-15.9910	-93.536398	0.000618	6.182384	2.094648	-0.000248
1407	1.3990e+02	-16.0455	-93.746329	0.000527	5.270229	1.785602	-0.000211
1408	1.4000e+02	-16.0712	-93.976446	0.000578	5.776981	1.957294	-0.000231
1409	1.4010e+02	-16.1274	-94.230785	0.000639	6.385085	2.163325	-0.000256
1410	1.4020e+02	-16.1562	-94.452828	0.000557	5.574280	1.888617	-0.000223
1411	1.4029e+02	-16.2011	-94.699093	0.000618	6.182384	2.094648	-0.000248
1412	1.4039e+02	-16.2316	-94.973618	0.000689	6.891837	2.335018	-0.000276
1413	1.4049e+02	-16.2782	-95.171438	0.000497	4.966177	1.682586	-0.000199
1414	1.4059e+02	-16.3231	-95.470186	0.000750	7.499941	2.541049	-0.000300
1415	1.4069e+02	-16.3632	-95.672043	0.000507	5.067527	1.716925	-0.000203
1416	1.4079e+02	-16.3921	-95.946568	0.000689	6.891837	2.335018	-0.000276
1417	1.4089e+02	-16.4370	-96.196870	0.000628	6.283734	2.128987	-0.000252
1418	1.4099e+02	-16.4803	-96.455247	0.000649	6.486435	2.197664	-0.000260
1419	1.4109e+02	-16.5092	-96.717661	0.000659	6.587786	2.232002	-0.000264
1420	1.4119e+02	-16.5525	-96.915481	0.000497	4.966177	1.682586	-0.000199
1421	1.4129e+02	-16.5958	-97.206154	0.000730	7.297240	2.472372	-0.000292
1422	1.4139e+02	-16.6231	-97.440308	0.000588	5.878332	1.991633	-0.000235
1423	1.4149e+02	-16.6696	-97.678499	0.000598	5.979682	2.025971	-0.000239
1424	1.4159e+02	-16.7129	-97.965136	0.000720	7.195889	2.438033	-0.000288
1425	1.4169e+02	-16.7450	-98.227550	0.000659	6.587786	2.232002	-0.000264
1426	1.4179e+02	-16.7899	-98.485926	0.000649	6.486435	2.197664	-0.000260
1427	1.4189e+02	-16.8348	-98.756414	0.000679	6.790487	2.300679	-0.000272
1428	1.4199e+02	-16.8797	-98.986531	0.000578	5.776981	1.957294	-0.000231
1429	1.4209e+02	-16.9118	-99.257019	0.000679	6.790487	2.300679	-0.000272
1430	1.4219e+02	-16.9535	-99.479062	0.000557	5.574280	1.888617	-0.000223
1431	1.4228e+02	-17.0033	-99.793958	0.000791	7.905343	2.678403	-0.000316
1432	1.4238e+02	-17.0337	-100.016001	0.000557	5.574280	1.888617	-0.000223
1433	1.4248e+02	-17.0658	-100.290526	0.000689	6.891837	2.335018	-0.000276
1434	1.4258e+02	-17.1107	-100.561014	0.000679	6.790487	2.300679	-0.000272
1435	1.4268e+02	-17.1525	-100.799205	0.000598	5.979682	2.025971	-0.000239
1436	1.4278e+02	-17.1974	-101.073730	0.000689	6.891837	2.335018	-0.000276
1437	1.4288e+02	-17.2439	-101.348256	0.000689	6.891837	2.335018	-0.000276
1438	1.4298e+02	-17.2792	-101.630855	0.000709	7.094538	2.403695	-0.000284
1439	1.4308e+02	-17.3129	-101.865009	0.000588	5.878332	1.991633	-0.000235
1440	1.4318e+02	-17.3546	-102.147608	0.000709	7.094538	2.403695	-0.000284
1441	1.4328e+02	-17.3915	-102.397911	0.000628	6.283734	2.128987	-0.000252
1442	1.4338e+02	-17.4428	-102.664362	0.000669	6.689136	2.266341	-0.000268
1443	1.4348e+02	-17.4765	-102.971184	0.000770	7.702642	2.609726	-0.000308
1444	1.4358e+02	-17.5102	-103.205338	0.000588	5.878332	1.991633	-0.000235
1445	1.4368e+02	-17.5583	-103.483900	0.000699	6.993188	2.369356	-0.000280
1446	1.4378e+02	-17.5920	-103.778611	0.000740	7.398590	2.506710	-0.000296
1447	1.4388e+02	-17.6289	-104.008728	0.000578	5.776981	1.957294	-0.000231
1448	1.4398e+02	-17.6722	-104.307476	0.000750	7.499941	2.541049	-0.000300
1449	1.4408e+02	-17.7107	-104.573927	0.000669	6.689136	2.266341	-0.000268
1450	1.4418e+02	-17.7476	-104.820192	0.000618	6.182384	2.094648	-0.000248
1451	1.4428e+02	-17.7942	-105.155275	0.000841	8.412096	2.850095	-0.000337
1452	1.4437e+02	-17.8262	-105.389428	0.000588	5.878332	1.991633	-0.000235
1453	1.4447e+02	-17.8712	-105.712399	0.000811	8.108044	2.747080	-0.000325
1454	1.4457e+02	-17.9097	-105.958665	0.000618	6.182384	2.094648	-0.000248
1455	1.4467e+02	-17.9466	-106.241264	0.000709	7.094538	2.403695	-0.000284
1456	1.4477e+02	-17.9931	-106.535975	0.000740	7.398590	2.506710	-0.000296
1457	1.4487e+02	-18.0380	-106.846834	0.000780	7.803992	2.644064	-0.000312
1458	1.4497e+02	-18.0701	-107.121360	0.000689	6.891837	2.335018	-0.000276
1459	1.4507e+02	-18.1054	-107.395885	0.000689	6.891837	2.335018	-0.000276
1460	1.4517e+02	-18.1503	-107.666373	0.000679	6.790487	2.300679	-0.000272
1461	1.4527e+02	-18.1872	-107.948972	0.000709	7.094538	2.403695	-0.000284
1462	1.4537e+02	-18.2385	-108.292129	0.000861	8.614797	2.918772	-0.000345
1463	1.4547e+02	-18.2658	-108.582803	0.000730	7.297240	2.472372	-0.000292
1464	1.4557e+02	-18.3059	-108.853291	0.000679	6.790487	2.300679	-0.000272
1465	1.4567e+02	-18.3540	-109.172225	0.000801	8.006693	2.712741	-0.000321
1466	1.4577e+02	-18.3941	-109.442713	0.000679	6.790487	2.300679	-0.000272
1467	1.4587e+02	-18.4294	-109.745498	0.000760	7.601291	2.575387	-0.000304
1468	1.4597e+02	-18.4615	-110.044246	0.000750	7.499941	2.541049	-0.000300
1469	1.4607e+02	-18.5064	-110.371254	0.000821	8.209395	2.781418	-0.000329
1470	1.4617e+02	-18.5497	-110.633668	0.000659	6.587786	2.232002	-0.000264
1471	1.4626e+02	-18.5915	-110.924342	0.000730	7.297240	2.472372	-0.000292
1472	1.4636e+02	-18.6267	-111.259424	0.000841	8.412096	2.850095	-0.000337
1473	1.4646e+02	-18.6620	-111.517800	0.000649	6.486435	2.197664	-0.000260
1474	1.4656e+02	-18.7054	-111.852883	0.000841	8.412096	2.850095	-0.000337
1475	1.4666e+02	-18.7439	-112.187965	0.000841	8.412096	2.850095	-0.000337
1476	1.4676e+02	-18.7840	-112.454416	0.000669	6.689136	2.266341	-0.000268
1477	1.4686e+02	-18.8369	-112.773350	0.000801	8.006693	2.712741	-0.000321
1478	1.4696e+02	-18.8754	-113.047875	0.000689	6.891837	2.335018	-0.000276
1479	1.4706e+02	-18.9123	-113.362772	0.000791	7.905343	2.678403	-0.000316
1480	1.4716e+02	-18.9524	-113.722077	0.000902	9.020199	3.056126	-0.000361
1481	1.4726e+02	-18.9925	-114.000639	0.000699	6.993188	2.369356	-0.000280
1482	1.4736e+02	-19.0214	-114.343796	0.000861	8.614797	2.918772	-0.000345
1483	1.4746e+02	-19.0663	-114.650618	0.000770	7.702642	2.609726	-0.000308
1484	1.4756e+02	-19.1048	-114.985700	0.000841	8.412096	2.850095	-0.000337
1485	1.4766e+02	-19.1353	-115.300597	0.000791	7.905343	2.678403	-0.000316
1486	1.4776e+02	-19.1946	-115.615493	0.000791	7.905343	2.678403	-0.000316
1487	1.4786e+02	-19.2299	-115.934427	0.000801	8.006693	2.712741	-0.000321
1488	1.4796e+02	-19.2684	-116.241249	0.000770	7.702642	2.609726	-0.000308
1489	1.4806e+02	-19.3134	-116.596517	0.000892	8.918848	3.021788	-0.000357
1490	1.4816e+02	-19.3454	-116.879117	0.000709	7.094538	2.403695	-0.000284
1491	1.4825e+02	-19.3839	-117.226310	0.000872	8.716147	2.953111	-0.000349
1492	1.4835e+02	-19.4224	-117.545244	0.000801	8.006693	2.712741	-0.000321
1493	1.4845e+02	-19.4626	-117.884364	0.000851	8.513446	2.884434	-0.000341
1494	1.4855e+02	-19.5043	-118.255780	0.000932	9.324251	3.159142	-0.000373
1495	1.4865e+02	-19.5444	-118.546454	0.000730	7.297240	2.472372	-0.000292
1496	1.4875e+02	-19.5781	-118.897685	0.000882	8.817498	2.987449	-0.000353
1497	1.4885e+02	-19.6198	-119.236804	0.000851	8.513446	2.884434	-0.000341
1498	1.4895e+02	-19.6567	-119.543626	0.000770	7.702642	2.609726	-0.000308
1499	1.4905e+02	-19.7000	-119.898894	0.000892	8.918848	3.021788	-0.000357
1500	1.4915e+02	-19.7417	-120.229939	0.000831	8.310745	2.815757	-0.000333
1501	1.4925e+02	-19.7850	-120.560985	0.000831	8.310745	2.815757	-0.000333
1502	1.4935e+02	-19.8251	-120.912215	0.000882	8.817498	2.987449	-0.000353
1503	1.4945e+02	-19.8620	-121.231149	0.000801	8.006693	2.712741	-0.000321
1504	1.4955e+02	-19.8877	-121.606603	0.000943	9.425601	3.193480	-0.000377
1505	1.4965e+02	-19.9406	-121.925536	0.000801	8.006693	2.712741	-0.000321
1506	1.4975e+02	-19.9855	-122.313101	0.000973	9.729653	3.296496	-0.000390
1507	1.4985e+02	-20.0192	-122.660295	0.000872	8.716147	2.953111	-0.000349
1508	1.4995e+02	-19.9743	-122.704704	-0.000111	-1.114856	-0.377723	-0.000045
1509	1.5005e+02	-19.9406	-122.700666	0.000010	0.101351	0.034338	0.000004
1510	1.5015e+02	-19.8941	-122.716815	-0.000041	-0.405402	-0.137354	-0.000016
1511	1.5025e+02	-19.8652	-122.664332	0.000132	1.317557	0.446400	0.000053
1512	1.5034e+02	-19.8267	-122.648184	0.000041	0.405402	0.137354	0.000016
1513	1.5044e+02	-19.7802	-122.603775	0.000111	1.114856	0.377723	0.000045
1514	1.5054e+02	-19.7465	-122.559367	0.000111	1.114856	0.377723	0.000045
1515	1.5064e+02	-19.7016	-122.510921	0.000122	1.216207	0.412062	0.000049
1516	1.5074e+02	-19.6631	-122.502847	0.000020	0.202701	0.068677	0.000008
1517	1.5084e+02	-19.6262	-122.442290	0.000152	1.520258	0.515077	0.000061
1518	1.5094e+02	-19.5845	-122.397881	0.000111	1.114856	0.377723	0.000045
1519	1.5104e+02	-19.5444	-122.333287	0.000162	1.621609	0.549416	0.000065
1520	1.5114e+02	-19.4978	-122.236396	0.000243	2.432413	0.824124	0.000097
1521	1.5124e+02	-19.4770	-122.163727	0.000182	1.824310	0.618093	0.000073
1522	1.5134e+02	-19.4257	-122.111245	0.000132	1.317557	0.446400	0.000053
1523	1.5144e+02	-19.3904	-122.026465	0.000213	2.128362	0.721108	0.000085
1524	1.5154e+02	-19.3358	-121.929574	0.000243	2.432413	0.824124	0.000097
1525	1.5164e+02	-19.3021	-121.844794	0.000213	2.128362	0.721108	0.000085
1526	1.5174e+02	-19.2749	-121.764051	0.000203	2.027011	0.686770	0.000081
1527	1.5184e+02	-19.2267	-121.679271	0.000213	2.128362	0.721108	0.000085
1528	1.5194e+02	-19.1850	-121.594491	0.000213	2.128362	0.721108	0.000085
1529	1.5204e+02	-19.1513	-121.445117	0.000375	3.749970	1.270524	0.000150
1530	1.5214e+02	-19.1112	-121.364375	0.000203	2.027011	0.686770	0.000081
1531	1.5224e+02	-19.0663	-121.263446	0.000253	2.533764	0.858462	0.000101
1532	1.5233e+02	-19.0342	-121.162518	0.000253	2.533764	0.858462	0.000101
1533	1.5243e+02	-18.9925	-121.025255	0.000345	3.445919	1.167509	0.000138
1534	1.5253e+02	-18.9540	-120.972772	0.000132	1.317557	0.446400	0.000053
1535	1.5263e+02	-18.9091	-120.819361	0.000385	3.851321	1.304863	0.000154
1536	1.5273e+02	-18.8674	-120.698247	0.000304	3.040516	1.030155	0.000122
1537	1.5283e+02	-18.8321	-120.556947	0.000355	3.547269	1.201847	0.000142
1538	1.5293e+02	-18.7920	-120.431796	0.000314	3.141867	1.064493	0.000126
1539	1.5303e+02	-18.7551	-120.322794	0.000274	2.736465	0.927139	0.000110
1540	1.5313e+02	-18.7086	-120.209754	0.000284	2.837815	0.961478	0.000114
1541	1.5323e+02	-18.6636	-120.092677	0.000294	2.939166	0.995816	0.000118
1542	1.5333e+02	-18.6235	-119.971563	0.000304	3.040516	1.030155	0.000122
1543	1.5343e+02	-18.5802	-119.834300	0.000345	3.445919	1.167509	0.000138
1544	1.5353e+02	-18.5497	-119.697037	0.000345	3.445919	1.167509	0.000138
1545	1.5363e+02	-18.5096	-119.588035	0.000274	2.736465	0.927139	0.000110
1546	1.5373e+02	-18.4727	-119.474995	0.000284	2.837815	0.961478	0.000114
1547	1.5383e+02	-18.4278	-119.301398	0.000436	4.358074	1.476555	0.000174
1548	1.5393e+02	-18.3957	-119.200470	0.000253	2.533764	0.858462	0.000101
1549	1.5403e+02	-18.3412	-119.063207	0.000345	3.445919	1.167509	0.000138
1550	1.5413e+02	-18.3027	-118.913833	0.000375	3.749970	1.270524	0.000150
1551	1.5422e+02	-18.2690	-118.816942	0.000243	2.432413	0.824124	0.000097
1552	1.5432e+02	-18.2353	-118.659494	0.000395	3.952671	1.339201	0.000158
1553	1.5442e+02	-18.1920	-118.530305	0.000324	3.243218	1.098832	0.000130
1554	1.5452e+02	-18.1471	-118.344597	0.000466	4.662125	1.579571	0.000187
1555	1.5462e+02	-18.1118	-118.199260	0.000365	3.648620	1.236186	0.000146
1556	1.5472e+02	-18.0653	-118.090257	0.000274	2.736465	0.927139	0.000110
1557	1.5482e+02	-18.0284	-117.916661	0.000436	4.358074	1.476555	0.000174
1558	1.5492e+02	-17.9915	-117.815732	0.000253	2.533764	0.858462	0.000101
1559	1.5502e+02	-17.9433	-117.634061	0.000456	4.560775	1.545232	0.000183
1560	1.5512e+02	-17.9064	-117.521021	0.000284	2.837815	0.961478	0.000114
1561	1.5522e+02	-17.8760	-117.383759	0.000345	3.445919	1.167509	0.000138
1562	1.5532e+02	-17.8391	-117.210162	0.000436	4.358074	1.476555	0.000174
1563	1.5542e+02	-17.7942	-117.089048	0.000304	3.040516	1.030155	0.000122
1564	1.5552e+02	-17.7508	-116.931600	0.000395	3.952671	1.339201	0.000158
1565	1.5562e+02	-17.7123	-116.810485	0.000304	3.040516	1.030155	0.000122
1566	1.5572e+02	-17.6706	-116.649000	0.000405	4.054022	1.373540	0.000162
1567	1.5582e+02	-17.6321	-116.515775	0.000334	3.344568	1.133170	0.000134
1568	1.5592e+02	-17.5952	-116.338141	0.000446	4.459424	1.510894	0.000179
1569	1.5602e+02	-17.5583	-116.164544	0.000436	4.358074	1.476555	0.000174
1570	1.5612e+02	-17.5118	-116.079764	0.000213	2.128362	0.721108	0.000085
1571	1.5622e+02	-17.4829	-115.877907	0.000507	5.067527	1.716925	0.000203
1572	1.5631e+02	-17.4412	-115.716422	0.000405	4.054022	1.373540	0.000162
1573	1.5641e+02	-17.3947	-115.571085	0.000365	3.648620	1.236186	0.000146
1574	1.5651e+02	-17.3578	-115.474194	0.000243	2.432413	0.824124	0.000097
1575	1.5661e+02	-17.3241	-115.268300	0.000517	5.168878	1.751263	0.000207
1576	1.5671e+02	-17.2744	-115.131037	0.000345	3.445919	1.167509	0.000138
1577	1.5681e+02	-17.2375	-114.929180	0.000507	5.067527	1.716925	0.000203
1578	1.5691e+02	-17.1990	-114.739435	0.000476	4.763476	1.613909	0.000191
1579	1.5701e+02	-17.1428	-114.614284	0.000314	3.141867	1.064493	0.000126
1580	1.5711e+02	-17.1140	-114.460872	0.000385	3.851321	1.304863	0.000154
1581	1.5721e+02	-17.0722	-114.283238	0.000446	4.459424	1.510894	0.000179
1582	1.5731e+02	-17.0353	-114.129827	0.000385	3.851321	1.304863	0.000154
1583	1.5741e+02	-17.0033	-113.992565	0.000345	3.445919	1.167509	0.000138
1584	1.5751e+02	-16.9535	-113.823005	0.000426	4.256723	1.442217	0.000170
1585	1.5761e+02	-16.9102	-113.665557	0.000395	3.952671	1.339201	0.000158
1586	1.5771e+02	-16.8733	-113.491960	0.000436	4.358074	1.476555	0.000174
1587	1.5781e+02	-16.8428	-113.350660	0.000355	3.547269	1.201847	0.000142
1588	1.5791e+02	-16.7931	-113.205323	0.000365	3.648620	1.236186	0.000146
1589	1.5801e+02	-16.7562	-113.035764	0.000426	4.256723	1.442217	0.000170
1590	1.5811e+02	-16.7193	-112.906575	0.000324	3.243218	1.098832	0.000130
1591	1.5821e+02	-16.6824	-112.728941	0.000446	4.459424	1.510894	0.000179
1592	1.5830e+02	-16.6407	-112.555344	0.000436	4.358074	1.476555	0.000174
1593	1.5840e+02	-16.5958	-112.373673	0.000456	4.560775	1.545232	0.000183
1594	1.5850e+02	-16.5557	-112.228336	0.000365	3.648620	1.236186	0.000146
1595	1.5860e+02	-16.5172	-112.066851	0.000405	4.054022	1.373540	0.000162
1596	1.5870e+02	-16.4787	-111.893254	0.000436	4.358074	1.476555	0.000174
1597	1.5880e+02	-16.4402	-111.739843	0.000385	3.851321	1.304863	0.000154
1598	1.5890e+02	-16.3937	-111.566246	0.000436	4.358074	1.476555	0.000174
1599	1.5900e+02	-16.3552	-111.477429	0.000223	2.229712	0.755447	0.000089
1600	1.5910e+02	-16.3167	-111.247312	0.000578	5.776981	1.957294	0.000231
1601	1.5920e+02	-16.2814	-111.106013	0.000355	3.547269	1.201847	0.000142
1602	1.5930e+02	-16.2429	-110.948564	0.000395	3.952671	1.339201	0.000158
1603	1.5940e+02	-16.2044	-110.742670	0.000517	5.168878	1.751263	0.000207
1604	1.5950e+02	-16.1530	-110.544851	0.000497	4.966177	1.682586	0.000199
1605	1.5960e+02	-16.1161	-110.427774	0.000294	2.939166	0.995816	0.000118
1606	1.5970e+02	-16.0744	-110.258214	0.000426	4.256723	1.442217	0.000170
1607	1.5980e+02	-16.0423	-110.120952	0.000345	3.445919	1.167509	0.000138
1608	1.5990e+02	-15.9990	-109.902946	0.000547	5.472930	1.854279	0.000219
1609	1.6000e+02	-15.9589	-109.753572	0.000375	3.749970	1.270524	0.000150
1610	1.6010e+02	-15.9140	-109.608235	0.000365	3.648620	1.236186	0.000146
1611	1.6019e+02	-15.8787	-109.442713	0.000416	4.155373	1.407878	0.000166
1612	1.6029e+02	-15.8402	-109.244893	0.000497	4.966177	1.682586	0.000199
1613	1.6039e+02	-15.7953	-109.079371	0.000416	4.155373	1.407878	0.000166
1614	1.6049e+02	-15.7552	-108.901737	0.000446	4.459424	1.510894	0.000179
1615	1.6059e+02	-15.7215	-108.744288	0.000395	3.952671	1.339201	0.000158
1616	1.6069e+02	-15.6846	-108.619137	0.000314	3.141867	1.064493	0.000126
1617	1.6079e+02	-15.6300	-108.389020	0.000578	5.776981	1.957294	0.000231
1618	1.6089e+02	-15.5980	-108.259832	0.000324	3.243218	1.098832	0.000130
1619	1.6099e+02	-15.5595	-108.082198	0.000446	4.459424	1.510894	0.000179
1620	1.6109e+02	-15.5210	-107.868230	0.000537	5.371579	1.819940	0.000215
1621	1.6119e+02	-15.4857	-107.718856	0.000375	3.749970	1.270524	0.000150
1622	1.6129e+02	-15.4439	-107.577556	0.000355	3.547269	1.201847	0.000142
1623	1.6139e+02	-15.4071	-107.407996	0.000426	4.256723	1.442217	0.000170
1624	1.6149e+02	-15.3621	-107.230362	0.000446	4.459424	1.510894	0.000179
1625	1.6159e+02	-15.3220	-107.076951	0.000385	3.851321	1.304863	0.000154
1626	1.6169e+02	-15.2803	-106.895280	0.000456	4.560775	1.545232	0.000183
1627	1.6179e+02	-15.2434	-106.725720	0.000426	4.256723	1.442217	0.000170
1628	1.6189e+02	-15.2001	-106.564235	0.000405	4.054022	1.373540	0.000162
1629	1.6199e+02	-15.1712	-106.390638	0.000436	4.358074	1.476555	0.000174
1630	1.6209e+02	-15.1295	-106.160521	0.000578	5.776981	1.957294	0.000231
1631	1.6219e+02	-15.0766	-106.047482	0.000284	2.837815	0.961478	0.000114
1632	1.6228e+02	-15.0397	-105.877922	0.000426	4.256723	1.442217	0.000170
1633	1.6238e+02	-15.0060	-105.700288	0.000446	4.459424	1.510894	0.000179
1634	1.6248e+02	-14.9547	-105.502468	0.000497	4.966177	1.682586	0.000199
1635	1.6258e+02	-14.9178	-105.345020	0.000395	3.952671	1.339201	0.000158
1636	1.6268e+02	-14.8809	-105.199683	0.000365	3.648620	1.236186	0.000146
1637	1.6278e+02	-14.8327	-104.997826	0.000507	5.067527	1.716925	0.000203
1638	1.6288e+02	-14.7974	-104.844415	0.000385	3.851321	1.304863	0.000154
1639	1.6298e+02	-14.7589	-104.650633	0.000486	4.864826	1.648248	0.000195
1640	1.6308e+02	-14.7269	-104.513370	0.000345	3.445919	1.167509	0.000138
1641	1.6318e+02	-14.6851	-104.347847	0.000416	4.155373	1.407878	0.000166
1642	1.6328e+02	-14.6370	-104.145991	0.000507	5.067527	1.716925	0.000203
1643	1.6338e+02	-14.6001	-103.988542	0.000395	3.952671	1.339201	0.000158
1644	1.6348e+02	-14.5632	-103.790723	0.000497	4.966177	1.682586	0.000199
1645	1.6358e+02	-14.5247	-103.592903	0.000497	4.966177	1.682586	0.000199
1646	1.6368e+02	-14.4910	-103.451603	0.000355	3.547269	1.201847	0.000142
1647	1.6378e+02	-14.4509	-103.278006	0.000436	4.358074	1.476555	0.000174
1648	1.6388e+02	-14.4124	-103.072113	0.000517	5.168878	1.751263	0.000207
1649	1.6398e+02	-14.3627	-102.963110	0.000274	2.736465	0.927139	0.000110
1650	1.6408e+02	-14.3210	-102.757216	0.000517	5.168878	1.751263	0.000207
1651	1.6418e+02	-14.2825	-102.551322	0.000517	5.168878	1.751263	0.000207
1652	1.6427e+02	-14.2408	-102.418097	0.000334	3.344568	1.133170	0.000134
1653	1.6437e+02	-14.2087	-102.228351	0.000476	4.763476	1.613909	0.000191
1654	1.6447e+02	-14.1622	-102.034569	0.000486	4.864826	1.648248	0.000195
1655	1.6457e+02	-14.1301	-101.844823	0.000476	4.763476	1.613909	0.000191
1656	1.6467e+02	-14.0932	-101.695449	0.000375	3.749970	1.270524	0.000150
1657	1.6477e+02	-14.0402	-101.509741	0.000466	4.662125	1.579571	0.000187
1658	1.6487e+02	-14.0033	-101.336144	0.000436	4.358074	1.476555	0.000174
1659	1.6497e+02	-13.9600	-101.166584	0.000426	4.256723	1.442217	0.000170
1660	1.6507e+02	-13.9199	-101.001062	0.000416	4.155373	1.407878	0.000166
1661	1.6517e+02	-13.8814	-100.783057	0.000547	5.472930	1.854279	0.000219
1662	1.6527e+02	-13.8381	-100.613497	0.000426	4.256723	1.442217	0.000170
1663	1.6537e+02	-13.8076	-100.496420	0.000294	2.939166	0.995816	0.000118
1664	1.6547e+02	-13.7659	-100.258229	0.000598	5.979682	2.025971	0.000239
1665	1.6557e+02	-13.7322	-100.137115	0.000304	3.040516	1.030155	0.000122
1666	1.6567e+02	-13.6809	-99.911035	0.000568	5.675631	1.922956	0.000227
1667	1.6577e+02	-13.6440	-99.729364	0.000456	4.560775	1.545232	0.000183
1668	1.6587e+02	-13.6055	-99.555767	0.000436	4.358074	1.476555	0.000174
1669	1.6597e+02	-13.5606	-99.394282	0.000405	4.054022	1.373540	0.000162
1670	1.6607e+02	-13.5269	-99.168202	0.000568	5.675631	1.922956	0.000227
1671	1.6616e+02	-13.4852	-99.014791	0.000385	3.851321	1.304863	0.000154
1672	1.6626e+02	-13.4515	-98.837157	0.000446	4.459424	1.510894	0.000179
1673	1.6636e+02	-13.4098	-98.643375	0.000486	4.864826	1.648248	0.000195
1674	1.6646e+02	-13.3681	-98.473815	0.000426	4.256723	1.442217	0.000170
1675	1.6656e+02	-13.3296	-98.239661	0.000588	5.878332	1.991633	0.000235
1676	1.6666e+02	-13.2895	-98.062027	0.000446	4.459424	1.510894	0.000179
1677	1.6676e+02	-13.2494	-97.908616	0.000385	3.851321	1.304863	0.000154
1678	1.6686e+02	-13.2044	-97.694648	0.000537	5.371579	1.819940	0.000215
1679	1.6696e+02	-13.1724	-97.537199	0.000395	3.952671	1.339201	0.000158
1680	1.6706e+02	-13.1306	-97.347454	0.000476	4.763476	1.613909	0.000191
1681	1.6716e+02	-13.0809	-97.198080	0.000375	3.749970	1.270524	0.000150
1682	1.6726e+02	-13.0504	-96.972000	0.000568	5.675631	1.922956	0.000227
1683	1.6736e+02	-13.0087	-96.753995	0.000547	5.472930	1.854279	0.000219
1684	1.6746e+02	-12.9686	-96.604621	0.000375	3.749970	1.270524	0.000150
1685	1.6756e+02	-12.9189	-96.374504	0.000578	5.776981	1.957294	0.000231
1686	1.6766e+02	-12.8820	-96.213019	0.000405	4.054022	1.373540	0.000162
1687	1.6776e+02	-12.8547	-96.051533	0.000405	4.054022	1.373540	0.000162
1688	1.6786e+02	-12.8162	-95.873900	0.000446	4.459424	1.510894	0.000179
1689	1.6796e+02	-12.7665	-95.672043	0.000507	5.067527	1.716925	0.000203
1690	1.6806e+02	-12.7312	-95.502483	0.000426	4.256723	1.442217	0.000170
1691	1.6816e+02	-12.6879	-95.308701	0.000486	4.864826	1.648248	0.000195
1692	1.6825e+02	-12.6526	-95.147215	0.000405	4.054022	1.373540	0.000162
1693	1.6835e+02	-12.6125	-94.933247	0.000537	5.371579	1.819940	0.000215
1694	1.6845e+02	-12.5724	-94.727353	0.000517	5.168878	1.751263	0.000207
1695	1.6855e+02	-12.5355	-94.561830	0.000416	4.155373	1.407878	0.000166
1696	1.6865e+02	-12.4970	-94.388234	0.000436	4.358074	1.476555	0.000174
1697	1.6875e+02	-12.4601	-94.166191	0.000557	5.574280	1.888617	0.000223
1698	1.6885e+02	-12.4103	-93.968371	0.000497	4.966177	1.682586	0.000199
1699	1.6895e+02	-12.3734	-93.794775	0.000436	4.358074	1.476555	0.000174
1700	1.6905e+02	-12.3269	-93.609066	0.000466	4.662125	1.579571	0.000187
1701	1.6915e+02	-12.2964	-93.443544	0.000416	4.155373	1.407878	0.000166
1702	1.6925e+02	-12.2467	-93.213427	0.000578	5.776981	1.957294	0.000231
1703	1.6935e+02	-12.2226	-93.039830	0.000436	4.358074	1.476555	0.000174
1704	1.6945e+02	-12.1681	-92.833936	0.000517	5.168878	1.751263	0.000207
1705	1.6955e+02	-12.1328	-92.644191	0.000476	4.763476	1.613909	0.000191
1706	1.6965e+02	-12.0815	-92.434260	0.000527	5.270229	1.785602	0.000211
1707	1.6975e+02	-12.0510	-92.240477	0.000486	4.864826	1.648248	0.000195
1708	1.6985e+02	-12.0109	-92.066881	0.000436	4.358074	1.476555	0.000174
1709	1.6995e+02	-11.9756	-91.844838	0.000557	5.574280	1.888617	0.000223
1710	1.7005e+02	-11.9323	-91.671241	0.000436	4.358074	1.476555	0.000174
1711	1.7015e+02	-11.8954	-91.493607	0.000446	4.459424	1.510894	0.000179
1712	1.7024e+02	-11.8505	-91.239268	0.000639	6.385085	2.163325	0.000256
1713	1.7034e+02	-11.8055	-91.089894	0.000375	3.749970	1.270524	0.000150
1714	1.7044e+02	-11.7847	-90.884000	0.000517	5.168878	1.751263	0.000207
1715	1.7054e+02	-11.7414	-90.694254	0.000476	4.763476	1.613909	0.000191
1716	1.7064e+02	-11.6965	-90.512583	0.000456	4.560775	1.545232	0.000183
1717	1.7074e+02	-11.6628	-90.266318	0.000618	6.182384	2.094648	0.000248
1718	1.7084e+02	-11.6130	-90.100795	0.000416	4.155373	1.407878	0.000166
1719	1.7094e+02	-11.5713	-89.894901	0.000517	5.168878	1.751263	0.000207
1720	1.7104e+02	-11.5296	-89.684970	0.000527	5.270229	1.785602	0.000211
1721	1.7114e+02	-11.5040	-89.471002	0.000537	5.371579	1.819940	0.000215
1722	1.7124e+02	-11.4510	-89.281257	0.000476	4.763476	1.613909	0.000191
1723	1.7134e+02	-11.4141	-89.099586	0.000456	4.560775	1.545232	0.000183
1724	1.7144e+02	-11.3820	-88.917915	0.000456	4.560775	1.545232	0.000183
1725	1.7154e+02	-11.3371	-88.687798	0.000578	5.776981	1.957294	0.000231
1726	1.7164e+02	-11.2922	-88.485941	0.000507	5.067527	1.716925	0.000203
1727	1.7174e+02	-11.2505	-88.288121	0.000497	4.966177	1.682586	0.000199
1728	1.7184e+02	-11.2184	-88.086265	0.000507	5.067527	1.716925	0.000203
1729	1.7194e+02	-11.1831	-87.884408	0.000507	5.067527	1.716925	0.000203
1730	1.7204e+02	-11.1382	-87.690625	0.000486	4.864826	1.648248	0.000195
1731	1.7213e+02	-11.1045	-87.512991	0.000446	4.459424	1.510894	0.000179
1732	1.7223e+02	-11.0644	-87.262689	0.000628	6.283734	2.128987	0.000252
1733	1.7233e+02	-11.0275	-87.032572	0.000578	5.776981	1.957294	0.000231
1734	1.7243e+02	-10.9665	-86.858975	0.000436	4.358074	1.476555	0.000174
1735	1.7253e+02	-10.9425	-86.677304	0.000456	4.560775	1.545232	0.000183
1736	1.7263e+02	-10.8959	-86.459299	0.000547	5.472930	1.854279	0.000219
1737	1.7273e+02	-10.8542	-86.281665	0.000446	4.459424	1.510894	0.000179
1738	1.7283e+02	-10.8254	-86.023288	0.000649	6.486435	2.197664	0.000260
1739	1.7293e+02	-10.7837	-85.833543	0.000476	4.763476	1.613909	0.000191
1740	1.7303e+02	-10.7403	-85.631686	0.000507	5.067527	1.716925	0.000203
1741	1.7313e+02	-10.7002	-85.389458	0.000608	6.081033	2.060310	0.000243
1742	1.7323e+02	-10.6617	-85.223935	0.000416	4.155373	1.407878	0.000166
1743	1.7333e+02	-10.6232	-84.993819	0.000578	5.776981	1.957294	0.000231
1744	1.7343e+02	-10.5799	-84.812148	0.000456	4.560775	1.545232	0.000183
1745	1.7353e+02	-10.5462	-84.594142	0.000547	5.472930	1.854279	0.000219
1746	1.7363e+02	-10.5045	-84.416508	0.000446	4.459424	1.510894	0.000179
1747	1.7373e+02	-10.4644	-84.182354	0.000588	5.878332	1.991633	0.000235
1748	1.7383e+02	-10.4227	-83.956275	0.000568	5.675631	1.922956	0.000227
1749	1.7393e+02	-10.3842	-83.714047	0.000608	6.081033	2.060310	0.000243
1750	1.7403e+02	-10.3521	-83.544487	0.000426	4.256723	1.442217	0.000170
1751	1.7413e+02	-10.2960	-83.354742	0.000476	4.763476	1.613909	0.000191
1752	1.7422e+02	-10.2655	-83.108476	0.000618	6.182384	2.094648	0.000248
1753	1.7432e+02	-10.2206	-82.890471	0.000547	5.472930	1.854279	0.000219
1754	1.7442e+02	-10.1740	-82.724948	0.000416	4.155373	1.407878	0.000166
1755	1.7452e+02	-10.1452	-82.494832	0.000578	5.776981	1.957294	0.000231
1756	1.7462e+02	-10.1002	-82.288938	0.000517	5.168878	1.751263	0.000207
1757	1.7472e+02	-10.0730	-82.058821	0.000578	5.776981	1.957294	0.000231
1758	1.7482e+02	-10.0232	-81.836779	0.000557	5.574280	1.888617	0.000223
1759	1.7492e+02	-9.9767	-81.638959	0.000497	4.966177	1.682586	0.000199
1760	1.7502e+02	-9.9366	-81.461325	0.000446	4.459424	1.510894	0.000179
1761	1.7512e+02	-9.9045	-81.255431	0.000517	5.168878	1.751263	0.000207
1762	1.7522e+02	-9.8484	-81.001091	0.000639	6.385085	2.163325	0.000256
1763	1.7532e+02	-9.8259	-80.823457	0.000446	4.459424	1.510894	0.000179
1764	1.7542e+02	-9.7794	-80.565081	0.000649	6.486435	2.197664	0.000260
1765	1.7552e+02	-9.7457	-80.403595	0.000405	4.054022	1.373540	0.000162
1766	1.7562e+02	-9.7008	-80.145219	0.000649	6.486435	2.197664	0.000260
1767	1.7572e+02	-9.6623	-79.959510	0.000466	4.662125	1.579571	0.000187
1768	1.7582e+02	-9.6206	-79.757654	0.000507	5.067527	1.716925	0.000203
1769	1.7592e+02	-9.5869	-79.531574	0.000568	5.675631	1.922956	0.000227
1770	1.7602e+02	-9.5436	-79.289346	0.000608	6.081033	2.060310	0.000243
1771	1.7612e+02	-9.4938	-79.075378	0.000537	5.371579	1.819940	0.000215
1772	1.7621e+02	-9.4682	-78.877558	0.000497	4.966177	1.682586	0.000199
1773	1.7631e+02	-9.4233	-78.663590	0.000537	5.371579	1.819940	0.000215
1774	1.7641e+02	-9.3735	-78.437510	0.000568	5.675631	1.922956	0.000227
1775	1.7651e+02	-9.3382	-78.243728	0.000486	4.864826	1.648248	0.000195
1776	1.7661e+02	-9.3046	-78.033797	0.000527	5.270229	1.785602	0.000211
1777	1.7671e+02	-9.2628	-77.791569	0.000608	6.081033	2.060310	0.000243
1778	1.7681e+02	-9.2227	-77.630083	0.000405	4.054022	1.373540	0.000162
1779	1.7691e+02	-9.1858	-77.375744	0.000639	6.385085	2.163325	0.000256
1780	1.7701e+02	-9.1538	-77.161775	0.000537	5.371579	1.819940	0.000215
1781	1.7711e+02	-9.1120	-76.935696	0.000568	5.675631	1.922956	0.000227
1782	1.7721e+02	-9.0543	-76.709616	0.000568	5.675631	1.922956	0.000227
1783	1.7731e+02	-9.0270	-76.487574	0.000557	5.574280	1.888617	0.000223
1784	1.7741e+02	-8.9869	-76.281680	0.000517	5.168878	1.751263	0.000207
1785	1.7751e+02	-8.9452	-76.031377	0.000628	6.283734	2.128987	0.000252
1786	1.7761e+02	-8.9163	-75.837595	0.000486	4.864826	1.648248	0.000195
1787	1.7771e+02	-8.8618	-75.623627	0.000537	5.371579	1.819940	0.000215
1788	1.7781e+02	-8.8217	-75.413696	0.000527	5.270229	1.785602	0.000211
1789	1.7791e+02	-8.7864	-75.167430	0.000618	6.182384	2.094648	0.000248
1790	1.7801e+02	-8.7399	-74.977685	0.000476	4.763476	1.613909	0.000191
1791	1.7810e+02	-8.6982	-74.755642	0.000557	5.574280	1.888617	0.000223
1792	1.7820e+02	-8.6645	-74.602231	0.000385	3.851321	1.304863	0.000154
1793	1.7830e+02	-8.6292	-74.307520	0.000740	7.398590	2.506710	0.000296
1794	1.7840e+02	-8.5907	-74.109701	0.000497	4.966177	1.682586	0.000199
1795	1.7850e+02	-8.5474	-73.847287	0.000659	6.587786	2.232002	0.000264
1796	1.7860e+02	-8.5153	-73.657542	0.000476	4.763476	1.613909	0.000191
1797	1.7870e+02	-8.4736	-73.391091	0.000669	6.689136	2.266341	0.000268
1798	1.7880e+02	-8.4254	-73.241717	0.000375	3.749970	1.270524	0.000150
1799	1.7890e+02	-8.3933	-72.975266	0.000669	6.689136	2.266341	0.000268
1800	1.7900e+02	-8.3452	-72.801669	0.000436	4.358074	1.476555	0.000174
1801	1.7910e+02	-8.3115	-72.583663	0.000547	5.472930	1.854279	0.000219
1802	1.7920e+02	-8.2714	-72.349510	0.000588	5.878332	1.991633	0.000235
1803	1.7930e+02	-8.2265	-72.111319	0.000598	5.979682	2.025971	0.000239
1804	1.7940e+02	-8.1944	-71.905425	0.000517	5.168878	1.751263	0.000207
1805	1.7950e+02	-8.1399	-71.667234	0.000598	5.979682	2.025971	0.000239
1806	1.7960e+02	-8.1110	-71.477488	0.000476	4.763476	1.613909	0.000191
1807	1.7970e+02	-8.0725	-71.255446	0.000557	5.574280	1.888617	0.000223
1808	1.7980e+02	-8.0308	-71.013218	0.000608	6.081033	2.060310	0.000243
1809	1.7990e+02	-7.9971	-70.766952	0.000618	6.182384	2.094648	0.000248
1810	1.8000e+02	-7.9474	-70.561058	0.000517	5.168878	1.751263	0.000207
1811	1.8009e+02	-7.9089	-70.351127	0.000527	5.270229	1.785602	0.000211
1812	1.8019e+02	-7.8704	-70.169456	0.000456	4.560775	1.545232	0.000183
1813	1.8029e+02	-7.8351	-69.890894	0.000699	6.993188	2.369356	0.000280
1814	1.8039e+02	-7.7869	-69.668851	0.000557	5.574280	1.888617	0.000223
1815	1.8049e+02	-7.7500	-69.410475	0.000649	6.486435	2.197664	0.000260
1816	1.8059e+02	-7.7067	-69.224767	0.000466	4.662125	1.579571	0.000187
1817	1.8069e+02	-7.6682	-68.998687	0.000568	5.675631	1.922956	0.000227
1818	1.8079e+02	-7.6249	-68.764533	0.000588	5.878332	1.991633	0.000235
1819	1.8089e+02	-7.5928	-68.522305	0.000608	6.081033	2.060310	0.000243
1820	1.8099e+02	-7.5495	-68.344671	0.000446	4.459424	1.510894	0.000179
1821	1.8109e+02	-7.5046	-68.090331	0.000639	6.385085	2.163325	0.000256
1822	1.8119e+02	-7.4613	-67.888475	0.000507	5.067527	1.716925	0.000203
1823	1.8129e+02	-7.4308	-67.670469	0.000547	5.472930	1.854279	0.000219
1824	1.8139e+02	-7.3875	-67.416130	0.000639	6.385085	2.163325	0.000256
1825	1.8149e+02	-7.3506	-67.198124	0.000547	5.472930	1.854279	0.000219
1826	1.8159e+02	-7.3089	-66.955896	0.000608	6.081033	2.060310	0.000243
1827	1.8169e+02	-7.2768	-66.750002	0.000517	5.168878	1.751263	0.000207
1828	1.8179e+02	-7.2303	-66.479514	0.000679	6.790487	2.300679	0.000272
1829	1.8189e+02	-7.1870	-66.293806	0.000466	4.662125	1.579571	0.000187
1830	1.8199e+02	-7.1469	-66.051578	0.000608	6.081033	2.060310	0.000243
1831	1.8209e+02	-7.1244	-65.849721	0.000507	5.067527	1.716925	0.000203
1832	1.8218e+02	-7.0699	-65.587307	0.000659	6.587786	2.232002	0.000264
1833	1.8228e+02	-7.0362	-65.381413	0.000517	5.168878	1.751263	0.000207
1834	1.8238e+02	-6.9961	-65.167445	0.000537	5.371579	1.819940	0.000215
1835	1.8248e+02	-6.9592	-64.917143	0.000628	6.283734	2.128987	0.000252
1836	1.8258e+02	-6.9110	-64.691063	0.000568	5.675631	1.922956	0.000227
1837	1.8268e+02	-6.8790	-64.440761	0.000628	6.283734	2.128987	0.000252
1838	1.8278e+02	-6.8276	-64.234867	0.000517	5.168878	1.751263	0.000207
1839	1.8288e+02	-6.7843	-64.012824	0.000557	5.574280	1.888617	0.000223
1840	1.8298e+02	-6.7538	-63.770596	0.000608	6.081033	2.060310	0.000243
1841	1.8308e+02	-6.7137	-63.532405	0.000598	5.979682	2.025971	0.000239
1842	1.8318e+02	-6.6784	-63.290177	0.000608	6.081033	2.060310	0.000243
1843	1.8328e+02	-6.6383	-63.072172	0.000547	5.472930	1.854279	0.000219
1844	1.8338e+02	-6.5982	-62.833981	0.000598	5.979682	2.025971	0.000239
1845	1.8348e+02	-6.5517	-62.567530	0.000669	6.689136	2.266341	0.000268
1846	1.8358e+02	-6.5052	-62.345487	0.000557	5.574280	1.888617	0.000223
1847	1.8368e+02	-6.4699	-62.123445	0.000557	5.574280	1.888617	0.000223
1848	1.8378e+02	-6.4442	-61.885254	0.000598	5.979682	2.025971	0.000239
1849	1.8388e+02	-6.3993	-61.655137	0.000578	5.776981	1.957294	0.000231
1850	1.8398e+02	-6.3592	-61.408872	0.000618	6.182384	2.094648	0.000248
1851	1.8407e+02	-6.3207	-61.207015	0.000507	5.067527	1.716925	0.000203
1852	1.8417e+02	-6.2774	-60.984972	0.000557	5.574280	1.888617	0.000223
1853	1.8427e+02	-6.2437	-60.734670	0.000628	6.283734	2.128987	0.000252
1854	1.8437e+02	-6.1923	-60.512628	0.000557	5.574280	1.888617	0.000223
1855	1.8447e+02	-6.1603	-60.258288	0.000639	6.385085	2.163325	0.000256
1856	1.8457e+02	-6.1218	-60.016060	0.000608	6.081033	2.060310	0.000243
1857	1.8467e+02	-6.0800	-59.806129	0.000527	5.270229	1.785602	0.000211
1858	1.8477e+02	-6.0319	-59.519492	0.000720	7.195889	2.438033	0.000288
1859	1.8487e+02	-6.0014	-59.325710	0.000486	4.864826	1.648248	0.000195
1860	1.8497e+02	-5.9613	-59.035036	0.000730	7.297240	2.472372	0.000292
1861	1.8507e+02	-5.9212	-58.792808	0.000608	6.081033	2.060310	0.000243
1862	1.8517e+02	-5.8859	-58.550580	0.000608	6.081033	2.060310	0.000243
1863	1.8527e+02	-5.8410	-58.308351	0.000608	6.081033	2.060310	0.000243
1864	1.8537e+02	-5.7977	-58.126680	0.000456	4.560775	1.545232	0.000183
1865	1.8547e+02	-5.7576	-57.876378	0.000628	6.283734	2.128987	0.000252
1866	1.8557e+02	-5.7143	-57.662410	0.000537	5.371579	1.819940	0.000215
1867	1.8567e+02	-5.6790	-57.383847	0.000699	6.993188	2.369356	0.000280
1868	1.8577e+02	-5.6501	-57.125471	0.000649	6.486435	2.197664	0.000260
1869	1.8587e+02	-5.6004	-56.899391	0.000568	5.675631	1.922956	0.000227
1870	1.8597e+02	-5.5683	-56.653126	0.000618	6.182384	2.094648	0.000248
1871	1.8606e+02	-5.5250	-56.398786	0.000639	6.385085	2.163325	0.000256
1872	1.8616e+02	-5.4801	-56.164632	0.000588	5.878332	1.991633	0.000235
1873	1.8626e+02	-5.4432	-55.930479	0.000588	5.878332	1.991633	0.000235
1874	1.8636e+02	-5.4031	-55.676139	0.000639	6.385085	2.163325	0.000256
1875	1.8646e+02	-5.3581	-55.417762	0.000649	6.486435	2.197664	0.000260
1876	1.8656e+02	-5.3132	-55.191683	0.000568	5.675631	1.922956	0.000227
1877	1.8666e+02	-5.2827	-54.937343	0.000639	6.385085	2.163325	0.000256
1878	1.8676e+02	-5.2410	-54.699152	0.000598	5.979682	2.025971	0.000239
1879	1.8686e+02	-5.2009	-54.432701	0.000669	6.689136	2.266341	0.000268
1880	1.8696e+02	-5.1688	-54.178362	0.000639	6.385085	2.163325	0.000256
1881	1.8706e+02	-5.1239	-53.932096	0.000618	6.182384	2.094648	0.000248
1882	1.8716e+02	-5.0870	-53.701980	0.000578	5.776981	1.957294	0.000231
1883	1.8726e+02	-5.0357	-53.471863	0.000578	5.776981	1.957294	0.000231
1884	1.8736e+02	-4.9988	-53.185226	0.000720	7.195889	2.438033	0.000288
1885	1.8746e+02	-4.9587	-52.938961	0.000618	6.182384	2.094648	0.000248
1886	1.8756e+02	-4.9154	-52.716918	0.000557	5.574280	1.888617	0.000223
1887	1.8766e+02	-4.8849	-52.454505	0.000659	6.587786	2.232002	0.000264
1888	1.8776e+02	-4.8512	-52.188054	0.000669	6.689136	2.266341	0.000268
1889	1.8786e+02	-4.7967	-51.901417	0.000720	7.195889	2.438033	0.000288
1890	1.8796e+02	-4.7662	-51.655152	0.000618	6.182384	2.094648	0.000248
1891	1.8806e+02	-4.7245	-51.461369	0.000486	4.864826	1.648248	0.000195
1892	1.8815e+02	-4.6828	-51.211067	0.000628	6.283734	2.128987	0.000252
1893	1.8825e+02	-4.6378	-50.875985	0.000841	8.412096	2.850095	0.000337
1894	1.8835e+02	-4.6074	-50.706425	0.000426	4.256723	1.442217	0.000170
1895	1.8845e+02	-4.5721	-50.415751	0.000730	7.297240	2.472372	0.000292
1896	1.8855e+02	-4.5239	-50.197746	0.000547	5.472930	1.854279	0.000219
1897	1.8865e+02	-4.4774	-49.911109	0.000720	7.195889	2.438033	0.000288
1898	1.8875e+02	-4.4389	-49.632547	0.000699	6.993188	2.369356	0.000280
1899	1.8885e+02	-4.4004	-49.390319	0.000608	6.081033	2.060310	0.000243
1900	1.8895e+02	-4.3667	-49.107719	0.000709	7.094538	2.403695	0.000284
1901	1.8905e+02	-4.3314	-48.897788	0.000527	5.270229	1.785602	0.000211
1902	1.8915e+02	-4.2913	-48.623263	0.000689	6.891837	2.335018	0.000276
1903	1.8925e+02	-4.2448	-48.348738	0.000689	6.891837	2.335018	0.000276
1904	1.8935e+02	-4.2111	-48.062101	0.000720	7.195889	2.438033	0.000288
1905	1.8945e+02	-4.1630	-47.827947	0.000588	5.878332	1.991633	0.000235
1906	1.8955e+02	-4.1245	-47.593793	0.000588	5.878332	1.991633	0.000235
1907	1.8965e+02	-4.0812	-47.291008	0.000760	7.601291	2.575387	0.000304
1908	1.8975e+02	-4.0523	-47.020520	0.000679	6.790487	2.300679	0.000272
1909	1.8985e+02	-4.0026	-46.770218	0.000628	6.283734	2.128987	0.000252
1910	1.8995e+02	-3.9673	-46.536064	0.000588	5.878332	1.991633	0.000235
1911	1.9004e+02	-3.9223	-46.245390	0.000730	7.297240	2.472372	0.000292
1912	1.9014e+02	-3.8838	-45.954716	0.000730	7.297240	2.472372	0.000292
1913	1.9024e+02	-3.8550	-45.744785	0.000527	5.270229	1.785602	0.000211
1914	1.9034e+02	-3.8052	-45.437963	0.000770	7.702642	2.609726	0.000308
1915	1.9044e+02	-3.7651	-45.163438	0.000689	6.891837	2.335018	0.000276
1916	1.9054e+02	-3.7298	-44.888912	0.000689	6.891837	2.335018	0.000276
1917	1.9064e+02	-3.6929	-44.662833	0.000568	5.675631	1.922956	0.000227
1918	1.9074e+02	-3.6480	-44.408493	0.000639	6.385085	2.163325	0.000256
1919	1.9084e+02	-3.6063	-44.142042	0.000669	6.689136	2.266341	0.000268
1920	1.9094e+02	-3.5646	-43.835220	0.000770	7.702642	2.609726	0.000308
1921	1.9104e+02	-3.5261	-43.552620	0.000709	7.094538	2.403695	0.000284
1922	1.9114e+02	-3.4892	-43.294244	0.000649	6.486435	2.197664	0.000260
1923	1.9124e+02	-3.4411	-43.052016	0.000608	6.081033	2.060310	0.000243
1924	1.9134e+02	-3.4058	-42.797676	0.000639	6.385085	2.163325	0.000256
1925	1.9144e+02	-3.3753	-42.515076	0.000709	7.094538	2.403695	0.000284
1926	1.9154e+02	-3.3256	-42.264774	0.000628	6.283734	2.128987	0.000252
1927	1.9164e+02	-3.2919	-42.022546	0.000608	6.081033	2.060310	0.000243
1928	1.9174e+02	-3.2518	-41.687464	0.000841	8.412096	2.850095	0.000337
1929	1.9184e+02	-3.2053	-41.425050	0.000659	6.587786	2.232002	0.000264
1930	1.9194e+02	-3.1780	-41.182822	0.000608	6.081033	2.060310	0.000243
1931	1.9203e+02	-3.1315	-40.884074	0.000750	7.499941	2.541049	0.000300
1932	1.9213e+02	-3.0946	-40.649920	0.000588	5.878332	1.991633	0.000235
1933	1.9223e+02	-3.0529	-40.371357	0.000699	6.993188	2.369356	0.000280
1934	1.9233e+02	-3.0047	-40.084721	0.000720	7.195889	2.438033	0.000288
1935	1.9243e+02	-2.9630	-39.846530	0.000598	5.979682	2.025971	0.000239
1936	1.9253e+02	-2.9309	-39.531633	0.000791	7.905343	2.678403	0.000316
1937	1.9263e+02	-2.8876	-39.277294	0.000639	6.385085	2.163325	0.000256
1938	1.9273e+02	-2.8539	-38.990657	0.000720	7.195889	2.438033	0.000288
1939	1.9283e+02	-2.8058	-38.768614	0.000557	5.574280	1.888617	0.000223
1940	1.9293e+02	-2.7785	-38.457755	0.000780	7.803992	2.644064	0.000312
1941	1.9303e+02	-2.7368	-38.163044	0.000740	7.398590	2.506710	0.000296
1942	1.9313e+02	-2.6903	-37.904667	0.000649	6.486435	2.197664	0.000260
1943	1.9323e+02	-2.6486	-37.626105	0.000699	6.993188	2.369356	0.000280
1944	1.9333e+02	-2.6117	-37.339468	0.000720	7.195889	2.438033	0.000288
1945	1.9343e+02	-2.5684	-37.044758	0.000740	7.398590	2.506710	0.000296
1946	1.9353e+02	-2.5186	-36.782344	0.000659	6.587786	2.232002	0.000264
1947	1.9363e+02	-2.4898	-36.519930	0.000659	6.587786	2.232002	0.000264
1948	1.9373e+02	-2.4593	-36.233293	0.000720	7.195889	2.438033	0.000288
1949	1.9383e+02	-2.4063	-35.910322	0.000811	8.108044	2.747080	0.000325
1950	1.9393e+02	-2.3823	-35.668094	0.000608	6.081033	2.060310	0.000243
1951	1.9403e+02	-2.3310	-35.345123	0.000811	8.108044	2.747080	0.000325
1952	1.9412e+02	-2.2957	-35.078672	0.000669	6.689136	2.266341	0.000268
1953	1.9422e+02	-2.2507	-34.775887	0.000760	7.601291	2.575387	0.000304
1954	1.9432e+02	-2.2154	-34.582105	0.000486	4.864826	1.648248	0.000195
1955	1.9442e+02	-2.1721	-34.247022	0.000841	8.412096	2.850095	0.000337
1956	1.9452e+02	-2.1352	-34.000757	0.000618	6.182384	2.094648	0.000248
1957	1.9462e+02	-2.0919	-33.681823	0.000801	8.006693	2.712741	0.000321
1958	1.9472e+02	-2.0566	-33.403261	0.000699	6.993188	2.369356	0.000280
1959	1.9482e+02	-2.0181	-33.112587	0.000730	7.297240	2.472372	0.000292
1960	1.9492e+02	-1.9716	-32.870359	0.000608	6.081033	2.060310	0.000243
1961	1.9502e+02	-1.9379	-32.599871	0.000679	6.790487	2.300679	0.000272
1962	1.9512e+02	-1.8930	-32.272863	0.000821	8.209395	2.781418	0.000329
1963	1.9522e+02	-1.8465	-31.974115	0.000750	7.499941	2.541049	0.000300
1964	1.9532e+02	-1.8112	-31.743998	0.000578	5.776981	1.957294	0.000231
1965	1.9542e+02	-1.7775	-31.461399	0.000709	7.094538	2.403695	0.000284
1966	1.9552e+02	-1.7374	-31.122279	0.000851	8.513446	2.884434	0.000341
1967	1.9562e+02	-1.6973	-30.843717	0.000699	6.993188	2.369356	0.000280
1968	1.9572e+02	-1.6492	-30.549006	0.000740	7.398590	2.506710	0.000296
1969	1.9582e+02	-1.6155	-30.286592	0.000659	6.587786	2.232002	0.000264
1970	1.9592e+02	-1.5834	-29.991881	0.000740	7.398590	2.506710	0.000296
1971	1.9601e+02	-1.5385	-29.717356	0.000689	6.891837	2.335018	0.000276
1972	1.9611e+02	-1.4919	-29.418608	0.000750	7.499941	2.541049	0.000300
1973	1.9621e+02	-1.4550	-29.140046	0.000699	6.993188	2.369356	0.000280
1974	1.9631e+02	-1.4181	-28.869558	0.000679	6.790487	2.300679	0.000272
1975	1.9641e+02	-1.3716	-28.582921	0.000720	7.195889	2.438033	0.000288
1976	1.9651e+02	-1.3299	-28.300322	0.000709	7.094538	2.403695	0.000284
1977	1.9661e+02	-1.2946	-28.009648	0.000730	7.297240	2.472372	0.000292
1978	1.9671e+02	-1.2545	-27.686677	0.000811	8.108044	2.747080	0.000325
1979	1.9681e+02	-1.2112	-27.428300	0.000649	6.486435	2.197664	0.000260
1980	1.9691e+02	-1.1775	-27.113404	0.000791	7.905343	2.678403	0.000316
1981	1.9701e+02	-1.1326	-26.818693	0.000740	7.398590	2.506710	0.000296
1982	1.9711e+02	-1.0909	-26.511870	0.000770	7.702642	2.609726	0.000308
1983	1.9721e+02	-1.0588	-26.261568	0.000628	6.283734	2.128987	0.000252
1984	1.9731e+02	-1.0155	-25.938597	0.000811	8.108044	2.747080	0.000325
1985	1.9741e+02	-0.9754	-25.668109	0.000679	6.790487	2.300679	0.000272
1986	1.9751e+02	-0.9401	-25.361287	0.000770	7.702642	2.609726	0.000308
1987	1.9761e+02	-0.8903	-25.058502	0.000760	7.601291	2.575387	0.000304
1988	1.9771e+02	-0.8551	-24.816273	0.000608	6.081033	2.060310	0.000243
1989	1.9781e+02	-0.8214	-24.501377	0.000791	7.905343	2.678403	0.000316
1990	1.9791e+02	-0.7700	-24.198592	0.000760	7.601291	2.575387	0.000304
1991	1.9800e+02	-0.7460	-23.883695	0.000791	7.905343	2.678403	0.000316
1992	1.9810e+02	-0.6898	-23.597058	0.000720	7.195889	2.438033	0.000288
1993	1.9820e+02	-0.6658	-23.330607	0.000669	6.689136	2.266341	0.000268
1994	1.9830e+02	-0.6160	-23.003599	0.000821	8.209395	2.781418	0.000329
1995	1.9840e+02	-0.5727	-22.708889	0.000740	7.398590	2.506710	0.000296
1996	1.9850e+02	-0.5503	-22.406103	0.000760	7.601291	2.575387	0.000304
1997	1.9860e+02	-0.5005	-22.066984	0.000851	8.513446	2.884434	0.000341
1998	1.9870e+02	-0.4684	-21.844941	0.000557	5.574280	1.888617	0.000223
1999	1.9880e+02	-0.4107	-21.546193	0.000750	7.499941	2.541049	0.000300
2000	1.9890e+02	-0.3754	-21.243408	0.000760	7.601291	2.575387	0.000304
2001	1.9900e+02	-0.3369	-20.916400	0.000821	8.209395	2.781418	0.000329
2002	1.9910e+02	-0.3016	-20.637838	0.000699	6.993188	2.369356	0.000280
2003	1.9920e+02	-0.2503	-20.322941	0.000791	7.905343	2.678403	0.000316
2004	1.9930e+02	-0.2278	-20.020156	0.000760	7.601291	2.575387	0.000304
2005	1.9940e+02	-0.1765	-19.745631	0.000689	6.891837	2.335018	0.000276
2006	1.9950e+02	-0.1428	-19.410549	0.000841	8.412096	2.850095	0.000337
2007	1.9960e+02	-0.0979	-19.136023	0.000689	6.891837	2.335018	0.000276
2008	1.9970e+02	-0.0626	-18.829201	0.000770	7.702642	2.609726	0.000308
2009	1.9980e+02	-0.0209	-18.522379	0.000770	7.702642	2.609726	0.000308

Center data before PMax,+/-Pr and +/-Vc Calc.

PMax (uC/cm2):	1.23e+02
Pr (uC/cm2):	9.51e+00
-Pr (uC/cm2):	-1.85e+01
PLoss (uC/cm2):	-1.76e+01
-Vc:	-1.25e+00
C (Max-Eff) (nF):	6.14e-01
K (Eff):	2.08e+03
Vert. (+/-Pr) Shift (uC/cm2):	-4.50e+00
Offset (uC/cm2):	9.00e-01

A (Loop Area - uC/cm2·Volts):	1.60e-01



Hysteresis Version: 5.48.1 - Radiant Technologies, Inc., 1999 - 9/12/24

