»»»»»»»»»»»»»»»»»»»»»»»»»»»»»»»»»»»» Hysteresis ««««««««««««««««««««««««««««««««««««
»»»  Executed Version:	5.48.1
»»»  Vision Version:	5.48.4 (R)
»»»  Vision Compiled:	9/18/24
»»»  Driver Version:	5.47.0
»»»  Windows Version:	Windows 8 or 8.1
»»»  Processor Information:	x86 (AMD or Intel) - 32 Processors
»»»  Tester Name:	PMF21124-494 (100V)
»»»  Tester S/N:	PMF21124-494
»»»  Internal Amp Type:	100V RevK 270k
»»»  Internal Amp S/N:	iAB2-596/K     
»»»  Execution Count:	1
»»»»»»»»»»»»»»»»»»»»»»»»»»»»»»»»»»»»»»»»»»««««««««««««««««««««««««««««««««««««««««««

Stored:	6/5/2025 - 12:43:26
Configured:	06/05/25 10:43:40 AM
Executed:	06/05/25 12:42:48 PM

»»»»»»»»»»»»»»»»»»»»»»»»»»»»»»»»»»» Sample Info ««««««««««««««««««««««««««««««««««««
Sample Name:	
Lot Name:	
Wafer Name:	
Die Row/Column:	0/0
Capacitor Number:	0
Sample Area (cm2):	1.00e-04
Sample Thickness (microns):	3.00e-01

Amplifier:	Internal

»»»»»»»»»»»»»»»»»»»»»»»»»»»»»»»»»»» Tester Info «««««««««««««««««««««««««««««««««««
Tester Name:	PMF21124-494 (100V)
Tester Serial Number:	PMF21124-494
Return Signal Amp. Level:	0.19 [Index: 3]

»»»»»»»»»»»»»»»»»»»»»»»»»»»»»»»» Hysteresis Info ««««««««««««««««««««««««««««««««««
Task Name:	Hyst-187
Volts:	20.00
Field:	666.67 (kV/cm)
DCBias:	0.00
DCField:	0.00 (kV/cm)
Hysteresis Period (ms):	2.00e+02
Preset:	Enabled
Preset Delay (ms):	1.00e+03
Profile:	Standard Bipolar

»»»»»»»»»»»»»»»»»»»»»»»»»»»»»»»»»»»»»» Data «««««««««««««««««««««««««««««««««««««««
Points:	2009

Valid Data

Point	Time (ms)	Drive Voltage	Measured Polarization (uC/cm2)	Capacitance (uF)	Normalized Capacitance (uF/cm2)	Dielectric Constant	Instantaneous Current (mA)
   1	0.0000e+00	0.0016	-2.004438	0.000537	5.372657	1.820305	0.000215
   2	9.9500e-02	0.0321	-1.790470	0.000537	5.372657	1.820305	0.000215
   3	1.9900e-01	0.0722	-1.552279	0.000598	5.980882	2.026378	0.000239
   4	2.9850e-01	0.1091	-1.269679	0.000710	7.095962	2.404177	0.000284
   5	3.9800e-01	0.1540	-1.043600	0.000568	5.676769	1.923342	0.000227
   6	4.9750e-01	0.1861	-0.740814	0.000760	7.602816	2.575904	0.000304
   7	5.9700e-01	0.2262	-0.510698	0.000578	5.778140	1.957687	0.000231
   8	6.9650e-01	0.2599	-0.211950	0.000750	7.501445	2.541558	0.000300
   9	7.9600e-01	0.3128	0.074687	0.000720	7.197333	2.438522	0.000288
  10	8.9550e-01	0.3577	0.300767	0.000568	5.676769	1.923342	0.000227
  11	9.9500e-01	0.3898	0.583366	0.000710	7.095962	2.404177	0.000284
  12	1.0945e+00	0.4315	0.878077	0.000740	7.400074	2.507213	0.000296
  13	1.1940e+00	0.4652	1.120305	0.000608	6.082253	2.060723	0.000243
  14	1.2935e+00	0.5101	1.435202	0.000791	7.906929	2.678940	0.000316
  15	1.3930e+00	0.5422	1.665318	0.000578	5.778140	1.957687	0.000231
  16	1.4925e+00	0.5904	1.915621	0.000628	6.284995	2.129414	0.000252
  17	1.5920e+00	0.6273	2.214369	0.000750	7.501445	2.541558	0.000300
  18	1.6915e+00	0.6658	2.464671	0.000628	6.284995	2.129414	0.000252
  19	1.7910e+00	0.7123	2.755345	0.000730	7.298703	2.472868	0.000292
  20	1.8905e+00	0.7540	2.997573	0.000608	6.082253	2.060723	0.000243
  21	1.9900e+00	0.7925	3.280173	0.000710	7.095962	2.404177	0.000284
  22	2.0895e+00	0.8294	3.611218	0.000831	8.312412	2.816322	0.000333
  23	2.1890e+00	0.8807	3.829223	0.000547	5.474028	1.854651	0.000219
  24	2.2885e+00	0.9032	4.095674	0.000669	6.690478	2.266795	0.000268
  25	2.3880e+00	0.9545	4.362125	0.000669	6.690478	2.266795	0.000268
  26	2.4875e+00	0.9882	4.652799	0.000730	7.298703	2.472868	0.000292
  27	2.5870e+00	1.0347	4.931361	0.000699	6.994591	2.369832	0.000280
  28	2.6865e+00	1.0620	5.165515	0.000588	5.879511	1.992032	0.000235
  29	2.7860e+00	1.1069	5.419855	0.000639	6.386366	2.163759	0.000256
  30	2.8855e+00	1.1583	5.730714	0.000781	7.805558	2.644595	0.000312
  31	2.9850e+00	1.1807	5.972942	0.000608	6.082253	2.060723	0.000243
  32	3.0845e+00	1.2256	6.271690	0.000750	7.501445	2.541558	0.000300
  33	3.1840e+00	1.2657	6.566401	0.000740	7.400074	2.507213	0.000296
  34	3.2835e+00	1.3074	6.840927	0.000689	6.893220	2.335486	0.000276
  35	3.3830e+00	1.3443	7.115452	0.000689	6.893220	2.335486	0.000276
  36	3.4825e+00	1.3796	7.402088	0.000720	7.197333	2.438522	0.000288
  37	3.5820e+00	1.4310	7.680651	0.000699	6.994591	2.369832	0.000280
  38	3.6815e+00	1.4599	7.947102	0.000669	6.690478	2.266795	0.000268
  39	3.7810e+00	1.5048	8.257961	0.000781	7.805558	2.644595	0.000312
  40	3.8805e+00	1.5497	8.500189	0.000608	6.082253	2.060723	0.000243
  41	3.9800e+00	1.5786	8.786826	0.000720	7.197333	2.438522	0.000288
  42	4.0795e+00	1.6203	9.033091	0.000618	6.183624	2.095068	0.000248
  43	4.1790e+00	1.6604	9.347988	0.000791	7.906929	2.678940	0.000316
  44	4.2785e+00	1.7037	9.634624	0.000720	7.197333	2.438522	0.000288
  45	4.3780e+00	1.7438	9.945484	0.000781	7.805558	2.644595	0.000312
  46	4.4775e+00	1.7935	10.135229	0.000476	4.764431	1.614233	0.000191
  47	4.5770e+00	1.8240	10.458200	0.000811	8.109670	2.747631	0.000325
  48	4.6765e+00	1.8673	10.728688	0.000679	6.791849	2.301141	0.000272
  49	4.7760e+00	1.9042	11.067808	0.000852	8.515154	2.885012	0.000341
  50	4.8755e+00	1.9443	11.301961	0.000588	5.879511	1.992032	0.000235
  51	4.9750e+00	1.9844	11.620895	0.000801	8.008300	2.713285	0.000321
  52	5.0745e+00	2.0181	11.903495	0.000710	7.095962	2.404177	0.000284
  53	5.1740e+00	2.0630	12.169946	0.000669	6.690478	2.266795	0.000268
  54	5.2735e+00	2.1064	12.416211	0.000618	6.183624	2.095068	0.000248
  55	5.3730e+00	2.1449	12.706885	0.000730	7.298703	2.472868	0.000292
  56	5.4725e+00	2.1834	12.985447	0.000699	6.994591	2.369832	0.000280
  57	5.5720e+00	2.2219	13.304381	0.000801	8.008300	2.713285	0.000321
  58	5.6715e+00	2.2604	13.562758	0.000649	6.487736	2.198105	0.000260
  59	5.7710e+00	2.3005	13.865543	0.000760	7.602816	2.575904	0.000304
  60	5.8705e+00	2.3310	14.140068	0.000689	6.893220	2.335486	0.000276
  61	5.9700e+00	2.3823	14.418630	0.000699	6.994591	2.369832	0.000280
  62	6.0695e+00	2.4192	14.705267	0.000720	7.197333	2.438522	0.000288
  63	6.1690e+00	2.4657	14.975755	0.000679	6.791849	2.301141	0.000272
  64	6.2685e+00	2.5090	15.242206	0.000669	6.690478	2.266795	0.000268
  65	6.3680e+00	2.5379	15.557103	0.000791	7.906929	2.678940	0.000316
  66	6.4675e+00	2.5860	15.823554	0.000669	6.690478	2.266795	0.000268
  67	6.5670e+00	2.6165	16.134413	0.000781	7.805558	2.644595	0.000312
  68	6.6665e+00	2.6646	16.445272	0.000781	7.805558	2.644595	0.000312
  69	6.7660e+00	2.7047	16.659241	0.000537	5.372657	1.820305	0.000215
  70	6.8655e+00	2.7464	17.006434	0.000872	8.717896	2.953703	0.000349
  71	6.9650e+00	2.7785	17.297108	0.000730	7.298703	2.472868	0.000292
  72	7.0645e+00	2.8251	17.535299	0.000598	5.980882	2.026378	0.000239
  73	7.1640e+00	2.8636	17.821936	0.000720	7.197333	2.438522	0.000288
  74	7.2635e+00	2.8988	18.132795	0.000781	7.805558	2.644595	0.000312
  75	7.3630e+00	2.9357	18.419432	0.000720	7.197333	2.438522	0.000288
  76	7.4625e+00	2.9823	18.697994	0.000699	6.994591	2.369832	0.000280
  77	7.5620e+00	3.0208	18.976557	0.000699	6.994591	2.369832	0.000280
  78	7.6615e+00	3.0641	19.299527	0.000811	8.109670	2.747631	0.000325
  79	7.7610e+00	3.0994	19.541756	0.000608	6.082253	2.060723	0.000243
  80	7.8605e+00	3.1379	19.812244	0.000679	6.791849	2.301141	0.000272
  81	7.9600e+00	3.1780	20.159437	0.000872	8.717896	2.953703	0.000349
  82	8.0595e+00	3.2197	20.421851	0.000659	6.589107	2.232450	0.000264
  83	8.1590e+00	3.2550	20.728673	0.000770	7.704187	2.610249	0.000308
  84	8.2585e+00	3.2951	20.991087	0.000659	6.589107	2.232450	0.000264
  85	8.3580e+00	3.3368	21.281761	0.000730	7.298703	2.472868	0.000292
  86	8.4575e+00	3.3673	21.523989	0.000608	6.082253	2.060723	0.000243
  87	8.5570e+00	3.4202	21.883294	0.000902	9.022008	3.056739	0.000361
  88	8.6565e+00	3.4716	22.133597	0.000628	6.284995	2.129414	0.000252
  89	8.7560e+00	3.5069	22.420233	0.000720	7.197333	2.438522	0.000288
  90	8.8555e+00	3.5421	22.718981	0.000750	7.501445	2.541558	0.000300
  91	8.9550e+00	3.5758	22.981395	0.000659	6.589107	2.232450	0.000264
  92	9.0545e+00	3.6143	23.308403	0.000821	8.211041	2.781976	0.000329
  93	9.1540e+00	3.6609	23.566780	0.000649	6.487736	2.198105	0.000260
  94	9.2535e+00	3.6994	23.837268	0.000679	6.791849	2.301141	0.000272
  95	9.3530e+00	3.7443	24.136016	0.000750	7.501445	2.541558	0.000300
  96	9.4525e+00	3.7796	24.414578	0.000699	6.994591	2.369832	0.000280
  97	9.5520e+00	3.8181	24.693141	0.000699	6.994591	2.369832	0.000280
  98	9.6515e+00	3.8550	24.987852	0.000740	7.400074	2.507213	0.000296
  99	9.7510e+00	3.8967	25.286600	0.000750	7.501445	2.541558	0.000300
 100	9.8505e+00	3.9368	25.589385	0.000760	7.602816	2.575904	0.000304
 101	9.9500e+00	3.9753	25.851799	0.000659	6.589107	2.232450	0.000264
 102	1.0050e+01	4.0170	26.150547	0.000750	7.501445	2.541558	0.000300
 103	1.0149e+01	4.0555	26.380663	0.000578	5.778140	1.957687	0.000231
 104	1.0248e+01	4.0940	26.711709	0.000831	8.312412	2.816322	0.000333
 105	1.0348e+01	4.1277	27.022568	0.000781	7.805558	2.644595	0.000312
 106	1.0447e+01	4.1790	27.284982	0.000659	6.589107	2.232450	0.000264
 107	1.0547e+01	4.2143	27.571619	0.000720	7.197333	2.438522	0.000288
 108	1.0646e+01	4.2560	27.882478	0.000781	7.805558	2.644595	0.000312
 109	1.0746e+01	4.2833	28.185263	0.000760	7.602816	2.575904	0.000304
 110	1.0845e+01	4.3314	28.467863	0.000710	7.095962	2.404177	0.000284
 111	1.0945e+01	4.3780	28.746425	0.000699	6.994591	2.369832	0.000280
 112	1.1044e+01	4.4229	29.016913	0.000679	6.791849	2.301141	0.000272
 113	1.1144e+01	4.4517	29.303550	0.000720	7.197333	2.438522	0.000288
 114	1.1243e+01	4.4935	29.606335	0.000760	7.602816	2.575904	0.000304
 115	1.1343e+01	4.5400	29.868749	0.000659	6.589107	2.232450	0.000264
 116	1.1443e+01	4.5801	30.211905	0.000862	8.616525	2.919358	0.000345
 117	1.1542e+01	4.6090	30.421836	0.000527	5.271286	1.785960	0.000211
 118	1.1642e+01	4.6587	30.740770	0.000801	8.008300	2.713285	0.000321
 119	1.1741e+01	4.6956	31.023370	0.000710	7.095962	2.404177	0.000284
 120	1.1841e+01	4.7405	31.310006	0.000720	7.197333	2.438522	0.000288
 121	1.1940e+01	4.7726	31.608754	0.000750	7.501445	2.541558	0.000300
 122	1.2040e+01	4.8207	31.883279	0.000689	6.893220	2.335486	0.000276
 123	1.2139e+01	4.8544	32.165879	0.000710	7.095962	2.404177	0.000284
 124	1.2239e+01	4.8897	32.424256	0.000649	6.487736	2.198105	0.000260
 125	1.2338e+01	4.9330	32.731078	0.000770	7.704187	2.610249	0.000308
 126	1.2438e+01	4.9667	33.045975	0.000791	7.906929	2.678940	0.000316
 127	1.2537e+01	5.0100	33.288203	0.000608	6.082253	2.060723	0.000243
 128	1.2636e+01	5.0533	33.590988	0.000760	7.602816	2.575904	0.000304
 129	1.2736e+01	5.0902	33.829179	0.000598	5.980882	2.026378	0.000239
 130	1.2835e+01	5.1303	34.148113	0.000801	8.008300	2.713285	0.000321
 131	1.2935e+01	5.1720	34.434749	0.000720	7.197333	2.438522	0.000288
 132	1.3034e+01	5.2105	34.709275	0.000689	6.893220	2.335486	0.000276
 133	1.3134e+01	5.2571	35.024171	0.000791	7.906929	2.678940	0.000316
 134	1.3233e+01	5.2892	35.234102	0.000527	5.271286	1.785960	0.000211
 135	1.3333e+01	5.3389	35.561110	0.000821	8.211041	2.781976	0.000329
 136	1.3432e+01	5.3790	35.823524	0.000659	6.589107	2.232450	0.000264
 137	1.3532e+01	5.4175	36.102086	0.000699	6.994591	2.369832	0.000280
 138	1.3632e+01	5.4416	36.408909	0.000770	7.704187	2.610249	0.000308
 139	1.3731e+01	5.4865	36.675360	0.000669	6.690478	2.266795	0.000268
 140	1.3831e+01	5.5218	36.917588	0.000608	6.082253	2.060723	0.000243
 141	1.3930e+01	5.5763	37.236521	0.000801	8.008300	2.713285	0.000321
 142	1.4030e+01	5.6084	37.498935	0.000659	6.589107	2.232450	0.000264
 143	1.4129e+01	5.6597	37.781535	0.000710	7.095962	2.404177	0.000284
 144	1.4229e+01	5.6854	38.068171	0.000720	7.197333	2.438522	0.000288
 145	1.4328e+01	5.7367	38.342697	0.000689	6.893220	2.335486	0.000276
 146	1.4428e+01	5.7736	38.637408	0.000740	7.400074	2.507213	0.000296
 147	1.4527e+01	5.8105	38.871561	0.000588	5.879511	1.992032	0.000235
 148	1.4627e+01	5.8426	39.178384	0.000770	7.704187	2.610249	0.000308
 149	1.4726e+01	5.8923	39.428686	0.000628	6.284995	2.129414	0.000252
 150	1.4825e+01	5.9389	39.755694	0.000821	8.211041	2.781976	0.000329
 151	1.4925e+01	5.9661	40.001959	0.000618	6.183624	2.095068	0.000248
 152	1.5024e+01	5.9966	40.272448	0.000679	6.791849	2.301141	0.000272
 153	1.5124e+01	6.0415	40.555047	0.000710	7.095962	2.404177	0.000284
 154	1.5223e+01	6.0881	40.869944	0.000791	7.906929	2.678940	0.000316
 155	1.5323e+01	6.1282	41.116209	0.000618	6.183624	2.095068	0.000248
 156	1.5422e+01	6.1619	41.342289	0.000568	5.676769	1.923342	0.000227
 157	1.5522e+01	6.2084	41.620851	0.000699	6.994591	2.369832	0.000280
 158	1.5621e+01	6.2421	41.911525	0.000730	7.298703	2.472868	0.000292
 159	1.5721e+01	6.2950	42.218347	0.000770	7.704187	2.610249	0.000308
 160	1.5820e+01	6.3271	42.456538	0.000598	5.980882	2.026378	0.000239
 161	1.5920e+01	6.3640	42.735100	0.000699	6.994591	2.369832	0.000280
 162	1.6020e+01	6.4089	43.005588	0.000679	6.791849	2.301141	0.000272
 163	1.6119e+01	6.4506	43.284151	0.000699	6.994591	2.369832	0.000280
 164	1.6218e+01	6.4843	43.542528	0.000649	6.487736	2.198105	0.000260
 165	1.6318e+01	6.5164	43.813016	0.000679	6.791849	2.301141	0.000272
 166	1.6418e+01	6.5613	44.099652	0.000720	7.197333	2.438522	0.000288
 167	1.6517e+01	6.5982	44.362066	0.000659	6.589107	2.232450	0.000264
 168	1.6616e+01	6.6495	44.632554	0.000679	6.791849	2.301141	0.000272
 169	1.6716e+01	6.6880	44.899005	0.000669	6.690478	2.266795	0.000268
 170	1.6816e+01	6.7217	45.201790	0.000760	7.602816	2.575904	0.000304
 171	1.6915e+01	6.7650	45.415758	0.000537	5.372657	1.820305	0.000215
 172	1.7015e+01	6.8084	45.722581	0.000770	7.704187	2.610249	0.000308
 173	1.7114e+01	6.8404	45.972883	0.000628	6.284995	2.129414	0.000252
 174	1.7213e+01	6.8822	46.259520	0.000720	7.197333	2.438522	0.000288
 175	1.7313e+01	6.9255	46.517897	0.000649	6.487736	2.198105	0.000260
 176	1.7413e+01	6.9656	46.800496	0.000710	7.095962	2.404177	0.000284
 177	1.7512e+01	7.0057	47.083096	0.000710	7.095962	2.404177	0.000284
 178	1.7611e+01	7.0378	47.345509	0.000659	6.589107	2.232450	0.000264
 179	1.7711e+01	7.0811	47.636183	0.000730	7.298703	2.472868	0.000292
 180	1.7811e+01	7.1244	47.874374	0.000598	5.980882	2.026378	0.000239
 181	1.7910e+01	7.1629	48.136788	0.000659	6.589107	2.232450	0.000264
 182	1.8009e+01	7.2062	48.403239	0.000669	6.690478	2.266795	0.000268
 183	1.8109e+01	7.2399	48.669690	0.000669	6.690478	2.266795	0.000268
 184	1.8209e+01	7.2768	48.952289	0.000710	7.095962	2.404177	0.000284
 185	1.8308e+01	7.3233	49.230852	0.000699	6.994591	2.369832	0.000280
 186	1.8407e+01	7.3682	49.493266	0.000659	6.589107	2.232450	0.000264
 187	1.8507e+01	7.4003	49.727419	0.000588	5.879511	1.992032	0.000235
 188	1.8607e+01	7.4436	50.005982	0.000699	6.994591	2.369832	0.000280
 189	1.8706e+01	7.4934	50.280507	0.000689	6.893220	2.335486	0.000276
 190	1.8805e+01	7.5271	50.546958	0.000669	6.690478	2.266795	0.000268
 191	1.8905e+01	7.5720	50.789186	0.000608	6.082253	2.060723	0.000243
 192	1.9005e+01	7.6041	51.063711	0.000689	6.893220	2.335486	0.000276
 193	1.9104e+01	7.6426	51.354385	0.000730	7.298703	2.472868	0.000292
 194	1.9203e+01	7.6795	51.580465	0.000568	5.676769	1.923342	0.000227
 195	1.9303e+01	7.7276	51.846916	0.000669	6.690478	2.266795	0.000268
 196	1.9402e+01	7.7565	52.093181	0.000618	6.183624	2.095068	0.000248
 197	1.9502e+01	7.8094	52.404040	0.000781	7.805558	2.644595	0.000312
 198	1.9602e+01	7.8415	52.626083	0.000558	5.575398	1.888996	0.000223
 199	1.9701e+01	7.8784	52.880422	0.000639	6.386366	2.163759	0.000256
 200	1.9800e+01	7.9233	53.179171	0.000750	7.501445	2.541558	0.000300
 201	1.9900e+01	7.9602	53.389102	0.000527	5.271286	1.785960	0.000211
 202	2.0000e+01	8.0003	53.679775	0.000730	7.298703	2.472868	0.000292
 203	2.0099e+01	8.0356	53.954301	0.000689	6.893220	2.335486	0.000276
 204	2.0198e+01	8.0869	54.192492	0.000598	5.980882	2.026378	0.000239
 205	2.0298e+01	8.1126	54.462980	0.000679	6.791849	2.301141	0.000272
 206	2.0398e+01	8.1527	54.737505	0.000689	6.893220	2.335486	0.000276
 207	2.0497e+01	8.2008	54.967622	0.000578	5.778140	1.957687	0.000231
 208	2.0596e+01	8.2393	55.250221	0.000710	7.095962	2.404177	0.000284
 209	2.0696e+01	8.2810	55.524746	0.000689	6.893220	2.335486	0.000276
 210	2.0796e+01	8.3244	55.779086	0.000639	6.386366	2.163759	0.000256
 211	2.0895e+01	8.3564	56.041500	0.000659	6.589107	2.232450	0.000264
 212	2.0994e+01	8.3998	56.316025	0.000689	6.893220	2.335486	0.000276
 213	2.1094e+01	8.4415	56.582476	0.000669	6.690478	2.266795	0.000268
 214	2.1194e+01	8.4864	56.844890	0.000659	6.589107	2.232450	0.000264
 215	2.1293e+01	8.5201	57.111341	0.000669	6.690478	2.266795	0.000268
 216	2.1392e+01	8.5602	57.373755	0.000659	6.589107	2.232450	0.000264
 217	2.1492e+01	8.5923	57.607908	0.000588	5.879511	1.992032	0.000235
 218	2.1591e+01	8.6468	57.874359	0.000669	6.690478	2.266795	0.000268
 219	2.1691e+01	8.6741	58.124662	0.000628	6.284995	2.129414	0.000252
 220	2.1791e+01	8.7174	58.407261	0.000710	7.095962	2.404177	0.000284
 221	2.1890e+01	8.7607	58.673712	0.000669	6.690478	2.266795	0.000268
 222	2.1989e+01	8.7848	58.915940	0.000608	6.082253	2.060723	0.000243
 223	2.2089e+01	8.8393	59.174317	0.000649	6.487736	2.198105	0.000260
 224	2.2189e+01	8.8666	59.444805	0.000679	6.791849	2.301141	0.000272
 225	2.2288e+01	8.9179	59.699145	0.000639	6.386366	2.163759	0.000256
 226	2.2387e+01	8.9580	59.945410	0.000618	6.183624	2.095068	0.000248
 227	2.2487e+01	8.9901	60.211861	0.000669	6.690478	2.266795	0.000268
 228	2.2587e+01	9.0399	60.490423	0.000699	6.994591	2.369832	0.000280
 229	2.2686e+01	9.0816	60.748800	0.000649	6.487736	2.198105	0.000260
 230	2.2785e+01	9.1153	60.986991	0.000598	5.980882	2.026378	0.000239
 231	2.2885e+01	9.1602	61.277665	0.000730	7.298703	2.472868	0.000292
 232	2.2985e+01	9.1906	61.515856	0.000598	5.980882	2.026378	0.000239
 233	2.3084e+01	9.2404	61.770195	0.000639	6.386366	2.163759	0.000256
 234	2.3183e+01	9.2741	62.036646	0.000669	6.690478	2.266795	0.000268
 235	2.3283e+01	9.3158	62.299060	0.000659	6.589107	2.232450	0.000264
 236	2.3383e+01	9.3559	62.553400	0.000639	6.386366	2.163759	0.000256
 237	2.3482e+01	9.3928	62.799665	0.000618	6.183624	2.095068	0.000248
 238	2.3581e+01	9.4441	63.049967	0.000628	6.284995	2.129414	0.000252
 239	2.3681e+01	9.4730	63.276047	0.000568	5.676769	1.923342	0.000227
 240	2.3780e+01	9.5147	63.562684	0.000720	7.197333	2.438522	0.000288
 241	2.3880e+01	9.5580	63.841246	0.000699	6.994591	2.369832	0.000280
 242	2.3980e+01	9.5901	64.039066	0.000497	4.967173	1.682924	0.000199
 243	2.4079e+01	9.6286	64.353962	0.000791	7.906929	2.678940	0.000316
 244	2.4178e+01	9.6735	64.588116	0.000588	5.879511	1.992032	0.000235
 245	2.4278e+01	9.7136	64.834381	0.000618	6.183624	2.095068	0.000248
 246	2.4378e+01	9.7569	65.088721	0.000639	6.386366	2.163759	0.000256
 247	2.4477e+01	9.7938	65.379395	0.000730	7.298703	2.472868	0.000292
 248	2.4576e+01	9.8388	65.593363	0.000537	5.372657	1.820305	0.000215
 249	2.4676e+01	9.8789	65.867888	0.000689	6.893220	2.335486	0.000276
 250	2.4776e+01	9.9142	66.106079	0.000598	5.980882	2.026378	0.000239
 251	2.4875e+01	9.9527	66.372530	0.000669	6.690478	2.266795	0.000268
 252	2.4974e+01	9.9880	66.606684	0.000588	5.879511	1.992032	0.000235
 253	2.5074e+01	10.0345	66.873135	0.000669	6.690478	2.266795	0.000268
 254	2.5174e+01	10.0650	67.139586	0.000669	6.690478	2.266795	0.000268
 255	2.5273e+01	10.1067	67.397963	0.000649	6.487736	2.198105	0.000260
 256	2.5372e+01	10.1500	67.620005	0.000558	5.575398	1.888996	0.000223
 257	2.5472e+01	10.2013	67.886456	0.000669	6.690478	2.266795	0.000268
 258	2.5572e+01	10.2270	68.177130	0.000730	7.298703	2.472868	0.000292
 259	2.5671e+01	10.2687	68.395135	0.000547	5.474028	1.854651	0.000219
 260	2.5770e+01	10.3104	68.689846	0.000740	7.400074	2.507213	0.000296
 261	2.5870e+01	10.3585	68.924000	0.000588	5.879511	1.992032	0.000235
 262	2.5970e+01	10.3922	69.170265	0.000618	6.183624	2.095068	0.000248
 263	2.6069e+01	10.4307	69.408456	0.000598	5.980882	2.026378	0.000239
 264	2.6169e+01	10.4692	69.662796	0.000639	6.386366	2.163759	0.000256
 265	2.6268e+01	10.5061	69.925210	0.000659	6.589107	2.232450	0.000264
 266	2.6367e+01	10.5526	70.179549	0.000639	6.386366	2.163759	0.000256
 267	2.6467e+01	10.5831	70.397554	0.000547	5.474028	1.854651	0.000219
 268	2.6567e+01	10.6280	70.668043	0.000679	6.791849	2.301141	0.000272
 269	2.6666e+01	10.6730	70.910271	0.000608	6.082253	2.060723	0.000243
 270	2.6765e+01	10.7179	71.148462	0.000598	5.980882	2.026378	0.000239
 271	2.6865e+01	10.7403	71.394727	0.000618	6.183624	2.095068	0.000248
 272	2.6965e+01	10.7820	71.673289	0.000699	6.994591	2.369832	0.000280
 273	2.7064e+01	10.8334	71.903406	0.000578	5.778140	1.957687	0.000231
 274	2.7163e+01	10.8655	72.145634	0.000608	6.082253	2.060723	0.000243
 275	2.7263e+01	10.9072	72.412085	0.000669	6.690478	2.266795	0.000268
 276	2.7363e+01	10.9585	72.718907	0.000770	7.704187	2.610249	0.000308
 277	2.7462e+01	10.9874	72.900579	0.000456	4.561690	1.545542	0.000183
 278	2.7561e+01	11.0259	73.179141	0.000699	6.994591	2.369832	0.000280
 279	2.7661e+01	11.0660	73.413295	0.000588	5.879511	1.992032	0.000235
 280	2.7761e+01	11.1109	73.703969	0.000730	7.298703	2.472868	0.000292
 281	2.7860e+01	11.1446	73.942160	0.000598	5.980882	2.026378	0.000239
 282	2.7959e+01	11.1911	74.208611	0.000669	6.690478	2.266795	0.000268
 283	2.8059e+01	11.2264	74.446802	0.000598	5.980882	2.026378	0.000239
 284	2.8159e+01	11.2713	74.693067	0.000618	6.183624	2.095068	0.000248
 285	2.8258e+01	11.3002	74.907035	0.000537	5.372657	1.820305	0.000215
 286	2.8358e+01	11.3403	75.173486	0.000669	6.690478	2.266795	0.000268
 287	2.8457e+01	11.3852	75.448011	0.000689	6.893220	2.335486	0.000276
 288	2.8556e+01	11.4253	75.682165	0.000588	5.879511	1.992032	0.000235
 289	2.8656e+01	11.4590	75.912282	0.000578	5.778140	1.957687	0.000231
 290	2.8756e+01	11.5120	76.166621	0.000639	6.386366	2.163759	0.000256
 291	2.8855e+01	11.5505	76.429035	0.000659	6.589107	2.232450	0.000264
 292	2.8954e+01	11.5777	76.630892	0.000507	5.068544	1.717269	0.000203
 293	2.9054e+01	11.6275	76.869083	0.000598	5.980882	2.026378	0.000239
 294	2.9154e+01	11.6612	77.147645	0.000699	6.994591	2.369832	0.000280
 295	2.9253e+01	11.6949	77.397948	0.000628	6.284995	2.129414	0.000252
 296	2.9352e+01	11.7398	77.595767	0.000497	4.967173	1.682924	0.000199
 297	2.9452e+01	11.7847	77.866256	0.000679	6.791849	2.301141	0.000272
 298	2.9552e+01	11.8248	78.096372	0.000578	5.778140	1.957687	0.000231
 299	2.9651e+01	11.8649	78.370898	0.000689	6.893220	2.335486	0.000276
 300	2.9750e+01	11.8986	78.588903	0.000547	5.474028	1.854651	0.000219
 301	2.9850e+01	11.9419	78.814982	0.000568	5.676769	1.923342	0.000227
 302	2.9950e+01	11.9788	79.057211	0.000608	6.082253	2.060723	0.000243
 303	3.0049e+01	12.0285	79.307513	0.000628	6.284995	2.129414	0.000252
 304	3.0148e+01	12.0702	79.545704	0.000598	5.980882	2.026378	0.000239
 305	3.0248e+01	12.1055	79.779858	0.000588	5.879511	1.992032	0.000235
 306	3.0348e+01	12.1440	80.014012	0.000588	5.879511	1.992032	0.000235
 307	3.0447e+01	12.1874	80.264314	0.000628	6.284995	2.129414	0.000252
 308	3.0547e+01	12.2194	80.534802	0.000679	6.791849	2.301141	0.000272
 309	3.0646e+01	12.2692	80.720511	0.000466	4.663061	1.579888	0.000187
 310	3.0745e+01	12.2997	80.954664	0.000588	5.879511	1.992032	0.000235
 311	3.0845e+01	12.3333	81.221115	0.000669	6.690478	2.266795	0.000268
 312	3.0945e+01	12.3879	81.455269	0.000588	5.879511	1.992032	0.000235
 313	3.1044e+01	12.4296	81.717683	0.000659	6.589107	2.232450	0.000264
 314	3.1143e+01	12.4585	81.923577	0.000517	5.169915	1.751615	0.000207
 315	3.1243e+01	12.4922	82.181954	0.000649	6.487736	2.198105	0.000260
 316	3.1343e+01	12.5467	82.412070	0.000578	5.778140	1.957687	0.000231
 317	3.1442e+01	12.5836	82.646224	0.000588	5.879511	1.992032	0.000235
 318	3.1541e+01	12.6205	82.872304	0.000568	5.676769	1.923342	0.000227
 319	3.1641e+01	12.6526	83.086272	0.000537	5.372657	1.820305	0.000215
 320	3.1741e+01	12.7023	83.316389	0.000578	5.778140	1.957687	0.000231
 321	3.1840e+01	12.7392	83.542468	0.000568	5.676769	1.923342	0.000227
 322	3.1939e+01	12.7825	83.812956	0.000679	6.791849	2.301141	0.000272
 323	3.2039e+01	12.8178	84.010776	0.000497	4.967173	1.682924	0.000199
 324	3.2139e+01	12.8692	84.265116	0.000639	6.386366	2.163759	0.000256
 325	3.2238e+01	12.9028	84.507344	0.000608	6.082253	2.060723	0.000243
 326	3.2337e+01	12.9333	84.680941	0.000436	4.358948	1.476852	0.000174
 327	3.2437e+01	12.9766	84.915095	0.000588	5.879511	1.992032	0.000235
 328	3.2536e+01	13.0119	85.193657	0.000699	6.994591	2.369832	0.000280
 329	3.2636e+01	13.0601	85.439922	0.000618	6.183624	2.095068	0.000248
 330	3.2736e+01	13.1162	85.629668	0.000476	4.764431	1.614233	0.000191
 331	3.2835e+01	13.1355	85.851710	0.000558	5.575398	1.888996	0.000223
 332	3.2934e+01	13.1804	86.118161	0.000669	6.690478	2.266795	0.000268
 333	3.3034e+01	13.2157	86.324055	0.000517	5.169915	1.751615	0.000207
 334	3.3133e+01	13.2590	86.582432	0.000649	6.487736	2.198105	0.000260
 335	3.3233e+01	13.2975	86.792363	0.000527	5.271286	1.785960	0.000211
 336	3.3333e+01	13.3280	87.002294	0.000527	5.271286	1.785960	0.000211
 337	3.3432e+01	13.3777	87.244522	0.000608	6.082253	2.060723	0.000243
 338	3.3532e+01	13.4226	87.494824	0.000628	6.284995	2.129414	0.000252
 339	3.3631e+01	13.4659	87.712830	0.000547	5.474028	1.854651	0.000219
 340	3.3730e+01	13.4948	87.959095	0.000618	6.183624	2.095068	0.000248
 341	3.3830e+01	13.5397	88.160952	0.000507	5.068544	1.717269	0.000203
 342	3.3929e+01	13.5766	88.387031	0.000568	5.676769	1.923342	0.000227
 343	3.4029e+01	13.6135	88.621185	0.000588	5.879511	1.992032	0.000235
 344	3.4129e+01	13.6536	88.855339	0.000588	5.879511	1.992032	0.000235
 345	3.4228e+01	13.6889	89.093530	0.000598	5.980882	2.026378	0.000239
 346	3.4328e+01	13.7370	89.327684	0.000588	5.879511	1.992032	0.000235
 347	3.4427e+01	13.7755	89.557801	0.000578	5.778140	1.957687	0.000231
 348	3.4526e+01	13.8205	89.767732	0.000527	5.271286	1.785960	0.000211
 349	3.4626e+01	13.8606	90.005923	0.000598	5.980882	2.026378	0.000239
 350	3.4725e+01	13.8991	90.244114	0.000598	5.980882	2.026378	0.000239
 351	3.4825e+01	13.9344	90.425785	0.000456	4.561690	1.545542	0.000183
 352	3.4925e+01	13.9777	90.659939	0.000588	5.879511	1.992032	0.000235
 353	3.5024e+01	14.0050	90.890055	0.000578	5.778140	1.957687	0.000231
 354	3.5123e+01	14.0563	91.091912	0.000507	5.068544	1.717269	0.000203
 355	3.5223e+01	14.0948	91.334140	0.000608	6.082253	2.060723	0.000243
 356	3.5322e+01	14.1365	91.540034	0.000517	5.169915	1.751615	0.000207
 357	3.5422e+01	14.1750	91.802448	0.000659	6.589107	2.232450	0.000264
 358	3.5522e+01	14.2087	91.980082	0.000446	4.460319	1.511197	0.000179
 359	3.5621e+01	14.2584	92.210199	0.000578	5.778140	1.957687	0.000231
 360	3.5721e+01	14.2953	92.456464	0.000618	6.183624	2.095068	0.000248
 361	3.5820e+01	14.3306	92.694655	0.000598	5.980882	2.026378	0.000239
 362	3.5919e+01	14.3739	92.884400	0.000476	4.764431	1.614233	0.000191
 363	3.6019e+01	14.4172	93.106443	0.000558	5.575398	1.888996	0.000223
 364	3.6118e+01	14.4525	93.316374	0.000527	5.271286	1.785960	0.000211
 365	3.6218e+01	14.4958	93.538416	0.000558	5.575398	1.888996	0.000223
 366	3.6318e+01	14.5327	93.764496	0.000568	5.676769	1.923342	0.000227
 367	3.6417e+01	14.5745	93.978464	0.000537	5.372657	1.820305	0.000215
 368	3.6517e+01	14.6130	94.220692	0.000608	6.082253	2.060723	0.000243
 369	3.6616e+01	14.6563	94.414475	0.000487	4.865802	1.648578	0.000195
 370	3.6715e+01	14.6932	94.660740	0.000618	6.183624	2.095068	0.000248
 371	3.6815e+01	14.7301	94.878746	0.000547	5.474028	1.854651	0.000219
 372	3.6914e+01	14.7670	95.092714	0.000537	5.372657	1.820305	0.000215
 373	3.7014e+01	14.8119	95.302645	0.000527	5.271286	1.785960	0.000211
 374	3.7114e+01	14.8504	95.492390	0.000476	4.764431	1.614233	0.000191
 375	3.7213e+01	14.8889	95.770953	0.000699	6.994591	2.369832	0.000280
 376	3.7313e+01	14.9354	95.936475	0.000416	4.156206	1.408161	0.000166
 377	3.7412e+01	14.9707	96.150443	0.000537	5.372657	1.820305	0.000215
 378	3.7511e+01	15.0140	96.416894	0.000669	6.690478	2.266795	0.000268
 379	3.7611e+01	15.0477	96.614714	0.000497	4.967173	1.682924	0.000199
 380	3.7711e+01	15.0830	96.869053	0.000639	6.386366	2.163759	0.000256
 381	3.7810e+01	15.1472	97.070910	0.000507	5.068544	1.717269	0.000203
 382	3.7910e+01	15.1760	97.280841	0.000527	5.271286	1.785960	0.000211
 383	3.8009e+01	15.2081	97.486735	0.000517	5.169915	1.751615	0.000207
 384	3.8108e+01	15.2434	97.712815	0.000568	5.676769	1.923342	0.000227
 385	3.8208e+01	15.2867	97.918709	0.000517	5.169915	1.751615	0.000207
 386	3.8307e+01	15.3300	98.160937	0.000608	6.082253	2.060723	0.000243
 387	3.8407e+01	15.3718	98.350682	0.000476	4.764431	1.614233	0.000191
 388	3.8507e+01	15.4103	98.613096	0.000659	6.589107	2.232450	0.000264
 389	3.8606e+01	15.4439	98.814953	0.000507	5.068544	1.717269	0.000203
 390	3.8706e+01	15.4776	99.057181	0.000608	6.082253	2.060723	0.000243
 391	3.8805e+01	15.5338	99.255001	0.000497	4.967173	1.682924	0.000199
 392	3.8904e+01	15.5739	99.485117	0.000578	5.778140	1.957687	0.000231
 393	3.9004e+01	15.6124	99.699086	0.000537	5.372657	1.820305	0.000215
 394	3.9103e+01	15.6493	99.929202	0.000578	5.778140	1.957687	0.000231
 395	3.9203e+01	15.6878	100.163356	0.000588	5.879511	1.992032	0.000235
 396	3.9303e+01	15.7295	100.361176	0.000497	4.967173	1.682924	0.000199
 397	3.9402e+01	15.7664	100.542847	0.000456	4.561690	1.545542	0.000183
 398	3.9502e+01	15.7937	100.789112	0.000618	6.183624	2.095068	0.000248
 399	3.9601e+01	15.8498	101.019229	0.000578	5.778140	1.957687	0.000231
 400	3.9700e+01	15.8835	101.225123	0.000517	5.169915	1.751615	0.000207
 401	3.9800e+01	15.9397	101.463314	0.000598	5.980882	2.026378	0.000239
 402	3.9900e+01	15.9637	101.665171	0.000507	5.068544	1.717269	0.000203
 403	3.9999e+01	16.0102	101.899325	0.000588	5.879511	1.992032	0.000235
 404	4.0099e+01	16.0423	102.113293	0.000537	5.372657	1.820305	0.000215
 405	4.0198e+01	16.0905	102.315150	0.000507	5.068544	1.717269	0.000203
 406	4.0297e+01	16.1225	102.545266	0.000578	5.778140	1.957687	0.000231
 407	4.0397e+01	16.1626	102.722900	0.000446	4.460319	1.511197	0.000179
 408	4.0496e+01	16.2060	102.957054	0.000588	5.879511	1.992032	0.000235
 409	4.0596e+01	16.2461	103.175059	0.000547	5.474028	1.854651	0.000219
 410	4.0696e+01	16.2990	103.405176	0.000578	5.778140	1.957687	0.000231
 411	4.0795e+01	16.3215	103.623182	0.000547	5.474028	1.854651	0.000219
 412	4.0895e+01	16.3696	103.829075	0.000517	5.169915	1.751615	0.000207
 413	4.0994e+01	16.4065	104.059192	0.000578	5.778140	1.957687	0.000231
 414	4.1093e+01	16.4514	104.269123	0.000527	5.271286	1.785960	0.000211
 415	4.1193e+01	16.4915	104.466943	0.000497	4.967173	1.682924	0.000199
 416	4.1292e+01	16.5300	104.680911	0.000537	5.372657	1.820305	0.000215
 417	4.1392e+01	16.5685	104.923139	0.000608	6.082253	2.060723	0.000243
 418	4.1492e+01	16.5942	105.129033	0.000517	5.169915	1.751615	0.000207
 419	4.1591e+01	16.6439	105.367224	0.000598	5.980882	2.026378	0.000239
 420	4.1691e+01	16.6936	105.532747	0.000416	4.156206	1.408161	0.000166
 421	4.1790e+01	16.7257	105.758826	0.000568	5.676769	1.923342	0.000227
 422	4.1889e+01	16.7674	105.984906	0.000568	5.676769	1.923342	0.000227
 423	4.1989e+01	16.8059	106.178688	0.000487	4.865802	1.648578	0.000195
 424	4.2089e+01	16.8509	106.352285	0.000436	4.358948	1.476852	0.000174
 425	4.2188e+01	16.8910	106.622773	0.000679	6.791849	2.301141	0.000272
 426	4.2288e+01	16.9247	106.816556	0.000487	4.865802	1.648578	0.000195
 427	4.2387e+01	16.9583	107.042636	0.000568	5.676769	1.923342	0.000227
 428	4.2486e+01	16.9936	107.260641	0.000547	5.474028	1.854651	0.000219
 429	4.2586e+01	17.0498	107.478646	0.000547	5.474028	1.854651	0.000219
 430	4.2685e+01	17.0803	107.704726	0.000568	5.676769	1.923342	0.000227
 431	4.2785e+01	17.1204	107.910620	0.000517	5.169915	1.751615	0.000207
 432	4.2885e+01	17.1653	108.112476	0.000507	5.068544	1.717269	0.000203
 433	4.2984e+01	17.2022	108.298185	0.000466	4.663061	1.579888	0.000187
 434	4.3084e+01	17.2327	108.544450	0.000618	6.183624	2.095068	0.000248
 435	4.3183e+01	17.2792	108.750344	0.000517	5.169915	1.751615	0.000207
 436	4.3282e+01	17.3241	108.972386	0.000558	5.575398	1.888996	0.000223
 437	4.3382e+01	17.3642	109.174243	0.000507	5.068544	1.717269	0.000203
 438	4.3481e+01	17.3995	109.400323	0.000568	5.676769	1.923342	0.000227
 439	4.3581e+01	17.4476	109.626402	0.000568	5.676769	1.923342	0.000227
 440	4.3681e+01	17.4861	109.816148	0.000476	4.764431	1.614233	0.000191
 441	4.3780e+01	17.5214	110.062413	0.000618	6.183624	2.095068	0.000248
 442	4.3880e+01	17.5647	110.240047	0.000446	4.460319	1.511197	0.000179
 443	4.3979e+01	17.5984	110.441904	0.000507	5.068544	1.717269	0.000203
 444	4.4078e+01	17.6369	110.643761	0.000507	5.068544	1.717269	0.000203
 445	4.4178e+01	17.6835	110.918286	0.000689	6.893220	2.335486	0.000276
 446	4.4278e+01	17.7268	111.124180	0.000517	5.169915	1.751615	0.000207
 447	4.4377e+01	17.7589	111.289702	0.000416	4.156206	1.408161	0.000166
 448	4.4477e+01	17.8054	111.564228	0.000689	6.893220	2.335486	0.000276
 449	4.4576e+01	17.8391	111.725713	0.000405	4.054835	1.373815	0.000162
 450	4.4675e+01	17.8744	111.951793	0.000568	5.676769	1.923342	0.000227
 451	4.4775e+01	17.9193	112.173835	0.000558	5.575398	1.888996	0.000223
 452	4.4874e+01	17.9658	112.379729	0.000517	5.169915	1.751615	0.000207
 453	4.4974e+01	18.0011	112.533140	0.000385	3.852093	1.305125	0.000154
 454	4.5074e+01	18.0412	112.823814	0.000730	7.298703	2.472868	0.000292
 455	4.5173e+01	18.0749	113.053931	0.000578	5.778140	1.957687	0.000231
 456	4.5273e+01	18.1166	113.227527	0.000436	4.358948	1.476852	0.000174
 457	4.5372e+01	18.1503	113.417273	0.000476	4.764431	1.614233	0.000191
 458	4.5471e+01	18.2032	113.623167	0.000517	5.169915	1.751615	0.000207
 459	4.5571e+01	18.2337	113.865395	0.000608	6.082253	2.060723	0.000243
 460	4.5670e+01	18.2818	114.055140	0.000476	4.764431	1.614233	0.000191
 461	4.5770e+01	18.3219	114.240849	0.000466	4.663061	1.579888	0.000187
 462	4.5870e+01	18.3604	114.458854	0.000547	5.474028	1.854651	0.000219
 463	4.5969e+01	18.4102	114.668785	0.000527	5.271286	1.785960	0.000211
 464	4.6069e+01	18.4326	114.874679	0.000517	5.169915	1.751615	0.000207
 465	4.6168e+01	18.4776	115.084610	0.000527	5.271286	1.785960	0.000211
 466	4.6267e+01	18.5273	115.274355	0.000476	4.764431	1.614233	0.000191
 467	4.6367e+01	18.5626	115.524658	0.000628	6.284995	2.129414	0.000252
 468	4.6467e+01	18.5931	115.694217	0.000426	4.257577	1.442506	0.000170
 469	4.6566e+01	18.6348	115.892037	0.000497	4.967173	1.682924	0.000199
 470	4.6666e+01	18.6701	116.106005	0.000537	5.372657	1.820305	0.000215
 471	4.6765e+01	18.7166	116.263454	0.000395	3.953464	1.339470	0.000158
 472	4.6864e+01	18.7551	116.505682	0.000608	6.082253	2.060723	0.000243
 473	4.6964e+01	18.8016	116.699464	0.000487	4.865802	1.648578	0.000195
 474	4.7063e+01	18.8385	116.949767	0.000628	6.284995	2.129414	0.000252
 475	4.7163e+01	18.8866	117.139512	0.000476	4.764431	1.614233	0.000191
 476	4.7263e+01	18.9155	117.337332	0.000497	4.967173	1.682924	0.000199
 477	4.7362e+01	18.9572	117.523040	0.000466	4.663061	1.579888	0.000187
 478	4.7462e+01	18.9989	117.728934	0.000517	5.169915	1.751615	0.000207
 479	4.7561e+01	19.0455	117.918679	0.000476	4.764431	1.614233	0.000191
 480	4.7660e+01	19.0775	118.136685	0.000547	5.474028	1.854651	0.000219
 481	4.7760e+01	19.1112	118.342578	0.000517	5.169915	1.751615	0.000207
 482	4.7859e+01	19.1610	118.552510	0.000527	5.271286	1.785960	0.000211
 483	4.7959e+01	19.1898	118.730143	0.000446	4.460319	1.511197	0.000179
 484	4.8059e+01	19.2412	118.940075	0.000527	5.271286	1.785960	0.000211
 485	4.8158e+01	19.2829	119.121746	0.000456	4.561690	1.545542	0.000183
 486	4.8258e+01	19.3102	119.327640	0.000517	5.169915	1.751615	0.000207
 487	4.8357e+01	19.3631	119.525459	0.000497	4.967173	1.682924	0.000199
 488	4.8456e+01	19.3952	119.682908	0.000395	3.953464	1.339470	0.000158
 489	4.8556e+01	19.4305	119.921099	0.000598	5.980882	2.026378	0.000239
 490	4.8656e+01	19.4674	120.159290	0.000598	5.980882	2.026378	0.000239
 491	4.8755e+01	19.5203	120.324812	0.000416	4.156206	1.408161	0.000166
 492	4.8855e+01	19.5460	120.530706	0.000517	5.169915	1.751615	0.000207
 493	4.8954e+01	19.5973	120.720451	0.000476	4.764431	1.614233	0.000191
 494	4.9053e+01	19.6390	120.930382	0.000527	5.271286	1.785960	0.000211
 495	4.9153e+01	19.6711	121.136276	0.000517	5.169915	1.751615	0.000207
 496	4.9252e+01	19.7048	121.305836	0.000426	4.257577	1.442506	0.000170
 497	4.9352e+01	19.7625	121.515767	0.000527	5.271286	1.785960	0.000211
 498	4.9452e+01	19.7898	121.713587	0.000497	4.967173	1.682924	0.000199
 499	4.9551e+01	19.8283	121.899295	0.000466	4.663061	1.579888	0.000187
 500	4.9651e+01	19.8748	122.133449	0.000588	5.879511	1.992032	0.000235
 501	4.9750e+01	19.9149	122.331269	0.000497	4.967173	1.682924	0.000199
 502	4.9849e+01	19.9583	122.516977	0.000466	4.663061	1.579888	0.000187
 503	4.9949e+01	19.9887	122.726908	0.000527	5.271286	1.785960	0.000211
 504	5.0048e+01	19.9502	122.569460	0.000395	3.953464	1.339470	-0.000158
 505	5.0148e+01	19.9101	122.480643	0.000223	2.230159	0.755598	-0.000089
 506	5.0248e+01	19.8732	122.274749	0.000517	5.169915	1.751615	-0.000207
 507	5.0347e+01	19.8299	122.117300	0.000395	3.953464	1.339470	-0.000158
 508	5.0447e+01	19.7898	121.984075	0.000335	3.345239	1.133398	-0.000134
 509	5.0546e+01	19.7465	121.842775	0.000355	3.547981	1.202088	-0.000142
 510	5.0645e+01	19.7160	121.717624	0.000314	3.142497	1.064707	-0.000126
 511	5.0745e+01	19.6743	121.515767	0.000507	5.068544	1.717269	-0.000203
 512	5.0844e+01	19.6342	121.358319	0.000395	3.953464	1.339470	-0.000158
 513	5.0944e+01	19.5941	121.241242	0.000294	2.939756	0.996016	-0.000118
 514	5.1044e+01	19.5556	121.067645	0.000436	4.358948	1.476852	-0.000174
 515	5.1143e+01	19.5155	120.926345	0.000355	3.547981	1.202088	-0.000142
 516	5.1242e+01	19.4722	120.736600	0.000476	4.764431	1.614233	-0.000191
 517	5.1342e+01	19.4289	120.603374	0.000335	3.345239	1.133398	-0.000134
 518	5.1441e+01	19.3952	120.433815	0.000426	4.257577	1.442506	-0.000170
 519	5.1541e+01	19.3551	120.292515	0.000355	3.547981	1.202088	-0.000142
 520	5.1641e+01	19.3150	120.139104	0.000385	3.852093	1.305125	-0.000154
 521	5.1740e+01	19.2749	119.933210	0.000517	5.169915	1.751615	-0.000207
 522	5.1840e+01	19.2476	119.816133	0.000294	2.939756	0.996016	-0.000118
 523	5.1939e+01	19.1962	119.634462	0.000456	4.561690	1.545542	-0.000183
 524	5.2038e+01	19.1449	119.448754	0.000466	4.663061	1.579888	-0.000187
 525	5.2138e+01	19.1096	119.299380	0.000375	3.750723	1.270779	-0.000150
 526	5.2237e+01	19.0775	119.166154	0.000335	3.345239	1.133398	-0.000134
 527	5.2337e+01	19.0342	118.988520	0.000446	4.460319	1.511197	-0.000179
 528	5.2437e+01	18.9973	118.802812	0.000466	4.663061	1.579888	-0.000187
 529	5.2536e+01	18.9540	118.604992	0.000497	4.967173	1.682924	-0.000199
 530	5.2636e+01	18.9171	118.435433	0.000426	4.257577	1.442506	-0.000170
 531	5.2735e+01	18.8834	118.294133	0.000355	3.547981	1.202088	-0.000142
 532	5.2834e+01	18.8433	118.096313	0.000497	4.967173	1.682924	-0.000199
 533	5.2934e+01	18.7968	117.938865	0.000395	3.953464	1.339470	-0.000158
 534	5.3033e+01	18.7631	117.773342	0.000416	4.156206	1.408161	-0.000166
 535	5.3133e+01	18.7182	117.591671	0.000456	4.561690	1.545542	-0.000183
 536	5.3233e+01	18.6749	117.454409	0.000345	3.446610	1.167743	-0.000138
 537	5.3332e+01	18.6316	117.276775	0.000446	4.460319	1.511197	-0.000179
 538	5.3431e+01	18.5979	117.087029	0.000476	4.764431	1.614233	-0.000191
 539	5.3531e+01	18.5530	116.917470	0.000426	4.257577	1.442506	-0.000170
 540	5.3630e+01	18.5177	116.792318	0.000314	3.142497	1.064707	-0.000126
 541	5.3730e+01	18.4776	116.582387	0.000527	5.271286	1.785960	-0.000211
 542	5.3830e+01	18.4439	116.392642	0.000476	4.764431	1.614233	-0.000191
 543	5.3929e+01	18.4038	116.194822	0.000497	4.967173	1.682924	-0.000199
 544	5.4029e+01	18.3572	116.065634	0.000324	3.243868	1.099052	-0.000130
 545	5.4128e+01	18.3268	115.879926	0.000466	4.663061	1.579888	-0.000187
 546	5.4227e+01	18.2850	115.710366	0.000426	4.257577	1.442506	-0.000170
 547	5.4327e+01	18.2289	115.544843	0.000416	4.156206	1.408161	-0.000166
 548	5.4426e+01	18.2096	115.363172	0.000456	4.561690	1.545542	-0.000183
 549	5.4526e+01	18.1663	115.201687	0.000405	4.054835	1.373815	-0.000162
 550	5.4626e+01	18.1182	114.999830	0.000507	5.068544	1.717269	-0.000203
 551	5.4725e+01	18.0813	114.862567	0.000345	3.446610	1.167743	-0.000138
 552	5.4825e+01	18.0508	114.676859	0.000466	4.663061	1.579888	-0.000187
 553	5.4924e+01	17.9995	114.527485	0.000375	3.750723	1.270779	-0.000150
 554	5.5023e+01	17.9562	114.366000	0.000405	4.054835	1.373815	-0.000162
 555	5.5123e+01	17.9129	114.152032	0.000537	5.372657	1.820305	-0.000215
 556	5.5222e+01	17.8840	113.966323	0.000466	4.663061	1.579888	-0.000187
 557	5.5322e+01	17.8519	113.816949	0.000375	3.750723	1.270779	-0.000150
 558	5.5422e+01	17.7990	113.651427	0.000416	4.156206	1.408161	-0.000166
 559	5.5521e+01	17.7637	113.449570	0.000507	5.068544	1.717269	-0.000203
 560	5.5620e+01	17.7236	113.275973	0.000436	4.358948	1.476852	-0.000174
 561	5.5720e+01	17.6835	113.126599	0.000375	3.750723	1.270779	-0.000150
 562	5.5819e+01	17.6353	112.936854	0.000476	4.764431	1.614233	-0.000191
 563	5.5919e+01	17.6065	112.722886	0.000537	5.372657	1.820305	-0.000215
 564	5.6019e+01	17.5631	112.589660	0.000335	3.345239	1.133398	-0.000134
 565	5.6118e+01	17.5198	112.399915	0.000476	4.764431	1.614233	-0.000191
 566	5.6218e+01	17.4845	112.222281	0.000446	4.460319	1.511197	-0.000179
 567	5.6317e+01	17.4412	112.052721	0.000426	4.257577	1.442506	-0.000170
 568	5.6416e+01	17.4043	111.862976	0.000476	4.764431	1.614233	-0.000191
 569	5.6516e+01	17.3578	111.697453	0.000416	4.156206	1.408161	-0.000166
 570	5.6615e+01	17.3177	111.503671	0.000487	4.865802	1.648578	-0.000195
 571	5.6715e+01	17.2856	111.334111	0.000426	4.257577	1.442506	-0.000170
 572	5.6815e+01	17.2455	111.152440	0.000456	4.561690	1.545542	-0.000183
 573	5.6914e+01	17.2070	110.970769	0.000456	4.561690	1.545542	-0.000183
 574	5.7014e+01	17.1653	110.837543	0.000335	3.345239	1.133398	-0.000134
 575	5.7113e+01	17.1236	110.639723	0.000497	4.967173	1.682924	-0.000199
 576	5.7212e+01	17.0835	110.474201	0.000416	4.156206	1.408161	-0.000166
 577	5.7312e+01	17.0434	110.260233	0.000537	5.372657	1.820305	-0.000215
 578	5.7411e+01	17.0033	110.094710	0.000416	4.156206	1.408161	-0.000166
 579	5.7511e+01	16.9664	109.904965	0.000476	4.764431	1.614233	-0.000191
 580	5.7611e+01	16.9279	109.723294	0.000456	4.561690	1.545542	-0.000183
 581	5.7710e+01	16.8862	109.569882	0.000385	3.852093	1.305125	-0.000154
 582	5.7809e+01	16.8493	109.376100	0.000487	4.865802	1.648578	-0.000195
 583	5.7909e+01	16.7979	109.194429	0.000456	4.561690	1.545542	-0.000183
 584	5.8008e+01	16.7674	108.992572	0.000507	5.068544	1.717269	-0.000203
 585	5.8108e+01	16.7225	108.835124	0.000395	3.953464	1.339470	-0.000158
 586	5.8208e+01	16.6856	108.673638	0.000405	4.054835	1.373815	-0.000162
 587	5.8307e+01	16.6455	108.479856	0.000487	4.865802	1.648578	-0.000195
 588	5.8407e+01	16.6102	108.273962	0.000517	5.169915	1.751615	-0.000207
 589	5.8506e+01	16.5685	108.144774	0.000324	3.243868	1.099052	-0.000130
 590	5.8605e+01	16.5268	107.942917	0.000507	5.068544	1.717269	-0.000203
 591	5.8705e+01	16.4915	107.712800	0.000578	5.778140	1.957687	-0.000231
 592	5.8804e+01	16.4466	107.575537	0.000345	3.446610	1.167743	-0.000138
 593	5.8904e+01	16.4049	107.345421	0.000578	5.778140	1.957687	-0.000231
 594	5.9004e+01	16.3664	107.179898	0.000416	4.156206	1.408161	-0.000166
 595	5.9103e+01	16.3295	106.986116	0.000487	4.865802	1.648578	-0.000195
 596	5.9203e+01	16.2830	106.832704	0.000385	3.852093	1.305125	-0.000154
 597	5.9302e+01	16.2525	106.578365	0.000639	6.386366	2.163759	-0.000256
 598	5.9401e+01	16.2011	106.453214	0.000314	3.142497	1.064707	-0.000126
 599	5.9501e+01	16.1691	106.239246	0.000537	5.372657	1.820305	-0.000215
 600	5.9600e+01	16.1257	106.097946	0.000355	3.547981	1.202088	-0.000142
 601	5.9700e+01	16.0808	105.920312	0.000446	4.460319	1.511197	-0.000179
 602	5.9800e+01	16.0487	105.722492	0.000497	4.967173	1.682924	-0.000199
 603	5.9899e+01	16.0038	105.544858	0.000446	4.460319	1.511197	-0.000179
 604	5.9998e+01	15.9782	105.363187	0.000456	4.561690	1.545542	-0.000183
 605	6.0098e+01	15.9316	105.169405	0.000487	4.865802	1.648578	-0.000195
 606	6.0197e+01	15.8915	104.975622	0.000487	4.865802	1.648578	-0.000195
 607	6.0297e+01	15.8482	104.793951	0.000456	4.561690	1.545542	-0.000183
 608	6.0397e+01	15.8145	104.624391	0.000426	4.257577	1.442506	-0.000170
 609	6.0496e+01	15.7712	104.434646	0.000476	4.764431	1.614233	-0.000191
 610	6.0596e+01	15.7247	104.257012	0.000446	4.460319	1.511197	-0.000179
 611	6.0695e+01	15.6846	104.079378	0.000446	4.460319	1.511197	-0.000179
 612	6.0794e+01	15.6461	103.893670	0.000466	4.663061	1.579888	-0.000187
 613	6.0894e+01	15.6124	103.711999	0.000456	4.561690	1.545542	-0.000183
 614	6.0993e+01	15.5707	103.518216	0.000487	4.865802	1.648578	-0.000195
 615	6.1093e+01	15.5402	103.352693	0.000416	4.156206	1.408161	-0.000166
 616	6.1193e+01	15.4937	103.134688	0.000547	5.474028	1.854651	-0.000219
 617	6.1292e+01	15.4568	102.969166	0.000416	4.156206	1.408161	-0.000166
 618	6.1392e+01	15.4071	102.759235	0.000527	5.271286	1.785960	-0.000211
 619	6.1491e+01	15.3702	102.593712	0.000416	4.156206	1.408161	-0.000166
 620	6.1590e+01	15.3381	102.403967	0.000476	4.764431	1.614233	-0.000191
 621	6.1690e+01	15.2948	102.214221	0.000476	4.764431	1.614233	-0.000191
 622	6.1789e+01	15.2434	102.008327	0.000517	5.169915	1.751615	-0.000207
 623	6.1889e+01	15.2065	101.842805	0.000416	4.156206	1.408161	-0.000166
 624	6.1989e+01	15.1776	101.640948	0.000507	5.068544	1.717269	-0.000203
 625	6.2088e+01	15.1295	101.463314	0.000446	4.460319	1.511197	-0.000179
 626	6.2188e+01	15.0862	101.277606	0.000466	4.663061	1.579888	-0.000187
 627	6.2287e+01	15.0509	101.055563	0.000558	5.575398	1.888996	-0.000223
 628	6.2386e+01	15.0220	100.877929	0.000446	4.460319	1.511197	-0.000179
 629	6.2486e+01	14.9691	100.696258	0.000456	4.561690	1.545542	-0.000183
 630	6.2586e+01	14.9354	100.466141	0.000578	5.778140	1.957687	-0.000231
 631	6.2685e+01	14.8921	100.300619	0.000416	4.156206	1.408161	-0.000166
 632	6.2785e+01	14.8504	100.110873	0.000476	4.764431	1.614233	-0.000191
 633	6.2884e+01	14.8055	99.929202	0.000456	4.561690	1.545542	-0.000183
 634	6.2983e+01	14.7734	99.727346	0.000507	5.068544	1.717269	-0.000203
 635	6.3083e+01	14.7285	99.513377	0.000537	5.372657	1.820305	-0.000215
 636	6.3182e+01	14.6980	99.339781	0.000436	4.358948	1.476852	-0.000174
 637	6.3282e+01	14.6627	99.117738	0.000558	5.575398	1.888996	-0.000223
 638	6.3382e+01	14.6130	98.923956	0.000487	4.865802	1.648578	-0.000195
 639	6.3481e+01	14.5745	98.738247	0.000466	4.663061	1.579888	-0.000187
 640	6.3581e+01	14.5376	98.540428	0.000497	4.967173	1.682924	-0.000199
 641	6.3680e+01	14.4958	98.378942	0.000405	4.054835	1.373815	-0.000162
 642	6.3779e+01	14.4525	98.148825	0.000578	5.778140	1.957687	-0.000231
 643	6.3879e+01	14.4140	97.938894	0.000527	5.271286	1.785960	-0.000211
 644	6.3978e+01	14.3803	97.733001	0.000517	5.169915	1.751615	-0.000207
 645	6.4078e+01	14.3322	97.535181	0.000497	4.967173	1.682924	-0.000199
 646	6.4177e+01	14.2921	97.329287	0.000517	5.169915	1.751615	-0.000207
 647	6.4277e+01	14.2472	97.163764	0.000416	4.156206	1.408161	-0.000166
 648	6.4376e+01	14.2151	96.949796	0.000537	5.372657	1.820305	-0.000215
 649	6.4476e+01	14.1750	96.780236	0.000426	4.257577	1.442506	-0.000170
 650	6.4576e+01	14.1285	96.542045	0.000598	5.980882	2.026378	-0.000239
 651	6.4675e+01	14.0964	96.348263	0.000487	4.865802	1.648578	-0.000195
 652	6.4775e+01	14.0483	96.154480	0.000487	4.865802	1.648578	-0.000195
 653	6.4874e+01	14.0178	96.005106	0.000375	3.750723	1.270779	-0.000150
 654	6.4974e+01	13.9713	95.758841	0.000618	6.183624	2.095068	-0.000248
 655	6.5073e+01	13.9392	95.508539	0.000628	6.284995	2.129414	-0.000252
 656	6.5172e+01	13.9055	95.347053	0.000405	4.054835	1.373815	-0.000162
 657	6.5272e+01	13.8477	95.141159	0.000517	5.169915	1.751615	-0.000207
 658	6.5371e+01	13.8140	94.931228	0.000527	5.271286	1.785960	-0.000211
 659	6.5471e+01	13.7788	94.713223	0.000547	5.474028	1.854651	-0.000219
 660	6.5570e+01	13.7386	94.495218	0.000547	5.474028	1.854651	-0.000219
 661	6.5670e+01	13.6937	94.337769	0.000395	3.953464	1.339470	-0.000158
 662	6.5769e+01	13.6584	94.135913	0.000507	5.068544	1.717269	-0.000203
 663	6.5869e+01	13.6183	93.913870	0.000558	5.575398	1.888996	-0.000223
 664	6.5969e+01	13.5782	93.724125	0.000476	4.764431	1.614233	-0.000191
 665	6.6068e+01	13.5333	93.502082	0.000558	5.575398	1.888996	-0.000223
 666	6.6168e+01	13.5028	93.300225	0.000507	5.068544	1.717269	-0.000203
 667	6.6267e+01	13.4579	93.078183	0.000558	5.575398	1.888996	-0.000223
 668	6.6367e+01	13.4194	92.876326	0.000507	5.068544	1.717269	-0.000203
 669	6.6466e+01	13.3745	92.694655	0.000456	4.561690	1.545542	-0.000183
 670	6.6566e+01	13.3376	92.452427	0.000608	6.082253	2.060723	-0.000243
 671	6.6665e+01	13.2959	92.270756	0.000456	4.561690	1.545542	-0.000183
 672	6.6764e+01	13.2526	92.076973	0.000487	4.865802	1.648578	-0.000195
 673	6.6864e+01	13.2157	91.830708	0.000618	6.183624	2.095068	-0.000248
 674	6.6963e+01	13.1756	91.636926	0.000487	4.865802	1.648578	-0.000195
 675	6.7063e+01	13.1419	91.439106	0.000497	4.967173	1.682924	-0.000199
 676	6.7162e+01	13.0986	91.237249	0.000507	5.068544	1.717269	-0.000203
 677	6.7262e+01	13.0569	91.031355	0.000517	5.169915	1.751615	-0.000207
 678	6.7362e+01	13.0248	90.801238	0.000578	5.778140	1.957687	-0.000231
 679	6.7461e+01	12.9798	90.599382	0.000507	5.068544	1.717269	-0.000203
 680	6.7561e+01	12.9446	90.401562	0.000497	4.967173	1.682924	-0.000199
 681	6.7660e+01	12.9061	90.203742	0.000497	4.967173	1.682924	-0.000199
 682	6.7760e+01	12.8643	89.981700	0.000558	5.575398	1.888996	-0.000223
 683	6.7859e+01	12.8258	89.767732	0.000537	5.372657	1.820305	-0.000215
 684	6.7959e+01	12.7873	89.553764	0.000537	5.372657	1.820305	-0.000215
 685	6.8058e+01	12.7440	89.355944	0.000497	4.967173	1.682924	-0.000199
 686	6.8157e+01	12.7023	89.150050	0.000517	5.169915	1.751615	-0.000207
 687	6.8257e+01	12.6558	88.923970	0.000568	5.676769	1.923342	-0.000227
 688	6.8356e+01	12.6221	88.714039	0.000527	5.271286	1.785960	-0.000211
 689	6.8456e+01	12.5868	88.520257	0.000487	4.865802	1.648578	-0.000195
 690	6.8555e+01	12.5371	88.298214	0.000558	5.575398	1.888996	-0.000223
 691	6.8655e+01	12.5066	88.051949	0.000618	6.183624	2.095068	-0.000248
 692	6.8754e+01	12.4681	87.837981	0.000537	5.372657	1.820305	-0.000215
 693	6.8854e+01	12.4248	87.672458	0.000416	4.156206	1.408161	-0.000166
 694	6.8954e+01	12.3799	87.430230	0.000608	6.082253	2.060723	-0.000243
 695	6.9053e+01	12.3494	87.220299	0.000527	5.271286	1.785960	-0.000211
 696	6.9153e+01	12.3013	86.978071	0.000608	6.082253	2.060723	-0.000243
 697	6.9252e+01	12.2579	86.804474	0.000436	4.358948	1.476852	-0.000174
 698	6.9352e+01	12.2210	86.550135	0.000639	6.386366	2.163759	-0.000256
 699	6.9451e+01	12.1858	86.328092	0.000558	5.575398	1.888996	-0.000223
 700	6.9550e+01	12.1505	86.126235	0.000507	5.068544	1.717269	-0.000203
 701	6.9650e+01	12.0943	85.904193	0.000558	5.575398	1.888996	-0.000223
 702	6.9749e+01	12.0558	85.682150	0.000558	5.575398	1.888996	-0.000223
 703	6.9849e+01	12.0269	85.452034	0.000578	5.778140	1.957687	-0.000231
 704	6.9948e+01	11.9884	85.242103	0.000527	5.271286	1.785960	-0.000211
 705	7.0048e+01	11.9435	85.003912	0.000598	5.980882	2.026378	-0.000239
 706	7.0147e+01	11.9114	84.814166	0.000476	4.764431	1.614233	-0.000191
 707	7.0247e+01	11.8681	84.588087	0.000568	5.676769	1.923342	-0.000227
 708	7.0347e+01	11.8248	84.386230	0.000507	5.068544	1.717269	-0.000203
 709	7.0446e+01	11.7799	84.148039	0.000598	5.980882	2.026378	-0.000239
 710	7.0546e+01	11.7430	83.950219	0.000497	4.967173	1.682924	-0.000199
 711	7.0645e+01	11.6981	83.736251	0.000537	5.372657	1.820305	-0.000215
 712	7.0745e+01	11.6644	83.522283	0.000537	5.372657	1.820305	-0.000215
 713	7.0844e+01	11.6227	83.312352	0.000527	5.271286	1.785960	-0.000211
 714	7.0944e+01	11.5890	83.053975	0.000649	6.487736	2.198105	-0.000260
 715	7.1043e+01	11.5473	82.852118	0.000507	5.068544	1.717269	-0.000203
 716	7.1142e+01	11.5088	82.654299	0.000497	4.967173	1.682924	-0.000199
 717	7.1242e+01	11.4687	82.420145	0.000588	5.879511	1.992032	-0.000235
 718	7.1341e+01	11.4253	82.181954	0.000598	5.980882	2.026378	-0.000239
 719	7.1441e+01	11.3868	81.963948	0.000547	5.474028	1.854651	-0.000219
 720	7.1540e+01	11.3483	81.754017	0.000527	5.271286	1.785960	-0.000211
 721	7.1640e+01	11.3130	81.556198	0.000497	4.967173	1.682924	-0.000199
 722	7.1740e+01	11.2617	81.326081	0.000578	5.778140	1.957687	-0.000231
 723	7.1839e+01	11.2280	81.136335	0.000476	4.764431	1.614233	-0.000191
 724	7.1939e+01	11.1911	80.910256	0.000568	5.676769	1.923342	-0.000227
 725	7.2038e+01	11.1494	80.647842	0.000659	6.589107	2.232450	-0.000264
 726	7.2138e+01	11.1125	80.454060	0.000487	4.865802	1.648578	-0.000195
 727	7.2237e+01	11.0628	80.219906	0.000588	5.879511	1.992032	-0.000235
 728	7.2337e+01	11.0371	80.005937	0.000537	5.372657	1.820305	-0.000215
 729	7.2436e+01	10.9874	79.767746	0.000598	5.980882	2.026378	-0.000239
 730	7.2535e+01	10.9489	79.582038	0.000466	4.663061	1.579888	-0.000187
 731	7.2635e+01	10.9072	79.315587	0.000669	6.690478	2.266795	-0.000268
 732	7.2734e+01	10.8607	79.121805	0.000487	4.865802	1.648578	-0.000195
 733	7.2834e+01	10.8286	78.879577	0.000608	6.082253	2.060723	-0.000243
 734	7.2933e+01	10.7965	78.685794	0.000487	4.865802	1.648578	-0.000195
 735	7.3033e+01	10.7516	78.435492	0.000628	6.284995	2.129414	-0.000252
 736	7.3132e+01	10.7195	78.213449	0.000558	5.575398	1.888996	-0.000223
 737	7.3232e+01	10.6601	77.987370	0.000568	5.676769	1.923342	-0.000227
 738	7.3332e+01	10.6313	77.757253	0.000578	5.778140	1.957687	-0.000231
 739	7.3431e+01	10.5911	77.527136	0.000578	5.778140	1.957687	-0.000231
 740	7.3531e+01	10.5559	77.349502	0.000446	4.460319	1.511197	-0.000179
 741	7.3630e+01	10.5174	77.095163	0.000639	6.386366	2.163759	-0.000256
 742	7.3730e+01	10.4724	76.893306	0.000507	5.068544	1.717269	-0.000203
 743	7.3829e+01	10.4339	76.679338	0.000537	5.372657	1.820305	-0.000215
 744	7.3928e+01	10.3922	76.453258	0.000568	5.676769	1.923342	-0.000227
 745	7.4028e+01	10.3521	76.194881	0.000649	6.487736	2.198105	-0.000260
 746	7.4127e+01	10.3040	76.013210	0.000456	4.561690	1.545542	-0.000183
 747	7.4227e+01	10.2671	75.762908	0.000628	6.284995	2.129414	-0.000252
 748	7.4326e+01	10.2414	75.544902	0.000547	5.474028	1.854651	-0.000219
 749	7.4426e+01	10.1917	75.326897	0.000547	5.474028	1.854651	-0.000219
 750	7.4525e+01	10.1516	75.028149	0.000750	7.501445	2.541558	-0.000300
 751	7.4625e+01	10.1115	74.878775	0.000375	3.750723	1.270779	-0.000150
 752	7.4725e+01	10.0714	74.652695	0.000568	5.676769	1.923342	-0.000227
 753	7.4824e+01	10.0393	74.406430	0.000618	6.183624	2.095068	-0.000248
 754	7.4924e+01	9.9880	74.172276	0.000588	5.879511	1.992032	-0.000235
 755	7.5023e+01	9.9591	73.962345	0.000527	5.271286	1.785960	-0.000211
 756	7.5123e+01	9.9110	73.740303	0.000558	5.575398	1.888996	-0.000223
 757	7.5222e+01	9.8692	73.510186	0.000578	5.778140	1.957687	-0.000231
 758	7.5322e+01	9.8291	73.259884	0.000628	6.284995	2.129414	-0.000252
 759	7.5421e+01	9.7890	73.021693	0.000598	5.980882	2.026378	-0.000239
 760	7.5520e+01	9.7489	72.803687	0.000547	5.474028	1.854651	-0.000219
 761	7.5620e+01	9.7104	72.613942	0.000476	4.764431	1.614233	-0.000191
 762	7.5719e+01	9.6767	72.347491	0.000669	6.690478	2.266795	-0.000268
 763	7.5819e+01	9.6382	72.117374	0.000578	5.778140	1.957687	-0.000231
 764	7.5918e+01	9.5997	71.891295	0.000568	5.676769	1.923342	-0.000227
 765	7.6018e+01	9.5532	71.693475	0.000497	4.967173	1.682924	-0.000199
 766	7.6118e+01	9.5099	71.443173	0.000628	6.284995	2.129414	-0.000252
 767	7.6217e+01	9.4746	71.200944	0.000608	6.082253	2.060723	-0.000243
 768	7.6317e+01	9.4313	70.978902	0.000558	5.575398	1.888996	-0.000223
 769	7.6416e+01	9.3928	70.732637	0.000618	6.183624	2.095068	-0.000248
 770	7.6516e+01	9.3511	70.542891	0.000476	4.764431	1.614233	-0.000191
 771	7.6615e+01	9.3158	70.288552	0.000639	6.386366	2.163759	-0.000256
 772	7.6715e+01	9.2789	70.090732	0.000497	4.967173	1.682924	-0.000199
 773	7.6814e+01	9.2195	69.808133	0.000710	7.095962	2.404177	-0.000284
 774	7.6913e+01	9.1955	69.626462	0.000456	4.561690	1.545542	-0.000183
 775	7.7013e+01	9.1521	69.355973	0.000679	6.791849	2.301141	-0.000272
 776	7.7112e+01	9.1201	69.146042	0.000527	5.271286	1.785960	-0.000211
 777	7.7212e+01	9.0880	68.924000	0.000558	5.575398	1.888996	-0.000223
 778	7.7311e+01	9.0270	68.665623	0.000649	6.487736	2.198105	-0.000260
 779	7.7411e+01	8.9965	68.431469	0.000588	5.879511	1.992032	-0.000235
 780	7.7510e+01	8.9596	68.229613	0.000507	5.068544	1.717269	-0.000203
 781	7.7610e+01	8.9195	68.011607	0.000547	5.474028	1.854651	-0.000219
 782	7.7710e+01	8.8794	67.729008	0.000710	7.095962	2.404177	-0.000284
 783	7.7809e+01	8.8409	67.547337	0.000456	4.561690	1.545542	-0.000183
 784	7.7909e+01	8.7880	67.268774	0.000699	6.994591	2.369832	-0.000280
 785	7.8008e+01	8.7591	67.042695	0.000568	5.676769	1.923342	-0.000227
 786	7.8108e+01	8.7126	66.796429	0.000618	6.183624	2.095068	-0.000248
 787	7.8207e+01	8.6821	66.594573	0.000507	5.068544	1.717269	-0.000203
 788	7.8306e+01	8.6308	66.336196	0.000649	6.487736	2.198105	-0.000260
 789	7.8406e+01	8.5987	66.106079	0.000578	5.778140	1.957687	-0.000231
 790	7.8505e+01	8.5457	65.900185	0.000517	5.169915	1.751615	-0.000207
 791	7.8605e+01	8.5185	65.629697	0.000679	6.791849	2.301141	-0.000272
 792	7.8704e+01	8.4720	65.395543	0.000588	5.879511	1.992032	-0.000235
 793	7.8804e+01	8.4335	65.137167	0.000649	6.487736	2.198105	-0.000260
 794	7.8903e+01	8.3998	64.955495	0.000456	4.561690	1.545542	-0.000183
 795	7.9003e+01	8.3597	64.676933	0.000699	6.994591	2.369832	-0.000280
 796	7.9103e+01	8.3115	64.410482	0.000669	6.690478	2.266795	-0.000268
 797	7.9202e+01	8.2762	64.204588	0.000517	5.169915	1.751615	-0.000207
 798	7.9302e+01	8.2313	63.946212	0.000649	6.487736	2.198105	-0.000260
 799	7.9401e+01	8.1992	63.736280	0.000527	5.271286	1.785960	-0.000211
 800	7.9501e+01	8.1575	63.490015	0.000618	6.183624	2.095068	-0.000248
 801	7.9600e+01	8.1142	63.235676	0.000639	6.386366	2.163759	-0.000256
 802	7.9700e+01	8.0853	62.969225	0.000669	6.690478	2.266795	-0.000268
 803	7.9799e+01	8.0404	62.759294	0.000527	5.271286	1.785960	-0.000211
 804	7.9898e+01	7.9891	62.508991	0.000628	6.284995	2.129414	-0.000252
 805	7.9998e+01	7.9618	62.262726	0.000618	6.183624	2.095068	-0.000248
 806	8.0097e+01	7.9089	61.996275	0.000669	6.690478	2.266795	-0.000268
 807	8.0197e+01	7.8784	61.766158	0.000578	5.778140	1.957687	-0.000231
 808	8.0296e+01	7.8287	61.523930	0.000608	6.082253	2.060723	-0.000243
 809	8.0396e+01	7.7934	61.293813	0.000578	5.778140	1.957687	-0.000231
 810	8.0496e+01	7.7597	61.007177	0.000720	7.197333	2.438522	-0.000288
 811	8.0595e+01	7.7260	60.809357	0.000497	4.967173	1.682924	-0.000199
 812	8.0695e+01	7.6795	60.530795	0.000699	6.994591	2.369832	-0.000280
 813	8.0794e+01	7.6345	60.308752	0.000558	5.575398	1.888996	-0.000223
 814	8.0894e+01	7.6073	60.014041	0.000740	7.400074	2.507213	-0.000296
 815	8.0993e+01	7.5656	59.771813	0.000608	6.082253	2.060723	-0.000243
 816	8.1093e+01	7.5287	59.517474	0.000639	6.386366	2.163759	-0.000256
 817	8.1192e+01	7.4821	59.291394	0.000568	5.676769	1.923342	-0.000227
 818	8.1291e+01	7.4356	59.057240	0.000588	5.879511	1.992032	-0.000235
 819	8.1391e+01	7.4003	58.778678	0.000699	6.994591	2.369832	-0.000280
 820	8.1490e+01	7.3570	58.512227	0.000669	6.690478	2.266795	-0.000268
 821	8.1590e+01	7.3233	58.366890	0.000365	3.649352	1.236434	-0.000146
 822	8.1689e+01	7.2784	58.019696	0.000872	8.717896	2.953703	-0.000349
 823	8.1789e+01	7.2319	57.801691	0.000547	5.474028	1.854651	-0.000219
 824	8.1888e+01	7.2078	57.531203	0.000679	6.791849	2.301141	-0.000272
 825	8.1988e+01	7.1677	57.280900	0.000628	6.284995	2.129414	-0.000252
 826	8.2088e+01	7.1180	57.042709	0.000598	5.980882	2.026378	-0.000239
 827	8.2187e+01	7.0827	56.804518	0.000598	5.980882	2.026378	-0.000239
 828	8.2287e+01	7.0362	56.521919	0.000710	7.095962	2.404177	-0.000284
 829	8.2386e+01	7.0057	56.283728	0.000598	5.980882	2.026378	-0.000239
 830	8.2486e+01	6.9672	56.025351	0.000649	6.487736	2.198105	-0.000260
 831	8.2585e+01	6.9287	55.775049	0.000628	6.284995	2.129414	-0.000252
 832	8.2684e+01	6.8902	55.520709	0.000639	6.386366	2.163759	-0.000256
 833	8.2784e+01	6.8437	55.266370	0.000639	6.386366	2.163759	-0.000256
 834	8.2883e+01	6.8084	54.995882	0.000679	6.791849	2.301141	-0.000272
 835	8.2983e+01	6.7667	54.721356	0.000689	6.893220	2.335486	-0.000276
 836	8.3082e+01	6.7249	54.487202	0.000588	5.879511	1.992032	-0.000235
 837	8.3182e+01	6.6848	54.253049	0.000588	5.879511	1.992032	-0.000235
 838	8.3281e+01	6.6447	53.994672	0.000649	6.487736	2.198105	-0.000260
 839	8.3381e+01	6.6046	53.736295	0.000649	6.487736	2.198105	-0.000260
 840	8.3481e+01	6.5645	53.494067	0.000608	6.082253	2.060723	-0.000243
 841	8.3580e+01	6.5260	53.203393	0.000730	7.298703	2.472868	-0.000292
 842	8.3680e+01	6.4811	52.969239	0.000588	5.879511	1.992032	-0.000235
 843	8.3779e+01	6.4506	52.686640	0.000710	7.095962	2.404177	-0.000284
 844	8.3879e+01	6.4041	52.452486	0.000588	5.879511	1.992032	-0.000235
 845	8.3978e+01	6.3704	52.230444	0.000558	5.575398	1.888996	-0.000223
 846	8.4078e+01	6.3191	51.927658	0.000760	7.602816	2.575904	-0.000304
 847	8.4177e+01	6.2918	51.673319	0.000639	6.386366	2.163759	-0.000256
 848	8.4276e+01	6.2485	51.427054	0.000618	6.183624	2.095068	-0.000248
 849	8.4376e+01	6.2116	51.176751	0.000628	6.284995	2.129414	-0.000252
 850	8.4475e+01	6.1699	50.910300	0.000669	6.690478	2.266795	-0.000268
 851	8.4575e+01	6.1282	50.643849	0.000669	6.690478	2.266795	-0.000268
 852	8.4674e+01	6.0929	50.369324	0.000689	6.893220	2.335486	-0.000276
 853	8.4774e+01	6.0560	50.110947	0.000649	6.487736	2.198105	-0.000260
 854	8.4874e+01	6.0062	49.848534	0.000659	6.589107	2.232450	-0.000264
 855	8.4973e+01	5.9661	49.586120	0.000659	6.589107	2.232450	-0.000264
 856	8.5073e+01	5.9276	49.303520	0.000710	7.095962	2.404177	-0.000284
 857	8.5172e+01	5.8811	49.020921	0.000710	7.095962	2.404177	-0.000284
 858	8.5272e+01	5.8506	48.774655	0.000618	6.183624	2.095068	-0.000248
 859	8.5371e+01	5.8137	48.556650	0.000547	5.474028	1.854651	-0.000219
 860	8.5471e+01	5.7704	48.245791	0.000781	7.805558	2.644595	-0.000312
 861	8.5570e+01	5.7303	47.979340	0.000669	6.690478	2.266795	-0.000268
 862	8.5669e+01	5.6918	47.745186	0.000588	5.879511	1.992032	-0.000235
 863	8.5769e+01	5.6373	47.466623	0.000699	6.994591	2.369832	-0.000280
 864	8.5868e+01	5.6036	47.179987	0.000720	7.197333	2.438522	-0.000288
 865	8.5968e+01	5.5635	46.933722	0.000618	6.183624	2.095068	-0.000248
 866	8.6067e+01	5.5298	46.659196	0.000689	6.893220	2.335486	-0.000276
 867	8.6167e+01	5.4945	46.372560	0.000720	7.197333	2.438522	-0.000288
 868	8.6266e+01	5.4512	46.134369	0.000598	5.980882	2.026378	-0.000239
 869	8.6366e+01	5.4031	45.815435	0.000801	8.008300	2.713285	-0.000321
 870	8.6466e+01	5.3678	45.641838	0.000436	4.358948	1.476852	-0.000174
 871	8.6565e+01	5.3389	45.290607	0.000882	8.819267	2.988048	-0.000353
 872	8.6665e+01	5.2956	45.016082	0.000689	6.893220	2.335486	-0.000276
 873	8.6764e+01	5.2555	44.798077	0.000547	5.474028	1.854651	-0.000219
 874	8.6864e+01	5.2122	44.511440	0.000720	7.197333	2.438522	-0.000288
 875	8.6963e+01	5.1720	44.236915	0.000689	6.893220	2.335486	-0.000276
 876	8.7063e+01	5.1255	43.962390	0.000689	6.893220	2.335486	-0.000276
 877	8.7162e+01	5.0886	43.687864	0.000689	6.893220	2.335486	-0.000276
 878	8.7261e+01	5.0565	43.425451	0.000659	6.589107	2.232450	-0.000264
 879	8.7361e+01	5.0132	43.154962	0.000679	6.791849	2.301141	-0.000272
 880	8.7460e+01	4.9699	42.868326	0.000720	7.197333	2.438522	-0.000288
 881	8.7560e+01	4.9282	42.622061	0.000618	6.183624	2.095068	-0.000248
 882	8.7659e+01	4.9041	42.363684	0.000649	6.487736	2.198105	-0.000260
 883	8.7759e+01	4.8560	42.024564	0.000852	8.515154	2.885012	-0.000341
 884	8.7859e+01	4.8095	41.794448	0.000578	5.778140	1.957687	-0.000231
 885	8.7958e+01	4.7726	41.519922	0.000689	6.893220	2.335486	-0.000276
 886	8.8058e+01	4.7389	41.273657	0.000618	6.183624	2.095068	-0.000248
 887	8.8157e+01	4.6956	41.015281	0.000649	6.487736	2.198105	-0.000260
 888	8.8257e+01	4.6587	40.708458	0.000770	7.704187	2.610249	-0.000308
 889	8.8356e+01	4.6122	40.442007	0.000669	6.690478	2.266795	-0.000268
 890	8.8456e+01	4.5817	40.183631	0.000649	6.487736	2.198105	-0.000260
 891	8.8555e+01	4.5368	39.925254	0.000649	6.487736	2.198105	-0.000260
 892	8.8654e+01	4.4983	39.654766	0.000679	6.791849	2.301141	-0.000272
 893	8.8754e+01	4.4550	39.360055	0.000740	7.400074	2.507213	-0.000296
 894	8.8853e+01	4.4132	39.109752	0.000628	6.284995	2.129414	-0.000252
 895	8.8953e+01	4.3763	38.831190	0.000699	6.994591	2.369832	-0.000280
 896	8.9052e+01	4.3282	38.592999	0.000598	5.980882	2.026378	-0.000239
 897	8.9152e+01	4.2865	38.286177	0.000770	7.704187	2.610249	-0.000308
 898	8.9251e+01	4.2480	37.995503	0.000730	7.298703	2.472868	-0.000292
 899	8.9351e+01	4.2207	37.729052	0.000669	6.690478	2.266795	-0.000268
 900	8.9451e+01	4.1710	37.466638	0.000659	6.589107	2.232450	-0.000264
 901	8.9550e+01	4.1325	37.208262	0.000649	6.487736	2.198105	-0.000260
 902	8.9650e+01	4.0924	36.921625	0.000720	7.197333	2.438522	-0.000288
 903	8.9749e+01	4.0475	36.651137	0.000679	6.791849	2.301141	-0.000272
 904	8.9849e+01	4.0138	36.364500	0.000720	7.197333	2.438522	-0.000288
 905	8.9948e+01	3.9785	36.130346	0.000588	5.879511	1.992032	-0.000235
 906	9.0047e+01	3.9304	35.847747	0.000710	7.095962	2.404177	-0.000284
 907	9.0147e+01	3.8983	35.585333	0.000659	6.589107	2.232450	-0.000264
 908	9.0246e+01	3.8534	35.310808	0.000689	6.893220	2.335486	-0.000276
 909	9.0346e+01	3.8117	34.999948	0.000781	7.805558	2.644595	-0.000312
 910	9.0445e+01	3.7619	34.697163	0.000760	7.602816	2.575904	-0.000304
 911	9.0545e+01	3.7298	34.495306	0.000507	5.068544	1.717269	-0.000203
 912	9.0644e+01	3.6994	34.180410	0.000791	7.906929	2.678940	-0.000316
 913	9.0744e+01	3.6480	33.938182	0.000608	6.082253	2.060723	-0.000243
 914	9.0844e+01	3.6208	33.651545	0.000720	7.197333	2.438522	-0.000288
 915	9.0943e+01	3.5774	33.381057	0.000679	6.791849	2.301141	-0.000272
 916	9.1043e+01	3.5357	33.078272	0.000760	7.602816	2.575904	-0.000304
 917	9.1142e+01	3.5020	32.827969	0.000628	6.284995	2.129414	-0.000252
 918	9.1242e+01	3.4523	32.533258	0.000740	7.400074	2.507213	-0.000296
 919	9.1341e+01	3.4154	32.258733	0.000689	6.893220	2.335486	-0.000276
 920	9.1441e+01	3.3817	31.959985	0.000750	7.501445	2.541558	-0.000300
 921	9.1540e+01	3.3320	31.689497	0.000679	6.791849	2.301141	-0.000272
 922	9.1639e+01	3.2951	31.443232	0.000618	6.183624	2.095068	-0.000248
 923	9.1739e+01	3.2598	31.128335	0.000791	7.906929	2.678940	-0.000316
 924	9.1838e+01	3.2181	30.910330	0.000547	5.474028	1.854651	-0.000219
 925	9.1938e+01	3.1812	30.639842	0.000679	6.791849	2.301141	-0.000272
 926	9.2037e+01	3.1395	30.324945	0.000791	7.906929	2.678940	-0.000316
 927	9.2137e+01	3.0898	30.078680	0.000618	6.183624	2.095068	-0.000248
 928	9.2237e+01	3.0737	29.800117	0.000699	6.994591	2.369832	-0.000280
 929	9.2336e+01	3.0111	29.452924	0.000872	8.717896	2.953703	-0.000349
 930	9.2436e+01	2.9807	29.218770	0.000588	5.879511	1.992032	-0.000235
 931	9.2535e+01	2.9438	28.936170	0.000710	7.095962	2.404177	-0.000284
 932	9.2635e+01	2.9021	28.653571	0.000710	7.095962	2.404177	-0.000284
 933	9.2734e+01	2.8652	28.362897	0.000730	7.298703	2.472868	-0.000292
 934	9.2834e+01	2.8218	28.108558	0.000639	6.386366	2.163759	-0.000256
 935	9.2933e+01	2.7737	27.793661	0.000791	7.906929	2.678940	-0.000316
 936	9.3032e+01	2.7352	27.519136	0.000689	6.893220	2.335486	-0.000276
 937	9.3132e+01	2.6887	27.301130	0.000547	5.474028	1.854651	-0.000219
 938	9.3231e+01	2.6614	26.974122	0.000821	8.211041	2.781976	-0.000329
 939	9.3331e+01	2.6261	26.651152	0.000811	8.109670	2.747631	-0.000325
 940	9.3430e+01	2.5748	26.396812	0.000639	6.386366	2.163759	-0.000256
 941	9.3530e+01	2.5395	26.162658	0.000588	5.879511	1.992032	-0.000235
 942	9.3629e+01	2.5074	25.855836	0.000770	7.704187	2.610249	-0.000308
 943	9.3729e+01	2.4625	25.553051	0.000760	7.602816	2.575904	-0.000304
 944	9.3829e+01	2.4224	25.302748	0.000628	6.284995	2.129414	-0.000252
 945	9.3928e+01	2.3743	24.991889	0.000781	7.805558	2.644595	-0.000312
 946	9.4028e+01	2.3422	24.781958	0.000527	5.271286	1.785960	-0.000211
 947	9.4127e+01	2.3053	24.418616	0.000912	9.123379	3.091085	-0.000365
 948	9.4227e+01	2.2668	24.168313	0.000628	6.284995	2.129414	-0.000252
 949	9.4326e+01	2.2203	23.897825	0.000679	6.791849	2.301141	-0.000272
 950	9.4425e+01	2.1850	23.582928	0.000791	7.906929	2.678940	-0.000316
 951	9.4525e+01	2.1449	23.320515	0.000659	6.589107	2.232450	-0.000264
 952	9.4624e+01	2.1031	23.045989	0.000689	6.893220	2.335486	-0.000276
 953	9.4724e+01	2.0663	22.739167	0.000770	7.704187	2.610249	-0.000308
 954	9.4823e+01	2.0229	22.464642	0.000689	6.893220	2.335486	-0.000276
 955	9.4923e+01	1.9796	22.173968	0.000730	7.298703	2.472868	-0.000292
 956	9.5022e+01	1.9459	21.907517	0.000669	6.690478	2.266795	-0.000268
 957	9.5122e+01	1.9042	21.645103	0.000659	6.589107	2.232450	-0.000264
 958	9.5222e+01	1.8657	21.338281	0.000770	7.704187	2.610249	-0.000308
 959	9.5321e+01	1.8192	21.023384	0.000791	7.906929	2.678940	-0.000316
 960	9.5421e+01	1.7807	20.756933	0.000669	6.690478	2.266795	-0.000268
 961	9.5520e+01	1.7438	20.498557	0.000649	6.487736	2.198105	-0.000260
 962	9.5620e+01	1.7101	20.171549	0.000821	8.211041	2.781976	-0.000329
 963	9.5719e+01	1.6700	19.872801	0.000750	7.501445	2.541558	-0.000300
 964	9.5819e+01	1.6203	19.598275	0.000689	6.893220	2.335486	-0.000276
 965	9.5918e+01	1.5818	19.323750	0.000689	6.893220	2.335486	-0.000276
 966	9.6017e+01	1.5385	19.033076	0.000730	7.298703	2.472868	-0.000292
 967	9.6117e+01	1.5064	18.738366	0.000740	7.400074	2.507213	-0.000296
 968	9.6216e+01	1.4631	18.443655	0.000740	7.400074	2.507213	-0.000296
 969	9.6316e+01	1.4262	18.165092	0.000699	6.994591	2.369832	-0.000280
 970	9.6415e+01	1.3828	17.886530	0.000699	6.994591	2.369832	-0.000280
 971	9.6515e+01	1.3443	17.583745	0.000760	7.602816	2.575904	-0.000304
 972	9.6615e+01	1.3026	17.276922	0.000770	7.704187	2.610249	-0.000308
 973	9.6714e+01	1.2657	17.002397	0.000689	6.893220	2.335486	-0.000276
 974	9.6814e+01	1.2256	16.683463	0.000801	8.008300	2.713285	-0.000321
 975	9.6913e+01	1.1855	16.384715	0.000750	7.501445	2.541558	-0.000300
 976	9.7013e+01	1.1454	16.098079	0.000720	7.197333	2.438522	-0.000288
 977	9.7112e+01	1.1069	15.827591	0.000679	6.791849	2.301141	-0.000272
 978	9.7212e+01	1.0700	15.520768	0.000770	7.704187	2.610249	-0.000308
 979	9.7311e+01	1.0315	15.238169	0.000710	7.095962	2.404177	-0.000284
 980	9.7410e+01	0.9818	14.931347	0.000770	7.704187	2.610249	-0.000308
 981	9.7510e+01	0.9465	14.640673	0.000730	7.298703	2.472868	-0.000292
 982	9.7609e+01	0.9128	14.354036	0.000720	7.197333	2.438522	-0.000288
 983	9.7709e+01	0.8615	14.063362	0.000730	7.298703	2.472868	-0.000292
 984	9.7808e+01	0.8278	13.760577	0.000760	7.602816	2.575904	-0.000304
 985	9.7908e+01	0.7781	13.453755	0.000770	7.704187	2.610249	-0.000308
 986	9.8007e+01	0.7412	13.130784	0.000811	8.109670	2.747631	-0.000325
 987	9.8107e+01	0.7123	12.819925	0.000781	7.805558	2.644595	-0.000312
 988	9.8207e+01	0.6674	12.569622	0.000628	6.284995	2.129414	-0.000252
 989	9.8306e+01	0.6273	12.258763	0.000781	7.805558	2.644595	-0.000312
 990	9.8406e+01	0.5871	11.943866	0.000791	7.906929	2.678940	-0.000316
 991	9.8505e+01	0.5454	11.661267	0.000710	7.095962	2.404177	-0.000284
 992	9.8605e+01	0.5118	11.342333	0.000801	8.008300	2.713285	-0.000321
 993	9.8704e+01	0.4684	11.059733	0.000710	7.095962	2.404177	-0.000284
 994	9.8803e+01	0.4267	10.773097	0.000720	7.197333	2.438522	-0.000288
 995	9.8903e+01	0.3882	10.450126	0.000811	8.109670	2.747631	-0.000325
 996	9.9002e+01	0.3433	10.135229	0.000791	7.906929	2.678940	-0.000316
 997	9.9102e+01	0.3144	9.848593	0.000720	7.197333	2.438522	-0.000288
 998	9.9201e+01	0.2679	9.582142	0.000669	6.690478	2.266795	-0.000268
 999	9.9301e+01	0.2326	9.279356	0.000760	7.602816	2.575904	-0.000304
1000	9.9400e+01	0.1813	8.940237	0.000852	8.515154	2.885012	-0.000341
1001	9.9500e+01	0.1508	8.633415	0.000770	7.704187	2.610249	-0.000308
1002	9.9600e+01	0.1123	8.354852	0.000699	6.994591	2.369832	-0.000280
1003	9.9699e+01	0.0706	8.056104	0.000750	7.501445	2.541558	-0.000300
1004	9.9799e+01	0.0337	7.741208	0.000791	7.906929	2.678940	-0.000316
1005	9.9898e+01	-0.0032	7.511091	0.000578	5.778140	1.957687	-0.000231
1006	9.9998e+01	-0.0321	7.188120	0.000811	8.109670	2.747631	-0.000325
1007	1.0010e+02	-0.0834	6.881298	0.000770	7.704187	2.610249	-0.000308
1008	1.0020e+02	-0.1171	6.578513	0.000760	7.602816	2.575904	-0.000304
1009	1.0030e+02	-0.1620	6.279765	0.000750	7.501445	2.541558	-0.000300
1010	1.0040e+02	-0.2069	5.997165	0.000710	7.095962	2.404177	-0.000284
1011	1.0050e+02	-0.2438	5.694380	0.000760	7.602816	2.575904	-0.000304
1012	1.0059e+02	-0.2888	5.331038	0.000912	9.123379	3.091085	-0.000365
1013	1.0069e+02	-0.3273	5.076698	0.000639	6.386366	2.163759	-0.000256
1014	1.0079e+02	-0.3658	4.745653	0.000831	8.312412	2.816322	-0.000333
1015	1.0089e+02	-0.3995	4.463054	0.000710	7.095962	2.404177	-0.000284
1016	1.0099e+02	-0.4460	4.188528	0.000689	6.893220	2.335486	-0.000276
1017	1.0109e+02	-0.4797	3.837298	0.000882	8.819267	2.988048	-0.000353
1018	1.0119e+02	-0.5214	3.538549	0.000750	7.501445	2.541558	-0.000300
1019	1.0129e+02	-0.5631	3.231727	0.000770	7.704187	2.610249	-0.000308
1020	1.0139e+02	-0.5984	2.908756	0.000811	8.109670	2.747631	-0.000325
1021	1.0149e+02	-0.6449	2.654417	0.000639	6.386366	2.163759	-0.000256
1022	1.0159e+02	-0.6738	2.287037	0.000922	9.224750	3.125430	-0.000369
1023	1.0169e+02	-0.7155	2.028661	0.000649	6.487736	2.198105	-0.000260
1024	1.0179e+02	-0.7620	1.733950	0.000740	7.400074	2.507213	-0.000296
1025	1.0189e+02	-0.8021	1.402905	0.000831	8.312412	2.816322	-0.000333
1026	1.0199e+02	-0.8390	1.067822	0.000841	8.413783	2.850667	-0.000337
1027	1.0209e+02	-0.8791	0.785223	0.000710	7.095962	2.404177	-0.000284
1028	1.0219e+02	-0.9192	0.474363	0.000781	7.805558	2.644595	-0.000312
1029	1.0229e+02	-0.9609	0.163504	0.000781	7.805558	2.644595	-0.000312
1030	1.0239e+02	-1.0042	-0.115058	0.000699	6.994591	2.369832	-0.000280
1031	1.0248e+02	-1.0444	-0.450141	0.000841	8.413783	2.850667	-0.000337
1032	1.0258e+02	-1.0829	-0.773111	0.000811	8.109670	2.747631	-0.000325
1033	1.0268e+02	-1.1149	-1.075897	0.000760	7.602816	2.575904	-0.000304
1034	1.0278e+02	-1.1486	-1.362533	0.000720	7.197333	2.438522	-0.000288
1035	1.0288e+02	-1.2000	-1.717801	0.000892	8.920638	3.022394	-0.000357
1036	1.0298e+02	-1.2465	-2.000401	0.000710	7.095962	2.404177	-0.000284
1037	1.0308e+02	-1.2738	-2.274926	0.000689	6.893220	2.335486	-0.000276
1038	1.0318e+02	-1.3171	-2.610008	0.000841	8.413783	2.850667	-0.000337
1039	1.0328e+02	-1.3636	-2.920868	0.000781	7.805558	2.644595	-0.000312
1040	1.0338e+02	-1.4005	-3.223653	0.000760	7.602816	2.575904	-0.000304
1041	1.0348e+02	-1.4294	-3.546624	0.000811	8.109670	2.747631	-0.000325
1042	1.0358e+02	-1.4759	-3.817112	0.000679	6.791849	2.301141	-0.000272
1043	1.0368e+02	-1.5160	-4.132008	0.000791	7.906929	2.678940	-0.000316
1044	1.0378e+02	-1.5609	-4.467091	0.000841	8.413783	2.850667	-0.000337
1045	1.0388e+02	-1.6010	-4.737579	0.000679	6.791849	2.301141	-0.000272
1046	1.0398e+02	-1.6363	-5.092847	0.000892	8.920638	3.022394	-0.000357
1047	1.0408e+02	-1.6796	-5.379483	0.000720	7.197333	2.438522	-0.000288
1048	1.0418e+02	-1.7117	-5.662083	0.000710	7.095962	2.404177	-0.000284
1049	1.0428e+02	-1.7679	-5.976979	0.000791	7.906929	2.678940	-0.000316
1050	1.0438e+02	-1.7951	-6.263616	0.000720	7.197333	2.438522	-0.000288
1051	1.0447e+02	-1.8304	-6.590624	0.000821	8.211041	2.781976	-0.000329
1052	1.0457e+02	-1.8737	-6.873224	0.000710	7.095962	2.404177	-0.000284
1053	1.0467e+02	-1.9171	-7.163897	0.000730	7.298703	2.472868	-0.000292
1054	1.0477e+02	-1.9459	-7.486868	0.000811	8.109670	2.747631	-0.000325
1055	1.0487e+02	-1.9973	-7.785616	0.000750	7.501445	2.541558	-0.000300
1056	1.0497e+02	-2.0358	-8.100513	0.000791	7.906929	2.678940	-0.000316
1057	1.0507e+02	-2.0759	-8.439632	0.000852	8.515154	2.885012	-0.000341
1058	1.0517e+02	-2.1064	-8.702046	0.000659	6.589107	2.232450	-0.000264
1059	1.0527e+02	-2.1513	-8.992720	0.000730	7.298703	2.472868	-0.000292
1060	1.0537e+02	-2.1978	-9.311654	0.000801	8.008300	2.713285	-0.000321
1061	1.0547e+02	-2.2395	-9.610402	0.000750	7.501445	2.541558	-0.000300
1062	1.0557e+02	-2.2748	-9.905113	0.000740	7.400074	2.507213	-0.000296
1063	1.0567e+02	-2.3085	-10.183675	0.000699	6.994591	2.369832	-0.000280
1064	1.0577e+02	-2.3518	-10.494534	0.000781	7.805558	2.644595	-0.000312
1065	1.0587e+02	-2.3983	-10.785208	0.000730	7.298703	2.472868	-0.000292
1066	1.0597e+02	-2.4320	-11.100105	0.000791	7.906929	2.678940	-0.000316
1067	1.0607e+02	-2.4882	-11.394816	0.000740	7.400074	2.507213	-0.000296
1068	1.0617e+02	-2.5026	-11.693564	0.000750	7.501445	2.541558	-0.000300
1069	1.0627e+02	-2.5443	-11.972126	0.000699	6.994591	2.369832	-0.000280
1070	1.0637e+02	-2.5844	-12.250688	0.000699	6.994591	2.369832	-0.000280
1071	1.0647e+02	-2.6261	-12.589808	0.000852	8.515154	2.885012	-0.000341
1072	1.0656e+02	-2.6727	-12.856259	0.000669	6.690478	2.266795	-0.000268
1073	1.0666e+02	-2.7047	-13.155007	0.000750	7.501445	2.541558	-0.000300
1074	1.0676e+02	-2.7513	-13.457792	0.000760	7.602816	2.575904	-0.000304
1075	1.0686e+02	-2.7914	-13.768651	0.000781	7.805558	2.644595	-0.000312
1076	1.0696e+02	-2.8347	-14.075474	0.000770	7.704187	2.610249	-0.000308
1077	1.0706e+02	-2.8652	-14.358073	0.000710	7.095962	2.404177	-0.000284
1078	1.0716e+02	-2.9213	-14.656821	0.000750	7.501445	2.541558	-0.000300
1079	1.0726e+02	-2.9518	-14.959606	0.000760	7.602816	2.575904	-0.000304
1080	1.0736e+02	-2.9951	-15.205872	0.000618	6.183624	2.095068	-0.000248
1081	1.0746e+02	-3.0240	-15.544991	0.000852	8.515154	2.885012	-0.000341
1082	1.0756e+02	-3.0689	-15.795294	0.000628	6.284995	2.129414	-0.000252
1083	1.0766e+02	-3.1202	-16.130376	0.000841	8.413783	2.850667	-0.000337
1084	1.0776e+02	-3.1555	-16.417012	0.000720	7.197333	2.438522	-0.000288
1085	1.0786e+02	-3.1940	-16.715761	0.000750	7.501445	2.541558	-0.000300
1086	1.0796e+02	-3.2309	-17.002397	0.000720	7.197333	2.438522	-0.000288
1087	1.0806e+02	-3.2694	-17.289034	0.000720	7.197333	2.438522	-0.000288
1088	1.0816e+02	-3.3192	-17.579708	0.000730	7.298703	2.472868	-0.000292
1089	1.0826e+02	-3.3464	-17.842121	0.000659	6.589107	2.232450	-0.000264
1090	1.0836e+02	-3.3930	-18.120684	0.000699	6.994591	2.369832	-0.000280
1091	1.0845e+02	-3.4298	-18.415395	0.000740	7.400074	2.507213	-0.000296
1092	1.0855e+02	-3.4716	-18.702031	0.000720	7.197333	2.438522	-0.000288
1093	1.0865e+02	-3.5101	-19.004816	0.000760	7.602816	2.575904	-0.000304
1094	1.0875e+02	-3.5470	-19.299527	0.000740	7.400074	2.507213	-0.000296
1095	1.0885e+02	-3.5871	-19.541756	0.000608	6.082253	2.060723	-0.000243
1096	1.0895e+02	-3.6304	-19.848578	0.000770	7.704187	2.610249	-0.000308
1097	1.0905e+02	-3.6705	-20.199809	0.000882	8.819267	2.988048	-0.000353
1098	1.0915e+02	-3.7058	-20.425888	0.000568	5.676769	1.923342	-0.000227
1099	1.0925e+02	-3.7411	-20.760971	0.000841	8.413783	2.850667	-0.000337
1100	1.0935e+02	-3.7828	-21.027421	0.000669	6.690478	2.266795	-0.000268
1101	1.0945e+02	-3.8245	-21.305984	0.000699	6.994591	2.369832	-0.000280
1102	1.0955e+02	-3.8678	-21.600695	0.000740	7.400074	2.507213	-0.000296
1103	1.0965e+02	-3.9111	-21.871183	0.000679	6.791849	2.301141	-0.000272
1104	1.0975e+02	-3.9496	-22.178005	0.000770	7.704187	2.610249	-0.000308
1105	1.0985e+02	-3.9817	-22.416196	0.000598	5.980882	2.026378	-0.000239
1106	1.0995e+02	-4.0250	-22.678610	0.000659	6.589107	2.232450	-0.000264
1107	1.1005e+02	-4.0715	-23.029841	0.000882	8.819267	2.988048	-0.000353
1108	1.1015e+02	-4.1068	-23.276106	0.000618	6.183624	2.095068	-0.000248
1109	1.1025e+02	-4.1437	-23.591003	0.000791	7.906929	2.678940	-0.000316
1110	1.1035e+02	-4.1838	-23.869565	0.000699	6.994591	2.369832	-0.000280
1111	1.1044e+02	-4.2207	-24.127942	0.000649	6.487736	2.198105	-0.000260
1112	1.1054e+02	-4.2737	-24.386318	0.000649	6.487736	2.198105	-0.000260
1113	1.1064e+02	-4.2961	-24.689104	0.000760	7.602816	2.575904	-0.000304
1114	1.1074e+02	-4.3443	-24.995926	0.000770	7.704187	2.610249	-0.000308
1115	1.1084e+02	-4.3780	-25.213931	0.000547	5.474028	1.854651	-0.000219
1116	1.1094e+02	-4.4213	-25.484419	0.000679	6.791849	2.301141	-0.000272
1117	1.1104e+02	-4.4726	-25.779130	0.000740	7.400074	2.507213	-0.000296
1118	1.1114e+02	-4.4983	-26.057693	0.000699	6.994591	2.369832	-0.000280
1119	1.1124e+02	-4.5464	-26.324144	0.000669	6.690478	2.266795	-0.000268
1120	1.1134e+02	-4.5897	-26.635003	0.000781	7.805558	2.644595	-0.000312
1121	1.1144e+02	-4.6314	-26.921640	0.000720	7.197333	2.438522	-0.000288
1122	1.1154e+02	-4.6651	-27.171942	0.000628	6.284995	2.129414	-0.000252
1123	1.1164e+02	-4.6908	-27.414170	0.000608	6.082253	2.060723	-0.000243
1124	1.1174e+02	-4.7437	-27.700807	0.000720	7.197333	2.438522	-0.000288
1125	1.1184e+02	-4.7758	-27.971295	0.000679	6.791849	2.301141	-0.000272
1126	1.1194e+02	-4.8207	-28.225635	0.000639	6.386366	2.163759	-0.000256
1127	1.1204e+02	-4.8624	-28.492085	0.000669	6.690478	2.266795	-0.000268
1128	1.1214e+02	-4.9154	-28.827168	0.000841	8.413783	2.850667	-0.000337
1129	1.1224e+02	-4.9442	-29.073433	0.000618	6.183624	2.095068	-0.000248
1130	1.1234e+02	-4.9844	-29.339884	0.000669	6.690478	2.266795	-0.000268
1131	1.1244e+02	-5.0148	-29.602298	0.000659	6.589107	2.232450	-0.000264
1132	1.1253e+02	-5.0598	-29.897009	0.000740	7.400074	2.507213	-0.000296
1133	1.1263e+02	-5.1031	-30.139237	0.000608	6.082253	2.060723	-0.000243
1134	1.1273e+02	-5.1416	-30.458171	0.000801	8.008300	2.713285	-0.000321
1135	1.1283e+02	-5.1881	-30.752881	0.000740	7.400074	2.507213	-0.000296
1136	1.1293e+02	-5.2186	-30.995110	0.000608	6.082253	2.060723	-0.000243
1137	1.1303e+02	-5.2715	-31.257523	0.000659	6.589107	2.232450	-0.000264
1138	1.1313e+02	-5.3036	-31.560309	0.000760	7.602816	2.575904	-0.000304
1139	1.1323e+02	-5.3485	-31.810611	0.000628	6.284995	2.129414	-0.000252
1140	1.1333e+02	-5.3854	-32.089173	0.000699	6.994591	2.369832	-0.000280
1141	1.1343e+02	-5.4287	-32.371773	0.000710	7.095962	2.404177	-0.000284
1142	1.1353e+02	-5.4720	-32.581704	0.000527	5.271286	1.785960	-0.000211
1143	1.1363e+02	-5.5121	-32.936972	0.000892	8.920638	3.022394	-0.000357
1144	1.1373e+02	-5.5442	-33.171126	0.000588	5.879511	1.992032	-0.000235
1145	1.1383e+02	-5.5699	-33.417391	0.000618	6.183624	2.095068	-0.000248
1146	1.1393e+02	-5.6212	-33.695953	0.000699	6.994591	2.369832	-0.000280
1147	1.1403e+02	-5.6613	-33.966442	0.000679	6.791849	2.301141	-0.000272
1148	1.1413e+02	-5.7047	-34.265190	0.000750	7.501445	2.541558	-0.000300
1149	1.1423e+02	-5.7399	-34.515492	0.000628	6.284995	2.129414	-0.000252
1150	1.1433e+02	-5.7801	-34.769832	0.000639	6.386366	2.163759	-0.000256
1151	1.1442e+02	-5.8186	-35.032245	0.000659	6.589107	2.232450	-0.000264
1152	1.1452e+02	-5.8603	-35.306771	0.000689	6.893220	2.335486	-0.000276
1153	1.1462e+02	-5.8940	-35.597444	0.000730	7.298703	2.472868	-0.000292
1154	1.1472e+02	-5.9405	-35.859858	0.000659	6.589107	2.232450	-0.000264
1155	1.1482e+02	-5.9822	-36.170718	0.000781	7.805558	2.644595	-0.000312
1156	1.1492e+02	-6.0207	-36.376612	0.000517	5.169915	1.751615	-0.000207
1157	1.1502e+02	-6.0624	-36.679397	0.000760	7.602816	2.575904	-0.000304
1158	1.1512e+02	-6.1041	-36.966033	0.000720	7.197333	2.438522	-0.000288
1159	1.1522e+02	-6.1298	-37.188076	0.000558	5.575398	1.888996	-0.000223
1160	1.1532e+02	-6.1827	-37.454527	0.000669	6.690478	2.266795	-0.000268
1161	1.1542e+02	-6.2148	-37.741163	0.000720	7.197333	2.438522	-0.000288
1162	1.1552e+02	-6.2629	-38.023763	0.000710	7.095962	2.404177	-0.000284
1163	1.1562e+02	-6.3111	-38.245805	0.000558	5.575398	1.888996	-0.000223
1164	1.1572e+02	-6.3319	-38.512256	0.000669	6.690478	2.266795	-0.000268
1165	1.1582e+02	-6.3816	-38.811004	0.000750	7.501445	2.541558	-0.000300
1166	1.1592e+02	-6.4201	-39.057270	0.000618	6.183624	2.095068	-0.000248
1167	1.1602e+02	-6.4522	-39.327758	0.000679	6.791849	2.301141	-0.000272
1168	1.1612e+02	-6.5020	-39.569986	0.000608	6.082253	2.060723	-0.000243
1169	1.1622e+02	-6.5340	-39.840474	0.000679	6.791849	2.301141	-0.000272
1170	1.1632e+02	-6.5758	-40.119036	0.000699	6.994591	2.369832	-0.000280
1171	1.1642e+02	-6.6239	-40.377413	0.000649	6.487736	2.198105	-0.000260
1172	1.1651e+02	-6.6528	-40.631753	0.000639	6.386366	2.163759	-0.000256
1173	1.1661e+02	-6.6848	-40.914352	0.000710	7.095962	2.404177	-0.000284
1174	1.1671e+02	-6.7394	-41.180803	0.000669	6.690478	2.266795	-0.000268
1175	1.1681e+02	-6.7715	-41.431106	0.000628	6.284995	2.129414	-0.000252
1176	1.1691e+02	-6.8228	-41.709668	0.000699	6.994591	2.369832	-0.000280
1177	1.1701e+02	-6.8517	-41.959970	0.000628	6.284995	2.129414	-0.000252
1178	1.1711e+02	-6.8902	-42.194124	0.000588	5.879511	1.992032	-0.000235
1179	1.1721e+02	-6.9351	-42.480761	0.000720	7.197333	2.438522	-0.000288
1180	1.1731e+02	-6.9752	-42.698766	0.000547	5.474028	1.854651	-0.000219
1181	1.1741e+02	-7.0105	-42.973291	0.000689	6.893220	2.335486	-0.000276
1182	1.1751e+02	-7.0522	-43.251854	0.000699	6.994591	2.369832	-0.000280
1183	1.1761e+02	-7.0939	-43.530416	0.000699	6.994591	2.369832	-0.000280
1184	1.1771e+02	-7.1436	-43.752459	0.000558	5.575398	1.888996	-0.000223
1185	1.1781e+02	-7.1709	-44.059281	0.000770	7.704187	2.610249	-0.000308
1186	1.1791e+02	-7.2094	-44.265175	0.000517	5.169915	1.751615	-0.000207
1187	1.1801e+02	-7.2559	-44.571997	0.000770	7.704187	2.610249	-0.000308
1188	1.1811e+02	-7.2864	-44.814225	0.000608	6.082253	2.060723	-0.000243
1189	1.1821e+02	-7.3281	-45.048379	0.000588	5.879511	1.992032	-0.000235
1190	1.1831e+02	-7.3698	-45.302719	0.000639	6.386366	2.163759	-0.000256
1191	1.1841e+02	-7.4260	-45.605504	0.000760	7.602816	2.575904	-0.000304
1192	1.1850e+02	-7.4436	-45.859843	0.000639	6.386366	2.163759	-0.000256
1193	1.1860e+02	-7.4950	-46.081886	0.000558	5.575398	1.888996	-0.000223
1194	1.1870e+02	-7.5271	-46.360448	0.000699	6.994591	2.369832	-0.000280
1195	1.1880e+02	-7.5591	-46.586528	0.000568	5.676769	1.923342	-0.000227
1196	1.1890e+02	-7.6105	-46.913536	0.000821	8.211041	2.781976	-0.000329
1197	1.1900e+02	-7.6506	-47.151727	0.000598	5.980882	2.026378	-0.000239
1198	1.1910e+02	-7.6875	-47.397992	0.000618	6.183624	2.095068	-0.000248
1199	1.1920e+02	-7.7308	-47.704814	0.000770	7.704187	2.610249	-0.000308
1200	1.1930e+02	-7.7645	-47.886486	0.000456	4.561690	1.545542	-0.000183
1201	1.1940e+02	-7.8126	-48.205419	0.000801	8.008300	2.713285	-0.000321
1202	1.1950e+02	-7.8479	-48.427462	0.000558	5.575398	1.888996	-0.000223
1203	1.1960e+02	-7.8880	-48.685838	0.000649	6.487736	2.198105	-0.000260
1204	1.1970e+02	-7.9281	-48.932104	0.000618	6.183624	2.095068	-0.000248
1205	1.1980e+02	-7.9730	-49.210666	0.000699	6.994591	2.369832	-0.000280
1206	1.1990e+02	-8.0164	-49.477117	0.000669	6.690478	2.266795	-0.000268
1207	1.2000e+02	-8.0516	-49.719345	0.000608	6.082253	2.060723	-0.000243
1208	1.2010e+02	-8.0998	-49.929276	0.000527	5.271286	1.785960	-0.000211
1209	1.2020e+02	-8.1303	-50.183616	0.000639	6.386366	2.163759	-0.000256
1210	1.2030e+02	-8.1671	-50.458141	0.000689	6.893220	2.335486	-0.000276
1211	1.2039e+02	-8.2024	-50.728629	0.000679	6.791849	2.301141	-0.000272
1212	1.2049e+02	-8.2458	-50.962783	0.000588	5.879511	1.992032	-0.000235
1213	1.2059e+02	-8.2891	-51.241345	0.000699	6.994591	2.369832	-0.000280
1214	1.2069e+02	-8.3244	-51.495685	0.000639	6.386366	2.163759	-0.000256
1215	1.2079e+02	-8.3789	-51.737913	0.000608	6.082253	2.060723	-0.000243
1216	1.2089e+02	-8.4046	-51.980141	0.000608	6.082253	2.060723	-0.000243
1217	1.2099e+02	-8.4479	-52.230444	0.000628	6.284995	2.129414	-0.000252
1218	1.2109e+02	-8.4912	-52.488820	0.000649	6.487736	2.198105	-0.000260
1219	1.2119e+02	-8.5313	-52.710863	0.000558	5.575398	1.888996	-0.000223
1220	1.2129e+02	-8.5730	-52.993462	0.000710	7.095962	2.404177	-0.000284
1221	1.2139e+02	-8.6131	-53.203393	0.000527	5.271286	1.785960	-0.000211
1222	1.2149e+02	-8.6516	-53.457733	0.000639	6.386366	2.163759	-0.000256
1223	1.2159e+02	-8.6933	-53.724184	0.000669	6.690478	2.266795	-0.000268
1224	1.2169e+02	-8.7302	-53.994672	0.000679	6.791849	2.301141	-0.000272
1225	1.2179e+02	-8.7671	-54.232863	0.000598	5.980882	2.026378	-0.000239
1226	1.2189e+02	-8.8040	-54.434720	0.000507	5.068544	1.717269	-0.000203
1227	1.2199e+02	-8.8538	-54.689059	0.000639	6.386366	2.163759	-0.000256
1228	1.2209e+02	-8.8794	-54.943399	0.000639	6.386366	2.163759	-0.000256
1229	1.2219e+02	-8.9276	-55.230035	0.000720	7.197333	2.438522	-0.000288
1230	1.2229e+02	-8.9725	-55.444004	0.000537	5.372657	1.820305	-0.000215
1231	1.2239e+02	-9.0030	-55.670083	0.000568	5.676769	1.923342	-0.000227
1232	1.2248e+02	-9.0511	-55.924423	0.000639	6.386366	2.163759	-0.000256
1233	1.2258e+02	-9.0928	-56.146465	0.000558	5.575398	1.888996	-0.000223
1234	1.2268e+02	-9.1233	-56.408879	0.000659	6.589107	2.232450	-0.000264
1235	1.2278e+02	-9.1730	-56.667256	0.000649	6.487736	2.198105	-0.000260
1236	1.2288e+02	-9.2019	-56.889298	0.000558	5.575398	1.888996	-0.000223
1237	1.2298e+02	-9.2484	-57.115378	0.000568	5.676769	1.923342	-0.000227
1238	1.2308e+02	-9.2789	-57.406052	0.000730	7.298703	2.472868	-0.000292
1239	1.2318e+02	-9.3270	-57.684614	0.000699	6.994591	2.369832	-0.000280
1240	1.2328e+02	-9.3655	-57.858211	0.000436	4.358948	1.476852	-0.000174
1241	1.2338e+02	-9.4024	-58.092365	0.000588	5.879511	1.992032	-0.000235
1242	1.2348e+02	-9.4489	-58.358816	0.000669	6.690478	2.266795	-0.000268
1243	1.2358e+02	-9.4858	-58.572784	0.000537	5.372657	1.820305	-0.000215
1244	1.2368e+02	-9.5243	-58.855383	0.000710	7.095962	2.404177	-0.000284
1245	1.2378e+02	-9.5692	-59.093574	0.000598	5.980882	2.026378	-0.000239
1246	1.2388e+02	-9.6078	-59.295431	0.000507	5.068544	1.717269	-0.000203
1247	1.2398e+02	-9.6430	-59.521511	0.000568	5.676769	1.923342	-0.000227
1248	1.2408e+02	-9.6896	-59.775850	0.000639	6.386366	2.163759	-0.000256
1249	1.2418e+02	-9.7184	-60.018078	0.000608	6.082253	2.060723	-0.000243
1250	1.2428e+02	-9.7634	-60.236084	0.000547	5.474028	1.854651	-0.000219
1251	1.2438e+02	-9.8035	-60.506572	0.000679	6.791849	2.301141	-0.000272
1252	1.2447e+02	-9.8372	-60.680169	0.000436	4.358948	1.476852	-0.000174
1253	1.2457e+02	-9.8837	-60.942583	0.000659	6.589107	2.232450	-0.000264
1254	1.2467e+02	-9.9142	-61.180774	0.000598	5.980882	2.026378	-0.000239
1255	1.2477e+02	-9.9639	-61.439150	0.000649	6.487736	2.198105	-0.000260
1256	1.2487e+02	-10.0056	-61.649081	0.000527	5.271286	1.785960	-0.000211
1257	1.2497e+02	-10.0393	-61.875161	0.000568	5.676769	1.923342	-0.000227
1258	1.2507e+02	-10.0842	-62.145649	0.000679	6.791849	2.301141	-0.000272
1259	1.2517e+02	-10.1179	-62.379803	0.000588	5.879511	1.992032	-0.000235
1260	1.2527e+02	-10.1660	-62.613957	0.000588	5.879511	1.992032	-0.000235
1261	1.2537e+02	-10.2029	-62.856185	0.000608	6.082253	2.060723	-0.000243
1262	1.2547e+02	-10.2366	-63.102450	0.000618	6.183624	2.095068	-0.000248
1263	1.2557e+02	-10.2783	-63.316418	0.000537	5.372657	1.820305	-0.000215
1264	1.2567e+02	-10.3281	-63.542498	0.000568	5.676769	1.923342	-0.000227
1265	1.2577e+02	-10.3649	-63.792800	0.000628	6.284995	2.129414	-0.000252
1266	1.2587e+02	-10.4002	-64.059251	0.000669	6.690478	2.266795	-0.000268
1267	1.2597e+02	-10.4436	-64.289368	0.000578	5.778140	1.957687	-0.000231
1268	1.2607e+02	-10.4756	-64.507373	0.000547	5.474028	1.854651	-0.000219
1269	1.2617e+02	-10.5206	-64.680970	0.000436	4.358948	1.476852	-0.000174
1270	1.2627e+02	-10.5526	-64.963570	0.000710	7.095962	2.404177	-0.000284
1271	1.2636e+02	-10.6040	-65.145241	0.000456	4.561690	1.545542	-0.000183
1272	1.2646e+02	-10.6377	-65.448026	0.000760	7.602816	2.575904	-0.000304
1273	1.2656e+02	-10.6826	-65.641809	0.000487	4.865802	1.648578	-0.000195
1274	1.2666e+02	-10.7099	-65.871925	0.000578	5.778140	1.957687	-0.000231
1275	1.2676e+02	-10.7580	-66.126265	0.000639	6.386366	2.163759	-0.000256
1276	1.2686e+02	-10.8077	-66.336196	0.000527	5.271286	1.785960	-0.000211
1277	1.2696e+02	-10.8462	-66.509793	0.000436	4.358948	1.476852	-0.000174
1278	1.2706e+02	-10.8799	-66.804504	0.000740	7.400074	2.507213	-0.000296
1279	1.2716e+02	-10.9232	-67.006360	0.000507	5.068544	1.717269	-0.000203
1280	1.2726e+02	-10.9649	-67.256663	0.000628	6.284995	2.129414	-0.000252
1281	1.2736e+02	-10.9938	-67.494854	0.000598	5.980882	2.026378	-0.000239
1282	1.2746e+02	-11.0387	-67.680562	0.000466	4.663061	1.579888	-0.000187
1283	1.2756e+02	-11.0820	-67.926827	0.000618	6.183624	2.095068	-0.000248
1284	1.2766e+02	-11.1109	-68.160981	0.000588	5.879511	1.992032	-0.000235
1285	1.2776e+02	-11.1671	-68.411284	0.000628	6.284995	2.129414	-0.000252
1286	1.2786e+02	-11.1879	-68.588918	0.000446	4.460319	1.511197	-0.000179
1287	1.2796e+02	-11.2441	-68.819034	0.000578	5.778140	1.957687	-0.000231
1288	1.2806e+02	-11.2762	-69.065300	0.000618	6.183624	2.095068	-0.000248
1289	1.2816e+02	-11.3227	-69.303491	0.000598	5.980882	2.026378	-0.000239
1290	1.2826e+02	-11.3612	-69.517459	0.000537	5.372657	1.820305	-0.000215
1291	1.2835e+02	-11.3997	-69.719316	0.000507	5.068544	1.717269	-0.000203
1292	1.2845e+02	-11.4382	-69.985767	0.000669	6.690478	2.266795	-0.000268
1293	1.2855e+02	-11.4847	-70.211846	0.000568	5.676769	1.923342	-0.000227
1294	1.2865e+02	-11.5184	-70.393517	0.000456	4.561690	1.545542	-0.000183
1295	1.2875e+02	-11.5569	-70.676117	0.000710	7.095962	2.404177	-0.000284
1296	1.2885e+02	-11.6002	-70.849714	0.000436	4.358948	1.476852	-0.000174
1297	1.2895e+02	-11.6387	-71.071756	0.000558	5.575398	1.888996	-0.000223
1298	1.2905e+02	-11.6788	-71.350318	0.000699	6.994591	2.369832	-0.000280
1299	1.2915e+02	-11.7157	-71.556212	0.000517	5.169915	1.751615	-0.000207
1300	1.2925e+02	-11.7654	-71.778255	0.000558	5.575398	1.888996	-0.000223
1301	1.2935e+02	-11.7975	-71.976075	0.000497	4.967173	1.682924	-0.000199
1302	1.2945e+02	-11.8360	-72.218303	0.000608	6.082253	2.060723	-0.000243
1303	1.2955e+02	-11.8793	-72.432271	0.000537	5.372657	1.820305	-0.000215
1304	1.2965e+02	-11.9211	-72.662388	0.000578	5.778140	1.957687	-0.000231
1305	1.2975e+02	-11.9563	-72.904616	0.000608	6.082253	2.060723	-0.000243
1306	1.2985e+02	-11.9997	-73.102435	0.000497	4.967173	1.682924	-0.000199
1307	1.2995e+02	-12.0334	-73.348701	0.000618	6.183624	2.095068	-0.000248
1308	1.3005e+02	-12.0767	-73.590929	0.000608	6.082253	2.060723	-0.000243
1309	1.3015e+02	-12.1184	-73.825083	0.000588	5.879511	1.992032	-0.000235
1310	1.3025e+02	-12.1585	-74.030977	0.000517	5.169915	1.751615	-0.000207
1311	1.3034e+02	-12.1922	-74.261093	0.000578	5.778140	1.957687	-0.000231
1312	1.3044e+02	-12.2275	-74.483136	0.000558	5.575398	1.888996	-0.000223
1313	1.3054e+02	-12.2628	-74.721327	0.000598	5.980882	2.026378	-0.000239
1314	1.3064e+02	-12.3141	-74.947406	0.000568	5.676769	1.923342	-0.000227
1315	1.3074e+02	-12.3590	-75.181560	0.000588	5.879511	1.992032	-0.000235
1316	1.3084e+02	-12.3927	-75.383417	0.000507	5.068544	1.717269	-0.000203
1317	1.3094e+02	-12.4392	-75.569125	0.000466	4.663061	1.579888	-0.000187
1318	1.3104e+02	-12.4745	-75.867873	0.000750	7.501445	2.541558	-0.000300
1319	1.3114e+02	-12.5146	-76.102027	0.000588	5.879511	1.992032	-0.000235
1320	1.3124e+02	-12.5563	-76.291773	0.000476	4.764431	1.614233	-0.000191
1321	1.3134e+02	-12.6012	-76.529964	0.000598	5.980882	2.026378	-0.000239
1322	1.3144e+02	-12.6285	-76.735858	0.000517	5.169915	1.751615	-0.000207
1323	1.3154e+02	-12.6766	-76.974049	0.000598	5.980882	2.026378	-0.000239
1324	1.3164e+02	-12.7135	-77.179942	0.000517	5.169915	1.751615	-0.000207
1325	1.3174e+02	-12.7440	-77.430245	0.000628	6.284995	2.129414	-0.000252
1326	1.3184e+02	-12.7922	-77.680547	0.000628	6.284995	2.129414	-0.000252
1327	1.3194e+02	-12.8387	-77.850107	0.000426	4.257577	1.442506	-0.000170
1328	1.3204e+02	-12.8804	-78.136744	0.000720	7.197333	2.438522	-0.000288
1329	1.3214e+02	-12.9077	-78.302266	0.000416	4.156206	1.408161	-0.000166
1330	1.3224e+02	-12.9494	-78.540457	0.000598	5.980882	2.026378	-0.000239
1331	1.3234e+02	-12.9895	-78.802871	0.000659	6.589107	2.232450	-0.000264
1332	1.3243e+02	-13.0232	-78.972431	0.000426	4.257577	1.442506	-0.000170
1333	1.3253e+02	-13.0729	-79.186399	0.000537	5.372657	1.820305	-0.000215
1334	1.3263e+02	-13.1066	-79.448813	0.000659	6.589107	2.232450	-0.000264
1335	1.3273e+02	-13.1547	-79.634521	0.000466	4.663061	1.579888	-0.000187
1336	1.3283e+02	-13.1964	-79.913083	0.000699	6.994591	2.369832	-0.000280
1337	1.3293e+02	-13.2237	-80.102829	0.000476	4.764431	1.614233	-0.000191
1338	1.3303e+02	-13.2686	-80.328908	0.000568	5.676769	1.923342	-0.000227
1339	1.3313e+02	-13.3039	-80.514617	0.000466	4.663061	1.579888	-0.000187
1340	1.3323e+02	-13.3504	-80.809328	0.000740	7.400074	2.507213	-0.000296
1341	1.3333e+02	-13.3809	-81.043481	0.000588	5.879511	1.992032	-0.000235
1342	1.3343e+02	-13.4387	-81.257450	0.000537	5.372657	1.820305	-0.000215
1343	1.3353e+02	-13.4723	-81.447195	0.000476	4.764431	1.614233	-0.000191
1344	1.3363e+02	-13.5125	-81.636940	0.000476	4.764431	1.614233	-0.000191
1345	1.3373e+02	-13.5510	-81.903391	0.000669	6.690478	2.266795	-0.000268
1346	1.3383e+02	-13.5927	-82.129471	0.000568	5.676769	1.923342	-0.000227
1347	1.3393e+02	-13.6376	-82.383810	0.000639	6.386366	2.163759	-0.000256
1348	1.3403e+02	-13.6616	-82.609890	0.000568	5.676769	1.923342	-0.000227
1349	1.3413e+02	-13.7066	-82.848081	0.000598	5.980882	2.026378	-0.000239
1350	1.3423e+02	-13.7467	-83.053975	0.000517	5.169915	1.751615	-0.000207
1351	1.3432e+02	-13.7916	-83.251795	0.000497	4.967173	1.682924	-0.000199
1352	1.3442e+02	-13.8269	-83.498060	0.000618	6.183624	2.095068	-0.000248
1353	1.3452e+02	-13.8606	-83.712028	0.000537	5.372657	1.820305	-0.000215
1354	1.3462e+02	-13.9071	-83.950219	0.000598	5.980882	2.026378	-0.000239
1355	1.3472e+02	-13.9488	-84.200522	0.000628	6.284995	2.129414	-0.000252
1356	1.3482e+02	-13.9857	-84.386230	0.000466	4.663061	1.579888	-0.000187
1357	1.3492e+02	-14.0322	-84.616347	0.000578	5.778140	1.957687	-0.000231
1358	1.3502e+02	-14.0595	-84.870686	0.000639	6.386366	2.163759	-0.000256
1359	1.3512e+02	-14.1044	-85.032171	0.000405	4.054835	1.373815	-0.000162
1360	1.3522e+02	-14.1541	-85.330920	0.000750	7.501445	2.541558	-0.000300
1361	1.3532e+02	-14.1894	-85.552962	0.000558	5.575398	1.888996	-0.000223
1362	1.3542e+02	-14.2263	-85.775004	0.000558	5.575398	1.888996	-0.000223
1363	1.3552e+02	-14.2664	-86.009158	0.000588	5.879511	1.992032	-0.000235
1364	1.3562e+02	-14.3082	-86.267535	0.000649	6.487736	2.198105	-0.000260
1365	1.3572e+02	-14.3402	-86.453243	0.000466	4.663061	1.579888	-0.000187
1366	1.3582e+02	-14.3884	-86.679323	0.000568	5.676769	1.923342	-0.000227
1367	1.3592e+02	-14.4237	-86.929625	0.000628	6.284995	2.129414	-0.000252
1368	1.3602e+02	-14.4654	-87.163779	0.000588	5.879511	1.992032	-0.000235
1369	1.3612e+02	-14.5055	-87.369673	0.000517	5.169915	1.751615	-0.000207
1370	1.3622e+02	-14.5456	-87.575567	0.000517	5.169915	1.751615	-0.000207
1371	1.3631e+02	-14.5921	-87.821832	0.000618	6.183624	2.095068	-0.000248
1372	1.3641e+02	-14.6242	-88.080209	0.000649	6.487736	2.198105	-0.000260
1373	1.3651e+02	-14.6675	-88.334549	0.000639	6.386366	2.163759	-0.000256
1374	1.3661e+02	-14.7044	-88.491997	0.000395	3.953464	1.339470	-0.000158
1375	1.3671e+02	-14.7493	-88.750373	0.000649	6.487736	2.198105	-0.000260
1376	1.3681e+02	-14.7910	-88.992602	0.000608	6.082253	2.060723	-0.000243
1377	1.3691e+02	-14.8183	-89.198496	0.000517	5.169915	1.751615	-0.000207
1378	1.3701e+02	-14.8680	-89.428612	0.000578	5.778140	1.957687	-0.000231
1379	1.3711e+02	-14.8969	-89.678915	0.000628	6.284995	2.129414	-0.000252
1380	1.3721e+02	-14.9386	-89.884809	0.000517	5.169915	1.751615	-0.000207
1381	1.3731e+02	-14.9932	-90.147222	0.000659	6.589107	2.232450	-0.000264
1382	1.3741e+02	-15.0188	-90.357154	0.000527	5.271286	1.785960	-0.000211
1383	1.3751e+02	-15.0541	-90.599382	0.000608	6.082253	2.060723	-0.000243
1384	1.3761e+02	-15.0990	-90.813350	0.000537	5.372657	1.820305	-0.000215
1385	1.3771e+02	-15.1440	-91.051541	0.000598	5.980882	2.026378	-0.000239
1386	1.3781e+02	-15.1825	-91.269546	0.000547	5.474028	1.854651	-0.000219
1387	1.3791e+02	-15.2194	-91.483514	0.000537	5.372657	1.820305	-0.000215
1388	1.3801e+02	-15.2595	-91.758040	0.000689	6.893220	2.335486	-0.000276
1389	1.3811e+02	-15.3108	-91.967971	0.000527	5.271286	1.785960	-0.000211
1390	1.3821e+02	-15.3477	-92.210199	0.000608	6.082253	2.060723	-0.000243
1391	1.3831e+02	-15.3798	-92.436278	0.000568	5.676769	1.923342	-0.000227
1392	1.3840e+02	-15.4119	-92.662358	0.000568	5.676769	1.923342	-0.000227
1393	1.3850e+02	-15.4632	-92.872289	0.000527	5.271286	1.785960	-0.000211
1394	1.3860e+02	-15.4953	-93.114517	0.000608	6.082253	2.060723	-0.000243
1395	1.3870e+02	-15.5402	-93.385005	0.000679	6.791849	2.301141	-0.000272
1396	1.3880e+02	-15.5803	-93.574751	0.000476	4.764431	1.614233	-0.000191
1397	1.3890e+02	-15.6140	-93.825053	0.000628	6.284995	2.129414	-0.000252
1398	1.3900e+02	-15.6525	-94.018836	0.000487	4.865802	1.648578	-0.000195
1399	1.3910e+02	-15.7006	-94.297398	0.000699	6.994591	2.369832	-0.000280
1400	1.3920e+02	-15.7455	-94.527515	0.000578	5.778140	1.957687	-0.000231
1401	1.3930e+02	-15.7744	-94.753594	0.000568	5.676769	1.923342	-0.000227
1402	1.3940e+02	-15.8209	-94.959488	0.000517	5.169915	1.751615	-0.000207
1403	1.3950e+02	-15.8562	-95.197679	0.000598	5.980882	2.026378	-0.000239
1404	1.3960e+02	-15.9060	-95.472205	0.000689	6.893220	2.335486	-0.000276
1405	1.3970e+02	-15.9477	-95.674061	0.000507	5.068544	1.717269	-0.000203
1406	1.3980e+02	-15.9669	-95.883992	0.000527	5.271286	1.785960	-0.000211
1407	1.3990e+02	-16.0102	-96.138332	0.000639	6.386366	2.163759	-0.000256
1408	1.4000e+02	-16.0520	-96.392671	0.000639	6.386366	2.163759	-0.000256
1409	1.4010e+02	-16.1001	-96.598565	0.000517	5.169915	1.751615	-0.000207
1410	1.4020e+02	-16.1290	-96.848868	0.000628	6.284995	2.129414	-0.000252
1411	1.4029e+02	-16.1787	-97.099170	0.000628	6.284995	2.129414	-0.000252
1412	1.4039e+02	-16.2172	-97.317176	0.000547	5.474028	1.854651	-0.000219
1413	1.4049e+02	-16.2685	-97.551329	0.000588	5.879511	1.992032	-0.000235
1414	1.4059e+02	-16.2990	-97.777409	0.000568	5.676769	1.923342	-0.000227
1415	1.4069e+02	-16.3391	-98.003489	0.000568	5.676769	1.923342	-0.000227
1416	1.4079e+02	-16.3760	-98.261865	0.000649	6.487736	2.198105	-0.000260
1417	1.4089e+02	-16.4161	-98.520242	0.000649	6.487736	2.198105	-0.000260
1418	1.4099e+02	-16.4610	-98.738247	0.000547	5.474028	1.854651	-0.000219
1419	1.4109e+02	-16.4931	-98.980475	0.000608	6.082253	2.060723	-0.000243
1420	1.4119e+02	-16.5364	-99.198481	0.000547	5.474028	1.854651	-0.000219
1421	1.4129e+02	-16.5749	-99.460895	0.000659	6.589107	2.232450	-0.000264
1422	1.4139e+02	-16.6134	-99.691011	0.000578	5.778140	1.957687	-0.000231
1423	1.4149e+02	-16.6535	-99.925165	0.000588	5.879511	1.992032	-0.000235
1424	1.4159e+02	-16.6985	-100.179505	0.000639	6.386366	2.163759	-0.000256
1425	1.4169e+02	-16.7386	-100.425770	0.000618	6.183624	2.095068	-0.000248
1426	1.4179e+02	-16.7803	-100.680110	0.000639	6.386366	2.163759	-0.000256
1427	1.4189e+02	-16.8124	-100.890041	0.000527	5.271286	1.785960	-0.000211
1428	1.4199e+02	-16.8525	-101.132269	0.000608	6.082253	2.060723	-0.000243
1429	1.4209e+02	-16.8974	-101.394683	0.000659	6.589107	2.232450	-0.000264
1430	1.4219e+02	-16.9407	-101.628837	0.000588	5.879511	1.992032	-0.000235
1431	1.4228e+02	-16.9744	-101.862990	0.000588	5.879511	1.992032	-0.000235
1432	1.4238e+02	-17.0145	-102.093107	0.000578	5.778140	1.957687	-0.000231
1433	1.4248e+02	-17.0642	-102.363595	0.000679	6.791849	2.301141	-0.000272
1434	1.4258e+02	-17.0899	-102.617935	0.000639	6.386366	2.163759	-0.000256
1435	1.4268e+02	-17.1412	-102.880349	0.000659	6.589107	2.232450	-0.000264
1436	1.4278e+02	-17.1733	-103.134688	0.000639	6.386366	2.163759	-0.000256
1437	1.4288e+02	-17.2166	-103.401139	0.000669	6.690478	2.266795	-0.000268
1438	1.4298e+02	-17.2551	-103.611070	0.000527	5.271286	1.785960	-0.000211
1439	1.4308e+02	-17.3000	-103.861373	0.000628	6.284995	2.129414	-0.000252
1440	1.4318e+02	-17.3321	-104.099564	0.000598	5.980882	2.026378	-0.000239
1441	1.4328e+02	-17.3738	-104.321606	0.000558	5.575398	1.888996	-0.000223
1442	1.4338e+02	-17.4091	-104.620354	0.000750	7.501445	2.541558	-0.000300
1443	1.4348e+02	-17.4492	-104.814137	0.000487	4.865802	1.648578	-0.000195
1444	1.4358e+02	-17.4877	-105.072513	0.000649	6.487736	2.198105	-0.000260
1445	1.4368e+02	-17.5375	-105.355113	0.000710	7.095962	2.404177	-0.000284
1446	1.4378e+02	-17.5744	-105.617527	0.000659	6.589107	2.232450	-0.000264
1447	1.4388e+02	-17.6097	-105.879940	0.000659	6.589107	2.232450	-0.000264
1448	1.4398e+02	-17.6546	-106.130243	0.000628	6.284995	2.129414	-0.000252
1449	1.4408e+02	-17.6931	-106.356322	0.000568	5.676769	1.923342	-0.000227
1450	1.4418e+02	-17.7252	-106.578365	0.000558	5.575398	1.888996	-0.000223
1451	1.4428e+02	-17.7717	-106.885187	0.000770	7.704187	2.610249	-0.000308
1452	1.4437e+02	-17.8166	-107.159712	0.000689	6.893220	2.335486	-0.000276
1453	1.4447e+02	-17.8503	-107.341384	0.000456	4.561690	1.545542	-0.000183
1454	1.4457e+02	-17.8984	-107.583612	0.000608	6.082253	2.060723	-0.000243
1455	1.4467e+02	-17.9321	-107.906583	0.000811	8.109670	2.747631	-0.000325
1456	1.4477e+02	-17.9786	-108.156885	0.000628	6.284995	2.129414	-0.000252
1457	1.4487e+02	-18.0123	-108.403150	0.000618	6.183624	2.095068	-0.000248
1458	1.4497e+02	-18.0492	-108.669601	0.000669	6.690478	2.266795	-0.000268
1459	1.4507e+02	-18.0974	-108.927978	0.000649	6.487736	2.198105	-0.000260
1460	1.4517e+02	-18.1262	-109.178280	0.000628	6.284995	2.129414	-0.000252
1461	1.4527e+02	-18.1744	-109.448768	0.000679	6.791849	2.301141	-0.000272
1462	1.4537e+02	-18.2096	-109.727331	0.000699	6.994591	2.369832	-0.000280
1463	1.4547e+02	-18.2433	-110.022042	0.000740	7.400074	2.507213	-0.000296
1464	1.4557e+02	-18.2802	-110.264270	0.000608	6.082253	2.060723	-0.000243
1465	1.4567e+02	-18.3348	-110.490349	0.000568	5.676769	1.923342	-0.000227
1466	1.4577e+02	-18.3733	-110.776986	0.000720	7.197333	2.438522	-0.000288
1467	1.4587e+02	-18.4118	-111.051511	0.000689	6.893220	2.335486	-0.000276
1468	1.4597e+02	-18.4439	-111.289702	0.000598	5.980882	2.026378	-0.000239
1469	1.4607e+02	-18.4904	-111.604599	0.000791	7.906929	2.678940	-0.000316
1470	1.4617e+02	-18.5337	-111.842790	0.000598	5.980882	2.026378	-0.000239
1471	1.4626e+02	-18.5690	-112.173835	0.000831	8.312412	2.816322	-0.000333
1472	1.4636e+02	-18.6075	-112.440286	0.000669	6.690478	2.266795	-0.000268
1473	1.4646e+02	-18.6428	-112.682514	0.000608	6.082253	2.060723	-0.000243
1474	1.4656e+02	-18.6957	-112.973188	0.000730	7.298703	2.472868	-0.000292
1475	1.4666e+02	-18.7310	-113.280010	0.000770	7.704187	2.610249	-0.000308
1476	1.4676e+02	-18.7695	-113.514164	0.000588	5.879511	1.992032	-0.000235
1477	1.4686e+02	-18.8128	-113.820986	0.000770	7.704187	2.610249	-0.000308
1478	1.4696e+02	-18.8481	-114.115697	0.000740	7.400074	2.507213	-0.000296
1479	1.4706e+02	-18.8898	-114.370037	0.000639	6.386366	2.163759	-0.000256
1480	1.4716e+02	-18.9332	-114.624376	0.000639	6.386366	2.163759	-0.000256
1481	1.4726e+02	-18.9668	-114.874679	0.000628	6.284995	2.129414	-0.000252
1482	1.4736e+02	-19.0102	-115.209761	0.000841	8.413783	2.850667	-0.000337
1483	1.4746e+02	-19.0422	-115.496398	0.000720	7.197333	2.438522	-0.000288
1484	1.4756e+02	-19.0920	-115.811294	0.000791	7.906929	2.678940	-0.000316
1485	1.4766e+02	-19.1257	-116.081782	0.000679	6.791849	2.301141	-0.000272
1486	1.4776e+02	-19.1610	-116.360345	0.000699	6.994591	2.369832	-0.000280
1487	1.4786e+02	-19.2155	-116.651019	0.000730	7.298703	2.472868	-0.000292
1488	1.4796e+02	-19.2508	-117.002249	0.000882	8.819267	2.988048	-0.000353
1489	1.4806e+02	-19.2893	-117.232366	0.000578	5.778140	1.957687	-0.000231
1490	1.4816e+02	-19.3246	-117.527077	0.000740	7.400074	2.507213	-0.000296
1491	1.4825e+02	-19.3679	-117.829862	0.000760	7.602816	2.575904	-0.000304
1492	1.4835e+02	-19.4048	-118.128610	0.000750	7.501445	2.541558	-0.000300
1493	1.4845e+02	-19.4353	-118.455618	0.000821	8.211041	2.781976	-0.000329
1494	1.4855e+02	-19.4882	-118.701884	0.000618	6.183624	2.095068	-0.000248
1495	1.4865e+02	-19.5187	-119.004669	0.000760	7.602816	2.575904	-0.000304
1496	1.4875e+02	-19.5732	-119.319565	0.000791	7.906929	2.678940	-0.000316
1497	1.4885e+02	-19.6021	-119.650610	0.000831	8.312412	2.816322	-0.000333
1498	1.4895e+02	-19.6470	-119.880727	0.000578	5.778140	1.957687	-0.000231
1499	1.4905e+02	-19.6839	-120.195624	0.000791	7.906929	2.678940	-0.000316
1500	1.4915e+02	-19.7144	-120.522632	0.000821	8.211041	2.781976	-0.000329
1501	1.4925e+02	-19.7674	-120.785046	0.000659	6.589107	2.232450	-0.000264
1502	1.4935e+02	-19.8010	-121.120128	0.000841	8.413783	2.850667	-0.000337
1503	1.4945e+02	-19.8363	-121.455210	0.000841	8.413783	2.850667	-0.000337
1504	1.4955e+02	-19.8780	-121.733772	0.000699	6.994591	2.369832	-0.000280
1505	1.4965e+02	-19.9198	-122.012335	0.000699	6.994591	2.369832	-0.000280
1506	1.4975e+02	-19.9567	-122.355491	0.000862	8.616525	2.919358	-0.000345
1507	1.4985e+02	-19.9968	-122.726908	0.000933	9.326121	3.159775	-0.000373
1508	1.4995e+02	-19.9583	-122.690574	0.000091	0.912338	0.309108	0.000037
1509	1.5005e+02	-19.9294	-122.650202	0.000101	1.013709	0.343454	0.000041
1510	1.5015e+02	-19.8764	-122.625979	0.000061	0.608225	0.206072	0.000024
1511	1.5025e+02	-19.8395	-122.589645	0.000091	0.912338	0.309108	0.000037
1512	1.5034e+02	-19.8010	-122.516977	0.000182	1.824676	0.618217	0.000073
1513	1.5044e+02	-19.7625	-122.460457	0.000142	1.419192	0.480835	0.000057
1514	1.5054e+02	-19.7224	-122.387788	0.000182	1.824676	0.618217	0.000073
1515	1.5064e+02	-19.6855	-122.351454	0.000091	0.912338	0.309108	0.000037
1516	1.5074e+02	-19.6486	-122.234377	0.000294	2.939756	0.996016	0.000118
1517	1.5084e+02	-19.5973	-122.169783	0.000162	1.621934	0.549526	0.000065
1518	1.5094e+02	-19.5524	-122.145560	0.000061	0.608225	0.206072	0.000024
1519	1.5104e+02	-19.5267	-122.040595	0.000264	2.635643	0.892980	0.000105
1520	1.5114e+02	-19.4882	-121.915444	0.000314	3.142497	1.064707	0.000126
1521	1.5124e+02	-19.4401	-121.862961	0.000132	1.317821	0.446490	0.000053
1522	1.5134e+02	-19.4064	-121.753958	0.000274	2.737014	0.927325	0.000110
1523	1.5144e+02	-19.3599	-121.669178	0.000213	2.128789	0.721253	0.000085
1524	1.5154e+02	-19.3198	-121.560176	0.000274	2.737014	0.927325	0.000110
1525	1.5164e+02	-19.2861	-121.463284	0.000243	2.432901	0.824289	0.000097
1526	1.5174e+02	-19.2476	-121.414839	0.000122	1.216451	0.412145	0.000049
1527	1.5184e+02	-19.2139	-121.261428	0.000385	3.852093	1.305125	0.000154
1528	1.5194e+02	-19.1690	-121.168573	0.000233	2.331530	0.789944	0.000093
1529	1.5204e+02	-19.1321	-121.075719	0.000233	2.331530	0.789944	0.000093
1530	1.5214e+02	-19.0984	-120.918271	0.000395	3.953464	1.339470	0.000158
1531	1.5224e+02	-19.0455	-120.853677	0.000162	1.621934	0.549526	0.000065
1532	1.5233e+02	-19.0102	-120.700266	0.000385	3.852093	1.305125	0.000154
1533	1.5243e+02	-18.9717	-120.571077	0.000324	3.243868	1.099052	0.000130
1534	1.5253e+02	-18.9251	-120.498409	0.000182	1.824676	0.618217	0.000073
1535	1.5263e+02	-18.8866	-120.357109	0.000355	3.547981	1.202088	0.000142
1536	1.5273e+02	-18.8529	-120.235995	0.000304	3.041126	1.030362	0.000122
1537	1.5283e+02	-18.8096	-120.135067	0.000253	2.534272	0.858635	0.000101
1538	1.5293e+02	-18.7727	-119.957433	0.000446	4.460319	1.511197	0.000179
1539	1.5303e+02	-18.7294	-119.880727	0.000193	1.926047	0.652562	0.000077
1540	1.5313e+02	-18.6829	-119.743465	0.000345	3.446610	1.167743	0.000138
1541	1.5323e+02	-18.6540	-119.626388	0.000294	2.939756	0.996016	0.000118
1542	1.5333e+02	-18.6139	-119.525459	0.000253	2.534272	0.858635	0.000101
1543	1.5343e+02	-18.5786	-119.323602	0.000507	5.068544	1.717269	0.000203
1544	1.5353e+02	-18.5401	-119.234785	0.000223	2.230159	0.755598	0.000089
1545	1.5363e+02	-18.4936	-119.109634	0.000314	3.142497	1.064707	0.000126
1546	1.5373e+02	-18.4455	-118.968334	0.000355	3.547981	1.202088	0.000142
1547	1.5383e+02	-18.4134	-118.786663	0.000456	4.561690	1.545542	0.000183
1548	1.5393e+02	-18.3717	-118.677661	0.000274	2.737014	0.927325	0.000110
1549	1.5403e+02	-18.3316	-118.592881	0.000213	2.128789	0.721253	0.000085
1550	1.5413e+02	-18.2818	-118.435433	0.000395	3.953464	1.339470	0.000158
1551	1.5422e+02	-18.2546	-118.277984	0.000395	3.953464	1.339470	0.000158
1552	1.5432e+02	-18.2064	-118.124573	0.000385	3.852093	1.305125	0.000154
1553	1.5442e+02	-18.1727	-118.007496	0.000294	2.939756	0.996016	0.000118
1554	1.5452e+02	-18.1310	-117.850048	0.000395	3.953464	1.339470	0.000158
1555	1.5462e+02	-18.0941	-117.704711	0.000365	3.649352	1.236434	0.000146
1556	1.5472e+02	-18.0428	-117.587634	0.000294	2.939756	0.996016	0.000118
1557	1.5482e+02	-18.0107	-117.426149	0.000405	4.054835	1.373815	0.000162
1558	1.5492e+02	-17.9722	-117.272737	0.000385	3.852093	1.305125	0.000154
1559	1.5502e+02	-17.9273	-117.131438	0.000355	3.547981	1.202088	0.000142
1560	1.5512e+02	-17.8920	-116.978027	0.000385	3.852093	1.305125	0.000154
1561	1.5522e+02	-17.8519	-116.816541	0.000405	4.054835	1.373815	0.000162
1562	1.5532e+02	-17.8198	-116.695427	0.000304	3.041126	1.030362	0.000122
1563	1.5542e+02	-17.7781	-116.574313	0.000304	3.041126	1.030362	0.000122
1564	1.5552e+02	-17.7348	-116.380530	0.000487	4.865802	1.648578	0.000195
1565	1.5562e+02	-17.6963	-116.235194	0.000365	3.649352	1.236434	0.000146
1566	1.5572e+02	-17.6466	-116.089857	0.000365	3.649352	1.236434	0.000146
1567	1.5582e+02	-17.6177	-115.944520	0.000365	3.649352	1.236434	0.000146
1568	1.5592e+02	-17.5776	-115.783034	0.000405	4.054835	1.373815	0.000162
1569	1.5602e+02	-17.5391	-115.633660	0.000375	3.750723	1.270779	0.000150
1570	1.5612e+02	-17.4910	-115.524658	0.000274	2.737014	0.927325	0.000110
1571	1.5622e+02	-17.4524	-115.347024	0.000446	4.460319	1.511197	0.000179
1572	1.5631e+02	-17.4172	-115.141130	0.000517	5.169915	1.751615	0.000207
1573	1.5641e+02	-17.3803	-115.007904	0.000335	3.345239	1.133398	0.000134
1574	1.5651e+02	-17.3353	-114.842382	0.000416	4.156206	1.408161	0.000166
1575	1.5661e+02	-17.2968	-114.688971	0.000385	3.852093	1.305125	0.000154
1576	1.5671e+02	-17.2487	-114.559782	0.000324	3.243868	1.099052	0.000130
1577	1.5681e+02	-17.2134	-114.394260	0.000416	4.156206	1.408161	0.000166
1578	1.5691e+02	-17.1813	-114.261034	0.000335	3.345239	1.133398	0.000134
1579	1.5701e+02	-17.1348	-114.091475	0.000426	4.257577	1.442506	0.000170
1580	1.5711e+02	-17.0899	-113.905766	0.000466	4.663061	1.579888	0.000187
1581	1.5721e+02	-17.0610	-113.784652	0.000304	3.041126	1.030362	0.000122
1582	1.5731e+02	-17.0193	-113.627204	0.000395	3.953464	1.339470	0.000158
1583	1.5741e+02	-16.9728	-113.389013	0.000598	5.980882	2.026378	0.000239
1584	1.5751e+02	-16.9407	-113.271936	0.000294	2.939756	0.996016	0.000118
1585	1.5761e+02	-16.8958	-113.106413	0.000416	4.156206	1.408161	0.000166
1586	1.5771e+02	-16.8557	-112.940891	0.000416	4.156206	1.408161	0.000166
1587	1.5781e+02	-16.8188	-112.787480	0.000385	3.852093	1.305125	0.000154
1588	1.5791e+02	-16.7787	-112.662328	0.000314	3.142497	1.064707	0.000126
1589	1.5801e+02	-16.7402	-112.468546	0.000487	4.865802	1.648578	0.000195
1590	1.5811e+02	-16.7001	-112.274763	0.000487	4.865802	1.648578	0.000195
1591	1.5821e+02	-16.6535	-112.149612	0.000314	3.142497	1.064707	0.000126
1592	1.5830e+02	-16.6182	-111.988127	0.000405	4.054835	1.373815	0.000162
1593	1.5840e+02	-16.5765	-111.834716	0.000385	3.852093	1.305125	0.000154
1594	1.5850e+02	-16.5348	-111.616710	0.000547	5.474028	1.854651	0.000219
1595	1.5860e+02	-16.4963	-111.467336	0.000375	3.750723	1.270779	0.000150
1596	1.5870e+02	-16.4594	-111.317962	0.000375	3.750723	1.270779	0.000150
1597	1.5880e+02	-16.4209	-111.152440	0.000416	4.156206	1.408161	0.000166
1598	1.5890e+02	-16.3776	-110.950583	0.000507	5.068544	1.717269	0.000203
1599	1.5900e+02	-16.3423	-110.841580	0.000274	2.737014	0.927325	0.000110
1600	1.5910e+02	-16.2942	-110.635686	0.000517	5.169915	1.751615	0.000207
1601	1.5920e+02	-16.2573	-110.466127	0.000426	4.257577	1.442506	0.000170
1602	1.5930e+02	-16.2204	-110.324827	0.000355	3.547981	1.202088	0.000142
1603	1.5940e+02	-16.1755	-110.159304	0.000416	4.156206	1.408161	0.000166
1604	1.5950e+02	-16.1338	-109.913039	0.000618	6.183624	2.095068	0.000248
1605	1.5960e+02	-16.1001	-109.868631	0.000112	1.115080	0.377799	0.000045
1606	1.5970e+02	-16.0520	-109.610254	0.000649	6.487736	2.198105	0.000260
1607	1.5980e+02	-16.0167	-109.440694	0.000426	4.257577	1.442506	0.000170
1608	1.5990e+02	-15.9782	-109.267097	0.000436	4.358948	1.476852	0.000174
1609	1.6000e+02	-15.9461	-109.085426	0.000456	4.561690	1.545542	0.000183
1610	1.6010e+02	-15.9028	-108.956238	0.000324	3.243868	1.099052	0.000130
1611	1.6019e+02	-15.8643	-108.814938	0.000355	3.547981	1.202088	0.000142
1612	1.6029e+02	-15.8017	-108.588859	0.000568	5.676769	1.923342	0.000227
1613	1.6039e+02	-15.7792	-108.443522	0.000365	3.649352	1.236434	0.000146
1614	1.6049e+02	-15.7359	-108.269925	0.000436	4.358948	1.476852	0.000174
1615	1.6059e+02	-15.7006	-108.104402	0.000416	4.156206	1.408161	0.000166
1616	1.6069e+02	-15.6589	-107.930805	0.000436	4.358948	1.476852	0.000174
1617	1.6079e+02	-15.6300	-107.732986	0.000497	4.967173	1.682924	0.000199
1618	1.6089e+02	-15.5899	-107.535166	0.000497	4.967173	1.682924	0.000199
1619	1.6099e+02	-15.5466	-107.377718	0.000395	3.953464	1.339470	0.000158
1620	1.6109e+02	-15.5033	-107.232381	0.000365	3.649352	1.236434	0.000146
1621	1.6119e+02	-15.4616	-107.030524	0.000507	5.068544	1.717269	0.000203
1622	1.6129e+02	-15.4295	-106.869039	0.000405	4.054835	1.373815	0.000162
1623	1.6139e+02	-15.3814	-106.695442	0.000436	4.358948	1.476852	0.000174
1624	1.6149e+02	-15.3381	-106.453214	0.000608	6.082253	2.060723	0.000243
1625	1.6159e+02	-15.3012	-106.295765	0.000395	3.953464	1.339470	0.000158
1626	1.6169e+02	-15.2514	-106.118131	0.000446	4.460319	1.511197	0.000179
1627	1.6179e+02	-15.2258	-105.956646	0.000405	4.054835	1.373815	0.000162
1628	1.6189e+02	-15.1841	-105.799198	0.000395	3.953464	1.339470	0.000158
1629	1.6199e+02	-15.1424	-105.597341	0.000507	5.068544	1.717269	0.000203
1630	1.6209e+02	-15.1039	-105.447967	0.000375	3.750723	1.270779	0.000150
1631	1.6219e+02	-15.0670	-105.238036	0.000527	5.271286	1.785960	0.000211
1632	1.6228e+02	-15.0268	-105.068476	0.000426	4.257577	1.442506	0.000170
1633	1.6238e+02	-14.9900	-104.882768	0.000466	4.663061	1.579888	0.000187
1634	1.6248e+02	-14.9322	-104.729357	0.000385	3.852093	1.305125	0.000154
1635	1.6258e+02	-14.9017	-104.519426	0.000527	5.271286	1.785960	0.000211
1636	1.6268e+02	-14.8680	-104.366015	0.000385	3.852093	1.305125	0.000154
1637	1.6278e+02	-14.8263	-104.188381	0.000446	4.460319	1.511197	0.000179
1638	1.6288e+02	-14.7862	-104.018821	0.000426	4.257577	1.442506	0.000170
1639	1.6298e+02	-14.7381	-103.837150	0.000456	4.561690	1.545542	0.000183
1640	1.6308e+02	-14.7076	-103.655479	0.000456	4.561690	1.545542	0.000183
1641	1.6318e+02	-14.6611	-103.469770	0.000466	4.663061	1.579888	0.000187
1642	1.6328e+02	-14.6258	-103.304248	0.000416	4.156206	1.408161	0.000166
1643	1.6338e+02	-14.5825	-103.134688	0.000426	4.257577	1.442506	0.000170
1644	1.6348e+02	-14.5408	-102.920720	0.000537	5.372657	1.820305	0.000215
1645	1.6358e+02	-14.5151	-102.739049	0.000456	4.561690	1.545542	0.000183
1646	1.6368e+02	-14.4654	-102.577563	0.000405	4.054835	1.373815	0.000162
1647	1.6378e+02	-14.4237	-102.428189	0.000375	3.750723	1.270779	0.000150
1648	1.6388e+02	-14.3836	-102.177887	0.000628	6.284995	2.129414	0.000252
1649	1.6398e+02	-14.3450	-102.056773	0.000304	3.041126	1.030362	0.000122
1650	1.6408e+02	-14.3065	-101.883176	0.000436	4.358948	1.476852	0.000174
1651	1.6418e+02	-14.2697	-101.681319	0.000507	5.068544	1.717269	0.000203
1652	1.6427e+02	-14.2263	-101.503685	0.000446	4.460319	1.511197	0.000179
1653	1.6437e+02	-14.1975	-101.342200	0.000405	4.054835	1.373815	0.000162
1654	1.6447e+02	-14.1493	-101.140343	0.000507	5.068544	1.717269	0.000203
1655	1.6457e+02	-14.1060	-100.954635	0.000466	4.663061	1.579888	0.000187
1656	1.6467e+02	-14.0595	-100.764889	0.000476	4.764431	1.614233	0.000191
1657	1.6477e+02	-14.0258	-100.567070	0.000497	4.967173	1.682924	0.000199
1658	1.6487e+02	-13.9921	-100.377324	0.000476	4.764431	1.614233	0.000191
1659	1.6497e+02	-13.9376	-100.219876	0.000395	3.953464	1.339470	0.000158
1660	1.6507e+02	-13.9103	-100.058391	0.000405	4.054835	1.373815	0.000162
1661	1.6517e+02	-13.8638	-99.868645	0.000476	4.764431	1.614233	0.000191
1662	1.6527e+02	-13.8237	-99.699086	0.000426	4.257577	1.442506	0.000170
1663	1.6537e+02	-13.7804	-99.505303	0.000487	4.865802	1.648578	0.000195
1664	1.6547e+02	-13.7531	-99.291335	0.000537	5.372657	1.820305	0.000215
1665	1.6557e+02	-13.7034	-99.166184	0.000314	3.142497	1.064707	0.000126
1666	1.6567e+02	-13.6600	-98.927993	0.000598	5.980882	2.026378	0.000239
1667	1.6577e+02	-13.6247	-98.782656	0.000365	3.649352	1.236434	0.000146
1668	1.6587e+02	-13.5830	-98.613096	0.000426	4.257577	1.442506	0.000170
1669	1.6597e+02	-13.5574	-98.387017	0.000568	5.676769	1.923342	0.000227
1670	1.6607e+02	-13.5076	-98.205345	0.000456	4.561690	1.545542	0.000183
1671	1.6616e+02	-13.4675	-97.995414	0.000527	5.271286	1.785960	0.000211
1672	1.6626e+02	-13.4354	-97.817780	0.000446	4.460319	1.511197	0.000179
1673	1.6636e+02	-13.3857	-97.668406	0.000375	3.750723	1.270779	0.000150
1674	1.6646e+02	-13.3472	-97.458475	0.000527	5.271286	1.785960	0.000211
1675	1.6656e+02	-13.3135	-97.309101	0.000375	3.750723	1.270779	0.000150
1676	1.6666e+02	-13.2654	-97.070910	0.000598	5.980882	2.026378	0.000239
1677	1.6676e+02	-13.2285	-96.929611	0.000355	3.547981	1.202088	0.000142
1678	1.6686e+02	-13.1948	-96.719679	0.000527	5.271286	1.785960	0.000211
1679	1.6696e+02	-13.1467	-96.562231	0.000395	3.953464	1.339470	0.000158
1680	1.6706e+02	-13.1130	-96.352300	0.000527	5.271286	1.785960	0.000211
1681	1.6716e+02	-13.0665	-96.122183	0.000578	5.778140	1.957687	0.000231
1682	1.6726e+02	-13.0376	-96.005106	0.000294	2.939756	0.996016	0.000118
1683	1.6736e+02	-12.9959	-95.791138	0.000537	5.372657	1.820305	0.000215
1684	1.6746e+02	-12.9606	-95.589281	0.000507	5.068544	1.717269	0.000203
1685	1.6756e+02	-12.9061	-95.387425	0.000507	5.068544	1.717269	0.000203
1686	1.6766e+02	-12.8724	-95.238051	0.000375	3.750723	1.270779	0.000150
1687	1.6776e+02	-12.8307	-95.020045	0.000547	5.474028	1.854651	0.000219
1688	1.6786e+02	-12.7970	-94.862597	0.000395	3.953464	1.339470	0.000158
1689	1.6796e+02	-12.7569	-94.640555	0.000558	5.575398	1.888996	0.000223
1690	1.6806e+02	-12.7071	-94.491181	0.000375	3.750723	1.270779	0.000150
1691	1.6816e+02	-12.6718	-94.297398	0.000487	4.865802	1.648578	0.000195
1692	1.6825e+02	-12.6237	-94.083430	0.000537	5.372657	1.820305	0.000215
1693	1.6835e+02	-12.5980	-93.901759	0.000456	4.561690	1.545542	0.000183
1694	1.6845e+02	-12.5595	-93.716050	0.000466	4.663061	1.579888	0.000187
1695	1.6855e+02	-12.5178	-93.502082	0.000537	5.372657	1.820305	0.000215
1696	1.6865e+02	-12.4713	-93.280040	0.000558	5.575398	1.888996	0.000223
1697	1.6875e+02	-12.4392	-93.158926	0.000304	3.041126	1.030362	0.000122
1698	1.6885e+02	-12.3975	-92.973217	0.000466	4.663061	1.579888	0.000187
1699	1.6895e+02	-12.3510	-92.771361	0.000507	5.068544	1.717269	0.000203
1700	1.6905e+02	-12.3205	-92.561430	0.000527	5.271286	1.785960	0.000211
1701	1.6915e+02	-12.2724	-92.363610	0.000497	4.967173	1.682924	0.000199
1702	1.6925e+02	-12.2323	-92.173865	0.000476	4.764431	1.614233	0.000191
1703	1.6935e+02	-12.1809	-92.012379	0.000405	4.054835	1.373815	0.000162
1704	1.6945e+02	-12.1521	-91.822634	0.000476	4.764431	1.614233	0.000191
1705	1.6955e+02	-12.1104	-91.592517	0.000578	5.778140	1.957687	0.000231
1706	1.6965e+02	-12.0799	-91.410846	0.000456	4.561690	1.545542	0.000183
1707	1.6975e+02	-12.0317	-91.249361	0.000405	4.054835	1.373815	0.000162
1708	1.6985e+02	-12.0045	-91.047504	0.000507	5.068544	1.717269	0.000203
1709	1.6995e+02	-11.9515	-90.841610	0.000517	5.169915	1.751615	0.000207
1710	1.7005e+02	-11.9114	-90.615530	0.000568	5.676769	1.923342	0.000227
1711	1.7015e+02	-11.8729	-90.458082	0.000395	3.953464	1.339470	0.000158
1712	1.7024e+02	-11.8408	-90.276411	0.000456	4.561690	1.545542	0.000183
1713	1.7034e+02	-11.7975	-90.058405	0.000547	5.474028	1.854651	0.000219
1714	1.7044e+02	-11.7526	-89.856549	0.000507	5.068544	1.717269	0.000203
1715	1.7054e+02	-11.7253	-89.662766	0.000487	4.865802	1.648578	0.000195
1716	1.7064e+02	-11.6836	-89.489169	0.000436	4.358948	1.476852	0.000174
1717	1.7074e+02	-11.6323	-89.287313	0.000507	5.068544	1.717269	0.000203
1718	1.7084e+02	-11.5890	-89.085456	0.000507	5.068544	1.717269	0.000203
1719	1.7094e+02	-11.5553	-88.891673	0.000487	4.865802	1.648578	0.000195
1720	1.7104e+02	-11.5136	-88.714039	0.000446	4.460319	1.511197	0.000179
1721	1.7114e+02	-11.4783	-88.500071	0.000537	5.372657	1.820305	0.000215
1722	1.7124e+02	-11.4302	-88.302251	0.000497	4.967173	1.682924	0.000199
1723	1.7134e+02	-11.3901	-88.043875	0.000649	6.487736	2.198105	0.000260
1724	1.7144e+02	-11.3548	-87.862204	0.000456	4.561690	1.545542	0.000183
1725	1.7154e+02	-11.3147	-87.688607	0.000436	4.358948	1.476852	0.000174
1726	1.7164e+02	-11.2745	-87.466564	0.000558	5.575398	1.888996	0.000223
1727	1.7174e+02	-11.2377	-87.276819	0.000476	4.764431	1.614233	0.000191
1728	1.7184e+02	-11.1927	-87.070925	0.000517	5.169915	1.751615	0.000207
1729	1.7194e+02	-11.1574	-86.860994	0.000527	5.271286	1.785960	0.000211
1730	1.7204e+02	-11.1205	-86.679323	0.000456	4.561690	1.545542	0.000183
1731	1.7213e+02	-11.0820	-86.461318	0.000547	5.474028	1.854651	0.000219
1732	1.7223e+02	-11.0403	-86.251386	0.000527	5.271286	1.785960	0.000211
1733	1.7233e+02	-10.9970	-86.049530	0.000507	5.068544	1.717269	0.000203
1734	1.7243e+02	-10.9649	-85.855747	0.000487	4.865802	1.648578	0.000195
1735	1.7253e+02	-10.9152	-85.641779	0.000537	5.372657	1.820305	0.000215
1736	1.7263e+02	-10.8783	-85.427811	0.000537	5.372657	1.820305	0.000215
1737	1.7273e+02	-10.8462	-85.201731	0.000568	5.676769	1.923342	0.000227
1738	1.7283e+02	-10.7933	-85.011986	0.000476	4.764431	1.614233	0.000191
1739	1.7293e+02	-10.7564	-84.802055	0.000527	5.271286	1.785960	0.000211
1740	1.7303e+02	-10.7291	-84.580012	0.000558	5.575398	1.888996	0.000223
1741	1.7313e+02	-10.6842	-84.357970	0.000558	5.575398	1.888996	0.000223
1742	1.7323e+02	-10.6313	-84.208596	0.000375	3.750723	1.270779	0.000150
1743	1.7333e+02	-10.6008	-84.018850	0.000476	4.764431	1.614233	0.000191
1744	1.7343e+02	-10.5655	-83.764511	0.000639	6.386366	2.163759	0.000256
1745	1.7353e+02	-10.5222	-83.526320	0.000598	5.980882	2.026378	0.000239
1746	1.7363e+02	-10.4805	-83.372909	0.000385	3.852093	1.305125	0.000154
1747	1.7373e+02	-10.4323	-83.130681	0.000608	6.082253	2.060723	0.000243
1748	1.7383e+02	-10.3970	-82.928824	0.000507	5.068544	1.717269	0.000203
1749	1.7393e+02	-10.3585	-82.726967	0.000507	5.068544	1.717269	0.000203
1750	1.7403e+02	-10.3184	-82.525110	0.000507	5.068544	1.717269	0.000203
1751	1.7413e+02	-10.2671	-82.294993	0.000578	5.778140	1.957687	0.000231
1752	1.7422e+02	-10.2366	-82.093137	0.000507	5.068544	1.717269	0.000203
1753	1.7432e+02	-10.1949	-81.883206	0.000527	5.271286	1.785960	0.000211
1754	1.7442e+02	-10.1548	-81.669237	0.000537	5.372657	1.820305	0.000215
1755	1.7452e+02	-10.1243	-81.447195	0.000558	5.575398	1.888996	0.000223
1756	1.7462e+02	-10.0810	-81.229190	0.000547	5.474028	1.854651	0.000219
1757	1.7472e+02	-10.0409	-81.019259	0.000527	5.271286	1.785960	0.000211
1758	1.7482e+02	-9.9912	-80.841625	0.000446	4.460319	1.511197	0.000179
1759	1.7492e+02	-9.9639	-80.595359	0.000618	6.183624	2.095068	0.000248
1760	1.7502e+02	-9.9238	-80.385428	0.000527	5.271286	1.785960	0.000211
1761	1.7512e+02	-9.8821	-80.199720	0.000466	4.663061	1.579888	0.000187
1762	1.7522e+02	-9.8420	-79.917121	0.000710	7.095962	2.404177	0.000284
1763	1.7532e+02	-9.8019	-79.735449	0.000456	4.561690	1.545542	0.000183
1764	1.7542e+02	-9.7602	-79.533593	0.000507	5.068544	1.717269	0.000203
1765	1.7552e+02	-9.7184	-79.307513	0.000568	5.676769	1.923342	0.000227
1766	1.7562e+02	-9.6848	-79.085471	0.000558	5.575398	1.888996	0.000223
1767	1.7572e+02	-9.6366	-78.875539	0.000527	5.271286	1.785960	0.000211
1768	1.7582e+02	-9.6061	-78.685794	0.000476	4.764431	1.614233	0.000191
1769	1.7592e+02	-9.5628	-78.443566	0.000608	6.082253	2.060723	0.000243
1770	1.7602e+02	-9.5211	-78.209412	0.000588	5.879511	1.992032	0.000235
1771	1.7612e+02	-9.4858	-77.975258	0.000588	5.879511	1.992032	0.000235
1772	1.7621e+02	-9.4457	-77.749179	0.000568	5.676769	1.923342	0.000227
1773	1.7631e+02	-9.4072	-77.527136	0.000558	5.575398	1.888996	0.000223
1774	1.7641e+02	-9.3671	-77.385836	0.000355	3.547981	1.202088	0.000142
1775	1.7651e+02	-9.3270	-77.115348	0.000679	6.791849	2.301141	0.000272
1776	1.7661e+02	-9.2853	-76.893306	0.000558	5.575398	1.888996	0.000223
1777	1.7671e+02	-9.2468	-76.707598	0.000466	4.663061	1.579888	0.000187
1778	1.7681e+02	-9.1971	-76.465369	0.000608	6.082253	2.060723	0.000243
1779	1.7691e+02	-9.1650	-76.223141	0.000608	6.082253	2.060723	0.000243
1780	1.7701e+02	-9.1233	-76.001099	0.000558	5.575398	1.888996	0.000223
1781	1.7711e+02	-9.0864	-75.803279	0.000497	4.967173	1.682924	0.000199
1782	1.7721e+02	-9.0479	-75.589311	0.000537	5.372657	1.820305	0.000215
1783	1.7731e+02	-9.0110	-75.318823	0.000679	6.791849	2.301141	0.000272
1784	1.7741e+02	-8.9725	-75.112929	0.000517	5.169915	1.751615	0.000207
1785	1.7751e+02	-8.9372	-74.886849	0.000568	5.676769	1.923342	0.000227
1786	1.7761e+02	-8.8874	-74.701141	0.000466	4.663061	1.579888	0.000187
1787	1.7771e+02	-8.8506	-74.410467	0.000730	7.298703	2.472868	0.000292
1788	1.7781e+02	-8.8072	-74.180351	0.000578	5.778140	1.957687	0.000231
1789	1.7791e+02	-8.7671	-73.954271	0.000568	5.676769	1.923342	0.000227
1790	1.7801e+02	-8.7286	-73.768563	0.000466	4.663061	1.579888	0.000187
1791	1.7810e+02	-8.6837	-73.510186	0.000649	6.487736	2.198105	0.000260
1792	1.7820e+02	-8.6420	-73.340626	0.000426	4.257577	1.442506	0.000170
1793	1.7830e+02	-8.6083	-73.062064	0.000699	6.994591	2.369832	0.000280
1794	1.7840e+02	-8.5634	-72.852133	0.000527	5.271286	1.785960	0.000211
1795	1.7850e+02	-8.5329	-72.613942	0.000598	5.980882	2.026378	0.000239
1796	1.7860e+02	-8.4928	-72.395937	0.000547	5.474028	1.854651	0.000219
1797	1.7870e+02	-8.4511	-72.181968	0.000537	5.372657	1.820305	0.000215
1798	1.7880e+02	-8.4030	-71.963963	0.000547	5.474028	1.854651	0.000219
1799	1.7890e+02	-8.3725	-71.665215	0.000750	7.501445	2.541558	0.000300
1800	1.7900e+02	-8.3324	-71.503730	0.000405	4.054835	1.373815	0.000162
1801	1.7910e+02	-8.2843	-71.233242	0.000679	6.791849	2.301141	0.000272
1802	1.7920e+02	-8.2458	-71.075793	0.000395	3.953464	1.339470	0.000158
1803	1.7930e+02	-8.2073	-70.777045	0.000750	7.501445	2.541558	0.000300
1804	1.7940e+02	-8.1688	-70.619597	0.000395	3.953464	1.339470	0.000158
1805	1.7950e+02	-8.1335	-70.304700	0.000791	7.906929	2.678940	0.000316
1806	1.7960e+02	-8.0805	-70.118992	0.000466	4.663061	1.579888	0.000187
1807	1.7970e+02	-8.0516	-69.905024	0.000537	5.372657	1.820305	0.000215
1808	1.7980e+02	-8.0180	-69.674907	0.000578	5.778140	1.957687	0.000231
1809	1.7990e+02	-7.9746	-69.452865	0.000558	5.575398	1.888996	0.000223
1810	1.8000e+02	-7.9249	-69.222748	0.000578	5.778140	1.957687	0.000231
1811	1.8009e+02	-7.8928	-69.004743	0.000547	5.474028	1.854651	0.000219
1812	1.8019e+02	-7.8575	-68.770589	0.000588	5.879511	1.992032	0.000235
1813	1.8029e+02	-7.8110	-68.528361	0.000608	6.082253	2.060723	0.000243
1814	1.8039e+02	-7.7725	-68.269984	0.000649	6.487736	2.198105	0.000260
1815	1.8049e+02	-7.7308	-68.104461	0.000416	4.156206	1.408161	0.000166
1816	1.8059e+02	-7.6955	-67.797639	0.000770	7.704187	2.610249	0.000308
1817	1.8069e+02	-7.6490	-67.595782	0.000507	5.068544	1.717269	0.000203
1818	1.8079e+02	-7.6137	-67.377777	0.000547	5.474028	1.854651	0.000219
1819	1.8089e+02	-7.5688	-67.175920	0.000507	5.068544	1.717269	0.000203
1820	1.8099e+02	-7.5287	-66.913506	0.000659	6.589107	2.232450	0.000264
1821	1.8109e+02	-7.4934	-66.727798	0.000466	4.663061	1.579888	0.000187
1822	1.8119e+02	-7.4517	-66.469421	0.000649	6.487736	2.198105	0.000260
1823	1.8129e+02	-7.4164	-66.271602	0.000497	4.967173	1.682924	0.000199
1824	1.8139e+02	-7.3747	-65.984965	0.000720	7.197333	2.438522	0.000288
1825	1.8149e+02	-7.3249	-65.779071	0.000517	5.169915	1.751615	0.000207
1826	1.8159e+02	-7.2912	-65.524732	0.000639	6.386366	2.163759	0.000256
1827	1.8169e+02	-7.2511	-65.294615	0.000578	5.778140	1.957687	0.000231
1828	1.8179e+02	-7.2126	-65.068535	0.000568	5.676769	1.923342	0.000227
1829	1.8189e+02	-7.1725	-64.826307	0.000608	6.082253	2.060723	0.000243
1830	1.8199e+02	-7.1340	-64.620413	0.000517	5.169915	1.751615	0.000207
1831	1.8209e+02	-7.0875	-64.398371	0.000558	5.575398	1.888996	0.000223
1832	1.8218e+02	-7.0570	-64.131920	0.000669	6.690478	2.266795	0.000268
1833	1.8228e+02	-7.0121	-63.917952	0.000537	5.372657	1.820305	0.000215
1834	1.8238e+02	-6.9784	-63.655538	0.000659	6.589107	2.232450	0.000264
1835	1.8248e+02	-6.9335	-63.413310	0.000608	6.082253	2.060723	0.000243
1836	1.8258e+02	-6.8950	-63.191267	0.000558	5.575398	1.888996	0.000223
1837	1.8268e+02	-6.8501	-62.949039	0.000608	6.082253	2.060723	0.000243
1838	1.8278e+02	-6.8212	-62.731034	0.000547	5.474028	1.854651	0.000219
1839	1.8288e+02	-6.7731	-62.464583	0.000669	6.690478	2.266795	0.000268
1840	1.8298e+02	-6.7378	-62.290986	0.000436	4.358948	1.476852	0.000174
1841	1.8308e+02	-6.6832	-62.016461	0.000689	6.893220	2.335486	0.000276
1842	1.8318e+02	-6.6608	-61.774232	0.000608	6.082253	2.060723	0.000243
1843	1.8328e+02	-6.6143	-61.552190	0.000558	5.575398	1.888996	0.000223
1844	1.8338e+02	-6.5774	-61.313999	0.000598	5.980882	2.026378	0.000239
1845	1.8348e+02	-6.5405	-61.063697	0.000628	6.284995	2.129414	0.000252
1846	1.8358e+02	-6.4955	-60.833580	0.000578	5.778140	1.957687	0.000231
1847	1.8368e+02	-6.4635	-60.615575	0.000547	5.474028	1.854651	0.000219
1848	1.8378e+02	-6.4233	-60.361235	0.000639	6.386366	2.163759	0.000256
1849	1.8388e+02	-6.3848	-60.147267	0.000537	5.372657	1.820305	0.000215
1850	1.8398e+02	-6.3319	-59.937336	0.000527	5.271286	1.785960	0.000211
1851	1.8407e+02	-6.3062	-59.670885	0.000669	6.690478	2.266795	0.000268
1852	1.8417e+02	-6.2629	-59.400397	0.000679	6.791849	2.301141	0.000272
1853	1.8427e+02	-6.2292	-59.162206	0.000598	5.980882	2.026378	0.000239
1854	1.8437e+02	-6.1827	-58.960349	0.000507	5.068544	1.717269	0.000203
1855	1.8447e+02	-6.1346	-58.665638	0.000740	7.400074	2.507213	0.000296
1856	1.8457e+02	-6.1009	-58.504153	0.000405	4.054835	1.373815	0.000162
1857	1.8467e+02	-6.0592	-58.213479	0.000730	7.298703	2.472868	0.000292
1858	1.8477e+02	-6.0095	-57.979325	0.000588	5.879511	1.992032	0.000235
1859	1.8487e+02	-5.9886	-57.720948	0.000649	6.487736	2.198105	0.000260
1860	1.8497e+02	-5.9437	-57.498906	0.000558	5.575398	1.888996	0.000223
1861	1.8507e+02	-5.9036	-57.244566	0.000639	6.386366	2.163759	0.000256
1862	1.8517e+02	-5.8506	-57.022524	0.000558	5.575398	1.888996	0.000223
1863	1.8527e+02	-5.8314	-56.768184	0.000639	6.386366	2.163759	0.000256
1864	1.8537e+02	-5.7736	-56.566327	0.000507	5.068544	1.717269	0.000203
1865	1.8547e+02	-5.7432	-56.316025	0.000628	6.284995	2.129414	0.000252
1866	1.8557e+02	-5.6918	-56.025351	0.000730	7.298703	2.472868	0.000292
1867	1.8567e+02	-5.6629	-55.787160	0.000598	5.980882	2.026378	0.000239
1868	1.8577e+02	-5.6164	-55.561081	0.000568	5.676769	1.923342	0.000227
1869	1.8587e+02	-5.5827	-55.290593	0.000679	6.791849	2.301141	0.000272
1870	1.8597e+02	-5.5298	-55.076624	0.000537	5.372657	1.820305	0.000215
1871	1.8606e+02	-5.5025	-54.814210	0.000659	6.589107	2.232450	0.000264
1872	1.8616e+02	-5.4608	-54.620428	0.000487	4.865802	1.648578	0.000195
1873	1.8626e+02	-5.4239	-54.358014	0.000659	6.589107	2.232450	0.000264
1874	1.8636e+02	-5.3838	-54.095600	0.000659	6.589107	2.232450	0.000264
1875	1.8646e+02	-5.3437	-53.833186	0.000659	6.589107	2.232450	0.000264
1876	1.8656e+02	-5.3036	-53.586921	0.000618	6.183624	2.095068	0.000248
1877	1.8666e+02	-5.2651	-53.405250	0.000456	4.561690	1.545542	0.000183
1878	1.8676e+02	-5.2266	-53.110539	0.000740	7.400074	2.507213	0.000296
1879	1.8686e+02	-5.1785	-52.844088	0.000669	6.690478	2.266795	0.000268
1880	1.8696e+02	-5.1400	-52.638194	0.000517	5.169915	1.751615	0.000207
1881	1.8706e+02	-5.1047	-52.383855	0.000639	6.386366	2.163759	0.000256
1882	1.8716e+02	-5.0662	-52.117404	0.000669	6.690478	2.266795	0.000268
1883	1.8726e+02	-5.0293	-51.863064	0.000639	6.386366	2.163759	0.000256
1884	1.8736e+02	-4.9892	-51.628910	0.000588	5.879511	1.992032	0.000235
1885	1.8746e+02	-4.9458	-51.350348	0.000699	6.994591	2.369832	0.000280
1886	1.8756e+02	-4.9009	-51.079860	0.000679	6.791849	2.301141	0.000272
1887	1.8766e+02	-4.8721	-50.853780	0.000568	5.676769	1.923342	0.000227
1888	1.8776e+02	-4.8287	-50.599441	0.000639	6.386366	2.163759	0.000256
1889	1.8786e+02	-4.7806	-50.345101	0.000639	6.386366	2.163759	0.000256
1890	1.8796e+02	-4.7389	-50.086725	0.000649	6.487736	2.198105	0.000260
1891	1.8806e+02	-4.7084	-49.848534	0.000598	5.980882	2.026378	0.000239
1892	1.8815e+02	-4.6619	-49.549785	0.000750	7.501445	2.541558	0.000300
1893	1.8825e+02	-4.6170	-49.376189	0.000436	4.358948	1.476852	0.000174
1894	1.8835e+02	-4.5801	-49.069366	0.000770	7.704187	2.610249	0.000308
1895	1.8845e+02	-4.5400	-48.815027	0.000639	6.386366	2.163759	0.000256
1896	1.8855e+02	-4.4935	-48.556650	0.000649	6.487736	2.198105	0.000260
1897	1.8865e+02	-4.4646	-48.286162	0.000679	6.791849	2.301141	0.000272
1898	1.8875e+02	-4.4277	-48.003562	0.000710	7.095962	2.404177	0.000284
1899	1.8885e+02	-4.3876	-47.769409	0.000588	5.879511	1.992032	0.000235
1900	1.8895e+02	-4.3459	-47.494883	0.000689	6.893220	2.335486	0.000276
1901	1.8905e+02	-4.3074	-47.288989	0.000517	5.169915	1.751615	0.000207
1902	1.8915e+02	-4.2737	-47.010427	0.000699	6.994591	2.369832	0.000280
1903	1.8925e+02	-4.2239	-46.752050	0.000649	6.487736	2.198105	0.000260
1904	1.8935e+02	-4.1887	-46.509822	0.000608	6.082253	2.060723	0.000243
1905	1.8945e+02	-4.1453	-46.186851	0.000811	8.109670	2.747631	0.000325
1906	1.8955e+02	-4.1052	-45.936549	0.000628	6.284995	2.129414	0.000252
1907	1.8965e+02	-4.0603	-45.706432	0.000578	5.778140	1.957687	0.000231
1908	1.8975e+02	-4.0298	-45.431907	0.000689	6.893220	2.335486	0.000276
1909	1.8985e+02	-3.9945	-45.185642	0.000618	6.183624	2.095068	0.000248
1910	1.8995e+02	-3.9448	-44.894968	0.000730	7.298703	2.472868	0.000292
1911	1.9004e+02	-3.9063	-44.648703	0.000618	6.183624	2.095068	0.000248
1912	1.9014e+02	-3.8630	-44.374177	0.000689	6.893220	2.335486	0.000276
1913	1.9024e+02	-3.8245	-44.123875	0.000628	6.284995	2.129414	0.000252
1914	1.9034e+02	-3.7908	-43.825127	0.000750	7.501445	2.541558	0.000300
1915	1.9044e+02	-3.7571	-43.550602	0.000689	6.893220	2.335486	0.000276
1916	1.9054e+02	-3.7058	-43.312411	0.000598	5.980882	2.026378	0.000239
1917	1.9064e+02	-3.6753	-43.045960	0.000669	6.690478	2.266795	0.000268
1918	1.9074e+02	-3.6304	-42.779509	0.000669	6.690478	2.266795	0.000268
1919	1.9084e+02	-3.5887	-42.488835	0.000730	7.298703	2.472868	0.000292
1920	1.9094e+02	-3.5502	-42.230458	0.000649	6.487736	2.198105	0.000260
1921	1.9104e+02	-3.5181	-41.951896	0.000699	6.994591	2.369832	0.000280
1922	1.9114e+02	-3.4571	-41.673334	0.000699	6.994591	2.369832	0.000280
1923	1.9124e+02	-3.4347	-41.435143	0.000598	5.980882	2.026378	0.000239
1924	1.9134e+02	-3.3978	-41.124283	0.000781	7.805558	2.644595	0.000312
1925	1.9144e+02	-3.3512	-40.869944	0.000639	6.386366	2.163759	0.000256
1926	1.9154e+02	-3.3063	-40.647901	0.000558	5.575398	1.888996	0.000223
1927	1.9164e+02	-3.2678	-40.349153	0.000750	7.501445	2.541558	0.000300
1928	1.9174e+02	-3.2309	-40.066554	0.000710	7.095962	2.404177	0.000284
1929	1.9184e+02	-3.1972	-39.751657	0.000791	7.906929	2.678940	0.000316
1930	1.9194e+02	-3.1523	-39.545763	0.000517	5.169915	1.751615	0.000207
1931	1.9203e+02	-3.1106	-39.259126	0.000720	7.197333	2.438522	0.000288
1932	1.9213e+02	-3.0673	-38.964416	0.000740	7.400074	2.507213	0.000296
1933	1.9223e+02	-3.0256	-38.693927	0.000679	6.791849	2.301141	0.000272
1934	1.9233e+02	-2.9839	-38.471885	0.000558	5.575398	1.888996	0.000223
1935	1.9243e+02	-2.9582	-38.156988	0.000791	7.906929	2.678940	0.000316
1936	1.9253e+02	-2.9101	-37.862278	0.000740	7.400074	2.507213	0.000296
1937	1.9263e+02	-2.8668	-37.571604	0.000730	7.298703	2.472868	0.000292
1938	1.9273e+02	-2.8347	-37.289004	0.000710	7.095962	2.404177	0.000284
1939	1.9283e+02	-2.7914	-37.018516	0.000679	6.791849	2.301141	0.000272
1940	1.9293e+02	-2.7545	-36.764177	0.000639	6.386366	2.163759	0.000256
1941	1.9303e+02	-2.7128	-36.457354	0.000770	7.704187	2.610249	0.000308
1942	1.9313e+02	-2.6694	-36.162643	0.000740	7.400074	2.507213	0.000296
1943	1.9323e+02	-2.6325	-35.884081	0.000699	6.994591	2.369832	0.000280
1944	1.9333e+02	-2.5924	-35.621667	0.000659	6.589107	2.232450	0.000264
1945	1.9343e+02	-2.5571	-35.330993	0.000730	7.298703	2.472868	0.000292
1946	1.9353e+02	-2.5122	-35.052431	0.000699	6.994591	2.369832	0.000280
1947	1.9363e+02	-2.4705	-34.765794	0.000720	7.197333	2.438522	0.000288
1948	1.9373e+02	-2.4384	-34.523566	0.000608	6.082253	2.060723	0.000243
1949	1.9383e+02	-2.3935	-34.216744	0.000770	7.704187	2.610249	0.000308
1950	1.9393e+02	-2.3502	-33.913959	0.000760	7.602816	2.575904	0.000304
1951	1.9403e+02	-2.3101	-33.655582	0.000649	6.487736	2.198105	0.000260
1952	1.9412e+02	-2.2732	-33.356834	0.000750	7.501445	2.541558	0.000300
1953	1.9422e+02	-2.2283	-33.041937	0.000791	7.906929	2.678940	0.000316
1954	1.9432e+02	-2.1962	-32.771449	0.000679	6.791849	2.301141	0.000272
1955	1.9442e+02	-2.1561	-32.472701	0.000750	7.501445	2.541558	0.000300
1956	1.9452e+02	-2.1144	-32.194139	0.000699	6.994591	2.369832	0.000280
1957	1.9462e+02	-2.0759	-31.911539	0.000710	7.095962	2.404177	0.000284
1958	1.9472e+02	-2.0422	-31.624903	0.000720	7.197333	2.438522	0.000288
1959	1.9482e+02	-1.9925	-31.326155	0.000750	7.501445	2.541558	0.000300
1960	1.9492e+02	-1.9652	-31.035481	0.000730	7.298703	2.472868	0.000292
1961	1.9502e+02	-1.9155	-30.720584	0.000791	7.906929	2.678940	0.000316
1962	1.9512e+02	-1.8786	-30.470282	0.000628	6.284995	2.129414	0.000252
1963	1.9522e+02	-1.8401	-30.183645	0.000720	7.197333	2.438522	0.000288
1964	1.9532e+02	-1.7871	-29.864712	0.000801	8.008300	2.713285	0.000321
1965	1.9542e+02	-1.7598	-29.614409	0.000628	6.284995	2.129414	0.000252
1966	1.9552e+02	-1.7165	-29.295475	0.000801	8.008300	2.713285	0.000321
1967	1.9562e+02	-1.6812	-28.964430	0.000831	8.312412	2.816322	0.000333
1968	1.9572e+02	-1.6315	-28.742388	0.000558	5.575398	1.888996	0.000223
1969	1.9582e+02	-1.5914	-28.427491	0.000791	7.906929	2.678940	0.000316
1970	1.9592e+02	-1.5609	-28.116632	0.000781	7.805558	2.644595	0.000312
1971	1.9601e+02	-1.5224	-27.854218	0.000659	6.589107	2.232450	0.000264
1972	1.9611e+02	-1.4807	-27.575656	0.000699	6.994591	2.369832	0.000280
1973	1.9621e+02	-1.4310	-27.284982	0.000730	7.298703	2.472868	0.000292
1974	1.9631e+02	-1.4037	-26.945862	0.000852	8.515154	2.885012	0.000341
1975	1.9641e+02	-1.3700	-26.659226	0.000720	7.197333	2.438522	0.000288
1976	1.9651e+02	-1.3155	-26.408923	0.000628	6.284995	2.129414	0.000252
1977	1.9661e+02	-1.2786	-26.045581	0.000912	9.123379	3.091085	0.000365
1978	1.9671e+02	-1.2369	-25.799316	0.000618	6.183624	2.095068	0.000248
1979	1.9681e+02	-1.2080	-25.528828	0.000679	6.791849	2.301141	0.000272
1980	1.9691e+02	-1.1502	-25.173560	0.000892	8.920638	3.022394	0.000357
1981	1.9701e+02	-1.1165	-24.903072	0.000679	6.791849	2.301141	0.000272
1982	1.9711e+02	-1.0813	-24.592212	0.000781	7.805558	2.644595	0.000312
1983	1.9721e+02	-1.0379	-24.325761	0.000669	6.690478	2.266795	0.000268
1984	1.9731e+02	-0.9978	-24.010865	0.000791	7.906929	2.678940	0.000316
1985	1.9741e+02	-0.9513	-23.720191	0.000730	7.298703	2.472868	0.000292
1986	1.9751e+02	-0.9224	-23.445666	0.000689	6.893220	2.335486	0.000276
1987	1.9761e+02	-0.8775	-23.106546	0.000852	8.515154	2.885012	0.000341
1988	1.9771e+02	-0.8454	-22.815873	0.000730	7.298703	2.472868	0.000292
1989	1.9781e+02	-0.7989	-22.553459	0.000659	6.589107	2.232450	0.000264
1990	1.9791e+02	-0.7508	-22.254711	0.000750	7.501445	2.541558	0.000300
1991	1.9800e+02	-0.7187	-21.927703	0.000821	8.211041	2.781976	0.000329
1992	1.9810e+02	-0.6786	-21.632992	0.000740	7.400074	2.507213	0.000296
1993	1.9820e+02	-0.6417	-21.346355	0.000720	7.197333	2.438522	0.000288
1994	1.9830e+02	-0.6000	-21.063756	0.000710	7.095962	2.404177	0.000284
1995	1.9840e+02	-0.5599	-20.752896	0.000781	7.805558	2.644595	0.000312
1996	1.9850e+02	-0.5182	-20.474334	0.000699	6.994591	2.369832	0.000280
1997	1.9860e+02	-0.4781	-20.187697	0.000720	7.197333	2.438522	0.000288
1998	1.9870e+02	-0.4380	-19.872801	0.000791	7.906929	2.678940	0.000316
1999	1.9880e+02	-0.3978	-19.553867	0.000801	8.008300	2.713285	0.000321
2000	1.9890e+02	-0.3642	-19.206673	0.000872	8.717896	2.953703	0.000349
2001	1.9900e+02	-0.3241	-18.928111	0.000699	6.994591	2.369832	0.000280
2002	1.9910e+02	-0.2727	-18.645511	0.000710	7.095962	2.404177	0.000284
2003	1.9920e+02	-0.2471	-18.334652	0.000781	7.805558	2.644595	0.000312
2004	1.9930e+02	-0.1957	-18.100498	0.000588	5.879511	1.992032	0.000235
2005	1.9940e+02	-0.1556	-17.737156	0.000912	9.123379	3.091085	0.000365
2006	1.9950e+02	-0.1203	-17.503002	0.000588	5.879511	1.992032	0.000235
2007	1.9960e+02	-0.0802	-17.155808	0.000872	8.717896	2.953703	0.000349
2008	1.9970e+02	-0.0369	-16.869172	0.000720	7.197333	2.438522	0.000288
2009	1.9980e+02	0.0000	-16.550238	0.000720	7.197333	2.438522	0.000321

Center data before PMax,+/-Pr and +/-Vc Calc.

PMax (uC/cm2):	1.23e+02
Pr (uC/cm2):	7.53e+00
-Pr (uC/cm2):	-1.66e+01
PLoss (uC/cm2):	-1.45e+01
Vc:	2.99e-01
-Vc:	-9.86e-01
C (Max-Eff) (nF):	6.14e-01
K (Eff):	2.08e+03
Vert. (+/-Pr) Shift (uC/cm2):	-4.51e+00
Horiz. Shift (+/-Vc):	-3.44e-01
Offset (uC/cm2):	1.97e+00

A (Loop Area - uC/cm2·Volts):	1.21e-01



Hysteresis Version: 5.48.1 - Radiant Technologies, Inc., 1999 - 9/12/24

