»»»»»»»»»»»»»»»»»»»»»»»»»»»»»»»»»»»» Hysteresis ««««««««««««««««««««««««««««««««««««
»»»  Executed Version:	5.48.1
»»»  Vision Version:	5.48.4 (R)
»»»  Vision Compiled:	9/18/24
»»»  Driver Version:	5.47.0
»»»  Windows Version:	Windows 8 or 8.1
»»»  Processor Information:	x86 (AMD or Intel) - 32 Processors
»»»  Tester Name:	PMF21124-494 (100V)
»»»  Tester S/N:	PMF21124-494
»»»  Internal Amp Type:	100V RevK 270k
»»»  Internal Amp S/N:	iAB2-596/K     
»»»  Execution Count:	1
»»»»»»»»»»»»»»»»»»»»»»»»»»»»»»»»»»»»»»»»»»««««««««««««««««««««««««««««««««««««««««««

Stored:	6/5/2025 - 11:2:45
Configured:	06/05/25 10:43:40 AM
Executed:	06/05/25 11:02:08 AM

»»»»»»»»»»»»»»»»»»»»»»»»»»»»»»»»»»» Sample Info ««««««««««««««««««««««««««««««««««««
Sample Name:	
Lot Name:	
Wafer Name:	
Die Row/Column:	0/0
Capacitor Number:	0
Sample Area (cm2):	1.00e-04
Sample Thickness (microns):	3.00e-01

Amplifier:	Internal

»»»»»»»»»»»»»»»»»»»»»»»»»»»»»»»»»»» Tester Info «««««««««««««««««««««««««««««««««««
Tester Name:	PMF21124-494 (100V)
Tester Serial Number:	PMF21124-494
Return Signal Amp. Level:	0.19 [Index: 3]

»»»»»»»»»»»»»»»»»»»»»»»»»»»»»»»» Hysteresis Info ««««««««««««««««««««««««««««««««««
Task Name:	Hyst-187
Volts:	20.00
Field:	666.67 (kV/cm)
DCBias:	0.00
DCField:	0.00 (kV/cm)
Hysteresis Period (ms):	2.00e+02
Preset:	Enabled
Preset Delay (ms):	1.00e+03
Profile:	Standard Bipolar

»»»»»»»»»»»»»»»»»»»»»»»»»»»»»»»»»»»»»» Data «««««««««««««««««««««««««««««««««««««««
Points:	2009

Valid Data

Point	Time (ms)	Drive Voltage	Measured Polarization (uC/cm2)	Capacitance (uF)	Normalized Capacitance (uF/cm2)	Dielectric Constant	Instantaneous Current (mA)
   1	0.0000e+00	-0.0193	-4.858693	0.000578	5.777213	1.957373	0.000231
   2	9.9500e-02	0.0193	-4.628576	0.000578	5.777213	1.957373	0.000231
   3	1.9900e-01	0.0513	-4.358088	0.000679	6.790759	2.300772	0.000272
   4	2.9850e-01	0.0882	-4.099711	0.000649	6.486695	2.197752	0.000260
   5	3.9800e-01	0.1380	-3.809038	0.000730	7.297532	2.472471	0.000292
   6	4.9750e-01	0.1700	-3.514327	0.000740	7.398887	2.506811	0.000296
   7	5.9700e-01	0.2246	-3.211541	0.000760	7.601596	2.575490	0.000304
   8	6.9650e-01	0.2519	-2.928942	0.000709	7.094823	2.403791	0.000284
   9	7.9600e-01	0.2984	-2.650380	0.000699	6.993468	2.369451	0.000280
  10	8.9550e-01	0.3385	-2.359706	0.000730	7.297532	2.472471	0.000292
  11	9.9500e-01	0.3770	-2.032698	0.000821	8.209724	2.781530	0.000329
  12	1.0945e+00	0.4187	-1.814693	0.000547	5.473149	1.854353	0.000219
  13	1.1940e+00	0.4604	-1.507870	0.000770	7.702951	2.609830	0.000308
  14	1.2935e+00	0.4941	-1.168751	0.000851	8.513788	2.884549	0.000341
  15	1.3930e+00	0.5342	-0.934597	0.000588	5.878568	1.991713	0.000235
  16	1.4925e+00	0.5791	-0.611626	0.000811	8.108369	2.747190	0.000325
  17	1.5920e+00	0.6192	-0.316915	0.000740	7.398887	2.506811	0.000296
  18	1.6915e+00	0.6497	-0.038353	0.000699	6.993468	2.369451	0.000280
  19	1.7910e+00	0.6962	0.308841	0.000872	8.716497	2.953229	0.000349
  20	1.8905e+00	0.7331	0.571255	0.000659	6.588050	2.232092	0.000264
  21	1.9900e+00	0.7684	0.853854	0.000709	7.094823	2.403791	0.000284
  22	2.0895e+00	0.8230	1.201048	0.000872	8.716497	2.953229	0.000349
  23	2.1890e+00	0.8518	1.451350	0.000628	6.283986	2.129072	0.000252
  24	2.2885e+00	0.8920	1.766247	0.000791	7.905660	2.678510	0.000316
  25	2.3880e+00	0.9337	2.020586	0.000639	6.385341	2.163412	0.000256
  26	2.4875e+00	0.9738	2.355669	0.000841	8.412433	2.850209	0.000337
  27	2.5870e+00	1.0123	2.630194	0.000689	6.892114	2.335111	0.000276
  28	2.6865e+00	1.0556	2.937016	0.000770	7.702951	2.609830	0.000308
  29	2.7860e+00	1.0909	3.211541	0.000689	6.892114	2.335111	0.000276
  30	2.8855e+00	1.1390	3.538549	0.000821	8.209724	2.781530	0.000329
  31	2.9850e+00	1.1727	3.865557	0.000821	8.209724	2.781530	0.000329
  32	3.0845e+00	1.2112	4.136046	0.000679	6.790759	2.300772	0.000272
  33	3.1840e+00	1.2577	4.442868	0.000770	7.702951	2.609830	0.000308
  34	3.2835e+00	1.2898	4.741616	0.000750	7.500242	2.541151	0.000300
  35	3.3830e+00	1.3331	5.008067	0.000669	6.689405	2.266432	0.000268
  36	3.4825e+00	1.3716	5.371409	0.000912	9.121915	3.090589	0.000365
  37	3.5820e+00	1.4133	5.645934	0.000689	6.892114	2.335111	0.000276
  38	3.6815e+00	1.4550	5.920460	0.000689	6.892114	2.335111	0.000276
  39	3.7810e+00	1.4935	6.231319	0.000780	7.804305	2.644170	0.000312
  40	3.8805e+00	1.5304	6.554290	0.000811	8.108369	2.747190	0.000325
  41	3.9800e+00	1.5625	6.844964	0.000730	7.297532	2.472471	0.000292
  42	4.0795e+00	1.6139	7.159860	0.000791	7.905660	2.678510	0.000316
  43	4.1790e+00	1.6524	7.430348	0.000679	6.790759	2.300772	0.000272
  44	4.2785e+00	1.6909	7.785616	0.000892	8.919206	3.021909	0.000357
  45	4.3780e+00	1.7326	8.052067	0.000669	6.689405	2.266432	0.000268
  46	4.4775e+00	1.7743	8.342741	0.000730	7.297532	2.472471	0.000292
  47	4.5770e+00	1.8192	8.661675	0.000801	8.007015	2.712850	0.000321
  48	4.6765e+00	1.8561	8.956386	0.000740	7.398887	2.506811	0.000296
  49	4.7760e+00	1.8866	9.255134	0.000750	7.500242	2.541151	0.000300
  50	4.8755e+00	1.9315	9.541770	0.000720	7.196178	2.438131	0.000288
  51	4.9750e+00	1.9732	9.864741	0.000811	8.108369	2.747190	0.000325
  52	5.0745e+00	2.0117	10.159452	0.000740	7.398887	2.506811	0.000296
  53	5.1740e+00	2.0614	10.470312	0.000780	7.804305	2.644170	0.000312
  54	5.2735e+00	2.0999	10.793282	0.000811	8.108369	2.747190	0.000325
  55	5.3730e+00	2.1272	11.116253	0.000811	8.108369	2.747190	0.000325
  56	5.4725e+00	2.1721	11.390778	0.000689	6.892114	2.335111	0.000276
  57	5.5720e+00	2.2074	11.685489	0.000740	7.398887	2.506811	0.000296
  58	5.6715e+00	2.2491	12.012497	0.000821	8.209724	2.781530	0.000329
  59	5.7710e+00	2.2892	12.319320	0.000770	7.702951	2.609830	0.000308
  60	5.8705e+00	2.3229	12.626142	0.000770	7.702951	2.609830	0.000308
  61	5.9700e+00	2.3711	12.896630	0.000679	6.790759	2.300772	0.000272
  62	6.0695e+00	2.4128	13.239787	0.000862	8.615142	2.918889	0.000345
  63	6.1690e+00	2.4561	13.534498	0.000740	7.398887	2.506811	0.000296
  64	6.2685e+00	2.4785	13.861506	0.000821	8.209724	2.781530	0.000329
  65	6.3680e+00	2.5267	14.131994	0.000679	6.790759	2.300772	0.000272
  66	6.4675e+00	2.5716	14.446890	0.000791	7.905660	2.678510	0.000316
  67	6.5670e+00	2.6053	14.773898	0.000821	8.209724	2.781530	0.000329
  68	6.6665e+00	2.6566	15.020164	0.000618	6.182632	2.094732	0.000248
  69	6.7660e+00	2.6919	15.363320	0.000862	8.615142	2.918889	0.000345
  70	6.8655e+00	2.7208	15.653994	0.000730	7.297532	2.472471	0.000292
  71	6.9650e+00	2.7625	15.997150	0.000862	8.615142	2.918889	0.000345
  72	7.0645e+00	2.8090	16.259564	0.000659	6.588050	2.232092	0.000264
  73	7.1640e+00	2.8587	16.570424	0.000780	7.804305	2.644170	0.000312
  74	7.2635e+00	2.8892	16.885320	0.000791	7.905660	2.678510	0.000316
  75	7.3630e+00	2.9357	17.196180	0.000780	7.804305	2.644170	0.000312
  76	7.4625e+00	2.9775	17.515113	0.000801	8.007015	2.712850	0.000321
  77	7.5620e+00	2.9999	17.789639	0.000689	6.892114	2.335111	0.000276
  78	7.6615e+00	3.0464	18.100498	0.000780	7.804305	2.644170	0.000312
  79	7.7610e+00	3.0930	18.375023	0.000689	6.892114	2.335111	0.000276
  80	7.8605e+00	3.1266	18.706068	0.000831	8.311078	2.815870	0.000333
  81	7.9600e+00	3.1684	19.037114	0.000831	8.311078	2.815870	0.000333
  82	8.0595e+00	3.2069	19.307602	0.000679	6.790759	2.300772	0.000272
  83	8.1590e+00	3.2486	19.610387	0.000760	7.601596	2.575490	0.000304
  84	8.2585e+00	3.2967	19.937395	0.000821	8.209724	2.781530	0.000329
  85	8.3580e+00	3.3240	20.219994	0.000709	7.094823	2.403791	0.000284
  86	8.4575e+00	3.3673	20.522780	0.000760	7.601596	2.575490	0.000304
  87	8.5570e+00	3.3962	20.841713	0.000801	8.007015	2.712850	0.000321
  88	8.6565e+00	3.4459	21.108164	0.000669	6.689405	2.266432	0.000268
  89	8.7560e+00	3.4956	21.447284	0.000851	8.513788	2.884549	0.000341
  90	8.8555e+00	3.5373	21.693549	0.000618	6.182632	2.094732	0.000248
  91	8.9550e+00	3.5662	22.036705	0.000862	8.615142	2.918889	0.000345
  92	9.0545e+00	3.6143	22.303156	0.000669	6.689405	2.266432	0.000268
  93	9.1540e+00	3.6416	22.638239	0.000841	8.412433	2.850209	0.000337
  94	9.2535e+00	3.6833	22.957172	0.000801	8.007015	2.712850	0.000321
  95	9.3530e+00	3.7122	23.247846	0.000730	7.297532	2.472471	0.000292
  96	9.4525e+00	3.7603	23.522371	0.000689	6.892114	2.335111	0.000276
  97	9.5520e+00	3.8004	23.869565	0.000872	8.716497	2.953229	0.000349
  98	9.6515e+00	3.8437	24.156202	0.000720	7.196178	2.438131	0.000288
  99	9.7510e+00	3.8903	24.418616	0.000659	6.588050	2.232092	0.000264
 100	9.8505e+00	3.9240	24.761772	0.000862	8.615142	2.918889	0.000345
 101	9.9500e+00	3.9689	25.092817	0.000831	8.311078	2.815870	0.000333
 102	1.0050e+01	4.0042	25.359268	0.000669	6.689405	2.266432	0.000268
 103	1.0149e+01	4.0475	25.637831	0.000699	6.993468	2.369451	0.000280
 104	1.0248e+01	4.0796	25.920430	0.000709	7.094823	2.403791	0.000284
 105	1.0348e+01	4.1293	26.271661	0.000882	8.817852	2.987569	0.000353
 106	1.0447e+01	4.1710	26.578483	0.000770	7.702951	2.609830	0.000308
 107	1.0547e+01	4.1983	26.865120	0.000720	7.196178	2.438131	0.000288
 108	1.0646e+01	4.2352	27.208276	0.000862	8.615142	2.918889	0.000345
 109	1.0746e+01	4.2769	27.502987	0.000740	7.398887	2.506811	0.000296
 110	1.0845e+01	4.3250	27.777512	0.000689	6.892114	2.335111	0.000276
 111	1.0945e+01	4.3635	28.120669	0.000862	8.615142	2.918889	0.000345
 112	1.1044e+01	4.4116	28.407306	0.000720	7.196178	2.438131	0.000288
 113	1.1144e+01	4.4566	28.665682	0.000649	6.486695	2.197752	0.000260
 114	1.1243e+01	4.4838	29.000765	0.000841	8.412433	2.850209	0.000337
 115	1.1343e+01	4.5255	29.339884	0.000851	8.513788	2.884549	0.000341
 116	1.1443e+01	4.5640	29.622483	0.000709	7.094823	2.403791	0.000284
 117	1.1542e+01	4.6058	29.888934	0.000669	6.689405	2.266432	0.000268
 118	1.1642e+01	4.6330	30.244202	0.000892	8.919206	3.021909	0.000357
 119	1.1741e+01	4.6795	30.510653	0.000669	6.689405	2.266432	0.000268
 120	1.1841e+01	4.7245	30.821513	0.000780	7.804305	2.644170	0.000312
 121	1.1940e+01	4.7694	31.100075	0.000699	6.993468	2.369451	0.000280
 122	1.2040e+01	4.7902	31.350378	0.000628	6.283986	2.129072	0.000252
 123	1.2139e+01	4.8336	31.725831	0.000943	9.425979	3.193608	0.000377
 124	1.2239e+01	4.8833	32.020542	0.000740	7.398887	2.506811	0.000296
 125	1.2338e+01	4.9266	32.323327	0.000760	7.601596	2.575490	0.000304
 126	1.2438e+01	4.9667	32.593815	0.000679	6.790759	2.300772	0.000272
 127	1.2537e+01	4.9940	32.912749	0.000801	8.007015	2.712850	0.000321
 128	1.2636e+01	5.0405	33.219571	0.000770	7.702951	2.609830	0.000308
 129	1.2736e+01	5.0822	33.486022	0.000669	6.689405	2.266432	0.000268
 130	1.2835e+01	5.1223	33.788808	0.000760	7.601596	2.575490	0.000304
 131	1.2935e+01	5.1640	34.123890	0.000841	8.412433	2.850209	0.000337
 132	1.3034e+01	5.1977	34.366118	0.000608	6.081277	2.060392	0.000243
 133	1.3134e+01	5.2410	34.681015	0.000791	7.905660	2.678510	0.000316
 134	1.3233e+01	5.2763	34.995911	0.000791	7.905660	2.678510	0.000316
 135	1.3333e+01	5.3212	35.262362	0.000669	6.689405	2.266432	0.000268
 136	1.3432e+01	5.3581	35.577259	0.000791	7.905660	2.678510	0.000316
 137	1.3532e+01	5.4063	35.884081	0.000770	7.702951	2.609830	0.000308
 138	1.3632e+01	5.4319	36.130346	0.000618	6.182632	2.094732	0.000248
 139	1.3731e+01	5.4833	36.469466	0.000851	8.513788	2.884549	0.000341
 140	1.3831e+01	5.5202	36.743991	0.000689	6.892114	2.335111	0.000276
 141	1.3930e+01	5.5571	37.042739	0.000750	7.500242	2.541151	0.000300
 142	1.4030e+01	5.5956	37.337450	0.000740	7.398887	2.506811	0.000296
 143	1.4129e+01	5.6309	37.624087	0.000720	7.196178	2.438131	0.000288
 144	1.4229e+01	5.6774	37.938983	0.000791	7.905660	2.678510	0.000316
 145	1.4328e+01	5.7239	38.205434	0.000669	6.689405	2.266432	0.000268
 146	1.4428e+01	5.7576	38.520331	0.000791	7.905660	2.678510	0.000316
 147	1.4527e+01	5.8025	38.790819	0.000679	6.790759	2.300772	0.000272
 148	1.4627e+01	5.8314	39.053233	0.000659	6.588050	2.232092	0.000264
 149	1.4726e+01	5.8763	39.380241	0.000821	8.209724	2.781530	0.000329
 150	1.4825e+01	5.9196	39.650729	0.000679	6.790759	2.300772	0.000272
 151	1.4925e+01	5.9565	39.973700	0.000811	8.108369	2.747190	0.000325
 152	1.5024e+01	5.9982	40.256299	0.000709	7.094823	2.403791	0.000284
 153	1.5124e+01	6.0383	40.538899	0.000709	7.094823	2.403791	0.000284
 154	1.5223e+01	6.0768	40.805349	0.000669	6.689405	2.266432	0.000268
 155	1.5323e+01	6.1218	41.096023	0.000730	7.297532	2.472471	0.000292
 156	1.5422e+01	6.1603	41.398808	0.000760	7.601596	2.575490	0.000304
 157	1.5522e+01	6.2004	41.725816	0.000821	8.209724	2.781530	0.000329
 158	1.5621e+01	6.2357	41.984193	0.000649	6.486695	2.197752	0.000260
 159	1.5721e+01	6.2661	42.262755	0.000699	6.993468	2.369451	0.000280
 160	1.5820e+01	6.3094	42.521132	0.000649	6.486695	2.197752	0.000260
 161	1.5920e+01	6.3608	42.823917	0.000760	7.601596	2.575490	0.000304
 162	1.6020e+01	6.3945	43.126703	0.000760	7.601596	2.575490	0.000304
 163	1.6119e+01	6.4410	43.433525	0.000770	7.702951	2.609830	0.000308
 164	1.6218e+01	6.4811	43.679790	0.000618	6.182632	2.094732	0.000248
 165	1.6318e+01	6.5100	43.970464	0.000730	7.297532	2.472471	0.000292
 166	1.6418e+01	6.5597	44.265175	0.000740	7.398887	2.506811	0.000296
 167	1.6517e+01	6.5950	44.515477	0.000628	6.283986	2.129072	0.000252
 168	1.6616e+01	6.6287	44.886894	0.000932	9.324625	3.159268	0.000373
 169	1.6716e+01	6.6768	45.125085	0.000598	5.979922	2.026053	0.000239
 170	1.6816e+01	6.7249	45.403647	0.000699	6.993468	2.369451	0.000280
 171	1.6915e+01	6.7570	45.674135	0.000679	6.790759	2.300772	0.000272
 172	1.7015e+01	6.8036	46.001143	0.000821	8.209724	2.781530	0.000329
 173	1.7114e+01	6.8356	46.247408	0.000618	6.182632	2.094732	0.000248
 174	1.7213e+01	6.8661	46.550194	0.000760	7.601596	2.575490	0.000304
 175	1.7313e+01	6.9142	46.816645	0.000669	6.689405	2.266432	0.000268
 176	1.7413e+01	6.9479	47.127504	0.000780	7.804305	2.644170	0.000312
 177	1.7512e+01	6.9912	47.389918	0.000659	6.588050	2.232092	0.000264
 178	1.7611e+01	7.0314	47.692703	0.000760	7.601596	2.575490	0.000304
 179	1.7711e+01	7.0650	47.987414	0.000740	7.398887	2.506811	0.000296
 180	1.7811e+01	7.1084	48.197345	0.000527	5.270440	1.785673	0.000211
 181	1.7910e+01	7.1453	48.532427	0.000841	8.412433	2.850209	0.000337
 182	1.8009e+01	7.1950	48.762544	0.000578	5.777213	1.957373	0.000231
 183	1.8109e+01	7.2319	49.069366	0.000770	7.702951	2.609830	0.000308
 184	1.8209e+01	7.2720	49.360040	0.000730	7.297532	2.472471	0.000292
 185	1.8308e+01	7.3025	49.687048	0.000821	8.209724	2.781530	0.000329
 186	1.8407e+01	7.3554	49.933313	0.000618	6.182632	2.094732	0.000248
 187	1.8507e+01	7.3907	50.175542	0.000608	6.081277	2.060392	0.000243
 188	1.8607e+01	7.4340	50.482364	0.000770	7.702951	2.609830	0.000308
 189	1.8706e+01	7.4757	50.736703	0.000639	6.385341	2.163412	0.000256
 190	1.8805e+01	7.5046	51.031414	0.000740	7.398887	2.506811	0.000296
 191	1.8905e+01	7.5463	51.309977	0.000699	6.993468	2.369451	0.000280
 192	1.9005e+01	7.5944	51.544131	0.000588	5.878568	1.991713	0.000235
 193	1.9104e+01	7.6297	51.822693	0.000699	6.993468	2.369451	0.000280
 194	1.9203e+01	7.6682	52.093181	0.000679	6.790759	2.300772	0.000272
 195	1.9303e+01	7.7035	52.408078	0.000791	7.905660	2.678510	0.000316
 196	1.9402e+01	7.7468	52.662417	0.000639	6.385341	2.163412	0.000256
 197	1.9502e+01	7.7886	52.936942	0.000689	6.892114	2.335111	0.000276
 198	1.9602e+01	7.8319	53.203393	0.000669	6.689405	2.266432	0.000268
 199	1.9701e+01	7.8720	53.485993	0.000709	7.094823	2.403791	0.000284
 200	1.9800e+01	7.9089	53.748407	0.000659	6.588050	2.232092	0.000264
 201	1.9900e+01	7.9442	54.026969	0.000699	6.993468	2.369451	0.000280
 202	2.0000e+01	7.9875	54.289383	0.000659	6.588050	2.232092	0.000264
 203	2.0099e+01	8.0276	54.555834	0.000669	6.689405	2.266432	0.000268
 204	2.0198e+01	8.0677	54.789988	0.000588	5.878568	1.991713	0.000235
 205	2.0298e+01	8.1094	55.060476	0.000679	6.790759	2.300772	0.000272
 206	2.0398e+01	8.1415	55.355187	0.000740	7.398887	2.506811	0.000296
 207	2.0497e+01	8.1896	55.657972	0.000760	7.601596	2.575490	0.000304
 208	2.0596e+01	8.2217	55.912311	0.000639	6.385341	2.163412	0.000256
 209	2.0696e+01	8.2746	56.178762	0.000669	6.689405	2.266432	0.000268
 210	2.0796e+01	8.3099	56.453288	0.000689	6.892114	2.335111	0.000276
 211	2.0895e+01	8.3500	56.703590	0.000628	6.283986	2.129072	0.000252
 212	2.0994e+01	8.3869	56.986190	0.000709	7.094823	2.403791	0.000284
 213	2.1094e+01	8.4335	57.252640	0.000669	6.689405	2.266432	0.000268
 214	2.1194e+01	8.4703	57.527166	0.000689	6.892114	2.335111	0.000276
 215	2.1293e+01	8.5040	57.801691	0.000689	6.892114	2.335111	0.000276
 216	2.1392e+01	8.5490	58.080253	0.000699	6.993468	2.369451	0.000280
 217	2.1492e+01	8.5891	58.306333	0.000568	5.675858	1.923033	0.000227
 218	2.1591e+01	8.6228	58.592970	0.000720	7.196178	2.438131	0.000288
 219	2.1691e+01	8.6629	58.851346	0.000649	6.486695	2.197752	0.000260
 220	2.1791e+01	8.7030	59.121834	0.000679	6.790759	2.300772	0.000272
 221	2.1890e+01	8.7527	59.416545	0.000740	7.398887	2.506811	0.000296
 222	2.1989e+01	8.7944	59.646662	0.000578	5.777213	1.957373	0.000231
 223	2.2089e+01	8.8217	59.945410	0.000750	7.500242	2.541151	0.000300
 224	2.2189e+01	8.8666	60.203787	0.000649	6.486695	2.197752	0.000260
 225	2.2288e+01	8.9035	60.502535	0.000750	7.500242	2.541151	0.000300
 226	2.2387e+01	8.9420	60.752837	0.000628	6.283986	2.129072	0.000252
 227	2.2487e+01	8.9805	60.942583	0.000476	4.763667	1.613974	0.000191
 228	2.2587e+01	9.0238	61.253442	0.000780	7.804305	2.644170	0.000312
 229	2.2686e+01	9.0655	61.540079	0.000720	7.196178	2.438131	0.000288
 230	2.2785e+01	9.0960	61.798455	0.000649	6.486695	2.197752	0.000260
 231	2.2885e+01	9.1409	62.004349	0.000517	5.169085	1.751334	0.000207
 232	2.2985e+01	9.1906	62.315209	0.000780	7.804305	2.644170	0.000312
 233	2.3084e+01	9.2340	62.573585	0.000649	6.486695	2.197752	0.000260
 234	2.3183e+01	9.2644	62.835999	0.000659	6.588050	2.232092	0.000264
 235	2.3283e+01	9.3046	63.114562	0.000699	6.993468	2.369451	0.000280
 236	2.3383e+01	9.3382	63.356790	0.000608	6.081277	2.060392	0.000243
 237	2.3482e+01	9.3783	63.615166	0.000649	6.486695	2.197752	0.000260
 238	2.3581e+01	9.4249	63.885654	0.000679	6.790759	2.300772	0.000272
 239	2.3681e+01	9.4730	64.172291	0.000720	7.196178	2.438131	0.000288
 240	2.3780e+01	9.5067	64.406445	0.000588	5.878568	1.991713	0.000235
 241	2.3880e+01	9.5468	64.680970	0.000689	6.892114	2.335111	0.000276
 242	2.3980e+01	9.5869	64.963570	0.000709	7.094823	2.403791	0.000284
 243	2.4079e+01	9.6318	65.193686	0.000578	5.777213	1.957373	0.000231
 244	2.4178e+01	9.6559	65.427840	0.000588	5.878568	1.991713	0.000235
 245	2.4278e+01	9.6976	65.682180	0.000639	6.385341	2.163412	0.000256
 246	2.4378e+01	9.7505	65.968817	0.000720	7.196178	2.438131	0.000288
 247	2.4477e+01	9.7842	66.235267	0.000669	6.689405	2.266432	0.000268
 248	2.4576e+01	9.8243	66.477496	0.000608	6.081277	2.060392	0.000243
 249	2.4676e+01	9.8628	66.727798	0.000628	6.283986	2.129072	0.000252
 250	2.4776e+01	9.9045	66.982138	0.000639	6.385341	2.163412	0.000256
 251	2.4875e+01	9.9414	67.264737	0.000709	7.094823	2.403791	0.000284
 252	2.4974e+01	9.9799	67.515040	0.000628	6.283986	2.129072	0.000252
 253	2.5074e+01	10.0152	67.801676	0.000720	7.196178	2.438131	0.000288
 254	2.5174e+01	10.0505	68.003533	0.000507	5.067731	1.716994	0.000203
 255	2.5273e+01	10.0954	68.298244	0.000740	7.398887	2.506811	0.000296
 256	2.5372e+01	10.1468	68.544509	0.000618	6.182632	2.094732	0.000248
 257	2.5472e+01	10.1756	68.778663	0.000588	5.878568	1.991713	0.000235
 258	2.5572e+01	10.2174	69.049151	0.000679	6.790759	2.300772	0.000272
 259	2.5671e+01	10.2623	69.255045	0.000517	5.169085	1.751334	0.000207
 260	2.5770e+01	10.3040	69.553793	0.000750	7.500242	2.541151	0.000300
 261	2.5870e+01	10.3329	69.787947	0.000588	5.878568	1.991713	0.000235
 262	2.5970e+01	10.3842	70.066509	0.000699	6.993468	2.369451	0.000280
 263	2.6069e+01	10.4131	70.292589	0.000568	5.675858	1.923033	0.000227
 264	2.6169e+01	10.4692	70.571151	0.000699	6.993468	2.369451	0.000280
 265	2.6268e+01	10.4981	70.821454	0.000628	6.283986	2.129072	0.000252
 266	2.6367e+01	10.5318	71.067719	0.000618	6.182632	2.094732	0.000248
 267	2.6467e+01	10.5767	71.313984	0.000618	6.182632	2.094732	0.000248
 268	2.6567e+01	10.6136	71.596584	0.000709	7.094823	2.403791	0.000284
 269	2.6666e+01	10.6569	71.834775	0.000598	5.979922	2.026053	0.000239
 270	2.6765e+01	10.7034	72.101226	0.000669	6.689405	2.266432	0.000268
 271	2.6865e+01	10.7387	72.399974	0.000750	7.500242	2.541151	0.000300
 272	2.6965e+01	10.7772	72.638165	0.000598	5.979922	2.026053	0.000239
 273	2.7064e+01	10.8206	72.884430	0.000618	6.182632	2.094732	0.000248
 274	2.7163e+01	10.8623	73.106473	0.000557	5.574504	1.888693	0.000223
 275	2.7263e+01	10.8992	73.368886	0.000659	6.588050	2.232092	0.000264
 276	2.7363e+01	10.9393	73.631300	0.000659	6.588050	2.232092	0.000264
 277	2.7462e+01	10.9697	73.869491	0.000598	5.979922	2.026053	0.000239
 278	2.7561e+01	11.0131	74.168239	0.000750	7.500242	2.541151	0.000300
 279	2.7661e+01	11.0628	74.398356	0.000578	5.777213	1.957373	0.000231
 280	2.7761e+01	11.0917	74.648658	0.000628	6.283986	2.129072	0.000252
 281	2.7860e+01	11.1334	74.882812	0.000588	5.878568	1.991713	0.000235
 282	2.7959e+01	11.1767	75.157337	0.000689	6.892114	2.335111	0.000276
 283	2.8059e+01	11.2232	75.419751	0.000659	6.588050	2.232092	0.000264
 284	2.8159e+01	11.2601	75.645831	0.000568	5.675858	1.923033	0.000227
 285	2.8258e+01	11.2970	75.924393	0.000699	6.993468	2.369451	0.000280
 286	2.8358e+01	11.3323	76.158547	0.000588	5.878568	1.991713	0.000235
 287	2.8457e+01	11.3772	76.404812	0.000618	6.182632	2.094732	0.000248
 288	2.8556e+01	11.4157	76.671263	0.000669	6.689405	2.266432	0.000268
 289	2.8656e+01	11.4542	76.901380	0.000578	5.777213	1.957373	0.000231
 290	2.8756e+01	11.5040	77.155720	0.000639	6.385341	2.163412	0.000256
 291	2.8855e+01	11.5312	77.430245	0.000689	6.892114	2.335111	0.000276
 292	2.8954e+01	11.5697	77.648250	0.000547	5.473149	1.854353	0.000219
 293	2.9054e+01	11.6114	77.918738	0.000679	6.790759	2.300772	0.000272
 294	2.9154e+01	11.6515	78.160966	0.000608	6.081277	2.060392	0.000243
 295	2.9253e+01	11.7013	78.411269	0.000628	6.283986	2.129072	0.000252
 296	2.9352e+01	11.7366	78.645423	0.000588	5.878568	1.991713	0.000235
 297	2.9452e+01	11.7783	78.883614	0.000598	5.979922	2.026053	0.000239
 298	2.9552e+01	11.8136	79.146028	0.000659	6.588050	2.232092	0.000264
 299	2.9651e+01	11.8569	79.351921	0.000517	5.169085	1.751334	0.000207
 300	2.9750e+01	11.8954	79.638558	0.000720	7.196178	2.438131	0.000288
 301	2.9850e+01	11.9323	79.860601	0.000557	5.574504	1.888693	0.000223
 302	2.9950e+01	11.9724	80.110903	0.000628	6.283986	2.129072	0.000252
 303	3.0049e+01	12.0125	80.369280	0.000649	6.486695	2.197752	0.000260
 304	3.0148e+01	12.0574	80.639768	0.000679	6.790759	2.300772	0.000272
 305	3.0248e+01	12.0927	80.914293	0.000689	6.892114	2.335111	0.000276
 306	3.0348e+01	12.1392	81.108076	0.000487	4.865022	1.648314	0.000195
 307	3.0447e+01	12.1729	81.342229	0.000588	5.878568	1.991713	0.000235
 308	3.0547e+01	12.2098	81.600606	0.000649	6.486695	2.197752	0.000260
 309	3.0646e+01	12.2515	81.879168	0.000699	6.993468	2.369451	0.000280
 310	3.0745e+01	12.3013	82.085062	0.000517	5.169085	1.751334	0.000207
 311	3.0845e+01	12.3317	82.307105	0.000557	5.574504	1.888693	0.000223
 312	3.0945e+01	12.3734	82.581630	0.000689	6.892114	2.335111	0.000276
 313	3.1044e+01	12.4152	82.807710	0.000568	5.675858	1.923033	0.000227
 314	3.1143e+01	12.4472	83.049938	0.000608	6.081277	2.060392	0.000243
 315	3.1243e+01	12.4873	83.284092	0.000588	5.878568	1.991713	0.000235
 316	3.1343e+01	12.5387	83.546506	0.000659	6.588050	2.232092	0.000264
 317	3.1442e+01	12.5692	83.772585	0.000568	5.675858	1.923033	0.000227
 318	3.1541e+01	12.6141	84.018850	0.000618	6.182632	2.094732	0.000248
 319	3.1641e+01	12.6526	84.236856	0.000547	5.473149	1.854353	0.000219
 320	3.1741e+01	12.6975	84.479084	0.000608	6.081277	2.060392	0.000243
 321	3.1840e+01	12.7312	84.741498	0.000659	6.588050	2.232092	0.000264
 322	3.1939e+01	12.7761	84.963540	0.000557	5.574504	1.888693	0.000223
 323	3.2039e+01	12.8034	85.197694	0.000588	5.878568	1.991713	0.000235
 324	3.2139e+01	12.8467	85.423774	0.000568	5.675858	1.923033	0.000227
 325	3.2238e+01	12.8980	85.698299	0.000689	6.892114	2.335111	0.000276
 326	3.2337e+01	12.9381	85.916304	0.000547	5.473149	1.854353	0.000219
 327	3.2437e+01	12.9654	86.126235	0.000527	5.270440	1.785673	0.000211
 328	3.2536e+01	13.0103	86.376538	0.000628	6.283986	2.129072	0.000252
 329	3.2636e+01	13.0408	86.634914	0.000649	6.486695	2.197752	0.000260
 330	3.2736e+01	13.0921	86.897328	0.000659	6.588050	2.232092	0.000264
 331	3.2835e+01	13.1178	87.123408	0.000568	5.675858	1.923033	0.000227
 332	3.2934e+01	13.1627	87.353525	0.000578	5.777213	1.957373	0.000231
 333	3.3034e+01	13.2109	87.551344	0.000497	4.966376	1.682654	0.000199
 334	3.3133e+01	13.2542	87.829907	0.000699	6.993468	2.369451	0.000280
 335	3.3233e+01	13.2895	88.055986	0.000568	5.675858	1.923033	0.000227
 336	3.3333e+01	13.3215	88.278029	0.000557	5.574504	1.888693	0.000223
 337	3.3432e+01	13.3568	88.520257	0.000608	6.081277	2.060392	0.000243
 338	3.3532e+01	13.4066	88.778633	0.000649	6.486695	2.197752	0.000260
 339	3.3631e+01	13.4451	89.028936	0.000628	6.283986	2.129072	0.000252
 340	3.3730e+01	13.4916	89.218681	0.000476	4.763667	1.613974	0.000191
 341	3.3830e+01	13.5221	89.497244	0.000699	6.993468	2.369451	0.000280
 342	3.3929e+01	13.5686	89.743509	0.000618	6.182632	2.094732	0.000248
 343	3.4029e+01	13.6071	89.941329	0.000497	4.966376	1.682654	0.000199
 344	3.4129e+01	13.6440	90.171445	0.000578	5.777213	1.957373	0.000231
 345	3.4228e+01	13.6873	90.433859	0.000659	6.588050	2.232092	0.000264
 346	3.4328e+01	13.7226	90.623604	0.000476	4.763667	1.613974	0.000191
 347	3.4427e+01	13.7691	90.886018	0.000659	6.588050	2.232092	0.000264
 348	3.4526e+01	13.8028	91.156506	0.000679	6.790759	2.300772	0.000272
 349	3.4626e+01	13.8429	91.354326	0.000497	4.966376	1.682654	0.000199
 350	3.4725e+01	13.8830	91.552146	0.000497	4.966376	1.682654	0.000199
 351	3.4825e+01	13.9312	91.822634	0.000679	6.790759	2.300772	0.000272
 352	3.4925e+01	13.9697	92.004305	0.000456	4.560958	1.545294	0.000183
 353	3.5024e+01	14.0001	92.262682	0.000649	6.486695	2.197752	0.000260
 354	3.5123e+01	14.0451	92.500873	0.000598	5.979922	2.026053	0.000239
 355	3.5223e+01	14.0868	92.743101	0.000608	6.081277	2.060392	0.000243
 356	3.5322e+01	14.1237	92.920735	0.000446	4.459603	1.510954	0.000179
 357	3.5422e+01	14.1670	93.171037	0.000628	6.283986	2.129072	0.000252
 358	3.5522e+01	14.1991	93.397117	0.000568	5.675858	1.923033	0.000227
 359	3.5621e+01	14.2456	93.655493	0.000649	6.486695	2.197752	0.000260
 360	3.5721e+01	14.2761	93.849276	0.000487	4.865022	1.648314	0.000195
 361	3.5820e+01	14.3178	94.087467	0.000598	5.979922	2.026053	0.000239
 362	3.5919e+01	14.3691	94.349881	0.000659	6.588050	2.232092	0.000264
 363	3.6019e+01	14.3980	94.535589	0.000466	4.662312	1.579634	0.000187
 364	3.6118e+01	14.4381	94.757631	0.000557	5.574504	1.888693	0.000223
 365	3.6218e+01	14.4766	94.963525	0.000517	5.169085	1.751334	0.000207
 366	3.6318e+01	14.5279	95.213828	0.000628	6.283986	2.129072	0.000252
 367	3.6417e+01	14.5568	95.464130	0.000628	6.283986	2.129072	0.000252
 368	3.6517e+01	14.6001	95.649838	0.000466	4.662312	1.579634	0.000187
 369	3.6616e+01	14.6499	95.900141	0.000628	6.283986	2.129072	0.000252
 370	3.6715e+01	14.6835	96.110072	0.000527	5.270440	1.785673	0.000211
 371	3.6815e+01	14.7172	96.324040	0.000537	5.371795	1.820013	0.000215
 372	3.6914e+01	14.7509	96.533971	0.000527	5.270440	1.785673	0.000211
 373	3.7014e+01	14.8071	96.792348	0.000649	6.486695	2.197752	0.000260
 374	3.7114e+01	14.8343	97.022465	0.000578	5.777213	1.957373	0.000231
 375	3.7213e+01	14.8825	97.228359	0.000517	5.169085	1.751334	0.000207
 376	3.7313e+01	14.9226	97.454438	0.000568	5.675858	1.923033	0.000227
 377	3.7412e+01	14.9595	97.700703	0.000618	6.182632	2.094732	0.000248
 378	3.7511e+01	14.9948	97.946969	0.000618	6.182632	2.094732	0.000248
 379	3.7611e+01	15.0333	98.108454	0.000405	4.054185	1.373595	0.000162
 380	3.7711e+01	15.0798	98.350682	0.000608	6.081277	2.060392	0.000243
 381	3.7810e+01	15.1135	98.560613	0.000527	5.270440	1.785673	0.000211
 382	3.7910e+01	15.1552	98.790730	0.000578	5.777213	1.957373	0.000231
 383	3.8009e+01	15.1969	99.049107	0.000649	6.486695	2.197752	0.000260
 384	3.8108e+01	15.2338	99.242889	0.000487	4.865022	1.648314	0.000195
 385	3.8208e+01	15.2755	99.489155	0.000618	6.182632	2.094732	0.000248
 386	3.8307e+01	15.3204	99.650640	0.000405	4.054185	1.373595	0.000162
 387	3.8407e+01	15.3653	99.925165	0.000689	6.892114	2.335111	0.000276
 388	3.8507e+01	15.3974	100.127022	0.000507	5.067731	1.716994	0.000203
 389	3.8606e+01	15.4456	100.336953	0.000527	5.270440	1.785673	0.000211
 390	3.8706e+01	15.4825	100.599367	0.000659	6.588050	2.232092	0.000264
 391	3.8805e+01	15.5258	100.821409	0.000557	5.574504	1.888693	0.000223
 392	3.8904e+01	15.5466	101.003080	0.000456	4.560958	1.545294	0.000183
 393	3.9004e+01	15.6028	101.245309	0.000608	6.081277	2.060392	0.000243
 394	3.9103e+01	15.6284	101.475425	0.000578	5.777213	1.957373	0.000231
 395	3.9203e+01	15.6846	101.705542	0.000578	5.777213	1.957373	0.000231
 396	3.9303e+01	15.7151	101.907399	0.000507	5.067731	1.716994	0.000203
 397	3.9402e+01	15.7696	102.109256	0.000507	5.067731	1.716994	0.000203
 398	3.9502e+01	15.8049	102.339372	0.000578	5.777213	1.957373	0.000231
 399	3.9601e+01	15.8434	102.557378	0.000547	5.473149	1.854353	0.000219
 400	3.9700e+01	15.8819	102.799606	0.000608	6.081277	2.060392	0.000243
 401	3.9800e+01	15.9188	103.021648	0.000557	5.574504	1.888693	0.000223
 402	3.9900e+01	15.9573	103.243691	0.000557	5.574504	1.888693	0.000223
 403	3.9999e+01	16.0054	103.421325	0.000446	4.459603	1.510954	0.000179
 404	4.0099e+01	16.0407	103.667590	0.000618	6.182632	2.094732	0.000248
 405	4.0198e+01	16.0728	103.873484	0.000517	5.169085	1.751334	0.000207
 406	4.0297e+01	16.1177	104.099564	0.000568	5.675858	1.923033	0.000227
 407	4.0397e+01	16.1594	104.325643	0.000568	5.675858	1.923033	0.000227
 408	4.0496e+01	16.1931	104.596131	0.000679	6.790759	2.300772	0.000272
 409	4.0596e+01	16.2364	104.761654	0.000416	4.155539	1.407935	0.000166
 410	4.0696e+01	16.2733	104.967548	0.000517	5.169085	1.751334	0.000207
 411	4.0795e+01	16.3150	105.181516	0.000537	5.371795	1.820013	0.000215
 412	4.0895e+01	16.3568	105.395484	0.000537	5.371795	1.820013	0.000215
 413	4.0994e+01	16.4001	105.665972	0.000679	6.790759	2.300772	0.000272
 414	4.1093e+01	16.4354	105.863792	0.000497	4.966376	1.682654	0.000199
 415	4.1193e+01	16.4691	106.069686	0.000517	5.169085	1.751334	0.000207
 416	4.1292e+01	16.5204	106.279617	0.000527	5.270440	1.785673	0.000211
 417	4.1392e+01	16.5541	106.493585	0.000537	5.371795	1.820013	0.000215
 418	4.1492e+01	16.5974	106.715628	0.000557	5.574504	1.888693	0.000223
 419	4.1591e+01	16.6391	106.901336	0.000466	4.662312	1.579634	0.000187
 420	4.1691e+01	16.6744	107.167787	0.000669	6.689405	2.266432	0.000268
 421	4.1790e+01	16.7145	107.353495	0.000466	4.662312	1.579634	0.000187
 422	4.1889e+01	16.7594	107.543240	0.000476	4.763667	1.613974	0.000191
 423	4.1989e+01	16.7931	107.769320	0.000568	5.675858	1.923033	0.000227
 424	4.2089e+01	16.8332	107.991362	0.000557	5.574504	1.888693	0.000223
 425	4.2188e+01	16.8765	108.221479	0.000578	5.777213	1.957373	0.000231
 426	4.2288e+01	16.9102	108.451596	0.000578	5.777213	1.957373	0.000231
 427	4.2387e+01	16.9551	108.657490	0.000517	5.169085	1.751334	0.000207
 428	4.2486e+01	16.9952	108.831087	0.000436	4.358248	1.476615	0.000174
 429	4.2586e+01	17.0177	109.085426	0.000639	6.385341	2.163412	0.000256
 430	4.2685e+01	17.0706	109.271134	0.000466	4.662312	1.579634	0.000187
 431	4.2785e+01	17.1124	109.477028	0.000517	5.169085	1.751334	0.000207
 432	4.2885e+01	17.1492	109.695034	0.000547	5.473149	1.854353	0.000219
 433	4.2984e+01	17.1974	109.917076	0.000557	5.574504	1.888693	0.000223
 434	4.3084e+01	17.2279	110.131044	0.000537	5.371795	1.820013	0.000215
 435	4.3183e+01	17.2808	110.381347	0.000628	6.283986	2.129072	0.000252
 436	4.3282e+01	17.3065	110.567055	0.000466	4.662312	1.579634	0.000187
 437	4.3382e+01	17.3546	110.809283	0.000608	6.081277	2.060392	0.000243
 438	4.3481e+01	17.3979	110.994991	0.000466	4.662312	1.579634	0.000187
 439	4.3581e+01	17.4380	111.212997	0.000547	5.473149	1.854353	0.000219
 440	4.3681e+01	17.4765	111.447151	0.000588	5.878568	1.991713	0.000235
 441	4.3780e+01	17.5118	111.644970	0.000497	4.966376	1.682654	0.000199
 442	4.3880e+01	17.5567	111.883161	0.000598	5.979922	2.026053	0.000239
 443	4.3979e+01	17.5936	112.093092	0.000527	5.270440	1.785673	0.000211
 444	4.4078e+01	17.6450	112.303023	0.000527	5.270440	1.785673	0.000211
 445	4.4178e+01	17.6738	112.516992	0.000537	5.371795	1.820013	0.000215
 446	4.4278e+01	17.7091	112.734997	0.000547	5.473149	1.854353	0.000219
 447	4.4377e+01	17.7524	112.957039	0.000557	5.574504	1.888693	0.000223
 448	4.4477e+01	17.7909	113.146785	0.000476	4.763667	1.613974	0.000191
 449	4.4576e+01	17.8214	113.368827	0.000557	5.574504	1.888693	0.000223
 450	4.4675e+01	17.8583	113.578758	0.000527	5.270440	1.785673	0.000211
 451	4.4775e+01	17.9048	113.780615	0.000507	5.067731	1.716994	0.000203
 452	4.4874e+01	17.9546	114.022843	0.000608	6.081277	2.060392	0.000243
 453	4.4974e+01	17.9867	114.240849	0.000547	5.473149	1.854353	0.000219
 454	4.5074e+01	18.0284	114.458854	0.000547	5.473149	1.854353	0.000219
 455	4.5173e+01	18.0588	114.620339	0.000405	4.054185	1.373595	0.000162
 456	4.5273e+01	18.1102	114.874679	0.000639	6.385341	2.163412	0.000256
 457	4.5372e+01	18.1471	115.088647	0.000537	5.371795	1.820013	0.000215
 458	4.5471e+01	18.1824	115.294541	0.000517	5.169085	1.751334	0.000207
 459	4.5571e+01	18.2273	115.548881	0.000639	6.385341	2.163412	0.000256
 460	4.5670e+01	18.2722	115.714403	0.000416	4.155539	1.407935	0.000166
 461	4.5770e+01	18.3059	115.916260	0.000507	5.067731	1.716994	0.000203
 462	4.5870e+01	18.3460	116.118117	0.000507	5.067731	1.716994	0.000203
 463	4.5969e+01	18.3861	116.368419	0.000628	6.283986	2.129072	0.000252
 464	4.6069e+01	18.4310	116.554127	0.000466	4.662312	1.579634	0.000187
 465	4.6168e+01	18.4695	116.760021	0.000517	5.169085	1.751334	0.000207
 466	4.6267e+01	18.5064	116.986101	0.000568	5.675858	1.923033	0.000227
 467	4.6367e+01	18.5481	117.220255	0.000588	5.878568	1.991713	0.000235
 468	4.6467e+01	18.5834	117.430186	0.000527	5.270440	1.785673	0.000211
 469	4.6566e+01	18.6267	117.623968	0.000487	4.865022	1.648314	0.000195
 470	4.6666e+01	18.6701	117.797565	0.000436	4.358248	1.476615	0.000174
 471	4.6765e+01	18.7054	118.072090	0.000689	6.892114	2.335111	0.000276
 472	4.6864e+01	18.7487	118.261836	0.000476	4.763667	1.613974	0.000191
 473	4.6964e+01	18.7920	118.463693	0.000507	5.067731	1.716994	0.000203
 474	4.7063e+01	18.8273	118.653438	0.000476	4.763667	1.613974	0.000191
 475	4.7163e+01	18.8658	118.855295	0.000507	5.067731	1.716994	0.000203
 476	4.7263e+01	18.9043	119.081374	0.000568	5.675858	1.923033	0.000227
 477	4.7362e+01	18.9428	119.250934	0.000426	4.256894	1.442275	0.000170
 478	4.7462e+01	18.9925	119.513348	0.000659	6.588050	2.232092	0.000264
 479	4.7561e+01	19.0214	119.690982	0.000446	4.459603	1.510954	0.000179
 480	4.7660e+01	19.0679	119.925136	0.000588	5.878568	1.991713	0.000235
 481	4.7760e+01	19.0968	120.114881	0.000476	4.763667	1.613974	0.000191
 482	4.7859e+01	19.1513	120.336924	0.000557	5.574504	1.888693	0.000223
 483	4.7959e+01	19.1818	120.542817	0.000517	5.169085	1.751334	0.000207
 484	4.8059e+01	19.2315	120.781008	0.000598	5.979922	2.026053	0.000239
 485	4.8158e+01	19.2668	120.999014	0.000547	5.473149	1.854353	0.000219
 486	4.8258e+01	19.3102	121.180685	0.000456	4.560958	1.545294	0.000183
 487	4.8357e+01	19.3438	121.374467	0.000487	4.865022	1.648314	0.000195
 488	4.8456e+01	19.3759	121.556139	0.000456	4.560958	1.545294	0.000183
 489	4.8556e+01	19.4192	121.798367	0.000608	6.081277	2.060392	0.000243
 490	4.8656e+01	19.4674	122.004261	0.000517	5.169085	1.751334	0.000207
 491	4.8755e+01	19.4994	122.242452	0.000598	5.979922	2.026053	0.000239
 492	4.8855e+01	19.5444	122.379714	0.000345	3.446057	1.167556	0.000138
 493	4.8954e+01	19.5829	122.630017	0.000628	6.283986	2.129072	0.000252
 494	4.9053e+01	19.6150	122.803613	0.000436	4.358248	1.476615	0.000174
 495	4.9153e+01	19.6647	123.013545	0.000527	5.270440	1.785673	0.000211
 496	4.9252e+01	19.6968	123.215401	0.000507	5.067731	1.716994	0.000203
 497	4.9352e+01	19.7481	123.457629	0.000608	6.081277	2.060392	0.000243
 498	4.9452e+01	19.7818	123.663523	0.000517	5.169085	1.751334	0.000207
 499	4.9551e+01	19.8187	123.825009	0.000405	4.054185	1.373595	0.000162
 500	4.9651e+01	19.8572	124.059163	0.000588	5.878568	1.991713	0.000235
 501	4.9750e+01	19.8989	124.281205	0.000557	5.574504	1.888693	0.000223
 502	4.9849e+01	19.9438	124.523433	0.000608	6.081277	2.060392	0.000243
 503	4.9949e+01	19.9791	124.688956	0.000416	4.155539	1.407935	0.000166
 504	5.0048e+01	19.9406	124.588027	0.000253	2.533865	0.858497	-0.000101
 505	5.0148e+01	19.9069	124.434616	0.000385	3.851475	1.304915	-0.000154
 506	5.0248e+01	19.8748	124.269094	0.000416	4.155539	1.407935	-0.000166
 507	5.0347e+01	19.8187	124.139905	0.000324	3.243348	1.098876	-0.000130
 508	5.0447e+01	19.7834	123.990531	0.000375	3.750121	1.270575	-0.000150
 509	5.0546e+01	19.7417	123.869417	0.000304	3.040638	1.030196	-0.000122
 510	5.0645e+01	19.7000	123.740229	0.000324	3.243348	1.098876	-0.000130
 511	5.0745e+01	19.6631	123.594892	0.000365	3.648766	1.236235	-0.000146
 512	5.0844e+01	19.6150	123.417258	0.000446	4.459603	1.510954	-0.000179
 513	5.0944e+01	19.5861	123.271921	0.000365	3.648766	1.236235	-0.000146
 514	5.1044e+01	19.5380	123.150807	0.000304	3.040638	1.030196	-0.000122
 515	5.1143e+01	19.4978	122.977210	0.000436	4.358248	1.476615	-0.000174
 516	5.1242e+01	19.4545	122.848022	0.000324	3.243348	1.098876	-0.000130
 517	5.1342e+01	19.4289	122.666351	0.000456	4.560958	1.545294	-0.000183
 518	5.1441e+01	19.3872	122.508903	0.000395	3.952830	1.339255	-0.000158
 519	5.1541e+01	19.3454	122.371640	0.000345	3.446057	1.167556	-0.000138
 520	5.1641e+01	19.3085	122.206117	0.000416	4.155539	1.407935	-0.000166
 521	5.1740e+01	19.2636	122.024446	0.000456	4.560958	1.545294	-0.000183
 522	5.1840e+01	19.2187	121.895258	0.000324	3.243348	1.098876	-0.000130
 523	5.1939e+01	19.1930	121.737810	0.000395	3.952830	1.339255	-0.000158
 524	5.2038e+01	19.1449	121.564213	0.000436	4.358248	1.476615	-0.000174
 525	5.2138e+01	19.1016	121.414839	0.000375	3.750121	1.270575	-0.000150
 526	5.2237e+01	19.0647	121.241242	0.000436	4.358248	1.476615	-0.000174
 527	5.2337e+01	19.0246	121.051497	0.000476	4.763667	1.613974	-0.000191
 528	5.2437e+01	18.9781	120.898085	0.000385	3.851475	1.304915	-0.000154
 529	5.2536e+01	18.9476	120.748711	0.000375	3.750121	1.270575	-0.000150
 530	5.2636e+01	18.9043	120.607412	0.000355	3.547412	1.201896	-0.000142
 531	5.2735e+01	18.8690	120.413629	0.000487	4.865022	1.648314	-0.000195
 532	5.2834e+01	18.8289	120.260218	0.000385	3.851475	1.304915	-0.000154
 533	5.2934e+01	18.7856	120.070473	0.000476	4.763667	1.613974	-0.000191
 534	5.3033e+01	18.7471	119.921099	0.000375	3.750121	1.270575	-0.000150
 535	5.3133e+01	18.7086	119.731353	0.000476	4.763667	1.613974	-0.000191
 536	5.3233e+01	18.6636	119.577942	0.000385	3.851475	1.304915	-0.000154
 537	5.3332e+01	18.6219	119.412419	0.000416	4.155539	1.407935	-0.000166
 538	5.3431e+01	18.5915	119.202488	0.000527	5.270440	1.785673	-0.000211
 539	5.3531e+01	18.5513	119.073300	0.000324	3.243348	1.098876	-0.000130
 540	5.3630e+01	18.5112	118.891629	0.000456	4.560958	1.545294	-0.000183
 541	5.3730e+01	18.4647	118.718032	0.000436	4.358248	1.476615	-0.000174
 542	5.3830e+01	18.4278	118.556547	0.000405	4.054185	1.373595	-0.000162
 543	5.3929e+01	18.3909	118.403135	0.000385	3.851475	1.304915	-0.000154
 544	5.4029e+01	18.3428	118.185130	0.000547	5.473149	1.854353	-0.000219
 545	5.4128e+01	18.3091	118.076127	0.000274	2.736575	0.927177	-0.000110
 546	5.4227e+01	18.2626	117.874271	0.000507	5.067731	1.716994	-0.000203
 547	5.4327e+01	18.2385	117.716822	0.000395	3.952830	1.339255	-0.000158
 548	5.4426e+01	18.1984	117.567448	0.000375	3.750121	1.270575	-0.000150
 549	5.4526e+01	18.1471	117.357517	0.000527	5.270440	1.785673	-0.000211
 550	5.4626e+01	18.1134	117.163735	0.000487	4.865022	1.648314	-0.000195
 551	5.4725e+01	18.0653	116.994175	0.000426	4.256894	1.442275	-0.000170
 552	5.4825e+01	18.0284	116.852875	0.000355	3.547412	1.201896	-0.000142
 553	5.4924e+01	17.9963	116.667167	0.000466	4.662312	1.579634	-0.000187
 554	5.5023e+01	17.9498	116.509719	0.000395	3.952830	1.339255	-0.000158
 555	5.5123e+01	17.9064	116.283639	0.000568	5.675858	1.923033	-0.000227
 556	5.5222e+01	17.8712	116.166562	0.000294	2.939284	0.995856	-0.000118
 557	5.5322e+01	17.8391	115.992965	0.000436	4.358248	1.476615	-0.000174
 558	5.5422e+01	17.7925	115.766886	0.000568	5.675858	1.923033	-0.000227
 559	5.5521e+01	17.7476	115.617512	0.000375	3.750121	1.270575	-0.000150
 560	5.5620e+01	17.7043	115.415655	0.000507	5.067731	1.716994	-0.000203
 561	5.5720e+01	17.6706	115.258207	0.000395	3.952830	1.339255	-0.000158
 562	5.5819e+01	17.6321	115.064424	0.000487	4.865022	1.648314	-0.000195
 563	5.5919e+01	17.5872	114.874679	0.000476	4.763667	1.613974	-0.000191
 564	5.6019e+01	17.5631	114.753565	0.000304	3.040638	1.030196	-0.000122
 565	5.6118e+01	17.5118	114.547671	0.000517	5.169085	1.751334	-0.000207
 566	5.6218e+01	17.4717	114.406371	0.000355	3.547412	1.201896	-0.000142
 567	5.6317e+01	17.4348	114.220663	0.000466	4.662312	1.579634	-0.000187
 568	5.6416e+01	17.3963	113.998620	0.000557	5.574504	1.888693	-0.000223
 569	5.6516e+01	17.3594	113.816949	0.000456	4.560958	1.545294	-0.000183
 570	5.6615e+01	17.3145	113.663538	0.000385	3.851475	1.304915	-0.000154
 571	5.6715e+01	17.2664	113.469756	0.000487	4.865022	1.648314	-0.000195
 572	5.6815e+01	17.2375	113.292122	0.000446	4.459603	1.510954	-0.000179
 573	5.6914e+01	17.1958	113.146785	0.000365	3.648766	1.236235	-0.000146
 574	5.7014e+01	17.1525	112.969151	0.000446	4.459603	1.510954	-0.000179
 575	5.7113e+01	17.1156	112.783443	0.000466	4.662312	1.579634	-0.000187
 576	5.7212e+01	17.0755	112.601771	0.000456	4.560958	1.545294	-0.000183
 577	5.7312e+01	17.0321	112.407989	0.000487	4.865022	1.648314	-0.000195
 578	5.7411e+01	16.9904	112.238429	0.000426	4.256894	1.442275	-0.000170
 579	5.7511e+01	16.9455	112.060795	0.000446	4.459603	1.510954	-0.000179
 580	5.7611e+01	16.9118	111.887198	0.000436	4.358248	1.476615	-0.000174
 581	5.7710e+01	16.8685	111.661119	0.000568	5.675858	1.923033	-0.000227
 582	5.7809e+01	16.8380	111.499633	0.000405	4.054185	1.373595	-0.000162
 583	5.7909e+01	16.7915	111.289702	0.000527	5.270440	1.785673	-0.000211
 584	5.8008e+01	16.7514	111.124180	0.000416	4.155539	1.407935	-0.000166
 585	5.8108e+01	16.7065	110.926360	0.000497	4.966376	1.682654	-0.000199
 586	5.8208e+01	16.6696	110.768912	0.000395	3.952830	1.339255	-0.000158
 587	5.8307e+01	16.6263	110.591278	0.000446	4.459603	1.510954	-0.000179
 588	5.8407e+01	16.6086	110.389421	0.000507	5.067731	1.716994	-0.000203
 589	5.8506e+01	16.5589	110.199676	0.000476	4.763667	1.613974	-0.000191
 590	5.8605e+01	16.5156	109.993782	0.000517	5.169085	1.751334	-0.000207
 591	5.8705e+01	16.4755	109.812111	0.000456	4.560958	1.545294	-0.000183
 592	5.8804e+01	16.4306	109.638514	0.000436	4.358248	1.476615	-0.000174
 593	5.8904e+01	16.3937	109.452806	0.000466	4.662312	1.579634	-0.000187
 594	5.9004e+01	16.3439	109.283246	0.000426	4.256894	1.442275	-0.000170
 595	5.9103e+01	16.3150	109.069278	0.000537	5.371795	1.820013	-0.000215
 596	5.9203e+01	16.2798	108.887607	0.000456	4.560958	1.545294	-0.000183
 597	5.9302e+01	16.2332	108.705935	0.000456	4.560958	1.545294	-0.000183
 598	5.9401e+01	16.1963	108.512153	0.000487	4.865022	1.648314	-0.000195
 599	5.9501e+01	16.1578	108.330482	0.000456	4.560958	1.545294	-0.000183
 600	5.9600e+01	16.1209	108.128625	0.000507	5.067731	1.716994	-0.000203
 601	5.9700e+01	16.0856	107.963102	0.000416	4.155539	1.407935	-0.000166
 602	5.9800e+01	16.0343	107.797580	0.000416	4.155539	1.407935	-0.000166
 603	5.9899e+01	15.9942	107.579575	0.000547	5.473149	1.854353	-0.000219
 604	5.9998e+01	15.9557	107.393866	0.000466	4.662312	1.579634	-0.000187
 605	6.0098e+01	15.9188	107.244492	0.000375	3.750121	1.270575	-0.000150
 606	6.0197e+01	15.8755	107.038598	0.000517	5.169085	1.751334	-0.000207
 607	6.0297e+01	15.8354	106.848853	0.000476	4.763667	1.613974	-0.000191
 608	6.0397e+01	15.7985	106.679293	0.000426	4.256894	1.442275	-0.000170
 609	6.0496e+01	15.7600	106.489548	0.000476	4.763667	1.613974	-0.000191
 610	6.0596e+01	15.7247	106.291728	0.000497	4.966376	1.682654	-0.000199
 611	6.0695e+01	15.6782	106.118131	0.000436	4.358248	1.476615	-0.000174
 612	6.0794e+01	15.6365	105.916275	0.000507	5.067731	1.716994	-0.000203
 613	6.0894e+01	15.5947	105.746715	0.000426	4.256894	1.442275	-0.000170
 614	6.0993e+01	15.5611	105.544858	0.000507	5.067731	1.716994	-0.000203
 615	6.1093e+01	15.5226	105.375298	0.000426	4.256894	1.442275	-0.000170
 616	6.1193e+01	15.4873	105.213813	0.000405	4.054185	1.373595	-0.000162
 617	6.1292e+01	15.4375	104.987733	0.000568	5.675858	1.923033	-0.000227
 618	6.1392e+01	15.4006	104.814137	0.000436	4.358248	1.476615	-0.000174
 619	6.1491e+01	15.3573	104.620354	0.000487	4.865022	1.648314	-0.000195
 620	6.1590e+01	15.3172	104.426572	0.000487	4.865022	1.648314	-0.000195
 621	6.1690e+01	15.2755	104.248938	0.000446	4.459603	1.510954	-0.000179
 622	6.1789e+01	15.2434	104.026895	0.000557	5.574504	1.888693	-0.000223
 623	6.1889e+01	15.1969	103.845224	0.000456	4.560958	1.545294	-0.000183
 624	6.1989e+01	15.1552	103.643367	0.000507	5.067731	1.716994	-0.000203
 625	6.2088e+01	15.1247	103.481882	0.000405	4.054185	1.373595	-0.000162
 626	6.2188e+01	15.0814	103.259839	0.000557	5.574504	1.888693	-0.000223
 627	6.2287e+01	15.0445	103.070094	0.000476	4.763667	1.613974	-0.000191
 628	6.2386e+01	15.0028	102.876311	0.000487	4.865022	1.648314	-0.000195
 629	6.2486e+01	14.9611	102.710789	0.000416	4.155539	1.407935	-0.000166
 630	6.2586e+01	14.9226	102.508932	0.000507	5.067731	1.716994	-0.000203
 631	6.2685e+01	14.8825	102.355521	0.000385	3.851475	1.304915	-0.000154
 632	6.2785e+01	14.8311	102.105219	0.000628	6.283986	2.129072	-0.000252
 633	6.2884e+01	14.8087	101.919510	0.000466	4.662312	1.579634	-0.000187
 634	6.2983e+01	14.7654	101.713616	0.000517	5.169085	1.751334	-0.000207
 635	6.3083e+01	14.7188	101.519834	0.000487	4.865022	1.648314	-0.000195
 636	6.3182e+01	14.6819	101.366423	0.000385	3.851475	1.304915	-0.000154
 637	6.3282e+01	14.6306	101.148417	0.000547	5.473149	1.854353	-0.000219
 638	6.3382e+01	14.6017	100.958672	0.000476	4.763667	1.613974	-0.000191
 639	6.3481e+01	14.5600	100.724518	0.000588	5.878568	1.991713	-0.000235
 640	6.3581e+01	14.5151	100.554958	0.000426	4.256894	1.442275	-0.000170
 641	6.3680e+01	14.4862	100.393473	0.000405	4.054185	1.373595	-0.000162
 642	6.3779e+01	14.4445	100.147208	0.000618	6.182632	2.094732	-0.000248
 643	6.3879e+01	14.4028	99.981685	0.000416	4.155539	1.407935	-0.000166
 644	6.3978e+01	14.3547	99.747531	0.000588	5.878568	1.991713	-0.000235
 645	6.4078e+01	14.3322	99.586046	0.000405	4.054185	1.373595	-0.000162
 646	6.4177e+01	14.2761	99.384189	0.000507	5.067731	1.716994	-0.000203
 647	6.4277e+01	14.2328	99.186369	0.000497	4.966376	1.682654	-0.000199
 648	6.4376e+01	14.1991	98.956253	0.000578	5.777213	1.957373	-0.000231
 649	6.4476e+01	14.1686	98.798804	0.000395	3.952830	1.339255	-0.000158
 650	6.4576e+01	14.1301	98.564650	0.000588	5.878568	1.991713	-0.000235
 651	6.4675e+01	14.0916	98.374905	0.000476	4.763667	1.613974	-0.000191
 652	6.4775e+01	14.0435	98.169011	0.000517	5.169085	1.751334	-0.000207
 653	6.4874e+01	14.0050	97.975229	0.000487	4.865022	1.648314	-0.000195
 654	6.4974e+01	13.9761	97.769335	0.000517	5.169085	1.751334	-0.000207
 655	6.5073e+01	13.9296	97.583626	0.000466	4.662312	1.579634	-0.000187
 656	6.5172e+01	13.8862	97.369658	0.000537	5.371795	1.820013	-0.000215
 657	6.5272e+01	13.8445	97.216247	0.000385	3.851475	1.304915	-0.000154
 658	6.5371e+01	13.8028	96.998242	0.000547	5.473149	1.854353	-0.000219
 659	6.5471e+01	13.7691	96.764088	0.000588	5.878568	1.991713	-0.000235
 660	6.5570e+01	13.7258	96.562231	0.000507	5.067731	1.716994	-0.000203
 661	6.5670e+01	13.6873	96.368449	0.000487	4.865022	1.648314	-0.000195
 662	6.5769e+01	13.6440	96.206963	0.000405	4.054185	1.373595	-0.000162
 663	6.5869e+01	13.6071	95.956661	0.000628	6.283986	2.129072	-0.000252
 664	6.5969e+01	13.5718	95.766915	0.000476	4.763667	1.613974	-0.000191
 665	6.6068e+01	13.5269	95.540836	0.000568	5.675858	1.923033	-0.000227
 666	6.6168e+01	13.4916	95.375313	0.000416	4.155539	1.407935	-0.000166
 667	6.6267e+01	13.4451	95.157308	0.000547	5.473149	1.854353	-0.000219
 668	6.6367e+01	13.4114	94.983711	0.000436	4.358248	1.476615	-0.000174
 669	6.6466e+01	13.3745	94.777817	0.000517	5.169085	1.751334	-0.000207
 670	6.6566e+01	13.3344	94.563849	0.000537	5.371795	1.820013	-0.000215
 671	6.6665e+01	13.2863	94.329695	0.000588	5.878568	1.991713	-0.000235
 672	6.6764e+01	13.2413	94.152061	0.000446	4.459603	1.510954	-0.000179
 673	6.6864e+01	13.2044	93.925982	0.000568	5.675858	1.923033	-0.000227
 674	6.6963e+01	13.1611	93.732199	0.000487	4.865022	1.648314	-0.000195
 675	6.7063e+01	13.1419	93.542454	0.000476	4.763667	1.613974	-0.000191
 676	6.7162e+01	13.0841	93.332523	0.000527	5.270440	1.785673	-0.000211
 677	6.7262e+01	13.0456	93.142777	0.000476	4.763667	1.613974	-0.000191
 678	6.7362e+01	13.0071	92.904586	0.000598	5.979922	2.026053	-0.000239
 679	6.7461e+01	12.9654	92.710804	0.000487	4.865022	1.648314	-0.000195
 680	6.7561e+01	12.9285	92.488761	0.000557	5.574504	1.888693	-0.000223
 681	6.7660e+01	12.8868	92.323239	0.000416	4.155539	1.407935	-0.000166
 682	6.7760e+01	12.8499	92.097159	0.000568	5.675858	1.923033	-0.000227
 683	6.7859e+01	12.8098	91.863005	0.000588	5.878568	1.991713	-0.000235
 684	6.7959e+01	12.7809	91.689408	0.000436	4.358248	1.476615	-0.000174
 685	6.8058e+01	12.7312	91.447180	0.000608	6.081277	2.060392	-0.000243
 686	6.8157e+01	12.6879	91.269546	0.000446	4.459603	1.510954	-0.000179
 687	6.8257e+01	12.6462	91.031355	0.000598	5.979922	2.026053	-0.000239
 688	6.8356e+01	12.6061	90.821424	0.000527	5.270440	1.785673	-0.000211
 689	6.8456e+01	12.5708	90.672050	0.000375	3.750121	1.270575	-0.000150
 690	6.8555e+01	12.5291	90.397525	0.000689	6.892114	2.335111	-0.000276
 691	6.8655e+01	12.4825	90.207779	0.000476	4.763667	1.613974	-0.000191
 692	6.8754e+01	12.4505	89.973626	0.000588	5.878568	1.991713	-0.000235
 693	6.8854e+01	12.4136	89.787917	0.000466	4.662312	1.579634	-0.000187
 694	6.8954e+01	12.3767	89.577986	0.000527	5.270440	1.785673	-0.000211
 695	6.9053e+01	12.3349	89.384204	0.000487	4.865022	1.648314	-0.000195
 696	6.9153e+01	12.2916	89.109679	0.000689	6.892114	2.335111	-0.000276
 697	6.9252e+01	12.2563	88.928007	0.000456	4.560958	1.545294	-0.000183
 698	6.9352e+01	12.2162	88.673668	0.000639	6.385341	2.163412	-0.000256
 699	6.9451e+01	12.1809	88.508145	0.000416	4.155539	1.407935	-0.000166
 700	6.9550e+01	12.1392	88.278029	0.000578	5.777213	1.957373	-0.000231
 701	6.9650e+01	12.0911	88.027726	0.000628	6.283986	2.129072	-0.000252
 702	6.9749e+01	12.0574	87.817795	0.000527	5.270440	1.785673	-0.000211
 703	6.9849e+01	12.0125	87.636124	0.000456	4.560958	1.545294	-0.000183
 704	6.9948e+01	11.9740	87.426193	0.000527	5.270440	1.785673	-0.000211
 705	7.0048e+01	11.9275	87.196076	0.000578	5.777213	1.957373	-0.000231
 706	7.0147e+01	11.9050	86.969997	0.000568	5.675858	1.923033	-0.000227
 707	7.0247e+01	11.8553	86.776214	0.000487	4.865022	1.648314	-0.000195
 708	7.0347e+01	11.8120	86.513800	0.000659	6.588050	2.232092	-0.000264
 709	7.0446e+01	11.7799	86.295795	0.000547	5.473149	1.854353	-0.000219
 710	7.0546e+01	11.7398	86.093938	0.000507	5.067731	1.716994	-0.000203
 711	7.0645e+01	11.6916	85.916304	0.000446	4.459603	1.510954	-0.000179
 712	7.0745e+01	11.6676	85.674076	0.000608	6.081277	2.060392	-0.000243
 713	7.0844e+01	11.6098	85.423774	0.000628	6.283986	2.129072	-0.000252
 714	7.0944e+01	11.5649	85.193657	0.000578	5.777213	1.957373	-0.000231
 715	7.1043e+01	11.5328	84.991800	0.000507	5.067731	1.716994	-0.000203
 716	7.1142e+01	11.4927	84.741498	0.000628	6.283986	2.129072	-0.000252
 717	7.1242e+01	11.4638	84.547715	0.000487	4.865022	1.648314	-0.000195
 718	7.1341e+01	11.4141	84.337784	0.000527	5.270440	1.785673	-0.000211
 719	7.1441e+01	11.3724	84.111705	0.000568	5.675858	1.923033	-0.000227
 720	7.1540e+01	11.3387	83.909848	0.000507	5.067731	1.716994	-0.000203
 721	7.1640e+01	11.2906	83.691842	0.000547	5.473149	1.854353	-0.000219
 722	7.1740e+01	11.2585	83.429429	0.000659	6.588050	2.232092	-0.000264
 723	7.1839e+01	11.2168	83.235646	0.000487	4.865022	1.648314	-0.000195
 724	7.1939e+01	11.1815	83.029752	0.000517	5.169085	1.751334	-0.000207
 725	7.2038e+01	11.1366	82.771375	0.000649	6.486695	2.197752	-0.000260
 726	7.2138e+01	11.1029	82.541259	0.000578	5.777213	1.957373	-0.000231
 727	7.2237e+01	11.0500	82.323253	0.000547	5.473149	1.854353	-0.000219
 728	7.2337e+01	11.0163	82.121397	0.000507	5.067731	1.716994	-0.000203
 729	7.2436e+01	10.9762	81.903391	0.000547	5.473149	1.854353	-0.000219
 730	7.2535e+01	10.9296	81.725757	0.000446	4.459603	1.510954	-0.000179
 731	7.2635e+01	10.8976	81.479492	0.000618	6.182632	2.094732	-0.000248
 732	7.2734e+01	10.8574	81.253412	0.000568	5.675858	1.923033	-0.000227
 733	7.2834e+01	10.8173	81.011184	0.000608	6.081277	2.060392	-0.000243
 734	7.2933e+01	10.7837	80.772993	0.000598	5.979922	2.026053	-0.000239
 735	7.3033e+01	10.7307	80.583248	0.000476	4.763667	1.613974	-0.000191
 736	7.3132e+01	10.6954	80.349094	0.000588	5.878568	1.991713	-0.000235
 737	7.3232e+01	10.6585	80.110903	0.000598	5.979922	2.026053	-0.000239
 738	7.3332e+01	10.6264	79.856563	0.000639	6.385341	2.163412	-0.000256
 739	7.3431e+01	10.5831	79.670855	0.000466	4.662312	1.579634	-0.000187
 740	7.3531e+01	10.5318	79.468998	0.000507	5.067731	1.716994	-0.000203
 741	7.3630e+01	10.4981	79.198510	0.000679	6.790759	2.300772	-0.000272
 742	7.3730e+01	10.4628	79.004728	0.000487	4.865022	1.648314	-0.000195
 743	7.3829e+01	10.4163	78.762500	0.000608	6.081277	2.060392	-0.000243
 744	7.3928e+01	10.3826	78.524309	0.000598	5.979922	2.026053	-0.000239
 745	7.4028e+01	10.3457	78.302266	0.000557	5.574504	1.888693	-0.000223
 746	7.4127e+01	10.3056	78.072149	0.000578	5.777213	1.957373	-0.000231
 747	7.4227e+01	10.2559	77.850107	0.000557	5.574504	1.888693	-0.000223
 748	7.4326e+01	10.2125	77.603842	0.000618	6.182632	2.094732	-0.000248
 749	7.4426e+01	10.1821	77.381799	0.000557	5.574504	1.888693	-0.000223
 750	7.4525e+01	10.1420	77.143608	0.000598	5.979922	2.026053	-0.000239
 751	7.4625e+01	10.0986	76.905417	0.000598	5.979922	2.026053	-0.000239
 752	7.4725e+01	10.0617	76.699523	0.000517	5.169085	1.751334	-0.000207
 753	7.4824e+01	10.0232	76.465369	0.000588	5.878568	1.991713	-0.000235
 754	7.4924e+01	9.9751	76.215067	0.000628	6.283986	2.129072	-0.000252
 755	7.5023e+01	9.9350	76.013210	0.000507	5.067731	1.716994	-0.000203
 756	7.5123e+01	9.9045	75.726574	0.000720	7.196178	2.438131	-0.000288
 757	7.5222e+01	9.8628	75.548940	0.000446	4.459603	1.510954	-0.000179
 758	7.5322e+01	9.8211	75.302674	0.000618	6.182632	2.094732	-0.000248
 759	7.5421e+01	9.7826	75.056409	0.000618	6.182632	2.094732	-0.000248
 760	7.5520e+01	9.7553	74.802070	0.000639	6.385341	2.163412	-0.000256
 761	7.5620e+01	9.7040	74.624436	0.000446	4.459603	1.510954	-0.000179
 762	7.5719e+01	9.6559	74.357985	0.000669	6.689405	2.266432	-0.000268
 763	7.5819e+01	9.6174	74.131905	0.000568	5.675858	1.923033	-0.000227
 764	7.5918e+01	9.5869	73.905825	0.000568	5.675858	1.923033	-0.000227
 765	7.6018e+01	9.5484	73.655523	0.000628	6.283986	2.129072	-0.000252
 766	7.6118e+01	9.5083	73.413295	0.000608	6.081277	2.060392	-0.000243
 767	7.6217e+01	9.4602	73.219512	0.000487	4.865022	1.648314	-0.000195
 768	7.6317e+01	9.4233	72.989396	0.000578	5.777213	1.957373	-0.000231
 769	7.6416e+01	9.3864	72.735056	0.000639	6.385341	2.163412	-0.000256
 770	7.6516e+01	9.3431	72.500902	0.000588	5.878568	1.991713	-0.000235
 771	7.6615e+01	9.3126	72.242525	0.000649	6.486695	2.197752	-0.000260
 772	7.6715e+01	9.2628	72.016446	0.000568	5.675858	1.923033	-0.000227
 773	7.6814e+01	9.2356	71.802478	0.000537	5.371795	1.820013	-0.000215
 774	7.6913e+01	9.1810	71.560250	0.000608	6.081277	2.060392	-0.000243
 775	7.7013e+01	9.1441	71.330133	0.000578	5.777213	1.957373	-0.000231
 776	7.7112e+01	9.0976	71.091942	0.000598	5.979922	2.026053	-0.000239
 777	7.7212e+01	9.0591	70.849714	0.000608	6.081277	2.060392	-0.000243
 778	7.7311e+01	9.0158	70.623634	0.000568	5.675858	1.923033	-0.000227
 779	7.7411e+01	8.9789	70.405629	0.000547	5.473149	1.854353	-0.000219
 780	7.7510e+01	8.9452	70.195698	0.000527	5.270440	1.785673	-0.000211
 781	7.7610e+01	8.9051	69.929247	0.000669	6.689405	2.266432	-0.000268
 782	7.7710e+01	8.8634	69.687019	0.000608	6.081277	2.060392	-0.000243
 783	7.7809e+01	8.8233	69.464976	0.000557	5.574504	1.888693	-0.000223
 784	7.7909e+01	8.7784	69.218711	0.000618	6.182632	2.094732	-0.000248
 785	7.8008e+01	8.7479	68.972446	0.000618	6.182632	2.094732	-0.000248
 786	7.8108e+01	8.7078	68.754440	0.000547	5.473149	1.854353	-0.000219
 787	7.8207e+01	8.6741	68.532398	0.000557	5.574504	1.888693	-0.000223
 788	7.8306e+01	8.6260	68.253835	0.000699	6.993468	2.369451	-0.000280
 789	7.8406e+01	8.5891	68.007570	0.000618	6.182632	2.094732	-0.000248
 790	7.8505e+01	8.5554	67.809750	0.000497	4.966376	1.682654	-0.000199
 791	7.8605e+01	8.5056	67.547337	0.000659	6.588050	2.232092	-0.000264
 792	7.8704e+01	8.4623	67.280886	0.000669	6.689405	2.266432	-0.000268
 793	7.8804e+01	8.4302	67.046732	0.000588	5.878568	1.991713	-0.000235
 794	7.8903e+01	8.3901	66.812578	0.000588	5.878568	1.991713	-0.000235
 795	7.9003e+01	8.3484	66.546127	0.000669	6.689405	2.266432	-0.000268
 796	7.9103e+01	8.3035	66.328122	0.000547	5.473149	1.854353	-0.000219
 797	7.9202e+01	8.2714	66.053596	0.000689	6.892114	2.335111	-0.000276
 798	7.9302e+01	8.2265	65.791183	0.000659	6.588050	2.232092	-0.000264
 799	7.9401e+01	8.1944	65.593363	0.000497	4.966376	1.682654	-0.000199
 800	7.9501e+01	8.1383	65.339023	0.000639	6.385341	2.163412	-0.000256
 801	7.9600e+01	8.1110	65.125055	0.000537	5.371795	1.820013	-0.000215
 802	7.9700e+01	8.0645	64.850530	0.000689	6.892114	2.335111	-0.000276
 803	7.9799e+01	8.0228	64.620413	0.000578	5.777213	1.957373	-0.000231
 804	7.9898e+01	7.9811	64.353962	0.000669	6.689405	2.266432	-0.000268
 805	7.9998e+01	7.9522	64.127883	0.000568	5.675858	1.923033	-0.000227
 806	8.0097e+01	7.9073	63.885654	0.000608	6.081277	2.060392	-0.000243
 807	8.0197e+01	7.8736	63.643426	0.000608	6.081277	2.060392	-0.000243
 808	8.0296e+01	7.8222	63.397161	0.000618	6.182632	2.094732	-0.000248
 809	8.0396e+01	7.7821	63.122636	0.000689	6.892114	2.335111	-0.000276
 810	8.0496e+01	7.7468	62.892519	0.000578	5.777213	1.957373	-0.000231
 811	8.0595e+01	7.7196	62.650291	0.000608	6.081277	2.060392	-0.000243
 812	8.0695e+01	7.6634	62.395951	0.000639	6.385341	2.163412	-0.000256
 813	8.0794e+01	7.6345	62.165835	0.000578	5.777213	1.957373	-0.000231
 814	8.0894e+01	7.5912	61.895347	0.000679	6.790759	2.300772	-0.000272
 815	8.0993e+01	7.5527	61.653118	0.000608	6.081277	2.060392	-0.000243
 816	8.1093e+01	7.5094	61.431076	0.000557	5.574504	1.888693	-0.000223
 817	8.1192e+01	7.4661	61.172699	0.000649	6.486695	2.197752	-0.000260
 818	8.1291e+01	7.4228	60.861840	0.000780	7.804305	2.644170	-0.000312
 819	8.1391e+01	7.3859	60.647872	0.000537	5.371795	1.820013	-0.000215
 820	8.1490e+01	7.3442	60.405643	0.000608	6.081277	2.060392	-0.000243
 821	8.1590e+01	7.3137	60.175527	0.000578	5.777213	1.957373	-0.000231
 822	8.1689e+01	7.2768	59.888890	0.000720	7.196178	2.438131	-0.000288
 823	8.1789e+01	7.2287	59.618402	0.000679	6.790759	2.300772	-0.000272
 824	8.1888e+01	7.1870	59.404434	0.000537	5.371795	1.820013	-0.000215
 825	8.1988e+01	7.1404	59.125871	0.000699	6.993468	2.369451	-0.000280
 826	8.2088e+01	7.1116	58.851346	0.000689	6.892114	2.335111	-0.000276
 827	8.2187e+01	7.0715	58.621229	0.000578	5.777213	1.957373	-0.000231
 828	8.2287e+01	7.0314	58.350741	0.000679	6.790759	2.300772	-0.000272
 829	8.2386e+01	6.9929	58.128699	0.000557	5.574504	1.888693	-0.000223
 830	8.2486e+01	6.9511	57.842062	0.000720	7.196178	2.438131	-0.000288
 831	8.2585e+01	6.9239	57.611946	0.000578	5.777213	1.957373	-0.000231
 832	8.2684e+01	6.8741	57.361643	0.000628	6.283986	2.129072	-0.000252
 833	8.2784e+01	6.8324	57.111341	0.000628	6.283986	2.129072	-0.000252
 834	8.2883e+01	6.7955	56.848927	0.000659	6.588050	2.232092	-0.000264
 835	8.2983e+01	6.7538	56.578439	0.000679	6.790759	2.300772	-0.000272
 836	8.3082e+01	6.7153	56.340248	0.000598	5.979922	2.026053	-0.000239
 837	8.3182e+01	6.6624	56.065723	0.000689	6.892114	2.335111	-0.000276
 838	8.3281e+01	6.6399	55.827532	0.000598	5.979922	2.026053	-0.000239
 839	8.3381e+01	6.5934	55.561081	0.000669	6.689405	2.266432	-0.000268
 840	8.3481e+01	6.5501	55.318852	0.000608	6.081277	2.060392	-0.000243
 841	8.3580e+01	6.5196	55.076624	0.000608	6.081277	2.060392	-0.000243
 842	8.3680e+01	6.4667	54.781913	0.000740	7.398887	2.506811	-0.000296
 843	8.3779e+01	6.4362	54.567945	0.000537	5.371795	1.820013	-0.000215
 844	8.3879e+01	6.3961	54.293420	0.000689	6.892114	2.335111	-0.000276
 845	8.3978e+01	6.3576	54.010820	0.000709	7.094823	2.403791	-0.000284
 846	8.4078e+01	6.3175	53.744370	0.000669	6.689405	2.266432	-0.000268
 847	8.4177e+01	6.2822	53.510216	0.000588	5.878568	1.991713	-0.000235
 848	8.4276e+01	6.2405	53.272025	0.000598	5.979922	2.026053	-0.000239
 849	8.4376e+01	6.1891	52.997499	0.000689	6.892114	2.335111	-0.000276
 850	8.4475e+01	6.1570	52.702788	0.000740	7.398887	2.506811	-0.000296
 851	8.4575e+01	6.1201	52.444412	0.000649	6.486695	2.197752	-0.000260
 852	8.4674e+01	6.0800	52.181998	0.000659	6.588050	2.232092	-0.000264
 853	8.4774e+01	6.0383	51.931696	0.000628	6.283986	2.129072	-0.000252
 854	8.4874e+01	6.0014	51.645059	0.000720	7.196178	2.438131	-0.000288
 855	8.4973e+01	5.9581	51.423016	0.000557	5.574504	1.888693	-0.000223
 856	8.5073e+01	5.9212	51.128306	0.000740	7.398887	2.506811	-0.000296
 857	8.5172e+01	5.8779	50.882040	0.000618	6.182632	2.094732	-0.000248
 858	8.5272e+01	5.8378	50.591367	0.000730	7.297532	2.472471	-0.000292
 859	8.5371e+01	5.7977	50.332990	0.000649	6.486695	2.197752	-0.000260
 860	8.5471e+01	5.7544	50.070576	0.000659	6.588050	2.232092	-0.000264
 861	8.5570e+01	5.7159	49.775865	0.000740	7.398887	2.506811	-0.000296
 862	8.5669e+01	5.6838	49.537674	0.000598	5.979922	2.026053	-0.000239
 863	8.5769e+01	5.6453	49.267186	0.000679	6.790759	2.300772	-0.000272
 864	8.5868e+01	5.5988	48.980549	0.000720	7.196178	2.438131	-0.000288
 865	8.5968e+01	5.5587	48.746395	0.000588	5.878568	1.991713	-0.000235
 866	8.6067e+01	5.5170	48.415350	0.000831	8.311078	2.815870	-0.000333
 867	8.6167e+01	5.4801	48.181196	0.000588	5.878568	1.991713	-0.000235
 868	8.6266e+01	5.4432	47.882448	0.000750	7.500242	2.541151	-0.000300
 869	8.6366e+01	5.3934	47.607923	0.000689	6.892114	2.335111	-0.000276
 870	8.6466e+01	5.3597	47.389918	0.000547	5.473149	1.854353	-0.000219
 871	8.6565e+01	5.3180	47.062910	0.000821	8.209724	2.781530	-0.000329
 872	8.6665e+01	5.2779	46.812607	0.000628	6.283986	2.129072	-0.000252
 873	8.6764e+01	5.2410	46.546156	0.000669	6.689405	2.266432	-0.000268
 874	8.6864e+01	5.2025	46.243371	0.000760	7.601596	2.575490	-0.000304
 875	8.6963e+01	5.1512	45.980957	0.000659	6.588050	2.232092	-0.000264
 876	8.7063e+01	5.1175	45.690284	0.000730	7.297532	2.472471	-0.000292
 877	8.7162e+01	5.0710	45.403647	0.000720	7.196178	2.438131	-0.000288
 878	8.7261e+01	5.0389	45.153345	0.000628	6.283986	2.129072	-0.000252
 879	8.7361e+01	5.0020	44.882857	0.000679	6.790759	2.300772	-0.000272
 880	8.7460e+01	4.9555	44.584109	0.000750	7.500242	2.541151	-0.000300
 881	8.7560e+01	4.9154	44.325732	0.000649	6.486695	2.197752	-0.000260
 882	8.7659e+01	4.8817	44.075429	0.000628	6.283986	2.129072	-0.000252
 883	8.7759e+01	4.8400	43.752459	0.000811	8.108369	2.747190	-0.000325
 884	8.7859e+01	4.8095	43.514268	0.000598	5.979922	2.026053	-0.000239
 885	8.7958e+01	4.7549	43.199371	0.000791	7.905660	2.678510	-0.000316
 886	8.8058e+01	4.7229	42.940994	0.000649	6.486695	2.197752	-0.000260
 887	8.8157e+01	4.6779	42.714915	0.000568	5.675858	1.923033	-0.000227
 888	8.8257e+01	4.6314	42.400018	0.000791	7.905660	2.678510	-0.000316
 889	8.8356e+01	4.5945	42.157790	0.000608	6.081277	2.060392	-0.000243
 890	8.8456e+01	4.5608	41.850968	0.000770	7.702951	2.609830	-0.000308
 891	8.8555e+01	4.5207	41.560294	0.000730	7.297532	2.472471	-0.000292
 892	8.8654e+01	4.4758	41.285769	0.000689	6.892114	2.335111	-0.000276
 893	8.8754e+01	4.4341	41.007206	0.000699	6.993468	2.369451	-0.000280
 894	8.8853e+01	4.4020	40.736718	0.000679	6.790759	2.300772	-0.000272
 895	8.8953e+01	4.3523	40.450082	0.000720	7.196178	2.438131	-0.000288
 896	8.9052e+01	4.3234	40.167482	0.000709	7.094823	2.403791	-0.000284
 897	8.9152e+01	4.2769	39.880845	0.000720	7.196178	2.438131	-0.000288
 898	8.9251e+01	4.2480	39.626506	0.000639	6.385341	2.163412	-0.000256
 899	8.9351e+01	4.2047	39.347943	0.000699	6.993468	2.369451	-0.000280
 900	8.9451e+01	4.1582	39.045158	0.000760	7.601596	2.575490	-0.000304
 901	8.9550e+01	4.1229	38.762559	0.000709	7.094823	2.403791	-0.000284
 902	8.9650e+01	4.0860	38.479959	0.000709	7.094823	2.403791	-0.000284
 903	8.9749e+01	4.0507	38.217545	0.000659	6.588050	2.232092	-0.000264
 904	8.9849e+01	4.0026	37.910723	0.000770	7.702951	2.609830	-0.000308
 905	8.9948e+01	3.9625	37.595827	0.000791	7.905660	2.678510	-0.000316
 906	9.0047e+01	3.9272	37.337450	0.000649	6.486695	2.197752	-0.000260
 907	9.0147e+01	3.8838	37.058888	0.000699	6.993468	2.369451	-0.000280
 908	9.0246e+01	3.8437	36.748028	0.000780	7.804305	2.644170	-0.000312
 909	9.0346e+01	3.8052	36.501763	0.000618	6.182632	2.094732	-0.000248
 910	9.0445e+01	3.7651	36.186866	0.000791	7.905660	2.678510	-0.000316
 911	9.0545e+01	3.7298	35.920415	0.000669	6.689405	2.266432	-0.000268
 912	9.0644e+01	3.6785	35.649927	0.000679	6.790759	2.300772	-0.000272
 913	9.0744e+01	3.6512	35.343105	0.000770	7.702951	2.609830	-0.000308
 914	9.0844e+01	3.5983	35.068580	0.000689	6.892114	2.335111	-0.000276
 915	9.0943e+01	3.5598	34.802129	0.000669	6.689405	2.266432	-0.000268
 916	9.1043e+01	3.5261	34.458972	0.000862	8.615142	2.918889	-0.000345
 917	9.1142e+01	3.4876	34.204633	0.000639	6.385341	2.163412	-0.000256
 918	9.1242e+01	3.4379	33.913959	0.000730	7.297532	2.472471	-0.000292
 919	9.1341e+01	3.4058	33.607136	0.000770	7.702951	2.609830	-0.000308
 920	9.1441e+01	3.3641	33.348760	0.000649	6.486695	2.197752	-0.000260
 921	9.1540e+01	3.3320	33.037900	0.000780	7.804305	2.644170	-0.000312
 922	9.1639e+01	3.2855	32.718967	0.000801	8.007015	2.712850	-0.000321
 923	9.1739e+01	3.2454	32.460590	0.000649	6.486695	2.197752	-0.000260
 924	9.1838e+01	3.2004	32.141656	0.000801	8.007015	2.712850	-0.000321
 925	9.1938e+01	3.1700	31.859057	0.000709	7.094823	2.403791	-0.000284
 926	9.2037e+01	3.1122	31.564346	0.000740	7.398887	2.506811	-0.000296
 927	9.2137e+01	3.0898	31.305969	0.000649	6.486695	2.197752	-0.000260
 928	9.2237e+01	3.0609	30.978961	0.000821	8.209724	2.781530	-0.000329
 929	9.2336e+01	3.0063	30.696362	0.000709	7.094823	2.403791	-0.000284
 930	9.2436e+01	2.9759	30.409725	0.000720	7.196178	2.438131	-0.000288
 931	9.2535e+01	2.9245	30.139237	0.000679	6.790759	2.300772	-0.000272
 932	9.2635e+01	2.8956	29.840489	0.000750	7.500242	2.541151	-0.000300
 933	9.2734e+01	2.8523	29.553852	0.000720	7.196178	2.438131	-0.000288
 934	9.2834e+01	2.8106	29.247030	0.000770	7.702951	2.609830	-0.000308
 935	9.2933e+01	2.7673	28.964430	0.000709	7.094823	2.403791	-0.000284
 936	9.3032e+01	2.7176	28.681831	0.000709	7.094823	2.403791	-0.000284
 937	9.3132e+01	2.6839	28.379046	0.000760	7.601596	2.575490	-0.000304
 938	9.3231e+01	2.6518	28.088372	0.000730	7.297532	2.472471	-0.000292
 939	9.3331e+01	2.6037	27.793661	0.000740	7.398887	2.506811	-0.000296
 940	9.3430e+01	2.5764	27.511061	0.000709	7.094823	2.403791	-0.000284
 941	9.3530e+01	2.5299	27.180016	0.000831	8.311078	2.815870	-0.000333
 942	9.3629e+01	2.4834	26.901454	0.000699	6.993468	2.369451	-0.000280
 943	9.3729e+01	2.4481	26.582520	0.000801	8.007015	2.712850	-0.000321
 944	9.3829e+01	2.4176	26.328181	0.000639	6.385341	2.163412	-0.000256
 945	9.3928e+01	2.3630	26.069804	0.000649	6.486695	2.197752	-0.000260
 946	9.4028e+01	2.3213	25.750870	0.000801	8.007015	2.712850	-0.000321
 947	9.4127e+01	2.2924	25.440011	0.000780	7.804305	2.644170	-0.000312
 948	9.4227e+01	2.2556	25.157411	0.000709	7.094823	2.403791	-0.000284
 949	9.4326e+01	2.2090	24.830403	0.000821	8.209724	2.781530	-0.000329
 950	9.4425e+01	2.1641	24.543767	0.000720	7.196178	2.438131	-0.000288
 951	9.4525e+01	2.1384	24.232907	0.000780	7.804305	2.644170	-0.000312
 952	9.4624e+01	2.0903	23.889751	0.000862	8.615142	2.918889	-0.000345
 953	9.4724e+01	2.0566	23.691931	0.000497	4.966376	1.682654	-0.000199
 954	9.4823e+01	2.0149	23.377034	0.000791	7.905660	2.678510	-0.000316
 955	9.4923e+01	1.9716	23.021767	0.000892	8.919206	3.021909	-0.000357
 956	9.5022e+01	1.9251	22.759353	0.000659	6.588050	2.232092	-0.000264
 957	9.5122e+01	1.8994	22.460605	0.000750	7.500242	2.541151	-0.000300
 958	9.5222e+01	1.8481	22.178005	0.000709	7.094823	2.403791	-0.000284
 959	9.5321e+01	1.8080	21.887331	0.000730	7.297532	2.472471	-0.000292
 960	9.5421e+01	1.7839	21.560323	0.000821	8.209724	2.781530	-0.000329
 961	9.5520e+01	1.7342	21.310021	0.000628	6.283986	2.129072	-0.000252
 962	9.5620e+01	1.6909	20.954753	0.000892	8.919206	3.021909	-0.000357
 963	9.5719e+01	1.6556	20.643894	0.000780	7.804305	2.644170	-0.000312
 964	9.5819e+01	1.6123	20.357257	0.000720	7.196178	2.438131	-0.000288
 965	9.5918e+01	1.5738	20.066583	0.000730	7.297532	2.472471	-0.000292
 966	9.6017e+01	1.5304	19.751687	0.000791	7.905660	2.678510	-0.000316
 967	9.6117e+01	1.4984	19.448901	0.000760	7.601596	2.575490	-0.000304
 968	9.6216e+01	1.4582	19.134005	0.000791	7.905660	2.678510	-0.000316
 969	9.6316e+01	1.4133	18.863517	0.000679	6.790759	2.300772	-0.000272
 970	9.6415e+01	1.3732	18.568806	0.000740	7.398887	2.506811	-0.000296
 971	9.6515e+01	1.3331	18.221612	0.000872	8.716497	2.953229	-0.000349
 972	9.6615e+01	1.2914	17.971310	0.000628	6.283986	2.129072	-0.000252
 973	9.6714e+01	1.2545	17.616042	0.000892	8.919206	3.021909	-0.000357
 974	9.6814e+01	1.2128	17.305182	0.000780	7.804305	2.644170	-0.000312
 975	9.6913e+01	1.1743	17.018546	0.000720	7.196178	2.438131	-0.000288
 976	9.7013e+01	1.1390	16.735946	0.000709	7.094823	2.403791	-0.000284
 977	9.7112e+01	1.0957	16.384715	0.000882	8.817852	2.987569	-0.000353
 978	9.7212e+01	1.0476	16.134413	0.000628	6.283986	2.129072	-0.000252
 979	9.7311e+01	1.0267	15.787219	0.000872	8.716497	2.953229	-0.000349
 980	9.7410e+01	0.9786	15.472323	0.000791	7.905660	2.678510	-0.000316
 981	9.7510e+01	0.9305	15.185686	0.000720	7.196178	2.438131	-0.000288
 982	9.7609e+01	0.8936	14.870789	0.000791	7.905660	2.678510	-0.000316
 983	9.7709e+01	0.8438	14.547819	0.000811	8.108369	2.747190	-0.000325
 984	9.7808e+01	0.8182	14.232922	0.000791	7.905660	2.678510	-0.000316
 985	9.7908e+01	0.7620	13.913988	0.000801	8.007015	2.712850	-0.000321
 986	9.8007e+01	0.7396	13.607166	0.000770	7.702951	2.609830	-0.000308
 987	9.8107e+01	0.6930	13.272084	0.000841	8.412433	2.850209	-0.000337
 988	9.8207e+01	0.6545	12.985447	0.000720	7.196178	2.438131	-0.000288
 989	9.8306e+01	0.6128	12.698810	0.000720	7.196178	2.438131	-0.000288
 990	9.8406e+01	0.5695	12.359691	0.000851	8.513788	2.884549	-0.000341
 991	9.8505e+01	0.5438	12.036720	0.000811	8.108369	2.747190	-0.000325
 992	9.8605e+01	0.4989	11.750084	0.000720	7.196178	2.438131	-0.000288
 993	9.8704e+01	0.4572	11.443261	0.000770	7.702951	2.609830	-0.000308
 994	9.8803e+01	0.4187	11.136439	0.000770	7.702951	2.609830	-0.000308
 995	9.8903e+01	0.3850	10.817505	0.000801	8.007015	2.712850	-0.000321
 996	9.9002e+01	0.3417	10.494534	0.000811	8.108369	2.747190	-0.000325
 997	9.9102e+01	0.2968	10.147341	0.000872	8.716497	2.953229	-0.000349
 998	9.9201e+01	0.2567	9.876853	0.000679	6.790759	2.300772	-0.000272
 999	9.9301e+01	0.2166	9.537733	0.000851	8.513788	2.884549	-0.000341
1000	9.9400e+01	0.1861	9.251097	0.000720	7.196178	2.438131	-0.000288
1001	9.9500e+01	0.1348	8.952348	0.000750	7.500242	2.541151	-0.000300
1002	9.9600e+01	0.0882	8.613229	0.000851	8.513788	2.884549	-0.000341
1003	9.9699e+01	0.0497	8.302370	0.000780	7.804305	2.644170	-0.000312
1004	9.9799e+01	0.0112	7.959213	0.000862	8.615142	2.918889	-0.000345
1005	9.9898e+01	-0.0144	7.741208	0.000547	5.473149	1.854353	-0.000219
1006	9.9998e+01	-0.0626	7.402088	0.000851	8.513788	2.884549	-0.000341
1007	1.0010e+02	-0.0834	7.139675	0.000659	6.588050	2.232092	-0.000264
1008	1.0020e+02	-0.1380	6.739998	0.001003	10.034107	3.399647	-0.000402
1009	1.0030e+02	-0.1733	6.473547	0.000669	6.689405	2.266432	-0.000268
1010	1.0040e+02	-0.2118	6.170762	0.000760	7.601596	2.575490	-0.000304
1011	1.0050e+02	-0.2519	5.847791	0.000811	8.108369	2.747190	-0.000325
1012	1.0059e+02	-0.3064	5.516746	0.000831	8.311078	2.815870	-0.000333
1013	1.0069e+02	-0.3305	5.209924	0.000770	7.702951	2.609830	-0.000308
1014	1.0079e+02	-0.3722	4.890990	0.000801	8.007015	2.712850	-0.000321
1015	1.0089e+02	-0.4059	4.568019	0.000811	8.108369	2.747190	-0.000325
1016	1.0099e+02	-0.4508	4.220825	0.000872	8.716497	2.953229	-0.000349
1017	1.0109e+02	-0.4845	3.970523	0.000628	6.283986	2.129072	-0.000252
1018	1.0119e+02	-0.5326	3.595069	0.000943	9.425979	3.193608	-0.000377
1019	1.0129e+02	-0.5663	3.316507	0.000699	6.993468	2.369451	-0.000280
1020	1.0139e+02	-0.6064	2.920868	0.000993	9.932752	3.365308	-0.000398
1021	1.0149e+02	-0.6513	2.658454	0.000659	6.588050	2.232092	-0.000264
1022	1.0159e+02	-0.6898	2.355669	0.000760	7.601596	2.575490	-0.000304
1023	1.0169e+02	-0.7299	1.996364	0.000902	9.020561	3.056249	-0.000361
1024	1.0179e+02	-0.7797	1.709727	0.000720	7.196178	2.438131	-0.000288
1025	1.0189e+02	-0.8085	1.390793	0.000801	8.007015	2.712850	-0.000321
1026	1.0199e+02	-0.8518	1.039562	0.000882	8.817852	2.987569	-0.000353
1027	1.0209e+02	-0.8936	0.740814	0.000750	7.500242	2.541151	-0.000300
1028	1.0219e+02	-0.9272	0.373435	0.000922	9.223270	3.124928	-0.000369
1029	1.0229e+02	-0.9690	0.042390	0.000831	8.311078	2.815870	-0.000333
1030	1.0239e+02	-1.0010	-0.280581	0.000811	8.108369	2.747190	-0.000325
1031	1.0248e+02	-1.0572	-0.619700	0.000851	8.513788	2.884549	-0.000341
1032	1.0258e+02	-1.0893	-0.890188	0.000679	6.790759	2.300772	-0.000272
1033	1.0268e+02	-1.1246	-1.201048	0.000780	7.804305	2.644170	-0.000312
1034	1.0278e+02	-1.1727	-1.548242	0.000872	8.716497	2.953229	-0.000349
1035	1.0288e+02	-1.2096	-1.907547	0.000902	9.020561	3.056249	-0.000361
1036	1.0298e+02	-1.2497	-2.186109	0.000699	6.993468	2.369451	-0.000280
1037	1.0308e+02	-1.2962	-2.537340	0.000882	8.817852	2.987569	-0.000353
1038	1.0318e+02	-1.3283	-2.848199	0.000780	7.804305	2.644170	-0.000312
1039	1.0328e+02	-1.3604	-3.187319	0.000851	8.513788	2.884549	-0.000341
1040	1.0338e+02	-1.4149	-3.518364	0.000831	8.311078	2.815870	-0.000333
1041	1.0348e+02	-1.4518	-3.809038	0.000730	7.297532	2.472471	-0.000292
1042	1.0358e+02	-1.4919	-4.123934	0.000791	7.905660	2.678510	-0.000316
1043	1.0368e+02	-1.5288	-4.491314	0.000922	9.223270	3.124928	-0.000369
1044	1.0378e+02	-1.5625	-4.781987	0.000730	7.297532	2.472471	-0.000292
1045	1.0388e+02	-1.6123	-5.129181	0.000872	8.716497	2.953229	-0.000349
1046	1.0398e+02	-1.6475	-5.440040	0.000780	7.804305	2.644170	-0.000312
1047	1.0408e+02	-1.6893	-5.750900	0.000780	7.804305	2.644170	-0.000312
1048	1.0418e+02	-1.7358	-6.073871	0.000811	8.108369	2.747190	-0.000325
1049	1.0428e+02	-1.7679	-6.380693	0.000770	7.702951	2.609830	-0.000308
1050	1.0438e+02	-1.8096	-6.691552	0.000780	7.804305	2.644170	-0.000312
1051	1.0447e+02	-1.8481	-7.022598	0.000831	8.311078	2.815870	-0.000333
1052	1.0457e+02	-1.8946	-7.345568	0.000811	8.108369	2.747190	-0.000325
1053	1.0467e+02	-1.9299	-7.668539	0.000811	8.108369	2.747190	-0.000325
1054	1.0477e+02	-1.9748	-7.995547	0.000821	8.209724	2.781530	-0.000329
1055	1.0487e+02	-2.0053	-8.306407	0.000780	7.804305	2.644170	-0.000312
1056	1.0497e+02	-2.0550	-8.653600	0.000872	8.716497	2.953229	-0.000349
1057	1.0507e+02	-2.0871	-8.956386	0.000760	7.601596	2.575490	-0.000304
1058	1.0517e+02	-2.1256	-9.243022	0.000720	7.196178	2.438131	-0.000288
1059	1.0527e+02	-2.1641	-9.570030	0.000821	8.209724	2.781530	-0.000329
1060	1.0537e+02	-2.2074	-9.888964	0.000801	8.007015	2.712850	-0.000321
1061	1.0547e+02	-2.2395	-10.187712	0.000750	7.500242	2.541151	-0.000300
1062	1.0557e+02	-2.2892	-10.567203	0.000953	9.527334	3.227948	-0.000381
1063	1.0567e+02	-2.3245	-10.841728	0.000689	6.892114	2.335111	-0.000276
1064	1.0577e+02	-2.3598	-11.180847	0.000851	8.513788	2.884549	-0.000341
1065	1.0587e+02	-2.4047	-11.483633	0.000760	7.601596	2.575490	-0.000304
1066	1.0597e+02	-2.4449	-11.826789	0.000862	8.615142	2.918889	-0.000345
1067	1.0607e+02	-2.4721	-12.121500	0.000740	7.398887	2.506811	-0.000296
1068	1.0617e+02	-2.5202	-12.440434	0.000801	8.007015	2.712850	-0.000321
1069	1.0627e+02	-2.5620	-12.702848	0.000659	6.588050	2.232092	-0.000264
1070	1.0637e+02	-2.6021	-13.058116	0.000892	8.919206	3.021909	-0.000357
1071	1.0647e+02	-2.6470	-13.397235	0.000851	8.513788	2.884549	-0.000341
1072	1.0656e+02	-2.6807	-13.708094	0.000780	7.804305	2.644170	-0.000312
1073	1.0666e+02	-2.7144	-13.962434	0.000639	6.385341	2.163412	-0.000256
1074	1.0676e+02	-2.7689	-14.309628	0.000872	8.716497	2.953229	-0.000349
1075	1.0686e+02	-2.8090	-14.672970	0.000912	9.121915	3.090589	-0.000365
1076	1.0696e+02	-2.8443	-14.911161	0.000598	5.979922	2.026053	-0.000239
1077	1.0706e+02	-2.8828	-15.246243	0.000841	8.412433	2.850209	-0.000337
1078	1.0716e+02	-2.9181	-15.561140	0.000791	7.905660	2.678510	-0.000316
1079	1.0726e+02	-2.9742	-15.896222	0.000841	8.412433	2.850209	-0.000337
1080	1.0736e+02	-3.0095	-16.150562	0.000639	6.385341	2.163412	-0.000256
1081	1.0746e+02	-3.0432	-16.509867	0.000902	9.020561	3.056249	-0.000361
1082	1.0756e+02	-3.0817	-16.804578	0.000740	7.398887	2.506811	-0.000296
1083	1.0766e+02	-3.1234	-17.111400	0.000770	7.702951	2.609830	-0.000308
1084	1.0776e+02	-3.1652	-17.450519	0.000851	8.513788	2.884549	-0.000341
1085	1.0786e+02	-3.2037	-17.729082	0.000699	6.993468	2.369451	-0.000280
1086	1.0796e+02	-3.2422	-18.043978	0.000791	7.905660	2.678510	-0.000316
1087	1.0806e+02	-3.2839	-18.334652	0.000730	7.297532	2.472471	-0.000292
1088	1.0816e+02	-3.3240	-18.645511	0.000780	7.804305	2.644170	-0.000312
1089	1.0826e+02	-3.3625	-18.976557	0.000831	8.311078	2.815870	-0.000333
1090	1.0836e+02	-3.4026	-19.279342	0.000760	7.601596	2.575490	-0.000304
1091	1.0845e+02	-3.4379	-19.594238	0.000791	7.905660	2.678510	-0.000316
1092	1.0855e+02	-3.4796	-19.832429	0.000598	5.979922	2.026053	-0.000239
1093	1.0865e+02	-3.5197	-20.183660	0.000882	8.817852	2.987569	-0.000353
1094	1.0875e+02	-3.5598	-20.498557	0.000791	7.905660	2.678510	-0.000316
1095	1.0885e+02	-3.6079	-20.765008	0.000669	6.689405	2.266432	-0.000268
1096	1.0895e+02	-3.6416	-21.079904	0.000791	7.905660	2.678510	-0.000316
1097	1.0905e+02	-3.6817	-21.394801	0.000791	7.905660	2.678510	-0.000316
1098	1.0915e+02	-3.7250	-21.681437	0.000720	7.196178	2.438131	-0.000288
1099	1.0925e+02	-3.7651	-21.988260	0.000770	7.702951	2.609830	-0.000308
1100	1.0935e+02	-3.8052	-22.291045	0.000760	7.601596	2.575490	-0.000304
1101	1.0945e+02	-3.8437	-22.593830	0.000760	7.601596	2.575490	-0.000304
1102	1.0955e+02	-3.8726	-22.868355	0.000689	6.892114	2.335111	-0.000276
1103	1.0965e+02	-3.9175	-23.179215	0.000780	7.804305	2.644170	-0.000312
1104	1.0975e+02	-3.9592	-23.494111	0.000791	7.905660	2.678510	-0.000316
1105	1.0985e+02	-3.9961	-23.780748	0.000720	7.196178	2.438131	-0.000288
1106	1.0995e+02	-4.0475	-24.083533	0.000760	7.601596	2.575490	-0.000304
1107	1.1005e+02	-4.0828	-24.370170	0.000720	7.196178	2.438131	-0.000288
1108	1.1015e+02	-4.1133	-24.676992	0.000770	7.702951	2.609830	-0.000308
1109	1.1025e+02	-4.1630	-24.971703	0.000740	7.398887	2.506811	-0.000296
1110	1.1035e+02	-4.2063	-25.282563	0.000780	7.804305	2.644170	-0.000312
1111	1.1044e+02	-4.2384	-25.528828	0.000618	6.182632	2.094732	-0.000248
1112	1.1054e+02	-4.2833	-25.855836	0.000821	8.209724	2.781530	-0.000329
1113	1.1064e+02	-4.3170	-26.118250	0.000659	6.588050	2.232092	-0.000264
1114	1.1074e+02	-4.3539	-26.404886	0.000720	7.196178	2.438131	-0.000288
1115	1.1084e+02	-4.4004	-26.679412	0.000689	6.892114	2.335111	-0.000276
1116	1.1094e+02	-4.4485	-26.998345	0.000801	8.007015	2.712850	-0.000321
1117	1.1104e+02	-4.4822	-27.293056	0.000740	7.398887	2.506811	-0.000296
1118	1.1114e+02	-4.5159	-27.555470	0.000659	6.588050	2.232092	-0.000264
1119	1.1124e+02	-4.5528	-27.874404	0.000801	8.007015	2.712850	-0.000321
1120	1.1134e+02	-4.5993	-28.136818	0.000659	6.588050	2.232092	-0.000264
1121	1.1144e+02	-4.6378	-28.443640	0.000770	7.702951	2.609830	-0.000308
1122	1.1154e+02	-4.6844	-28.730276	0.000720	7.196178	2.438131	-0.000288
1123	1.1164e+02	-4.7132	-29.020950	0.000730	7.297532	2.472471	-0.000292
1124	1.1174e+02	-4.7614	-29.323735	0.000760	7.601596	2.575490	-0.000304
1125	1.1184e+02	-4.7918	-29.574038	0.000628	6.283986	2.129072	-0.000252
1126	1.1194e+02	-4.8352	-29.901046	0.000821	8.209724	2.781530	-0.000329
1127	1.1204e+02	-4.8849	-30.135200	0.000588	5.878568	1.991713	-0.000235
1128	1.1214e+02	-4.9170	-30.442022	0.000770	7.702951	2.609830	-0.000308
1129	1.1224e+02	-4.9507	-30.716547	0.000689	6.892114	2.335111	-0.000276
1130	1.1234e+02	-4.9892	-31.015295	0.000750	7.500242	2.541151	-0.000300
1131	1.1244e+02	-5.0421	-31.277709	0.000659	6.588050	2.232092	-0.000264
1132	1.1253e+02	-5.0774	-31.604717	0.000821	8.209724	2.781530	-0.000329
1133	1.1263e+02	-5.1175	-31.871168	0.000669	6.689405	2.266432	-0.000268
1134	1.1273e+02	-5.1528	-32.101285	0.000578	5.777213	1.957373	-0.000231
1135	1.1283e+02	-5.1977	-32.367736	0.000669	6.689405	2.266432	-0.000268
1136	1.1293e+02	-5.2426	-32.686670	0.000801	8.007015	2.712850	-0.000321
1137	1.1303e+02	-5.2763	-32.981380	0.000740	7.398887	2.506811	-0.000296
1138	1.1313e+02	-5.3180	-33.243794	0.000659	6.588050	2.232092	-0.000264
1139	1.1323e+02	-5.3630	-33.534468	0.000730	7.297532	2.472471	-0.000292
1140	1.1333e+02	-5.3998	-33.804956	0.000679	6.790759	2.300772	-0.000272
1141	1.1343e+02	-5.4367	-34.103704	0.000750	7.500242	2.541151	-0.000300
1142	1.1353e+02	-5.4752	-34.366118	0.000659	6.588050	2.232092	-0.000264
1143	1.1363e+02	-5.5105	-34.660829	0.000740	7.398887	2.506811	-0.000296
1144	1.1373e+02	-5.5506	-34.943428	0.000709	7.094823	2.403791	-0.000284
1145	1.1383e+02	-5.5972	-35.209879	0.000669	6.689405	2.266432	-0.000268
1146	1.1393e+02	-5.6276	-35.492479	0.000709	7.094823	2.403791	-0.000284
1147	1.1403e+02	-5.6774	-35.795264	0.000760	7.601596	2.575490	-0.000304
1148	1.1413e+02	-5.7191	-36.025381	0.000578	5.777213	1.957373	-0.000231
1149	1.1423e+02	-5.7544	-36.303943	0.000699	6.993468	2.369451	-0.000280
1150	1.1433e+02	-5.7897	-36.622877	0.000801	8.007015	2.712850	-0.000321
1151	1.1442e+02	-5.8394	-36.881254	0.000649	6.486695	2.197752	-0.000260
1152	1.1452e+02	-5.8667	-37.163853	0.000709	7.094823	2.403791	-0.000284
1153	1.1462e+02	-5.9148	-37.414155	0.000628	6.283986	2.129072	-0.000252
1154	1.1472e+02	-5.9597	-37.684644	0.000679	6.790759	2.300772	-0.000272
1155	1.1482e+02	-5.9950	-37.951095	0.000669	6.689405	2.266432	-0.000268
1156	1.1492e+02	-6.0271	-38.261954	0.000780	7.804305	2.644170	-0.000312
1157	1.1502e+02	-6.0784	-38.532442	0.000679	6.790759	2.300772	-0.000272
1158	1.1512e+02	-6.1073	-38.806967	0.000689	6.892114	2.335111	-0.000276
1159	1.1522e+02	-6.1474	-39.045158	0.000598	5.979922	2.026053	-0.000239
1160	1.1532e+02	-6.1843	-39.368129	0.000811	8.108369	2.747190	-0.000325
1161	1.1542e+02	-6.2292	-39.602283	0.000588	5.878568	1.991713	-0.000235
1162	1.1552e+02	-6.2790	-39.872771	0.000679	6.790759	2.300772	-0.000272
1163	1.1562e+02	-6.3062	-40.147296	0.000689	6.892114	2.335111	-0.000276
1164	1.1572e+02	-6.3431	-40.462193	0.000791	7.905660	2.678510	-0.000316
1165	1.1582e+02	-6.3848	-40.664050	0.000507	5.067731	1.716994	-0.000203
1166	1.1592e+02	-6.4282	-40.942612	0.000699	6.993468	2.369451	-0.000280
1167	1.1602e+02	-6.4715	-41.217137	0.000689	6.892114	2.335111	-0.000276
1168	1.1612e+02	-6.5052	-41.451291	0.000588	5.878568	1.991713	-0.000235
1169	1.1622e+02	-6.5517	-41.766188	0.000791	7.905660	2.678510	-0.000316
1170	1.1632e+02	-6.5918	-42.024564	0.000649	6.486695	2.197752	-0.000260
1171	1.1642e+02	-6.6255	-42.274867	0.000628	6.283986	2.129072	-0.000252
1172	1.1651e+02	-6.6736	-42.561504	0.000720	7.196178	2.438131	-0.000288
1173	1.1661e+02	-6.6977	-42.823917	0.000659	6.588050	2.232092	-0.000264
1174	1.1671e+02	-6.7458	-43.078257	0.000639	6.385341	2.163412	-0.000256
1175	1.1681e+02	-6.7779	-43.360856	0.000709	7.094823	2.403791	-0.000284
1176	1.1691e+02	-6.8324	-43.631344	0.000679	6.790759	2.300772	-0.000272
1177	1.1701e+02	-6.8677	-43.885684	0.000639	6.385341	2.163412	-0.000256
1178	1.1711e+02	-6.9014	-44.140024	0.000639	6.385341	2.163412	-0.000256
1179	1.1721e+02	-6.9463	-44.382252	0.000608	6.081277	2.060392	-0.000243
1180	1.1731e+02	-6.9816	-44.668888	0.000720	7.196178	2.438131	-0.000288
1181	1.1741e+02	-7.0201	-44.959562	0.000730	7.297532	2.472471	-0.000292
1182	1.1751e+02	-7.0682	-45.169493	0.000527	5.270440	1.785673	-0.000211
1183	1.1761e+02	-7.1084	-45.472278	0.000760	7.601596	2.575490	-0.000304
1184	1.1771e+02	-7.1436	-45.750841	0.000699	6.993468	2.369451	-0.000280
1185	1.1781e+02	-7.1934	-46.009217	0.000649	6.486695	2.197752	-0.000260
1186	1.1791e+02	-7.2207	-46.251446	0.000608	6.081277	2.060392	-0.000243
1187	1.1801e+02	-7.2640	-46.554231	0.000760	7.601596	2.575490	-0.000304
1188	1.1811e+02	-7.3089	-46.792422	0.000598	5.979922	2.026053	-0.000239
1189	1.1821e+02	-7.3458	-47.070984	0.000699	6.993468	2.369451	-0.000280
1190	1.1831e+02	-7.3779	-47.313212	0.000608	6.081277	2.060392	-0.000243
1191	1.1841e+02	-7.4196	-47.571589	0.000649	6.486695	2.197752	-0.000260
1192	1.1850e+02	-7.4613	-47.821891	0.000628	6.283986	2.129072	-0.000252
1193	1.1860e+02	-7.5110	-48.136788	0.000791	7.905660	2.678510	-0.000316
1194	1.1870e+02	-7.5383	-48.395165	0.000649	6.486695	2.197752	-0.000260
1195	1.1880e+02	-7.5832	-48.661616	0.000669	6.689405	2.266432	-0.000268
1196	1.1890e+02	-7.6169	-48.928067	0.000669	6.689405	2.266432	-0.000268
1197	1.1900e+02	-7.6714	-49.182406	0.000639	6.385341	2.163412	-0.000256
1198	1.1910e+02	-7.7003	-49.444820	0.000659	6.588050	2.232092	-0.000264
1199	1.1920e+02	-7.7372	-49.707234	0.000659	6.588050	2.232092	-0.000264
1200	1.1930e+02	-7.7805	-49.969648	0.000659	6.588050	2.232092	-0.000264
1201	1.1940e+02	-7.8238	-50.219950	0.000628	6.283986	2.129072	-0.000252
1202	1.1950e+02	-7.8656	-50.482364	0.000659	6.588050	2.232092	-0.000264
1203	1.1960e+02	-7.9073	-50.740741	0.000649	6.486695	2.197752	-0.000260
1204	1.1970e+02	-7.9458	-51.019303	0.000699	6.993468	2.369451	-0.000280
1205	1.1980e+02	-7.9859	-51.281717	0.000659	6.588050	2.232092	-0.000264
1206	1.1990e+02	-8.0131	-51.556242	0.000689	6.892114	2.335111	-0.000276
1207	1.2000e+02	-8.0725	-51.810581	0.000639	6.385341	2.163412	-0.000256
1208	1.2010e+02	-8.1014	-52.068958	0.000649	6.486695	2.197752	-0.000260
1209	1.2020e+02	-8.1367	-52.307149	0.000598	5.979922	2.026053	-0.000239
1210	1.2030e+02	-8.1864	-52.593786	0.000720	7.196178	2.438131	-0.000288
1211	1.2039e+02	-8.2217	-52.807754	0.000537	5.371795	1.820013	-0.000215
1212	1.2049e+02	-8.2618	-53.102465	0.000740	7.398887	2.506811	-0.000296
1213	1.2059e+02	-8.2907	-53.364879	0.000659	6.588050	2.232092	-0.000264
1214	1.2069e+02	-8.3500	-53.647478	0.000709	7.094823	2.403791	-0.000284
1215	1.2079e+02	-8.3853	-53.849335	0.000507	5.067731	1.716994	-0.000203
1216	1.2089e+02	-8.4206	-54.123860	0.000689	6.892114	2.335111	-0.000276
1217	1.2099e+02	-8.4607	-54.414534	0.000730	7.297532	2.472471	-0.000292
1218	1.2109e+02	-8.4944	-54.640614	0.000568	5.675858	1.923033	-0.000227
1219	1.2119e+02	-8.5377	-54.886879	0.000618	6.182632	2.094732	-0.000248
1220	1.2129e+02	-8.5762	-55.141218	0.000639	6.385341	2.163412	-0.000256
1221	1.2139e+02	-8.6276	-55.403632	0.000659	6.588050	2.232092	-0.000264
1222	1.2149e+02	-8.6564	-55.686232	0.000709	7.094823	2.403791	-0.000284
1223	1.2159e+02	-8.7046	-55.871940	0.000466	4.662312	1.579634	-0.000187
1224	1.2169e+02	-8.7431	-56.174725	0.000760	7.601596	2.575490	-0.000304
1225	1.2179e+02	-8.7864	-56.384656	0.000527	5.270440	1.785673	-0.000211
1226	1.2189e+02	-8.8249	-56.659182	0.000689	6.892114	2.335111	-0.000276
1227	1.2199e+02	-8.8618	-56.929670	0.000679	6.790759	2.300772	-0.000272
1228	1.2209e+02	-8.9035	-57.171898	0.000608	6.081277	2.060392	-0.000243
1229	1.2219e+02	-8.9420	-57.434312	0.000659	6.588050	2.232092	-0.000264
1230	1.2229e+02	-8.9821	-57.684614	0.000628	6.283986	2.129072	-0.000252
1231	1.2239e+02	-9.0110	-57.926842	0.000608	6.081277	2.060392	-0.000243
1232	1.2248e+02	-9.0559	-58.156959	0.000578	5.777213	1.957373	-0.000231
1233	1.2258e+02	-9.0992	-58.447633	0.000730	7.297532	2.472471	-0.000292
1234	1.2268e+02	-9.1377	-58.701972	0.000639	6.385341	2.163412	-0.000256
1235	1.2278e+02	-9.1730	-58.903829	0.000507	5.067731	1.716994	-0.000203
1236	1.2288e+02	-9.2211	-59.182391	0.000699	6.993468	2.369451	-0.000280
1237	1.2298e+02	-9.2596	-59.436731	0.000639	6.385341	2.163412	-0.000256
1238	1.2308e+02	-9.2981	-59.658773	0.000557	5.574504	1.888693	-0.000223
1239	1.2318e+02	-9.3350	-59.961559	0.000760	7.601596	2.575490	-0.000304
1240	1.2328e+02	-9.3735	-60.199750	0.000598	5.979922	2.026053	-0.000239
1241	1.2338e+02	-9.4201	-60.462163	0.000659	6.588050	2.232092	-0.000264
1242	1.2348e+02	-9.4634	-60.696317	0.000588	5.878568	1.991713	-0.000235
1243	1.2358e+02	-9.4938	-60.954694	0.000649	6.486695	2.197752	-0.000260
1244	1.2368e+02	-9.5340	-61.196922	0.000608	6.081277	2.060392	-0.000243
1245	1.2378e+02	-9.5805	-61.455299	0.000649	6.486695	2.197752	-0.000260
1246	1.2388e+02	-9.6126	-61.689453	0.000588	5.878568	1.991713	-0.000235
1247	1.2398e+02	-9.6655	-61.903421	0.000537	5.371795	1.820013	-0.000215
1248	1.2408e+02	-9.6976	-62.181983	0.000699	6.993468	2.369451	-0.000280
1249	1.2418e+02	-9.7425	-62.440360	0.000649	6.486695	2.197752	-0.000260
1250	1.2428e+02	-9.7778	-62.678551	0.000598	5.979922	2.026053	-0.000239
1251	1.2438e+02	-9.8163	-62.940965	0.000659	6.588050	2.232092	-0.000264
1252	1.2447e+02	-9.8484	-63.171081	0.000578	5.777213	1.957373	-0.000231
1253	1.2457e+02	-9.8997	-63.429458	0.000649	6.486695	2.197752	-0.000260
1254	1.2467e+02	-9.9350	-63.691872	0.000659	6.588050	2.232092	-0.000264
1255	1.2477e+02	-9.9783	-63.930063	0.000598	5.979922	2.026053	-0.000239
1256	1.2487e+02	-10.0216	-64.188440	0.000649	6.486695	2.197752	-0.000260
1257	1.2497e+02	-10.0585	-64.390296	0.000507	5.067731	1.716994	-0.000203
1258	1.2507e+02	-10.0922	-64.709230	0.000801	8.007015	2.712850	-0.000321
1259	1.2517e+02	-10.1355	-64.874753	0.000416	4.155539	1.407935	-0.000166
1260	1.2527e+02	-10.1724	-65.157352	0.000709	7.094823	2.403791	-0.000284
1261	1.2537e+02	-10.2109	-65.411692	0.000639	6.385341	2.163412	-0.000256
1262	1.2547e+02	-10.2543	-65.609511	0.000497	4.966376	1.682654	-0.000199
1263	1.2557e+02	-10.3008	-65.904222	0.000740	7.398887	2.506811	-0.000296
1264	1.2567e+02	-10.3441	-66.134339	0.000578	5.777213	1.957373	-0.000231
1265	1.2577e+02	-10.3762	-66.360419	0.000568	5.675858	1.923033	-0.000227
1266	1.2587e+02	-10.4115	-66.643018	0.000709	7.094823	2.403791	-0.000284
1267	1.2597e+02	-10.4516	-66.852949	0.000527	5.270440	1.785673	-0.000211
1268	1.2607e+02	-10.4997	-67.127474	0.000689	6.892114	2.335111	-0.000276
1269	1.2617e+02	-10.5286	-67.325294	0.000497	4.966376	1.682654	-0.000199
1270	1.2627e+02	-10.5671	-67.603857	0.000699	6.993468	2.369451	-0.000280
1271	1.2636e+02	-10.6120	-67.833973	0.000578	5.777213	1.957373	-0.000231
1272	1.2646e+02	-10.6473	-68.068127	0.000588	5.878568	1.991713	-0.000235
1273	1.2656e+02	-10.6858	-68.302281	0.000588	5.878568	1.991713	-0.000235
1274	1.2666e+02	-10.7259	-68.540472	0.000598	5.979922	2.026053	-0.000239
1275	1.2676e+02	-10.7628	-68.802886	0.000659	6.588050	2.232092	-0.000264
1276	1.2686e+02	-10.8077	-69.028965	0.000568	5.675858	1.923033	-0.000227
1277	1.2696e+02	-10.8607	-69.242934	0.000537	5.371795	1.820013	-0.000215
1278	1.2706e+02	-10.8911	-69.505347	0.000659	6.588050	2.232092	-0.000264
1279	1.2716e+02	-10.9409	-69.703167	0.000497	4.966376	1.682654	-0.000199
1280	1.2726e+02	-10.9810	-69.953470	0.000628	6.283986	2.129072	-0.000252
1281	1.2736e+02	-11.0211	-70.195698	0.000608	6.081277	2.060392	-0.000243
1282	1.2746e+02	-11.0580	-70.446000	0.000628	6.283986	2.129072	-0.000252
1283	1.2756e+02	-11.0901	-70.684191	0.000598	5.979922	2.026053	-0.000239
1284	1.2766e+02	-11.1302	-70.930456	0.000618	6.182632	2.094732	-0.000248
1285	1.2776e+02	-11.1751	-71.160573	0.000578	5.777213	1.957373	-0.000231
1286	1.2786e+02	-11.2056	-71.402801	0.000608	6.081277	2.060392	-0.000243
1287	1.2796e+02	-11.2505	-71.653104	0.000628	6.283986	2.129072	-0.000252
1288	1.2806e+02	-11.2906	-71.842849	0.000476	4.763667	1.613974	-0.000191
1289	1.2816e+02	-11.3355	-72.089114	0.000618	6.182632	2.094732	-0.000248
1290	1.2826e+02	-11.3644	-72.351528	0.000659	6.588050	2.232092	-0.000264
1291	1.2835e+02	-11.4109	-72.537236	0.000466	4.662312	1.579634	-0.000187
1292	1.2845e+02	-11.4526	-72.799650	0.000659	6.588050	2.232092	-0.000264
1293	1.2855e+02	-11.4959	-73.017656	0.000547	5.473149	1.854353	-0.000219
1294	1.2865e+02	-11.5344	-73.223549	0.000517	5.169085	1.751334	-0.000207
1295	1.2875e+02	-11.5842	-73.469815	0.000618	6.182632	2.094732	-0.000248
1296	1.2885e+02	-11.6114	-73.708006	0.000598	5.979922	2.026053	-0.000239
1297	1.2895e+02	-11.6419	-73.946197	0.000598	5.979922	2.026053	-0.000239
1298	1.2905e+02	-11.6868	-74.180351	0.000588	5.878568	1.991713	-0.000235
1299	1.2915e+02	-11.7253	-74.426616	0.000618	6.182632	2.094732	-0.000248
1300	1.2925e+02	-11.7670	-74.640584	0.000537	5.371795	1.820013	-0.000215
1301	1.2935e+02	-11.8184	-74.866664	0.000568	5.675858	1.923033	-0.000227
1302	1.2945e+02	-11.8537	-75.125040	0.000649	6.486695	2.197752	-0.000260
1303	1.2955e+02	-11.8922	-75.391491	0.000669	6.689405	2.266432	-0.000268
1304	1.2965e+02	-11.9323	-75.577200	0.000466	4.662312	1.579634	-0.000187
1305	1.2975e+02	-11.9724	-75.803279	0.000568	5.675858	1.923033	-0.000227
1306	1.2985e+02	-11.9981	-76.053582	0.000628	6.283986	2.129072	-0.000252
1307	1.2995e+02	-12.0446	-76.303884	0.000628	6.283986	2.129072	-0.000252
1308	1.3005e+02	-12.0895	-76.521889	0.000547	5.473149	1.854353	-0.000219
1309	1.3015e+02	-12.1248	-76.764117	0.000608	6.081277	2.060392	-0.000243
1310	1.3025e+02	-12.1569	-77.014420	0.000628	6.283986	2.129072	-0.000252
1311	1.3034e+02	-12.2162	-77.204165	0.000476	4.763667	1.613974	-0.000191
1312	1.3044e+02	-12.2515	-77.454468	0.000628	6.283986	2.129072	-0.000252
1313	1.3054e+02	-12.2804	-77.696696	0.000608	6.081277	2.060392	-0.000243
1314	1.3064e+02	-12.3333	-77.902590	0.000517	5.169085	1.751334	-0.000207
1315	1.3074e+02	-12.3799	-78.185189	0.000709	7.094823	2.403791	-0.000284
1316	1.3084e+02	-12.4055	-78.387046	0.000507	5.067731	1.716994	-0.000203
1317	1.3094e+02	-12.4488	-78.653497	0.000669	6.689405	2.266432	-0.000268
1318	1.3104e+02	-12.4890	-78.855354	0.000507	5.067731	1.716994	-0.000203
1319	1.3114e+02	-12.5194	-79.089508	0.000588	5.878568	1.991713	-0.000235
1320	1.3124e+02	-12.5660	-79.319624	0.000578	5.777213	1.957373	-0.000231
1321	1.3134e+02	-12.6029	-79.557815	0.000598	5.979922	2.026053	-0.000239
1322	1.3144e+02	-12.6510	-79.787932	0.000578	5.777213	1.957373	-0.000231
1323	1.3154e+02	-12.6863	-79.981715	0.000487	4.865022	1.648314	-0.000195
1324	1.3164e+02	-12.7264	-80.308723	0.000821	8.209724	2.781530	-0.000329
1325	1.3174e+02	-12.7617	-80.470208	0.000405	4.054185	1.373595	-0.000162
1326	1.3184e+02	-12.8146	-80.696288	0.000568	5.675858	1.923033	-0.000227
1327	1.3194e+02	-12.8515	-80.910256	0.000537	5.371795	1.820013	-0.000215
1328	1.3204e+02	-12.8868	-81.120187	0.000527	5.270440	1.785673	-0.000211
1329	1.3214e+02	-12.9237	-81.386638	0.000669	6.689405	2.266432	-0.000268
1330	1.3224e+02	-12.9558	-81.636940	0.000628	6.283986	2.129072	-0.000252
1331	1.3234e+02	-13.0071	-81.846871	0.000527	5.270440	1.785673	-0.000211
1332	1.3243e+02	-13.0376	-82.081025	0.000588	5.878568	1.991713	-0.000235
1333	1.3253e+02	-13.0777	-82.290956	0.000527	5.270440	1.785673	-0.000211
1334	1.3263e+02	-13.1258	-82.517036	0.000568	5.675858	1.923033	-0.000227
1335	1.3273e+02	-13.1579	-82.771375	0.000639	6.385341	2.163412	-0.000256
1336	1.3283e+02	-13.1996	-82.961121	0.000476	4.763667	1.613974	-0.000191
1337	1.3293e+02	-13.2429	-83.175089	0.000537	5.371795	1.820013	-0.000215
1338	1.3303e+02	-13.2847	-83.409243	0.000588	5.878568	1.991713	-0.000235
1339	1.3313e+02	-13.3119	-83.651471	0.000608	6.081277	2.060392	-0.000243
1340	1.3323e+02	-13.3552	-83.889662	0.000598	5.979922	2.026053	-0.000239
1341	1.3333e+02	-13.4034	-84.127853	0.000598	5.979922	2.026053	-0.000239
1342	1.3343e+02	-13.4419	-84.418527	0.000730	7.297532	2.472471	-0.000292
1343	1.3353e+02	-13.4852	-84.596161	0.000446	4.459603	1.510954	-0.000179
1344	1.3363e+02	-13.5221	-84.785906	0.000476	4.763667	1.613974	-0.000191
1345	1.3373e+02	-13.5622	-85.072543	0.000720	7.196178	2.438131	-0.000288
1346	1.3383e+02	-13.6007	-85.274400	0.000507	5.067731	1.716994	-0.000203
1347	1.3393e+02	-13.6536	-85.480294	0.000517	5.169085	1.751334	-0.000207
1348	1.3403e+02	-13.6793	-85.657928	0.000446	4.459603	1.510954	-0.000179
1349	1.3413e+02	-13.7178	-85.916304	0.000649	6.486695	2.197752	-0.000260
1350	1.3423e+02	-13.7563	-86.186792	0.000679	6.790759	2.300772	-0.000272
1351	1.3432e+02	-13.7916	-86.408835	0.000557	5.574504	1.888693	-0.000223
1352	1.3442e+02	-13.8333	-86.610692	0.000507	5.067731	1.716994	-0.000203
1353	1.3452e+02	-13.8798	-86.816585	0.000517	5.169085	1.751334	-0.000207
1354	1.3462e+02	-13.9135	-87.091111	0.000689	6.892114	2.335111	-0.000276
1355	1.3472e+02	-13.9632	-87.288930	0.000497	4.966376	1.682654	-0.000199
1356	1.3482e+02	-14.0017	-87.547307	0.000649	6.486695	2.197752	-0.000260
1357	1.3492e+02	-14.0338	-87.753201	0.000517	5.169085	1.751334	-0.000207
1358	1.3502e+02	-14.0836	-87.979281	0.000568	5.675858	1.923033	-0.000227
1359	1.3512e+02	-14.1189	-88.221509	0.000608	6.081277	2.060392	-0.000243
1360	1.3522e+02	-14.1606	-88.467774	0.000618	6.182632	2.094732	-0.000248
1361	1.3532e+02	-14.2039	-88.693854	0.000568	5.675858	1.923033	-0.000227
1362	1.3542e+02	-14.2360	-88.875525	0.000456	4.560958	1.545294	-0.000183
1363	1.3552e+02	-14.2857	-89.125827	0.000628	6.283986	2.129072	-0.000252
1364	1.3562e+02	-14.3178	-89.343832	0.000547	5.473149	1.854353	-0.000219
1365	1.3572e+02	-14.3418	-89.573949	0.000578	5.777213	1.957373	-0.000231
1366	1.3582e+02	-14.4012	-89.824252	0.000628	6.283986	2.129072	-0.000252
1367	1.3592e+02	-14.4381	-90.042257	0.000547	5.473149	1.854353	-0.000219
1368	1.3602e+02	-14.4814	-90.268337	0.000568	5.675858	1.923033	-0.000227
1369	1.3612e+02	-14.5279	-90.502490	0.000588	5.878568	1.991713	-0.000235
1370	1.3622e+02	-14.5552	-90.716459	0.000537	5.371795	1.820013	-0.000215
1371	1.3631e+02	-14.5969	-90.950612	0.000588	5.878568	1.991713	-0.000235
1372	1.3641e+02	-14.6290	-91.156506	0.000517	5.169085	1.751334	-0.000207
1373	1.3651e+02	-14.6771	-91.406809	0.000628	6.283986	2.129072	-0.000252
1374	1.3661e+02	-14.7285	-91.640963	0.000588	5.878568	1.991713	-0.000235
1375	1.3671e+02	-14.7525	-91.875117	0.000588	5.878568	1.991713	-0.000235
1376	1.3681e+02	-14.8023	-92.097159	0.000557	5.574504	1.888693	-0.000223
1377	1.3691e+02	-14.8327	-92.347461	0.000628	6.283986	2.129072	-0.000252
1378	1.3701e+02	-14.8793	-92.605838	0.000649	6.486695	2.197752	-0.000260
1379	1.3711e+02	-14.9129	-92.799621	0.000487	4.865022	1.648314	-0.000195
1380	1.3721e+02	-14.9579	-93.033775	0.000588	5.878568	1.991713	-0.000235
1381	1.3731e+02	-14.9900	-93.247743	0.000537	5.371795	1.820013	-0.000215
1382	1.3741e+02	-15.0445	-93.449599	0.000507	5.067731	1.716994	-0.000203
1383	1.3751e+02	-15.0862	-93.720088	0.000679	6.790759	2.300772	-0.000272
1384	1.3761e+02	-15.1167	-93.921944	0.000507	5.067731	1.716994	-0.000203
1385	1.3771e+02	-15.1584	-94.180321	0.000649	6.486695	2.197752	-0.000260
1386	1.3781e+02	-15.1921	-94.382178	0.000507	5.067731	1.716994	-0.000203
1387	1.3791e+02	-15.2370	-94.624406	0.000608	6.081277	2.060392	-0.000243
1388	1.3801e+02	-15.2707	-94.878746	0.000639	6.385341	2.163412	-0.000256
1389	1.3811e+02	-15.3204	-95.096751	0.000547	5.473149	1.854353	-0.000219
1390	1.3821e+02	-15.3509	-95.294571	0.000497	4.966376	1.682654	-0.000199
1391	1.3831e+02	-15.3910	-95.561021	0.000669	6.689405	2.266432	-0.000268
1392	1.3840e+02	-15.4327	-95.783064	0.000557	5.574504	1.888693	-0.000223
1393	1.3850e+02	-15.4712	-95.997032	0.000537	5.371795	1.820013	-0.000215
1394	1.3860e+02	-15.5145	-96.251372	0.000639	6.385341	2.163412	-0.000256
1395	1.3870e+02	-15.5450	-96.437080	0.000466	4.662312	1.579634	-0.000187
1396	1.3880e+02	-15.5899	-96.699494	0.000659	6.588050	2.232092	-0.000264
1397	1.3890e+02	-15.6349	-96.901351	0.000507	5.067731	1.716994	-0.000203
1398	1.3900e+02	-15.6798	-97.135504	0.000588	5.878568	1.991713	-0.000235
1399	1.3910e+02	-15.7038	-97.389844	0.000639	6.385341	2.163412	-0.000256
1400	1.3920e+02	-15.7552	-97.619961	0.000578	5.777213	1.957373	-0.000231
1401	1.3930e+02	-15.7969	-97.850077	0.000578	5.777213	1.957373	-0.000231
1402	1.3940e+02	-15.8370	-98.064046	0.000537	5.371795	1.820013	-0.000215
1403	1.3950e+02	-15.8803	-98.322422	0.000649	6.486695	2.197752	-0.000260
1404	1.3960e+02	-15.9044	-98.532353	0.000527	5.270440	1.785673	-0.000211
1405	1.3970e+02	-15.9509	-98.762470	0.000578	5.777213	1.957373	-0.000231
1406	1.3980e+02	-15.9894	-98.976438	0.000537	5.371795	1.820013	-0.000215
1407	1.3990e+02	-16.0359	-99.234815	0.000649	6.486695	2.197752	-0.000260
1408	1.4000e+02	-16.0744	-99.424560	0.000476	4.763667	1.613974	-0.000191
1409	1.4010e+02	-16.1113	-99.650640	0.000568	5.675858	1.923033	-0.000227
1410	1.4020e+02	-16.1546	-99.921128	0.000679	6.790759	2.300772	-0.000272
1411	1.4029e+02	-16.1947	-100.131059	0.000527	5.270440	1.785673	-0.000211
1412	1.4039e+02	-16.2332	-100.393473	0.000659	6.588050	2.232092	-0.000264
1413	1.4049e+02	-16.2765	-100.615515	0.000557	5.574504	1.888693	-0.000223
1414	1.4059e+02	-16.3183	-100.817372	0.000507	5.067731	1.716994	-0.000203
1415	1.4069e+02	-16.3664	-101.067675	0.000628	6.283986	2.129072	-0.000252
1416	1.4079e+02	-16.4001	-101.317977	0.000628	6.283986	2.129072	-0.000252
1417	1.4089e+02	-16.4322	-101.540020	0.000557	5.574504	1.888693	-0.000223
1418	1.4099e+02	-16.4691	-101.778211	0.000598	5.979922	2.026053	-0.000239
1419	1.4109e+02	-16.5140	-101.984104	0.000517	5.169085	1.751334	-0.000207
1420	1.4119e+02	-16.5412	-102.278815	0.000740	7.398887	2.506811	-0.000296
1421	1.4129e+02	-16.5974	-102.504895	0.000568	5.675858	1.923033	-0.000227
1422	1.4139e+02	-16.6343	-102.759235	0.000639	6.385341	2.163412	-0.000256
1423	1.4149e+02	-16.6664	-102.936868	0.000446	4.459603	1.510954	-0.000179
1424	1.4159e+02	-16.7177	-103.199282	0.000659	6.588050	2.232092	-0.000264
1425	1.4169e+02	-16.7546	-103.397102	0.000497	4.966376	1.682654	-0.000199
1426	1.4179e+02	-16.7899	-103.683739	0.000720	7.196178	2.438131	-0.000288
1427	1.4189e+02	-16.8204	-103.934041	0.000628	6.283986	2.129072	-0.000252
1428	1.4199e+02	-16.8669	-104.152046	0.000547	5.473149	1.854353	-0.000219
1429	1.4209e+02	-16.9134	-104.434646	0.000709	7.094823	2.403791	-0.000284
1430	1.4219e+02	-16.9471	-104.668800	0.000588	5.878568	1.991713	-0.000235
1431	1.4228e+02	-16.9856	-104.943325	0.000689	6.892114	2.335111	-0.000276
1432	1.4238e+02	-17.0257	-105.100773	0.000395	3.952830	1.339255	-0.000158
1433	1.4248e+02	-17.0803	-105.359150	0.000649	6.486695	2.197752	-0.000260
1434	1.4258e+02	-17.1140	-105.577155	0.000547	5.473149	1.854353	-0.000219
1435	1.4268e+02	-17.1541	-105.823421	0.000618	6.182632	2.094732	-0.000248
1436	1.4278e+02	-17.1797	-106.065649	0.000608	6.081277	2.060392	-0.000243
1437	1.4288e+02	-17.2279	-106.295765	0.000578	5.777213	1.957373	-0.000231
1438	1.4298e+02	-17.2664	-106.554142	0.000649	6.486695	2.197752	-0.000260
1439	1.4308e+02	-17.3129	-106.772147	0.000547	5.473149	1.854353	-0.000219
1440	1.4318e+02	-17.3482	-107.034561	0.000659	6.588050	2.232092	-0.000264
1441	1.4328e+02	-17.3899	-107.280827	0.000618	6.182632	2.094732	-0.000248
1442	1.4338e+02	-17.4316	-107.498832	0.000547	5.473149	1.854353	-0.000219
1443	1.4348e+02	-17.4669	-107.785469	0.000720	7.196178	2.438131	-0.000288
1444	1.4358e+02	-17.5134	-108.031734	0.000618	6.182632	2.094732	-0.000248
1445	1.4368e+02	-17.5519	-108.225516	0.000487	4.865022	1.648314	-0.000195
1446	1.4378e+02	-17.5920	-108.512153	0.000720	7.196178	2.438131	-0.000288
1447	1.4388e+02	-17.6289	-108.778604	0.000669	6.689405	2.266432	-0.000268
1448	1.4398e+02	-17.6738	-109.016795	0.000598	5.979922	2.026053	-0.000239
1449	1.4408e+02	-17.6995	-109.250949	0.000588	5.878568	1.991713	-0.000235
1450	1.4418e+02	-17.7460	-109.468954	0.000547	5.473149	1.854353	-0.000219
1451	1.4428e+02	-17.7909	-109.719257	0.000628	6.283986	2.129072	-0.000252
1452	1.4437e+02	-17.8310	-109.961485	0.000608	6.081277	2.060392	-0.000243
1453	1.4447e+02	-17.8679	-110.203713	0.000608	6.081277	2.060392	-0.000243
1454	1.4457e+02	-17.9048	-110.405570	0.000507	5.067731	1.716994	-0.000203
1455	1.4467e+02	-17.9433	-110.712392	0.000770	7.702951	2.609830	-0.000308
1456	1.4477e+02	-17.9867	-110.906174	0.000487	4.865022	1.648314	-0.000195
1457	1.4487e+02	-18.0268	-111.188774	0.000709	7.094823	2.403791	-0.000284
1458	1.4497e+02	-18.0685	-111.447151	0.000649	6.486695	2.197752	-0.000260
1459	1.4507e+02	-18.0990	-111.677267	0.000578	5.777213	1.957373	-0.000231
1460	1.4517e+02	-18.1471	-111.935644	0.000649	6.486695	2.197752	-0.000260
1461	1.4527e+02	-18.1872	-112.177872	0.000608	6.081277	2.060392	-0.000243
1462	1.4537e+02	-18.2193	-112.420100	0.000608	6.081277	2.060392	-0.000243
1463	1.4547e+02	-18.2562	-112.718848	0.000750	7.500242	2.541151	-0.000300
1464	1.4557e+02	-18.2995	-112.944928	0.000568	5.675858	1.923033	-0.000227
1465	1.4567e+02	-18.3396	-113.207342	0.000659	6.588050	2.232092	-0.000264
1466	1.4577e+02	-18.3893	-113.502053	0.000740	7.398887	2.506811	-0.000296
1467	1.4587e+02	-18.4118	-113.740244	0.000598	5.979922	2.026053	-0.000239
1468	1.4597e+02	-18.4759	-113.978435	0.000598	5.979922	2.026053	-0.000239
1469	1.4607e+02	-18.5016	-114.228737	0.000628	6.283986	2.129072	-0.000252
1470	1.4617e+02	-18.5497	-114.470965	0.000608	6.081277	2.060392	-0.000243
1471	1.4626e+02	-18.5818	-114.729342	0.000649	6.486695	2.197752	-0.000260
1472	1.4636e+02	-18.6235	-115.020016	0.000730	7.297532	2.472471	-0.000292
1473	1.4646e+02	-18.6572	-115.278392	0.000649	6.486695	2.197752	-0.000260
1474	1.4656e+02	-18.7070	-115.577140	0.000750	7.500242	2.541151	-0.000300
1475	1.4666e+02	-18.7439	-115.811294	0.000588	5.878568	1.991713	-0.000235
1476	1.4676e+02	-18.7888	-116.029300	0.000547	5.473149	1.854353	-0.000219
1477	1.4686e+02	-18.8209	-116.340159	0.000780	7.804305	2.644170	-0.000312
1478	1.4696e+02	-18.8626	-116.618721	0.000699	6.993468	2.369451	-0.000280
1479	1.4706e+02	-18.8995	-116.848838	0.000578	5.777213	1.957373	-0.000231
1480	1.4716e+02	-18.9412	-117.119326	0.000679	6.790759	2.300772	-0.000272
1481	1.4726e+02	-18.9717	-117.397889	0.000699	6.993468	2.369451	-0.000280
1482	1.4736e+02	-19.0214	-117.644154	0.000618	6.182632	2.094732	-0.000248
1483	1.4746e+02	-19.0647	-117.955013	0.000780	7.804305	2.644170	-0.000312
1484	1.4756e+02	-19.1032	-118.185130	0.000578	5.777213	1.957373	-0.000231
1485	1.4766e+02	-19.1433	-118.483878	0.000750	7.500242	2.541151	-0.000300
1486	1.4776e+02	-19.1818	-118.746292	0.000659	6.588050	2.232092	-0.000264
1487	1.4786e+02	-19.2267	-119.049077	0.000760	7.601596	2.575490	-0.000304
1488	1.4796e+02	-19.2604	-119.327640	0.000699	6.993468	2.369451	-0.000280
1489	1.4806e+02	-19.2973	-119.590053	0.000659	6.588050	2.232092	-0.000264
1490	1.4816e+02	-19.3470	-119.816133	0.000568	5.675858	1.923033	-0.000227
1491	1.4825e+02	-19.3775	-120.151215	0.000841	8.412433	2.850209	-0.000337
1492	1.4835e+02	-19.4160	-120.336924	0.000466	4.662312	1.579634	-0.000187
1493	1.4845e+02	-19.4529	-120.680080	0.000862	8.615142	2.918889	-0.000345
1494	1.4855e+02	-19.4962	-120.938457	0.000649	6.486695	2.197752	-0.000260
1495	1.4865e+02	-19.5380	-121.225093	0.000720	7.196178	2.438131	-0.000288
1496	1.4875e+02	-19.5652	-121.507693	0.000709	7.094823	2.403791	-0.000284
1497	1.4885e+02	-19.6214	-121.782218	0.000689	6.892114	2.335111	-0.000276
1498	1.4895e+02	-19.6551	-122.044632	0.000659	6.588050	2.232092	-0.000264
1499	1.4905e+02	-19.6871	-122.343380	0.000750	7.500242	2.541151	-0.000300
1500	1.4915e+02	-19.7337	-122.686537	0.000862	8.615142	2.918889	-0.000345
1501	1.4925e+02	-19.7802	-122.948950	0.000659	6.588050	2.232092	-0.000264
1502	1.4935e+02	-19.8251	-123.195216	0.000618	6.182632	2.094732	-0.000248
1503	1.4945e+02	-19.8524	-123.526261	0.000831	8.311078	2.815870	-0.000333
1504	1.4955e+02	-19.8893	-123.756377	0.000578	5.777213	1.957373	-0.000231
1505	1.4965e+02	-19.9342	-124.059163	0.000760	7.601596	2.575490	-0.000304
1506	1.4975e+02	-19.9791	-124.370022	0.000780	7.804305	2.644170	-0.000312
1507	1.4985e+02	-20.0096	-124.688956	0.000801	8.007015	2.712850	-0.000321
1508	1.4995e+02	-19.9775	-124.616287	0.000182	1.824383	0.618118	0.000073
1509	1.5005e+02	-19.9342	-124.616287	0.000000	0.000000	0.000000	0.000000
1510	1.5015e+02	-19.8893	-124.559767	0.000142	1.418965	0.480758	0.000057
1511	1.5025e+02	-19.8604	-124.474988	0.000213	2.128447	0.721137	0.000085
1512	1.5034e+02	-19.8171	-124.414431	0.000152	1.520319	0.515098	0.000061
1513	1.5044e+02	-19.7690	-124.337725	0.000193	1.925738	0.652458	0.000077
1514	1.5054e+02	-19.7385	-124.244871	0.000233	2.331156	0.789817	0.000093
1515	1.5064e+02	-19.6984	-124.188351	0.000142	1.418965	0.480758	0.000057
1516	1.5074e+02	-19.6599	-124.091460	0.000243	2.432511	0.824157	0.000097
1517	1.5084e+02	-19.6246	-124.026866	0.000162	1.621674	0.549438	0.000065
1518	1.5094e+02	-19.5684	-123.958234	0.000172	1.723028	0.583778	0.000069
1519	1.5104e+02	-19.5331	-123.881529	0.000193	1.925738	0.652458	0.000077
1520	1.5114e+02	-19.4978	-123.764452	0.000294	2.939284	0.995856	0.000118
1521	1.5124e+02	-19.4609	-123.667560	0.000243	2.432511	0.824157	0.000097
1522	1.5134e+02	-19.4160	-123.574706	0.000233	2.331156	0.789817	0.000093
1523	1.5144e+02	-19.3743	-123.453592	0.000304	3.040638	1.030196	0.000122
1524	1.5154e+02	-19.3374	-123.421295	0.000081	0.810837	0.274719	0.000032
1525	1.5164e+02	-19.2989	-123.263847	0.000395	3.952830	1.339255	0.000158
1526	1.5174e+02	-19.2572	-123.215401	0.000122	1.216255	0.412078	0.000049
1527	1.5184e+02	-19.2251	-123.057953	0.000395	3.952830	1.339255	0.000158
1528	1.5194e+02	-19.1882	-122.948950	0.000274	2.736575	0.927177	0.000110
1529	1.5204e+02	-19.1449	-122.823799	0.000314	3.141993	1.064536	0.000126
1530	1.5214e+02	-19.1016	-122.739019	0.000213	2.128447	0.721137	0.000085
1531	1.5224e+02	-19.0727	-122.646165	0.000233	2.331156	0.789817	0.000093
1532	1.5233e+02	-19.0278	-122.561385	0.000213	2.128447	0.721137	0.000085
1533	1.5243e+02	-18.9861	-122.367603	0.000487	4.865022	1.648314	0.000195
1534	1.5253e+02	-18.9476	-122.266674	0.000253	2.533865	0.858497	0.000101
1535	1.5263e+02	-18.9011	-122.161709	0.000264	2.635220	0.892837	0.000105
1536	1.5273e+02	-18.8610	-122.040595	0.000304	3.040638	1.030196	0.000122
1537	1.5283e+02	-18.8241	-121.891221	0.000375	3.750121	1.270575	0.000150
1538	1.5293e+02	-18.7824	-121.806441	0.000213	2.128447	0.721137	0.000085
1539	1.5303e+02	-18.7519	-121.661104	0.000365	3.648766	1.236235	0.000146
1540	1.5313e+02	-18.7102	-121.572287	0.000223	2.229802	0.755477	0.000089
1541	1.5323e+02	-18.6717	-121.426950	0.000365	3.648766	1.236235	0.000146
1542	1.5333e+02	-18.6203	-121.321985	0.000264	2.635220	0.892837	0.000105
1543	1.5343e+02	-18.5802	-121.168573	0.000385	3.851475	1.304915	0.000154
1544	1.5353e+02	-18.5465	-121.031311	0.000345	3.446057	1.167556	0.000138
1545	1.5363e+02	-18.5032	-120.894048	0.000345	3.446057	1.167556	0.000138
1546	1.5373e+02	-18.4679	-120.760823	0.000334	3.344702	1.133216	0.000134
1547	1.5383e+02	-18.4310	-120.623560	0.000345	3.446057	1.167556	0.000138
1548	1.5393e+02	-18.3845	-120.462075	0.000405	4.054185	1.373595	0.000162
1549	1.5403e+02	-18.3476	-120.357109	0.000264	2.635220	0.892837	0.000105
1550	1.5413e+02	-18.3011	-120.223884	0.000334	3.344702	1.133216	0.000134
1551	1.5422e+02	-18.2594	-120.074510	0.000375	3.750121	1.270575	0.000150
1552	1.5432e+02	-18.2289	-119.925136	0.000375	3.750121	1.270575	0.000150
1553	1.5442e+02	-18.1968	-119.783836	0.000355	3.547412	1.201896	0.000142
1554	1.5452e+02	-18.1503	-119.642536	0.000355	3.547412	1.201896	0.000142
1555	1.5462e+02	-18.0990	-119.513348	0.000324	3.243348	1.098876	0.000130
1556	1.5472e+02	-18.0749	-119.363974	0.000375	3.750121	1.270575	0.000150
1557	1.5482e+02	-18.0236	-119.234785	0.000324	3.243348	1.098876	0.000130
1558	1.5492e+02	-17.9818	-119.081374	0.000385	3.851475	1.304915	0.000154
1559	1.5502e+02	-17.9466	-118.936037	0.000365	3.648766	1.236235	0.000146
1560	1.5512e+02	-17.9032	-118.786663	0.000375	3.750121	1.270575	0.000150
1561	1.5522e+02	-17.8631	-118.653438	0.000334	3.344702	1.133216	0.000134
1562	1.5532e+02	-17.8294	-118.483878	0.000426	4.256894	1.442275	0.000170
1563	1.5542e+02	-17.7877	-118.370838	0.000284	2.837929	0.961516	0.000114
1564	1.5552e+02	-17.7556	-118.193204	0.000446	4.459603	1.510954	0.000179
1565	1.5562e+02	-17.7075	-118.043830	0.000375	3.750121	1.270575	0.000150
1566	1.5572e+02	-17.6738	-117.862159	0.000456	4.560958	1.545294	0.000183
1567	1.5582e+02	-17.6225	-117.777379	0.000213	2.128447	0.721137	0.000085
1568	1.5592e+02	-17.5904	-117.628005	0.000375	3.750121	1.270575	0.000150
1569	1.5602e+02	-17.5471	-117.446334	0.000456	4.560958	1.545294	0.000183
1570	1.5612e+02	-17.5118	-117.256589	0.000476	4.763667	1.613974	0.000191
1571	1.5622e+02	-17.4717	-117.143549	0.000284	2.837929	0.961516	0.000114
1572	1.5631e+02	-17.4300	-116.982064	0.000405	4.054185	1.373595	0.000162
1573	1.5641e+02	-17.3915	-116.792318	0.000476	4.763667	1.613974	0.000191
1574	1.5651e+02	-17.3434	-116.687353	0.000264	2.635220	0.892837	0.000105
1575	1.5661e+02	-17.3081	-116.537979	0.000375	3.750121	1.270575	0.000150
1576	1.5671e+02	-17.2631	-116.372456	0.000416	4.155539	1.407935	0.000166
1577	1.5681e+02	-17.2311	-116.239231	0.000334	3.344702	1.133216	0.000134
1578	1.5691e+02	-17.1861	-116.069671	0.000426	4.256894	1.442275	0.000170
1579	1.5701e+02	-17.1476	-115.900111	0.000426	4.256894	1.442275	0.000170
1580	1.5711e+02	-17.1172	-115.726514	0.000436	4.358248	1.476615	0.000174
1581	1.5721e+02	-17.0674	-115.573103	0.000385	3.851475	1.304915	0.000154
1582	1.5731e+02	-17.0321	-115.407581	0.000416	4.155539	1.407935	0.000166
1583	1.5741e+02	-16.9840	-115.282430	0.000314	3.141993	1.064536	0.000126
1584	1.5751e+02	-16.9471	-115.108833	0.000436	4.358248	1.476615	0.000174
1585	1.5761e+02	-16.9086	-114.947347	0.000405	4.054185	1.373595	0.000162
1586	1.5771e+02	-16.8701	-114.818159	0.000324	3.243348	1.098876	0.000130
1587	1.5781e+02	-16.8348	-114.680896	0.000345	3.446057	1.167556	0.000138
1588	1.5791e+02	-16.7867	-114.495188	0.000466	4.662312	1.579634	0.000187
1589	1.5801e+02	-16.7450	-114.341777	0.000385	3.851475	1.304915	0.000154
1590	1.5811e+02	-16.7129	-114.172217	0.000426	4.256894	1.442275	0.000170
1591	1.5821e+02	-16.6696	-114.002658	0.000426	4.256894	1.442275	0.000170
1592	1.5830e+02	-16.6247	-113.829061	0.000436	4.358248	1.476615	0.000174
1593	1.5840e+02	-16.5894	-113.639315	0.000476	4.763667	1.613974	0.000191
1594	1.5850e+02	-16.5509	-113.502053	0.000345	3.446057	1.167556	0.000138
1595	1.5860e+02	-16.5156	-113.360753	0.000355	3.547412	1.201896	0.000142
1596	1.5870e+02	-16.4723	-113.191193	0.000426	4.256894	1.442275	0.000170
1597	1.5880e+02	-16.4418	-113.037782	0.000385	3.851475	1.304915	0.000154
1598	1.5890e+02	-16.3921	-112.852074	0.000466	4.662312	1.579634	0.000187
1599	1.5900e+02	-16.3439	-112.694626	0.000395	3.952830	1.339255	0.000158
1600	1.5910e+02	-16.3167	-112.577549	0.000294	2.939284	0.995856	0.000118
1601	1.5920e+02	-16.2749	-112.359543	0.000547	5.473149	1.854353	0.000219
1602	1.5930e+02	-16.2364	-112.218244	0.000355	3.547412	1.201896	0.000142
1603	1.5940e+02	-16.1931	-112.016387	0.000507	5.067731	1.716994	0.000203
1604	1.5950e+02	-16.1642	-111.875087	0.000355	3.547412	1.201896	0.000142
1605	1.5960e+02	-16.1145	-111.685342	0.000476	4.763667	1.613974	0.000191
1606	1.5970e+02	-16.0712	-111.556153	0.000324	3.243348	1.098876	0.000130
1607	1.5980e+02	-16.0359	-111.386594	0.000426	4.256894	1.442275	0.000170
1608	1.5990e+02	-15.9990	-111.176663	0.000527	5.270440	1.785673	0.000211
1609	1.6000e+02	-15.9429	-111.011140	0.000416	4.155539	1.407935	0.000166
1610	1.6010e+02	-15.9156	-110.849655	0.000405	4.054185	1.373595	0.000162
1611	1.6019e+02	-15.8739	-110.692206	0.000395	3.952830	1.339255	0.000158
1612	1.6029e+02	-15.8386	-110.490349	0.000507	5.067731	1.716994	0.000203
1613	1.6039e+02	-15.7889	-110.320790	0.000426	4.256894	1.442275	0.000170
1614	1.6049e+02	-15.7536	-110.102784	0.000547	5.473149	1.854353	0.000219
1615	1.6059e+02	-15.7151	-109.997819	0.000264	2.635220	0.892837	0.000105
1616	1.6069e+02	-15.6734	-109.787888	0.000527	5.270440	1.785673	0.000211
1617	1.6079e+02	-15.6397	-109.622365	0.000416	4.155539	1.407935	0.000166
1618	1.6089e+02	-15.6028	-109.464917	0.000395	3.952830	1.339255	0.000158
1619	1.6099e+02	-15.5530	-109.283246	0.000456	4.560958	1.545294	0.000183
1620	1.6109e+02	-15.5097	-109.117723	0.000416	4.155539	1.407935	0.000166
1621	1.6119e+02	-15.4760	-108.960275	0.000395	3.952830	1.339255	0.000158
1622	1.6129e+02	-15.4391	-108.766492	0.000487	4.865022	1.648314	0.000195
1623	1.6139e+02	-15.4006	-108.592896	0.000436	4.358248	1.476615	0.000174
1624	1.6149e+02	-15.3541	-108.391039	0.000507	5.067731	1.716994	0.000203
1625	1.6159e+02	-15.3124	-108.209368	0.000456	4.560958	1.545294	0.000183
1626	1.6169e+02	-15.2819	-108.043845	0.000416	4.155539	1.407935	0.000166
1627	1.6179e+02	-15.2338	-107.833914	0.000527	5.270440	1.785673	0.000211
1628	1.6189e+02	-15.1889	-107.684540	0.000375	3.750121	1.270575	0.000150
1629	1.6199e+02	-15.1632	-107.527092	0.000395	3.952830	1.339255	0.000158
1630	1.6209e+02	-15.1167	-107.333309	0.000487	4.865022	1.648314	0.000195
1631	1.6219e+02	-15.0718	-107.155675	0.000446	4.459603	1.510954	0.000179
1632	1.6228e+02	-15.0365	-106.990153	0.000416	4.155539	1.407935	0.000166
1633	1.6238e+02	-14.9948	-106.873076	0.000294	2.939284	0.995856	0.000118
1634	1.6248e+02	-14.9611	-106.630848	0.000608	6.081277	2.060392	0.000243
1635	1.6258e+02	-14.9146	-106.461288	0.000426	4.256894	1.442275	0.000170
1636	1.6268e+02	-14.8809	-106.271543	0.000476	4.763667	1.613974	0.000191
1637	1.6278e+02	-14.8408	-106.106020	0.000416	4.155539	1.407935	0.000166
1638	1.6288e+02	-14.7942	-105.908200	0.000497	4.966376	1.682654	0.000199
1639	1.6298e+02	-14.7605	-105.779012	0.000324	3.243348	1.098876	0.000130
1640	1.6308e+02	-14.7140	-105.561007	0.000547	5.473149	1.854353	0.000219
1641	1.6318e+02	-14.6755	-105.379336	0.000456	4.560958	1.545294	0.000183
1642	1.6328e+02	-14.6370	-105.189590	0.000476	4.763667	1.613974	0.000191
1643	1.6338e+02	-14.5953	-105.048290	0.000355	3.547412	1.201896	0.000142
1644	1.6348e+02	-14.5552	-104.846434	0.000507	5.067731	1.716994	0.000203
1645	1.6358e+02	-14.5183	-104.684948	0.000405	4.054185	1.373595	0.000162
1646	1.6368e+02	-14.4830	-104.511351	0.000436	4.358248	1.476615	0.000174
1647	1.6378e+02	-14.4429	-104.305457	0.000517	5.169085	1.751334	0.000207
1648	1.6388e+02	-14.3964	-104.107638	0.000497	4.966376	1.682654	0.000199
1649	1.6398e+02	-14.3627	-103.925967	0.000456	4.560958	1.545294	0.000183
1650	1.6408e+02	-14.3178	-103.744296	0.000456	4.560958	1.545294	0.000183
1651	1.6418e+02	-14.2793	-103.602996	0.000355	3.547412	1.201896	0.000142
1652	1.6427e+02	-14.2424	-103.372879	0.000578	5.777213	1.957373	0.000231
1653	1.6437e+02	-14.2087	-103.215431	0.000395	3.952830	1.339255	0.000158
1654	1.6447e+02	-14.1638	-103.045871	0.000426	4.256894	1.442275	0.000170
1655	1.6457e+02	-14.1221	-102.839977	0.000517	5.169085	1.751334	0.000207
1656	1.6467e+02	-14.0755	-102.642158	0.000497	4.966376	1.682654	0.000199
1657	1.6477e+02	-14.0547	-102.416078	0.000568	5.675858	1.923033	0.000227
1658	1.6487e+02	-14.0001	-102.311112	0.000264	2.635220	0.892837	0.000105
1659	1.6497e+02	-13.9632	-102.068884	0.000608	6.081277	2.060392	0.000243
1660	1.6507e+02	-13.9167	-101.907399	0.000405	4.054185	1.373595	0.000162
1661	1.6517e+02	-13.8782	-101.709579	0.000497	4.966376	1.682654	0.000199
1662	1.6527e+02	-13.8381	-101.552131	0.000395	3.952830	1.339255	0.000158
1663	1.6537e+02	-13.7996	-101.378534	0.000436	4.358248	1.476615	0.000174
1664	1.6547e+02	-13.7611	-101.124195	0.000639	6.385341	2.163412	0.000256
1665	1.6557e+02	-13.7242	-101.007118	0.000294	2.939284	0.995856	0.000118
1666	1.6567e+02	-13.6857	-100.829484	0.000446	4.459603	1.510954	0.000179
1667	1.6577e+02	-13.6440	-100.579181	0.000628	6.283986	2.129072	0.000252
1668	1.6587e+02	-13.6023	-100.397510	0.000456	4.560958	1.545294	0.000183
1669	1.6597e+02	-13.5686	-100.211802	0.000466	4.662312	1.579634	0.000187
1670	1.6607e+02	-13.5317	-100.046279	0.000416	4.155539	1.407935	0.000166
1671	1.6616e+02	-13.4852	-99.880757	0.000416	4.155539	1.407935	0.000166
1672	1.6626e+02	-13.4435	-99.678900	0.000507	5.067731	1.716994	0.000203
1673	1.6636e+02	-13.4066	-99.493192	0.000466	4.662312	1.579634	0.000187
1674	1.6646e+02	-13.3520	-99.279224	0.000537	5.371795	1.820013	0.000215
1675	1.6656e+02	-13.3232	-99.101590	0.000446	4.459603	1.510954	0.000179
1676	1.6666e+02	-13.2895	-98.907807	0.000487	4.865022	1.648314	0.000195
1677	1.6676e+02	-13.2397	-98.726136	0.000456	4.560958	1.545294	0.000183
1678	1.6686e+02	-13.2060	-98.512168	0.000537	5.371795	1.820013	0.000215
1679	1.6696e+02	-13.1531	-98.334534	0.000446	4.459603	1.510954	0.000179
1680	1.6706e+02	-13.1210	-98.148825	0.000466	4.662312	1.579634	0.000187
1681	1.6716e+02	-13.0761	-97.955043	0.000487	4.865022	1.648314	0.000195
1682	1.6726e+02	-13.0440	-97.712815	0.000608	6.081277	2.060392	0.000243
1683	1.6736e+02	-13.0023	-97.531144	0.000456	4.560958	1.545294	0.000183
1684	1.6746e+02	-12.9590	-97.353510	0.000446	4.459603	1.510954	0.000179
1685	1.6756e+02	-12.9221	-97.155690	0.000497	4.966376	1.682654	0.000199
1686	1.6766e+02	-12.8868	-96.945759	0.000527	5.270440	1.785673	0.000211
1687	1.6776e+02	-12.8467	-96.792348	0.000385	3.851475	1.304915	0.000154
1688	1.6786e+02	-12.8050	-96.590491	0.000507	5.067731	1.716994	0.000203
1689	1.6796e+02	-12.7649	-96.412857	0.000446	4.459603	1.510954	0.000179
1690	1.6806e+02	-12.7392	-96.211000	0.000507	5.067731	1.716994	0.000203
1691	1.6816e+02	-12.6831	-95.988958	0.000557	5.574504	1.888693	0.000223
1692	1.6825e+02	-12.6414	-95.843621	0.000365	3.648766	1.236235	0.000146
1693	1.6835e+02	-12.6061	-95.645801	0.000497	4.966376	1.682654	0.000199
1694	1.6845e+02	-12.5676	-95.456056	0.000476	4.763667	1.613974	0.000191
1695	1.6855e+02	-12.5194	-95.242088	0.000537	5.371795	1.820013	0.000215
1696	1.6865e+02	-12.4825	-95.032157	0.000527	5.270440	1.785673	0.000211
1697	1.6875e+02	-12.4488	-94.882783	0.000375	3.750121	1.270575	0.000150
1698	1.6885e+02	-12.4071	-94.709186	0.000436	4.358248	1.476615	0.000174
1699	1.6895e+02	-12.3654	-94.483106	0.000568	5.675858	1.923033	0.000227
1700	1.6905e+02	-12.3301	-94.273175	0.000527	5.270440	1.785673	0.000211
1701	1.6915e+02	-12.2884	-94.103615	0.000426	4.256894	1.442275	0.000170
1702	1.6925e+02	-12.2547	-93.877536	0.000568	5.675858	1.923033	0.000227
1703	1.6935e+02	-12.2066	-93.724125	0.000385	3.851475	1.304915	0.000154
1704	1.6945e+02	-12.1649	-93.485934	0.000598	5.979922	2.026053	0.000239
1705	1.6955e+02	-12.1344	-93.336560	0.000375	3.750121	1.270575	0.000150
1706	1.6965e+02	-12.0879	-93.122592	0.000537	5.371795	1.820013	0.000215
1707	1.6975e+02	-12.0558	-92.940920	0.000456	4.560958	1.545294	0.000183
1708	1.6985e+02	-12.0045	-92.743101	0.000497	4.966376	1.682654	0.000199
1709	1.6995e+02	-11.9547	-92.533170	0.000527	5.270440	1.785673	0.000211
1710	1.7005e+02	-11.9291	-92.347461	0.000466	4.662312	1.579634	0.000187
1711	1.7015e+02	-11.8922	-92.117345	0.000578	5.777213	1.957373	0.000231
1712	1.7024e+02	-11.8537	-91.919525	0.000497	4.966376	1.682654	0.000199
1713	1.7034e+02	-11.8088	-91.749965	0.000426	4.256894	1.442275	0.000170
1714	1.7044e+02	-11.7670	-91.560220	0.000476	4.763667	1.613974	0.000191
1715	1.7054e+02	-11.7382	-91.322029	0.000598	5.979922	2.026053	0.000239
1716	1.7064e+02	-11.6900	-91.148432	0.000436	4.358248	1.476615	0.000174
1717	1.7074e+02	-11.6515	-90.962724	0.000466	4.662312	1.579634	0.000187
1718	1.7084e+02	-11.6018	-90.740681	0.000557	5.574504	1.888693	0.000223
1719	1.7094e+02	-11.5729	-90.563047	0.000446	4.459603	1.510954	0.000179
1720	1.7104e+02	-11.5264	-90.353116	0.000527	5.270440	1.785673	0.000211
1721	1.7114e+02	-11.4879	-90.139148	0.000537	5.371795	1.820013	0.000215
1722	1.7124e+02	-11.4446	-89.921143	0.000547	5.473149	1.854353	0.000219
1723	1.7134e+02	-11.4125	-89.723323	0.000497	4.966376	1.682654	0.000199
1724	1.7144e+02	-11.3676	-89.513392	0.000527	5.270440	1.785673	0.000211
1725	1.7154e+02	-11.3275	-89.315573	0.000497	4.966376	1.682654	0.000199
1726	1.7164e+02	-11.2842	-89.113716	0.000507	5.067731	1.716994	0.000203
1727	1.7174e+02	-11.2441	-88.915896	0.000497	4.966376	1.682654	0.000199
1728	1.7184e+02	-11.2200	-88.762485	0.000385	3.851475	1.304915	0.000154
1729	1.7194e+02	-11.1831	-88.487960	0.000689	6.892114	2.335111	0.000276
1730	1.7204e+02	-11.1286	-88.294177	0.000487	4.865022	1.648314	0.000195
1731	1.7213e+02	-11.0885	-88.144803	0.000375	3.750121	1.270575	0.000150
1732	1.7223e+02	-11.0596	-87.922761	0.000557	5.574504	1.888693	0.000223
1733	1.7233e+02	-11.0147	-87.692644	0.000578	5.777213	1.957373	0.000231
1734	1.7243e+02	-10.9762	-87.490787	0.000507	5.067731	1.716994	0.000203
1735	1.7253e+02	-10.9377	-87.280856	0.000527	5.270440	1.785673	0.000211
1736	1.7263e+02	-10.8863	-87.058814	0.000557	5.574504	1.888693	0.000223
1737	1.7273e+02	-10.8623	-86.865031	0.000487	4.865022	1.648314	0.000195
1738	1.7283e+02	-10.8173	-86.659137	0.000517	5.169085	1.751334	0.000207
1739	1.7293e+02	-10.7660	-86.445169	0.000537	5.371795	1.820013	0.000215
1740	1.7303e+02	-10.7339	-86.215052	0.000578	5.777213	1.957373	0.000231
1741	1.7313e+02	-10.6906	-86.057604	0.000395	3.952830	1.339255	0.000158
1742	1.7323e+02	-10.6585	-85.839599	0.000547	5.473149	1.854353	0.000219
1743	1.7333e+02	-10.6088	-85.625630	0.000537	5.371795	1.820013	0.000215
1744	1.7343e+02	-10.5831	-85.419737	0.000517	5.169085	1.751334	0.000207
1745	1.7353e+02	-10.5366	-85.185583	0.000588	5.878568	1.991713	0.000235
1746	1.7363e+02	-10.4933	-84.971614	0.000537	5.371795	1.820013	0.000215
1747	1.7373e+02	-10.4612	-84.830315	0.000355	3.547412	1.201896	0.000142
1748	1.7383e+02	-10.4147	-84.588087	0.000608	6.081277	2.060392	0.000243
1749	1.7393e+02	-10.3746	-84.349896	0.000598	5.979922	2.026053	0.000239
1750	1.7403e+02	-10.3232	-84.152076	0.000497	4.966376	1.682654	0.000199
1751	1.7413e+02	-10.3024	-83.930033	0.000557	5.574504	1.888693	0.000223
1752	1.7422e+02	-10.2575	-83.752399	0.000446	4.459603	1.510954	0.000179
1753	1.7432e+02	-10.2174	-83.514208	0.000598	5.979922	2.026053	0.000239
1754	1.7442e+02	-10.1708	-83.320426	0.000487	4.865022	1.648314	0.000195
1755	1.7452e+02	-10.1339	-83.094346	0.000568	5.675858	1.923033	0.000227
1756	1.7462e+02	-10.0890	-82.904601	0.000476	4.763667	1.613974	0.000191
1757	1.7472e+02	-10.0569	-82.686596	0.000547	5.473149	1.854353	0.000219
1758	1.7482e+02	-10.0232	-82.476665	0.000527	5.270440	1.785673	0.000211
1759	1.7492e+02	-9.9815	-82.258659	0.000547	5.473149	1.854353	0.000219
1760	1.7502e+02	-9.9318	-82.016431	0.000608	6.081277	2.060392	0.000243
1761	1.7512e+02	-9.8997	-81.850909	0.000416	4.155539	1.407935	0.000166
1762	1.7522e+02	-9.8500	-81.620792	0.000578	5.777213	1.957373	0.000231
1763	1.7532e+02	-9.8099	-81.406824	0.000537	5.371795	1.820013	0.000215
1764	1.7542e+02	-9.7762	-81.200930	0.000517	5.169085	1.751334	0.000207
1765	1.7552e+02	-9.7473	-80.958702	0.000608	6.081277	2.060392	0.000243
1766	1.7562e+02	-9.6976	-80.760882	0.000497	4.966376	1.682654	0.000199
1767	1.7572e+02	-9.6559	-80.546914	0.000537	5.371795	1.820013	0.000215
1768	1.7582e+02	-9.6126	-80.345057	0.000507	5.067731	1.716994	0.000203
1769	1.7592e+02	-9.5789	-80.102829	0.000608	6.081277	2.060392	0.000243
1770	1.7602e+02	-9.5436	-79.905009	0.000497	4.966376	1.682654	0.000199
1771	1.7612e+02	-9.5003	-79.654707	0.000628	6.283986	2.129072	0.000252
1772	1.7621e+02	-9.4570	-79.468998	0.000466	4.662312	1.579634	0.000187
1773	1.7631e+02	-9.4152	-79.238882	0.000578	5.777213	1.957373	0.000231
1774	1.7641e+02	-9.3767	-78.988579	0.000628	6.283986	2.129072	0.000252
1775	1.7651e+02	-9.3366	-78.766537	0.000557	5.574504	1.888693	0.000223
1776	1.7661e+02	-9.3013	-78.572754	0.000487	4.865022	1.648314	0.000195
1777	1.7671e+02	-9.2596	-78.391083	0.000456	4.560958	1.545294	0.000183
1778	1.7681e+02	-9.2147	-78.108484	0.000709	7.094823	2.403791	0.000284
1779	1.7691e+02	-9.1794	-77.894515	0.000537	5.371795	1.820013	0.000215
1780	1.7701e+02	-9.1441	-77.696696	0.000497	4.966376	1.682654	0.000199
1781	1.7711e+02	-9.1088	-77.470616	0.000568	5.675858	1.923033	0.000227
1782	1.7721e+02	-9.0607	-77.240500	0.000578	5.777213	1.957373	0.000231
1783	1.7731e+02	-9.0094	-77.002308	0.000598	5.979922	2.026053	0.000239
1784	1.7741e+02	-8.9837	-76.768155	0.000588	5.878568	1.991713	0.000235
1785	1.7751e+02	-8.9436	-76.558224	0.000527	5.270440	1.785673	0.000211
1786	1.7761e+02	-8.9019	-76.320033	0.000598	5.979922	2.026053	0.000239
1787	1.7771e+02	-8.8666	-76.102027	0.000547	5.473149	1.854353	0.000219
1788	1.7781e+02	-8.8233	-75.863836	0.000598	5.979922	2.026053	0.000239
1789	1.7791e+02	-8.7800	-75.629682	0.000588	5.878568	1.991713	0.000235
1790	1.7801e+02	-8.7447	-75.407640	0.000557	5.574504	1.888693	0.000223
1791	1.7810e+02	-8.6949	-75.173486	0.000588	5.878568	1.991713	0.000235
1792	1.7820e+02	-8.6564	-74.971629	0.000507	5.067731	1.716994	0.000203
1793	1.7830e+02	-8.6195	-74.701141	0.000679	6.790759	2.300772	0.000272
1794	1.7840e+02	-8.5859	-74.503321	0.000497	4.966376	1.682654	0.000199
1795	1.7850e+02	-8.5490	-74.273205	0.000578	5.777213	1.957373	0.000231
1796	1.7860e+02	-8.5056	-74.035014	0.000598	5.979922	2.026053	0.000239
1797	1.7870e+02	-8.4623	-73.784711	0.000628	6.283986	2.129072	0.000252
1798	1.7880e+02	-8.4222	-73.615152	0.000426	4.256894	1.442275	0.000170
1799	1.7890e+02	-8.3725	-73.328515	0.000720	7.196178	2.438131	0.000288
1800	1.7900e+02	-8.3388	-73.175104	0.000385	3.851475	1.304915	0.000154
1801	1.7910e+02	-8.3051	-72.848096	0.000821	8.209724	2.781530	0.000329
1802	1.7920e+02	-8.2634	-72.650276	0.000497	4.966376	1.682654	0.000199
1803	1.7930e+02	-8.2297	-72.452457	0.000497	4.966376	1.682654	0.000199
1804	1.7940e+02	-8.1880	-72.242525	0.000527	5.270440	1.785673	0.000211
1805	1.7950e+02	-8.1479	-71.984149	0.000649	6.486695	2.197752	0.000260
1806	1.7960e+02	-8.1110	-71.741921	0.000608	6.081277	2.060392	0.000243
1807	1.7970e+02	-8.0500	-71.527952	0.000537	5.371795	1.820013	0.000215
1808	1.7980e+02	-8.0196	-71.265539	0.000659	6.588050	2.232092	0.000264
1809	1.7990e+02	-7.9827	-71.079830	0.000466	4.662312	1.579634	0.000187
1810	1.8000e+02	-7.9329	-70.809342	0.000679	6.790759	2.300772	0.000272
1811	1.8009e+02	-7.9089	-70.579226	0.000578	5.777213	1.957373	0.000231
1812	1.8019e+02	-7.8688	-70.349109	0.000578	5.777213	1.957373	0.000231
1813	1.8029e+02	-7.8238	-70.127066	0.000557	5.574504	1.888693	0.000223
1814	1.8039e+02	-7.7805	-69.872727	0.000639	6.385341	2.163412	0.000256
1815	1.8049e+02	-7.7420	-69.642610	0.000578	5.777213	1.957373	0.000231
1816	1.8059e+02	-7.7051	-69.432679	0.000527	5.270440	1.785673	0.000211
1817	1.8069e+02	-7.6763	-69.190451	0.000608	6.081277	2.060392	0.000243
1818	1.8079e+02	-7.6265	-68.964371	0.000568	5.675858	1.923033	0.000227
1819	1.8089e+02	-7.5800	-68.714069	0.000628	6.283986	2.129072	0.000252
1820	1.8099e+02	-7.5431	-68.479915	0.000588	5.878568	1.991713	0.000235
1821	1.8109e+02	-7.5014	-68.245761	0.000588	5.878568	1.991713	0.000235
1822	1.8119e+02	-7.4613	-67.995459	0.000628	6.283986	2.129072	0.000252
1823	1.8129e+02	-7.4308	-67.745156	0.000628	6.283986	2.129072	0.000252
1824	1.8139e+02	-7.3811	-67.506965	0.000598	5.979922	2.026053	0.000239
1825	1.8149e+02	-7.3410	-67.276849	0.000578	5.777213	1.957373	0.000231
1826	1.8159e+02	-7.3009	-67.034620	0.000608	6.081277	2.060392	0.000243
1827	1.8169e+02	-7.2608	-66.796429	0.000598	5.979922	2.026053	0.000239
1828	1.8179e+02	-7.2335	-66.542090	0.000639	6.385341	2.163412	0.000256
1829	1.8189e+02	-7.1870	-66.324084	0.000547	5.473149	1.854353	0.000219
1830	1.8199e+02	-7.1453	-66.106079	0.000547	5.473149	1.854353	0.000219
1831	1.8209e+02	-7.1051	-65.880000	0.000568	5.675858	1.923033	0.000227
1832	1.8218e+02	-7.0682	-65.601437	0.000699	6.993468	2.369451	0.000280
1833	1.8228e+02	-7.0217	-65.407655	0.000487	4.865022	1.648314	0.000195
1834	1.8238e+02	-6.9896	-65.153315	0.000639	6.385341	2.163412	0.000256
1835	1.8248e+02	-6.9415	-64.862641	0.000730	7.297532	2.472471	0.000292
1836	1.8258e+02	-6.9094	-64.656747	0.000517	5.169085	1.751334	0.000207
1837	1.8268e+02	-6.8661	-64.402408	0.000639	6.385341	2.163412	0.000256
1838	1.8278e+02	-6.8340	-64.152105	0.000628	6.283986	2.129072	0.000252
1839	1.8288e+02	-6.7875	-63.917952	0.000588	5.878568	1.991713	0.000235
1840	1.8298e+02	-6.7442	-63.695909	0.000557	5.574504	1.888693	0.000223
1841	1.8308e+02	-6.7025	-63.441570	0.000639	6.385341	2.163412	0.000256
1842	1.8318e+02	-6.6672	-63.183193	0.000649	6.486695	2.197752	0.000260
1843	1.8328e+02	-6.6303	-62.977299	0.000517	5.169085	1.751334	0.000207
1844	1.8338e+02	-6.5693	-62.678551	0.000750	7.500242	2.541151	0.000300
1845	1.8348e+02	-6.5565	-62.432286	0.000618	6.182632	2.094732	0.000248
1846	1.8358e+02	-6.5132	-62.202169	0.000578	5.777213	1.957373	0.000231
1847	1.8368e+02	-6.4731	-61.919569	0.000709	7.094823	2.403791	0.000284
1848	1.8378e+02	-6.4298	-61.709638	0.000527	5.270440	1.785673	0.000211
1849	1.8388e+02	-6.3881	-61.447225	0.000659	6.588050	2.232092	0.000264
1850	1.8398e+02	-6.3496	-61.209033	0.000598	5.979922	2.026053	0.000239
1851	1.8407e+02	-6.3078	-60.982954	0.000568	5.675858	1.923033	0.000227
1852	1.8417e+02	-6.2742	-60.708429	0.000689	6.892114	2.335111	0.000276
1853	1.8427e+02	-6.2340	-60.478312	0.000578	5.777213	1.957373	0.000231
1854	1.8437e+02	-6.1859	-60.256269	0.000557	5.574504	1.888693	0.000223
1855	1.8447e+02	-6.1314	-59.973670	0.000709	7.094823	2.403791	0.000284
1856	1.8457e+02	-6.1137	-59.735479	0.000598	5.979922	2.026053	0.000239
1857	1.8467e+02	-6.0768	-59.509399	0.000568	5.675858	1.923033	0.000227
1858	1.8477e+02	-6.0319	-59.251023	0.000649	6.486695	2.197752	0.000260
1859	1.8487e+02	-5.9966	-58.976497	0.000689	6.892114	2.335111	0.000276
1860	1.8497e+02	-5.9565	-58.738306	0.000598	5.979922	2.026053	0.000239
1861	1.8507e+02	-5.9148	-58.504153	0.000588	5.878568	1.991713	0.000235
1862	1.8517e+02	-5.8651	-58.217516	0.000720	7.196178	2.438131	0.000288
1863	1.8527e+02	-5.8346	-58.023733	0.000487	4.865022	1.648314	0.000195
1864	1.8537e+02	-5.7993	-57.720948	0.000760	7.601596	2.575490	0.000304
1865	1.8547e+02	-5.7576	-57.511017	0.000527	5.270440	1.785673	0.000211
1866	1.8557e+02	-5.7127	-57.232455	0.000699	6.993468	2.369451	0.000280
1867	1.8567e+02	-5.6726	-57.026561	0.000517	5.169085	1.751334	0.000207
1868	1.8577e+02	-5.6276	-56.752036	0.000689	6.892114	2.335111	0.000276
1869	1.8587e+02	-5.5891	-56.505770	0.000618	6.182632	2.094732	0.000248
1870	1.8597e+02	-5.5522	-56.227208	0.000699	6.993468	2.369451	0.000280
1871	1.8606e+02	-5.5202	-55.989017	0.000598	5.979922	2.026053	0.000239
1872	1.8616e+02	-5.4769	-55.734677	0.000639	6.385341	2.163412	0.000256
1873	1.8626e+02	-5.4367	-55.504561	0.000578	5.777213	1.957373	0.000231
1874	1.8636e+02	-5.3998	-55.250221	0.000639	6.385341	2.163412	0.000256
1875	1.8646e+02	-5.3581	-54.991844	0.000649	6.486695	2.197752	0.000260
1876	1.8656e+02	-5.3132	-54.733468	0.000649	6.486695	2.197752	0.000260
1877	1.8666e+02	-5.2747	-54.491240	0.000608	6.081277	2.060392	0.000243
1878	1.8676e+02	-5.2282	-54.224789	0.000669	6.689405	2.266432	0.000268
1879	1.8686e+02	-5.2041	-54.002746	0.000557	5.574504	1.888693	0.000223
1880	1.8696e+02	-5.1496	-53.691887	0.000780	7.804305	2.644170	0.000312
1881	1.8706e+02	-5.1207	-53.453696	0.000598	5.979922	2.026053	0.000239
1882	1.8716e+02	-5.0678	-53.191282	0.000659	6.588050	2.232092	0.000264
1883	1.8726e+02	-5.0437	-52.932905	0.000649	6.486695	2.197752	0.000260
1884	1.8736e+02	-4.9908	-52.682603	0.000628	6.283986	2.129072	0.000252
1885	1.8746e+02	-4.9539	-52.395966	0.000720	7.196178	2.438131	0.000288
1886	1.8756e+02	-4.9218	-52.173924	0.000557	5.574504	1.888693	0.000223
1887	1.8766e+02	-4.8785	-51.895361	0.000699	6.993468	2.369451	0.000280
1888	1.8776e+02	-4.8336	-51.596613	0.000750	7.500242	2.541151	0.000300
1889	1.8786e+02	-4.7967	-51.386682	0.000527	5.270440	1.785673	0.000211
1890	1.8796e+02	-4.7501	-51.091971	0.000740	7.398887	2.506811	0.000296
1891	1.8806e+02	-4.7132	-50.845706	0.000618	6.182632	2.094732	0.000248
1892	1.8815e+02	-4.6828	-50.575218	0.000679	6.790759	2.300772	0.000272
1893	1.8825e+02	-4.6250	-50.328953	0.000618	6.182632	2.094732	0.000248
1894	1.8835e+02	-4.5929	-50.046353	0.000709	7.094823	2.403791	0.000284
1895	1.8845e+02	-4.5560	-49.787976	0.000649	6.486695	2.197752	0.000260
1896	1.8855e+02	-4.5239	-49.549785	0.000598	5.979922	2.026053	0.000239
1897	1.8865e+02	-4.4854	-49.242963	0.000770	7.702951	2.609830	0.000308
1898	1.8875e+02	-4.4405	-48.988624	0.000639	6.385341	2.163412	0.000256
1899	1.8885e+02	-4.3972	-48.734284	0.000639	6.385341	2.163412	0.000256
1900	1.8895e+02	-4.3603	-48.451685	0.000709	7.094823	2.403791	0.000284
1901	1.8905e+02	-4.3218	-48.189271	0.000659	6.588050	2.232092	0.000264
1902	1.8915e+02	-4.2801	-47.898597	0.000730	7.297532	2.472471	0.000292
1903	1.8925e+02	-4.2368	-47.636183	0.000659	6.588050	2.232092	0.000264
1904	1.8935e+02	-4.1983	-47.410104	0.000568	5.675858	1.923033	0.000227
1905	1.8945e+02	-4.1566	-47.123467	0.000720	7.196178	2.438131	0.000288
1906	1.8955e+02	-4.1149	-46.836830	0.000720	7.196178	2.438131	0.000288
1907	1.8965e+02	-4.0892	-46.570379	0.000669	6.689405	2.266432	0.000268
1908	1.8975e+02	-4.0475	-46.344300	0.000568	5.675858	1.923033	0.000227
1909	1.8985e+02	-3.9977	-46.001143	0.000862	8.615142	2.918889	0.000345
1910	1.8995e+02	-3.9544	-45.787175	0.000537	5.371795	1.820013	0.000215
1911	1.9004e+02	-3.9175	-45.508613	0.000699	6.993468	2.369451	0.000280
1912	1.9014e+02	-3.8758	-45.226013	0.000709	7.094823	2.403791	0.000284
1913	1.9024e+02	-3.8357	-44.923228	0.000760	7.601596	2.575490	0.000304
1914	1.9034e+02	-3.7956	-44.668888	0.000639	6.385341	2.163412	0.000256
1915	1.9044e+02	-3.7539	-44.374177	0.000740	7.398887	2.506811	0.000296
1916	1.9054e+02	-3.7170	-44.111764	0.000659	6.588050	2.232092	0.000264
1917	1.9064e+02	-3.6865	-43.829164	0.000709	7.094823	2.403791	0.000284
1918	1.9074e+02	-3.6416	-43.562713	0.000669	6.689405	2.266432	0.000268
1919	1.9084e+02	-3.6015	-43.324522	0.000598	5.979922	2.026053	0.000239
1920	1.9094e+02	-3.5566	-43.001551	0.000811	8.108369	2.747190	0.000325
1921	1.9104e+02	-3.5181	-42.751249	0.000628	6.283986	2.129072	0.000252
1922	1.9114e+02	-3.4748	-42.480761	0.000679	6.790759	2.300772	0.000272
1923	1.9124e+02	-3.4411	-42.182013	0.000750	7.500242	2.541151	0.000300
1924	1.9134e+02	-3.4026	-41.907488	0.000689	6.892114	2.335111	0.000276
1925	1.9144e+02	-3.3577	-41.628925	0.000699	6.993468	2.369451	0.000280
1926	1.9154e+02	-3.3256	-41.362474	0.000669	6.689405	2.266432	0.000268
1927	1.9164e+02	-3.2791	-41.108135	0.000639	6.385341	2.163412	0.000256
1928	1.9174e+02	-3.2341	-40.809387	0.000750	7.500242	2.541151	0.000300
1929	1.9184e+02	-3.2085	-40.514676	0.000740	7.398887	2.506811	0.000296
1930	1.9194e+02	-3.1716	-40.288596	0.000568	5.675858	1.923033	0.000227
1931	1.9203e+02	-3.1186	-39.937365	0.000882	8.817852	2.987569	0.000353
1932	1.9213e+02	-3.0881	-39.691100	0.000618	6.182632	2.094732	0.000248
1933	1.9223e+02	-3.0496	-39.392352	0.000750	7.500242	2.541151	0.000300
1934	1.9233e+02	-3.0047	-39.105715	0.000720	7.196178	2.438131	0.000288
1935	1.9243e+02	-2.9710	-38.847339	0.000649	6.486695	2.197752	0.000260
1936	1.9253e+02	-2.9213	-38.540516	0.000770	7.702951	2.609830	0.000308
1937	1.9263e+02	-2.8892	-38.278103	0.000659	6.588050	2.232092	0.000264
1938	1.9273e+02	-2.8427	-37.930909	0.000872	8.716497	2.953229	0.000349
1939	1.9283e+02	-2.8042	-37.664458	0.000669	6.689405	2.266432	0.000268
1940	1.9293e+02	-2.7593	-37.406081	0.000649	6.486695	2.197752	0.000260
1941	1.9303e+02	-2.7208	-37.075036	0.000831	8.311078	2.815870	0.000333
1942	1.9313e+02	-2.6855	-36.804548	0.000679	6.790759	2.300772	0.000272
1943	1.9323e+02	-2.6502	-36.505800	0.000750	7.500242	2.541151	0.000300
1944	1.9333e+02	-2.6133	-36.207052	0.000750	7.500242	2.541151	0.000300
1945	1.9343e+02	-2.5620	-35.948675	0.000649	6.486695	2.197752	0.000260
1946	1.9353e+02	-2.5299	-35.670113	0.000699	6.993468	2.369451	0.000280
1947	1.9363e+02	-2.4801	-35.367328	0.000760	7.601596	2.575490	0.000304
1948	1.9373e+02	-2.4545	-35.088765	0.000699	6.993468	2.369451	0.000280
1949	1.9383e+02	-2.4063	-34.773869	0.000791	7.905660	2.678510	0.000316
1950	1.9393e+02	-2.3759	-34.458972	0.000791	7.905660	2.678510	0.000316
1951	1.9403e+02	-2.3293	-34.144076	0.000791	7.905660	2.678510	0.000316
1952	1.9412e+02	-2.2924	-33.865513	0.000699	6.993468	2.369451	0.000280
1953	1.9422e+02	-2.2539	-33.603099	0.000659	6.588050	2.232092	0.000264
1954	1.9432e+02	-2.2058	-33.263980	0.000851	8.513788	2.884549	0.000341
1955	1.9442e+02	-2.1593	-32.969269	0.000740	7.398887	2.506811	0.000296
1956	1.9452e+02	-2.1304	-32.674558	0.000740	7.398887	2.506811	0.000296
1957	1.9462e+02	-2.0903	-32.371773	0.000760	7.601596	2.575490	0.000304
1958	1.9472e+02	-2.0470	-32.044765	0.000821	8.209724	2.781530	0.000329
1959	1.9482e+02	-2.0133	-31.778314	0.000669	6.689405	2.266432	0.000268
1960	1.9492e+02	-1.9636	-31.447269	0.000831	8.311078	2.815870	0.000333
1961	1.9502e+02	-1.9267	-31.104112	0.000862	8.615142	2.918889	0.000345
1962	1.9512e+02	-1.8850	-30.861884	0.000608	6.081277	2.060392	0.000243
1963	1.9522e+02	-1.8465	-30.571210	0.000730	7.297532	2.472471	0.000292
1964	1.9532e+02	-1.8016	-30.232091	0.000851	8.513788	2.884549	0.000341
1965	1.9542e+02	-1.7679	-29.933343	0.000750	7.500242	2.541151	0.000300
1966	1.9552e+02	-1.7342	-29.630558	0.000760	7.601596	2.575490	0.000304
1967	1.9562e+02	-1.6860	-29.287401	0.000862	8.615142	2.918889	0.000345
1968	1.9572e+02	-1.6508	-29.004802	0.000709	7.094823	2.403791	0.000284
1969	1.9582e+02	-1.6123	-28.710091	0.000740	7.398887	2.506811	0.000296
1970	1.9592e+02	-1.5689	-28.415380	0.000740	7.398887	2.506811	0.000296
1971	1.9601e+02	-1.5320	-28.096446	0.000801	8.007015	2.712850	0.000321
1972	1.9611e+02	-1.4887	-27.745215	0.000882	8.817852	2.987569	0.000353
1973	1.9621e+02	-1.4486	-27.462616	0.000709	7.094823	2.403791	0.000284
1974	1.9631e+02	-1.4005	-27.200202	0.000659	6.588050	2.232092	0.000264
1975	1.9641e+02	-1.3636	-26.877231	0.000811	8.108369	2.747190	0.000325
1976	1.9651e+02	-1.3315	-26.558297	0.000801	8.007015	2.712850	0.000321
1977	1.9661e+02	-1.2866	-26.211104	0.000872	8.716497	2.953229	0.000349
1978	1.9671e+02	-1.2497	-25.900244	0.000780	7.804305	2.644170	0.000312
1979	1.9681e+02	-1.2080	-25.633793	0.000669	6.689405	2.266432	0.000268
1980	1.9691e+02	-1.1663	-25.318897	0.000791	7.905660	2.678510	0.000316
1981	1.9701e+02	-1.1278	-24.983815	0.000841	8.412433	2.850209	0.000337
1982	1.9711e+02	-1.0973	-24.648732	0.000841	8.412433	2.850209	0.000337
1983	1.9721e+02	-1.0508	-24.374207	0.000689	6.892114	2.335111	0.000276
1984	1.9731e+02	-1.0091	-24.010865	0.000912	9.121915	3.090589	0.000365
1985	1.9741e+02	-0.9754	-23.716154	0.000740	7.398887	2.506811	0.000296
1986	1.9751e+02	-0.9353	-23.421443	0.000740	7.398887	2.506811	0.000296
1987	1.9761e+02	-0.8952	-23.082324	0.000851	8.513788	2.884549	0.000341
1988	1.9771e+02	-0.8551	-22.775501	0.000770	7.702951	2.609830	0.000308
1989	1.9781e+02	-0.8117	-22.424270	0.000882	8.817852	2.987569	0.000353
1990	1.9791e+02	-0.7668	-22.133597	0.000730	7.297532	2.472471	0.000292
1991	1.9800e+02	-0.7363	-21.826774	0.000770	7.702951	2.609830	0.000308
1992	1.9810e+02	-0.6882	-21.548212	0.000699	6.993468	2.369451	0.000280
1993	1.9820e+02	-0.6545	-21.180833	0.000922	9.223270	3.124928	0.000369
1994	1.9830e+02	-0.6064	-20.861899	0.000801	8.007015	2.712850	0.000321
1995	1.9840e+02	-0.5695	-20.522780	0.000851	8.513788	2.884549	0.000341
1996	1.9850e+02	-0.5262	-20.224031	0.000750	7.500242	2.541151	0.000300
1997	1.9860e+02	-0.5005	-19.872801	0.000882	8.817852	2.987569	0.000353
1998	1.9870e+02	-0.4572	-19.598275	0.000689	6.892114	2.335111	0.000276
1999	1.9880e+02	-0.4091	-19.247045	0.000882	8.817852	2.987569	0.000353
2000	1.9890e+02	-0.3754	-18.952334	0.000740	7.398887	2.506811	0.000296
2001	1.9900e+02	-0.3305	-18.609177	0.000862	8.615142	2.918889	0.000345
2002	1.9910e+02	-0.2968	-18.282169	0.000821	8.209724	2.781530	0.000329
2003	1.9920e+02	-0.2567	-17.959198	0.000811	8.108369	2.747190	0.000325
2004	1.9930e+02	-0.2086	-17.612005	0.000872	8.716497	2.953229	0.000349
2005	1.9940e+02	-0.1700	-17.276922	0.000841	8.412433	2.850209	0.000337
2006	1.9950e+02	-0.1332	-16.974137	0.000760	7.601596	2.575490	0.000304
2007	1.9960e+02	-0.0930	-16.635018	0.000851	8.513788	2.884549	0.000341
2008	1.9970e+02	-0.0513	-16.291861	0.000862	8.615142	2.918889	0.000345
2009	1.9980e+02	-0.0144	-15.956779	0.000862	8.615142	2.918889	0.000337

Center data before PMax,+/-Pr and +/-Vc Calc.

PMax (uC/cm2):	1.25e+02
Pr (uC/cm2):	7.86e+00
-Pr (uC/cm2):	-1.60e+01
PLoss (uC/cm2):	-1.11e+01
Vc:	6.55e-01
-Vc:	-9.73e-01
C (Max-Eff) (nF):	6.24e-01
K (Eff):	2.11e+03
Vert. (+/-Pr) Shift (uC/cm2):	-4.05e+00
Horiz. Shift (+/-Vc):	-1.59e-01
Offset (uC/cm2):	4.87e+00

A (Loop Area - uC/cm2·Volts):	7.05e-02



Hysteresis Version: 5.48.1 - Radiant Technologies, Inc., 1999 - 9/12/24

