»»»»»»»»»»»»»»»»»»»»»»»»»»»»»»»»»»»» Hysteresis ««««««««««««««««««««««««««««««««««««
»»»  Executed Version:	5.48.1
»»»  Vision Version:	5.48.4 (R)
»»»  Vision Compiled:	9/18/24
»»»  Driver Version:	5.47.0
»»»  Windows Version:	Windows 8 or 8.1
»»»  Processor Information:	x86 (AMD or Intel) - 32 Processors
»»»  Tester Name:	PMF21124-494 (100V)
»»»  Tester S/N:	PMF21124-494
»»»  Internal Amp Type:	100V RevK 270k
»»»  Internal Amp S/N:	iAB2-596/K     
»»»  Execution Count:	1
»»»»»»»»»»»»»»»»»»»»»»»»»»»»»»»»»»»»»»»»»»««««««««««««««««««««««««««««««««««««««««««

Stored:	6/5/2025 - 11:1:52
Configured:	06/05/25 10:43:40 AM
Executed:	06/05/25 11:01:16 AM

»»»»»»»»»»»»»»»»»»»»»»»»»»»»»»»»»»» Sample Info ««««««««««««««««««««««««««««««««««««
Sample Name:	
Lot Name:	
Wafer Name:	
Die Row/Column:	0/0
Capacitor Number:	0
Sample Area (cm2):	1.00e-04
Sample Thickness (microns):	3.00e-01

Amplifier:	Internal

»»»»»»»»»»»»»»»»»»»»»»»»»»»»»»»»»»» Tester Info «««««««««««««««««««««««««««««««««««
Tester Name:	PMF21124-494 (100V)
Tester Serial Number:	PMF21124-494
Return Signal Amp. Level:	0.19 [Index: 3]

»»»»»»»»»»»»»»»»»»»»»»»»»»»»»»»» Hysteresis Info ««««««««««««««««««««««««««««««««««
Task Name:	Hyst-187
Volts:	20.00
Field:	666.67 (kV/cm)
DCBias:	0.00
DCField:	0.00 (kV/cm)
Hysteresis Period (ms):	1.00e+00
Preset:	Enabled
Preset Delay (ms):	1.00e+03
Profile:	Standard Bipolar

»»»»»»»»»»»»»»»»»»»»»»»»»»»»»»»»»»»»»» Data «««««««««««««««««««««««««««««««««««««««
Points:	2001

Valid Data

Point	Time (ms)	Drive Voltage	Measured Polarization (uC/cm2)	Capacitance (uF)	Normalized Capacitance (uF/cm2)	Dielectric Constant	Instantaneous Current (mA)
   1	0.0000e+00	0.0032	-3.230512	0.000717	7.171272	2.429693	0.057270
   2	5.0000e-04	0.0112	-2.944162	0.000717	7.171272	2.429693	0.057270
   3	1.0000e-03	0.0369	-2.923996	0.000051	0.505019	0.171105	0.004033
   4	1.5000e-03	0.0802	-2.637646	0.000717	7.171272	2.429693	0.057270
   5	2.0000e-03	0.1139	-2.343230	0.000737	7.373279	2.498135	0.058883
   6	2.5000e-03	0.1572	-2.113344	0.000576	5.757218	1.950598	0.045977
   7	3.0000e-03	0.2005	-1.871358	0.000606	6.060230	2.053261	0.048397
   8	3.5000e-03	0.2374	-1.790696	0.000202	2.020077	0.684420	0.016132
   9	4.0000e-03	0.2839	-1.520478	0.000677	6.767256	2.292809	0.054044
  10	4.5000e-03	0.3289	-1.121201	0.001000	9.999379	3.387881	0.079855
  11	5.0000e-03	0.3610	-0.830818	0.000727	7.272276	2.463914	0.058077
  12	5.5000e-03	0.3914	-0.435575	0.000990	9.898375	3.353660	0.079049
  13	6.0000e-03	0.4347	-0.229887	0.000515	5.151195	1.745272	0.041138
  14	6.5000e-03	0.4700	0.044364	0.000687	6.868260	2.327030	0.054850
  15	7.0000e-03	0.5198	0.246019	0.000505	5.050191	1.711051	0.040331
  16	7.5000e-03	0.5615	0.613031	0.000919	9.191348	3.114113	0.073402
  17	8.0000e-03	0.6000	0.919546	0.000768	7.676291	2.600798	0.061303
  18	8.5000e-03	0.6337	1.048606	0.000323	3.232122	1.095073	0.025812
  19	9.0000e-03	0.6786	1.524511	0.001192	11.918452	4.038081	0.095181
  20	9.5000e-03	0.7219	1.802795	0.000697	6.969264	2.361251	0.055657
  21	1.0000e-02	0.7540	1.919755	0.000293	2.929111	0.992410	0.023392
  22	1.0500e-02	0.7941	2.234337	0.000788	7.878299	2.669240	0.062916
  23	1.1000e-02	0.8278	2.536819	0.000758	7.575287	2.566577	0.060496
  24	1.1500e-02	0.8791	2.992559	0.001141	11.413432	3.866976	0.091148
  25	1.2000e-02	0.9208	3.307141	0.000788	7.878299	2.669240	0.062916
  26	1.2500e-02	0.9561	3.605590	0.000747	7.474283	2.532356	0.059690
  27	1.3000e-02	0.9930	3.625756	0.000051	0.505019	0.171105	0.004033
  28	1.3500e-02	1.0428	3.976635	0.000879	8.787333	2.977229	0.070176
  29	1.4000e-02	1.0748	4.420276	0.001111	11.110421	3.764313	0.088728
  30	1.4500e-02	1.1182	4.722758	0.000758	7.575287	2.566577	0.060496
  31	1.5000e-02	1.1534	4.916347	0.000485	4.848184	1.642609	0.038718
  32	1.5500e-02	1.1919	5.202697	0.000717	7.171272	2.429693	0.057270
  33	1.6000e-02	1.2337	5.444683	0.000606	6.060230	2.053261	0.048397
  34	1.6500e-02	1.2754	5.654404	0.000525	5.252199	1.779493	0.041944
  35	1.7000e-02	1.3139	5.864125	0.000525	5.252199	1.779493	0.041944
  36	1.7500e-02	1.3588	6.291634	0.001071	10.706406	3.627428	0.085502
  37	1.8000e-02	1.3957	6.444892	0.000384	3.838145	1.300399	0.030652
  38	1.8500e-02	1.4406	6.767539	0.000808	8.080306	2.737682	0.064530
  39	1.9000e-02	1.4839	7.017592	0.000626	6.262237	2.121703	0.050010
  40	1.9500e-02	1.5080	7.392670	0.000939	9.393356	3.182555	0.075016
  41	2.0000e-02	1.5609	7.703218	0.000778	7.777295	2.635019	0.062110
  42	2.0500e-02	1.5930	8.114594	0.001030	10.302390	3.490544	0.082275
  43	2.1000e-02	1.6363	8.336415	0.000556	5.555211	1.882156	0.044364
  44	2.1500e-02	1.6732	8.586467	0.000626	6.262237	2.121703	0.050010
  45	2.2000e-02	1.7149	8.852651	0.000667	6.666253	2.258588	0.053237
  46	2.2500e-02	1.7566	9.147068	0.000737	7.373279	2.498135	0.058883
  47	2.3000e-02	1.8032	9.473749	0.000818	8.181310	2.771903	0.065336
  48	2.3500e-02	1.8385	9.699602	0.000566	5.656214	1.916377	0.045171
  49	2.4000e-02	1.8705	10.115011	0.001040	10.403394	3.524765	0.083082
  50	2.4500e-02	1.9251	10.445725	0.000828	8.282314	2.806124	0.066143
  51	2.5000e-02	1.9556	10.671579	0.000566	5.656214	1.916377	0.045171
  52	2.5500e-02	1.9973	10.885333	0.000535	5.353203	1.813714	0.042751
  53	2.6000e-02	2.0422	11.078922	0.000485	4.848184	1.642609	0.038718
  54	2.6500e-02	2.0775	11.276544	0.000495	4.949188	1.676830	0.039524
  55	2.7000e-02	2.1176	11.728251	0.001131	11.312429	3.832755	0.090341
  56	2.7500e-02	2.1641	11.994435	0.000667	6.666253	2.258588	0.053237
  57	2.8000e-02	2.1914	12.268686	0.000687	6.868260	2.327030	0.054850
  58	2.8500e-02	2.2379	12.704261	0.001091	10.908413	3.695870	0.087115
  59	2.9000e-02	2.2700	13.018842	0.000788	7.878299	2.669240	0.062916
  60	2.9500e-02	2.3229	13.176133	0.000394	3.939149	1.334620	0.031458
  61	3.0000e-02	2.3598	13.365689	0.000475	4.747180	1.608388	0.037911
  62	3.0500e-02	2.3983	13.664138	0.000747	7.474283	2.532356	0.059690
  63	3.1000e-02	2.4432	14.035183	0.000929	9.292352	3.148334	0.074209
  64	3.1500e-02	2.4769	14.337666	0.000758	7.575287	2.566577	0.060496
  65	3.2000e-02	2.5138	14.551420	0.000535	5.353203	1.813714	0.042751
  66	3.2500e-02	2.5588	14.882134	0.000828	8.282314	2.806124	0.066143
  67	3.3000e-02	2.5989	15.329808	0.001121	11.211425	3.798534	0.089535
  68	3.3500e-02	2.6438	15.281411	-0.000121	-1.212046	-0.410652	-0.009679
  69	3.4000e-02	2.6727	15.684720	0.001010	10.100383	3.422102	0.080662
  70	3.4500e-02	2.7256	15.934773	0.000626	6.262237	2.121703	0.050010
  71	3.5000e-02	2.7561	16.330016	0.000990	9.898375	3.353660	0.079049
  72	3.5500e-02	2.7962	16.741392	0.001030	10.302390	3.490544	0.082275
  73	3.6000e-02	2.8363	16.987411	0.000616	6.161233	2.087482	0.049204
  74	3.6500e-02	2.8812	17.193099	0.000515	5.151195	1.745272	0.041138
  75	3.7000e-02	2.9245	17.572211	0.000949	9.494360	3.216776	0.075822
  76	3.7500e-02	2.9566	17.834362	0.000657	6.565249	2.224366	0.052430
  77	3.8000e-02	2.9983	18.076348	0.000606	6.060230	2.053261	0.048397
  78	3.8500e-02	3.0448	18.350599	0.000687	6.868260	2.327030	0.054850
  79	3.9000e-02	3.0817	18.709544	0.000899	8.989341	3.045671	0.071789
  80	3.9500e-02	3.1218	18.967663	0.000646	6.464245	2.190145	0.051624
  81	4.0000e-02	3.1603	19.302410	0.000838	8.383318	2.840345	0.066949
  82	4.0500e-02	3.1940	19.572628	0.000677	6.767256	2.292809	0.054044
  83	4.1000e-02	3.2422	19.875110	0.000758	7.575287	2.566577	0.060496
  84	4.1500e-02	3.2807	20.076765	0.000505	5.050191	1.711051	0.040331
  85	4.2000e-02	3.3240	20.391347	0.000788	7.878299	2.669240	0.062916
  86	4.2500e-02	3.3528	20.645432	0.000636	6.363241	2.155924	0.050817
  87	4.3000e-02	3.3994	20.839020	0.000485	4.848184	1.642609	0.038718
  88	4.3500e-02	3.4427	21.173768	0.000838	8.383318	2.840345	0.066949
  89	4.4000e-02	3.4796	21.573044	0.001000	9.999379	3.387881	0.079855
  90	4.4500e-02	3.5213	21.742435	0.000424	4.242161	1.437283	0.033878
  91	4.5000e-02	3.5518	21.907792	0.000414	4.141157	1.403062	0.033071
  92	4.5500e-02	3.5967	22.222373	0.000788	7.878299	2.669240	0.062916
  93	4.6000e-02	3.6384	22.577286	0.000889	8.888337	3.011450	0.070983
  94	4.6500e-02	3.6801	22.908000	0.000828	8.282314	2.806124	0.066143
  95	4.7000e-02	3.7202	23.125787	0.000545	5.454207	1.847935	0.043557
  96	4.7500e-02	3.7571	23.496832	0.000929	9.292352	3.148334	0.074209
  97	4.8000e-02	3.7908	23.714620	0.000545	5.454207	1.847935	0.043557
  98	4.8500e-02	3.8421	23.956606	0.000606	6.060230	2.053261	0.048397
  99	4.9000e-02	3.8806	24.267154	0.000778	7.777295	2.635019	0.062110
 100	4.9500e-02	3.9304	24.605935	0.000848	8.484321	2.874566	0.067756
 101	5.0000e-02	3.9609	24.912450	0.000768	7.676291	2.600798	0.061303
 102	5.0500e-02	4.0010	25.130237	0.000545	5.454207	1.847935	0.043557
 103	5.1000e-02	4.0346	25.464985	0.000838	8.383318	2.840345	0.066949
 104	5.1500e-02	4.0780	25.803765	0.000848	8.484321	2.874566	0.067756
 105	5.2000e-02	4.1197	26.061883	0.000646	6.464245	2.190145	0.051624
 106	5.2500e-02	4.1566	26.215141	0.000384	3.838145	1.300399	0.030652
 107	5.3000e-02	4.1903	26.614418	0.001000	9.999379	3.387881	0.079855
 108	5.3500e-02	4.2400	27.058059	0.001111	11.110421	3.764313	0.088728
 109	5.4000e-02	4.2737	27.296011	0.000596	5.959226	2.019040	0.047591
 110	5.4500e-02	4.3218	27.501699	0.000515	5.151195	1.745272	0.041138
 111	5.5000e-02	4.3667	27.715454	0.000535	5.353203	1.813714	0.042751
 112	5.5500e-02	4.3956	28.122797	0.001020	10.201387	3.456323	0.081469
 113	5.6000e-02	4.4389	28.509974	0.000970	9.696367	3.285218	0.077435
 114	5.6500e-02	4.4774	28.796324	0.000717	7.171272	2.429693	0.057270
 115	5.7000e-02	4.5223	28.889085	0.000232	2.323088	0.787084	0.018552
 116	5.7500e-02	4.5592	29.191568	0.000758	7.575287	2.566577	0.060496
 117	5.8000e-02	4.5961	29.477918	0.000717	7.171272	2.429693	0.057270
 118	5.8500e-02	4.6410	29.768301	0.000727	7.272276	2.463914	0.058077
 119	5.9000e-02	4.6844	29.998187	0.000576	5.757218	1.950598	0.045977
 120	5.9500e-02	4.7132	30.409563	0.001030	10.302390	3.490544	0.082275
 121	6.0000e-02	4.7566	30.691880	0.000707	7.070268	2.395472	0.056463
 122	6.0500e-02	4.8095	31.006462	0.000788	7.878299	2.669240	0.062916
 123	6.1000e-02	4.8319	31.236349	0.000576	5.757218	1.950598	0.045977
 124	6.1500e-02	4.8801	31.595294	0.000899	8.989341	3.045671	0.071789
 125	6.2000e-02	4.9202	31.889711	0.000737	7.373279	2.498135	0.058883
 126	6.2500e-02	4.9587	32.099432	0.000525	5.252199	1.779493	0.041944
 127	6.3000e-02	4.9940	32.486609	0.000970	9.696367	3.285218	0.077435
 128	6.3500e-02	5.0421	32.660032	0.000434	4.343165	1.471504	0.034685
 129	6.4000e-02	5.0870	32.946382	0.000717	7.171272	2.429693	0.057270
 130	6.4500e-02	5.1191	33.144004	0.000495	4.949188	1.676830	0.039524
 131	6.5000e-02	5.1560	33.341626	0.000495	4.949188	1.676830	0.039524
 132	6.5500e-02	5.1961	33.753002	0.001030	10.302390	3.490544	0.082275
 133	6.6000e-02	5.2266	34.027253	0.000687	6.868260	2.327030	0.054850
 134	6.6500e-02	5.2683	34.281338	0.000636	6.363241	2.155924	0.050817
 135	6.7000e-02	5.3164	34.632218	0.000879	8.787333	2.977229	0.070176
 136	6.7500e-02	5.3613	34.862104	0.000576	5.757218	1.950598	0.045977
 137	6.8000e-02	5.4015	35.188785	0.000818	8.181310	2.771903	0.065336
 138	6.8500e-02	5.4367	35.414639	0.000566	5.656214	1.916377	0.045171
 139	6.9000e-02	5.4704	35.765518	0.000879	8.787333	2.977229	0.070176
 140	6.9500e-02	5.5186	35.894578	0.000323	3.232122	1.095073	0.025812
 141	7.0000e-02	5.5539	36.257556	0.000909	9.090344	3.079892	0.072596
 142	7.0500e-02	5.5956	36.491476	0.000586	5.858222	1.984819	0.046784
 143	7.1000e-02	5.6405	36.802025	0.000778	7.777295	2.635019	0.062110
 144	7.1500e-02	5.6806	37.048044	0.000616	6.161233	2.087482	0.049204
 145	7.2000e-02	5.7255	37.330361	0.000707	7.070268	2.395472	0.056463
 146	7.2500e-02	5.7576	37.717538	0.000970	9.696367	3.285218	0.077435
 147	7.3000e-02	5.7945	38.141013	0.001061	10.605402	3.593207	0.084695
 148	7.3500e-02	5.8410	38.262006	0.000303	3.030115	1.026631	0.024199
 149	7.4000e-02	5.8795	38.423330	0.000404	4.040153	1.368841	0.032265
 150	7.4500e-02	5.9180	38.721780	0.000747	7.474283	2.532356	0.059690
 151	7.5000e-02	5.9597	39.052494	0.000828	8.282314	2.806124	0.066143
 152	7.5500e-02	5.9998	39.439671	0.000970	9.696367	3.285218	0.077435
 153	7.6000e-02	6.0335	39.637293	0.000495	4.949188	1.676830	0.039524
 154	7.6500e-02	6.0816	39.863147	0.000566	5.656214	1.916377	0.045171
 155	7.7000e-02	6.1169	40.093033	0.000576	5.757218	1.950598	0.045977
 156	7.7500e-02	6.1651	40.488277	0.000990	9.898375	3.353660	0.079049
 157	7.8000e-02	6.2004	40.887554	0.001000	9.999379	3.387881	0.079855
 158	7.8500e-02	6.2405	41.008547	0.000303	3.030115	1.026631	0.024199
 159	7.9000e-02	6.2806	41.161804	0.000384	3.838145	1.300399	0.030652
 160	7.9500e-02	6.3223	41.488485	0.000818	8.181310	2.771903	0.065336
 161	8.0000e-02	6.3528	41.778868	0.000727	7.272276	2.463914	0.058077
 162	8.0500e-02	6.3945	42.077318	0.000747	7.474283	2.532356	0.059690
 163	8.1000e-02	6.4362	42.432230	0.000889	8.888337	3.011450	0.070983
 164	8.1500e-02	6.4795	42.577422	0.000364	3.636138	1.231957	0.029038
 165	8.2000e-02	6.5132	42.887971	0.000778	7.777295	2.635019	0.062110
 166	8.2500e-02	6.5597	43.311446	0.001061	10.605402	3.593207	0.084695
 167	8.3000e-02	6.6030	43.593763	0.000707	7.070268	2.395472	0.056463
 168	8.3500e-02	6.6447	43.634094	0.000101	1.010038	0.342210	0.008066
 169	8.4000e-02	6.6768	43.960775	0.000818	8.181310	2.771903	0.065336
 170	8.4500e-02	6.7185	44.114033	0.000384	3.838145	1.300399	0.030652
 171	8.5000e-02	6.7650	44.388283	0.000687	6.868260	2.327030	0.054850
 172	8.5500e-02	6.7939	44.864189	0.001192	11.918452	4.038081	0.095181
 173	8.6000e-02	6.8372	45.162638	0.000747	7.474283	2.532356	0.059690
 174	8.6500e-02	6.8677	45.211035	0.000121	1.212046	0.410652	0.009679
 175	8.7000e-02	6.9255	45.586114	0.000939	9.393356	3.182555	0.075016
 176	8.7500e-02	6.9576	45.848265	0.000657	6.565249	2.224366	0.052430
 177	8.8000e-02	7.0041	46.029754	0.000455	4.545172	1.539946	0.036298
 178	8.8500e-02	7.0281	46.453230	0.001061	10.605402	3.593207	0.084695
 179	8.9000e-02	7.0731	46.755712	0.000758	7.575287	2.566577	0.060496
 180	8.9500e-02	7.1132	47.025930	0.000677	6.767256	2.292809	0.054044
 181	9.0000e-02	7.1533	47.203386	0.000444	4.444168	1.505725	0.035491
 182	9.0500e-02	7.1982	47.526034	0.000808	8.080306	2.737682	0.064530
 183	9.1000e-02	7.2431	47.864814	0.000848	8.484321	2.874566	0.067756
 184	9.1500e-02	7.2800	47.905145	0.000101	1.010038	0.342210	0.008066
 185	9.2000e-02	7.3105	48.296356	0.000980	9.797371	3.319439	0.078242
 186	9.2500e-02	7.3586	48.606904	0.000778	7.777295	2.635019	0.062110
 187	9.3000e-02	7.3971	48.639169	0.000081	0.808031	0.273768	0.006453
 188	9.3500e-02	7.4420	49.090876	0.001131	11.312429	3.832755	0.090341
 189	9.4000e-02	7.4870	49.401425	0.000778	7.777295	2.635019	0.062110
 190	9.4500e-02	7.5110	49.804735	0.001010	10.100383	3.422102	0.080662
 191	9.5000e-02	7.5543	49.933794	0.000323	3.232122	1.095073	0.025812
 192	9.5500e-02	7.5976	50.191912	0.000646	6.464245	2.190145	0.051624
 193	9.6000e-02	7.6281	50.458097	0.000667	6.666253	2.258588	0.053237
 194	9.6500e-02	7.6698	50.647652	0.000475	4.747180	1.608388	0.037911
 195	9.7000e-02	7.7083	50.901737	0.000636	6.363241	2.155924	0.050817
 196	9.7500e-02	7.7517	51.054995	0.000384	3.838145	1.300399	0.030652
 197	9.8000e-02	7.8014	51.470404	0.001040	10.403394	3.524765	0.083082
 198	9.8500e-02	7.8351	51.627695	0.000394	3.939149	1.334620	0.031458
 199	9.9000e-02	7.8784	52.002773	0.000939	9.393356	3.182555	0.075016
 200	9.9500e-02	7.9201	52.329454	0.000818	8.181310	2.771903	0.065336
 201	1.0000e-01	7.9698	52.486745	0.000394	3.939149	1.334620	0.031458
 202	1.0050e-01	8.0099	52.712599	0.000566	5.656214	1.916377	0.045171
 203	1.0100e-01	8.0436	53.204637	0.001232	12.322467	4.174965	0.098408
 204	1.0150e-01	8.0821	53.446623	0.000606	6.060230	2.053261	0.048397
 205	1.0200e-01	8.1142	53.595847	0.000374	3.737142	1.266178	0.029845
 206	1.0250e-01	8.1527	53.958826	0.000909	9.090344	3.079892	0.072596
 207	1.0300e-01	8.2073	54.095952	0.000343	3.434130	1.163515	0.027425
 208	1.0350e-01	8.2442	54.233077	0.000343	3.434130	1.163515	0.027425
 209	1.0400e-01	8.2666	54.592023	0.000899	8.989341	3.045671	0.071789
 210	1.0450e-01	8.3196	54.842075	0.000626	6.262237	2.121703	0.050010
 211	1.0500e-01	8.3516	55.088094	0.000616	6.161233	2.087482	0.049204
 212	1.0550e-01	8.4046	55.285716	0.000495	4.949188	1.676830	0.039524
 213	1.0600e-01	8.4447	55.765654	0.001202	12.019455	4.072302	0.095988
 214	1.0650e-01	8.4736	55.894714	0.000323	3.232122	1.095073	0.025812
 215	1.0700e-01	8.5201	56.189130	0.000737	7.373279	2.498135	0.058883
 216	1.0750e-01	8.5714	56.447248	0.000646	6.464245	2.190145	0.051624
 217	1.0800e-01	8.6019	56.737631	0.000727	7.272276	2.463914	0.058077
 218	1.0850e-01	8.6452	57.064312	0.000818	8.181310	2.771903	0.065336
 219	1.0900e-01	8.6805	57.282099	0.000545	5.454207	1.847935	0.043557
 220	1.0950e-01	8.7190	57.532152	0.000626	6.262237	2.121703	0.050010
 221	1.1000e-01	8.7543	57.681376	0.000374	3.737142	1.266178	0.029845
 222	1.1050e-01	8.7976	58.209712	0.001323	13.231501	4.482954	0.105667
 223	1.1100e-01	8.8393	58.516228	0.000768	7.676291	2.600798	0.061303
 224	1.1150e-01	8.8842	58.479930	-0.000091	-0.909034	-0.307989	-0.007260
 225	1.1200e-01	8.9243	58.685618	0.000515	5.151195	1.745272	0.041138
 226	1.1250e-01	8.9645	58.931637	0.000616	6.161233	2.087482	0.049204
 227	1.1300e-01	9.0046	59.258318	0.000818	8.181310	2.771903	0.065336
 228	1.1350e-01	9.0495	59.508370	0.000626	6.262237	2.121703	0.050010
 229	1.1400e-01	9.0832	59.701959	0.000485	4.848184	1.642609	0.038718
 230	1.1450e-01	9.1169	60.073004	0.000929	9.292352	3.148334	0.074209
 231	1.1500e-01	9.1602	60.210129	0.000343	3.434130	1.163515	0.027425
 232	1.1550e-01	9.2035	60.448082	0.000596	5.959226	2.019040	0.047591
 233	1.1600e-01	9.2452	60.730399	0.000707	7.070268	2.395472	0.056463
 234	1.1650e-01	9.2805	61.101444	0.000929	9.292352	3.148334	0.074209
 235	1.1700e-01	9.3206	61.363595	0.000657	6.565249	2.224366	0.052430
 236	1.1750e-01	9.3623	61.742707	0.000949	9.494360	3.216776	0.075822
 237	1.1800e-01	9.3960	61.928229	0.000465	4.646176	1.574167	0.037105
 238	1.1850e-01	9.4441	62.113752	0.000465	4.646176	1.574167	0.037105
 239	1.1900e-01	9.4858	62.347671	0.000586	5.858222	1.984819	0.046784
 240	1.1950e-01	9.5227	62.561426	0.000535	5.353203	1.813714	0.042751
 241	1.2000e-01	9.5580	62.948603	0.000970	9.696367	3.285218	0.077435
 242	1.2050e-01	9.6045	63.238986	0.000727	7.272276	2.463914	0.058077
 243	1.2100e-01	9.6446	63.521303	0.000707	7.070268	2.395472	0.056463
 244	1.2150e-01	9.6831	63.690693	0.000424	4.242161	1.437283	0.033878
 245	1.2200e-01	9.7152	63.977043	0.000717	7.171272	2.429693	0.057270
 246	1.2250e-01	9.7650	64.106102	0.000323	3.232122	1.095073	0.025812
 247	1.2300e-01	9.8067	64.352121	0.000616	6.161233	2.087482	0.049204
 248	1.2350e-01	9.8388	64.586041	0.000586	5.858222	1.984819	0.046784
 249	1.2400e-01	9.8805	64.775597	0.000475	4.747180	1.608388	0.037911
 250	1.2450e-01	9.9206	65.033715	0.000646	6.464245	2.190145	0.051624
 251	1.2500e-01	9.9591	65.283767	0.000626	6.262237	2.121703	0.050010
 252	1.2550e-01	10.0040	65.558018	0.000687	6.868260	2.327030	0.054850
 253	1.2600e-01	10.0361	65.945195	0.000970	9.696367	3.285218	0.077435
 254	1.2650e-01	10.0794	66.146850	0.000505	5.050191	1.711051	0.040331
 255	1.2700e-01	10.1211	66.497730	0.000879	8.787333	2.977229	0.070176
 256	1.2750e-01	10.1548	66.699385	0.000505	5.050191	1.711051	0.040331
 257	1.2800e-01	10.2013	66.852642	0.000384	3.838145	1.300399	0.030652
 258	1.2850e-01	10.2366	67.102695	0.000626	6.262237	2.121703	0.050010
 259	1.2900e-01	10.2847	67.308383	0.000515	5.151195	1.745272	0.041138
 260	1.2950e-01	10.3184	67.566501	0.000646	6.464245	2.190145	0.051624
 261	1.3000e-01	10.3505	67.889149	0.000808	8.080306	2.737682	0.064530
 262	1.3050e-01	10.4051	68.006109	0.000293	2.929111	0.992410	0.023392
 263	1.3100e-01	10.4420	68.284392	0.000697	6.969264	2.361251	0.055657
 264	1.3150e-01	10.4788	68.570742	0.000717	7.171272	2.429693	0.057270
 265	1.3200e-01	10.5190	68.724000	0.000384	3.838145	1.300399	0.030652
 266	1.3250e-01	10.5559	69.179740	0.001141	11.413432	3.866976	0.091148
 267	1.3300e-01	10.6008	69.228138	0.000121	1.212046	0.410652	0.009679
 268	1.3350e-01	10.6441	69.655646	0.001071	10.706406	3.627428	0.085502
 269	1.3400e-01	10.6746	69.909731	0.000636	6.363241	2.155924	0.050817
 270	1.3450e-01	10.7211	70.014592	0.000263	2.626100	0.889747	0.020972
 271	1.3500e-01	10.7628	70.454199	0.001101	11.009417	3.730092	0.087922
 272	1.3550e-01	10.8029	70.567126	0.000283	2.828107	0.958189	0.022585
 273	1.3600e-01	10.8398	70.671987	0.000263	2.626100	0.889747	0.020972
 274	1.3650e-01	10.8703	71.103528	0.001081	10.807410	3.661649	0.086308
 275	1.3700e-01	10.9136	71.393911	0.000727	7.272276	2.463914	0.058077
 276	1.3750e-01	10.9569	71.543136	0.000374	3.737142	1.266178	0.029845
 277	1.3800e-01	10.9938	71.785122	0.000606	6.060230	2.053261	0.048397
 278	1.3850e-01	11.0467	72.059373	0.000687	6.868260	2.327030	0.054850
 279	1.3900e-01	11.0820	72.180366	0.000303	3.030115	1.026631	0.024199
 280	1.3950e-01	11.1205	72.414285	0.000586	5.858222	1.984819	0.046784
 281	1.4000e-01	11.1623	72.640139	0.000566	5.656214	1.916377	0.045171
 282	1.4050e-01	11.2072	72.817595	0.000444	4.444168	1.505725	0.035491
 283	1.4100e-01	11.2344	73.289468	0.001182	11.817448	4.003860	0.094375
 284	1.4150e-01	11.2745	73.362064	0.000182	1.818069	0.615978	0.014519
 285	1.4200e-01	11.3179	73.624215	0.000657	6.565249	2.224366	0.052430
 286	1.4250e-01	11.3644	73.918631	0.000737	7.373279	2.498135	0.058883
 287	1.4300e-01	11.4045	74.039624	0.000303	3.030115	1.026631	0.024199
 288	1.4350e-01	11.4462	74.277577	0.000596	5.959226	2.019040	0.047591
 289	1.4400e-01	11.4767	74.600225	0.000808	8.080306	2.737682	0.064530
 290	1.4450e-01	11.5232	74.866409	0.000667	6.666253	2.258588	0.053237
 291	1.4500e-01	11.5617	75.084197	0.000545	5.454207	1.847935	0.043557
 292	1.4550e-01	11.6018	75.269719	0.000465	4.646176	1.574167	0.037105
 293	1.4600e-01	11.6435	75.552036	0.000707	7.070268	2.395472	0.056463
 294	1.4650e-01	11.6804	75.959379	0.001020	10.201387	3.456323	0.081469
 295	1.4700e-01	11.7205	76.060207	0.000253	2.525096	0.855526	0.020165
 296	1.4750e-01	11.7622	76.282027	0.000556	5.555211	1.882156	0.044364
 297	1.4800e-01	11.8007	76.459483	0.000444	4.444168	1.505725	0.035491
 298	1.4850e-01	11.8473	76.729701	0.000677	6.767256	2.292809	0.054044
 299	1.4900e-01	11.8826	76.907157	0.000444	4.444168	1.505725	0.035491
 300	1.4950e-01	11.9275	77.153176	0.000616	6.161233	2.087482	0.049204
 301	1.5000e-01	11.9563	77.459692	0.000768	7.676291	2.600798	0.061303
 302	1.5050e-01	11.9981	77.701678	0.000606	6.060230	2.053261	0.048397
 303	1.5100e-01	12.0446	77.979961	0.000697	6.969264	2.361251	0.055657
 304	1.5150e-01	12.0799	78.209848	0.000576	5.757218	1.950598	0.045977
 305	1.5200e-01	12.1232	78.459900	0.000626	6.262237	2.121703	0.050010
 306	1.5250e-01	12.1601	78.568794	0.000273	2.727103	0.923968	0.021779
 307	1.5300e-01	12.2034	78.867243	0.000747	7.474283	2.532356	0.059690
 308	1.5350e-01	12.2467	79.080997	0.000535	5.353203	1.813714	0.042751
 309	1.5400e-01	12.2772	79.177792	0.000242	2.424092	0.821305	0.019359
 310	1.5450e-01	12.3205	79.564969	0.000970	9.696367	3.285218	0.077435
 311	1.5500e-01	12.3654	79.714194	0.000374	3.737142	1.266178	0.029845
 312	1.5550e-01	12.4055	79.940047	0.000566	5.656214	1.916377	0.045171
 313	1.5600e-01	12.4360	80.157835	0.000545	5.454207	1.847935	0.043557
 314	1.5650e-01	12.4793	80.419986	0.000657	6.565249	2.224366	0.052430
 315	1.5700e-01	12.5258	80.774899	0.000889	8.888337	3.011450	0.070983
 316	1.5750e-01	12.5627	80.855561	0.000202	2.020077	0.684420	0.016132
 317	1.5800e-01	12.5948	81.295169	0.001101	11.009417	3.730092	0.087922
 318	1.5850e-01	12.6381	81.480691	0.000465	4.646176	1.574167	0.037105
 319	1.5900e-01	12.6847	81.662180	0.000455	4.545172	1.539946	0.036298
 320	1.5950e-01	12.7216	81.879968	0.000545	5.454207	1.847935	0.043557
 321	1.6000e-01	12.7649	81.960630	0.000202	2.020077	0.684420	0.016132
 322	1.6050e-01	12.8018	82.343774	0.000960	9.595364	3.250997	0.076629
 323	1.6100e-01	12.8467	82.605926	0.000657	6.565249	2.224366	0.052430
 324	1.6150e-01	12.8836	82.948739	0.000859	8.585325	2.908787	0.068563
 325	1.6200e-01	12.9205	82.823713	-0.000313	-3.131119	-1.060852	-0.025005
 326	1.6250e-01	12.9494	83.093931	0.000677	6.767256	2.292809	0.054044
 327	1.6300e-01	12.9959	83.380281	0.000717	7.171272	2.429693	0.057270
 328	1.6350e-01	13.0376	83.678730	0.000747	7.474283	2.532356	0.059690
 329	1.6400e-01	13.0761	84.013477	0.000838	8.383318	2.840345	0.066949
 330	1.6450e-01	13.1178	84.146569	0.000333	3.333126	1.129294	0.026618
 331	1.6500e-01	13.1547	84.340158	0.000485	4.848184	1.642609	0.038718
 332	1.6550e-01	13.1948	84.594243	0.000636	6.363241	2.155924	0.050817
 333	1.6600e-01	13.2413	84.812031	0.000545	5.454207	1.847935	0.043557
 334	1.6650e-01	13.2782	84.965288	0.000384	3.838145	1.300399	0.030652
 335	1.6700e-01	13.3135	85.110480	0.000364	3.636138	1.231957	0.029038
 336	1.6750e-01	13.3552	85.501690	0.000980	9.797371	3.319439	0.078242
 337	1.6800e-01	13.4018	85.763842	0.000657	6.565249	2.224366	0.052430
 338	1.6850e-01	13.4451	85.856603	0.000232	2.323088	0.787084	0.018552
 339	1.6900e-01	13.4836	86.126821	0.000677	6.767256	2.292809	0.054044
 340	1.6950e-01	13.5221	86.267979	0.000354	3.535134	1.197736	0.028232
 341	1.7000e-01	13.5542	86.683388	0.001040	10.403394	3.524765	0.083082
 342	1.7050e-01	13.6023	86.772116	0.000222	2.222084	0.752863	0.017746
 343	1.7100e-01	13.6392	87.006036	0.000586	5.858222	1.984819	0.046784
 344	1.7150e-01	13.6793	87.014102	0.000020	0.202008	0.068442	0.001613
 345	1.7200e-01	13.7210	87.340783	0.000818	8.181310	2.771903	0.065336
 346	1.7250e-01	13.7515	87.647299	0.000768	7.676291	2.600798	0.061303
 347	1.7300e-01	13.7900	87.881219	0.000586	5.858222	1.984819	0.046784
 348	1.7350e-01	13.8429	88.127238	0.000616	6.161233	2.087482	0.049204
 349	1.7400e-01	13.8846	88.244197	0.000293	2.929111	0.992410	0.023392
 350	1.7450e-01	13.9183	88.482150	0.000596	5.959226	2.019040	0.047591
 351	1.7500e-01	13.9616	88.865295	0.000960	9.595364	3.250997	0.076629
 352	1.7550e-01	13.9985	89.111314	0.000616	6.161233	2.087482	0.049204
 353	1.7600e-01	14.0338	89.312969	0.000505	5.050191	1.711051	0.040331
 354	1.7650e-01	14.0868	89.425895	0.000283	2.828107	0.958189	0.022585
 355	1.7700e-01	14.1092	89.716278	0.000727	7.272276	2.463914	0.058077
 356	1.7750e-01	14.1686	89.784841	0.000172	1.717065	0.581757	0.013713
 357	1.7800e-01	14.1991	89.934066	0.000374	3.737142	1.266178	0.029845
 358	1.7850e-01	14.2376	90.280912	0.000869	8.686329	2.943008	0.069369
 359	1.7900e-01	14.2873	90.563229	0.000707	7.070268	2.395472	0.056463
 360	1.7950e-01	14.3130	90.889910	0.000818	8.181310	2.771903	0.065336
 361	1.8000e-01	14.3659	91.087532	0.000495	4.949188	1.676830	0.039524
 362	1.8050e-01	14.3996	91.216591	0.000323	3.232122	1.095073	0.025812
 363	1.8100e-01	14.4381	91.353716	0.000343	3.434130	1.163515	0.027425
 364	1.8150e-01	14.4798	91.676364	0.000808	8.080306	2.737682	0.064530
 365	1.8200e-01	14.5247	91.849788	0.000434	4.343165	1.471504	0.034685
 366	1.8250e-01	14.5600	92.180502	0.000828	8.282314	2.806124	0.066143
 367	1.8300e-01	14.5969	92.293428	0.000283	2.828107	0.958189	0.022585
 368	1.8350e-01	14.6386	92.491050	0.000495	4.949188	1.676830	0.039524
 369	1.8400e-01	14.6851	92.716904	0.000566	5.656214	1.916377	0.045171
 370	1.8450e-01	14.7188	92.773367	0.000141	1.414054	0.479094	0.011293
 371	1.8500e-01	14.7557	93.055684	0.000707	7.070268	2.395472	0.056463
 372	1.8550e-01	14.8007	93.329935	0.000687	6.868260	2.327030	0.054850
 373	1.8600e-01	14.8375	93.616285	0.000717	7.171272	2.429693	0.057270
 374	1.8650e-01	14.8761	93.938933	0.000808	8.080306	2.737682	0.064530
 375	1.8700e-01	14.9162	94.047826	0.000273	2.727103	0.923968	0.021779
 376	1.8750e-01	14.9563	94.289812	0.000606	6.060230	2.053261	0.048397
 377	1.8800e-01	14.9996	94.572129	0.000707	7.070268	2.395472	0.056463
 378	1.8850e-01	15.0461	94.769751	0.000495	4.949188	1.676830	0.039524
 379	1.8900e-01	15.0862	94.894777	0.000313	3.131119	1.060852	0.025005
 380	1.8950e-01	15.1247	95.144829	0.000626	6.262237	2.121703	0.050010
 381	1.9000e-01	15.1632	95.435212	0.000727	7.272276	2.463914	0.058077
 382	1.9050e-01	15.2017	95.527973	0.000232	2.323088	0.787084	0.018552
 383	1.9100e-01	15.2434	95.624768	0.000242	2.424092	0.821305	0.019359
 384	1.9150e-01	15.2755	95.890952	0.000667	6.666253	2.258588	0.053237
 385	1.9200e-01	15.3140	96.104707	0.000535	5.353203	1.813714	0.042751
 386	1.9250e-01	15.3509	96.354759	0.000626	6.262237	2.121703	0.050010
 387	1.9300e-01	15.3990	96.620943	0.000667	6.666253	2.258588	0.053237
 388	1.9350e-01	15.4327	96.681440	0.000152	1.515057	0.513315	0.012099
 389	1.9400e-01	15.4776	96.903260	0.000556	5.555211	1.882156	0.044364
 390	1.9450e-01	15.5210	97.197676	0.000737	7.373279	2.498135	0.058883
 391	1.9500e-01	15.5627	97.229941	0.000081	0.808031	0.273768	0.006453
 392	1.9550e-01	15.6012	97.475960	0.000616	6.161233	2.087482	0.049204
 393	1.9600e-01	15.6445	97.673582	0.000495	4.949188	1.676830	0.039524
 394	1.9650e-01	15.6766	97.980097	0.000768	7.676291	2.600798	0.061303
 395	1.9700e-01	15.7279	98.258381	0.000697	6.969264	2.361251	0.055657
 396	1.9750e-01	15.7664	98.492301	0.000586	5.858222	1.984819	0.046784
 397	1.9800e-01	15.7985	98.714121	0.000556	5.555211	1.882156	0.044364
 398	1.9850e-01	15.8354	98.855280	0.000354	3.535134	1.197736	0.028232
 399	1.9900e-01	15.8803	99.089200	0.000586	5.858222	1.984819	0.046784
 400	1.9950e-01	15.9268	99.258590	0.000424	4.242161	1.437283	0.033878
 401	2.0000e-01	15.9605	99.516708	0.000646	6.464245	2.190145	0.051624
 402	2.0050e-01	15.9990	99.657866	0.000354	3.535134	1.197736	0.028232
 403	2.0100e-01	16.0423	99.932117	0.000687	6.868260	2.327030	0.054850
 404	2.0150e-01	16.0808	100.049077	0.000293	2.929111	0.992410	0.023392
 405	2.0200e-01	16.1177	100.508850	0.001151	11.514436	3.901197	0.091955
 406	2.0250e-01	16.1562	100.593545	0.000212	2.121080	0.718641	0.016939
 407	2.0300e-01	16.1979	100.742770	0.000374	3.737142	1.266178	0.029845
 408	2.0350e-01	16.2380	100.968624	0.000566	5.656214	1.916377	0.045171
 409	2.0400e-01	16.2733	101.178345	0.000525	5.252199	1.779493	0.041944
 410	2.0450e-01	16.3231	101.250940	0.000182	1.818069	0.615978	0.014519
 411	2.0500e-01	16.3535	101.557456	0.000768	7.676291	2.600798	0.061303
 412	2.0550e-01	16.4081	101.799442	0.000606	6.060230	2.053261	0.048397
 413	2.0600e-01	16.4386	101.993031	0.000485	4.848184	1.642609	0.038718
 414	2.0650e-01	16.4819	102.263248	0.000677	6.767256	2.292809	0.054044
 415	2.0700e-01	16.5204	102.440704	0.000444	4.444168	1.505725	0.035491
 416	2.0750e-01	16.5605	102.585896	0.000364	3.636138	1.231957	0.029038
 417	2.0800e-01	16.6022	102.779485	0.000485	4.848184	1.642609	0.038718
 418	2.0850e-01	16.6439	102.965007	0.000465	4.646176	1.574167	0.037105
 419	2.0900e-01	16.6824	102.993239	0.000071	0.707027	0.239547	0.005646
 420	2.0950e-01	16.7257	103.323953	0.000828	8.282314	2.806124	0.066143
 421	2.1000e-01	16.7626	103.682899	0.000899	8.989341	3.045671	0.071789
 422	2.1050e-01	16.8043	103.844223	0.000404	4.040153	1.368841	0.032265
 423	2.1100e-01	16.8428	104.045878	0.000505	5.050191	1.711051	0.040331
 424	2.1150e-01	16.8781	104.207202	0.000404	4.040153	1.368841	0.032265
 425	2.1200e-01	16.9231	104.424989	0.000545	5.454207	1.847935	0.043557
 426	2.1250e-01	16.9616	104.541949	0.000293	2.929111	0.992410	0.023392
 427	2.1300e-01	16.9952	104.832332	0.000727	7.272276	2.463914	0.058077
 428	2.1350e-01	17.0386	105.142881	0.000778	7.777295	2.635019	0.062110
 429	2.1400e-01	17.0771	105.300171	0.000394	3.939149	1.334620	0.031458
 430	2.1450e-01	17.1124	105.417131	0.000293	2.929111	0.992410	0.023392
 431	2.1500e-01	17.1717	105.594588	0.000444	4.444168	1.505725	0.035491
 432	2.1550e-01	17.2006	105.820441	0.000566	5.656214	1.916377	0.045171
 433	2.1600e-01	17.2407	106.094692	0.000687	6.868260	2.327030	0.054850
 434	2.1650e-01	17.2744	106.320545	0.000566	5.656214	1.916377	0.045171
 435	2.1700e-01	17.3257	106.489935	0.000424	4.242161	1.437283	0.033878
 436	2.1750e-01	17.3610	106.602862	0.000283	2.828107	0.958189	0.022585
 437	2.1800e-01	17.4027	106.848881	0.000616	6.161233	2.087482	0.049204
 438	2.1850e-01	17.4428	107.018271	0.000424	4.242161	1.437283	0.033878
 439	2.1900e-01	17.4781	107.264290	0.000616	6.161233	2.087482	0.049204
 440	2.1950e-01	17.5214	107.558707	0.000737	7.373279	2.498135	0.058883
 441	2.2000e-01	17.5551	107.800693	0.000606	6.060230	2.053261	0.048397
 442	2.2050e-01	17.6049	107.857156	0.000141	1.414054	0.479094	0.011293
 443	2.2100e-01	17.6482	107.974116	0.000293	2.929111	0.992410	0.023392
 444	2.2150e-01	17.6835	108.208035	0.000586	5.858222	1.984819	0.046784
 445	2.2200e-01	17.7252	108.381459	0.000434	4.343165	1.471504	0.034685
 446	2.2250e-01	17.7540	108.603279	0.000556	5.555211	1.882156	0.044364
 447	2.2300e-01	17.8006	108.929960	0.000818	8.181310	2.771903	0.065336
 448	2.2350e-01	17.8391	109.155814	0.000566	5.656214	1.916377	0.045171
 449	2.2400e-01	17.8808	109.325204	0.000424	4.242161	1.437283	0.033878
 450	2.2450e-01	17.9145	109.450230	0.000313	3.131119	1.060852	0.025005
 451	2.2500e-01	17.9610	109.635752	0.000465	4.646176	1.574167	0.037105
 452	2.2550e-01	18.0011	109.793043	0.000394	3.939149	1.334620	0.031458
 453	2.2600e-01	18.0396	109.998731	0.000515	5.151195	1.745272	0.041138
 454	2.2650e-01	18.0701	110.260883	0.000657	6.565249	2.224366	0.052430
 455	2.2700e-01	18.1214	110.365743	0.000263	2.626100	0.889747	0.020972
 456	2.2750e-01	18.1599	110.547233	0.000455	4.545172	1.539946	0.036298
 457	2.2800e-01	18.2064	110.769053	0.000556	5.555211	1.882156	0.044364
 458	2.2850e-01	18.2353	111.043304	0.000687	6.868260	2.327030	0.054850
 459	2.2900e-01	18.2883	111.361919	0.000798	7.979302	2.703461	0.063723
 460	2.2950e-01	18.3171	111.571640	0.000525	5.252199	1.779493	0.041944
 461	2.3000e-01	18.3620	111.624070	0.000131	1.313050	0.444873	0.010486
 462	2.3050e-01	18.4102	111.732964	0.000273	2.727103	0.923968	0.021779
 463	2.3100e-01	18.4342	111.974950	0.000606	6.060230	2.053261	0.048397
 464	2.3150e-01	18.4904	112.273399	0.000747	7.474283	2.532356	0.059690
 465	2.3200e-01	18.5225	112.462955	0.000475	4.747180	1.608388	0.037911
 466	2.3250e-01	18.5562	112.624278	0.000404	4.040153	1.368841	0.032265
 467	2.3300e-01	18.6011	112.882397	0.000646	6.464245	2.190145	0.051624
 468	2.3350e-01	18.6380	113.011456	0.000323	3.232122	1.095073	0.025812
 469	2.3400e-01	18.6797	113.285707	0.000687	6.868260	2.327030	0.054850
 470	2.3450e-01	18.7310	113.426865	0.000354	3.535134	1.197736	0.028232
 471	2.3500e-01	18.7647	113.555924	0.000323	3.232122	1.095073	0.025812
 472	2.3550e-01	18.8032	113.632553	0.000192	1.919073	0.650199	0.015326
 473	2.3600e-01	18.8369	113.967300	0.000838	8.383318	2.840345	0.066949
 474	2.3650e-01	18.8882	114.253650	0.000717	7.171272	2.429693	0.057270
 475	2.3700e-01	18.9171	114.338345	0.000212	2.121080	0.718641	0.016939
 476	2.3750e-01	18.9604	114.673093	0.000838	8.383318	2.840345	0.066949
 477	2.3800e-01	19.0053	114.806185	0.000333	3.333126	1.129294	0.026618
 478	2.3850e-01	19.0471	114.979608	0.000434	4.343165	1.471504	0.034685
 479	2.3900e-01	19.0840	115.165131	0.000465	4.646176	1.574167	0.037105
 480	2.3950e-01	19.1209	115.249826	0.000212	2.121080	0.718641	0.016939
 481	2.4000e-01	19.1642	115.471646	0.000556	5.555211	1.882156	0.044364
 482	2.4050e-01	19.2011	115.753963	0.000707	7.070268	2.395472	0.056463
 483	2.4100e-01	19.2364	116.084677	0.000828	8.282314	2.806124	0.066143
 484	2.4150e-01	19.2861	116.125008	0.000101	1.010038	0.342210	0.008066
 485	2.4200e-01	19.3230	116.306497	0.000455	4.545172	1.539946	0.036298
 486	2.4250e-01	19.3583	116.625112	0.000798	7.979302	2.703461	0.063723
 487	2.4300e-01	19.4048	116.750138	0.000313	3.131119	1.060852	0.025005
 488	2.4350e-01	19.4353	116.842900	0.000232	2.323088	0.787084	0.018552
 489	2.4400e-01	19.4770	117.004224	0.000404	4.040153	1.368841	0.032265
 490	2.4450e-01	19.5171	117.060687	0.000141	1.414054	0.479094	0.011293
 491	2.4500e-01	19.5572	117.484162	0.001061	10.605402	3.593207	0.084695
 492	2.4550e-01	19.5989	117.669685	0.000465	4.646176	1.574167	0.037105
 493	2.4600e-01	19.6470	117.855207	0.000465	4.646176	1.574167	0.037105
 494	2.4650e-01	19.6823	118.032664	0.000444	4.444168	1.505725	0.035491
 495	2.4700e-01	19.7176	118.234319	0.000505	5.050191	1.711051	0.040331
 496	2.4750e-01	19.7577	118.484371	0.000626	6.262237	2.121703	0.050010
 497	2.4800e-01	19.8091	118.657794	0.000434	4.343165	1.471504	0.034685
 498	2.4850e-01	19.8379	118.843317	0.000465	4.646176	1.574167	0.037105
 499	2.4900e-01	19.8780	119.004640	0.000404	4.040153	1.368841	0.032265
 500	2.4950e-01	19.9214	119.303090	0.000747	7.474283	2.532356	0.059690
 501	2.5000e-01	19.9631	119.420050	0.000293	2.929111	0.992410	0.023392
 502	2.5050e-01	19.9647	119.472480	0.000131	1.313050	0.444873	0.010486
 503	2.5100e-01	19.9470	119.303090	0.000424	4.242161	1.437283	-0.033878
 504	2.5150e-01	19.9069	119.133700	0.000424	4.242161	1.437283	-0.033878
 505	2.5200e-01	19.8620	119.040938	0.000232	2.323088	0.787084	-0.018552
 506	2.5250e-01	19.8187	118.964309	0.000192	1.919073	0.650199	-0.015326
 507	2.5300e-01	19.7818	118.597297	0.000919	9.191348	3.114113	-0.073402
 508	2.5350e-01	19.7417	118.363378	0.000586	5.858222	1.984819	-0.046784
 509	2.5400e-01	19.7064	118.306914	0.000141	1.414054	0.479094	-0.011293
 510	2.5450e-01	19.6615	118.282716	0.000061	0.606023	0.205326	-0.004840
 511	2.5500e-01	19.6198	118.089127	0.000485	4.848184	1.642609	-0.038718
 512	2.5550e-01	19.5861	117.911671	0.000444	4.444168	1.505725	-0.035491
 513	2.5600e-01	19.5412	117.685817	0.000566	5.656214	1.916377	-0.045171
 514	2.5650e-01	19.5043	117.463997	0.000556	5.555211	1.882156	-0.044364
 515	2.5700e-01	19.4722	117.367202	0.000242	2.424092	0.821305	-0.019359
 516	2.5750e-01	19.4289	117.238143	0.000323	3.232122	1.095073	-0.025812
 517	2.5800e-01	19.3839	116.939694	0.000747	7.474283	2.532356	-0.059690
 518	2.5850e-01	19.3454	116.923562	0.000040	0.404015	0.136884	-0.003226
 519	2.5900e-01	19.3021	116.729973	0.000485	4.848184	1.642609	-0.038718
 520	2.5950e-01	19.2652	116.669476	0.000152	1.515057	0.513315	-0.012099
 521	2.6000e-01	19.2331	116.278266	0.000980	9.797371	3.319439	-0.078242
 522	2.6050e-01	19.1802	116.282299	-0.000010	-0.101004	-0.034221	0.000807
 523	2.6100e-01	19.1449	116.302464	-0.000051	-0.505019	-0.171105	0.004033
 524	2.6150e-01	19.1128	116.149207	0.000384	3.838145	1.300399	-0.030652
 525	2.6200e-01	19.0759	115.947552	0.000505	5.050191	1.711051	-0.040331
 526	2.6250e-01	19.0262	115.770095	0.000444	4.444168	1.505725	-0.035491
 527	2.6300e-01	18.9797	115.459547	0.000778	7.777295	2.635019	-0.062110
 528	2.6350e-01	18.9380	115.528109	-0.000172	-1.717065	-0.581757	0.013713
 529	2.6400e-01	18.9059	115.278057	0.000626	6.262237	2.121703	-0.050010
 530	2.6450e-01	18.8690	115.032038	0.000616	6.161233	2.087482	-0.049204
 531	2.6500e-01	18.8257	114.806185	0.000566	5.656214	1.916377	-0.045171
 532	2.6550e-01	18.7856	114.592431	0.000535	5.353203	1.813714	-0.042751
 533	2.6600e-01	18.7423	114.414974	0.000444	4.444168	1.505725	-0.035491
 534	2.6650e-01	18.7070	114.366577	0.000121	1.212046	0.410652	-0.009679
 535	2.6700e-01	18.6636	114.249617	0.000293	2.929111	0.992410	-0.023392
 536	2.6750e-01	18.6219	113.959234	0.000727	7.272276	2.463914	-0.058077
 537	2.6800e-01	18.5770	113.846307	0.000283	2.828107	0.958189	-0.022585
 538	2.6850e-01	18.5465	113.612388	0.000586	5.858222	1.984819	-0.046784
 539	2.6900e-01	18.5064	113.277640	0.000838	8.383318	2.840345	-0.066949
 540	2.6950e-01	18.4631	113.277640	-0.000000	-0.000000	-0.000000	0.000000
 541	2.7000e-01	18.4214	113.152614	0.000313	3.131119	1.060852	-0.025005
 542	2.7050e-01	18.3845	113.003390	0.000374	3.737142	1.266178	-0.029845
 543	2.7100e-01	18.3364	112.870297	0.000333	3.333126	1.129294	-0.026618
 544	2.7150e-01	18.3043	112.571848	0.000747	7.474283	2.532356	-0.059690
 545	2.7200e-01	18.2594	112.458921	0.000283	2.828107	0.958189	-0.022585
 546	2.7250e-01	18.2305	112.430690	0.000071	0.707027	0.239547	-0.005646
 547	2.7300e-01	18.1792	112.136274	0.000737	7.373279	2.498135	-0.058883
 548	2.7350e-01	18.1471	111.946718	0.000475	4.747180	1.608388	-0.037911
 549	2.7400e-01	18.1054	111.672467	0.000687	6.868260	2.327030	-0.054850
 550	2.7450e-01	18.0605	111.591805	0.000202	2.020077	0.684420	-0.016132
 551	2.7500e-01	18.0268	111.466779	0.000313	3.131119	1.060852	-0.025005
 552	2.7550e-01	17.9851	111.269157	0.000495	4.949188	1.676830	-0.039524
 553	2.7600e-01	17.9385	111.019105	0.000626	6.262237	2.121703	-0.050010
 554	2.7650e-01	17.9081	111.027171	-0.000020	-0.202008	-0.068442	0.001613
 555	2.7700e-01	17.8647	110.748888	0.000697	6.969264	2.361251	-0.055657
 556	2.7750e-01	17.8198	110.478670	0.000677	6.767256	2.292809	-0.054044
 557	2.7800e-01	17.7829	110.365743	0.000283	2.828107	0.958189	-0.022585
 558	2.7850e-01	17.7444	110.168121	0.000495	4.949188	1.676830	-0.039524
 559	2.7900e-01	17.7011	110.139890	0.000071	0.707027	0.239547	-0.005646
 560	2.7950e-01	17.6738	109.914036	0.000566	5.656214	1.916377	-0.045171
 561	2.8000e-01	17.6145	109.591388	0.000808	8.080306	2.737682	-0.064530
 562	2.8050e-01	17.5872	109.502660	0.000222	2.222084	0.752863	-0.017746
 563	2.8100e-01	17.5439	109.373601	0.000323	3.232122	1.095073	-0.025812
 564	2.8150e-01	17.5086	109.208244	0.000414	4.141157	1.403062	-0.033071
 565	2.8200e-01	17.4717	109.022721	0.000465	4.646176	1.574167	-0.037105
 566	2.8250e-01	17.4284	108.683941	0.000848	8.484321	2.874566	-0.067756
 567	2.8300e-01	17.3867	108.530683	0.000384	3.838145	1.300399	-0.030652
 568	2.8350e-01	17.3353	108.373393	0.000394	3.939149	1.334620	-0.031458
 569	2.8400e-01	17.2984	108.308863	0.000162	1.616061	0.547536	-0.012906
 570	2.8450e-01	17.2615	108.159638	0.000374	3.737142	1.266178	-0.029845
 571	2.8500e-01	17.2230	107.820858	0.000848	8.484321	2.874566	-0.067756
 572	2.8550e-01	17.1845	107.792626	0.000071	0.707027	0.239547	-0.005646
 573	2.8600e-01	17.1476	107.478045	0.000788	7.878299	2.669240	-0.062916
 574	2.8650e-01	17.1091	107.223959	0.000636	6.363241	2.155924	-0.050817
 575	2.8700e-01	17.0690	107.131198	0.000232	2.323088	0.787084	-0.018552
 576	2.8750e-01	17.0241	106.881146	0.000626	6.262237	2.121703	-0.050010
 577	2.8800e-01	16.9808	106.917444	-0.000091	-0.909034	-0.307989	0.007260
 578	2.8850e-01	16.9455	106.760153	0.000394	3.939149	1.334620	-0.031458
 579	2.8900e-01	16.9086	106.493969	0.000667	6.666253	2.258588	-0.053237
 580	2.8950e-01	16.8621	106.187453	0.000768	7.676291	2.600798	-0.061303
 581	2.9000e-01	16.8300	106.014030	0.000434	4.343165	1.471504	-0.034685
 582	2.9050e-01	16.7835	105.945467	0.000172	1.717065	0.581757	-0.013713
 583	2.9100e-01	16.7418	105.852706	0.000232	2.323088	0.787084	-0.018552
 584	2.9150e-01	16.6969	105.651051	0.000505	5.050191	1.711051	-0.040331
 585	2.9200e-01	16.6535	105.481661	0.000424	4.242161	1.437283	-0.033878
 586	2.9250e-01	16.6311	105.259840	0.000556	5.555211	1.882156	-0.044364
 587	2.9300e-01	16.5781	104.872663	0.000970	9.696367	3.285218	-0.077435
 588	2.9350e-01	16.5428	104.808133	0.000162	1.616061	0.547536	-0.012906
 589	2.9400e-01	16.4963	104.727471	0.000202	2.020077	0.684420	-0.016132
 590	2.9450e-01	16.4707	104.348360	0.000949	9.494360	3.216776	-0.075822
 591	2.9500e-01	16.4273	104.263665	0.000212	2.121080	0.718641	-0.016939
 592	2.9550e-01	16.3824	103.977315	0.000717	7.171272	2.429693	-0.057270
 593	2.9600e-01	16.3439	103.888587	0.000222	2.222084	0.752863	-0.017746
 594	2.9650e-01	16.3006	103.634502	0.000636	6.363241	2.155924	-0.050817
 595	2.9700e-01	16.2653	103.590138	0.000111	1.111042	0.376431	-0.008873
 596	2.9750e-01	16.2204	103.315887	0.000687	6.868260	2.327030	-0.054850
 597	2.9800e-01	16.1771	103.327986	-0.000030	-0.303011	-0.102663	0.002420
 598	2.9850e-01	16.1386	102.936776	0.000980	9.797371	3.319439	-0.078242
 599	2.9900e-01	16.1033	102.904511	0.000081	0.808031	0.273768	-0.006453
 600	2.9950e-01	16.0616	102.727054	0.000444	4.444168	1.505725	-0.035491
 601	3.0000e-01	16.0279	102.420539	0.000768	7.676291	2.600798	-0.061303
 602	3.0050e-01	15.9894	102.182586	0.000596	5.959226	2.019040	-0.047591
 603	3.0100e-01	15.9397	102.053527	0.000323	3.232122	1.095073	-0.025812
 604	3.0150e-01	15.9060	101.815574	0.000596	5.959226	2.019040	-0.047591
 605	3.0200e-01	15.8659	101.597787	0.000545	5.454207	1.847935	-0.043557
 606	3.0250e-01	15.8161	101.488893	0.000273	2.727103	0.923968	-0.021779
 607	3.0300e-01	15.7889	101.355801	0.000333	3.333126	1.129294	-0.026618
 608	3.0350e-01	15.7439	101.069451	0.000717	7.171272	2.429693	-0.057270
 609	3.0400e-01	15.7006	100.976690	0.000232	2.323088	0.787084	-0.018552
 610	3.0450e-01	15.6637	100.754869	0.000556	5.555211	1.882156	-0.044364
 611	3.0500e-01	15.6156	100.512883	0.000606	6.060230	2.053261	-0.048397
 612	3.0550e-01	15.5851	100.375758	0.000343	3.434130	1.163515	-0.027425
 613	3.0600e-01	15.5402	100.230566	0.000364	3.636138	1.231957	-0.029038
 614	3.0650e-01	15.5145	99.871621	0.000899	8.989341	3.045671	-0.071789
 615	3.0700e-01	15.4648	99.746595	0.000313	3.131119	1.060852	-0.025005
 616	3.0750e-01	15.4247	99.573171	0.000434	4.343165	1.471504	-0.034685
 617	3.0800e-01	15.3798	99.286821	0.000717	7.171272	2.429693	-0.057270
 618	3.0850e-01	15.3381	99.032736	0.000636	6.363241	2.155924	-0.050817
 619	3.0900e-01	15.3028	99.109365	-0.000192	-1.919073	-0.650199	0.015326
 620	3.0950e-01	15.2627	98.944008	0.000414	4.141157	1.403062	-0.033071
 621	3.1000e-01	15.2290	98.730254	0.000535	5.353203	1.813714	-0.042751
 622	3.1050e-01	15.1841	98.403573	0.000818	8.181310	2.771903	-0.065336
 623	3.1100e-01	15.1472	98.302745	0.000253	2.525096	0.855526	-0.020165
 624	3.1150e-01	15.1006	98.076892	0.000566	5.656214	1.916377	-0.045171
 625	3.1200e-01	15.0637	97.907502	0.000424	4.242161	1.437283	-0.033878
 626	3.1250e-01	15.0285	97.600986	0.000768	7.676291	2.600798	-0.061303
 627	3.1300e-01	14.9755	97.387232	0.000535	5.353203	1.813714	-0.042751
 628	3.1350e-01	14.9514	97.193643	0.000485	4.848184	1.642609	-0.038718
 629	3.1400e-01	14.9065	97.104915	0.000222	2.222084	0.752863	-0.017746
 630	3.1450e-01	14.8728	96.866962	0.000596	5.959226	2.019040	-0.047591
 631	3.1500e-01	14.8183	96.681440	0.000465	4.646176	1.574167	-0.037105
 632	3.1550e-01	14.7734	96.665307	0.000040	0.404015	0.136884	-0.003226
 633	3.1600e-01	14.7381	96.463652	0.000505	5.050191	1.711051	-0.040331
 634	3.1650e-01	14.7060	96.237799	0.000566	5.656214	1.916377	-0.045171
 635	3.1700e-01	14.6659	95.951449	0.000717	7.171272	2.429693	-0.057270
 636	3.1750e-01	14.6226	95.741728	0.000525	5.252199	1.779493	-0.041944
 637	3.1800e-01	14.5873	95.628801	0.000283	2.828107	0.958189	-0.022585
 638	3.1850e-01	14.5392	95.427146	0.000505	5.050191	1.711051	-0.040331
 639	3.1900e-01	14.5071	95.217425	0.000525	5.252199	1.779493	-0.041944
 640	3.1950e-01	14.4557	94.951240	0.000667	6.666253	2.258588	-0.053237
 641	3.2000e-01	14.4253	94.709254	0.000606	6.060230	2.053261	-0.048397
 642	3.2050e-01	14.3819	94.564063	0.000364	3.636138	1.231957	-0.029038
 643	3.2100e-01	14.3370	94.459202	0.000263	2.626100	0.889747	-0.020972
 644	3.2150e-01	14.3033	94.128488	0.000828	8.282314	2.806124	-0.066143
 645	3.2200e-01	14.2600	93.886502	0.000606	6.060230	2.053261	-0.048397
 646	3.2250e-01	14.2199	93.821973	0.000162	1.616061	0.547536	-0.012906
 647	3.2300e-01	14.1846	93.608219	0.000535	5.353203	1.813714	-0.042751
 648	3.2350e-01	14.1429	93.358166	0.000626	6.262237	2.121703	-0.050010
 649	3.2400e-01	14.1044	93.192809	0.000414	4.141157	1.403062	-0.033071
 650	3.2450e-01	14.0675	92.987121	0.000515	5.151195	1.745272	-0.041138
 651	3.2500e-01	14.0210	92.837897	0.000374	3.737142	1.266178	-0.029845
 652	3.2550e-01	13.9825	92.559613	0.000697	6.969264	2.361251	-0.055657
 653	3.2600e-01	13.9408	92.442653	0.000293	2.929111	0.992410	-0.023392
 654	3.2650e-01	13.8991	92.269230	0.000434	4.343165	1.471504	-0.034685
 655	3.2700e-01	13.8590	92.095807	0.000434	4.343165	1.471504	-0.034685
 656	3.2750e-01	13.8253	91.761059	0.000838	8.383318	2.840345	-0.066949
 657	3.2800e-01	13.7820	91.579570	0.000455	4.545172	1.539946	-0.036298
 658	3.2850e-01	13.7499	91.321452	0.000646	6.464245	2.190145	-0.051624
 659	3.2900e-01	13.6985	91.160128	0.000404	4.040153	1.368841	-0.032265
 660	3.2950e-01	13.6649	90.918142	0.000606	6.060230	2.053261	-0.048397
 661	3.3000e-01	13.6215	90.793116	0.000313	3.131119	1.060852	-0.025005
 662	3.3050e-01	13.5830	90.442236	0.000879	8.787333	2.977229	-0.070176
 663	3.3100e-01	13.5429	90.337376	0.000263	2.626100	0.889747	-0.020972
 664	3.3150e-01	13.4900	90.284945	0.000131	1.313050	0.444873	-0.010486
 665	3.3200e-01	13.4611	90.059092	0.000566	5.656214	1.916377	-0.045171
 666	3.3250e-01	13.4322	89.821139	0.000596	5.959226	2.019040	-0.047591
 667	3.3300e-01	13.3905	89.579153	0.000606	6.060230	2.053261	-0.048397
 668	3.3350e-01	13.3328	89.256505	0.000808	8.080306	2.737682	-0.064530
 669	3.3400e-01	13.3039	89.099214	0.000394	3.939149	1.334620	-0.031458
 670	3.3450e-01	13.2558	88.994354	0.000263	2.626100	0.889747	-0.020972
 671	3.3500e-01	13.2253	88.828997	0.000414	4.141157	1.403062	-0.033071
 672	3.3550e-01	13.1804	88.546680	0.000707	7.070268	2.395472	-0.056463
 673	3.3600e-01	13.1435	88.336959	0.000525	5.252199	1.779493	-0.041944
 674	3.3650e-01	13.1050	88.288562	0.000121	1.212046	0.410652	-0.009679
 675	3.3700e-01	13.0601	87.994145	0.000737	7.373279	2.498135	-0.058883
 676	3.3750e-01	13.0248	87.695696	0.000747	7.474283	2.532356	-0.059690
 677	3.3800e-01	12.9831	87.449677	0.000616	6.161233	2.087482	-0.049204
 678	3.3850e-01	12.9365	87.320618	0.000323	3.232122	1.095073	-0.025812
 679	3.3900e-01	12.8948	87.006036	0.000788	7.878299	2.669240	-0.062916
 680	3.3950e-01	12.8627	86.885043	0.000303	3.030115	1.026631	-0.024199
 681	3.4000e-01	12.8274	86.679355	0.000515	5.151195	1.745272	-0.041138
 682	3.4050e-01	12.7938	86.526097	0.000384	3.838145	1.300399	-0.030652
 683	3.4100e-01	12.7488	86.368807	0.000394	3.939149	1.334620	-0.031458
 684	3.4150e-01	12.7055	86.171185	0.000495	4.949188	1.676830	-0.039524
 685	3.4200e-01	12.6622	86.021960	0.000374	3.737142	1.266178	-0.029845
 686	3.4250e-01	12.6333	85.695279	0.000818	8.181310	2.771903	-0.065336
 687	3.4300e-01	12.5836	85.421028	0.000687	6.868260	2.327030	-0.054850
 688	3.4350e-01	12.5419	85.211307	0.000525	5.252199	1.779493	-0.041944
 689	3.4400e-01	12.5098	84.993520	0.000545	5.454207	1.847935	-0.043557
 690	3.4450e-01	12.4585	84.795898	0.000495	4.949188	1.676830	-0.039524
 691	3.4500e-01	12.4184	84.691038	0.000263	2.626100	0.889747	-0.020972
 692	3.4550e-01	12.3847	84.473250	0.000545	5.454207	1.847935	-0.043557
 693	3.4600e-01	12.3398	84.154635	0.000798	7.979302	2.703461	-0.063723
 694	3.4650e-01	12.3157	84.061874	0.000232	2.323088	0.787084	-0.018552
 695	3.4700e-01	12.2692	83.767458	0.000737	7.373279	2.498135	-0.058883
 696	3.4750e-01	12.2226	83.428678	0.000848	8.484321	2.874566	-0.067756
 697	3.4800e-01	12.1858	83.339950	0.000222	2.222084	0.752863	-0.017746
 698	3.4850e-01	12.1424	83.097964	0.000606	6.060230	2.053261	-0.048397
 699	3.4900e-01	12.1087	82.843878	0.000636	6.363241	2.155924	-0.050817
 700	3.4950e-01	12.0702	82.702720	0.000354	3.535134	1.197736	-0.028232
 701	3.5000e-01	12.0253	82.565595	0.000343	3.434130	1.163515	-0.027425
 702	3.5050e-01	11.9788	82.428469	0.000343	3.434130	1.163515	-0.027425
 703	3.5100e-01	11.9467	82.021126	0.001020	10.201387	3.456323	-0.081469
 704	3.5150e-01	11.9050	81.827538	0.000485	4.848184	1.642609	-0.038718
 705	3.5200e-01	11.8665	81.722677	0.000263	2.626100	0.889747	-0.020972
 706	3.5250e-01	11.8248	81.331466	0.000980	9.797371	3.319439	-0.078242
 707	3.5300e-01	11.7847	81.238705	0.000232	2.323088	0.787084	-0.018552
 708	3.5350e-01	11.7446	80.988653	0.000626	6.262237	2.121703	-0.050010
 709	3.5400e-01	11.7061	80.742634	0.000616	6.161233	2.087482	-0.049204
 710	3.5450e-01	11.6564	80.528880	0.000535	5.353203	1.813714	-0.042751
 711	3.5500e-01	11.6195	80.411920	0.000293	2.929111	0.992410	-0.023392
 712	3.5550e-01	11.5858	80.270761	0.000354	3.535134	1.197736	-0.028232
 713	3.5600e-01	11.5457	80.073140	0.000495	4.949188	1.676830	-0.039524
 714	3.5650e-01	11.5007	79.746459	0.000818	8.181310	2.771903	-0.065336
 715	3.5700e-01	11.4735	79.512539	0.000586	5.858222	1.984819	-0.046784
 716	3.5750e-01	11.4237	79.278619	0.000586	5.858222	1.984819	-0.046784
 717	3.5800e-01	11.3884	79.064865	0.000535	5.353203	1.813714	-0.042751
 718	3.5850e-01	11.3467	78.806747	0.000646	6.464245	2.190145	-0.051624
 719	3.5900e-01	11.3018	78.484099	0.000808	8.080306	2.737682	-0.064530
 720	3.5950e-01	11.2553	78.459900	0.000061	0.606023	0.205326	-0.004840
 721	3.6000e-01	11.2216	78.169517	0.000727	7.272276	2.463914	-0.058077
 722	3.6050e-01	11.1815	78.028359	0.000354	3.535134	1.197736	-0.028232
 723	3.6100e-01	11.1398	77.899300	0.000323	3.232122	1.095073	-0.025812
 724	3.6150e-01	11.1029	77.516155	0.000960	9.595364	3.250997	-0.076629
 725	3.6200e-01	11.0612	77.399195	0.000293	2.929111	0.992410	-0.023392
 726	3.6250e-01	11.0195	77.177375	0.000556	5.555211	1.882156	-0.044364
 727	3.6300e-01	10.9778	76.955554	0.000556	5.555211	1.882156	-0.044364
 728	3.6350e-01	10.9409	76.681304	0.000687	6.868260	2.327030	-0.054850
 729	3.6400e-01	10.9056	76.487715	0.000485	4.848184	1.642609	-0.038718
 730	3.6450e-01	10.8607	76.427219	0.000152	1.515057	0.513315	-0.012099
 731	3.6500e-01	10.8270	75.915015	0.001283	12.827486	4.346070	-0.102441
 732	3.6550e-01	10.7772	75.725459	0.000475	4.747180	1.608388	-0.037911
 733	3.6600e-01	10.7435	75.523804	0.000505	5.050191	1.711051	-0.040331
 734	3.6650e-01	10.7083	75.144693	0.000949	9.494360	3.216776	-0.075822
 735	3.6700e-01	10.6585	75.092263	0.000131	1.313050	0.444873	-0.010486
 736	3.6750e-01	10.6168	74.910773	0.000455	4.545172	1.539946	-0.036298
 737	3.6800e-01	10.5815	74.620390	0.000727	7.272276	2.463914	-0.058077
 738	3.6850e-01	10.5478	74.418735	0.000505	5.050191	1.711051	-0.040331
 739	3.6900e-01	10.5077	74.261445	0.000394	3.939149	1.334620	-0.031458
 740	3.6950e-01	10.4644	74.100121	0.000404	4.040153	1.368841	-0.032265
 741	3.7000e-01	10.4163	73.874267	0.000566	5.656214	1.916377	-0.045171
 742	3.7050e-01	10.3874	73.491123	0.000960	9.595364	3.250997	-0.076629
 743	3.7100e-01	10.3377	73.176541	0.000788	7.878299	2.669240	-0.062916
 744	3.7150e-01	10.3120	72.982952	0.000485	4.848184	1.642609	-0.038718
 745	3.7200e-01	10.2591	72.874059	0.000273	2.727103	0.923968	-0.021779
 746	3.7250e-01	10.2302	72.797430	0.000192	1.919073	0.650199	-0.015326
 747	3.7300e-01	10.1756	72.474782	0.000808	8.080306	2.737682	-0.064530
 748	3.7350e-01	10.1452	72.357822	0.000293	2.929111	0.992410	-0.023392
 749	3.7400e-01	10.1035	72.035174	0.000808	8.080306	2.737682	-0.064530
 750	3.7450e-01	10.0666	71.724626	0.000778	7.777295	2.635019	-0.062110
 751	3.7500e-01	10.0313	71.506838	0.000545	5.454207	1.847935	-0.043557
 752	3.7550e-01	9.9847	71.099495	0.001020	10.201387	3.456323	-0.081469
 753	3.7600e-01	9.9462	70.934138	0.000414	4.141157	1.403062	-0.033071
 754	3.7650e-01	9.9093	70.788947	0.000364	3.636138	1.231957	-0.029038
 755	3.7700e-01	9.8660	70.534861	0.000636	6.363241	2.155924	-0.050817
 756	3.7750e-01	9.8227	70.284809	0.000626	6.262237	2.121703	-0.050010
 757	3.7800e-01	9.7906	70.054923	0.000576	5.757218	1.950598	-0.045977
 758	3.7850e-01	9.7441	69.877466	0.000444	4.444168	1.505725	-0.035491
 759	3.7900e-01	9.7072	69.506421	0.000929	9.292352	3.148334	-0.074209
 760	3.7950e-01	9.6591	69.466090	0.000101	1.010038	0.342210	-0.008066
 761	3.8000e-01	9.6190	69.236204	0.000576	5.757218	1.950598	-0.045977
 762	3.8050e-01	9.5853	69.046648	0.000475	4.747180	1.608388	-0.037911
 763	3.8100e-01	9.5404	68.752232	0.000737	7.373279	2.498135	-0.058883
 764	3.8150e-01	9.5019	68.389253	0.000909	9.090344	3.079892	-0.072596
 765	3.8200e-01	9.4553	68.199697	0.000475	4.747180	1.608388	-0.037911
 766	3.8250e-01	9.4329	67.949645	0.000626	6.262237	2.121703	-0.050010
 767	3.8300e-01	9.3864	67.679428	0.000677	6.767256	2.292809	-0.054044
 768	3.8350e-01	9.3382	67.477773	0.000505	5.050191	1.711051	-0.040331
 769	3.8400e-01	9.3078	67.324515	0.000384	3.838145	1.300399	-0.030652
 770	3.8450e-01	9.2725	67.171257	0.000384	3.838145	1.300399	-0.030652
 771	3.8500e-01	9.2227	66.897007	0.000687	6.868260	2.327030	-0.054850
 772	3.8550e-01	9.1842	66.747782	0.000374	3.737142	1.266178	-0.029845
 773	3.8600e-01	9.1489	66.521928	0.000566	5.656214	1.916377	-0.045171
 774	3.8650e-01	9.1056	66.191214	0.000828	8.282314	2.806124	-0.066143
 775	3.8700e-01	9.0575	65.981493	0.000525	5.252199	1.779493	-0.041944
 776	3.8750e-01	9.0222	65.747573	0.000586	5.858222	1.984819	-0.046784
 777	3.8800e-01	8.9789	65.445091	0.000758	7.575287	2.566577	-0.060496
 778	3.8850e-01	8.9388	65.340230	0.000263	2.626100	0.889747	-0.020972
 779	3.8900e-01	8.9035	65.041781	0.000747	7.474283	2.532356	-0.059690
 780	3.8950e-01	8.8586	64.880457	0.000404	4.040153	1.368841	-0.032265
 781	3.9000e-01	8.8185	64.602173	0.000697	6.969264	2.361251	-0.055657
 782	3.9050e-01	8.7832	64.360187	0.000606	6.060230	2.053261	-0.048397
 783	3.9100e-01	8.7447	64.094003	0.000667	6.666253	2.258588	-0.053237
 784	3.9150e-01	8.7030	63.904447	0.000475	4.747180	1.608388	-0.037911
 785	3.9200e-01	8.6661	63.710859	0.000485	4.848184	1.642609	-0.038718
 786	3.9250e-01	8.6260	63.343847	0.000919	9.191348	3.114113	-0.073402
 787	3.9300e-01	8.5955	63.041364	0.000758	7.575287	2.566577	-0.060496
 788	3.9350e-01	8.5490	62.775180	0.000667	6.666253	2.258588	-0.053237
 789	3.9400e-01	8.5040	62.517061	0.000646	6.464245	2.190145	-0.051624
 790	3.9450e-01	8.4671	62.392035	0.000313	3.131119	1.060852	-0.025005
 791	3.9500e-01	8.4206	62.190380	0.000505	5.050191	1.711051	-0.040331
 792	3.9550e-01	8.3869	61.871766	0.000798	7.979302	2.703461	-0.063723
 793	3.9600e-01	8.3388	61.613647	0.000646	6.464245	2.190145	-0.051624
 794	3.9650e-01	8.3115	61.286966	0.000818	8.181310	2.771903	-0.065336
 795	3.9700e-01	8.2586	61.170007	0.000293	2.929111	0.992410	-0.023392
 796	3.9750e-01	8.2217	60.823160	0.000869	8.686329	2.943008	-0.069369
 797	3.9800e-01	8.1800	60.698134	0.000313	3.131119	1.060852	-0.025005
 798	3.9850e-01	8.1463	60.379519	0.000798	7.979302	2.703461	-0.063723
 799	3.9900e-01	8.1030	60.218195	0.000404	4.040153	1.368841	-0.032265
 800	3.9950e-01	8.0661	59.964110	0.000636	6.363241	2.155924	-0.050817
 801	4.0000e-01	8.0260	59.855216	0.000273	2.727103	0.923968	-0.021779
 802	4.0050e-01	7.9827	59.572899	0.000707	7.070268	2.395472	-0.056463
 803	4.0100e-01	7.9329	59.254285	0.000798	7.979302	2.703461	-0.063723
 804	4.0150e-01	7.9105	58.951802	0.000758	7.575287	2.566577	-0.060496
 805	4.0200e-01	7.8623	58.625121	0.000818	8.181310	2.771903	-0.065336
 806	4.0250e-01	7.8254	58.379102	0.000616	6.161233	2.087482	-0.049204
 807	4.0300e-01	7.7757	58.241977	0.000343	3.434130	1.163515	-0.027425
 808	4.0350e-01	7.7404	58.056454	0.000465	4.646176	1.574167	-0.037105
 809	4.0400e-01	7.6987	57.762038	0.000737	7.373279	2.498135	-0.058883
 810	4.0450e-01	7.6650	57.495854	0.000667	6.666253	2.258588	-0.053237
 811	4.0500e-01	7.6281	57.294199	0.000505	5.050191	1.711051	-0.040331
 812	4.0550e-01	7.5832	56.983650	0.000778	7.777295	2.635019	-0.062110
 813	4.0600e-01	7.5447	56.632771	0.000879	8.787333	2.977229	-0.070176
 814	4.0650e-01	7.5030	56.487579	0.000364	3.636138	1.231957	-0.029038
 815	4.0700e-01	7.4549	56.281891	0.000515	5.151195	1.745272	-0.041138
 816	4.0750e-01	7.4212	55.987475	0.000737	7.373279	2.498135	-0.058883
 817	4.0800e-01	7.3795	55.761621	0.000566	5.656214	1.916377	-0.045171
 818	4.0850e-01	7.3506	55.592231	0.000424	4.242161	1.437283	-0.033878
 819	4.0900e-01	7.3025	55.233285	0.000899	8.989341	3.045671	-0.071789
 820	4.0950e-01	7.2640	54.971134	0.000657	6.565249	2.224366	-0.052430
 821	4.1000e-01	7.2190	54.708983	0.000657	6.565249	2.224366	-0.052430
 822	4.1050e-01	7.1805	54.628321	0.000202	2.020077	0.684420	-0.016132
 823	4.1100e-01	7.1340	54.112084	0.001293	12.928490	4.380291	-0.103247
 824	4.1150e-01	7.0971	54.035455	0.000192	1.919073	0.650199	-0.015326
 825	4.1200e-01	7.0618	53.902363	0.000333	3.333126	1.129294	-0.026618
 826	4.1250e-01	7.0137	53.559549	0.000859	8.585325	2.908787	-0.068563
 827	4.1300e-01	6.9880	53.232868	0.000818	8.181310	2.771903	-0.065336
 828	4.1350e-01	6.9431	53.063478	0.000424	4.242161	1.437283	-0.033878
 829	4.1400e-01	6.8982	52.752930	0.000778	7.777295	2.635019	-0.062110
 830	4.1450e-01	6.8517	52.603705	0.000374	3.737142	1.266178	-0.029845
 831	4.1500e-01	6.8164	52.305256	0.000747	7.474283	2.532356	-0.059690
 832	4.1550e-01	6.7875	52.006806	0.000747	7.474283	2.532356	-0.059690
 833	4.1600e-01	6.7378	51.780953	0.000566	5.656214	1.916377	-0.045171
 834	4.1650e-01	6.7025	51.478471	0.000758	7.575287	2.566577	-0.060496
 835	4.1700e-01	6.6560	51.296981	0.000455	4.545172	1.539946	-0.036298
 836	4.1750e-01	6.6207	51.079194	0.000545	5.454207	1.847935	-0.043557
 837	4.1800e-01	6.5774	50.724281	0.000889	8.888337	3.011450	-0.070983
 838	4.1850e-01	6.5405	50.478262	0.000616	6.161233	2.087482	-0.049204
 839	4.1900e-01	6.5052	50.361302	0.000293	2.929111	0.992410	-0.023392
 840	4.1950e-01	6.4635	49.849099	0.001283	12.827486	4.346070	-0.102441
 841	4.2000e-01	6.4185	49.623245	0.000566	5.656214	1.916377	-0.045171
 842	4.2050e-01	6.3768	49.304630	0.000798	7.979302	2.703461	-0.063723
 843	4.2100e-01	6.3463	49.219935	0.000212	2.121080	0.718641	-0.016939
 844	4.2150e-01	6.3094	48.893254	0.000818	8.181310	2.771903	-0.065336
 845	4.2200e-01	6.2677	48.602871	0.000727	7.272276	2.463914	-0.058077
 846	4.2250e-01	6.2260	48.247959	0.000889	8.888337	3.011450	-0.070983
 847	4.2300e-01	6.1811	48.022105	0.000566	5.656214	1.916377	-0.045171
 848	4.2350e-01	6.1362	47.872880	0.000374	3.737142	1.266178	-0.029845
 849	4.2400e-01	6.1009	47.513935	0.000899	8.989341	3.045671	-0.071789
 850	4.2450e-01	6.0608	47.360677	0.000384	3.838145	1.300399	-0.030652
 851	4.2500e-01	6.0191	47.348578	0.000030	0.303011	0.102663	-0.002420
 852	4.2550e-01	5.9838	46.876705	0.001182	11.817448	4.003860	-0.094375
 853	4.2600e-01	5.9501	46.598421	0.000697	6.969264	2.361251	-0.055657
 854	4.2650e-01	5.9068	46.364502	0.000586	5.858222	1.984819	-0.046784
 855	4.2700e-01	5.8571	46.013622	0.000879	8.787333	2.977229	-0.070176
 856	4.2750e-01	5.8266	45.771636	0.000606	6.060230	2.053261	-0.048397
 857	4.2800e-01	5.7784	45.574014	0.000495	4.949188	1.676830	-0.039524
 858	4.2850e-01	5.7399	45.323962	0.000626	6.262237	2.121703	-0.050010
 859	4.2900e-01	5.7030	44.977116	0.000869	8.686329	2.943008	-0.069369
 860	4.2950e-01	5.6694	44.694799	0.000707	7.070268	2.395472	-0.056463
 861	4.3000e-01	5.6180	44.347952	0.000869	8.686329	2.943008	-0.069369
 862	4.3050e-01	5.5891	44.109999	0.000596	5.959226	2.019040	-0.047591
 863	4.3100e-01	5.5539	43.932543	0.000444	4.444168	1.505725	-0.035491
 864	4.3150e-01	5.5009	43.650226	0.000707	7.070268	2.395472	-0.056463
 865	4.3200e-01	5.4608	43.428406	0.000556	5.555211	1.882156	-0.044364
 866	4.3250e-01	5.4207	43.271115	0.000394	3.939149	1.334620	-0.031458
 867	4.3300e-01	5.3838	43.093659	0.000444	4.444168	1.505725	-0.035491
 868	4.3350e-01	5.3405	42.633885	0.001151	11.514436	3.901197	-0.091955
 869	4.3400e-01	5.3020	42.343502	0.000727	7.272276	2.463914	-0.058077
 870	4.3450e-01	5.2699	42.109583	0.000586	5.858222	1.984819	-0.046784
 871	4.3500e-01	5.2202	41.815166	0.000737	7.373279	2.498135	-0.058883
 872	4.3550e-01	5.1881	41.617544	0.000495	4.949188	1.676830	-0.039524
 873	4.3600e-01	5.1351	41.186003	0.001081	10.807410	3.661649	-0.086308
 874	4.3650e-01	5.1095	40.944017	0.000606	6.060230	2.053261	-0.048397
 875	4.3700e-01	5.0694	40.681866	0.000657	6.565249	2.224366	-0.052430
 876	4.3750e-01	5.0293	40.456012	0.000566	5.656214	1.916377	-0.045171
 877	4.3800e-01	4.9827	40.137397	0.000798	7.979302	2.703461	-0.063723
 878	4.3850e-01	4.9410	39.786518	0.000879	8.787333	2.977229	-0.070176
 879	4.3900e-01	4.8993	39.536466	0.000626	6.262237	2.121703	-0.050010
 880	4.3950e-01	4.8624	39.407406	0.000323	3.232122	1.095073	-0.025812
 881	4.4000e-01	4.8239	39.169454	0.000596	5.959226	2.019040	-0.047591
 882	4.4050e-01	4.7822	38.919402	0.000626	6.262237	2.121703	-0.050010
 883	4.4100e-01	4.7389	38.669349	0.000626	6.262237	2.121703	-0.050010
 884	4.4150e-01	4.7084	38.370900	0.000747	7.474283	2.532356	-0.059690
 885	4.4200e-01	4.6619	38.032120	0.000848	8.484321	2.874566	-0.067756
 886	4.4250e-01	4.6218	37.568313	0.001162	11.615440	3.935418	-0.092761
 887	4.4300e-01	4.5769	37.640909	-0.000182	-1.818069	-0.615978	0.014519
 888	4.4350e-01	4.5432	37.257765	0.000960	9.595364	3.250997	-0.076629
 889	4.4400e-01	4.5015	37.108540	0.000374	3.737142	1.266178	-0.029845
 890	4.4450e-01	4.4614	36.612469	0.001242	12.423471	4.209186	-0.099214
 891	4.4500e-01	4.4229	36.426947	0.000465	4.646176	1.574167	-0.037105
 892	4.4550e-01	4.3812	36.039769	0.000970	9.696367	3.285218	-0.077435
 893	4.4600e-01	4.3475	35.644525	0.000990	9.898375	3.353660	-0.079049
 894	4.4650e-01	4.3026	35.527566	0.000293	2.929111	0.992410	-0.023392
 895	4.4700e-01	4.2657	35.217017	0.000778	7.777295	2.635019	-0.062110
 896	4.4750e-01	4.2320	34.970998	0.000616	6.161233	2.087482	-0.049204
 897	4.4800e-01	4.1887	34.741111	0.000576	5.757218	1.950598	-0.045977
 898	4.4850e-01	4.1453	34.491059	0.000626	6.262237	2.121703	-0.050010
 899	4.4900e-01	4.0988	34.172444	0.000798	7.979302	2.703461	-0.063723
 900	4.4950e-01	4.0667	33.882061	0.000727	7.272276	2.463914	-0.058077
 901	4.5000e-01	4.0202	33.648142	0.000586	5.858222	1.984819	-0.046784
 902	4.5050e-01	3.9785	33.281130	0.000919	9.191348	3.114113	-0.073402
 903	4.5100e-01	3.9352	33.091574	0.000475	4.747180	1.608388	-0.037911
 904	4.5150e-01	3.9095	32.893952	0.000495	4.949188	1.676830	-0.039524
 905	4.5200e-01	3.8646	32.510808	0.000960	9.595364	3.250997	-0.076629
 906	4.5250e-01	3.8261	32.143796	0.000919	9.191348	3.114113	-0.073402
 907	4.5300e-01	3.7716	31.990538	0.000384	3.838145	1.300399	-0.030652
 908	4.5350e-01	3.7330	31.639659	0.000879	8.787333	2.977229	-0.070176
 909	4.5400e-01	3.7042	31.244415	0.000990	9.898375	3.353660	-0.079049
 910	4.5450e-01	3.6625	31.079058	0.000414	4.141157	1.403062	-0.033071
 911	4.5500e-01	3.6224	30.901601	0.000444	4.444168	1.505725	-0.035491
 912	4.5550e-01	3.5839	30.506358	0.000990	9.898375	3.353660	-0.079049
 913	4.5600e-01	3.5438	30.147412	0.000899	8.989341	3.045671	-0.071789
 914	4.5650e-01	3.4940	29.848963	0.000747	7.474283	2.532356	-0.059690
 915	4.5700e-01	3.4555	29.623109	0.000566	5.656214	1.916377	-0.045171
 916	4.5750e-01	3.4202	29.393223	0.000576	5.757218	1.950598	-0.045977
 917	4.5800e-01	3.3785	29.171402	0.000556	5.555211	1.882156	-0.044364
 918	4.5850e-01	3.3368	28.856820	0.000788	7.878299	2.669240	-0.062916
 919	4.5900e-01	3.2983	28.614835	0.000606	6.060230	2.053261	-0.048397
 920	4.5950e-01	3.2518	28.280087	0.000838	8.383318	2.840345	-0.066949
 921	4.6000e-01	3.2261	27.985671	0.000737	7.373279	2.498135	-0.058883
 922	4.6050e-01	3.1828	27.642858	0.000859	8.585325	2.908787	-0.068563
 923	4.6100e-01	3.1331	27.404905	0.000596	5.959226	2.019040	-0.047591
 924	4.6150e-01	3.1010	27.102423	0.000758	7.575287	2.566577	-0.060496
 925	4.6200e-01	3.0577	27.005628	0.000242	2.424092	0.821305	-0.019359
 926	4.6250e-01	3.0256	26.687013	0.000798	7.979302	2.703461	-0.063723
 927	4.6300e-01	2.9710	26.449061	0.000596	5.959226	2.019040	-0.047591
 928	4.6350e-01	2.9422	26.122380	0.000818	8.181310	2.771903	-0.065336
 929	4.6400e-01	2.9021	25.642441	0.001202	12.019455	4.072302	-0.095988
 930	4.6450e-01	2.8700	25.239131	0.001010	10.100383	3.422102	-0.080662
 931	4.6500e-01	2.8218	24.940682	0.000747	7.474283	2.532356	-0.059690
 932	4.6550e-01	2.7785	24.799523	0.000354	3.535134	1.197736	-0.028232
 933	4.6600e-01	2.7352	24.521240	0.000697	6.969264	2.361251	-0.055657
 934	4.6650e-01	2.7031	24.061466	0.001151	11.514436	3.901197	-0.091955
 935	4.6700e-01	2.6630	23.896109	0.000414	4.141157	1.403062	-0.033071
 936	4.6750e-01	2.6165	23.565395	0.000828	8.282314	2.806124	-0.066143
 937	4.6800e-01	2.5892	23.287111	0.000697	6.969264	2.361251	-0.055657
 938	4.6850e-01	2.5475	23.008828	0.000697	6.969264	2.361251	-0.055657
 939	4.6900e-01	2.4962	22.690213	0.000798	7.979302	2.703461	-0.063723
 940	4.6950e-01	2.4529	22.419995	0.000677	6.767256	2.292809	-0.054044
 941	4.7000e-01	2.4176	22.125579	0.000737	7.373279	2.498135	-0.058883
 942	4.7050e-01	2.3839	21.819063	0.000768	7.676291	2.600798	-0.061303
 943	4.7100e-01	2.3390	21.484316	0.000838	8.383318	2.840345	-0.066949
 944	4.7150e-01	2.3005	21.230231	0.000636	6.363241	2.155924	-0.050817
 945	4.7200e-01	2.2620	21.020510	0.000525	5.252199	1.779493	-0.041944
 946	4.7250e-01	2.2187	20.746259	0.000687	6.868260	2.327030	-0.054850
 947	4.7300e-01	2.1785	20.419578	0.000818	8.181310	2.771903	-0.065336
 948	4.7350e-01	2.1400	20.072732	0.000869	8.686329	2.943008	-0.069369
 949	4.7400e-01	2.1080	19.846878	0.000566	5.656214	1.916377	-0.045171
 950	4.7450e-01	2.0598	19.512131	0.000838	8.383318	2.840345	-0.066949
 951	4.7500e-01	2.0181	19.225781	0.000717	7.171272	2.429693	-0.057270
 952	4.7550e-01	1.9844	18.979762	0.000616	6.161233	2.087482	-0.049204
 953	4.7600e-01	1.9411	18.588551	0.000980	9.797371	3.319439	-0.078242
 954	4.7650e-01	1.9010	18.278003	0.000778	7.777295	2.635019	-0.062110
 955	4.7700e-01	1.8593	18.072315	0.000515	5.151195	1.745272	-0.041138
 956	4.7750e-01	1.8224	17.745634	0.000818	8.181310	2.771903	-0.065336
 957	4.7800e-01	1.7759	17.560111	0.000465	4.646176	1.574167	-0.037105
 958	4.7850e-01	1.7470	17.185033	0.000939	9.393356	3.182555	-0.075016
 959	4.7900e-01	1.7005	16.793823	0.000980	9.797371	3.319439	-0.078242
 960	4.7950e-01	1.6636	16.664763	0.000323	3.232122	1.095073	-0.025812
 961	4.8000e-01	1.6235	16.225156	0.001101	11.009417	3.730092	-0.087922
 962	4.8050e-01	1.5818	15.946872	0.000697	6.969264	2.361251	-0.055657
 963	4.8100e-01	1.5449	15.652456	0.000737	7.373279	2.498135	-0.058883
 964	4.8150e-01	1.5000	15.220914	0.001081	10.807410	3.661649	-0.086308
 965	4.8200e-01	1.4631	15.116054	0.000263	2.626100	0.889747	-0.020972
 966	4.8250e-01	1.4262	14.583685	0.001333	13.332505	4.517175	-0.106474
 967	4.8300e-01	1.3893	14.466725	0.000293	2.929111	0.992410	-0.023392
 968	4.8350e-01	1.3363	14.188441	0.000697	6.969264	2.361251	-0.055657
 969	4.8400e-01	1.2882	13.744800	0.001111	11.110421	3.764313	-0.088728
 970	4.8450e-01	1.2625	13.365689	0.000949	9.494360	3.216776	-0.075822
 971	4.8500e-01	1.2112	13.317292	0.000121	1.212046	0.410652	-0.009679
 972	4.8550e-01	1.1952	12.982544	0.000838	8.383318	2.840345	-0.066949
 973	4.8600e-01	1.1406	12.522771	0.001151	11.514436	3.901197	-0.091955
 974	4.8650e-01	1.1053	12.224322	0.000747	7.474283	2.532356	-0.059690
 975	4.8700e-01	1.0636	12.038799	0.000465	4.646176	1.574167	-0.037105
 976	4.8750e-01	1.0203	11.643556	0.000990	9.898375	3.353660	-0.079049
 977	4.8800e-01	0.9786	11.345106	0.000747	7.474283	2.532356	-0.059690
 978	4.8850e-01	0.9417	11.131352	0.000535	5.353203	1.813714	-0.042751
 979	4.8900e-01	0.8984	10.877267	0.000636	6.363241	2.155924	-0.050817
 980	4.8950e-01	0.8631	10.534454	0.000859	8.585325	2.908787	-0.068563
 981	4.9000e-01	0.8230	10.135177	0.001000	9.999379	3.387881	-0.079855
 982	4.9050e-01	0.7909	9.772198	0.000909	9.090344	3.079892	-0.072596
 983	4.9100e-01	0.7428	9.542311	0.000576	5.757218	1.950598	-0.045977
 984	4.9150e-01	0.6994	9.159167	0.000960	9.595364	3.250997	-0.076629
 985	4.9200e-01	0.6593	8.905082	0.000636	6.363241	2.155924	-0.050817
 986	4.9250e-01	0.6224	8.723592	0.000455	4.545172	1.539946	-0.036298
 987	4.9300e-01	0.5904	8.312216	0.001030	10.302390	3.490544	-0.082275
 988	4.9350e-01	0.5422	8.082330	0.000576	5.757218	1.950598	-0.045977
 989	4.9400e-01	0.5021	7.719351	0.000909	9.090344	3.079892	-0.072596
 990	4.9450e-01	0.4636	7.396703	0.000808	8.080306	2.737682	-0.064530
 991	4.9500e-01	0.4171	7.074055	0.000808	8.080306	2.737682	-0.064530
 992	4.9550e-01	0.3738	6.795771	0.000697	6.969264	2.361251	-0.055657
 993	4.9600e-01	0.3449	6.465057	0.000828	8.282314	2.806124	-0.066143
 994	4.9650e-01	0.3064	6.114177	0.000879	8.787333	2.977229	-0.070176
 995	4.9700e-01	0.2551	5.654404	0.001151	11.514436	3.901197	-0.091955
 996	4.9750e-01	0.2214	5.541477	0.000283	2.828107	0.958189	-0.022585
 997	4.9800e-01	0.1893	5.178499	0.000909	9.090344	3.079892	-0.072596
 998	4.9850e-01	0.1428	4.799387	0.000949	9.494360	3.216776	-0.075822
 999	4.9900e-01	0.0930	4.517070	0.000707	7.070268	2.395472	-0.056463
1000	4.9950e-01	0.0626	4.198456	0.000798	7.979302	2.703461	-0.063723
1001	5.0000e-01	0.0289	3.694318	0.001263	12.625478	4.277628	-0.100827
1002	5.0050e-01	-0.0193	3.508796	0.000465	4.646176	1.574167	-0.037105
1003	5.0100e-01	-0.0465	3.399902	0.000273	2.727103	0.923968	-0.021779
1004	5.0150e-01	-0.0946	2.887699	0.001283	12.827486	4.346070	-0.102441
1005	5.0200e-01	-0.1396	2.750573	0.000343	3.434130	1.163515	-0.027425
1006	5.0250e-01	-0.1749	2.492455	0.000646	6.464245	2.190145	-0.051624
1007	5.0300e-01	-0.2134	2.181906	0.000778	7.777295	2.635019	-0.062110
1008	5.0350e-01	-0.2438	1.855225	0.000818	8.181310	2.771903	-0.065336
1009	5.0400e-01	-0.2920	1.564842	0.000727	7.272276	2.463914	-0.058077
1010	5.0450e-01	-0.3401	1.177665	0.000970	9.696367	3.285218	-0.077435
1011	5.0500e-01	-0.3706	0.810653	0.000919	9.191348	3.114113	-0.073402
1012	5.0550e-01	-0.4059	0.443641	0.000919	9.191348	3.114113	-0.073402
1013	5.0600e-01	-0.4428	0.060496	0.000960	9.595364	3.250997	-0.076629
1014	5.0650e-01	-0.4925	-0.145192	0.000515	5.151195	1.745272	-0.041138
1015	5.0700e-01	-0.5230	-0.568667	0.001061	10.605402	3.593207	-0.084695
1016	5.0750e-01	-0.5583	-0.863083	0.000737	7.373279	2.498135	-0.058883
1017	5.0800e-01	-0.6144	-1.177665	0.000788	7.878299	2.669240	-0.062916
1018	5.0850e-01	-0.6529	-1.488213	0.000778	7.777295	2.635019	-0.062110
1019	5.0900e-01	-0.6946	-1.814894	0.000818	8.181310	2.771903	-0.065336
1020	5.0950e-01	-0.7299	-2.101244	0.000717	7.171272	2.429693	-0.057270
1021	5.1000e-01	-0.7732	-2.286767	0.000465	4.646176	1.574167	-0.037105
1022	5.1050e-01	-0.8101	-2.669911	0.000960	9.595364	3.250997	-0.076629
1023	5.1100e-01	-0.8583	-2.807037	0.000343	3.434130	1.163515	-0.027425
1024	5.1150e-01	-0.8887	-3.194214	0.000970	9.696367	3.285218	-0.077435
1025	5.1200e-01	-0.9449	-3.508796	0.000788	7.878299	2.669240	-0.062916
1026	5.1250e-01	-0.9754	-3.891940	0.000960	9.595364	3.250997	-0.076629
1027	5.1300e-01	-1.0139	-4.250886	0.000899	8.989341	3.045671	-0.071789
1028	5.1350e-01	-1.0540	-4.375912	0.000313	3.131119	1.060852	-0.025005
1029	5.1400e-01	-1.0877	-4.726792	0.000879	8.787333	2.977229	-0.070176
1030	5.1450e-01	-1.1310	-5.109936	0.000960	9.595364	3.250997	-0.076629
1031	5.1500e-01	-1.1711	-5.388220	0.000697	6.969264	2.361251	-0.055657
1032	5.1550e-01	-1.2064	-5.763298	0.000939	9.393356	3.182555	-0.075016
1033	5.1600e-01	-1.2465	-6.114177	0.000879	8.787333	2.977229	-0.070176
1034	5.1650e-01	-1.2962	-6.380362	0.000667	6.666253	2.258588	-0.053237
1035	5.1700e-01	-1.3379	-6.690911	0.000778	7.777295	2.635019	-0.062110
1036	5.1750e-01	-1.3684	-7.025658	0.000838	8.383318	2.840345	-0.066949
1037	5.1800e-01	-1.4165	-7.376537	0.000879	8.787333	2.977229	-0.070176
1038	5.1850e-01	-1.4582	-7.658854	0.000707	7.070268	2.395472	-0.056463
1039	5.1900e-01	-1.4984	-7.933105	0.000687	6.868260	2.327030	-0.054850
1040	5.1950e-01	-1.5353	-8.167025	0.000586	5.858222	1.984819	-0.046784
1041	5.2000e-01	-1.5689	-8.550169	0.000960	9.595364	3.250997	-0.076629
1042	5.2050e-01	-1.6123	-9.086571	0.001343	13.433509	4.551396	-0.107280
1043	5.2100e-01	-1.6508	-9.332590	0.000616	6.161233	2.087482	-0.049204
1044	5.2150e-01	-1.6989	-9.671370	0.000848	8.484321	2.874566	-0.067756
1045	5.2200e-01	-1.7294	-9.893191	0.000556	5.555211	1.882156	-0.044364
1046	5.2250e-01	-1.7695	-10.207773	0.000788	7.878299	2.669240	-0.062916
1047	5.2300e-01	-1.8160	-10.643347	0.001091	10.908413	3.695870	-0.087115
1048	5.2350e-01	-1.8513	-10.804671	0.000404	4.040153	1.368841	-0.032265
1049	5.2400e-01	-1.8882	-11.054723	0.000626	6.262237	2.121703	-0.050010
1050	5.2450e-01	-1.9315	-11.546761	0.001232	12.322467	4.174965	-0.098408
1051	5.2500e-01	-1.9764	-11.881508	0.000838	8.383318	2.840345	-0.066949
1052	5.2550e-01	-2.0101	-12.030733	0.000374	3.737142	1.266178	-0.029845
1053	5.2600e-01	-2.0502	-12.369513	0.000848	8.484321	2.874566	-0.067756
1054	5.2650e-01	-2.0855	-12.825254	0.001141	11.413432	3.866976	-0.091148
1055	5.2700e-01	-2.1352	-13.002710	0.000444	4.444168	1.505725	-0.035491
1056	5.2750e-01	-2.1769	-13.285027	0.000707	7.070268	2.395472	-0.056463
1057	5.2800e-01	-2.2106	-13.547178	0.000657	6.565249	2.224366	-0.052430
1058	5.2850e-01	-2.2491	-14.079547	0.001333	13.332505	4.517175	-0.106474
1059	5.2900e-01	-2.2989	-14.252970	0.000434	4.343165	1.471504	-0.034685
1060	5.2950e-01	-2.3326	-14.531254	0.000697	6.969264	2.361251	-0.055657
1061	5.3000e-01	-2.3743	-14.906332	0.000939	9.393356	3.182555	-0.075016
1062	5.3050e-01	-2.4128	-15.192682	0.000717	7.171272	2.429693	-0.057270
1063	5.3100e-01	-2.4529	-15.595992	0.001010	10.100383	3.422102	-0.080662
1064	5.3150e-01	-2.4946	-15.745217	0.000374	3.737142	1.266178	-0.029845
1065	5.3200e-01	-2.5347	-16.192891	0.001121	11.211425	3.798534	-0.089535
1066	5.3250e-01	-2.5732	-16.418744	0.000566	5.656214	1.916377	-0.045171
1067	5.3300e-01	-2.6117	-16.753492	0.000838	8.383318	2.840345	-0.066949
1068	5.3350e-01	-2.6470	-17.039842	0.000717	7.171272	2.429693	-0.057270
1069	5.3400e-01	-2.6871	-17.414920	0.000939	9.393356	3.182555	-0.075016
1070	5.3450e-01	-2.7384	-17.612542	0.000495	4.949188	1.676830	-0.039524
1071	5.3500e-01	-2.7705	-17.963421	0.000879	8.787333	2.977229	-0.070176
1072	5.3550e-01	-2.8122	-18.273970	0.000778	7.777295	2.635019	-0.062110
1073	5.3600e-01	-2.8523	-18.479658	0.000515	5.151195	1.745272	-0.041138
1074	5.3650e-01	-2.8956	-18.806339	0.000818	8.181310	2.771903	-0.065336
1075	5.3700e-01	-2.9325	-19.108821	0.000758	7.575287	2.566577	-0.060496
1076	5.3750e-01	-2.9726	-19.487932	0.000949	9.494360	3.216776	-0.075822
1077	5.3800e-01	-3.0192	-19.681521	0.000485	4.848184	1.642609	-0.038718
1078	5.3850e-01	-3.0480	-20.040467	0.000899	8.989341	3.045671	-0.071789
1079	5.3900e-01	-3.0930	-20.395380	0.000889	8.888337	3.011450	-0.070983
1080	5.3950e-01	-3.1347	-20.693829	0.000747	7.474283	2.532356	-0.059690
1081	5.4000e-01	-3.1668	-21.040675	0.000869	8.686329	2.943008	-0.069369
1082	5.4050e-01	-3.2101	-21.383489	0.000859	8.585325	2.908787	-0.068563
1083	5.4100e-01	-3.2502	-21.532713	0.000374	3.737142	1.266178	-0.029845
1084	5.4150e-01	-3.3031	-21.867461	0.000838	8.383318	2.840345	-0.066949
1085	5.4200e-01	-3.3224	-22.089281	0.000556	5.555211	1.882156	-0.044364
1086	5.4250e-01	-3.3753	-22.391763	0.000758	7.575287	2.566577	-0.060496
1087	5.4300e-01	-3.4170	-22.787007	0.000990	9.898375	3.353660	-0.079049
1088	5.4350e-01	-3.4539	-23.041092	0.000636	6.363241	2.155924	-0.050817
1089	5.4400e-01	-3.4972	-23.295178	0.000636	6.363241	2.155924	-0.050817
1090	5.4450e-01	-3.5405	-23.593627	0.000747	7.474283	2.532356	-0.059690
1091	5.4500e-01	-3.5726	-23.831580	0.000596	5.959226	2.019040	-0.047591
1092	5.4550e-01	-3.6224	-24.335717	0.001263	12.625478	4.277628	-0.100827
1093	5.4600e-01	-3.6512	-24.622067	0.000717	7.171272	2.429693	-0.057270
1094	5.4650e-01	-3.6801	-24.884218	0.000657	6.565249	2.224366	-0.052430
1095	5.4700e-01	-3.7314	-25.118138	0.000586	5.858222	1.984819	-0.046784
1096	5.4750e-01	-3.7683	-25.444819	0.000818	8.181310	2.771903	-0.065336
1097	5.4800e-01	-3.8165	-25.694871	0.000626	6.262237	2.121703	-0.050010
1098	5.4850e-01	-3.8502	-25.848129	0.000384	3.838145	1.300399	-0.030652
1099	5.4900e-01	-3.8983	-26.146578	0.000747	7.474283	2.532356	-0.059690
1100	5.4950e-01	-3.9304	-26.485359	0.000848	8.484321	2.874566	-0.067756
1101	5.5000e-01	-3.9705	-26.820106	0.000838	8.383318	2.840345	-0.066949
1102	5.5050e-01	-4.0122	-27.291978	0.001182	11.817448	4.003860	-0.094375
1103	5.5100e-01	-4.0459	-27.497666	0.000515	5.151195	1.745272	-0.041138
1104	5.5150e-01	-4.0908	-27.828380	0.000828	8.282314	2.806124	-0.066143
1105	5.5200e-01	-4.1341	-28.009870	0.000455	4.545172	1.539946	-0.036298
1106	5.5250e-01	-4.1662	-28.425279	0.001040	10.403394	3.524765	-0.083082
1107	5.5300e-01	-4.2207	-28.586603	0.000404	4.040153	1.368841	-0.032265
1108	5.5350e-01	-4.2592	-28.852787	0.000667	6.666253	2.258588	-0.053237
1109	5.5400e-01	-4.2913	-29.155270	0.000758	7.575287	2.566577	-0.060496
1110	5.5450e-01	-4.3282	-29.437587	0.000707	7.070268	2.395472	-0.056463
1111	5.5500e-01	-4.3683	-29.723937	0.000717	7.171272	2.429693	-0.057270
1112	5.5550e-01	-4.4036	-30.090949	0.000919	9.191348	3.114113	-0.073402
1113	5.5600e-01	-4.4646	-30.300670	0.000525	5.252199	1.779493	-0.041944
1114	5.5650e-01	-4.4822	-30.611218	0.000778	7.777295	2.635019	-0.062110
1115	5.5700e-01	-4.5223	-30.861271	0.000626	6.262237	2.121703	-0.050010
1116	5.5750e-01	-4.5608	-31.163753	0.000758	7.575287	2.566577	-0.060496
1117	5.5800e-01	-4.6202	-31.417838	0.000636	6.363241	2.155924	-0.050817
1118	5.5850e-01	-4.6523	-31.728387	0.000778	7.777295	2.635019	-0.062110
1119	5.5900e-01	-4.6892	-31.978439	0.000626	6.262237	2.121703	-0.050010
1120	5.5950e-01	-4.7229	-32.224458	0.000616	6.161233	2.087482	-0.049204
1121	5.6000e-01	-4.7710	-32.587437	0.000909	9.090344	3.079892	-0.072596
1122	5.6050e-01	-4.8143	-32.825390	0.000596	5.959226	2.019040	-0.047591
1123	5.6100e-01	-4.8496	-33.152071	0.000818	8.181310	2.771903	-0.065336
1124	5.6150e-01	-4.8881	-33.317428	0.000414	4.141157	1.403062	-0.033071
1125	5.6200e-01	-4.9282	-33.672340	0.000889	8.888337	3.011450	-0.070983
1126	5.6250e-01	-4.9747	-33.849797	0.000444	4.444168	1.505725	-0.035491
1127	5.6300e-01	-5.0132	-34.208742	0.000899	8.989341	3.045671	-0.071789
1128	5.6350e-01	-5.0517	-34.438629	0.000576	5.757218	1.950598	-0.045977
1129	5.6400e-01	-5.0918	-34.700780	0.000657	6.565249	2.224366	-0.052430
1130	5.6450e-01	-5.1351	-35.160554	0.001151	11.514436	3.901197	-0.091955
1131	5.6500e-01	-5.1769	-35.237182	0.000192	1.919073	0.650199	-0.015326
1132	5.6550e-01	-5.2202	-35.442871	0.000515	5.151195	1.745272	-0.041138
1133	5.6600e-01	-5.2571	-35.846180	0.001010	10.100383	3.422102	-0.080662
1134	5.6650e-01	-5.2908	-36.132530	0.000717	7.171272	2.429693	-0.057270
1135	5.6700e-01	-5.3325	-36.350318	0.000545	5.454207	1.847935	-0.043557
1136	5.6750e-01	-5.3726	-36.705230	0.000889	8.888337	3.011450	-0.070983
1137	5.6800e-01	-5.4079	-36.894786	0.000475	4.747180	1.608388	-0.037911
1138	5.6850e-01	-5.4592	-37.084342	0.000475	4.747180	1.608388	-0.037911
1139	5.6900e-01	-5.4993	-37.330361	0.000616	6.161233	2.087482	-0.049204
1140	5.6950e-01	-5.5410	-37.624777	0.000737	7.373279	2.498135	-0.058883
1141	5.7000e-01	-5.5763	-37.919193	0.000737	7.373279	2.498135	-0.058883
1142	5.7050e-01	-5.6164	-38.245874	0.000818	8.181310	2.771903	-0.065336
1143	5.7100e-01	-5.6501	-38.572555	0.000818	8.181310	2.771903	-0.065336
1144	5.7150e-01	-5.6998	-38.919402	0.000869	8.686329	2.943008	-0.069369
1145	5.7200e-01	-5.7399	-39.008130	0.000222	2.222084	0.752863	-0.017746
1146	5.7250e-01	-5.7736	-39.246082	0.000596	5.959226	2.019040	-0.047591
1147	5.7300e-01	-5.8153	-39.480002	0.000586	5.858222	1.984819	-0.046784
1148	5.7350e-01	-5.8490	-39.814749	0.000838	8.383318	2.840345	-0.066949
1149	5.7400e-01	-5.8972	-40.262423	0.001121	11.211425	3.798534	-0.089535
1150	5.7450e-01	-5.9341	-40.423747	0.000404	4.040153	1.368841	-0.032265
1151	5.7500e-01	-5.9742	-40.645568	0.000556	5.555211	1.882156	-0.044364
1152	5.7550e-01	-6.0127	-40.935951	0.000727	7.272276	2.463914	-0.058077
1153	5.7600e-01	-6.0560	-41.202135	0.000667	6.666253	2.258588	-0.053237
1154	5.7650e-01	-6.0993	-41.488485	0.000717	7.171272	2.429693	-0.057270
1155	5.7700e-01	-6.1394	-41.710306	0.000556	5.555211	1.882156	-0.044364
1156	5.7750e-01	-6.1699	-42.145880	0.001091	10.908413	3.695870	-0.087115
1157	5.7800e-01	-6.2148	-42.391899	0.000616	6.161233	2.087482	-0.049204
1158	5.7850e-01	-6.2581	-42.529025	0.000343	3.434130	1.163515	-0.027425
1159	5.7900e-01	-6.3030	-42.686316	0.000394	3.939149	1.334620	-0.031458
1160	5.7950e-01	-6.3335	-42.887971	0.000505	5.050191	1.711051	-0.040331
1161	5.8000e-01	-6.3752	-43.432439	0.001364	13.635517	4.619838	-0.108894
1162	5.8050e-01	-6.4185	-43.601829	0.000424	4.242161	1.437283	-0.033878
1163	5.8100e-01	-6.4586	-43.884146	0.000707	7.070268	2.395472	-0.056463
1164	5.8150e-01	-6.4955	-44.109999	0.000566	5.656214	1.916377	-0.045171
1165	5.8200e-01	-6.5308	-44.343919	0.000586	5.858222	1.984819	-0.046784
1166	5.8250e-01	-6.5774	-44.598004	0.000636	6.363241	2.155924	-0.050817
1167	5.8300e-01	-6.6207	-44.916619	0.000798	7.979302	2.703461	-0.063723
1168	5.8350e-01	-6.6463	-45.033579	0.000293	2.929111	0.992410	-0.023392
1169	5.8400e-01	-6.6961	-45.412690	0.000949	9.494360	3.216776	-0.075822
1170	5.8450e-01	-6.7362	-45.670809	0.000646	6.464245	2.190145	-0.051624
1171	5.8500e-01	-6.7811	-45.803901	0.000333	3.333126	1.129294	-0.026618
1172	5.8550e-01	-6.8132	-46.122516	0.000798	7.979302	2.703461	-0.063723
1173	5.8600e-01	-6.8549	-46.324171	0.000505	5.050191	1.711051	-0.040331
1174	5.8650e-01	-6.8982	-46.675050	0.000879	8.787333	2.977229	-0.070176
1175	5.8700e-01	-6.9303	-46.933168	0.000646	6.464245	2.190145	-0.051624
1176	5.8750e-01	-6.9672	-47.211452	0.000697	6.969264	2.361251	-0.055657
1177	5.8800e-01	-7.0137	-47.368743	0.000394	3.939149	1.334620	-0.031458
1178	5.8850e-01	-7.0554	-47.691391	0.000808	8.080306	2.737682	-0.064530
1179	5.8900e-01	-7.0923	-47.989840	0.000747	7.474283	2.532356	-0.059690
1180	5.8950e-01	-7.1308	-48.195528	0.000515	5.151195	1.745272	-0.041138
1181	5.9000e-01	-7.1757	-48.360885	0.000414	4.141157	1.403062	-0.033071
1182	5.9050e-01	-7.2239	-48.610937	0.000626	6.262237	2.121703	-0.050010
1183	5.9100e-01	-7.2592	-48.893254	0.000707	7.070268	2.395472	-0.056463
1184	5.9150e-01	-7.3009	-49.171538	0.000697	6.969264	2.361251	-0.055657
1185	5.9200e-01	-7.3249	-49.453855	0.000707	7.070268	2.395472	-0.056463
1186	5.9250e-01	-7.3698	-49.800702	0.000869	8.686329	2.943008	-0.069369
1187	5.9300e-01	-7.4116	-50.030588	0.000576	5.757218	1.950598	-0.045977
1188	5.9350e-01	-7.4501	-50.159647	0.000323	3.232122	1.095073	-0.025812
1189	5.9400e-01	-7.4886	-50.490361	0.000828	8.282314	2.806124	-0.066143
1190	5.9450e-01	-7.5351	-50.776711	0.000717	7.171272	2.429693	-0.057270
1191	5.9500e-01	-7.5591	-50.921903	0.000364	3.636138	1.231957	-0.029038
1192	5.9550e-01	-7.6073	-51.208253	0.000717	7.171272	2.429693	-0.057270
1193	5.9600e-01	-7.6522	-51.498636	0.000727	7.272276	2.463914	-0.058077
1194	5.9650e-01	-7.6907	-51.647861	0.000374	3.737142	1.266178	-0.029845
1195	5.9700e-01	-7.7244	-52.063270	0.001040	10.403394	3.524765	-0.083082
1196	5.9750e-01	-7.7725	-52.014873	-0.000121	-1.212046	-0.410652	0.009679
1197	5.9800e-01	-7.8206	-52.317355	0.000758	7.575287	2.566577	-0.060496
1198	5.9850e-01	-7.8623	-52.571440	0.000636	6.363241	2.155924	-0.050817
1199	5.9900e-01	-7.8912	-52.934419	0.000909	9.090344	3.079892	-0.072596
1200	5.9950e-01	-7.9329	-53.140107	0.000515	5.151195	1.745272	-0.041138
1201	6.0000e-01	-7.9666	-53.450656	0.000778	7.777295	2.635019	-0.062110
1202	6.0050e-01	-8.0180	-53.789436	0.000848	8.484321	2.874566	-0.067756
1203	6.0100e-01	-8.0484	-54.031422	0.000606	6.060230	2.053261	-0.048397
1204	6.0150e-01	-8.0918	-54.281474	0.000626	6.262237	2.121703	-0.050010
1205	6.0200e-01	-8.1270	-54.434732	0.000384	3.838145	1.300399	-0.030652
1206	6.0250e-01	-8.1671	-54.660585	0.000566	5.656214	1.916377	-0.045171
1207	6.0300e-01	-8.2024	-54.825942	0.000414	4.141157	1.403062	-0.033071
1208	6.0350e-01	-8.2474	-55.011465	0.000465	4.646176	1.574167	-0.037105
1209	6.0400e-01	-8.2923	-55.285716	0.000687	6.868260	2.327030	-0.054850
1210	6.0450e-01	-8.3388	-55.580132	0.000737	7.373279	2.498135	-0.058883
1211	6.0500e-01	-8.3805	-55.721290	0.000354	3.535134	1.197736	-0.028232
1212	6.0550e-01	-8.4078	-56.156865	0.001091	10.908413	3.695870	-0.087115
1213	6.0600e-01	-8.4591	-56.370619	0.000535	5.353203	1.813714	-0.042751
1214	6.0650e-01	-8.4896	-56.540009	0.000424	4.242161	1.437283	-0.033878
1215	6.0700e-01	-8.5425	-56.822326	0.000707	7.070268	2.395472	-0.056463
1216	6.0750e-01	-8.5746	-57.028014	0.000515	5.151195	1.745272	-0.041138
1217	6.0800e-01	-8.6211	-57.237735	0.000525	5.252199	1.779493	-0.041944
1218	6.0850e-01	-8.6564	-57.495854	0.000646	6.464245	2.190145	-0.051624
1219	6.0900e-01	-8.6869	-57.834634	0.000848	8.484321	2.874566	-0.067756
1220	6.0950e-01	-8.7415	-58.088719	0.000636	6.363241	2.155924	-0.050817
1221	6.1000e-01	-8.7735	-58.362970	0.000687	6.868260	2.327030	-0.054850
1222	6.1050e-01	-8.8121	-58.459764	0.000242	2.424092	0.821305	-0.019359
1223	6.1100e-01	-8.8393	-58.754180	0.000737	7.373279	2.498135	-0.058883
1224	6.1150e-01	-8.8891	-59.028431	0.000687	6.868260	2.327030	-0.054850
1225	6.1200e-01	-8.9372	-59.209921	0.000455	4.545172	1.539946	-0.036298
1226	6.1250e-01	-8.9693	-59.395443	0.000465	4.646176	1.574167	-0.037105
1227	6.1300e-01	-9.0190	-59.778587	0.000960	9.595364	3.250997	-0.076629
1228	6.1350e-01	-9.0511	-59.947978	0.000424	4.242161	1.437283	-0.033878
1229	6.1400e-01	-9.0960	-60.185930	0.000596	5.959226	2.019040	-0.047591
1230	6.1450e-01	-9.1265	-60.440016	0.000636	6.363241	2.155924	-0.050817
1231	6.1500e-01	-9.1698	-60.605373	0.000414	4.141157	1.403062	-0.033071
1232	6.1550e-01	-9.2179	-60.847359	0.000606	6.060230	2.053261	-0.048397
1233	6.1600e-01	-9.2532	-61.141775	0.000737	7.373279	2.498135	-0.058883
1234	6.1650e-01	-9.3029	-61.411992	0.000677	6.767256	2.292809	-0.054044
1235	6.1700e-01	-9.3366	-61.601548	0.000475	4.747180	1.608388	-0.037911
1236	6.1750e-01	-9.3783	-61.770938	0.000424	4.242161	1.437283	-0.033878
1237	6.1800e-01	-9.4136	-62.049222	0.000697	6.969264	2.361251	-0.055657
1238	6.1850e-01	-9.4537	-62.303307	0.000636	6.363241	2.155924	-0.050817
1239	6.1900e-01	-9.4987	-62.573525	0.000677	6.767256	2.292809	-0.054044
1240	6.1950e-01	-9.5372	-62.823577	0.000626	6.262237	2.121703	-0.050010
1241	6.2000e-01	-9.5773	-63.037331	0.000535	5.353203	1.813714	-0.042751
1242	6.2050e-01	-9.6078	-63.255118	0.000545	5.454207	1.847935	-0.043557
1243	6.2100e-01	-9.6575	-63.658428	0.001010	10.100383	3.422102	-0.080662
1244	6.2150e-01	-9.6928	-63.755223	0.000242	2.424092	0.821305	-0.019359
1245	6.2200e-01	-9.7329	-64.029473	0.000687	6.868260	2.327030	-0.054850
1246	6.2250e-01	-9.7714	-64.287592	0.000646	6.464245	2.190145	-0.051624
1247	6.2300e-01	-9.8195	-64.424717	0.000343	3.434130	1.163515	-0.027425
1248	6.2350e-01	-9.8532	-64.662670	0.000596	5.959226	2.019040	-0.047591
1249	6.2400e-01	-9.8917	-64.819961	0.000394	3.939149	1.334620	-0.031458
1250	6.2450e-01	-9.9334	-65.061947	0.000606	6.060230	2.053261	-0.048397
1251	6.2500e-01	-9.9751	-65.356363	0.000737	7.373279	2.498135	-0.058883
1252	6.2550e-01	-10.0120	-65.582216	0.000566	5.656214	1.916377	-0.045171
1253	6.2600e-01	-10.0505	-65.824202	0.000606	6.060230	2.053261	-0.048397
1254	6.2650e-01	-10.0906	-66.146850	0.000808	8.080306	2.737682	-0.064530
1255	6.2700e-01	-10.1371	-66.187181	0.000101	1.010038	0.342210	-0.008066
1256	6.2750e-01	-10.1837	-66.445299	0.000646	6.464245	2.190145	-0.051624
1257	6.2800e-01	-10.2190	-66.659054	0.000535	5.353203	1.813714	-0.042751
1258	6.2850e-01	-10.2430	-66.909106	0.000626	6.262237	2.121703	-0.050010
1259	6.2900e-01	-10.2863	-67.207555	0.000747	7.474283	2.532356	-0.059690
1260	6.2950e-01	-10.3393	-67.433409	0.000566	5.656214	1.916377	-0.045171
1261	6.3000e-01	-10.3746	-67.659262	0.000566	5.656214	1.916377	-0.045171
1262	6.3050e-01	-10.4195	-67.957711	0.000747	7.474283	2.532356	-0.059690
1263	6.3100e-01	-10.4548	-67.973844	0.000040	0.404015	0.136884	-0.003226
1264	6.3150e-01	-10.4949	-68.252128	0.000697	6.969264	2.361251	-0.055657
1265	6.3200e-01	-10.5382	-68.582842	0.000828	8.282314	2.806124	-0.066143
1266	6.3250e-01	-10.5687	-68.792563	0.000525	5.252199	1.779493	-0.041944
1267	6.3300e-01	-10.6200	-68.986152	0.000485	4.848184	1.642609	-0.038718
1268	6.3350e-01	-10.6553	-69.191840	0.000515	5.151195	1.745272	-0.041138
1269	6.3400e-01	-10.6954	-69.470123	0.000697	6.969264	2.361251	-0.055657
1270	6.3450e-01	-10.7323	-69.772606	0.000758	7.575287	2.566577	-0.060496
1271	6.3500e-01	-10.7756	-69.929897	0.000394	3.939149	1.334620	-0.031458
1272	6.3550e-01	-10.8173	-70.183982	0.000636	6.363241	2.155924	-0.050817
1273	6.3600e-01	-10.8574	-70.425968	0.000606	6.060230	2.053261	-0.048397
1274	6.3650e-01	-10.8992	-70.587292	0.000404	4.040153	1.368841	-0.032265
1275	6.3700e-01	-10.9361	-70.909940	0.000808	8.080306	2.737682	-0.064530
1276	6.3750e-01	-10.9746	-71.184190	0.000687	6.868260	2.327030	-0.054850
1277	6.3800e-01	-11.0131	-71.280985	0.000242	2.424092	0.821305	-0.019359
1278	6.3850e-01	-11.0516	-71.406011	0.000313	3.131119	1.060852	-0.025005
1279	6.3900e-01	-11.0933	-71.692361	0.000717	7.171272	2.429693	-0.057270
1280	6.3950e-01	-11.1302	-71.934347	0.000606	6.060230	2.053261	-0.048397
1281	6.4000e-01	-11.1639	-72.172299	0.000596	5.959226	2.019040	-0.047591
1282	6.4050e-01	-11.2136	-72.470749	0.000747	7.474283	2.532356	-0.059690
1283	6.4100e-01	-11.2505	-72.535278	0.000162	1.616061	0.547536	-0.012906
1284	6.4150e-01	-11.2890	-72.809529	0.000687	6.868260	2.327030	-0.054850
1285	6.4200e-01	-11.3291	-72.982952	0.000434	4.343165	1.471504	-0.034685
1286	6.4250e-01	-11.3788	-73.245104	0.000657	6.565249	2.224366	-0.052430
1287	6.4300e-01	-11.4173	-73.543553	0.000747	7.474283	2.532356	-0.059690
1288	6.4350e-01	-11.4558	-73.700844	0.000394	3.939149	1.334620	-0.031458
1289	6.4400e-01	-11.4959	-73.866201	0.000414	4.141157	1.403062	-0.033071
1290	6.4450e-01	-11.5392	-74.120286	0.000636	6.363241	2.155924	-0.050817
1291	6.4500e-01	-11.5649	-74.313875	0.000485	4.848184	1.642609	-0.038718
1292	6.4550e-01	-11.6179	-74.523596	0.000525	5.252199	1.779493	-0.041944
1293	6.4600e-01	-11.6660	-74.692986	0.000424	4.242161	1.437283	-0.033878
1294	6.4650e-01	-11.7061	-74.979336	0.000717	7.171272	2.429693	-0.057270
1295	6.4700e-01	-11.7366	-75.350381	0.000929	9.292352	3.148334	-0.074209
1296	6.4750e-01	-11.7735	-75.386679	0.000091	0.909034	0.307989	-0.007260
1297	6.4800e-01	-11.8216	-75.648830	0.000657	6.565249	2.224366	-0.052430
1298	6.4850e-01	-11.8537	-75.955346	0.000768	7.676291	2.600798	-0.061303
1299	6.4900e-01	-11.8906	-76.040041	0.000212	2.121080	0.718641	-0.016939
1300	6.4950e-01	-11.9291	-76.358656	0.000798	7.979302	2.703461	-0.063723
1301	6.5000e-01	-11.9820	-76.608708	0.000626	6.262237	2.121703	-0.050010
1302	6.5050e-01	-12.0125	-76.858760	0.000626	6.262237	2.121703	-0.050010
1303	6.5100e-01	-12.0606	-76.947488	0.000222	2.222084	0.752863	-0.017746
1304	6.5150e-01	-12.0863	-77.116878	0.000424	4.242161	1.437283	-0.033878
1305	6.5200e-01	-12.1392	-77.479857	0.000909	9.090344	3.079892	-0.072596
1306	6.5250e-01	-12.1793	-77.677479	0.000495	4.949188	1.676830	-0.039524
1307	6.5300e-01	-12.2146	-77.891233	0.000535	5.353203	1.813714	-0.042751
1308	6.5350e-01	-12.2579	-78.068690	0.000444	4.444168	1.505725	-0.035491
1309	6.5400e-01	-12.2932	-78.205815	0.000343	3.434130	1.163515	-0.027425
1310	6.5450e-01	-12.3414	-78.439735	0.000586	5.858222	1.984819	-0.046784
1311	6.5500e-01	-12.3734	-78.629290	0.000475	4.747180	1.608388	-0.037911
1312	6.5550e-01	-12.4136	-78.863210	0.000586	5.858222	1.984819	-0.046784
1313	6.5600e-01	-12.4585	-79.266520	0.001010	10.100383	3.422102	-0.080662
1314	6.5650e-01	-12.4954	-79.298785	0.000081	0.808031	0.273768	-0.006453
1315	6.5700e-01	-12.5371	-79.577069	0.000697	6.969264	2.361251	-0.055657
1316	6.5750e-01	-12.5756	-79.625466	0.000121	1.212046	0.410652	-0.009679
1317	6.5800e-01	-12.6285	-79.936014	0.000778	7.777295	2.635019	-0.062110
1318	6.5850e-01	-12.6606	-80.218331	0.000707	7.070268	2.395472	-0.056463
1319	6.5900e-01	-12.7039	-80.411920	0.000485	4.848184	1.642609	-0.038718
1320	6.5950e-01	-12.7424	-80.532913	0.000303	3.030115	1.026631	-0.024199
1321	6.6000e-01	-12.7745	-80.879759	0.000869	8.686329	2.943008	-0.069369
1322	6.6050e-01	-12.8258	-80.912024	0.000081	0.808031	0.273768	-0.006453
1323	6.6100e-01	-12.8483	-81.222573	0.000778	7.777295	2.635019	-0.062110
1324	6.6150e-01	-12.8932	-81.726710	0.001263	12.625478	4.277628	-0.100827
1325	6.6200e-01	-12.9301	-81.851736	0.000313	3.131119	1.060852	-0.025005
1326	6.6250e-01	-12.9766	-81.960630	0.000273	2.727103	0.923968	-0.021779
1327	6.6300e-01	-13.0135	-82.117921	0.000394	3.939149	1.334620	-0.031458
1328	6.6350e-01	-13.0536	-82.279245	0.000404	4.040153	1.368841	-0.032265
1329	6.6400e-01	-13.1018	-82.444602	0.000414	4.141157	1.403062	-0.033071
1330	6.6450e-01	-13.1306	-82.613992	0.000424	4.242161	1.437283	-0.033878
1331	6.6500e-01	-13.1691	-82.928573	0.000788	7.878299	2.669240	-0.062916
1332	6.6550e-01	-13.2076	-83.174592	0.000616	6.161233	2.087482	-0.049204
1333	6.6600e-01	-13.2445	-83.323817	0.000374	3.737142	1.266178	-0.029845
1334	6.6650e-01	-13.2911	-83.682763	0.000899	8.989341	3.045671	-0.071789
1335	6.6700e-01	-13.3376	-83.876352	0.000485	4.848184	1.642609	-0.038718
1336	6.6750e-01	-13.3713	-84.041709	0.000414	4.141157	1.403062	-0.033071
1337	6.6800e-01	-13.4178	-84.231264	0.000475	4.747180	1.608388	-0.037911
1338	6.6850e-01	-13.4547	-84.509548	0.000697	6.969264	2.361251	-0.055657
1339	6.6900e-01	-13.4964	-84.824130	0.000788	7.878299	2.669240	-0.062916
1340	6.6950e-01	-13.5301	-84.928990	0.000263	2.626100	0.889747	-0.020972
1341	6.7000e-01	-13.5734	-85.021752	0.000232	2.323088	0.787084	-0.018552
1342	6.7050e-01	-13.6167	-85.348433	0.000818	8.181310	2.771903	-0.065336
1343	6.7100e-01	-13.6600	-85.445227	0.000242	2.424092	0.821305	-0.019359
1344	6.7150e-01	-13.6953	-85.622683	0.000444	4.444168	1.505725	-0.035491
1345	6.7200e-01	-13.7370	-85.679147	0.000141	1.414054	0.479094	-0.011293
1346	6.7250e-01	-13.7755	-85.989695	0.000778	7.777295	2.635019	-0.062110
1347	6.7300e-01	-13.8124	-86.255880	0.000667	6.666253	2.258588	-0.053237
1348	6.7350e-01	-13.8477	-86.667256	0.001030	10.302390	3.490544	-0.082275
1349	6.7400e-01	-13.8959	-86.606759	-0.000152	-1.515057	-0.513315	0.012099
1350	6.7450e-01	-13.9263	-86.885043	0.000697	6.969264	2.361251	-0.055657
1351	6.7500e-01	-13.9745	-87.054433	0.000424	4.242161	1.437283	-0.033878
1352	6.7550e-01	-14.0162	-87.429512	0.000939	9.393356	3.182555	-0.075016
1353	6.7600e-01	-14.0467	-87.417412	-0.000030	-0.303011	-0.102663	0.002420
1354	6.7650e-01	-14.1012	-87.683597	0.000667	6.666253	2.258588	-0.053237
1355	6.7700e-01	-14.1333	-87.897351	0.000535	5.353203	1.813714	-0.042751
1356	6.7750e-01	-14.1718	-88.163535	0.000667	6.666253	2.258588	-0.053237
1357	6.7800e-01	-14.2135	-88.385356	0.000556	5.555211	1.882156	-0.044364
1358	6.7850e-01	-14.2536	-88.720103	0.000838	8.383318	2.840345	-0.066949
1359	6.7900e-01	-14.2969	-88.828997	0.000273	2.727103	0.923968	-0.021779
1360	6.7950e-01	-14.3338	-88.933857	0.000263	2.626100	0.889747	-0.020972
1361	6.8000e-01	-14.3691	-89.280704	0.000869	8.686329	2.943008	-0.069369
1362	6.8050e-01	-14.4221	-89.329101	0.000121	1.212046	0.410652	-0.009679
1363	6.8100e-01	-14.4606	-89.591252	0.000657	6.565249	2.224366	-0.052430
1364	6.8150e-01	-14.5055	-89.909867	0.000798	7.979302	2.703461	-0.063723
1365	6.8200e-01	-14.5376	-90.111522	0.000505	5.050191	1.711051	-0.040331
1366	6.8250e-01	-14.5777	-90.301078	0.000475	4.747180	1.608388	-0.037911
1367	6.8300e-01	-14.6114	-90.397872	0.000242	2.424092	0.821305	-0.019359
1368	6.8350e-01	-14.6499	-90.764884	0.000919	9.191348	3.114113	-0.073402
1369	6.8400e-01	-14.6948	-90.829414	0.000162	1.616061	0.547536	-0.012906
1370	6.8450e-01	-14.7365	-91.018969	0.000475	4.747180	1.608388	-0.037911
1371	6.8500e-01	-14.7686	-91.341617	0.000808	8.080306	2.737682	-0.064530
1372	6.8550e-01	-14.8247	-91.426312	0.000212	2.121080	0.718641	-0.016939
1373	6.8600e-01	-14.8568	-91.660232	0.000586	5.858222	1.984819	-0.046784
1374	6.8650e-01	-14.8985	-92.003045	0.000859	8.585325	2.908787	-0.068563
1375	6.8700e-01	-14.9370	-92.220833	0.000545	5.454207	1.847935	-0.043557
1376	6.8750e-01	-14.9755	-92.289395	0.000172	1.717065	0.581757	-0.013713
1377	6.8800e-01	-15.0108	-92.382157	0.000232	2.323088	0.787084	-0.018552
1378	6.8850e-01	-15.0493	-92.583812	0.000505	5.050191	1.711051	-0.040331
1379	6.8900e-01	-15.1006	-92.858062	0.000687	6.868260	2.327030	-0.054850
1380	6.8950e-01	-15.1327	-93.059717	0.000505	5.050191	1.711051	-0.040331
1381	6.9000e-01	-15.1696	-93.358166	0.000747	7.474283	2.532356	-0.059690
1382	6.9050e-01	-15.2161	-93.700980	0.000859	8.585325	2.908787	-0.068563
1383	6.9100e-01	-15.2546	-93.709046	0.000020	0.202008	0.068442	-0.001613
1384	6.9150e-01	-15.2980	-93.971197	0.000657	6.565249	2.224366	-0.052430
1385	6.9200e-01	-15.3300	-94.197051	0.000566	5.656214	1.916377	-0.045171
1386	6.9250e-01	-15.3702	-94.362408	0.000414	4.141157	1.403062	-0.033071
1387	6.9300e-01	-15.4119	-94.612460	0.000626	6.262237	2.121703	-0.050010
1388	6.9350e-01	-15.4520	-94.870578	0.000646	6.464245	2.190145	-0.051624
1389	6.9400e-01	-15.4921	-95.128697	0.000646	6.464245	2.190145	-0.051624
1390	6.9450e-01	-15.5290	-95.342451	0.000535	5.353203	1.813714	-0.042751
1391	6.9500e-01	-15.5819	-95.394881	0.000131	1.313050	0.444873	-0.010486
1392	6.9550e-01	-15.6124	-95.580404	0.000465	4.646176	1.574167	-0.037105
1393	6.9600e-01	-15.6589	-95.737695	0.000394	3.939149	1.334620	-0.031458
1394	6.9650e-01	-15.6958	-95.886919	0.000374	3.737142	1.266178	-0.029845
1395	6.9700e-01	-15.7407	-96.177302	0.000727	7.272276	2.463914	-0.058077
1396	6.9750e-01	-15.7744	-96.495917	0.000798	7.979302	2.703461	-0.063723
1397	6.9800e-01	-15.8145	-96.528182	0.000081	0.808031	0.273768	-0.006453
1398	6.9850e-01	-15.8530	-96.830664	0.000758	7.575287	2.566577	-0.060496
1399	6.9900e-01	-15.8883	-97.080716	0.000626	6.262237	2.121703	-0.050010
1400	6.9950e-01	-15.9316	-97.354967	0.000687	6.868260	2.327030	-0.054850
1401	7.0000e-01	-15.9798	-97.443695	0.000222	2.222084	0.752863	-0.017746
1402	7.0050e-01	-16.0199	-97.596953	0.000384	3.838145	1.300399	-0.030652
1403	7.0100e-01	-16.0439	-97.963965	0.000919	9.191348	3.114113	-0.073402
1404	7.0150e-01	-16.0953	-97.903469	-0.000152	-1.515057	-0.513315	0.012099
1405	7.0200e-01	-16.1370	-98.359209	0.001141	11.413432	3.866976	-0.091148
1406	7.0250e-01	-16.1659	-98.532632	0.000434	4.343165	1.471504	-0.034685
1407	7.0300e-01	-16.2140	-98.794783	0.000657	6.565249	2.224366	-0.052430
1408	7.0350e-01	-16.2557	-98.911743	0.000293	2.929111	0.992410	-0.023392
1409	7.0400e-01	-16.2894	-99.125497	0.000535	5.353203	1.813714	-0.042751
1410	7.0450e-01	-16.3327	-99.335219	0.000525	5.252199	1.779493	-0.041944
1411	7.0500e-01	-16.3776	-99.427980	0.000232	2.323088	0.787084	-0.018552
1412	7.0550e-01	-16.4177	-99.532840	0.000263	2.626100	0.889747	-0.020972
1413	7.0600e-01	-16.4530	-100.016812	0.001212	12.120459	4.106523	-0.096794
1414	7.0650e-01	-16.4899	-100.149904	0.000333	3.333126	1.129294	-0.026618
1415	7.0700e-01	-16.5284	-100.399957	0.000626	6.262237	2.121703	-0.050010
1416	7.0750e-01	-16.5733	-100.613711	0.000535	5.353203	1.813714	-0.042751
1417	7.0800e-01	-16.6182	-100.658075	0.000111	1.111042	0.376431	-0.008873
1418	7.0850e-01	-16.6584	-101.041219	0.000960	9.595364	3.250997	-0.076629
1419	7.0900e-01	-16.6953	-101.133981	0.000232	2.323088	0.787084	-0.018552
1420	7.0950e-01	-16.7273	-101.428397	0.000737	7.373279	2.498135	-0.058883
1421	7.1000e-01	-16.7787	-101.634085	0.000515	5.151195	1.745272	-0.041138
1422	7.1050e-01	-16.8075	-101.892203	0.000646	6.464245	2.190145	-0.051624
1423	7.1100e-01	-16.8589	-102.073693	0.000455	4.545172	1.539946	-0.036298
1424	7.1150e-01	-16.8942	-102.283414	0.000525	5.252199	1.779493	-0.041944
1425	7.1200e-01	-16.9343	-102.545565	0.000657	6.565249	2.224366	-0.052430
1426	7.1250e-01	-16.9744	-102.771419	0.000566	5.656214	1.916377	-0.045171
1427	7.1300e-01	-17.0161	-103.053735	0.000707	7.070268	2.395472	-0.056463
1428	7.1350e-01	-17.0578	-103.106166	0.000131	1.313050	0.444873	-0.010486
1429	7.1400e-01	-17.0963	-103.259424	0.000384	3.838145	1.300399	-0.030652
1430	7.1450e-01	-17.1220	-103.489310	0.000576	5.757218	1.950598	-0.045977
1431	7.1500e-01	-17.1749	-103.767594	0.000697	6.969264	2.361251	-0.055657
1432	7.1550e-01	-17.2102	-103.848256	0.000202	2.020077	0.684420	-0.016132
1433	7.1600e-01	-17.2519	-104.082176	0.000586	5.858222	1.984819	-0.046784
1434	7.1650e-01	-17.2984	-104.251566	0.000424	4.242161	1.437283	-0.033878
1435	7.1700e-01	-17.3353	-104.493552	0.000606	6.060230	2.053261	-0.048397
1436	7.1750e-01	-17.3754	-104.735538	0.000606	6.060230	2.053261	-0.048397
1437	7.1800e-01	-17.4075	-105.126748	0.000980	9.797371	3.319439	-0.078242
1438	7.1850e-01	-17.4524	-105.267907	0.000354	3.535134	1.197736	-0.028232
1439	7.1900e-01	-17.5006	-105.380833	0.000283	2.828107	0.958189	-0.022585
1440	7.1950e-01	-17.5375	-105.574422	0.000485	4.848184	1.642609	-0.038718
1441	7.2000e-01	-17.5760	-105.909169	0.000838	8.383318	2.840345	-0.066949
1442	7.2050e-01	-17.6129	-106.034195	0.000313	3.131119	1.060852	-0.025005
1443	7.2100e-01	-17.6578	-106.296347	0.000657	6.565249	2.224366	-0.052430
1444	7.2150e-01	-17.6979	-106.530266	0.000586	5.858222	1.984819	-0.046784
1445	7.2200e-01	-17.7396	-106.840815	0.000778	7.777295	2.635019	-0.062110
1446	7.2250e-01	-17.7813	-106.933576	0.000232	2.323088	0.787084	-0.018552
1447	7.2300e-01	-17.8102	-107.191695	0.000646	6.464245	2.190145	-0.051624
1448	7.2350e-01	-17.8615	-107.397383	0.000515	5.151195	1.745272	-0.041138
1449	7.2400e-01	-17.8968	-107.595005	0.000495	4.949188	1.676830	-0.039524
1450	7.2450e-01	-17.9289	-107.772461	0.000444	4.444168	1.505725	-0.035491
1451	7.2500e-01	-17.9770	-107.974116	0.000505	5.050191	1.711051	-0.040331
1452	7.2550e-01	-18.0171	-108.216102	0.000606	6.060230	2.053261	-0.048397
1453	7.2600e-01	-18.0556	-108.308863	0.000232	2.323088	0.787084	-0.018552
1454	7.2650e-01	-18.1022	-108.635544	0.000818	8.181310	2.771903	-0.065336
1455	7.2700e-01	-18.1375	-108.813000	0.000444	4.444168	1.505725	-0.035491
1456	7.2750e-01	-18.1824	-109.107416	0.000737	7.373279	2.498135	-0.058883
1457	7.2800e-01	-18.2129	-109.333270	0.000566	5.656214	1.916377	-0.045171
1458	7.2850e-01	-18.2417	-109.579289	0.000616	6.161233	2.087482	-0.049204
1459	7.2900e-01	-18.3027	-109.684150	0.000263	2.626100	0.889747	-0.020972
1460	7.2950e-01	-18.3364	-109.998731	0.000788	7.878299	2.669240	-0.062916
1461	7.3000e-01	-18.3781	-110.067294	0.000172	1.717065	0.581757	-0.013713
1462	7.3050e-01	-18.4182	-110.349611	0.000707	7.070268	2.395472	-0.056463
1463	7.3100e-01	-18.4615	-110.615795	0.000667	6.666253	2.258588	-0.053237
1464	7.3150e-01	-18.4856	-110.861814	0.000616	6.161233	2.087482	-0.049204
1465	7.3200e-01	-18.5337	-111.144131	0.000707	7.070268	2.395472	-0.056463
1466	7.3250e-01	-18.5722	-111.293356	0.000374	3.737142	1.266178	-0.029845
1467	7.3300e-01	-18.6139	-111.454680	0.000404	4.040153	1.368841	-0.032265
1468	7.3350e-01	-18.6540	-111.829758	0.000939	9.393356	3.182555	-0.075016
1469	7.3400e-01	-18.6989	-112.108042	0.000697	6.969264	2.361251	-0.055657
1470	7.3450e-01	-18.7294	-112.120141	0.000030	0.303011	0.102663	-0.002420
1471	7.3500e-01	-18.7791	-112.386326	0.000667	6.666253	2.258588	-0.053237
1472	7.3550e-01	-18.8096	-112.664609	0.000697	6.969264	2.361251	-0.055657
1473	7.3600e-01	-18.8529	-113.023555	0.000899	8.989341	3.045671	-0.071789
1474	7.3650e-01	-18.8882	-113.080019	0.000141	1.414054	0.479094	-0.011293
1475	7.3700e-01	-18.9267	-113.350236	0.000677	6.767256	2.292809	-0.054044
1476	7.3750e-01	-18.9717	-113.459130	0.000273	2.727103	0.923968	-0.021779
1477	7.3800e-01	-19.0134	-113.684983	0.000566	5.656214	1.916377	-0.045171
1478	7.3850e-01	-19.0503	-114.152823	0.001172	11.716444	3.969639	-0.093568
1479	7.3900e-01	-19.0968	-114.265750	0.000283	2.828107	0.958189	-0.022585
1480	7.3950e-01	-19.1321	-114.423040	0.000394	3.939149	1.334620	-0.031458
1481	7.4000e-01	-19.1802	-114.499669	0.000192	1.919073	0.650199	-0.015326
1482	7.4050e-01	-19.2203	-115.011873	0.001283	12.827486	4.346070	-0.102441
1483	7.4100e-01	-19.2476	-115.112700	0.000253	2.525096	0.855526	-0.020165
1484	7.4150e-01	-19.3005	-115.322421	0.000525	5.252199	1.779493	-0.041944
1485	7.4200e-01	-19.3406	-115.737831	0.001040	10.403394	3.524765	-0.083082
1486	7.4250e-01	-19.3759	-115.891088	0.000384	3.838145	1.300399	-0.030652
1487	7.4300e-01	-19.4160	-116.145174	0.000636	6.363241	2.155924	-0.050817
1488	7.4350e-01	-19.4529	-116.395226	0.000626	6.262237	2.121703	-0.050010
1489	7.4400e-01	-19.4882	-116.681576	0.000717	7.171272	2.429693	-0.057270
1490	7.4450e-01	-19.5347	-116.746105	0.000162	1.616061	0.547536	-0.012906
1491	7.4500e-01	-19.5732	-116.959859	0.000535	5.353203	1.813714	-0.042751
1492	7.4550e-01	-19.6214	-117.080852	0.000303	3.030115	1.026631	-0.024199
1493	7.4600e-01	-19.6551	-117.431732	0.000879	8.787333	2.977229	-0.070176
1494	7.4650e-01	-19.6920	-117.718082	0.000717	7.171272	2.429693	-0.057270
1495	7.4700e-01	-19.7337	-117.972167	0.000636	6.363241	2.155924	-0.050817
1496	7.4750e-01	-19.7754	-118.109293	0.000343	3.434130	1.163515	-0.027425
1497	7.4800e-01	-19.8139	-118.375477	0.000667	6.666253	2.258588	-0.053237
1498	7.4850e-01	-19.8508	-118.629562	0.000636	6.363241	2.155924	-0.050817
1499	7.4900e-01	-19.8973	-118.891714	0.000657	6.565249	2.224366	-0.052430
1500	7.4950e-01	-19.9326	-119.028839	0.000343	3.434130	1.163515	-0.027425
1501	7.5000e-01	-19.9823	-119.214362	0.000465	4.646176	1.574167	-0.037105
1502	7.5050e-01	-19.9743	-119.428116	-0.000535	-5.353203	-1.813714	-0.042751
1503	7.5100e-01	-19.9599	-119.472480	-0.000111	-1.111042	-0.376431	-0.008873
1504	7.5150e-01	-19.9230	-119.359553	0.000283	2.828107	0.958189	0.022585
1505	7.5200e-01	-19.8684	-119.278891	0.000202	2.020077	0.684420	0.016132
1506	7.5250e-01	-19.8315	-119.101435	0.000444	4.444168	1.505725	0.035491
1507	7.5300e-01	-19.7946	-118.992541	0.000273	2.727103	0.923968	0.021779
1508	7.5350e-01	-19.7593	-119.049005	-0.000141	-1.414054	-0.479094	-0.011293
1509	7.5400e-01	-19.7240	-118.750555	0.000747	7.474283	2.532356	0.059690
1510	7.5450e-01	-19.6839	-118.774754	-0.000061	-0.606023	-0.205326	-0.004840
1511	7.5500e-01	-19.6358	-118.617463	0.000394	3.939149	1.334620	0.031458
1512	7.5550e-01	-19.6053	-118.423874	0.000485	4.848184	1.642609	0.038718
1513	7.5600e-01	-19.5620	-118.355312	0.000172	1.717065	0.581757	0.013713
1514	7.5650e-01	-19.5091	-118.327080	0.000071	0.707027	0.239547	0.005646
1515	7.5700e-01	-19.4834	-118.177855	0.000374	3.737142	1.266178	0.029845
1516	7.5750e-01	-19.4369	-118.093160	0.000212	2.121080	0.718641	0.016939
1517	7.5800e-01	-19.3952	-118.089127	0.000010	0.101004	0.034221	0.000807
1518	7.5850e-01	-19.3631	-117.544659	0.001364	13.635517	4.619838	0.108894
1519	7.5900e-01	-19.3214	-117.625321	-0.000202	-2.020077	-0.684420	-0.016132
1520	7.5950e-01	-19.2797	-117.524493	0.000253	2.525096	0.855526	0.020165
1521	7.6000e-01	-19.2396	-117.383335	0.000354	3.535134	1.197736	0.028232
1522	7.6050e-01	-19.1930	-117.217978	0.000414	4.141157	1.403062	0.033071
1523	7.6100e-01	-19.1594	-117.060687	0.000394	3.939149	1.334620	0.031458
1524	7.6150e-01	-19.1176	-116.996157	0.000162	1.616061	0.547536	0.012906
1525	7.6200e-01	-19.0791	-116.754171	0.000606	6.060230	2.053261	0.048397
1526	7.6250e-01	-19.0294	-116.629145	0.000313	3.131119	1.060852	0.025005
1527	7.6300e-01	-19.0021	-116.596881	0.000081	0.808031	0.273768	0.006453
1528	7.6350e-01	-18.9652	-116.358928	0.000596	5.959226	2.019040	0.047591
1529	7.6400e-01	-18.9171	-116.241968	0.000293	2.929111	0.992410	0.023392
1530	7.6450e-01	-18.8802	-116.096776	0.000364	3.636138	1.231957	0.029038
1531	7.6500e-01	-18.8385	-115.979817	0.000293	2.929111	0.992410	0.023392
1532	7.6550e-01	-18.7968	-115.774128	0.000515	5.151195	1.745272	0.041138
1533	7.6600e-01	-18.7647	-115.669268	0.000263	2.626100	0.889747	0.020972
1534	7.6650e-01	-18.7102	-115.641036	0.000071	0.707027	0.239547	0.005646
1535	7.6700e-01	-18.6813	-115.382918	0.000646	6.464245	2.190145	0.051624
1536	7.6750e-01	-18.6396	-115.233693	0.000374	3.737142	1.266178	0.029845
1537	7.6800e-01	-18.6043	-114.999774	0.000586	5.858222	1.984819	0.046784
1538	7.6850e-01	-18.5674	-114.975575	0.000061	0.606023	0.205326	0.004840
1539	7.6900e-01	-18.5193	-114.907012	0.000172	1.717065	0.581757	0.013713
1540	7.6950e-01	-18.4743	-114.648894	0.000646	6.464245	2.190145	0.051624
1541	7.7000e-01	-18.4439	-114.354478	0.000737	7.373279	2.498135	0.058883
1542	7.7050e-01	-18.4022	-114.370610	-0.000040	-0.404015	-0.136884	-0.003226
1543	7.7100e-01	-18.3556	-114.132657	0.000596	5.959226	2.019040	0.047591
1544	7.7150e-01	-18.3139	-114.096359	0.000091	0.909034	0.307989	0.007260
1545	7.7200e-01	-18.2802	-113.914870	0.000455	4.545172	1.539946	0.036298
1546	7.7250e-01	-18.2417	-113.769678	0.000364	3.636138	1.231957	0.029038
1547	7.7300e-01	-18.1968	-113.624487	0.000364	3.636138	1.231957	0.029038
1548	7.7350e-01	-18.1679	-113.487362	0.000343	3.434130	1.163515	0.027425
1549	7.7400e-01	-18.1182	-113.338137	0.000374	3.737142	1.266178	0.029845
1550	7.7450e-01	-18.0845	-113.128416	0.000525	5.252199	1.779493	0.041944
1551	7.7500e-01	-18.0364	-112.906595	0.000556	5.555211	1.882156	0.044364
1552	7.7550e-01	-18.0075	-112.858198	0.000121	1.212046	0.410652	0.009679
1553	7.7600e-01	-17.9642	-112.781569	0.000192	1.919073	0.650199	0.015326
1554	7.7650e-01	-17.9241	-112.567815	0.000535	5.353203	1.813714	0.042751
1555	7.7700e-01	-17.8824	-112.341962	0.000566	5.656214	1.916377	0.045171
1556	7.7750e-01	-17.8439	-112.204836	0.000343	3.434130	1.163515	0.027425
1557	7.7800e-01	-17.8006	-111.995115	0.000525	5.252199	1.779493	0.041944
1558	7.7850e-01	-17.7540	-111.837824	0.000394	3.939149	1.334620	0.031458
1559	7.7900e-01	-17.7139	-111.809593	0.000071	0.707027	0.239547	0.005646
1560	7.7950e-01	-17.6802	-111.563574	0.000616	6.161233	2.087482	0.049204
1561	7.8000e-01	-17.6417	-111.495011	0.000172	1.717065	0.581757	0.013713
1562	7.8050e-01	-17.6000	-111.232859	0.000657	6.565249	2.224366	0.052430
1563	7.8100e-01	-17.5615	-110.974741	0.000646	6.464245	2.190145	0.051624
1564	7.8150e-01	-17.5262	-110.978774	-0.000010	-0.101004	-0.034221	-0.000807
1565	7.8200e-01	-17.4813	-110.797285	0.000455	4.545172	1.539946	0.036298
1566	7.8250e-01	-17.4364	-110.543200	0.000636	6.363241	2.155924	0.050817
1567	7.8300e-01	-17.4027	-110.393975	0.000374	3.737142	1.266178	0.029845
1568	7.8350e-01	-17.3658	-110.184254	0.000525	5.252199	1.779493	0.041944
1569	7.8400e-01	-17.3241	-110.043095	0.000354	3.535134	1.197736	0.028232
1570	7.8450e-01	-17.2760	-109.946301	0.000242	2.424092	0.821305	0.019359
1571	7.8500e-01	-17.2471	-109.797076	0.000374	3.737142	1.266178	0.029845
1572	7.8550e-01	-17.1942	-109.676083	0.000303	3.030115	1.026631	0.024199
1573	7.8600e-01	-17.1589	-109.591388	0.000212	2.121080	0.718641	0.016939
1574	7.8650e-01	-17.1284	-109.208244	0.000960	9.595364	3.250997	0.076629
1575	7.8700e-01	-17.0722	-109.151781	0.000141	1.414054	0.479094	0.011293
1576	7.8750e-01	-17.0434	-108.978357	0.000434	4.343165	1.471504	0.034685
1577	7.8800e-01	-17.0017	-108.736371	0.000606	6.060230	2.053261	0.048397
1578	7.8850e-01	-16.9583	-108.627478	0.000273	2.727103	0.923968	0.021779
1579	7.8900e-01	-16.9231	-108.429856	0.000495	4.949188	1.676830	0.039524
1580	7.8950e-01	-16.8781	-108.296764	0.000333	3.333126	1.129294	0.026618
1581	7.9000e-01	-16.8300	-108.199969	0.000242	2.424092	0.821305	0.019359
1582	7.9050e-01	-16.8092	-107.982182	0.000545	5.454207	1.847935	0.043557
1583	7.9100e-01	-16.7562	-107.849090	0.000333	3.333126	1.129294	0.026618
1584	7.9150e-01	-16.7225	-107.514343	0.000838	8.383318	2.840345	0.066949
1585	7.9200e-01	-16.6872	-107.421581	0.000232	2.323088	0.787084	0.018552
1586	7.9250e-01	-16.6327	-107.260257	0.000404	4.040153	1.368841	0.032265
1587	7.9300e-01	-16.6022	-107.175562	0.000212	2.121080	0.718641	0.016939
1588	7.9350e-01	-16.5621	-107.074735	0.000253	2.525096	0.855526	0.020165
1589	7.9400e-01	-16.5204	-106.768219	0.000768	7.676291	2.600798	0.061303
1590	7.9450e-01	-16.4803	-106.667392	0.000253	2.525096	0.855526	0.020165
1591	7.9500e-01	-16.4370	-106.473803	0.000485	4.848184	1.642609	0.038718
1592	7.9550e-01	-16.3888	-106.268115	0.000515	5.151195	1.745272	0.041138
1593	7.9600e-01	-16.3616	-106.195519	0.000182	1.818069	0.615978	0.014519
1594	7.9650e-01	-16.3215	-105.989831	0.000515	5.151195	1.745272	0.041138
1595	7.9700e-01	-16.2846	-105.755912	0.000586	5.858222	1.984819	0.046784
1596	7.9750e-01	-16.2348	-105.630885	0.000313	3.131119	1.060852	0.025005
1597	7.9800e-01	-16.2028	-105.469562	0.000404	4.040153	1.368841	0.032265
1598	7.9850e-01	-16.1626	-105.336469	0.000333	3.333126	1.129294	0.026618
1599	7.9900e-01	-16.1241	-105.271940	0.000162	1.616061	0.547536	0.012906
1600	7.9950e-01	-16.0824	-104.985590	0.000717	7.171272	2.429693	0.057270
1601	8.0000e-01	-16.0423	-104.763769	0.000556	5.555211	1.882156	0.044364
1602	8.0050e-01	-15.9958	-104.775869	-0.000030	-0.303011	-0.102663	-0.002420
1603	8.0100e-01	-15.9605	-104.477419	0.000747	7.474283	2.532356	0.059690
1604	8.0150e-01	-15.9220	-104.187036	0.000727	7.272276	2.463914	0.058077
1605	8.0200e-01	-15.8755	-104.066043	0.000303	3.030115	1.026631	0.024199
1606	8.0250e-01	-15.8418	-103.949083	0.000293	2.929111	0.992410	0.023392
1607	8.0300e-01	-15.7953	-103.807925	0.000354	3.535134	1.197736	0.028232
1608	8.0350e-01	-15.7616	-103.481244	0.000818	8.181310	2.771903	0.065336
1609	8.0400e-01	-15.7167	-103.360251	0.000303	3.030115	1.026631	0.024199
1610	8.0450e-01	-15.6894	-103.077934	0.000707	7.070268	2.395472	0.056463
1611	8.0500e-01	-15.6300	-102.956941	0.000303	3.030115	1.026631	0.024199
1612	8.0550e-01	-15.5996	-102.827882	0.000323	3.232122	1.095073	0.025812
1613	8.0600e-01	-15.5627	-102.670591	0.000394	3.939149	1.334620	0.031458
1614	8.0650e-01	-15.5226	-102.384241	0.000717	7.171272	2.429693	0.057270
1615	8.0700e-01	-15.4841	-102.271314	0.000283	2.828107	0.958189	0.022585
1616	8.0750e-01	-15.4456	-102.057560	0.000535	5.353203	1.813714	0.042751
1617	8.0800e-01	-15.3974	-102.065626	-0.000020	-0.202008	-0.068442	-0.001613
1618	8.0850e-01	-15.3573	-101.980931	0.000212	2.121080	0.718641	0.016939
1619	8.0900e-01	-15.3188	-101.678449	0.000758	7.575287	2.566577	0.060496
1620	8.0950e-01	-15.2803	-101.367900	0.000778	7.777295	2.635019	0.062110
1621	8.1000e-01	-15.2434	-101.283205	0.000212	2.121080	0.718641	0.016939
1622	8.1050e-01	-15.2017	-101.061385	0.000556	5.555211	1.882156	0.044364
1623	8.1100e-01	-15.1520	-100.791167	0.000677	6.767256	2.292809	0.054044
1624	8.1150e-01	-15.1199	-100.742770	0.000121	1.212046	0.410652	0.009679
1625	8.1200e-01	-15.0814	-100.541115	0.000505	5.050191	1.711051	0.040331
1626	8.1250e-01	-15.0397	-100.258798	0.000707	7.070268	2.395472	0.056463
1627	8.1300e-01	-15.0012	-100.073276	0.000465	4.646176	1.574167	0.037105
1628	8.1350e-01	-14.9595	-99.984547	0.000222	2.222084	0.752863	0.017746
1629	8.1400e-01	-14.9178	-99.790959	0.000485	4.848184	1.642609	0.038718
1630	8.1450e-01	-14.8857	-99.456212	0.000838	8.383318	2.840345	0.066949
1631	8.1500e-01	-14.8375	-99.383616	0.000182	1.818069	0.615978	0.014519
1632	8.1550e-01	-14.7942	-99.169862	0.000535	5.353203	1.813714	0.042751
1633	8.1600e-01	-14.7509	-99.133564	0.000091	0.909034	0.307989	0.007260
1634	8.1650e-01	-14.7204	-98.899644	0.000586	5.858222	1.984819	0.046784
1635	8.1700e-01	-14.6787	-98.681857	0.000545	5.454207	1.847935	0.043557
1636	8.1750e-01	-14.6338	-98.669757	0.000030	0.303011	0.102663	0.002420
1637	8.1800e-01	-14.5937	-98.484235	0.000465	4.646176	1.574167	0.037105
1638	8.1850e-01	-14.5584	-98.254348	0.000576	5.757218	1.950598	0.045977
1639	8.1900e-01	-14.5183	-98.020428	0.000586	5.858222	1.984819	0.046784
1640	8.1950e-01	-14.4734	-97.871204	0.000374	3.737142	1.266178	0.029845
1641	8.2000e-01	-14.4365	-97.665516	0.000515	5.151195	1.745272	0.041138
1642	8.2050e-01	-14.3916	-97.576788	0.000222	2.222084	0.752863	0.017746
1643	8.2100e-01	-14.3691	-97.302537	0.000687	6.868260	2.327030	0.054850
1644	8.2150e-01	-14.3114	-97.104915	0.000495	4.949188	1.676830	0.039524
1645	8.2200e-01	-14.2680	-97.012154	0.000232	2.323088	0.787084	0.018552
1646	8.2250e-01	-14.2344	-96.745969	0.000667	6.666253	2.258588	0.053237
1647	8.2300e-01	-14.1926	-96.463652	0.000707	7.070268	2.395472	0.056463
1648	8.2350e-01	-14.1574	-96.439454	0.000061	0.606023	0.205326	0.004840
1649	8.2400e-01	-14.1189	-96.217633	0.000556	5.555211	1.882156	0.044364
1650	8.2450e-01	-14.0739	-96.040177	0.000444	4.444168	1.505725	0.035491
1651	8.2500e-01	-14.0386	-95.890952	0.000374	3.737142	1.266178	0.029845
1652	8.2550e-01	-13.9953	-95.737695	0.000384	3.838145	1.300399	0.030652
1653	8.2600e-01	-13.9600	-95.503775	0.000586	5.858222	1.984819	0.046784
1654	8.2650e-01	-13.9167	-95.294054	0.000525	5.252199	1.779493	0.041944
1655	8.2700e-01	-13.8734	-95.080300	0.000535	5.353203	1.813714	0.042751
1656	8.2750e-01	-13.8365	-94.818148	0.000657	6.565249	2.224366	0.052430
1657	8.2800e-01	-13.8012	-94.592295	0.000566	5.656214	1.916377	0.045171
1658	8.2850e-01	-13.7595	-94.608427	-0.000040	-0.404015	-0.136884	-0.003226
1659	8.2900e-01	-13.7066	-94.370474	0.000596	5.959226	2.019040	0.047591
1660	8.2950e-01	-13.6857	-94.205117	0.000414	4.141157	1.403062	0.033071
1661	8.3000e-01	-13.6312	-94.039760	0.000414	4.141157	1.403062	0.033071
1662	8.3050e-01	-13.5991	-93.987330	0.000131	1.313050	0.444873	0.010486
1663	8.3100e-01	-13.5494	-93.717112	0.000677	6.767256	2.292809	0.054044
1664	8.3150e-01	-13.5173	-93.422696	0.000737	7.373279	2.498135	0.058883
1665	8.3200e-01	-13.4836	-93.168611	0.000636	6.363241	2.155924	0.050817
1666	8.3250e-01	-13.4354	-93.023419	0.000364	3.636138	1.231957	0.029038
1667	8.3300e-01	-13.3953	-92.700771	0.000808	8.080306	2.737682	0.064530
1668	8.3350e-01	-13.3568	-92.628176	0.000182	1.818069	0.615978	0.014519
1669	8.3400e-01	-13.3199	-92.487017	0.000354	3.535134	1.197736	0.028232
1670	8.3450e-01	-13.2814	-92.446686	0.000101	1.010038	0.342210	0.008066
1671	8.3500e-01	-13.2285	-92.184535	0.000657	6.565249	2.224366	0.052430
1672	8.3550e-01	-13.2012	-92.015145	0.000424	4.242161	1.437283	0.033878
1673	8.3600e-01	-13.1531	-91.724762	0.000727	7.272276	2.463914	0.058077
1674	8.3650e-01	-13.1066	-91.535206	0.000475	4.747180	1.608388	0.037911
1675	8.3700e-01	-13.0809	-91.349683	0.000465	4.646176	1.574167	0.037105
1676	8.3750e-01	-13.0312	-91.228690	0.000303	3.030115	1.026631	0.024199
1677	8.3800e-01	-12.9959	-91.055267	0.000434	4.343165	1.471504	0.034685
1678	8.3850e-01	-12.9606	-90.728586	0.000818	8.181310	2.771903	0.065336
1679	8.3900e-01	-12.9125	-90.409971	0.000798	7.979302	2.703461	0.063723
1680	8.3950e-01	-12.8756	-90.393839	0.000040	0.404015	0.136884	0.003226
1681	8.4000e-01	-12.8387	-90.155886	0.000596	5.959226	2.019040	0.047591
1682	8.4050e-01	-12.8018	-90.055059	0.000253	2.525096	0.855526	0.020165
1683	8.4100e-01	-12.7633	-89.684014	0.000929	9.292352	3.148334	0.074209
1684	8.4150e-01	-12.7119	-89.688047	-0.000010	-0.101004	-0.034221	-0.000807
1685	8.4200e-01	-12.6750	-89.401697	0.000717	7.171272	2.429693	0.057270
1686	8.4250e-01	-12.6381	-89.288770	0.000283	2.828107	0.958189	0.022585
1687	8.4300e-01	-12.5964	-89.187942	0.000253	2.525096	0.855526	0.020165
1688	8.4350e-01	-12.5547	-88.889493	0.000747	7.474283	2.532356	0.059690
1689	8.4400e-01	-12.5162	-88.651540	0.000596	5.959226	2.019040	0.047591
1690	8.4450e-01	-12.4745	-88.522481	0.000323	3.232122	1.095073	0.025812
1691	8.4500e-01	-12.4488	-88.429720	0.000232	2.323088	0.787084	0.018552
1692	8.4550e-01	-12.4039	-88.046576	0.000960	9.595364	3.250997	0.076629
1693	8.4600e-01	-12.3654	-87.869119	0.000444	4.444168	1.505725	0.035491
1694	8.4650e-01	-12.3141	-87.655365	0.000535	5.353203	1.813714	0.042751
1695	8.4700e-01	-12.2788	-87.449677	0.000515	5.151195	1.745272	0.041138
1696	8.4750e-01	-12.2355	-87.235923	0.000535	5.353203	1.813714	0.042751
1697	8.4800e-01	-12.1954	-87.219790	0.000040	0.404015	0.136884	0.003226
1698	8.4850e-01	-12.1633	-87.030235	0.000475	4.747180	1.608388	0.037911
1699	8.4900e-01	-12.1152	-86.663223	0.000919	9.191348	3.114113	0.073402
1700	8.4950e-01	-12.0783	-86.518031	0.000364	3.636138	1.231957	0.029038
1701	8.5000e-01	-12.0334	-86.284111	0.000586	5.858222	1.984819	0.046784
1702	8.5050e-01	-12.0013	-86.126821	0.000394	3.939149	1.334620	0.031458
1703	8.5100e-01	-11.9515	-85.945331	0.000455	4.545172	1.539946	0.036298
1704	8.5150e-01	-11.9066	-85.868702	0.000192	1.919073	0.650199	0.015326
1705	8.5200e-01	-11.8777	-85.731577	0.000343	3.434130	1.163515	0.027425
1706	8.5250e-01	-11.8344	-85.332300	0.001000	9.999379	3.387881	0.079855
1707	8.5300e-01	-11.7959	-85.114513	0.000545	5.454207	1.847935	0.043557
1708	8.5350e-01	-11.7574	-85.041917	0.000182	1.818069	0.615978	0.014519
1709	8.5400e-01	-11.7157	-84.880593	0.000404	4.040153	1.368841	0.032265
1710	8.5450e-01	-11.6804	-84.630541	0.000626	6.262237	2.121703	0.050010
1711	8.5500e-01	-11.6435	-84.372423	0.000646	6.464245	2.190145	0.051624
1712	8.5550e-01	-11.5954	-84.178834	0.000485	4.848184	1.642609	0.038718
1713	8.5600e-01	-11.5617	-83.912650	0.000667	6.666253	2.258588	0.053237
1714	8.5650e-01	-11.5168	-83.706961	0.000515	5.151195	1.745272	0.041138
1715	8.5700e-01	-11.4735	-83.549671	0.000394	3.939149	1.334620	0.031458
1716	8.5750e-01	-11.4366	-83.404479	0.000364	3.636138	1.231957	0.029038
1717	8.5800e-01	-11.3965	-83.319784	0.000212	2.121080	0.718641	0.016939
1718	8.5850e-01	-11.3660	-82.985037	0.000838	8.383318	2.840345	0.066949
1719	8.5900e-01	-11.3050	-82.791448	0.000485	4.848184	1.642609	0.038718
1720	8.5950e-01	-11.2778	-82.569628	0.000556	5.555211	1.882156	0.044364
1721	8.6000e-01	-11.2312	-82.456701	0.000283	2.828107	0.958189	0.022585
1722	8.6050e-01	-11.1927	-82.347807	0.000273	2.727103	0.923968	0.021779
1723	8.6100e-01	-11.1606	-82.009027	0.000848	8.484321	2.874566	0.067756
1724	8.6150e-01	-11.1157	-81.819471	0.000475	4.747180	1.608388	0.037911
1725	8.6200e-01	-11.0740	-81.553287	0.000667	6.666253	2.258588	0.053237
1726	8.6250e-01	-11.0419	-81.383897	0.000424	4.242161	1.437283	0.033878
1727	8.6300e-01	-11.0018	-81.061249	0.000808	8.080306	2.737682	0.064530
1728	8.6350e-01	-10.9521	-81.105613	-0.000111	-1.111042	-0.376431	-0.008873
1729	8.6400e-01	-10.9040	-80.984620	0.000303	3.030115	1.026631	0.024199
1730	8.6450e-01	-10.8783	-80.629707	0.000889	8.888337	3.011450	0.070983
1731	8.6500e-01	-10.8350	-80.278828	0.000879	8.787333	2.977229	0.070176
1732	8.6550e-01	-10.7997	-80.234464	0.000111	1.111042	0.376431	0.008873
1733	8.6600e-01	-10.7708	-80.000544	0.000586	5.858222	1.984819	0.046784
1734	8.6650e-01	-10.7131	-79.895683	0.000263	2.626100	0.889747	0.020972
1735	8.6700e-01	-10.6810	-79.714194	0.000455	4.545172	1.539946	0.036298
1736	8.6750e-01	-10.6345	-79.484307	0.000576	5.757218	1.950598	0.045977
1737	8.6800e-01	-10.6008	-79.129395	0.000889	8.888337	3.011450	0.070983
1738	8.6850e-01	-10.5575	-78.758350	0.000929	9.292352	3.148334	0.074209
1739	8.6900e-01	-10.5174	-78.552661	0.000515	5.151195	1.745272	0.041138
1740	8.6950e-01	-10.4660	-78.613158	-0.000152	-1.515057	-0.513315	-0.012099
1741	8.7000e-01	-10.4355	-78.371172	0.000606	6.060230	2.053261	0.048397
1742	8.7050e-01	-10.3874	-78.141285	0.000576	5.757218	1.950598	0.045977
1743	8.7100e-01	-10.3649	-77.875101	0.000667	6.666253	2.258588	0.053237
1744	8.7150e-01	-10.3152	-77.705711	0.000424	4.242161	1.437283	0.033878
1745	8.7200e-01	-10.2687	-77.447592	0.000646	6.464245	2.190145	0.051624
1746	8.7250e-01	-10.2382	-77.225772	0.000556	5.555211	1.882156	0.044364
1747	8.7300e-01	-10.1917	-77.189474	0.000091	0.909034	0.307989	0.007260
1748	8.7350e-01	-10.1516	-76.858760	0.000828	8.282314	2.806124	0.066143
1749	8.7400e-01	-10.1147	-76.532079	0.000818	8.181310	2.771903	0.065336
1750	8.7450e-01	-10.0794	-76.342523	0.000475	4.747180	1.608388	0.037911
1751	8.7500e-01	-10.0329	-76.290093	0.000131	1.313050	0.444873	0.010486
1752	8.7550e-01	-9.9928	-76.048107	0.000606	6.060230	2.053261	0.048397
1753	8.7600e-01	-9.9478	-75.733526	0.000788	7.878299	2.669240	0.062916
1754	8.7650e-01	-9.9126	-75.584301	0.000374	3.737142	1.266178	0.029845
1755	8.7700e-01	-9.8676	-75.487507	0.000242	2.424092	0.821305	0.019359
1756	8.7750e-01	-9.8307	-75.213256	0.000687	6.868260	2.327030	0.054850
1757	8.7800e-01	-9.8003	-74.926906	0.000717	7.171272	2.429693	0.057270
1758	8.7850e-01	-9.7553	-74.741383	0.000465	4.646176	1.574167	0.037105
1759	8.7900e-01	-9.7168	-74.636523	0.000263	2.626100	0.889747	0.020972
1760	8.7950e-01	-9.6703	-74.233213	0.001010	10.100383	3.422102	0.080662
1761	8.8000e-01	-9.6302	-74.128352	0.000263	2.626100	0.889747	0.020972
1762	8.8050e-01	-9.5901	-73.882333	0.000616	6.161233	2.087482	0.049204
1763	8.8100e-01	-9.5644	-73.644380	0.000596	5.959226	2.019040	0.047591
1764	8.8150e-01	-9.5179	-73.442726	0.000505	5.050191	1.711051	0.040331
1765	8.8200e-01	-9.4714	-73.289468	0.000384	3.838145	1.300399	0.030652
1766	8.8250e-01	-9.4329	-73.087813	0.000505	5.050191	1.711051	0.040331
1767	8.8300e-01	-9.3944	-72.878092	0.000525	5.252199	1.779493	0.041944
1768	8.8350e-01	-9.3703	-72.611907	0.000667	6.666253	2.258588	0.053237
1769	8.8400e-01	-9.3110	-72.486881	0.000313	3.131119	1.060852	0.025005
1770	8.8450e-01	-9.2805	-72.329590	0.000394	3.939149	1.334620	0.031458
1771	8.8500e-01	-9.2356	-71.950479	0.000949	9.494360	3.216776	0.075822
1772	8.8550e-01	-9.1923	-71.748824	0.000505	5.050191	1.711051	0.040331
1773	8.8600e-01	-9.1634	-71.466507	0.000707	7.070268	2.395472	0.056463
1774	8.8650e-01	-9.1169	-71.244687	0.000556	5.555211	1.882156	0.044364
1775	8.8700e-01	-9.0735	-71.059164	0.000465	4.646176	1.574167	0.037105
1776	8.8750e-01	-9.0415	-70.909940	0.000374	3.737142	1.266178	0.029845
1777	8.8800e-01	-8.9997	-70.708285	0.000505	5.050191	1.711051	0.040331
1778	8.8850e-01	-8.9564	-70.430001	0.000697	6.969264	2.361251	0.055657
1779	8.8900e-01	-8.9163	-70.212214	0.000545	5.454207	1.847935	0.043557
1780	8.8950e-01	-8.8826	-69.885533	0.000818	8.181310	2.771903	0.065336
1781	8.9000e-01	-8.8345	-69.768573	0.000293	2.929111	0.992410	0.023392
1782	8.9050e-01	-8.7992	-69.695977	0.000182	1.818069	0.615978	0.014519
1783	8.9100e-01	-8.7639	-69.256369	0.001101	11.009417	3.730092	0.087922
1784	8.9150e-01	-8.7142	-68.998251	0.000646	6.464245	2.190145	0.051624
1785	8.9200e-01	-8.6725	-68.715934	0.000707	7.070268	2.395472	0.056463
1786	8.9250e-01	-8.6372	-68.619140	0.000242	2.424092	0.821305	0.019359
1787	8.9300e-01	-8.5987	-68.324723	0.000737	7.373279	2.498135	0.058883
1788	8.9350e-01	-8.5554	-68.231962	0.000232	2.323088	0.787084	0.018552
1789	8.9400e-01	-8.5153	-67.973844	0.000646	6.464245	2.190145	0.051624
1790	8.9450e-01	-8.4720	-67.804454	0.000424	4.242161	1.437283	0.033878
1791	8.9500e-01	-8.4335	-67.570534	0.000586	5.858222	1.984819	0.046784
1792	8.9550e-01	-8.3901	-67.360813	0.000525	5.252199	1.779493	0.041944
1793	8.9600e-01	-8.3581	-67.110761	0.000626	6.262237	2.121703	0.050010
1794	8.9650e-01	-8.3131	-66.913139	0.000495	4.949188	1.676830	0.039524
1795	8.9700e-01	-8.2746	-66.763914	0.000374	3.737142	1.266178	0.029845
1796	8.9750e-01	-8.2345	-66.449333	0.000788	7.878299	2.669240	0.062916
1797	8.9800e-01	-8.2024	-66.223479	0.000566	5.656214	1.916377	0.045171
1798	8.9850e-01	-8.1575	-66.086354	0.000343	3.434130	1.163515	0.027425
1799	8.9900e-01	-8.1190	-65.993592	0.000232	2.323088	0.787084	0.018552
1800	8.9950e-01	-8.0869	-65.473323	0.001303	13.029494	4.414512	0.104054
1801	9.0000e-01	-8.0372	-65.348297	0.000313	3.131119	1.060852	0.025005
1802	9.0050e-01	-7.9987	-65.057914	0.000727	7.272276	2.463914	0.058077
1803	9.0100e-01	-7.9554	-64.775597	0.000707	7.070268	2.395472	0.056463
1804	9.0150e-01	-7.9201	-64.707034	0.000172	1.717065	0.581757	0.013713
1805	9.0200e-01	-7.8816	-64.489247	0.000545	5.454207	1.847935	0.043557
1806	9.0250e-01	-7.8383	-64.194830	0.000737	7.373279	2.498135	0.058883
1807	9.0300e-01	-7.7966	-64.037540	0.000394	3.939149	1.334620	0.031458
1808	9.0350e-01	-7.7565	-63.932679	0.000263	2.626100	0.889747	0.020972
1809	9.0400e-01	-7.7244	-63.642296	0.000727	7.272276	2.463914	0.058077
1810	9.0450e-01	-7.6795	-63.376111	0.000667	6.666253	2.258588	0.053237
1811	9.0500e-01	-7.6410	-63.222854	0.000384	3.838145	1.300399	0.030652
1812	9.0550e-01	-7.5960	-62.997000	0.000566	5.656214	1.916377	0.045171
1813	9.0600e-01	-7.5527	-62.722749	0.000687	6.868260	2.327030	0.054850
1814	9.0650e-01	-7.5126	-62.432366	0.000727	7.272276	2.463914	0.058077
1815	9.0700e-01	-7.4661	-62.307340	0.000313	3.131119	1.060852	0.025005
1816	9.0750e-01	-7.4388	-61.851600	0.001141	11.413432	3.866976	0.091148
1817	9.0800e-01	-7.3907	-61.581383	0.000677	6.767256	2.292809	0.054044
1818	9.0850e-01	-7.3602	-61.512820	0.000172	1.717065	0.581757	0.013713
1819	9.0900e-01	-7.3137	-61.190172	0.000808	8.080306	2.737682	0.064530
1820	9.0950e-01	-7.2736	-60.875590	0.000788	7.878299	2.669240	0.062916
1821	9.1000e-01	-7.2511	-60.585207	0.000727	7.272276	2.463914	0.058077
1822	9.1050e-01	-7.1934	-60.556976	0.000071	0.707027	0.239547	0.005646
1823	9.1100e-01	-7.1517	-60.310956	0.000616	6.161233	2.087482	0.049204
1824	9.1150e-01	-7.1051	-60.218195	0.000232	2.323088	0.787084	0.018552
1825	9.1200e-01	-7.0731	-60.060904	0.000394	3.939149	1.334620	0.031458
1826	9.1250e-01	-7.0410	-59.661628	0.001000	9.999379	3.387881	0.079855
1827	9.1300e-01	-6.9993	-59.363178	0.000747	7.474283	2.532356	0.059690
1828	9.1350e-01	-6.9576	-59.201854	0.000404	4.040153	1.368841	0.032265
1829	9.1400e-01	-6.9207	-59.016332	0.000465	4.646176	1.574167	0.037105
1830	9.1450e-01	-6.8773	-58.665452	0.000879	8.787333	2.977229	0.070176
1831	9.1500e-01	-6.8356	-58.467830	0.000495	4.949188	1.676830	0.039524
1832	9.1550e-01	-6.7971	-58.165348	0.000758	7.575287	2.566577	0.060496
1833	9.1600e-01	-6.7618	-57.991925	0.000434	4.343165	1.471504	0.034685
1834	9.1650e-01	-6.7201	-57.733806	0.000646	6.464245	2.190145	0.051624
1835	9.1700e-01	-6.6768	-57.536185	0.000495	4.949188	1.676830	0.039524
1836	9.1750e-01	-6.6287	-57.225636	0.000778	7.777295	2.635019	0.062110
1837	9.1800e-01	-6.5918	-57.124809	0.000253	2.525096	0.855526	0.020165
1838	9.1850e-01	-6.5501	-56.790061	0.000838	8.383318	2.840345	0.066949
1839	9.1900e-01	-6.5228	-56.604539	0.000465	4.646176	1.574167	0.037105
1840	9.1950e-01	-6.4795	-56.116534	0.001222	12.221463	4.140744	0.097601
1841	9.2000e-01	-6.4250	-56.052004	0.000162	1.616061	0.547536	0.012906
1842	9.2050e-01	-6.4057	-55.979409	0.000182	1.818069	0.615978	0.014519
1843	9.2100e-01	-6.3560	-55.814052	0.000414	4.141157	1.403062	0.033071
1844	9.2150e-01	-6.3143	-55.346212	0.001172	11.716444	3.969639	0.093568
1845	9.2200e-01	-6.2758	-55.096160	0.000626	6.262237	2.121703	0.050010
1846	9.2250e-01	-6.2437	-54.890472	0.000515	5.151195	1.745272	0.041138
1847	9.2300e-01	-6.1955	-54.713016	0.000444	4.444168	1.505725	0.035491
1848	9.2350e-01	-6.1570	-54.426666	0.000717	7.171272	2.429693	0.057270
1849	9.2400e-01	-6.1153	-54.043521	0.000960	9.595364	3.250997	0.076629
1850	9.2450e-01	-6.0784	-53.954793	0.000222	2.222084	0.752863	0.017746
1851	9.2500e-01	-6.0399	-53.737006	0.000545	5.454207	1.847935	0.043557
1852	9.2550e-01	-5.9982	-53.474854	0.000657	6.565249	2.224366	0.052430
1853	9.2600e-01	-5.9533	-53.261100	0.000535	5.353203	1.813714	0.042751
1854	9.2650e-01	-5.9212	-53.007015	0.000636	6.363241	2.155924	0.050817
1855	9.2700e-01	-5.8811	-52.773095	0.000586	5.858222	1.984819	0.046784
1856	9.2750e-01	-5.8346	-52.543209	0.000576	5.757218	1.950598	0.045977
1857	9.2800e-01	-5.7961	-52.232660	0.000778	7.777295	2.635019	0.062110
1858	9.2850e-01	-5.7544	-51.930178	0.000758	7.575287	2.566577	0.060496
1859	9.2900e-01	-5.7127	-51.748688	0.000455	4.545172	1.539946	0.036298
1860	9.2950e-01	-5.6854	-51.502669	0.000616	6.161233	2.087482	0.049204
1861	9.3000e-01	-5.6373	-51.248584	0.000636	6.363241	2.155924	0.050817
1862	9.3050e-01	-5.5940	-50.934002	0.000788	7.878299	2.669240	0.062916
1863	9.3100e-01	-5.5603	-50.772678	0.000404	4.040153	1.368841	0.032265
1864	9.3150e-01	-5.5121	-50.421799	0.000879	8.787333	2.977229	0.070176
1865	9.3200e-01	-5.4720	-50.341137	0.000202	2.020077	0.684420	0.016132
1866	9.3250e-01	-5.4367	-50.066886	0.000687	6.868260	2.327030	0.054850
1867	9.3300e-01	-5.3982	-49.990257	0.000192	1.919073	0.650199	0.015326
1868	9.3350e-01	-5.3662	-49.538550	0.001131	11.312429	3.832755	0.090341
1869	9.3400e-01	-5.3244	-49.272366	0.000667	6.666253	2.258588	0.053237
1870	9.3450e-01	-5.2859	-49.078777	0.000485	4.848184	1.642609	0.038718
1871	9.3500e-01	-5.2362	-48.844857	0.000586	5.858222	1.984819	0.046784
1872	9.3550e-01	-5.1897	-48.631103	0.000535	5.353203	1.813714	0.042751
1873	9.3600e-01	-5.1592	-48.308455	0.000808	8.080306	2.737682	0.064530
1874	9.3650e-01	-5.1191	-48.058403	0.000626	6.262237	2.121703	0.050010
1875	9.3700e-01	-5.0774	-47.836583	0.000556	5.555211	1.882156	0.044364
1876	9.3750e-01	-5.0485	-47.542166	0.000737	7.373279	2.498135	0.058883
1877	9.3800e-01	-4.9972	-47.275982	0.000667	6.666253	2.258588	0.053237
1878	9.3850e-01	-4.9507	-47.058194	0.000545	5.454207	1.847935	0.043557
1879	9.3900e-01	-4.9090	-46.747646	0.000778	7.777295	2.635019	0.062110
1880	9.3950e-01	-4.8817	-46.586322	0.000404	4.040153	1.368841	0.032265
1881	9.4000e-01	-4.8368	-46.235442	0.000879	8.787333	2.977229	0.070176
1882	9.4050e-01	-4.7983	-46.037821	0.000495	4.949188	1.676830	0.039524
1883	9.4100e-01	-4.7566	-45.743404	0.000737	7.373279	2.498135	0.058883
1884	9.4150e-01	-4.7100	-45.505452	0.000596	5.959226	2.019040	0.047591
1885	9.4200e-01	-4.6763	-45.287664	0.000545	5.454207	1.847935	0.043557
1886	9.4250e-01	-4.6346	-45.162638	0.000313	3.131119	1.060852	0.025005
1887	9.4300e-01	-4.6025	-44.831924	0.000828	8.282314	2.806124	0.066143
1888	9.4350e-01	-4.5560	-44.501210	0.000828	8.282314	2.806124	0.066143
1889	9.4400e-01	-4.5143	-44.283423	0.000545	5.454207	1.847935	0.043557
1890	9.4450e-01	-4.4726	-44.097900	0.000465	4.646176	1.574167	0.037105
1891	9.4500e-01	-4.4293	-43.734921	0.000909	9.090344	3.079892	0.072596
1892	9.4550e-01	-4.3972	-43.299347	0.001091	10.908413	3.695870	0.087115
1893	9.4600e-01	-4.3539	-43.073493	0.000566	5.656214	1.916377	0.045171
1894	9.4650e-01	-4.3074	-42.944434	0.000323	3.232122	1.095073	0.025812
1895	9.4700e-01	-4.2753	-42.726647	0.000545	5.454207	1.847935	0.043557
1896	9.4750e-01	-4.2432	-42.456429	0.000677	6.767256	2.292809	0.054044
1897	9.4800e-01	-4.2047	-42.218476	0.000596	5.959226	2.019040	0.047591
1898	9.4850e-01	-4.1566	-42.036987	0.000455	4.545172	1.539946	0.036298
1899	9.4900e-01	-4.1197	-41.678041	0.000899	8.989341	3.045671	0.071789
1900	9.4950e-01	-4.0812	-41.452187	0.000566	5.656214	1.916377	0.045171
1901	9.5000e-01	-4.0427	-41.097275	0.000889	8.888337	3.011450	0.070983
1902	9.5050e-01	-3.9945	-40.839156	0.000646	6.464245	2.190145	0.051624
1903	9.5100e-01	-3.9592	-40.585071	0.000636	6.363241	2.155924	0.050817
1904	9.5150e-01	-3.9175	-40.423747	0.000404	4.040153	1.368841	0.032265
1905	9.5200e-01	-3.8758	-40.125298	0.000747	7.474283	2.532356	0.059690
1906	9.5250e-01	-3.8389	-39.653425	0.001182	11.817448	4.003860	0.094375
1907	9.5300e-01	-3.8052	-39.496135	0.000394	3.939149	1.334620	0.031458
1908	9.5350e-01	-3.7619	-39.387241	0.000273	2.727103	0.923968	0.021779
1909	9.5400e-01	-3.7138	-39.056527	0.000828	8.282314	2.806124	0.066143
1910	9.5450e-01	-3.6641	-38.782276	0.000687	6.868260	2.327030	0.054850
1911	9.5500e-01	-3.6272	-38.503992	0.000697	6.969264	2.361251	0.055657
1912	9.5550e-01	-3.5839	-38.322503	0.000455	4.545172	1.539946	0.036298
1913	9.5600e-01	-3.5502	-38.112782	0.000525	5.252199	1.779493	0.041944
1914	9.5650e-01	-3.5197	-37.713505	0.001000	9.999379	3.387881	0.079855
1915	9.5700e-01	-3.4780	-37.269864	0.001111	11.110421	3.764313	0.088728
1916	9.5750e-01	-3.4379	-37.152904	0.000293	2.929111	0.992410	0.023392
1917	9.5800e-01	-3.4010	-36.842356	0.000778	7.777295	2.635019	0.062110
1918	9.5850e-01	-3.3641	-36.560039	0.000707	7.070268	2.395472	0.056463
1919	9.5900e-01	-3.3143	-36.193027	0.000919	9.191348	3.114113	0.073402
1920	9.5950e-01	-3.2678	-36.132530	0.000152	1.515057	0.513315	0.012099
1921	9.6000e-01	-3.2454	-35.600161	0.001333	13.332505	4.517175	0.106474
1922	9.6050e-01	-3.1924	-35.491268	0.000273	2.727103	0.923968	0.021779
1923	9.6100e-01	-3.1603	-35.192818	0.000747	7.474283	2.532356	0.059690
1924	9.6150e-01	-3.1154	-34.930667	0.000657	6.565249	2.224366	0.052430
1925	9.6200e-01	-3.0737	-34.716913	0.000535	5.353203	1.813714	0.042751
1926	9.6250e-01	-3.0224	-34.527357	0.000475	4.747180	1.608388	0.037911
1927	9.6300e-01	-2.9935	-34.232941	0.000737	7.373279	2.498135	0.058883
1928	9.6350e-01	-2.9630	-33.704605	0.001323	13.231501	4.482954	0.105667
1929	9.6400e-01	-2.9165	-33.595711	0.000273	2.727103	0.923968	0.021779
1930	9.6450e-01	-2.8780	-33.337593	0.000646	6.464245	2.190145	0.051624
1931	9.6500e-01	-2.8411	-33.071409	0.000667	6.666253	2.258588	0.053237
1932	9.6550e-01	-2.7978	-32.797158	0.000687	6.868260	2.327030	0.054850
1933	9.6600e-01	-2.7593	-32.595503	0.000505	5.050191	1.711051	0.040331
1934	9.6650e-01	-2.7208	-32.288987	0.000768	7.676291	2.600798	0.061303
1935	9.6700e-01	-2.6807	-32.059101	0.000576	5.757218	1.950598	0.045977
1936	9.6750e-01	-2.6325	-31.708221	0.000879	8.787333	2.977229	0.070176
1937	9.6800e-01	-2.6037	-31.260547	0.001121	11.211425	3.798534	0.089535
1938	9.6850e-01	-2.5571	-31.054859	0.000515	5.151195	1.745272	0.041138
1939	9.6900e-01	-2.5090	-30.889502	0.000414	4.141157	1.403062	0.033071
1940	9.6950e-01	-2.4785	-30.558788	0.000828	8.282314	2.806124	0.066143
1941	9.7000e-01	-2.4384	-30.199842	0.000899	8.989341	3.045671	0.071789
1942	9.7050e-01	-2.3967	-29.893327	0.000768	7.676291	2.600798	0.061303
1943	9.7100e-01	-2.3534	-29.542447	0.000879	8.787333	2.977229	0.070176
1944	9.7150e-01	-2.3181	-29.360958	0.000455	4.545172	1.539946	0.036298
1945	9.7200e-01	-2.2796	-29.147204	0.000535	5.353203	1.813714	0.042751
1946	9.7250e-01	-2.2427	-28.760026	0.000970	9.696367	3.285218	0.077435
1947	9.7300e-01	-2.2090	-28.388981	0.000929	9.292352	3.148334	0.074209
1948	9.7350e-01	-2.1561	-28.219591	0.000424	4.242161	1.437283	0.033878
1949	9.7400e-01	-2.1160	-27.941307	0.000697	6.969264	2.361251	0.055657
1950	9.7450e-01	-2.0727	-27.614626	0.000818	8.181310	2.771903	0.065336
1951	9.7500e-01	-2.0310	-27.352475	0.000657	6.565249	2.224366	0.052430
1952	9.7550e-01	-1.9973	-27.166952	0.000465	4.646176	1.574167	0.037105
1953	9.7600e-01	-1.9572	-26.945132	0.000556	5.555211	1.882156	0.044364
1954	9.7650e-01	-1.8978	-26.368399	0.001444	14.443547	4.893606	0.115347
1955	9.7700e-01	-1.8737	-26.307902	0.000152	1.515057	0.513315	0.012099
1956	9.7750e-01	-1.8320	-25.981221	0.000818	8.181310	2.771903	0.065336
1957	9.7800e-01	-1.7919	-25.614209	0.000919	9.191348	3.114113	0.073402
1958	9.7850e-01	-1.7534	-25.384323	0.000576	5.757218	1.950598	0.045977
1959	9.7900e-01	-1.7149	-25.227032	0.000394	3.939149	1.334620	0.031458
1960	9.7950e-01	-1.6812	-24.743060	0.001212	12.120459	4.106523	0.096794
1961	9.8000e-01	-1.6411	-24.408313	0.000838	8.383318	2.840345	0.066949
1962	9.8050e-01	-1.5978	-24.182459	0.000566	5.656214	1.916377	0.045171
1963	9.8100e-01	-1.5593	-23.863844	0.000798	7.979302	2.703461	0.063723
1964	9.8150e-01	-1.5144	-23.609759	0.000636	6.363241	2.155924	0.050817
1965	9.8200e-01	-1.4823	-23.170151	0.001101	11.009417	3.730092	0.087922
1966	9.8250e-01	-1.4374	-22.980596	0.000475	4.747180	1.608388	0.037911
1967	9.8300e-01	-1.3909	-22.637782	0.000859	8.585325	2.908787	0.068563
1968	9.8350e-01	-1.3508	-22.351432	0.000717	7.171272	2.429693	0.057270
1969	9.8400e-01	-1.3155	-22.044917	0.000768	7.676291	2.600798	0.061303
1970	9.8450e-01	-1.2770	-21.677905	0.000919	9.191348	3.114113	0.073402
1971	9.8500e-01	-1.2337	-21.528680	0.000374	3.737142	1.266178	0.029845
1972	9.8550e-01	-1.2000	-21.125370	0.001010	10.100383	3.422102	0.080662
1973	9.8600e-01	-1.1567	-20.915649	0.000525	5.252199	1.779493	0.041944
1974	9.8650e-01	-1.1165	-20.641399	0.000687	6.868260	2.327030	0.054850
1975	9.8700e-01	-1.0716	-20.330850	0.000778	7.777295	2.635019	0.062110
1976	9.8750e-01	-1.0283	-19.951739	0.000949	9.494360	3.216776	0.075822
1977	9.8800e-01	-0.9946	-19.592793	0.000899	8.989341	3.045671	0.071789
1978	9.8850e-01	-0.9641	-19.266112	0.000818	8.181310	2.771903	0.065336
1979	9.8900e-01	-0.9096	-18.943464	0.000808	8.080306	2.737682	0.064530
1980	9.8950e-01	-0.8727	-18.862802	0.000202	2.020077	0.684420	0.016132
1981	9.9000e-01	-0.8358	-18.519989	0.000859	8.585325	2.908787	0.068563
1982	9.9050e-01	-0.7925	-18.096513	0.001061	10.605402	3.593207	0.084695
1983	9.9100e-01	-0.7684	-17.773866	0.000808	8.080306	2.737682	0.064530
1984	9.9150e-01	-0.7123	-17.519780	0.000636	6.363241	2.155924	0.050817
1985	9.9200e-01	-0.6786	-17.225364	0.000737	7.373279	2.498135	0.058883
1986	9.9250e-01	-0.6321	-16.959180	0.000667	6.666253	2.258588	0.053237
1987	9.9300e-01	-0.5968	-16.644598	0.000788	7.878299	2.669240	0.062916
1988	9.9350e-01	-0.5567	-16.273553	0.000929	9.292352	3.148334	0.074209
1989	9.9400e-01	-0.5214	-15.942839	0.000828	8.282314	2.806124	0.066143
1990	9.9450e-01	-0.4732	-15.652456	0.000727	7.272276	2.463914	0.058077
1991	9.9500e-01	-0.4347	-15.515330	0.000343	3.434130	1.163515	0.027425
1992	9.9550e-01	-0.3995	-15.083789	0.001081	10.807410	3.661649	0.086308
1993	9.9600e-01	-0.3513	-14.785339	0.000747	7.474283	2.532356	0.059690
1994	9.9650e-01	-0.3225	-14.503023	0.000707	7.070268	2.395472	0.056463
1995	9.9700e-01	-0.2711	-14.192474	0.000778	7.777295	2.635019	0.062110
1996	9.9750e-01	-0.2342	-13.930323	0.000657	6.565249	2.224366	0.052430
1997	9.9800e-01	-0.2005	-13.543145	0.000970	9.696367	3.285218	0.077435
1998	9.9850e-01	-0.1524	-13.115637	0.001071	10.706406	3.627428	0.085502
1999	9.9900e-01	-0.1091	-12.772823	0.000859	8.585325	2.908787	0.068563
2000	9.9950e-01	-0.0722	-12.619566	0.000384	3.838145	1.300399	0.030652
2001	1.0000e+00	-0.0305	-12.353381	0.000384	3.838145	1.300399	0.053237

Center data before PMax,+/-Pr and +/-Vc Calc.

PMax (uC/cm2):	1.19e+02
Pr (uC/cm2):	3.58e+00
-Pr (uC/cm2):	-1.24e+01
PLoss (uC/cm2):	-9.12e+00
Vc:	4.64e-01
-Vc:	-4.57e-01
C (Max-Eff) (nF):	5.98e-01
K (Eff):	2.03e+03
Vert. (+/-Pr) Shift (uC/cm2):	-4.39e+00
Horiz. Shift (+/-Vc):	3.47e-03
Offset (uC/cm2):	3.17e+00

A (Loop Area - uC/cm2·Volts):	1.91e-02



Hysteresis Version: 5.48.1 - Radiant Technologies, Inc., 1999 - 9/12/24

