»»»»»»»»»»»»»»»»»»»»»»»»»»»»»»»»»»»» Hysteresis ««««««««««««««««««««««««««««««««««««
»»»  Executed Version:	5.48.1
»»»  Vision Version:	5.48.4 (R)
»»»  Vision Compiled:	9/18/24
»»»  Driver Version:	5.47.0
»»»  Windows Version:	Windows 8 or 8.1
»»»  Processor Information:	x86 (AMD or Intel) - 32 Processors
»»»  Tester Name:	PMF21124-494 (100V)
»»»  Tester S/N:	PMF21124-494
»»»  Internal Amp Type:	100V RevK 270k
»»»  Internal Amp S/N:	iAB2-596/K     
»»»  Execution Count:	1
»»»»»»»»»»»»»»»»»»»»»»»»»»»»»»»»»»»»»»»»»»««««««««««««««««««««««««««««««««««««««««««

Stored:	6/5/2025 - 12:31:19
Configured:	06/05/25 10:43:40 AM
Executed:	06/05/25 12:30:45 PM

»»»»»»»»»»»»»»»»»»»»»»»»»»»»»»»»»»» Sample Info ««««««««««««««««««««««««««««««««««««
Sample Name:	
Lot Name:	
Wafer Name:	
Die Row/Column:	0/0
Capacitor Number:	0
Sample Area (cm2):	1.00e-04
Sample Thickness (microns):	3.00e-01

Amplifier:	Internal

»»»»»»»»»»»»»»»»»»»»»»»»»»»»»»»»»»» Tester Info «««««««««««««««««««««««««««««««««««
Tester Name:	PMF21124-494 (100V)
Tester Serial Number:	PMF21124-494
Return Signal Amp. Level:	0.19 [Index: 3]

»»»»»»»»»»»»»»»»»»»»»»»»»»»»»»»» Hysteresis Info ««««««««««««««««««««««««««««««««««
Task Name:	Hyst-187
Volts:	20.00
Field:	666.67 (kV/cm)
DCBias:	0.00
DCField:	0.00 (kV/cm)
Hysteresis Period (ms):	1.00e+00
Preset:	Enabled
Preset Delay (ms):	1.00e+03
Profile:	Standard Bipolar

»»»»»»»»»»»»»»»»»»»»»»»»»»»»»»»»»»»»»» Data «««««««««««««««««««««««««««««««««««««««
Points:	2001

Valid Data

Point	Time (ms)	Drive Voltage	Measured Polarization (uC/cm2)	Capacitance (uF)	Normalized Capacitance (uF/cm2)	Dielectric Constant	Instantaneous Current (mA)
   1	0.0000e+00	0.0160	-4.180307	0.001101	11.010744	3.730541	0.087922
   2	5.0000e-04	0.0176	-3.740699	0.001101	11.010744	3.730541	0.087922
   3	1.0000e-03	0.0497	-3.914122	-0.000434	-4.343688	-1.471681	-0.034685
   4	1.5000e-03	0.0802	-3.607607	0.000768	7.677216	2.601111	0.061303
   5	2.0000e-03	0.1332	-3.313191	0.000737	7.374168	2.498436	0.058883
   6	2.5000e-03	0.1636	-3.083304	0.000576	5.757912	1.950833	0.045977
   7	3.0000e-03	0.2086	-2.748557	0.000838	8.384328	2.840687	0.066949
   8	3.5000e-03	0.2422	-2.417843	0.000828	8.283312	2.806462	0.066143
   9	4.0000e-03	0.2823	-2.042764	0.000939	9.394488	3.182939	0.075016
  10	4.5000e-03	0.3225	-1.736249	0.000768	7.677216	2.601111	0.061303
  11	5.0000e-03	0.3626	-1.304707	0.001081	10.808712	3.662091	0.086308
  12	5.5000e-03	0.4107	-0.949795	0.000889	8.889408	3.011813	0.070983
  13	6.0000e-03	0.4412	-0.655379	0.000737	7.374168	2.498436	0.058883
  14	6.5000e-03	0.4797	-0.348863	0.000768	7.677216	2.601111	0.061303
  15	7.0000e-03	0.5198	0.151241	0.001253	12.525984	4.243918	0.100021
  16	7.5000e-03	0.5631	0.828802	0.001697	16.970688	5.749825	0.135512
  17	8.0000e-03	0.6000	1.115152	0.000717	7.172136	2.429986	0.057270
  18	8.5000e-03	0.6481	1.074821	-0.000101	-1.010160	-0.342251	-0.008066
  19	9.0000e-03	0.6898	1.478131	0.001010	10.101600	3.422515	0.080662
  20	9.5000e-03	0.7299	1.966136	0.001222	12.222936	4.141243	0.097601
  21	1.0000e-02	0.7636	2.312982	0.000869	8.687376	2.943363	0.069369
  22	1.0500e-02	0.8005	2.679994	0.000919	9.192456	3.114488	0.073402
  23	1.1000e-02	0.8438	3.030874	0.000879	8.788392	2.977588	0.070176
  24	1.1500e-02	0.8807	3.349488	0.000798	7.980264	2.703787	0.063723
  25	1.2000e-02	0.9208	3.797162	0.001121	11.212776	3.798991	0.089535
  26	1.2500e-02	0.9625	4.216605	0.001051	10.505664	3.559415	0.083888
  27	1.3000e-02	0.9962	4.563451	0.000869	8.687376	2.943363	0.069369
  28	1.3500e-02	1.0411	4.793338	0.000576	5.757912	1.950833	0.045977
  29	1.4000e-02	1.0813	5.136151	0.000859	8.586360	2.909138	0.068563
  30	1.4500e-02	1.1198	5.466865	0.000828	8.283312	2.806462	0.066143
  31	1.5000e-02	1.1663	5.987135	0.001303	13.031064	4.415044	0.104054
  32	1.5500e-02	1.2048	6.281551	0.000737	7.374168	2.498436	0.058883
  33	1.6000e-02	1.2417	6.773589	0.001232	12.323952	4.175468	0.098408
  34	1.6500e-02	1.2818	7.112369	0.000849	8.485344	2.874912	0.067756
  35	1.7000e-02	1.3315	7.479381	0.000919	9.192456	3.114488	0.073402
  36	1.7500e-02	1.3652	7.793963	0.000788	7.879248	2.669562	0.062916
  37	1.8000e-02	1.4053	8.265836	0.001182	11.818872	4.004342	0.094375
  38	1.8500e-02	1.4454	8.495722	0.000576	5.757912	1.950833	0.045977
  39	1.9000e-02	1.4823	8.886933	0.000980	9.798552	3.319839	0.078242
  40	1.9500e-02	1.5176	9.197481	0.000778	7.778232	2.635336	0.062110
  41	2.0000e-02	1.5657	9.685486	0.001222	12.222936	4.141243	0.097601
  42	2.0500e-02	1.5978	10.060564	0.000939	9.394488	3.182939	0.075016
  43	2.1000e-02	1.6379	10.431610	0.000929	9.293472	3.148714	0.074209
  44	2.1500e-02	1.6812	10.770390	0.000849	8.485344	2.874912	0.067756
  45	2.2000e-02	1.7213	11.121269	0.000879	8.788392	2.977588	0.070176
  46	2.2500e-02	1.7663	11.290660	0.000424	4.242672	1.437456	0.033878
  47	2.3000e-02	1.8080	11.597175	0.000768	7.677216	2.601111	0.061303
  48	2.3500e-02	1.8481	12.133577	0.001344	13.435128	4.551945	0.107280
  49	2.4000e-02	1.8882	12.548986	0.001040	10.404648	3.525190	0.083082
  50	2.4500e-02	1.9187	12.815171	0.000667	6.667056	2.258860	0.053237
  51	2.5000e-02	1.9652	13.444334	0.001576	15.758496	5.339123	0.125833
  52	2.5500e-02	2.0021	13.702453	0.000647	6.465024	2.190409	0.051624
  53	2.6000e-02	2.0470	13.803280	0.000253	2.525400	0.855629	0.020165
  54	2.6500e-02	2.0839	14.291285	0.001222	12.222936	4.141243	0.097601
  55	2.7000e-02	2.1224	14.569569	0.000697	6.970104	2.361535	0.055657
  56	2.7500e-02	2.1561	15.041441	0.001182	11.818872	4.004342	0.094375
  57	2.8000e-02	2.2042	15.444751	0.001010	10.101600	3.422515	0.080662
  58	2.8500e-02	2.2491	15.735134	0.000727	7.273152	2.464211	0.058077
  59	2.9000e-02	2.2796	16.118279	0.000960	9.596520	3.251389	0.076629
  60	2.9500e-02	2.3165	16.485291	0.000919	9.192456	3.114488	0.073402
  61	3.0000e-02	2.3759	16.860369	0.000939	9.394488	3.182939	0.075016
  62	3.0500e-02	2.4096	17.126553	0.000667	6.667056	2.258860	0.053237
  63	3.1000e-02	2.4449	17.477433	0.000879	8.788392	2.977588	0.070176
  64	3.1500e-02	2.4866	17.965438	0.001222	12.222936	4.141243	0.097601
  65	3.2000e-02	2.5283	18.392946	0.001071	10.707696	3.627866	0.085502
  66	3.2500e-02	2.5748	18.780124	0.000970	9.697536	3.285614	0.077435
  67	3.3000e-02	2.6085	19.102772	0.000808	8.081280	2.738012	0.064530
  68	3.3500e-02	2.6518	19.425419	0.000808	8.081280	2.738012	0.064530
  69	3.4000e-02	2.6935	19.772266	0.000869	8.687376	2.943363	0.069369
  70	3.4500e-02	2.7304	20.272370	0.001253	12.525984	4.243918	0.100021
  71	3.5000e-02	2.7721	20.498224	0.000566	5.656896	1.916608	0.045171
  72	3.5500e-02	2.8074	20.857169	0.000899	8.990424	3.046038	0.071789
  73	3.6000e-02	2.8379	21.183850	0.000818	8.182296	2.772237	0.065336
  74	3.6500e-02	2.8860	21.760584	0.001445	14.445288	4.894196	0.115347
  75	3.7000e-02	2.9293	21.929974	0.000424	4.242672	1.437456	0.033878
  76	3.7500e-02	2.9662	22.373614	0.001111	11.111760	3.764766	0.088728
  77	3.8000e-02	3.0047	22.663998	0.000727	7.273152	2.464211	0.058077
  78	3.8500e-02	3.0448	22.978579	0.000788	7.879248	2.669562	0.062916
  79	3.9000e-02	3.0898	23.200400	0.000556	5.555880	1.882383	0.044364
  80	3.9500e-02	3.1363	23.809398	0.001525	15.253416	5.167997	0.121800
  81	4.0000e-02	3.1668	24.111880	0.000758	7.576200	2.566886	0.060496
  82	4.0500e-02	3.2053	24.204641	0.000232	2.323368	0.787178	0.018552
  83	4.1000e-02	3.2389	24.785407	0.001455	14.546304	4.928421	0.116153
  84	4.1500e-02	3.2871	25.265346	0.001202	12.020904	4.072793	0.095988
  85	4.2000e-02	3.3192	25.398438	0.000333	3.333528	1.129430	0.026618
  86	4.2500e-02	3.3512	25.745285	0.000869	8.687376	2.943363	0.069369
  87	4.3000e-02	3.4074	26.023569	0.000697	6.970104	2.361535	0.055657
  88	4.3500e-02	3.4475	26.555938	0.001333	13.334112	4.517720	0.106474
  89	4.4000e-02	3.4924	26.826155	0.000677	6.768072	2.293085	0.054044
  90	4.4500e-02	3.5181	27.382723	0.001394	13.940208	4.723070	0.111314
  91	4.5000e-02	3.5726	27.519848	0.000343	3.434544	1.163655	0.027425
  92	4.5500e-02	3.6111	27.794099	0.000687	6.869088	2.327310	0.054850
  93	4.6000e-02	3.6577	28.072383	0.000697	6.970104	2.361535	0.055657
  94	4.6500e-02	3.6913	28.467626	0.000990	9.899568	3.354065	0.079049
  95	4.7000e-02	3.7234	29.036293	0.001424	14.243256	4.825746	0.113733
  96	4.7500e-02	3.7619	29.338776	0.000758	7.576200	2.566886	0.060496
  97	4.8000e-02	3.8036	29.653357	0.000788	7.879248	2.669562	0.062916
  98	4.8500e-02	3.8453	29.939707	0.000717	7.172136	2.429986	0.057270
  99	4.9000e-02	3.8871	30.468043	0.001323	13.233096	4.483494	0.105667
 100	4.9500e-02	3.9288	30.758426	0.000727	7.273152	2.464211	0.058077
 101	5.0000e-02	3.9560	31.149637	0.000980	9.798552	3.319839	0.078242
 102	5.0500e-02	4.0090	31.500517	0.000879	8.788392	2.977588	0.070176
 103	5.1000e-02	4.0491	31.746536	0.000616	6.161976	2.087734	0.049204
 104	5.1500e-02	4.0924	32.101448	0.000889	8.889408	3.011813	0.070983
 105	5.2000e-02	4.1213	32.432162	0.000828	8.283312	2.806462	0.066143
 106	5.2500e-02	4.1662	32.803207	0.000929	9.293472	3.148714	0.074209
 107	5.3000e-02	4.2159	33.137955	0.000838	8.384328	2.840687	0.066949
 108	5.3500e-02	4.2448	33.420272	0.000707	7.071120	2.395760	0.056463
 109	5.4000e-02	4.2913	33.811482	0.000980	9.798552	3.319839	0.078242
 110	5.4500e-02	4.3266	34.049435	0.000596	5.959944	2.019284	0.047591
 111	5.5000e-02	4.3699	34.343851	0.000737	7.374168	2.498436	0.058883
 112	5.5500e-02	4.4084	34.739095	0.000990	9.899568	3.354065	0.079049
 113	5.6000e-02	4.4485	34.892353	0.000384	3.838608	1.300556	0.030652
 114	5.6500e-02	4.4951	35.436821	0.001364	13.637160	4.620395	0.108894
 115	5.7000e-02	4.5304	35.969190	0.001333	13.334112	4.517720	0.106474
 116	5.7500e-02	4.5737	36.432996	0.001162	11.616840	3.935892	0.092761
 117	5.8000e-02	4.6074	36.654817	0.000556	5.555880	1.882383	0.044364
 118	5.8500e-02	4.6523	36.840339	0.000465	4.646736	1.574357	0.037105
 119	5.9000e-02	4.6763	37.259781	0.001051	10.505664	3.559415	0.083888
 120	5.9500e-02	4.7277	37.505800	0.000616	6.161976	2.087734	0.049204
 121	6.0000e-02	4.7694	37.840548	0.000838	8.384328	2.840687	0.066949
 122	6.0500e-02	4.8111	38.215626	0.000939	9.394488	3.182939	0.075016
 123	6.1000e-02	4.8544	38.570538	0.000889	8.889408	3.011813	0.070983
 124	6.1500e-02	4.8865	38.901253	0.000828	8.283312	2.806462	0.066143
 125	6.2000e-02	4.9266	39.187603	0.000717	7.172136	2.429986	0.057270
 126	6.2500e-02	4.9683	39.393291	0.000515	5.151816	1.745483	0.041138
 127	6.3000e-02	5.0148	39.881296	0.001222	12.222936	4.141243	0.097601
 128	6.3500e-02	5.0501	40.280572	0.001000	10.000584	3.388290	0.079855
 129	6.4000e-02	5.0790	40.679849	0.001000	10.000584	3.388290	0.079855
 130	6.4500e-02	5.1287	40.913769	0.000586	5.858928	1.985059	0.046784
 131	6.5000e-02	5.1624	41.300946	0.000970	9.697536	3.285614	0.077435
 132	6.5500e-02	5.2009	41.676024	0.000939	9.394488	3.182939	0.075016
 133	6.6000e-02	5.2426	41.950275	0.000687	6.869088	2.327310	0.054850
 134	6.6500e-02	5.2827	42.212427	0.000657	6.566040	2.224635	0.052430
 135	6.7000e-02	5.3212	42.781093	0.001424	14.243256	4.825746	0.113733
 136	6.7500e-02	5.3646	43.111808	0.000828	8.283312	2.806462	0.066143
 137	6.8000e-02	5.4079	43.265065	0.000384	3.838608	1.300556	0.030652
 138	6.8500e-02	5.4544	43.692574	0.001071	10.707696	3.627866	0.085502
 139	6.9000e-02	5.4849	44.241075	0.001374	13.738176	4.654620	0.109700
 140	6.9500e-02	5.5266	44.378200	0.000343	3.434544	1.163655	0.027425
 141	7.0000e-02	5.5699	44.692782	0.000788	7.879248	2.669562	0.062916
 142	7.0500e-02	5.6020	44.882338	0.000475	4.747752	1.608582	0.037911
 143	7.1000e-02	5.6421	45.257416	0.000939	9.394488	3.182939	0.075016
 144	7.1500e-02	5.6854	45.507468	0.000626	6.262992	2.121959	0.050010
 145	7.2000e-02	5.7271	45.934977	0.001071	10.707696	3.627866	0.085502
 146	7.2500e-02	5.7672	46.297955	0.000909	9.091440	3.080263	0.072596
 147	7.3000e-02	5.8089	46.600438	0.000758	7.576200	2.566886	0.060496
 148	7.3500e-02	5.8490	46.794027	0.000485	4.848768	1.642807	0.038718
 149	7.4000e-02	5.8907	47.088443	0.000737	7.374168	2.498436	0.058883
 150	7.4500e-02	5.9292	47.463521	0.000939	9.394488	3.182939	0.075016
 151	7.5000e-02	5.9694	47.818434	0.000889	8.889408	3.011813	0.070983
 152	7.5500e-02	6.0159	48.362902	0.001364	13.637160	4.620395	0.108894
 153	7.6000e-02	6.0431	48.673450	0.000778	7.778232	2.635336	0.062110
 154	7.6500e-02	6.0849	48.992065	0.000798	7.980264	2.703787	0.063723
 155	7.7000e-02	6.1234	49.209853	0.000545	5.454864	1.848158	0.043557
 156	7.7500e-02	6.1651	49.496203	0.000717	7.172136	2.429986	0.057270
 157	7.8000e-02	6.1939	49.843049	0.000869	8.687376	2.943363	0.069369
 158	7.8500e-02	6.2421	50.262491	0.001051	10.505664	3.559415	0.083888
 159	7.9000e-02	6.2870	50.274591	0.000030	0.303048	0.102675	0.002420
 160	7.9500e-02	6.3191	50.661768	0.000970	9.697536	3.285614	0.077435
 161	8.0000e-02	6.3704	51.057012	0.000990	9.899568	3.354065	0.079049
 162	8.0500e-02	6.4137	51.367560	0.000778	7.778232	2.635336	0.062110
 163	8.1000e-02	6.4506	52.000757	0.001586	15.859512	5.373348	0.126639
 164	8.1500e-02	6.4875	52.105617	0.000263	2.626416	0.889854	0.020972
 165	8.2000e-02	6.5164	52.270974	0.000414	4.141656	1.403231	0.033071
 166	8.2500e-02	6.5549	52.710582	0.001101	11.010744	3.730541	0.087922
 167	8.3000e-02	6.6046	53.109859	0.001000	10.000584	3.388290	0.079855
 168	8.3500e-02	6.6431	53.488970	0.000950	9.495504	3.217164	0.075822
 169	8.4000e-02	6.6913	53.783386	0.000737	7.374168	2.498436	0.058883
 170	8.4500e-02	6.7298	53.827750	0.000111	1.111176	0.376477	0.008873
 171	8.5000e-02	6.7747	54.174597	0.000869	8.687376	2.943363	0.069369
 172	8.5500e-02	6.8052	54.670668	0.001242	12.424968	4.209693	0.099214
 173	8.6000e-02	6.8421	54.948952	0.000697	6.970104	2.361535	0.055657
 174	8.6500e-02	6.8870	55.412758	0.001162	11.616840	3.935892	0.092761
 175	8.7000e-02	6.9239	55.368394	-0.000111	-1.111176	-0.376477	-0.008873
 176	8.7500e-02	6.9704	55.691042	0.000808	8.081280	2.738012	0.064530
 177	8.8000e-02	7.0073	56.098385	0.001020	10.202616	3.456740	0.081469
 178	8.8500e-02	7.0474	56.328272	0.000576	5.757912	1.950833	0.045977
 179	8.9000e-02	7.0763	56.816277	0.001222	12.222936	4.141243	0.097601
 180	8.9500e-02	7.1308	57.251851	0.001091	10.909728	3.696316	0.087115
 181	9.0000e-02	7.1645	57.501903	0.000626	6.262992	2.121959	0.050010
 182	9.0500e-02	7.2126	57.643062	0.000354	3.535560	1.197880	0.028232
 183	9.1000e-02	7.2543	57.909246	0.000667	6.667056	2.258860	0.053237
 184	9.1500e-02	7.2880	58.360953	0.001131	11.313792	3.833217	0.090341
 185	9.2000e-02	7.3281	58.683601	0.000808	8.081280	2.738012	0.064530
 186	9.2500e-02	7.3634	59.094977	0.001030	10.303632	3.490965	0.082275
 187	9.3000e-02	7.4051	59.264367	0.000424	4.242672	1.437456	0.033878
 188	9.3500e-02	7.4468	59.385360	0.000303	3.030480	1.026754	0.024199
 189	9.4000e-02	7.4821	59.841101	0.001141	11.414808	3.867442	0.091148
 190	9.4500e-02	7.5319	60.187947	0.000869	8.687376	2.943363	0.069369
 191	9.5000e-02	7.5624	60.514628	0.000818	8.182296	2.772237	0.065336
 192	9.5500e-02	7.5960	60.667886	0.000384	3.838608	1.300556	0.030652
 193	9.6000e-02	7.6394	61.018765	0.000879	8.788392	2.977588	0.070176
 194	9.6500e-02	7.6811	61.438208	0.001051	10.505664	3.559415	0.083888
 195	9.7000e-02	7.7228	61.813286	0.000939	9.394488	3.182939	0.075016
 196	9.7500e-02	7.7597	62.014941	0.000505	5.050800	1.711257	0.040331
 197	9.8000e-02	7.8094	62.365820	0.000879	8.788392	2.977588	0.070176
 198	9.8500e-02	7.8399	62.765097	0.001000	10.000584	3.388290	0.079855
 199	9.9000e-02	7.8832	62.914322	0.000374	3.737592	1.266330	0.029845
 200	9.9500e-02	7.9233	63.390227	0.001192	11.919888	4.038567	0.095181
 201	1.0000e-01	7.9698	63.519286	0.000323	3.232512	1.095205	0.025812
 202	1.0050e-01	8.0083	63.821769	0.000758	7.576200	2.566886	0.060496
 203	1.0100e-01	8.0404	64.471098	0.001626	16.263576	5.510249	0.129866
 204	1.0150e-01	8.0837	64.475131	0.000010	0.101016	0.034225	0.000807
 205	1.0200e-01	8.1286	64.692918	0.000545	5.454864	1.848158	0.043557
 206	1.0250e-01	8.1607	65.172857	0.001202	12.020904	4.072793	0.095988
 207	1.0300e-01	8.2137	65.265618	0.000232	2.323368	0.787178	0.018552
 208	1.0350e-01	8.2442	65.802020	0.001344	13.435128	4.551945	0.107280
 209	1.0400e-01	8.2827	66.019808	0.000545	5.454864	1.848158	0.043557
 210	1.0450e-01	8.3292	66.056105	0.000091	0.909144	0.308026	0.007260
 211	1.0500e-01	8.3629	66.322290	0.000667	6.667056	2.258860	0.053237
 212	1.0550e-01	8.4094	66.693335	0.000929	9.293472	3.148714	0.074209
 213	1.0600e-01	8.4431	67.072446	0.000950	9.495504	3.217164	0.075822
 214	1.0650e-01	8.4864	67.342664	0.000677	6.768072	2.293085	0.054044
 215	1.0700e-01	8.5265	67.754040	0.001030	10.303632	3.490965	0.082275
 216	1.0750e-01	8.5698	68.129118	0.000939	9.394488	3.182939	0.075016
 217	1.0800e-01	8.6083	68.564693	0.001091	10.909728	3.696316	0.087115
 218	1.0850e-01	8.6356	68.717951	0.000384	3.838608	1.300556	0.030652
 219	1.0900e-01	8.6757	69.012367	0.000737	7.374168	2.498436	0.058883
 220	1.0950e-01	8.7238	69.282584	0.000677	6.768072	2.293085	0.054044
 221	1.1000e-01	8.7575	69.645563	0.000909	9.091440	3.080263	0.072596
 222	1.1050e-01	8.8024	69.810920	0.000414	4.141656	1.403231	0.033071
 223	1.1100e-01	8.8441	70.048873	0.000596	5.959944	2.019284	0.047591
 224	1.1150e-01	8.8907	70.343289	0.000737	7.374168	2.498436	0.058883
 225	1.1200e-01	8.9276	70.629639	0.000717	7.172136	2.429986	0.057270
 226	1.1250e-01	8.9661	70.992618	0.000909	9.091440	3.080263	0.072596
 227	1.1300e-01	9.0046	71.416094	0.001061	10.606680	3.593641	0.084695
 228	1.1350e-01	9.0479	71.674212	0.000647	6.465024	2.190409	0.051624
 229	1.1400e-01	9.0944	71.871834	0.000495	4.949784	1.677032	0.039524
 230	1.1450e-01	9.1297	72.271110	0.001000	10.000584	3.388290	0.079855
 231	1.1500e-01	9.1570	72.513096	0.000606	6.060960	2.053509	0.048397
 232	1.1550e-01	9.2019	72.940605	0.001071	10.707696	3.627866	0.085502
 233	1.1600e-01	9.2404	72.944638	0.000010	0.101016	0.034225	0.000807
 234	1.1650e-01	9.2837	73.420544	0.001192	11.919888	4.038567	0.095181
 235	1.1700e-01	9.3142	73.791589	0.000929	9.293472	3.148714	0.074209
 236	1.1750e-01	9.3671	73.896449	0.000263	2.626416	0.889854	0.020972
 237	1.1800e-01	9.4056	74.255395	0.000899	8.990424	3.046038	0.071789
 238	1.1850e-01	9.4489	74.529646	0.000687	6.869088	2.327310	0.054850
 239	1.1900e-01	9.4826	74.650639	0.000303	3.030480	1.026754	0.024199
 240	1.1950e-01	9.5275	74.961187	0.000778	7.778232	2.635336	0.062110
 241	1.2000e-01	9.5644	75.328199	0.000919	9.192456	3.114488	0.073402
 242	1.2050e-01	9.6126	75.529854	0.000505	5.050800	1.711257	0.040331
 243	1.2100e-01	9.6607	75.787972	0.000647	6.465024	2.190409	0.051624
 244	1.2150e-01	9.6944	76.300176	0.001283	12.829032	4.346594	0.102441
 245	1.2200e-01	9.7361	76.469566	0.000424	4.242672	1.437456	0.033878
 246	1.2250e-01	9.7714	76.788181	0.000798	7.980264	2.703787	0.063723
 247	1.2300e-01	9.8067	77.098729	0.000778	7.778232	2.635336	0.062110
 248	1.2350e-01	9.8436	77.409278	0.000778	7.778232	2.635336	0.062110
 249	1.2400e-01	9.8773	77.808555	0.001000	10.000584	3.388290	0.079855
 250	1.2450e-01	9.9302	77.986011	0.000444	4.444704	1.505907	0.035491
 251	1.2500e-01	9.9591	78.163467	0.000444	4.444704	1.505907	0.035491
 252	1.2550e-01	10.0056	78.570810	0.001020	10.202616	3.456740	0.081469
 253	1.2600e-01	10.0505	78.639373	0.000172	1.717272	0.581828	0.013713
 254	1.2650e-01	10.0858	78.970087	0.000828	8.283312	2.806462	0.066143
 255	1.2700e-01	10.1307	79.224172	0.000636	6.364008	2.156184	0.050817
 256	1.2750e-01	10.1773	79.615383	0.000980	9.798552	3.319839	0.078242
 257	1.2800e-01	10.1997	79.958196	0.000859	8.586360	2.909138	0.068563
 258	1.2850e-01	10.2398	79.994494	0.000091	0.909144	0.308026	0.007260
 259	1.2900e-01	10.2847	80.244546	0.000626	6.262992	2.121959	0.050010
 260	1.2950e-01	10.3313	80.760783	0.001293	12.930048	4.380819	0.103247
 261	1.3000e-01	10.3730	80.954372	0.000485	4.848768	1.642807	0.038718
 262	1.3050e-01	10.4147	81.172159	0.000545	5.454864	1.848158	0.043557
 263	1.3100e-01	10.4564	81.402046	0.000576	5.757912	1.950833	0.045977
 264	1.3150e-01	10.4933	81.886017	0.001212	12.121920	4.107018	0.096794
 265	1.3200e-01	10.5270	82.184467	0.000748	7.475184	2.532661	0.059690
 266	1.3250e-01	10.5671	82.402254	0.000545	5.454864	1.848158	0.043557
 267	1.3300e-01	10.6072	82.563578	0.000404	4.040640	1.369006	0.032265
 268	1.3350e-01	10.6457	83.071748	0.001273	12.728016	4.312369	0.101634
 269	1.3400e-01	10.6922	83.087881	0.000040	0.404064	0.136901	0.003226
 270	1.3450e-01	10.7243	83.491191	0.001010	10.101600	3.422515	0.080662
 271	1.3500e-01	10.7692	83.761408	0.000677	6.768072	2.293085	0.054044
 272	1.3550e-01	10.8093	84.015494	0.000636	6.364008	2.156184	0.050817
 273	1.3600e-01	10.8494	84.317976	0.000758	7.576200	2.566886	0.060496
 274	1.3650e-01	10.8911	84.543829	0.000566	5.656896	1.916608	0.045171
 275	1.3700e-01	10.9248	84.910841	0.000919	9.192456	3.114488	0.073402
 276	1.3750e-01	10.9746	85.148794	0.000596	5.959944	2.019284	0.047591
 277	1.3800e-01	11.0050	85.273820	0.000313	3.131496	1.060980	0.025005
 278	1.3850e-01	11.0467	85.838454	0.001414	14.142240	4.791521	0.112927
 279	1.3900e-01	11.0836	85.935248	0.000242	2.424384	0.821404	0.019359
 280	1.3950e-01	11.1302	86.310327	0.000939	9.394488	3.182939	0.075016
 281	1.4000e-01	11.1574	86.616842	0.000768	7.677216	2.601111	0.061303
 282	1.4050e-01	11.2040	87.044351	0.001071	10.707696	3.627866	0.085502
 283	1.4100e-01	11.2505	87.092748	0.000121	1.212192	0.410702	0.009679
 284	1.4150e-01	11.2890	87.165344	0.000182	1.818288	0.616053	0.014519
 285	1.4200e-01	11.3243	87.754176	0.001475	14.748336	4.996872	0.117766
 286	1.4250e-01	11.3628	87.855003	0.000253	2.525400	0.855629	0.020165
 287	1.4300e-01	11.4077	88.234115	0.000950	9.495504	3.217164	0.075822
 288	1.4350e-01	11.4430	88.310744	0.000192	1.919304	0.650278	0.015326
 289	1.4400e-01	11.4911	88.504332	0.000485	4.848768	1.642807	0.038718
 290	1.4450e-01	11.5296	88.988304	0.001212	12.121920	4.107018	0.096794
 291	1.4500e-01	11.5745	89.193992	0.000515	5.151816	1.745483	0.041138
 292	1.4550e-01	11.6114	89.524706	0.000828	8.283312	2.806462	0.066143
 293	1.4600e-01	11.6483	89.819122	0.000737	7.374168	2.498436	0.058883
 294	1.4650e-01	11.6933	90.020777	0.000505	5.050800	1.711257	0.040331
 295	1.4700e-01	11.7285	90.395856	0.000939	9.394488	3.182939	0.075016
 296	1.4750e-01	11.7719	90.557179	0.000404	4.040640	1.369006	0.032265
 297	1.4800e-01	11.8055	90.706404	0.000374	3.737592	1.266330	0.029845
 298	1.4850e-01	11.8473	91.339601	0.001586	15.859512	5.373348	0.126639
 299	1.4900e-01	11.9018	91.476726	0.000343	3.434544	1.163655	0.027425
 300	1.4950e-01	11.9387	91.383965	-0.000232	-2.323368	-0.787178	-0.018552
 301	1.5000e-01	11.9644	91.686447	0.000758	7.576200	2.566886	0.060496
 302	1.5050e-01	12.0093	92.105889	0.001051	10.505664	3.559415	0.083888
 303	1.5100e-01	12.0478	92.388206	0.000707	7.071120	2.395760	0.056463
 304	1.5150e-01	12.0895	92.597927	0.000525	5.252832	1.779708	0.041944
 305	1.5200e-01	12.1232	92.847979	0.000626	6.262992	2.121959	0.050010
 306	1.5250e-01	12.1777	93.009303	0.000404	4.040640	1.369006	0.032265
 307	1.5300e-01	12.2066	93.428746	0.001051	10.505664	3.559415	0.083888
 308	1.5350e-01	12.2467	93.590070	0.000404	4.040640	1.369006	0.032265
 309	1.5400e-01	12.2932	93.848188	0.000647	6.465024	2.190409	0.051624
 310	1.5450e-01	12.3333	94.247465	0.001000	10.000584	3.388290	0.079855
 311	1.5500e-01	12.3686	94.541881	0.000737	7.374168	2.498436	0.058883
 312	1.5550e-01	12.4152	94.574146	0.000081	0.808128	0.273801	0.006453
 313	1.5600e-01	12.4440	94.985522	0.001030	10.303632	3.490965	0.082275
 314	1.5650e-01	12.4809	95.191210	0.000515	5.151816	1.745483	0.041138
 315	1.5700e-01	12.5291	95.594520	0.001010	10.101600	3.422515	0.080662
 316	1.5750e-01	12.5692	95.888936	0.000737	7.374168	2.498436	0.058883
 317	1.5800e-01	12.6125	96.070425	0.000455	4.545720	1.540132	0.036298
 318	1.5850e-01	12.6446	96.215617	0.000364	3.636576	1.232105	0.029038
 319	1.5900e-01	12.6847	96.510033	0.000737	7.374168	2.498436	0.058883
 320	1.5950e-01	12.7344	96.929475	0.001051	10.505664	3.559415	0.083888
 321	1.6000e-01	12.7761	96.921409	-0.000020	-0.202032	-0.068450	-0.001613
 322	1.6050e-01	12.8082	97.405381	0.001212	12.121920	4.107018	0.096794
 323	1.6100e-01	12.8419	97.675598	0.000677	6.768072	2.293085	0.054044
 324	1.6150e-01	12.8868	98.018412	0.000859	8.586360	2.909138	0.068563
 325	1.6200e-01	12.9237	98.135372	0.000293	2.929464	0.992529	0.023392
 326	1.6250e-01	12.9734	98.300729	0.000414	4.141656	1.403231	0.033071
 327	1.6300e-01	13.0071	98.667741	0.000919	9.192456	3.114488	0.073402
 328	1.6350e-01	13.0472	98.861329	0.000485	4.848768	1.642807	0.038718
 329	1.6400e-01	13.0921	99.115415	0.000636	6.364008	2.156184	0.050817
 330	1.6450e-01	13.1322	99.268672	0.000384	3.838608	1.300556	0.030652
 331	1.6500e-01	13.1579	99.728446	0.001152	11.515824	3.901667	0.091955
 332	1.6550e-01	13.1980	99.861538	0.000333	3.333528	1.129430	0.026618
 333	1.6600e-01	13.2510	100.026895	0.000414	4.141656	1.403231	0.033071
 334	1.6650e-01	13.2814	100.418106	0.000980	9.798552	3.319839	0.078242
 335	1.6700e-01	13.3280	100.502801	0.000212	2.121336	0.718728	0.016939
 336	1.6750e-01	13.3681	100.696389	0.000485	4.848768	1.642807	0.038718
 337	1.6800e-01	13.4050	101.023070	0.000818	8.182296	2.772237	0.065336
 338	1.6850e-01	13.4467	101.220692	0.000495	4.949784	1.677032	0.039524
 339	1.6900e-01	13.4852	101.648201	0.001071	10.707696	3.627866	0.085502
 340	1.6950e-01	13.5205	101.781293	0.000333	3.333528	1.129430	0.026618
 341	1.7000e-01	13.5750	102.095875	0.000788	7.879248	2.669562	0.062916
 342	1.7050e-01	13.5975	102.450787	0.000889	8.889408	3.011813	0.070983
 343	1.7100e-01	13.6488	102.632277	0.000455	4.545720	1.540132	0.036298
 344	1.7150e-01	13.6921	102.696806	0.000162	1.616256	0.547602	0.012906
 345	1.7200e-01	13.7322	103.112215	0.001040	10.404648	3.525190	0.083082
 346	1.7250e-01	13.7691	103.297738	0.000465	4.646736	1.574357	0.037105
 347	1.7300e-01	13.8108	103.547790	0.000626	6.262992	2.121959	0.050010
 348	1.7350e-01	13.8509	103.785743	0.000596	5.959944	2.019284	0.047591
 349	1.7400e-01	13.8830	104.068060	0.000707	7.071120	2.395760	0.056463
 350	1.7450e-01	13.9215	104.435072	0.000919	9.192456	3.114488	0.073402
 351	1.7500e-01	13.9648	104.588330	0.000384	3.838608	1.300556	0.030652
 352	1.7550e-01	14.0082	104.882746	0.000737	7.374168	2.498436	0.058883
 353	1.7600e-01	14.0435	105.165063	0.000707	7.071120	2.395760	0.056463
 354	1.7650e-01	14.0868	105.201360	0.000091	0.909144	0.308026	0.007260
 355	1.7700e-01	14.1221	105.556273	0.000889	8.889408	3.011813	0.070983
 356	1.7750e-01	14.1750	105.838590	0.000707	7.071120	2.395760	0.056463
 357	1.7800e-01	14.2055	106.068477	0.000576	5.757912	1.950833	0.045977
 358	1.7850e-01	14.2472	106.253999	0.000465	4.646736	1.574357	0.037105
 359	1.7900e-01	14.2873	106.407257	0.000384	3.838608	1.300556	0.030652
 360	1.7950e-01	14.3290	106.709739	0.000758	7.576200	2.566886	0.060496
 361	1.8000e-01	14.3595	106.975924	0.000667	6.667056	2.258860	0.053237
 362	1.8050e-01	14.4124	107.109016	0.000333	3.333528	1.129430	0.026618
 363	1.8100e-01	14.4477	107.572822	0.001162	11.616840	3.935892	0.092761
 364	1.8150e-01	14.4830	107.685749	0.000283	2.828448	0.958304	0.022585
 365	1.8200e-01	14.5199	107.899503	0.000535	5.353848	1.813933	0.042751
 366	1.8250e-01	14.5664	108.214085	0.000788	7.879248	2.669562	0.062916
 367	1.8300e-01	14.6049	108.407674	0.000485	4.848768	1.642807	0.038718
 368	1.8350e-01	14.6434	108.625461	0.000545	5.454864	1.848158	0.043557
 369	1.8400e-01	14.6932	108.746454	0.000303	3.030480	1.026754	0.024199
 370	1.8450e-01	14.7253	109.182029	0.001091	10.909728	3.696316	0.087115
 371	1.8500e-01	14.7541	109.573239	0.000980	9.798552	3.319839	0.078242
 372	1.8550e-01	14.8039	109.633736	0.000152	1.515240	0.513377	0.012099
 373	1.8600e-01	14.8343	109.924119	0.000727	7.273152	2.464211	0.058077
 374	1.8650e-01	14.8873	110.145939	0.000556	5.555880	1.882383	0.044364
 375	1.8700e-01	14.9210	110.266932	0.000303	3.030480	1.026754	0.024199
 376	1.8750e-01	14.9675	110.589580	0.000808	8.081280	2.738012	0.064530
 377	1.8800e-01	15.0124	110.670242	0.000202	2.020320	0.684503	0.016132
 378	1.8850e-01	15.0413	111.041287	0.000929	9.293472	3.148714	0.074209
 379	1.8900e-01	15.0830	111.343770	0.000758	7.576200	2.566886	0.060496
 380	1.8950e-01	15.1279	111.291339	-0.000131	-1.313208	-0.444927	-0.010486
 381	1.9000e-01	15.1600	111.755146	0.001162	11.616840	3.935892	0.092761
 382	1.9050e-01	15.2065	112.106025	0.000879	8.788392	2.977588	0.070176
 383	1.9100e-01	15.2418	112.259283	0.000384	3.838608	1.300556	0.030652
 384	1.9150e-01	15.2755	112.614196	0.000889	8.889408	3.011813	0.070983
 385	1.9200e-01	15.3236	112.731156	0.000293	2.929464	0.992529	0.023392
 386	1.9250e-01	15.3605	112.969108	0.000596	5.959944	2.019284	0.047591
 387	1.9300e-01	15.3958	113.231260	0.000657	6.566040	2.224635	0.052430
 388	1.9350e-01	15.4439	113.440981	0.000525	5.252832	1.779708	0.041944
 389	1.9400e-01	15.4873	113.844291	0.001010	10.101600	3.422515	0.080662
 390	1.9450e-01	15.5290	114.037880	0.000485	4.848768	1.642807	0.038718
 391	1.9500e-01	15.5691	114.324230	0.000717	7.172136	2.429986	0.057270
 392	1.9550e-01	15.6124	114.416991	0.000232	2.323368	0.787178	0.018552
 393	1.9600e-01	15.6461	114.537984	0.000303	3.030480	1.026754	0.024199
 394	1.9650e-01	15.6846	115.025989	0.001222	12.222936	4.141243	0.097601
 395	1.9700e-01	15.7279	115.086485	0.000152	1.515240	0.513377	0.012099
 396	1.9750e-01	15.7632	115.304272	0.000545	5.454864	1.848158	0.043557
 397	1.9800e-01	15.8065	115.489795	0.000465	4.646736	1.574357	0.037105
 398	1.9850e-01	15.8402	115.808410	0.000798	7.980264	2.703787	0.063723
 399	1.9900e-01	15.8867	116.227852	0.001051	10.505664	3.559415	0.083888
 400	1.9950e-01	15.9252	116.360944	0.000333	3.333528	1.129430	0.026618
 401	2.0000e-01	15.9637	116.385143	0.000061	0.606096	0.205351	0.004840
 402	2.0050e-01	16.0070	116.623096	0.000596	5.959944	2.019284	0.047591
 403	2.0100e-01	16.0487	117.058670	0.001091	10.909728	3.696316	0.087115
 404	2.0150e-01	16.0824	117.191763	0.000333	3.333528	1.129430	0.026618
 405	2.0200e-01	16.1290	117.570874	0.000950	9.495504	3.217164	0.075822
 406	2.0250e-01	16.1675	117.732198	0.000404	4.040640	1.369006	0.032265
 407	2.0300e-01	16.1947	118.075011	0.000859	8.586360	2.909138	0.068563
 408	2.0350e-01	16.2364	118.079044	0.000010	0.101016	0.034225	0.000807
 409	2.0400e-01	16.2862	118.446056	0.000919	9.192456	3.114488	0.073402
 410	2.0450e-01	16.3215	118.538818	0.000232	2.323368	0.787178	0.018552
 411	2.0500e-01	16.3648	118.921962	0.000960	9.596520	3.251389	0.076629
 412	2.0550e-01	16.3985	119.034889	0.000283	2.828448	0.958304	0.022585
 413	2.0600e-01	16.4370	119.220411	0.000465	4.646736	1.574357	0.037105
 414	2.0650e-01	16.4803	119.506761	0.000717	7.172136	2.429986	0.057270
 415	2.0700e-01	16.5268	119.813277	0.000768	7.677216	2.601111	0.061303
 416	2.0750e-01	16.5733	120.071395	0.000647	6.465024	2.190409	0.051624
 417	2.0800e-01	16.6054	120.289182	0.000545	5.454864	1.848158	0.043557
 418	2.0850e-01	16.6455	120.559400	0.000677	6.768072	2.293085	0.054044
 419	2.0900e-01	16.6760	120.773154	0.000535	5.353848	1.813933	0.042751
 420	2.0950e-01	16.7338	120.869949	0.000242	2.424384	0.821404	0.019359
 421	2.1000e-01	16.7690	121.156299	0.000717	7.172136	2.429986	0.057270
 422	2.1050e-01	16.7995	121.309556	0.000384	3.838608	1.300556	0.030652
 423	2.1100e-01	16.8460	121.644303	0.000838	8.384328	2.840687	0.066949
 424	2.1150e-01	16.8910	121.813694	0.000424	4.242672	1.437456	0.033878
 425	2.1200e-01	16.9231	122.047613	0.000586	5.858928	1.985059	0.046784
 426	2.1250e-01	16.9792	122.108110	0.000152	1.515240	0.513377	0.012099
 427	2.1300e-01	17.0049	122.418658	0.000778	7.778232	2.635336	0.062110
 428	2.1350e-01	17.0466	122.463023	0.000111	1.111176	0.376477	0.008873
 429	2.1400e-01	17.0835	122.830034	0.000919	9.192456	3.114488	0.073402
 430	2.1450e-01	17.1284	123.156715	0.000818	8.182296	2.772237	0.065336
 431	2.1500e-01	17.1669	123.426933	0.000677	6.768072	2.293085	0.054044
 432	2.1550e-01	17.2006	123.656820	0.000576	5.757912	1.950833	0.045977
 433	2.1600e-01	17.2471	124.076262	0.001051	10.505664	3.559415	0.083888
 434	2.1650e-01	17.2824	124.197255	0.000303	3.030480	1.026754	0.024199
 435	2.1700e-01	17.3321	124.402943	0.000515	5.151816	1.745483	0.041138
 436	2.1750e-01	17.3706	124.491671	0.000222	2.222352	0.752953	0.017746
 437	2.1800e-01	17.4059	124.648962	0.000394	3.939624	1.334781	0.031458
 438	2.1850e-01	17.4541	124.947411	0.000748	7.475184	2.532661	0.059690
 439	2.1900e-01	17.4813	125.124868	0.000444	4.444704	1.505907	0.035491
 440	2.1950e-01	17.5311	125.459615	0.000838	8.384328	2.840687	0.066949
 441	2.2000e-01	17.5680	125.770163	0.000778	7.778232	2.635336	0.062110
 442	2.2050e-01	17.6065	125.955686	0.000465	4.646736	1.574357	0.037105
 443	2.2100e-01	17.6450	126.181539	0.000566	5.656896	1.916608	0.045171
 444	2.2150e-01	17.6770	126.229937	0.000121	1.212192	0.410702	0.009679
 445	2.2200e-01	17.7188	126.697776	0.001172	11.717856	3.970117	0.093568
 446	2.2250e-01	17.7717	126.859100	0.000404	4.040640	1.369006	0.032265
 447	2.2300e-01	17.8022	126.951861	0.000232	2.323368	0.787178	0.018552
 448	2.2350e-01	17.8487	127.339039	0.000970	9.697536	3.285614	0.077435
 449	2.2400e-01	17.8904	127.359204	0.000051	0.505080	0.171126	0.004033
 450	2.2450e-01	17.9225	127.633455	0.000687	6.869088	2.327310	0.054850
 451	2.2500e-01	17.9642	127.831077	0.000495	4.949784	1.677032	0.039524
 452	2.2550e-01	18.0043	128.133559	0.000758	7.576200	2.566886	0.060496
 453	2.2600e-01	18.0492	128.165824	0.000081	0.808128	0.273801	0.006453
 454	2.2650e-01	18.0845	128.504604	0.000849	8.485344	2.874912	0.067756
 455	2.2700e-01	18.1246	128.883715	0.000950	9.495504	3.217164	0.075822
 456	2.2750e-01	18.1727	129.065205	0.000455	4.545720	1.540132	0.036298
 457	2.2800e-01	18.2064	129.371720	0.000768	7.677216	2.601111	0.061303
 458	2.2850e-01	18.2417	129.500780	0.000323	3.232512	1.095205	0.025812
 459	2.2900e-01	18.2834	129.666137	0.000414	4.141656	1.403231	0.033071
 460	2.2950e-01	18.3203	129.819394	0.000384	3.838608	1.300556	0.030652
 461	2.3000e-01	18.3749	130.234804	0.001040	10.404648	3.525190	0.083082
 462	2.3050e-01	18.4054	130.355796	0.000303	3.030480	1.026754	0.024199
 463	2.3100e-01	18.4519	130.787338	0.001081	10.808712	3.662091	0.086308
 464	2.3150e-01	18.4872	130.872033	0.000212	2.121336	0.718728	0.016939
 465	2.3200e-01	18.5321	131.109986	0.000596	5.959944	2.019284	0.047591
 466	2.3250e-01	18.5722	131.319707	0.000525	5.252832	1.779708	0.041944
 467	2.3300e-01	18.6075	131.368104	0.000121	1.212192	0.410702	0.009679
 468	2.3350e-01	18.6476	131.642355	0.000687	6.869088	2.327310	0.054850
 469	2.3400e-01	18.6925	131.666554	0.000061	0.606096	0.205351	0.004840
 470	2.3450e-01	18.7294	131.985168	0.000798	7.980264	2.703787	0.063723
 471	2.3500e-01	18.7663	132.336048	0.000879	8.788392	2.977588	0.070176
 472	2.3550e-01	18.8177	132.622398	0.000717	7.172136	2.429986	0.057270
 473	2.3600e-01	18.8449	132.912781	0.000727	7.273152	2.464211	0.058077
 474	2.3650e-01	18.8963	133.126535	0.000535	5.353848	1.813933	0.042751
 475	2.3700e-01	18.9299	133.255594	0.000323	3.232512	1.095205	0.025812
 476	2.3750e-01	18.9717	133.332223	0.000192	1.919304	0.650278	0.015326
 477	2.3800e-01	18.9973	133.763765	0.001081	10.808712	3.662091	0.086308
 478	2.3850e-01	19.0487	133.808129	0.000111	1.111176	0.376477	0.008873
 479	2.3900e-01	19.0920	134.078346	0.000677	6.768072	2.293085	0.054044
 480	2.3950e-01	19.1305	134.364696	0.000717	7.172136	2.429986	0.057270
 481	2.4000e-01	19.1658	134.546186	0.000455	4.545720	1.540132	0.036298
 482	2.4050e-01	19.2043	134.828503	0.000707	7.071120	2.395760	0.056463
 483	2.4100e-01	19.2524	135.014025	0.000465	4.646736	1.574357	0.037105
 484	2.4150e-01	19.2829	135.332640	0.000798	7.980264	2.703787	0.063723
 485	2.4200e-01	19.3262	135.385070	0.000131	1.313208	0.444927	0.010486
 486	2.4250e-01	19.3695	135.828711	0.001111	11.111760	3.764766	0.088728
 487	2.4300e-01	19.4032	135.752082	-0.000192	-1.919304	-0.650278	-0.015326
 488	2.4350e-01	19.4529	136.058598	0.000768	7.677216	2.601111	0.061303
 489	2.4400e-01	19.4834	136.203789	0.000364	3.636576	1.232105	0.029038
 490	2.4450e-01	19.5283	136.510305	0.000768	7.677216	2.601111	0.061303
 491	2.4500e-01	19.5620	136.824887	0.000788	7.879248	2.669562	0.062916
 492	2.4550e-01	19.6005	137.236263	0.001030	10.303632	3.490965	0.082275
 493	2.4600e-01	19.6406	137.111237	-0.000313	-3.131496	-1.060980	-0.025005
 494	2.4650e-01	19.6952	137.345156	0.000586	5.858928	1.985059	0.046784
 495	2.4700e-01	19.7192	137.732334	0.000970	9.697536	3.285614	0.077435
 496	2.4750e-01	19.7609	137.933989	0.000505	5.050800	1.711257	0.040331
 497	2.4800e-01	19.8010	138.083213	0.000374	3.737592	1.266330	0.029845
 498	2.4850e-01	19.8460	138.321166	0.000596	5.959944	2.019284	0.047591
 499	2.4900e-01	19.8925	138.401828	0.000202	2.020320	0.684503	0.016132
 500	2.4950e-01	19.9326	138.663980	0.000657	6.566040	2.224635	0.052430
 501	2.5000e-01	19.9727	138.801105	0.000343	3.434544	1.163655	0.027425
 502	2.5050e-01	19.9807	138.857568	0.000141	1.414224	0.479152	0.011293
 503	2.5100e-01	19.9502	138.809171	0.000121	1.212192	0.410702	-0.009679
 504	2.5150e-01	19.9246	138.591384	0.000545	5.454864	1.848158	-0.043557
 505	2.5200e-01	19.8700	138.635748	-0.000111	-1.111176	-0.376477	0.008873
 506	2.5250e-01	19.8363	138.522821	0.000283	2.828448	0.958304	-0.022585
 507	2.5300e-01	19.7994	138.309067	0.000535	5.353848	1.813933	-0.042751
 508	2.5350e-01	19.7465	138.034816	0.000687	6.869088	2.327310	-0.054850
 509	2.5400e-01	19.7192	137.942055	0.000232	2.323368	0.787178	-0.018552
 510	2.5450e-01	19.6743	137.687970	0.000636	6.364008	2.156184	-0.050817
 511	2.5500e-01	19.6342	137.607308	0.000202	2.020320	0.684503	-0.016132
 512	2.5550e-01	19.5973	137.462116	0.000364	3.636576	1.232105	-0.029038
 513	2.5600e-01	19.5508	137.119303	0.000859	8.586360	2.909138	-0.068563
 514	2.5650e-01	19.5139	137.074939	0.000111	1.111176	0.376477	-0.008873
 515	2.5700e-01	19.4754	136.808754	0.000667	6.667056	2.258860	-0.053237
 516	2.5750e-01	19.4305	136.663563	0.000364	3.636576	1.232105	-0.029038
 517	2.5800e-01	19.3936	136.232021	0.001081	10.808712	3.662091	-0.086308
 518	2.5850e-01	19.3519	136.284451	-0.000131	-1.313208	-0.444927	0.010486
 519	2.5900e-01	19.3102	136.340915	-0.000141	-1.414224	-0.479152	0.011293
 520	2.5950e-01	19.2781	136.002135	0.000849	8.485344	2.874912	-0.067756
 521	2.6000e-01	19.2364	135.792413	0.000525	5.252832	1.779708	-0.041944
 522	2.6050e-01	19.1962	135.719818	0.000182	1.818288	0.616053	-0.014519
 523	2.6100e-01	19.1497	135.497997	0.000556	5.555880	1.882383	-0.044364
 524	2.6150e-01	19.1096	135.143085	0.000889	8.889408	3.011813	-0.070983
 525	2.6200e-01	19.0695	135.211647	-0.000172	-1.717272	-0.581828	0.013713
 526	2.6250e-01	19.0438	134.949496	0.000657	6.566040	2.224635	-0.052430
 527	2.6300e-01	18.9989	134.719609	0.000576	5.757912	1.950833	-0.045977
 528	2.6350e-01	18.9508	134.465524	0.000636	6.364008	2.156184	-0.050817
 529	2.6400e-01	18.9187	134.271935	0.000485	4.848768	1.642807	-0.038718
 530	2.6450e-01	18.8802	134.138843	0.000333	3.333528	1.129430	-0.026618
 531	2.6500e-01	18.8321	134.066247	0.000182	1.818288	0.616053	-0.014519
 532	2.6550e-01	18.8016	133.848460	0.000545	5.454864	1.848158	-0.043557
 533	2.6600e-01	18.7551	133.420951	0.001071	10.707696	3.627866	-0.085502
 534	2.6650e-01	18.7118	133.582275	-0.000404	-4.040640	-1.369006	0.032265
 535	2.6700e-01	18.6765	133.251561	0.000828	8.283312	2.806462	-0.066143
 536	2.6750e-01	18.6364	133.134601	0.000293	2.929464	0.992529	-0.023392
 537	2.6800e-01	18.5963	132.836152	0.000748	7.475184	2.532661	-0.059690
 538	2.6850e-01	18.5530	132.517537	0.000798	7.980264	2.703787	-0.063723
 539	2.6900e-01	18.5209	132.263452	0.000636	6.364008	2.156184	-0.050817
 540	2.6950e-01	18.4776	132.263452	-0.000000	-0.000000	-0.000000	0.000000
 541	2.7000e-01	18.4374	132.247320	0.000040	0.404064	0.136901	-0.003226
 542	2.7050e-01	18.3861	132.041632	0.000515	5.151816	1.745483	-0.041138
 543	2.7100e-01	18.3524	131.706885	0.000838	8.384328	2.840687	-0.066949
 544	2.7150e-01	18.3219	131.295508	0.001030	10.303632	3.490965	-0.082275
 545	2.7200e-01	18.2738	131.311641	-0.000040	-0.404064	-0.136901	0.003226
 546	2.7250e-01	18.2337	131.122085	0.000475	4.747752	1.608582	-0.037911
 547	2.7300e-01	18.1888	130.932530	0.000475	4.747752	1.608582	-0.037911
 548	2.7350e-01	18.1487	130.710709	0.000556	5.555880	1.882383	-0.044364
 549	2.7400e-01	18.1150	130.545352	0.000414	4.141656	1.403231	-0.033071
 550	2.7450e-01	18.0717	130.315465	0.000576	5.757912	1.950833	-0.045977
 551	2.7500e-01	18.0348	130.186406	0.000323	3.232512	1.095205	-0.025812
 552	2.7550e-01	17.9851	130.105744	0.000202	2.020320	0.684503	-0.016132
 553	2.7600e-01	17.9546	129.750832	0.000889	8.889408	3.011813	-0.070983
 554	2.7650e-01	17.9145	129.537077	0.000535	5.353848	1.813933	-0.042751
 555	2.7700e-01	17.8776	129.323323	0.000535	5.353848	1.813933	-0.042751
 556	2.7750e-01	17.8423	129.113602	0.000525	5.252832	1.779708	-0.041944
 557	2.7800e-01	17.7893	128.976477	0.000343	3.434544	1.163655	-0.027425
 558	2.7850e-01	17.7460	128.766756	0.000525	5.252832	1.779708	-0.041944
 559	2.7900e-01	17.7123	128.637696	0.000323	3.232512	1.095205	-0.025812
 560	2.7950e-01	17.6786	128.427975	0.000525	5.252832	1.779708	-0.041944
 561	2.8000e-01	17.6369	128.246486	0.000455	4.545720	1.540132	-0.036298
 562	2.8050e-01	17.5872	128.004500	0.000606	6.060960	2.053509	-0.048397
 563	2.8100e-01	17.5535	127.710084	0.000737	7.374168	2.498436	-0.058883
 564	2.8150e-01	17.5150	127.609256	0.000253	2.525400	0.855629	-0.020165
 565	2.8200e-01	17.4685	127.455999	0.000384	3.838608	1.300556	-0.030652
 566	2.8250e-01	17.4252	126.915563	0.001354	13.536144	4.586170	-0.108087
 567	2.8300e-01	17.3931	127.068821	-0.000384	-3.838608	-1.300556	0.030652
 568	2.8350e-01	17.3674	126.758273	0.000778	7.778232	2.635336	-0.062110
 569	2.8400e-01	17.3177	126.633246	0.000313	3.131496	1.060980	-0.025005
 570	2.8450e-01	17.2744	126.516287	0.000293	2.929464	0.992529	-0.023392
 571	2.8500e-01	17.2327	126.330764	0.000465	4.646736	1.574357	-0.037105
 572	2.8550e-01	17.1910	126.242036	0.000222	2.222352	0.752953	-0.017746
 573	2.8600e-01	17.1589	125.915355	0.000818	8.182296	2.772237	-0.065336
 574	2.8650e-01	17.1124	125.689501	0.000566	5.656896	1.916608	-0.045171
 575	2.8700e-01	17.0771	125.346688	0.000859	8.586360	2.909138	-0.068563
 576	2.8750e-01	17.0386	125.064371	0.000707	7.071120	2.395760	-0.056463
 577	2.8800e-01	16.9985	124.894981	0.000424	4.242672	1.437456	-0.033878
 578	2.8850e-01	16.9616	124.721558	0.000434	4.343688	1.471681	-0.034685
 579	2.8900e-01	16.9166	124.540068	0.000455	4.545720	1.540132	-0.036298
 580	2.8950e-01	16.8717	124.435208	0.000263	2.626416	0.889854	-0.020972
 581	2.9000e-01	16.8252	124.302115	0.000333	3.333528	1.129430	-0.026618
 582	2.9050e-01	16.7851	124.140792	0.000404	4.040640	1.369006	-0.032265
 583	2.9100e-01	16.7594	123.737482	0.001010	10.101600	3.422515	-0.080662
 584	2.9150e-01	16.7081	123.515661	0.000556	5.555880	1.882383	-0.044364
 585	2.9200e-01	16.6776	123.245444	0.000677	6.768072	2.293085	-0.054044
 586	2.9250e-01	16.6375	123.152682	0.000232	2.323368	0.787178	-0.018552
 587	2.9300e-01	16.5942	122.963127	0.000475	4.747752	1.608582	-0.037911
 588	2.9350e-01	16.5557	122.834068	0.000323	3.232512	1.095205	-0.025812
 589	2.9400e-01	16.5140	122.628380	0.000515	5.151816	1.745483	-0.041138
 590	2.9450e-01	16.4739	122.418658	0.000525	5.252832	1.779708	-0.041944
 591	2.9500e-01	16.4338	122.152474	0.000667	6.667056	2.258860	-0.053237
 592	2.9550e-01	16.3921	122.245235	-0.000232	-2.323368	-0.787178	0.018552
 593	2.9600e-01	16.3487	121.849992	0.000990	9.899568	3.354065	-0.079049
 594	2.9650e-01	16.3150	121.523311	0.000818	8.182296	2.772237	-0.065336
 595	2.9700e-01	16.2701	121.434582	0.000222	2.222352	0.752953	-0.017746
 596	2.9750e-01	16.2429	121.091769	0.000859	8.586360	2.909138	-0.068563
 597	2.9800e-01	16.1979	120.849783	0.000606	6.060960	2.053509	-0.048397
 598	2.9850e-01	16.1562	120.615863	0.000586	5.858928	1.985059	-0.046784
 599	2.9900e-01	16.1145	120.583599	0.000081	0.808128	0.273801	-0.006453
 600	2.9950e-01	16.0744	120.164156	0.001051	10.505664	3.559415	-0.083888
 601	3.0000e-01	16.0343	120.047196	0.000293	2.929464	0.992529	-0.023392
 602	3.0050e-01	15.9990	119.825376	0.000556	5.555880	1.882383	-0.044364
 603	3.0100e-01	15.9493	119.458364	0.000919	9.192456	3.114488	-0.073402
 604	3.0150e-01	15.9220	119.530960	-0.000182	-1.818288	-0.616053	0.014519
 605	3.0200e-01	15.8675	119.272842	0.000647	6.465024	2.190409	-0.051624
 606	3.0250e-01	15.8450	119.006657	0.000667	6.667056	2.258860	-0.053237
 607	3.0300e-01	15.7921	118.671910	0.000838	8.384328	2.840687	-0.066949
 608	3.0350e-01	15.7439	118.736439	-0.000162	-1.616256	-0.547602	0.012906
 609	3.0400e-01	15.7167	118.671910	0.000162	1.616256	0.547602	-0.012906
 610	3.0450e-01	15.6734	118.345229	0.000818	8.182296	2.772237	-0.065336
 611	3.0500e-01	15.6316	117.889489	0.001141	11.414808	3.867442	-0.091148
 612	3.0550e-01	15.5964	117.748330	0.000354	3.535560	1.197880	-0.028232
 613	3.0600e-01	15.5498	117.453914	0.000737	7.374168	2.498436	-0.058883
 614	3.0650e-01	15.5145	117.409550	0.000111	1.111176	0.376477	-0.008873
 615	3.0700e-01	15.4632	117.038505	0.000929	9.293472	3.148714	-0.074209
 616	3.0750e-01	15.4295	116.965909	0.000182	1.818288	0.616053	-0.014519
 617	3.0800e-01	15.3862	116.857015	0.000273	2.727432	0.924079	-0.021779
 618	3.0850e-01	15.3509	116.610996	0.000616	6.161976	2.087734	-0.049204
 619	3.0900e-01	15.3092	116.405308	0.000515	5.151816	1.745483	-0.041138
 620	3.0950e-01	15.2723	116.187521	0.000545	5.454864	1.848158	-0.043557
 621	3.1000e-01	15.2242	115.945535	0.000606	6.060960	2.053509	-0.048397
 622	3.1050e-01	15.1969	115.659185	0.000717	7.172136	2.429986	-0.057270
 623	3.1100e-01	15.1456	115.505927	0.000384	3.838608	1.300556	-0.030652
 624	3.1150e-01	15.1039	115.308306	0.000495	4.949784	1.677032	-0.039524
 625	3.1200e-01	15.0782	115.320405	-0.000030	-0.303048	-0.102675	0.002420
 626	3.1250e-01	15.0349	114.735606	0.001465	14.647320	4.962646	-0.116960
 627	3.1300e-01	14.9916	114.513785	0.000556	5.555880	1.882383	-0.044364
 628	3.1350e-01	14.9531	114.316163	0.000495	4.949784	1.677032	-0.039524
 629	3.1400e-01	14.9178	113.965284	0.000879	8.788392	2.977588	-0.070176
 630	3.1450e-01	14.8728	113.864456	0.000253	2.525400	0.855629	-0.020165
 631	3.1500e-01	14.8375	113.662801	0.000505	5.050800	1.711257	-0.040331
 632	3.1550e-01	14.7910	113.574073	0.000222	2.222352	0.752953	-0.017746
 633	3.1600e-01	14.7525	113.154631	0.001051	10.505664	3.559415	-0.083888
 634	3.1650e-01	14.7172	112.989274	0.000414	4.141656	1.403231	-0.033071
 635	3.1700e-01	14.6739	112.852149	0.000343	3.434544	1.163655	-0.027425
 636	3.1750e-01	14.6258	112.622262	0.000576	5.757912	1.950833	-0.045977
 637	3.1800e-01	14.5969	112.521434	0.000253	2.525400	0.855629	-0.020165
 638	3.1850e-01	14.5568	112.323813	0.000495	4.949784	1.677032	-0.039524
 639	3.1900e-01	14.5119	111.944701	0.000950	9.495504	3.217164	-0.075822
 640	3.1950e-01	14.4702	111.702715	0.000606	6.060960	2.053509	-0.048397
 641	3.2000e-01	14.4381	111.537358	0.000414	4.141656	1.403231	-0.033071
 642	3.2050e-01	14.3884	111.460730	0.000192	1.919304	0.650278	-0.015326
 643	3.2100e-01	14.3531	111.222777	0.000596	5.959944	2.019284	-0.047591
 644	3.2150e-01	14.3114	110.803334	0.001051	10.505664	3.559415	-0.083888
 645	3.2200e-01	14.2713	110.625878	0.000444	4.444704	1.505907	-0.035491
 646	3.2250e-01	14.2424	110.391958	0.000586	5.858928	1.985059	-0.046784
 647	3.2300e-01	14.1910	110.319363	0.000182	1.818288	0.616053	-0.014519
 648	3.2350e-01	14.1638	109.907987	0.001030	10.303632	3.490965	-0.082275
 649	3.2400e-01	14.1189	109.694232	0.000535	5.353848	1.813933	-0.042751
 650	3.2450e-01	14.0707	109.496611	0.000495	4.949784	1.677032	-0.039524
 651	3.2500e-01	14.0370	109.315121	0.000455	4.545720	1.540132	-0.036298
 652	3.2550e-01	13.9937	109.234459	0.000202	2.020320	0.684503	-0.016132
 653	3.2600e-01	13.9536	109.117499	0.000293	2.929464	0.992529	-0.023392
 654	3.2650e-01	13.9183	108.790818	0.000818	8.182296	2.772237	-0.065336
 655	3.2700e-01	13.8718	108.423806	0.000919	9.192456	3.114488	-0.073402
 656	3.2750e-01	13.8333	108.347177	0.000192	1.919304	0.650278	-0.015326
 657	3.2800e-01	13.7948	107.972099	0.000939	9.394488	3.182939	-0.075016
 658	3.2850e-01	13.7611	107.826908	0.000364	3.636576	1.232105	-0.029038
 659	3.2900e-01	13.7210	107.435697	0.000980	9.798552	3.319839	-0.078242
 660	3.2950e-01	13.6697	107.314704	0.000303	3.030480	1.026754	-0.024199
 661	3.3000e-01	13.6328	106.935593	0.000950	9.495504	3.217164	-0.075822
 662	3.3050e-01	13.6039	106.754103	0.000455	4.545720	1.540132	-0.036298
 663	3.3100e-01	13.5429	106.649243	0.000263	2.626416	0.889854	-0.020972
 664	3.3150e-01	13.5269	106.479853	0.000424	4.242672	1.437456	-0.033878
 665	3.3200e-01	13.4707	106.149139	0.000828	8.283312	2.806462	-0.066143
 666	3.3250e-01	13.4322	105.943451	0.000515	5.151816	1.745483	-0.041138
 667	3.3300e-01	13.3905	105.794226	0.000374	3.737592	1.266330	-0.029845
 668	3.3350e-01	13.3649	105.519975	0.000687	6.869088	2.327310	-0.054850
 669	3.3400e-01	13.3183	105.165063	0.000889	8.889408	3.011813	-0.070983
 670	3.3450e-01	13.2686	104.999706	0.000414	4.141656	1.403231	-0.033071
 671	3.3500e-01	13.2317	104.842415	0.000394	3.939624	1.334781	-0.031458
 672	3.3550e-01	13.1884	104.543965	0.000748	7.475184	2.532661	-0.059690
 673	3.3600e-01	13.1419	104.346344	0.000495	4.949784	1.677032	-0.039524
 674	3.3650e-01	13.1082	104.225351	0.000303	3.030480	1.026754	-0.024199
 675	3.3700e-01	13.0745	104.027729	0.000495	4.949784	1.677032	-0.039524
 676	3.3750e-01	13.0392	103.717180	0.000778	7.778232	2.635336	-0.062110
 677	3.3800e-01	12.9911	103.430830	0.000717	7.172136	2.429986	-0.057270
 678	3.3850e-01	12.9526	103.168679	0.000657	6.566040	2.224635	-0.052430
 679	3.3900e-01	12.9109	102.680674	0.001222	12.222936	4.141243	-0.097601
 680	3.3950e-01	12.8676	102.676641	0.000010	0.101016	0.034225	-0.000807
 681	3.4000e-01	12.8403	102.523383	0.000384	3.838608	1.300556	-0.030652
 682	3.4050e-01	12.8018	102.313662	0.000525	5.252832	1.779708	-0.041944
 683	3.4100e-01	12.7553	101.986981	0.000818	8.182296	2.772237	-0.065336
 684	3.4150e-01	12.7232	101.958749	0.000071	0.707112	0.239576	-0.005646
 685	3.4200e-01	12.6799	101.595770	0.000909	9.091440	3.080263	-0.072596
 686	3.4250e-01	12.6478	101.394115	0.000505	5.050800	1.711257	-0.040331
 687	3.4300e-01	12.5932	101.164229	0.000576	5.757912	1.950833	-0.045977
 688	3.4350e-01	12.5547	100.833515	0.000828	8.283312	2.806462	-0.066143
 689	3.4400e-01	12.5098	100.825449	0.000020	0.202032	0.068450	-0.001613
 690	3.4450e-01	12.4761	100.474569	0.000879	8.788392	2.977588	-0.070176
 691	3.4500e-01	12.4376	100.236616	0.000596	5.959944	2.019284	-0.047591
 692	3.4550e-01	12.3991	100.051094	0.000465	4.646736	1.574357	-0.037105
 693	3.4600e-01	12.3606	99.849439	0.000505	5.050800	1.711257	-0.040331
 694	3.4650e-01	12.3205	99.603420	0.000616	6.161976	2.087734	-0.049204
 695	3.4700e-01	12.2788	99.405798	0.000495	4.949784	1.677032	-0.039524
 696	3.4750e-01	12.2403	99.038786	0.000919	9.192456	3.114488	-0.073402
 697	3.4800e-01	12.1906	98.917793	0.000303	3.030480	1.026754	-0.024199
 698	3.4850e-01	12.1505	98.877462	0.000101	1.010160	0.342251	-0.008066
 699	3.4900e-01	12.1232	98.308795	0.001424	14.243256	4.825746	-0.113733
 700	3.4950e-01	12.0783	97.994213	0.000788	7.879248	2.669562	-0.062916
 701	3.5000e-01	12.0366	97.893386	0.000253	2.525400	0.855629	-0.020165
 702	3.5050e-01	11.9965	97.736095	0.000394	3.939624	1.334781	-0.031458
 703	3.5100e-01	11.9547	97.284388	0.001131	11.313792	3.833217	-0.090341
 704	3.5150e-01	11.9162	97.163395	0.000303	3.030480	1.026754	-0.024199
 705	3.5200e-01	11.8713	96.804449	0.000899	8.990424	3.046038	-0.071789
 706	3.5250e-01	11.8344	96.614894	0.000475	4.747752	1.608582	-0.037911
 707	3.5300e-01	11.7943	96.380974	0.000586	5.858928	1.985059	-0.046784
 708	3.5350e-01	11.7622	96.118822	0.000657	6.566040	2.224635	-0.052430
 709	3.5400e-01	11.7173	95.796175	0.000808	8.081280	2.738012	-0.064530
 710	3.5450e-01	11.6820	95.780042	0.000040	0.404064	0.136901	-0.003226
 711	3.5500e-01	11.6403	95.316236	0.001162	11.616840	3.935892	-0.092761
 712	3.5550e-01	11.5938	95.380765	-0.000162	-1.616256	-0.547602	0.012906
 713	3.5600e-01	11.5649	95.130713	0.000626	6.262992	2.121959	-0.050010
 714	3.5650e-01	11.5120	94.820165	0.000778	7.778232	2.635336	-0.062110
 715	3.5700e-01	11.4767	94.602377	0.000545	5.454864	1.848158	-0.043557
 716	3.5750e-01	11.4318	94.251498	0.000879	8.788392	2.977588	-0.070176
 717	3.5800e-01	11.3933	94.065975	0.000465	4.646736	1.574357	-0.037105
 718	3.5850e-01	11.3532	93.860287	0.000515	5.151816	1.745483	-0.041138
 719	3.5900e-01	11.3050	93.412613	0.001121	11.212776	3.798991	-0.089535
 720	3.5950e-01	11.2762	93.138363	0.000687	6.869088	2.327310	-0.054850
 721	3.6000e-01	11.2344	92.997204	0.000354	3.535560	1.197880	-0.028232
 722	3.6050e-01	11.1943	92.710854	0.000717	7.172136	2.429986	-0.057270
 723	3.6100e-01	11.1446	92.541464	0.000424	4.242672	1.437456	-0.033878
 724	3.6150e-01	11.1221	92.287379	0.000636	6.364008	2.156184	-0.050817
 725	3.6200e-01	11.0788	92.061525	0.000566	5.656896	1.916608	-0.045171
 726	3.6250e-01	11.0387	91.759043	0.000758	7.576200	2.566886	-0.060496
 727	3.6300e-01	11.0002	91.420263	0.000849	8.485344	2.874912	-0.067756
 728	3.6350e-01	10.9473	91.275071	0.000364	3.636576	1.232105	-0.029038
 729	3.6400e-01	10.9120	91.202475	0.000182	1.818288	0.616053	-0.014519
 730	3.6450e-01	10.8687	90.831430	0.000929	9.293472	3.148714	-0.074209
 731	3.6500e-01	10.8350	90.613643	0.000545	5.454864	1.848158	-0.043557
 732	3.6550e-01	10.7933	90.266796	0.000869	8.687376	2.943363	-0.069369
 733	3.6600e-01	10.7403	89.984479	0.000707	7.071120	2.395760	-0.056463
 734	3.6650e-01	10.7099	89.952215	0.000081	0.808128	0.273801	-0.006453
 735	3.6700e-01	10.6698	89.504541	0.001121	11.212776	3.798991	-0.089535
 736	3.6750e-01	10.6329	89.363382	0.000354	3.535560	1.197880	-0.028232
 737	3.6800e-01	10.5976	89.121396	0.000606	6.060960	2.053509	-0.048397
 738	3.6850e-01	10.5623	88.726153	0.000990	9.899568	3.354065	-0.079049
 739	3.6900e-01	10.5141	88.379306	0.000869	8.687376	2.943363	-0.069369
 740	3.6950e-01	10.4756	88.266379	0.000283	2.828448	0.958304	-0.022585
 741	3.7000e-01	10.4403	88.149420	0.000293	2.929464	0.992529	-0.023392
 742	3.7050e-01	10.3970	87.899367	0.000626	6.262992	2.121959	-0.050010
 743	3.7100e-01	10.3569	87.758209	0.000354	3.535560	1.197880	-0.028232
 744	3.7150e-01	10.3136	87.338767	0.001051	10.505664	3.559415	-0.083888
 745	3.7200e-01	10.2783	87.016119	0.000808	8.081280	2.738012	-0.064530
 746	3.7250e-01	10.2302	86.741868	0.000687	6.869088	2.327310	-0.054850
 747	3.7300e-01	10.1869	86.552313	0.000475	4.747752	1.608582	-0.037911
 748	3.7350e-01	10.1532	86.136903	0.001040	10.404648	3.525190	-0.083082
 749	3.7400e-01	10.1019	85.866686	0.000677	6.768072	2.293085	-0.054044
 750	3.7450e-01	10.0746	85.757792	0.000273	2.727432	0.924079	-0.021779
 751	3.7500e-01	10.0313	85.544038	0.000535	5.353848	1.813933	-0.042751
 752	3.7550e-01	9.9976	85.338350	0.000515	5.151816	1.745483	-0.041138
 753	3.7600e-01	9.9543	85.068132	0.000677	6.768072	2.293085	-0.054044
 754	3.7650e-01	9.9206	84.640624	0.001071	10.707696	3.627866	-0.085502
 755	3.7700e-01	9.8724	84.438969	0.000505	5.050800	1.711257	-0.040331
 756	3.7750e-01	9.8307	84.241347	0.000495	4.949784	1.677032	-0.039524
 757	3.7800e-01	9.7858	84.096156	0.000364	3.636576	1.232105	-0.029038
 758	3.7850e-01	9.7505	83.910633	0.000465	4.646736	1.574357	-0.037105
 759	3.7900e-01	9.7040	83.386330	0.001313	13.132080	4.449269	-0.104861
 760	3.7950e-01	9.6735	83.321801	0.000162	1.616256	0.547602	-0.012906
 761	3.8000e-01	9.6302	83.112079	0.000525	5.252832	1.779708	-0.041944
 762	3.8050e-01	9.6078	82.757167	0.000889	8.889408	3.011813	-0.070983
 763	3.8100e-01	9.5548	82.442585	0.000788	7.879248	2.669562	-0.062916
 764	3.8150e-01	9.5227	82.107838	0.000838	8.384328	2.840687	-0.066949
 765	3.8200e-01	9.4746	81.966679	0.000354	3.535560	1.197880	-0.028232
 766	3.8250e-01	9.4377	81.817455	0.000374	3.737592	1.266330	-0.029845
 767	3.8300e-01	9.3912	81.760991	0.000141	1.414224	0.479152	-0.011293
 768	3.8350e-01	9.3511	81.325417	0.001091	10.909728	3.696316	-0.087115
 769	3.8400e-01	9.3126	80.849511	0.001192	11.919888	4.038567	-0.095181
 770	3.8450e-01	9.2773	80.655922	0.000485	4.848768	1.642807	-0.038718
 771	3.8500e-01	9.2340	80.506698	0.000374	3.737592	1.266330	-0.029845
 772	3.8550e-01	9.1955	80.083222	0.001061	10.606680	3.593641	-0.084695
 773	3.8600e-01	9.1505	79.829137	0.000636	6.364008	2.156184	-0.050817
 774	3.8650e-01	9.1136	79.635548	0.000485	4.848768	1.642807	-0.038718
 775	3.8700e-01	9.0767	79.437927	0.000495	4.949784	1.677032	-0.039524
 776	3.8750e-01	9.0366	79.002352	0.001091	10.909728	3.696316	-0.087115
 777	3.8800e-01	8.9805	78.957988	0.000111	1.111176	0.376477	-0.008873
 778	3.8850e-01	8.9532	78.534513	0.001061	10.606680	3.593641	-0.084695
 779	3.8900e-01	8.9115	78.276394	0.000647	6.465024	2.190409	-0.051624
 780	3.8950e-01	8.8746	77.965846	0.000778	7.778232	2.635336	-0.062110
 781	3.9000e-01	8.8281	77.679496	0.000717	7.172136	2.429986	-0.057270
 782	3.9050e-01	8.7960	77.461708	0.000545	5.454864	1.848158	-0.043557
 783	3.9100e-01	8.7591	77.022101	0.001101	11.010744	3.730541	-0.087922
 784	3.9150e-01	8.7110	76.844644	0.000444	4.444704	1.505907	-0.035491
 785	3.9200e-01	8.6741	76.610724	0.000586	5.858928	1.985059	-0.046784
 786	3.9250e-01	8.6356	76.280010	0.000828	8.283312	2.806462	-0.066143
 787	3.9300e-01	8.5955	75.969462	0.000778	7.778232	2.635336	-0.062110
 788	3.9350e-01	8.5490	75.804105	0.000414	4.141656	1.403231	-0.033071
 789	3.9400e-01	8.5137	75.545986	0.000647	6.465024	2.190409	-0.051624
 790	3.9450e-01	8.4687	75.433060	0.000283	2.828448	0.958304	-0.022585
 791	3.9500e-01	8.4238	75.142677	0.000727	7.273152	2.464211	-0.058077
 792	3.9550e-01	8.3901	74.767598	0.000939	9.394488	3.182939	-0.075016
 793	3.9600e-01	8.3532	74.618374	0.000374	3.737592	1.266330	-0.029845
 794	3.9650e-01	8.3115	74.162634	0.001141	11.414808	3.867442	-0.091148
 795	3.9700e-01	8.2730	74.110203	0.000131	1.313208	0.444927	-0.010486
 796	3.9750e-01	8.2297	73.489106	0.001556	15.556464	5.270673	-0.124219
 797	3.9800e-01	8.1944	73.351981	0.000343	3.434544	1.163655	-0.027425
 798	3.9850e-01	8.1527	73.247120	0.000263	2.626416	0.889854	-0.020972
 799	3.9900e-01	8.1110	72.920439	0.000818	8.182296	2.772237	-0.065336
 800	3.9950e-01	8.0693	72.581659	0.000849	8.485344	2.874912	-0.067756
 801	4.0000e-01	8.0292	72.331607	0.000626	6.262992	2.121959	-0.050010
 802	4.0050e-01	7.9971	71.908132	0.001061	10.606680	3.593641	-0.084695
 803	4.0100e-01	7.9554	71.827470	0.000202	2.020320	0.684503	-0.016132
 804	4.0150e-01	7.9105	71.561285	0.000667	6.667056	2.258860	-0.053237
 805	4.0200e-01	7.8656	71.226538	0.000838	8.384328	2.840687	-0.066949
 806	4.0250e-01	7.8303	71.093446	0.000333	3.333528	1.129430	-0.026618
 807	4.0300e-01	7.7982	70.492514	0.001505	15.051384	5.099547	-0.120186
 808	4.0350e-01	7.7549	70.226329	0.000667	6.667056	2.258860	-0.053237
 809	4.0400e-01	7.7035	70.109370	0.000293	2.929464	0.992529	-0.023392
 810	4.0450e-01	7.6714	69.847218	0.000657	6.566040	2.224635	-0.052430
 811	4.0500e-01	7.6345	69.722192	0.000313	3.131496	1.060980	-0.025005
 812	4.0550e-01	7.5896	69.383412	0.000849	8.485344	2.874912	-0.067756
 813	4.0600e-01	7.5543	69.173691	0.000525	5.252832	1.779708	-0.041944
 814	4.0650e-01	7.5255	68.584858	0.001475	14.748336	4.996872	-0.117766
 815	4.0700e-01	7.4725	68.278343	0.000768	7.677216	2.601111	-0.061303
 816	4.0750e-01	7.4356	67.911331	0.000919	9.192456	3.114488	-0.073402
 817	4.0800e-01	7.3907	67.770172	0.000354	3.535560	1.197880	-0.028232
 818	4.0850e-01	7.3426	67.624981	0.000364	3.636576	1.232105	-0.029038
 819	4.0900e-01	7.3281	67.370896	0.000636	6.364008	2.156184	-0.050817
 820	4.0950e-01	7.2672	67.056314	0.000788	7.879248	2.669562	-0.062916
 821	4.1000e-01	7.2255	66.862725	0.000485	4.848768	1.642807	-0.038718
 822	4.1050e-01	7.1870	66.241628	0.001556	15.556464	5.270673	-0.124219
 823	4.1100e-01	7.1420	66.233562	0.000020	0.202032	0.068450	-0.001613
 824	4.1150e-01	7.1051	65.777822	0.001141	11.414808	3.867442	-0.091148
 825	4.1200e-01	7.0715	65.527770	0.000626	6.262992	2.121959	-0.050010
 826	4.1250e-01	7.0201	65.394677	0.000333	3.333528	1.129430	-0.026618
 827	4.1300e-01	6.9945	65.120427	0.000687	6.869088	2.327310	-0.054850
 828	4.1350e-01	6.9527	64.741315	0.000950	9.495504	3.217164	-0.075822
 829	4.1400e-01	6.9046	64.301708	0.001101	11.010744	3.730541	-0.087922
 830	4.1450e-01	6.8741	64.144417	0.000394	3.939624	1.334781	-0.031458
 831	4.1500e-01	6.8356	63.946795	0.000495	4.949784	1.677032	-0.039524
 832	4.1550e-01	6.7971	63.608015	0.000849	8.485344	2.874912	-0.067756
 833	4.1600e-01	6.7522	63.232936	0.000939	9.394488	3.182939	-0.075016
 834	4.1650e-01	6.7105	62.966752	0.000667	6.667056	2.258860	-0.053237
 835	4.1700e-01	6.6704	62.688468	0.000697	6.970104	2.361535	-0.055657
 836	4.1750e-01	6.6335	62.321456	0.000919	9.192456	3.114488	-0.073402
 837	4.1800e-01	6.5950	61.833451	0.001222	12.222936	4.141243	-0.097601
 838	4.1850e-01	6.5453	61.704392	0.000323	3.232512	1.095205	-0.025812
 839	4.1900e-01	6.5068	61.514836	0.000475	4.747752	1.608582	-0.037911
 840	4.1950e-01	6.4618	60.942136	0.001434	14.344272	4.859971	-0.114540
 841	4.2000e-01	6.4426	60.901805	0.000101	1.010160	0.342251	-0.008066
 842	4.2050e-01	6.3865	60.688051	0.000535	5.353848	1.813933	-0.042751
 843	4.2100e-01	6.3544	60.365403	0.000808	8.081280	2.738012	-0.064530
 844	4.2150e-01	6.3207	59.925796	0.001101	11.010744	3.730541	-0.087922
 845	4.2200e-01	6.2790	59.582982	0.000859	8.586360	2.909138	-0.068563
 846	4.2250e-01	6.2405	59.328897	0.000636	6.364008	2.156184	-0.050817
 847	4.2300e-01	6.1955	59.215970	0.000283	2.828448	0.958304	-0.022585
 848	4.2350e-01	6.1506	58.788462	0.001071	10.707696	3.627866	-0.085502
 849	4.2400e-01	6.1234	58.542443	0.000616	6.161976	2.087734	-0.049204
 850	4.2450e-01	6.0752	58.199629	0.000859	8.586360	2.909138	-0.068563
 851	4.2500e-01	6.0303	58.114934	0.000212	2.121336	0.718728	-0.016939
 852	4.2550e-01	5.9982	57.760022	0.000889	8.889408	3.011813	-0.070983
 853	4.2600e-01	5.9597	57.453506	0.000768	7.677216	2.601111	-0.061303
 854	4.2650e-01	5.9116	56.945336	0.001273	12.728016	4.312369	-0.101634
 855	4.2700e-01	5.8715	56.905005	0.000101	1.010160	0.342251	-0.008066
 856	4.2750e-01	5.8314	56.433132	0.001182	11.818872	4.004342	-0.094375
 857	4.2800e-01	5.7993	56.086286	0.000869	8.687376	2.943363	-0.069369
 858	4.2850e-01	5.7544	55.767671	0.000798	7.980264	2.703787	-0.063723
 859	4.2900e-01	5.7111	55.674910	0.000232	2.323368	0.787178	-0.018552
 860	4.2950e-01	5.6758	55.283699	0.000980	9.798552	3.319839	-0.078242
 861	4.3000e-01	5.6341	54.836025	0.001121	11.212776	3.798991	-0.089535
 862	4.3050e-01	5.5940	54.541609	0.000737	7.374168	2.498436	-0.058883
 863	4.3100e-01	5.5587	54.227027	0.000788	7.879248	2.669562	-0.062916
 864	4.3150e-01	5.5250	53.940677	0.000717	7.172136	2.429986	-0.057270
 865	4.3200e-01	5.4704	53.851949	0.000222	2.222352	0.752953	-0.017746
 866	4.3250e-01	5.4271	53.545434	0.000768	7.677216	2.601111	-0.061303
 867	4.3300e-01	5.3934	53.222786	0.000808	8.081280	2.738012	-0.064530
 868	4.3350e-01	5.3469	52.843674	0.000950	9.495504	3.217164	-0.075822
 869	4.3400e-01	5.3084	52.424232	0.001051	10.505664	3.559415	-0.083888
 870	4.3450e-01	5.2747	52.061253	0.000909	9.091440	3.080263	-0.072596
 871	4.3500e-01	5.2234	51.807168	0.000636	6.364008	2.156184	-0.050817
 872	4.3550e-01	5.1993	51.629712	0.000444	4.444704	1.505907	-0.035491
 873	4.3600e-01	5.1496	51.105409	0.001313	13.132080	4.449269	-0.104861
 874	4.3650e-01	5.1063	51.000548	0.000263	2.626416	0.889854	-0.020972
 875	4.3700e-01	5.0710	50.569007	0.001081	10.808712	3.662091	-0.086308
 876	4.3750e-01	5.0293	50.460113	0.000273	2.727432	0.924079	-0.021779
 877	4.3800e-01	4.9876	50.097134	0.000909	9.091440	3.080263	-0.072596
 878	4.3850e-01	4.9555	49.738189	0.000899	8.990424	3.046038	-0.071789
 879	4.3900e-01	4.9218	49.496203	0.000606	6.060960	2.053509	-0.048397
 880	4.3950e-01	4.8721	49.161455	0.000838	8.384328	2.840687	-0.066949
 881	4.4000e-01	4.8384	48.673450	0.001222	12.222936	4.141243	-0.097601
 882	4.4050e-01	4.7967	48.298372	0.000939	9.394488	3.182939	-0.075016
 883	4.4100e-01	4.7566	48.233843	0.000162	1.616256	0.547602	-0.012906
 884	4.4150e-01	4.7052	47.834566	0.001000	10.000584	3.388290	-0.079855
 885	4.4200e-01	4.6731	47.782136	0.000131	1.313208	0.444927	-0.010486
 886	4.4250e-01	4.6346	47.346561	0.001091	10.909728	3.696316	-0.087115
 887	4.4300e-01	4.5865	46.866622	0.001202	12.020904	4.072793	-0.095988
 888	4.4350e-01	4.5576	46.620603	0.000616	6.161976	2.087734	-0.049204
 889	4.4400e-01	4.5191	46.217293	0.001010	10.101600	3.422515	-0.080662
 890	4.4450e-01	4.4694	46.072102	0.000364	3.636576	1.232105	-0.029038
 891	4.4500e-01	4.4277	45.471170	0.001505	15.051384	5.099547	-0.120186
 892	4.4550e-01	4.3924	45.083993	0.000970	9.697536	3.285614	-0.077435
 893	4.4600e-01	4.3539	45.083993	-0.000000	-0.000000	-0.000000	0.000000
 894	4.4650e-01	4.3090	44.878305	0.000515	5.151816	1.745483	-0.041138
 895	4.4700e-01	4.2673	44.418531	0.001152	11.515824	3.901667	-0.091955
 896	4.4750e-01	4.2368	44.079751	0.000849	8.485344	2.874912	-0.067756
 897	4.4800e-01	4.1935	43.672408	0.001020	10.202616	3.456740	-0.081469
 898	4.4850e-01	4.1582	43.289264	0.000960	9.596520	3.251389	-0.076629
 899	4.4900e-01	4.1052	42.861755	0.001071	10.707696	3.627866	-0.085502
 900	4.4950e-01	4.0683	42.664134	0.000495	4.949784	1.677032	-0.039524
 901	4.5000e-01	4.0282	42.418115	0.000616	6.161976	2.087734	-0.049204
 902	4.5050e-01	3.9945	42.127731	0.000727	7.273152	2.464211	-0.058077
 903	4.5100e-01	3.9512	41.708289	0.001051	10.505664	3.559415	-0.083888
 904	4.5150e-01	3.9127	41.510667	0.000495	4.949784	1.677032	-0.039524
 905	4.5200e-01	3.8790	41.054927	0.001141	11.414808	3.867442	-0.091148
 906	4.5250e-01	3.8245	40.700015	0.000889	8.889408	3.011813	-0.070983
 907	4.5300e-01	3.7988	40.474161	0.000566	5.656896	1.916608	-0.045171
 908	4.5350e-01	3.7443	40.131348	0.000859	8.586360	2.909138	-0.068563
 909	4.5400e-01	3.7266	39.554615	0.001445	14.445288	4.894196	-0.115347
 910	4.5450e-01	3.6673	39.244066	0.000778	7.778232	2.635336	-0.062110
 911	4.5500e-01	3.6272	38.933517	0.000778	7.778232	2.635336	-0.062110
 912	4.5550e-01	3.5935	38.655234	0.000697	6.970104	2.361535	-0.055657
 913	4.5600e-01	3.5502	38.397115	0.000647	6.465024	2.190409	-0.051624
 914	4.5650e-01	3.5197	38.155129	0.000606	6.060960	2.053509	-0.048397
 915	4.5700e-01	3.4716	37.892978	0.000657	6.566040	2.224635	-0.052430
 916	4.5750e-01	3.4282	37.538065	0.000889	8.889408	3.011813	-0.070983
 917	4.5800e-01	3.3946	37.183153	0.000889	8.889408	3.011813	-0.070983
 918	4.5850e-01	3.3480	36.957299	0.000566	5.656896	1.916608	-0.045171
 919	4.5900e-01	3.3111	36.586254	0.000929	9.293472	3.148714	-0.074209
 920	4.5950e-01	3.2726	36.259573	0.000818	8.182296	2.772237	-0.065336
 921	4.6000e-01	3.2341	35.622343	0.001596	15.960528	5.407573	-0.127446
 922	4.6050e-01	3.1924	35.456986	0.000414	4.141656	1.403231	-0.033071
 923	4.6100e-01	3.1427	35.130305	0.000818	8.182296	2.772237	-0.065336
 924	4.6150e-01	3.1138	34.722962	0.001020	10.202616	3.456740	-0.081469
 925	4.6200e-01	3.0801	34.412414	0.000778	7.778232	2.635336	-0.062110
 926	4.6250e-01	3.0288	33.980872	0.001081	10.808712	3.662091	-0.086308
 927	4.6300e-01	2.9967	33.646125	0.000838	8.384328	2.840687	-0.066949
 928	4.6350e-01	2.9438	33.371874	0.000687	6.869088	2.327310	-0.054850
 929	4.6400e-01	2.9069	33.053260	0.000798	7.980264	2.703787	-0.063723
 930	4.6450e-01	2.8780	32.645917	0.001020	10.202616	3.456740	-0.081469
 931	4.6500e-01	2.8347	32.190176	0.001141	11.414808	3.867442	-0.091148
 932	4.6550e-01	2.7898	31.899793	0.000727	7.273152	2.464211	-0.058077
 933	4.6600e-01	2.7529	31.460186	0.001101	11.010744	3.730541	-0.087922
 934	4.6650e-01	2.7176	31.189968	0.000677	6.768072	2.293085	-0.054044
 935	4.6700e-01	2.6694	30.863287	0.000818	8.182296	2.772237	-0.065336
 936	4.6750e-01	2.6309	30.496275	0.000919	9.192456	3.114488	-0.073402
 937	4.6800e-01	2.5940	30.012303	0.001212	12.121920	4.107018	-0.096794
 938	4.6850e-01	2.5523	29.689655	0.000808	8.081280	2.738012	-0.064530
 939	4.6900e-01	2.5154	29.492034	0.000495	4.949784	1.677032	-0.039524
 940	4.6950e-01	2.4737	28.999995	0.001232	12.323952	4.175468	-0.098408
 941	4.7000e-01	2.4304	28.596686	0.001010	10.101600	3.422515	-0.080662
 942	4.7050e-01	2.3855	28.407130	0.000475	4.747752	1.608582	-0.037911
 943	4.7100e-01	2.3486	28.132879	0.000687	6.869088	2.327310	-0.054850
 944	4.7150e-01	2.3197	27.866695	0.000667	6.667056	2.258860	-0.053237
 945	4.7200e-01	2.2732	27.382723	0.001212	12.121920	4.107018	-0.096794
 946	4.7250e-01	2.2331	27.156869	0.000566	5.656896	1.916608	-0.045171
 947	4.7300e-01	2.1946	26.487375	0.001677	16.768656	5.681375	-0.133899
 948	4.7350e-01	2.1513	26.289753	0.000495	4.949784	1.677032	-0.039524
 949	4.7400e-01	2.1080	25.874344	0.001040	10.404648	3.525190	-0.083082
 950	4.7450e-01	2.0775	25.539597	0.000838	8.384328	2.840687	-0.066949
 951	4.7500e-01	2.0326	25.366174	0.000434	4.343688	1.471681	-0.034685
 952	4.7550e-01	1.9941	24.902367	0.001162	11.616840	3.935892	-0.092761
 953	4.7600e-01	1.9540	24.567620	0.000838	8.384328	2.840687	-0.066949
 954	4.7650e-01	1.9090	24.281270	0.000717	7.172136	2.429986	-0.057270
 955	4.7700e-01	1.8689	23.962655	0.000798	7.980264	2.703787	-0.063723
 956	4.7750e-01	1.8336	23.531114	0.001081	10.808712	3.662091	-0.086308
 957	4.7800e-01	1.7919	23.051175	0.001202	12.020904	4.072793	-0.095988
 958	4.7850e-01	1.7534	22.538972	0.001283	12.829032	4.346594	-0.102441
 959	4.7900e-01	1.7149	22.228423	0.000778	7.778232	2.635336	-0.062110
 960	4.7950e-01	1.6684	22.167926	0.000152	1.515240	0.513377	-0.012099
 961	4.8000e-01	1.6299	21.808981	0.000899	8.990424	3.046038	-0.071789
 962	4.8050e-01	1.5898	21.288711	0.001303	13.031064	4.415044	-0.104054
 963	4.8100e-01	1.5465	20.679713	0.001525	15.253416	5.167997	-0.121800
 964	4.8150e-01	1.5096	20.599051	0.000202	2.020320	0.684503	-0.016132
 965	4.8200e-01	1.4791	20.264304	0.000838	8.384328	2.840687	-0.066949
 966	4.8250e-01	1.4310	19.998119	0.000667	6.667056	2.258860	-0.053237
 967	4.8300e-01	1.3909	19.675472	0.000808	8.081280	2.738012	-0.064530
 968	4.8350e-01	1.3427	19.118904	0.001394	13.940208	4.723070	-0.111314
 969	4.8400e-01	1.3139	18.772057	0.000869	8.687376	2.943363	-0.069369
 970	4.8450e-01	1.2673	18.352615	0.001051	10.505664	3.559415	-0.083888
 971	4.8500e-01	1.2401	17.840412	0.001283	12.829032	4.346594	-0.102441
 972	4.8550e-01	1.1903	17.606492	0.000586	5.858928	1.985059	-0.046784
 973	4.8600e-01	1.1631	17.110421	0.001242	12.424968	4.209693	-0.099214
 974	4.8650e-01	1.1149	16.892633	0.000545	5.454864	1.848158	-0.043557
 975	4.8700e-01	1.0700	16.549820	0.000859	8.586360	2.909138	-0.068563
 976	4.8750e-01	1.0283	16.243305	0.000768	7.677216	2.601111	-0.061303
 977	4.8800e-01	0.9866	15.610108	0.001586	15.859512	5.373348	-0.126639
 978	4.8850e-01	0.9465	15.372155	0.000596	5.959944	2.019284	-0.047591
 979	4.8900e-01	0.9048	14.872051	0.001253	12.525984	4.243918	-0.100021
 980	4.8950e-01	0.8711	14.484874	0.000970	9.697536	3.285614	-0.077435
 981	4.9000e-01	0.8230	14.085597	0.001000	10.000584	3.388290	-0.079855
 982	4.9050e-01	0.7845	13.742783	0.000859	8.586360	2.909138	-0.068563
 983	4.9100e-01	0.7460	13.355606	0.000970	9.697536	3.285614	-0.077435
 984	4.9150e-01	0.7235	13.149918	0.000515	5.151816	1.745483	-0.041138
 985	4.9200e-01	0.6658	12.734509	0.001040	10.404648	3.525190	-0.083082
 986	4.9250e-01	0.6353	12.371530	0.000909	9.091440	3.080263	-0.072596
 987	4.9300e-01	0.5871	11.843194	0.001323	13.233096	4.483494	-0.105667
 988	4.9350e-01	0.5486	11.395520	0.001121	11.212776	3.798991	-0.089535
 989	4.9400e-01	0.5118	11.028508	0.000919	9.192456	3.114488	-0.073402
 990	4.9450e-01	0.4732	10.641331	0.000970	9.697536	3.285614	-0.077435
 991	4.9500e-01	0.4299	10.359014	0.000707	7.071120	2.395760	-0.056463
 992	4.9550e-01	0.3946	9.822612	0.001344	13.435128	4.551945	-0.107280
 993	4.9600e-01	0.3561	9.354772	0.001172	11.717856	3.970117	-0.093568
 994	4.9650e-01	0.3144	8.939363	0.001040	10.404648	3.525190	-0.083082
 995	4.9700e-01	0.2695	8.527987	0.001030	10.303632	3.490965	-0.082275
 996	4.9750e-01	0.2326	8.241637	0.000717	7.172136	2.429986	-0.057270
 997	4.9800e-01	0.1925	7.882691	0.000899	8.990424	3.046038	-0.071789
 998	4.9850e-01	0.1524	7.564076	0.000798	7.980264	2.703787	-0.063723
 999	4.9900e-01	0.1107	7.003476	0.001404	14.041224	4.757296	-0.112120
1000	4.9950e-01	0.0706	6.499338	0.001263	12.627000	4.278144	-0.100827
1001	5.0000e-01	0.0305	5.886307	0.001535	15.354432	5.202223	-0.122606
1002	5.0050e-01	-0.0016	6.023433	-0.000343	-3.434544	-1.163655	0.027425
1003	5.0100e-01	-0.0417	5.535428	0.001222	12.222936	4.141243	-0.097601
1004	5.0150e-01	-0.0802	5.241012	0.000737	7.374168	2.498436	-0.058883
1005	5.0200e-01	-0.1235	4.761073	0.001202	12.020904	4.072793	-0.095988
1006	5.0250e-01	-0.1668	4.301300	0.001152	11.515824	3.901667	-0.091955
1007	5.0300e-01	-0.2069	4.091579	0.000525	5.252832	1.779708	-0.041944
1008	5.0350e-01	-0.2422	3.631805	0.001152	11.515824	3.901667	-0.091955
1009	5.0400e-01	-0.2775	3.067171	0.001414	14.142240	4.791521	-0.112927
1010	5.0450e-01	-0.3176	2.772755	0.000737	7.374168	2.498436	-0.058883
1011	5.0500e-01	-0.3577	2.292817	0.001202	12.020904	4.072793	-0.095988
1012	5.0550e-01	-0.3978	1.764481	0.001323	13.233096	4.483494	-0.105667
1013	5.0600e-01	-0.4476	1.474098	0.000727	7.273152	2.464211	-0.058077
1014	5.0650e-01	-0.4829	1.155483	0.000798	7.980264	2.703787	-0.063723
1015	5.0700e-01	-0.5246	0.784438	0.000929	9.293472	3.148714	-0.074209
1016	5.0750e-01	-0.5567	0.312565	0.001182	11.818872	4.004342	-0.094375
1017	5.0800e-01	-0.5936	-0.143175	0.001141	11.414808	3.867442	-0.091148
1018	5.0850e-01	-0.6417	-0.506154	0.000909	9.091440	3.080263	-0.072596
1019	5.0900e-01	-0.6738	-0.788471	0.000707	7.071120	2.395760	-0.056463
1020	5.0950e-01	-0.7123	-1.163549	0.000939	9.394488	3.182939	-0.075016
1021	5.1000e-01	-0.7700	-1.623322	0.001152	11.515824	3.901667	-0.091955
1022	5.1050e-01	-0.7989	-2.341214	0.001798	17.980848	6.092076	-0.143578
1023	5.1100e-01	-0.8374	-2.591266	0.000626	6.262992	2.121959	-0.050010
1024	5.1150e-01	-0.8791	-2.938112	0.000869	8.687376	2.943363	-0.069369
1025	5.1200e-01	-0.9176	-3.385786	0.001121	11.212776	3.798991	-0.089535
1026	5.1250e-01	-0.9625	-3.728600	0.000859	8.586360	2.909138	-0.068563
1027	5.1300e-01	-1.0042	-4.180307	0.001131	11.313792	3.833217	-0.090341
1028	5.1350e-01	-1.0395	-4.599749	0.001051	10.505664	3.559415	-0.083888
1029	5.1400e-01	-1.0813	-5.301508	0.001758	17.576784	5.955176	-0.140352
1030	5.1450e-01	-1.1246	-5.349905	0.000121	1.212192	0.410702	-0.009679
1031	5.1500e-01	-1.1695	-5.559626	0.000525	5.252832	1.779708	-0.041944
1032	5.1550e-01	-1.2032	-6.087962	0.001323	13.233096	4.483494	-0.105667
1033	5.1600e-01	-1.2449	-6.709060	0.001556	15.556464	5.270673	-0.124219
1034	5.1650e-01	-1.2770	-6.991376	0.000707	7.071120	2.395760	-0.056463
1035	5.1700e-01	-1.3123	-7.362421	0.000929	9.293472	3.148714	-0.074209
1036	5.1750e-01	-1.3604	-7.689102	0.000818	8.182296	2.772237	-0.065336
1037	5.1800e-01	-1.3973	-8.302133	0.001535	15.354432	5.202223	-0.122606
1038	5.1850e-01	-1.4390	-8.632848	0.000828	8.283312	2.806462	-0.066143
1039	5.1900e-01	-1.4855	-9.104720	0.001182	11.818872	4.004342	-0.094375
1040	5.1950e-01	-1.5224	-9.596758	0.001232	12.323952	4.175468	-0.098408
1041	5.2000e-01	-1.5609	-9.971836	0.000939	9.394488	3.182939	-0.075016
1042	5.2050e-01	-1.6042	-10.467907	0.001242	12.424968	4.209693	-0.099214
1043	5.2100e-01	-1.6379	-10.786522	0.000798	7.980264	2.703787	-0.063723
1044	5.2150e-01	-1.6812	-11.214031	0.001071	10.707696	3.627866	-0.085502
1045	5.2200e-01	-1.7262	-11.443917	0.000576	5.757912	1.950833	-0.045977
1046	5.2250e-01	-1.7727	-11.907724	0.001162	11.616840	3.935892	-0.092761
1047	5.2300e-01	-1.8048	-12.387662	0.001202	12.020904	4.072793	-0.095988
1048	5.2350e-01	-1.8368	-12.629648	0.000606	6.060960	2.053509	-0.048397
1049	5.2400e-01	-1.8898	-13.028925	0.001000	10.000584	3.388290	-0.079855
1050	5.2450e-01	-1.9203	-13.541129	0.001283	12.829032	4.346594	-0.102441
1051	5.2500e-01	-1.9572	-13.980736	0.001101	11.010744	3.730541	-0.087922
1052	5.2550e-01	-1.9989	-14.456642	0.001192	11.919888	4.038567	-0.095181
1053	5.2600e-01	-2.0374	-14.755091	0.000748	7.475184	2.532661	-0.059690
1054	5.2650e-01	-2.0807	-15.178567	0.001061	10.606680	3.593641	-0.084695
1055	5.2700e-01	-2.1176	-15.553645	0.000939	9.394488	3.182939	-0.075016
1056	5.2750e-01	-2.1577	-15.952922	0.001000	10.000584	3.388290	-0.079855
1057	5.2800e-01	-2.2010	-16.243305	0.000727	7.273152	2.464211	-0.058077
1058	5.2850e-01	-2.2443	-16.618383	0.000939	9.394488	3.182939	-0.075016
1059	5.2900e-01	-2.2812	-17.053957	0.001091	10.909728	3.696316	-0.087115
1060	5.2950e-01	-2.3133	-17.517764	0.001162	11.616840	3.935892	-0.092761
1061	5.3000e-01	-2.3630	-17.949305	0.001081	10.808712	3.662091	-0.086308
1062	5.3050e-01	-2.4063	-18.280019	0.000828	8.283312	2.806462	-0.066143
1063	5.3100e-01	-2.4352	-18.594601	0.000788	7.879248	2.669562	-0.062916
1064	5.3150e-01	-2.4834	-19.098738	0.001263	12.627000	4.278144	-0.100827
1065	5.3200e-01	-2.5202	-19.417353	0.000798	7.980264	2.703787	-0.063723
1066	5.3250e-01	-2.5652	-19.905358	0.001222	12.222936	4.141243	-0.097601
1067	5.3300e-01	-2.5973	-20.308668	0.001010	10.101600	3.422515	-0.080662
1068	5.3350e-01	-2.6261	-20.824905	0.001293	12.930048	4.380819	-0.103247
1069	5.3400e-01	-2.6855	-21.264512	0.001101	11.010744	3.730541	-0.087922
1070	5.3450e-01	-2.7176	-21.558929	0.000737	7.374168	2.498436	-0.058883
1071	5.3500e-01	-2.7609	-21.772683	0.000535	5.353848	1.813933	-0.042751
1072	5.3550e-01	-2.8090	-22.196158	0.001061	10.606680	3.593641	-0.084695
1073	5.3600e-01	-2.8427	-22.680130	0.001212	12.121920	4.107018	-0.096794
1074	5.3650e-01	-2.8812	-22.889851	0.000525	5.252832	1.779708	-0.041944
1075	5.3700e-01	-2.9293	-23.256863	0.000919	9.192456	3.114488	-0.073402
1076	5.3750e-01	-2.9598	-23.970722	0.001788	17.879832	6.057851	-0.142772
1077	5.3800e-01	-3.0015	-24.277237	0.000768	7.677216	2.601111	-0.061303
1078	5.3850e-01	-3.0400	-24.599885	0.000808	8.081280	2.738012	-0.064530
1079	5.3900e-01	-3.0817	-24.785407	0.000465	4.646736	1.574357	-0.037105
1080	5.3950e-01	-3.1186	-25.180651	0.000990	9.899568	3.354065	-0.079049
1081	5.4000e-01	-3.1668	-25.406505	0.000566	5.656896	1.916608	-0.045171
1082	5.4050e-01	-3.2037	-25.906609	0.001253	12.525984	4.243918	-0.100021
1083	5.4100e-01	-3.2373	-26.386548	0.001202	12.020904	4.072793	-0.095988
1084	5.4150e-01	-3.2807	-26.874553	0.001222	12.222936	4.141243	-0.097601
1085	5.4200e-01	-3.3208	-27.346425	0.001182	11.818872	4.004342	-0.094375
1086	5.4250e-01	-3.3561	-27.588411	0.000606	6.060960	2.053509	-0.048397
1087	5.4300e-01	-3.4090	-27.882827	0.000737	7.374168	2.498436	-0.058883
1088	5.4350e-01	-3.4507	-28.076416	0.000485	4.848768	1.642807	-0.038718
1089	5.4400e-01	-3.4812	-28.641050	0.001414	14.142240	4.791521	-0.112927
1090	5.4450e-01	-3.5213	-29.052426	0.001030	10.303632	3.490965	-0.082275
1091	5.4500e-01	-3.5486	-29.334743	0.000707	7.071120	2.395760	-0.056463
1092	5.4550e-01	-3.6111	-29.883244	0.001374	13.738176	4.654620	-0.109700
1093	5.4600e-01	-3.6480	-29.927608	0.000111	1.111176	0.376477	-0.008873
1094	5.4650e-01	-3.6705	-30.338984	0.001030	10.303632	3.490965	-0.082275
1095	5.4700e-01	-3.7234	-30.738261	0.001000	10.000584	3.388290	-0.079855
1096	5.4750e-01	-3.7828	-31.202067	0.001162	11.616840	3.935892	-0.092761
1097	5.4800e-01	-3.8068	-31.335160	0.000333	3.333528	1.129430	-0.026618
1098	5.4850e-01	-3.8421	-31.702172	0.000919	9.192456	3.114488	-0.073402
1099	5.4900e-01	-3.8790	-32.157912	0.001141	11.414808	3.867442	-0.091148
1100	5.4950e-01	-3.9143	-32.464427	0.000768	7.677216	2.601111	-0.061303
1101	5.5000e-01	-3.9641	-32.742711	0.000697	6.970104	2.361535	-0.055657
1102	5.5050e-01	-4.0010	-33.206517	0.001162	11.616840	3.935892	-0.092761
1103	5.5100e-01	-4.0395	-33.642092	0.001091	10.909728	3.696316	-0.087115
1104	5.5150e-01	-4.0828	-34.025236	0.000960	9.596520	3.251389	-0.076629
1105	5.5200e-01	-4.1229	-34.311586	0.000717	7.172136	2.429986	-0.057270
1106	5.5250e-01	-4.1662	-34.739095	0.001071	10.707696	3.627866	-0.085502
1107	5.5300e-01	-4.2063	-34.981081	0.000606	6.060960	2.053509	-0.048397
1108	5.5350e-01	-4.2384	-35.202901	0.000556	5.555880	1.882383	-0.044364
1109	5.5400e-01	-4.2881	-35.610244	0.001020	10.202616	3.456740	-0.081469
1110	5.5450e-01	-4.3250	-35.912727	0.000758	7.576200	2.566886	-0.060496
1111	5.5500e-01	-4.3715	-36.065984	0.000384	3.838608	1.300556	-0.030652
1112	5.5550e-01	-4.3988	-36.755644	0.001727	17.273736	5.852500	-0.137932
1113	5.5600e-01	-4.4389	-36.912935	0.000394	3.939624	1.334781	-0.031458
1114	5.5650e-01	-4.4806	-37.304146	0.000980	9.798552	3.319839	-0.078242
1115	5.5700e-01	-4.5207	-37.525966	0.000556	5.555880	1.882383	-0.044364
1116	5.5750e-01	-4.5640	-37.969607	0.001111	11.111760	3.764766	-0.088728
1117	5.5800e-01	-4.6009	-38.255957	0.000717	7.172136	2.429986	-0.057270
1118	5.5850e-01	-4.6410	-38.711697	0.001141	11.414808	3.867442	-0.091148
1119	5.5900e-01	-4.6812	-39.026279	0.000788	7.879248	2.669562	-0.062916
1120	5.5950e-01	-4.7229	-39.312629	0.000717	7.172136	2.429986	-0.057270
1121	5.6000e-01	-4.7694	-39.518317	0.000515	5.151816	1.745483	-0.041138
1122	5.6050e-01	-4.8079	-39.861130	0.000859	8.586360	2.909138	-0.068563
1123	5.6100e-01	-4.8448	-40.377367	0.001293	12.930048	4.380819	-0.103247
1124	5.6150e-01	-4.8785	-40.704048	0.000818	8.182296	2.772237	-0.065336
1125	5.6200e-01	-4.9186	-41.083159	0.000950	9.495504	3.217164	-0.075822
1126	5.6250e-01	-4.9603	-41.264648	0.000455	4.545720	1.540132	-0.036298
1127	5.6300e-01	-5.0020	-41.676024	0.001030	10.303632	3.490965	-0.082275
1128	5.6350e-01	-5.0453	-41.829282	0.000384	3.838608	1.300556	-0.030652
1129	5.6400e-01	-5.0838	-42.079334	0.000626	6.262992	2.121959	-0.050010
1130	5.6450e-01	-5.1191	-42.438280	0.000899	8.990424	3.046038	-0.071789
1131	5.6500e-01	-5.1576	-42.764961	0.000818	8.182296	2.772237	-0.065336
1132	5.6550e-01	-5.2105	-43.196503	0.001081	10.808712	3.662091	-0.086308
1133	5.6600e-01	-5.2442	-43.382025	0.000465	4.646736	1.574357	-0.037105
1134	5.6650e-01	-5.2811	-43.660309	0.000697	6.970104	2.361535	-0.055657
1135	5.6700e-01	-5.3196	-44.124115	0.001162	11.616840	3.935892	-0.092761
1136	5.6750e-01	-5.3597	-44.394333	0.000677	6.768072	2.293085	-0.054044
1137	5.6800e-01	-5.4063	-44.773444	0.000950	9.495504	3.217164	-0.075822
1138	5.6850e-01	-5.4432	-45.180787	0.001020	10.202616	3.456740	-0.081469
1139	5.6900e-01	-5.4881	-45.406641	0.000566	5.656896	1.916608	-0.045171
1140	5.6950e-01	-5.5282	-45.648627	0.000606	6.060960	2.053509	-0.048397
1141	5.7000e-01	-5.5635	-45.926910	0.000697	6.970104	2.361535	-0.055657
1142	5.7050e-01	-5.6100	-46.338286	0.001030	10.303632	3.490965	-0.082275
1143	5.7100e-01	-5.6453	-46.568173	0.000576	5.757912	1.950833	-0.045977
1144	5.7150e-01	-5.6806	-46.939218	0.000929	9.293472	3.148714	-0.074209
1145	5.7200e-01	-5.7271	-47.269932	0.000828	8.283312	2.806462	-0.066143
1146	5.7250e-01	-5.7512	-47.443355	0.000434	4.343688	1.471681	-0.034685
1147	5.7300e-01	-5.7945	-47.891029	0.001121	11.212776	3.798991	-0.089535
1148	5.7350e-01	-5.8410	-48.193512	0.000758	7.576200	2.566886	-0.060496
1149	5.7400e-01	-5.8923	-48.491961	0.000748	7.475184	2.532661	-0.059690
1150	5.7450e-01	-5.9180	-49.024330	0.001333	13.334112	4.517720	-0.106474
1151	5.7500e-01	-5.9581	-49.250184	0.000566	5.656896	1.916608	-0.045171
1152	5.7550e-01	-6.0062	-49.572831	0.000808	8.081280	2.738012	-0.064530
1153	5.7600e-01	-6.0496	-49.955976	0.000960	9.596520	3.251389	-0.076629
1154	5.7650e-01	-6.0800	-50.189896	0.000586	5.858928	1.985059	-0.046784
1155	5.7700e-01	-6.1250	-50.415749	0.000566	5.656896	1.916608	-0.045171
1156	5.7750e-01	-6.1603	-50.677900	0.000657	6.566040	2.224635	-0.052430
1157	5.7800e-01	-6.2036	-51.032813	0.000889	8.889408	3.011813	-0.070983
1158	5.7850e-01	-6.2373	-51.347395	0.000788	7.879248	2.669562	-0.062916
1159	5.7900e-01	-6.2918	-51.375627	0.000071	0.707112	0.239576	-0.005646
1160	5.7950e-01	-6.3271	-51.686175	0.000778	7.778232	2.635336	-0.062110
1161	5.8000e-01	-6.3608	-52.024955	0.000849	8.485344	2.874912	-0.067756
1162	5.8050e-01	-6.4089	-52.303239	0.000697	6.970104	2.361535	-0.055657
1163	5.8100e-01	-6.4410	-52.896105	0.001485	14.849352	5.031097	-0.118573
1164	5.8150e-01	-6.4827	-53.166322	0.000677	6.768072	2.293085	-0.054044
1165	5.8200e-01	-6.5148	-53.408308	0.000606	6.060960	2.053509	-0.048397
1166	5.8250e-01	-6.5613	-53.561566	0.000384	3.838608	1.300556	-0.030652
1167	5.8300e-01	-6.6062	-53.888247	0.000818	8.182296	2.772237	-0.065336
1168	5.8350e-01	-6.6431	-54.206862	0.000798	7.980264	2.703787	-0.063723
1169	5.8400e-01	-6.6880	-54.469013	0.000657	6.566040	2.224635	-0.052430
1170	5.8450e-01	-6.7233	-54.739231	0.000677	6.768072	2.293085	-0.054044
1171	5.8500e-01	-6.7650	-55.110276	0.000929	9.293472	3.148714	-0.074209
1172	5.8550e-01	-6.7971	-55.461155	0.000879	8.788392	2.977588	-0.070176
1173	5.8600e-01	-6.8292	-55.860432	0.001000	10.000584	3.388290	-0.079855
1174	5.8650e-01	-6.8838	-56.033855	0.000434	4.343688	1.471681	-0.034685
1175	5.8700e-01	-6.9271	-56.271808	0.000596	5.959944	2.019284	-0.047591
1176	5.8750e-01	-6.9560	-56.731581	0.001152	11.515824	3.901667	-0.091955
1177	5.8800e-01	-6.9993	-57.021965	0.000727	7.273152	2.464211	-0.058077
1178	5.8850e-01	-7.0378	-56.933236	-0.000222	-2.222352	-0.752953	0.017746
1179	5.8900e-01	-7.0795	-57.554334	0.001556	15.556464	5.270673	-0.124219
1180	5.8950e-01	-7.1180	-57.852783	0.000748	7.475184	2.532661	-0.059690
1181	5.9000e-01	-7.1613	-57.981842	0.000323	3.232512	1.095205	-0.025812
1182	5.9050e-01	-7.1934	-58.381119	0.001000	10.000584	3.388290	-0.079855
1183	5.9100e-01	-7.2351	-58.675535	0.000737	7.374168	2.498436	-0.058883
1184	5.9150e-01	-7.2784	-58.925587	0.000626	6.262992	2.121959	-0.050010
1185	5.9200e-01	-7.3201	-59.486188	0.001404	14.041224	4.757296	-0.112120
1186	5.9250e-01	-7.3570	-59.703975	0.000545	5.454864	1.848158	-0.043557
1187	5.9300e-01	-7.4067	-59.796736	0.000232	2.323368	0.787178	-0.018552
1188	5.9350e-01	-7.4324	-60.159715	0.000909	9.091440	3.080263	-0.072596
1189	5.9400e-01	-7.4886	-60.494462	0.000838	8.384328	2.840687	-0.066949
1190	5.9450e-01	-7.5335	-60.591257	0.000242	2.424384	0.821404	-0.019359
1191	5.9500e-01	-7.5607	-61.131692	0.001354	13.536144	4.586170	-0.108087
1192	5.9550e-01	-7.6089	-61.276884	0.000364	3.636576	1.232105	-0.029038
1193	5.9600e-01	-7.6426	-61.595498	0.000798	7.980264	2.703787	-0.063723
1194	5.9650e-01	-7.6843	-61.906047	0.000778	7.778232	2.635336	-0.062110
1195	5.9700e-01	-7.7260	-62.079470	0.000434	4.343688	1.471681	-0.034685
1196	5.9750e-01	-7.7565	-62.390019	0.000778	7.778232	2.635336	-0.062110
1197	5.9800e-01	-7.8078	-62.619905	0.000576	5.757912	1.950833	-0.045977
1198	5.9850e-01	-7.8351	-62.688468	0.000172	1.717272	0.581828	-0.013713
1199	5.9900e-01	-7.8832	-63.144208	0.001141	11.414808	3.867442	-0.091148
1200	5.9950e-01	-7.9201	-63.672544	0.001323	13.233096	4.483494	-0.105667
1201	6.0000e-01	-7.9538	-63.757239	0.000212	2.121336	0.718728	-0.016939
1202	6.0050e-01	-8.0067	-64.079887	0.000808	8.081280	2.738012	-0.064530
1203	6.0100e-01	-8.0420	-64.346072	0.000667	6.667056	2.258860	-0.053237
1204	6.0150e-01	-8.0837	-64.588058	0.000606	6.060960	2.053509	-0.048397
1205	6.0200e-01	-8.1206	-65.140592	0.001384	13.839192	4.688845	-0.110507
1206	6.0250e-01	-8.1607	-65.342247	0.000505	5.050800	1.711257	-0.040331
1207	6.0300e-01	-8.1960	-65.471306	0.000323	3.232512	1.095205	-0.025812
1208	6.0350e-01	-8.2345	-65.725391	0.000636	6.364008	2.156184	-0.050817
1209	6.0400e-01	-8.2746	-66.068205	0.000859	8.586360	2.909138	-0.068563
1210	6.0450e-01	-8.3308	-66.370687	0.000758	7.576200	2.566886	-0.060496
1211	6.0500e-01	-8.3677	-66.564276	0.000485	4.848768	1.642807	-0.038718
1212	6.0550e-01	-8.4110	-66.894990	0.000828	8.283312	2.806462	-0.066143
1213	6.0600e-01	-8.4479	-67.003884	0.000273	2.727432	0.924079	-0.021779
1214	6.0650e-01	-8.4832	-67.346697	0.000859	8.586360	2.909138	-0.068563
1215	6.0700e-01	-8.5297	-67.717742	0.000929	9.293472	3.148714	-0.074209
1216	6.0750e-01	-8.5538	-67.943596	0.000566	5.656896	1.916608	-0.045171
1217	6.0800e-01	-8.6035	-68.294475	0.000879	8.788392	2.977588	-0.070176
1218	6.0850e-01	-8.6372	-68.669553	0.000939	9.394488	3.182939	-0.075016
1219	6.0900e-01	-8.6853	-68.919605	0.000626	6.262992	2.121959	-0.050010
1220	6.0950e-01	-8.7222	-69.205955	0.000717	7.172136	2.429986	-0.057270
1221	6.1000e-01	-8.7623	-69.468107	0.000657	6.566040	2.224635	-0.052430
1222	6.1050e-01	-8.8024	-69.585067	0.000293	2.929464	0.992529	-0.023392
1223	6.1100e-01	-8.8409	-70.028708	0.001111	11.111760	3.764766	-0.088728
1224	6.1150e-01	-8.8762	-70.234396	0.000515	5.151816	1.745483	-0.041138
1225	6.1200e-01	-8.9227	-70.581242	0.000869	8.687376	2.943363	-0.069369
1226	6.1250e-01	-8.9628	-70.827261	0.000616	6.161976	2.087734	-0.049204
1227	6.1300e-01	-8.9981	-71.049082	0.000556	5.555880	1.882383	-0.044364
1228	6.1350e-01	-9.0431	-71.371729	0.000808	8.081280	2.738012	-0.064530
1229	6.1400e-01	-9.0800	-71.577417	0.000515	5.151816	1.745483	-0.041138
1230	6.1450e-01	-9.1201	-71.920231	0.000859	8.586360	2.909138	-0.068563
1231	6.1500e-01	-9.1554	-72.242879	0.000808	8.081280	2.738012	-0.064530
1232	6.1550e-01	-9.1955	-72.529229	0.000717	7.172136	2.429986	-0.057270
1233	6.1600e-01	-9.2452	-72.605858	0.000192	1.919304	0.650278	-0.015326
1234	6.1650e-01	-9.2757	-72.892208	0.000717	7.172136	2.429986	-0.057270
1235	6.1700e-01	-9.3254	-73.295517	0.001010	10.101600	3.422515	-0.080662
1236	6.1750e-01	-9.3543	-73.517338	0.000556	5.555880	1.882383	-0.044364
1237	6.1800e-01	-9.3992	-73.678662	0.000404	4.040640	1.369006	-0.032265
1238	6.1850e-01	-9.4473	-74.106170	0.001071	10.707696	3.627866	-0.085502
1239	6.1900e-01	-9.4746	-74.428818	0.000808	8.081280	2.738012	-0.064530
1240	6.1950e-01	-9.5291	-74.602241	0.000434	4.343688	1.471681	-0.034685
1241	6.2000e-01	-9.5676	-74.735334	0.000333	3.333528	1.129430	-0.026618
1242	6.2050e-01	-9.6013	-75.025717	0.000727	7.273152	2.464211	-0.058077
1243	6.2100e-01	-9.6430	-75.316100	0.000727	7.273152	2.464211	-0.058077
1244	6.2150e-01	-9.6944	-75.594384	0.000697	6.970104	2.361535	-0.055657
1245	6.2200e-01	-9.7168	-75.844436	0.000626	6.262992	2.121959	-0.050010
1246	6.2250e-01	-9.7698	-76.017859	0.000434	4.343688	1.471681	-0.034685
1247	6.2300e-01	-9.8067	-76.360672	0.000859	8.586360	2.909138	-0.068563
1248	6.2350e-01	-9.8436	-76.667188	0.000768	7.677216	2.601111	-0.061303
1249	6.2400e-01	-9.8805	-76.969670	0.000758	7.576200	2.566886	-0.060496
1250	6.2450e-01	-9.9142	-77.409278	0.001101	11.010744	3.730541	-0.087922
1251	6.2500e-01	-9.9511	-77.598834	0.000475	4.747752	1.608582	-0.037911
1252	6.2550e-01	-10.0024	-77.744025	0.000364	3.636576	1.232105	-0.029038
1253	6.2600e-01	-10.0441	-78.006177	0.000657	6.566040	2.224635	-0.052430
1254	6.2650e-01	-10.0890	-78.292527	0.000717	7.172136	2.429986	-0.057270
1255	6.2700e-01	-10.1147	-78.316725	0.000061	0.606096	0.205351	-0.004840
1256	6.2750e-01	-10.1644	-78.707936	0.000980	9.798552	3.319839	-0.078242
1257	6.2800e-01	-10.1997	-79.050749	0.000859	8.586360	2.909138	-0.068563
1258	6.2850e-01	-10.2478	-79.341132	0.000727	7.273152	2.464211	-0.058077
1259	6.2900e-01	-10.2912	-79.421794	0.000202	2.020320	0.684503	-0.016132
1260	6.2950e-01	-10.3200	-79.776707	0.000889	8.889408	3.011813	-0.070983
1261	6.3000e-01	-10.3682	-80.115487	0.000849	8.485344	2.874912	-0.067756
1262	6.3050e-01	-10.4083	-80.260679	0.000364	3.636576	1.232105	-0.029038
1263	6.3100e-01	-10.4403	-80.655922	0.000990	9.899568	3.354065	-0.079049
1264	6.3150e-01	-10.4821	-80.764816	0.000273	2.727432	0.924079	-0.021779
1265	6.3200e-01	-10.5190	-80.970504	0.000515	5.151816	1.745483	-0.041138
1266	6.3250e-01	-10.5591	-81.325417	0.000889	8.889408	3.011813	-0.070983
1267	6.3300e-01	-10.6024	-81.559336	0.000586	5.858928	1.985059	-0.046784
1268	6.3350e-01	-10.6361	-81.942481	0.000960	9.596520	3.251389	-0.076629
1269	6.3400e-01	-10.6794	-82.216732	0.000687	6.869088	2.327310	-0.054850
1270	6.3450e-01	-10.7115	-82.559545	0.000859	8.586360	2.909138	-0.068563
1271	6.3500e-01	-10.7644	-82.426453	-0.000333	-3.333528	-1.129430	0.026618
1272	6.3550e-01	-10.8013	-82.801531	0.000939	9.394488	3.182939	-0.075016
1273	6.3600e-01	-10.8414	-83.112079	0.000778	7.778232	2.635336	-0.062110
1274	6.3650e-01	-10.8767	-83.539588	0.001071	10.707696	3.627866	-0.085502
1275	6.3700e-01	-10.9200	-83.777541	0.000596	5.959944	2.019284	-0.047591
1276	6.3750e-01	-10.9601	-83.906600	0.000323	3.232512	1.095205	-0.025812
1277	6.3800e-01	-11.0115	-84.027593	0.000303	3.030480	1.026754	-0.024199
1278	6.3850e-01	-11.0387	-84.499465	0.001182	11.818872	4.004342	-0.094375
1279	6.3900e-01	-11.0836	-84.765650	0.000667	6.667056	2.258860	-0.053237
1280	6.3950e-01	-11.1302	-84.898742	0.000333	3.333528	1.129430	-0.026618
1281	6.4000e-01	-11.1671	-85.277853	0.000950	9.495504	3.217164	-0.075822
1282	6.4050e-01	-11.2008	-85.479508	0.000505	5.050800	1.711257	-0.040331
1283	6.4100e-01	-11.2377	-85.535972	0.000141	1.414224	0.479152	-0.011293
1284	6.4150e-01	-11.2713	-85.894917	0.000899	8.990424	3.046038	-0.071789
1285	6.4200e-01	-11.3211	-86.161102	0.000667	6.667056	2.258860	-0.053237
1286	6.4250e-01	-11.3660	-86.346625	0.000465	4.646736	1.574357	-0.037105
1287	6.4300e-01	-11.4013	-86.637008	0.000727	7.273152	2.464211	-0.058077
1288	6.4350e-01	-11.4382	-87.036284	0.001000	10.000584	3.388290	-0.079855
1289	6.4400e-01	-11.4911	-87.133079	0.000242	2.424384	0.821404	-0.019359
1290	6.4450e-01	-11.5216	-87.475892	0.000859	8.586360	2.909138	-0.068563
1291	6.4500e-01	-11.5569	-87.677547	0.000505	5.050800	1.711257	-0.040331
1292	6.4550e-01	-11.5970	-87.971963	0.000737	7.374168	2.498436	-0.058883
1293	6.4600e-01	-11.6387	-88.226048	0.000636	6.364008	2.156184	-0.050817
1294	6.4650e-01	-11.6820	-88.504332	0.000697	6.970104	2.361535	-0.055657
1295	6.4700e-01	-11.7253	-88.685822	0.000455	4.545720	1.540132	-0.036298
1296	6.4750e-01	-11.7574	-88.980238	0.000737	7.374168	2.498436	-0.058883
1297	6.4800e-01	-11.8088	-89.226257	0.000616	6.161976	2.087734	-0.049204
1298	6.4850e-01	-11.8473	-89.339184	0.000283	2.828448	0.958304	-0.022585
1299	6.4900e-01	-11.8842	-89.641666	0.000758	7.576200	2.566886	-0.060496
1300	6.4950e-01	-11.9178	-89.750560	0.000273	2.727432	0.924079	-0.021779
1301	6.5000e-01	-11.9596	-89.968347	0.000545	5.454864	1.848158	-0.043557
1302	6.5050e-01	-12.0045	-90.254697	0.000717	7.172136	2.429986	-0.057270
1303	6.5100e-01	-12.0494	-90.670106	0.001040	10.404648	3.525190	-0.083082
1304	6.5150e-01	-12.0863	-90.984688	0.000788	7.879248	2.669562	-0.062916
1305	6.5200e-01	-12.1184	-91.238773	0.000636	6.364008	2.156184	-0.050817
1306	6.5250e-01	-12.1585	-91.311369	0.000182	1.818288	0.616053	-0.014519
1307	6.5300e-01	-12.1970	-91.573520	0.000657	6.566040	2.224635	-0.052430
1308	6.5350e-01	-12.2403	-91.763076	0.000475	4.747752	1.608582	-0.037911
1309	6.5400e-01	-12.2836	-92.009095	0.000616	6.161976	2.087734	-0.049204
1310	6.5450e-01	-12.3173	-92.400306	0.000980	9.798552	3.319839	-0.078242
1311	6.5500e-01	-12.3606	-92.662457	0.000657	6.566040	2.224635	-0.052430
1312	6.5550e-01	-12.4055	-92.936708	0.000687	6.869088	2.327310	-0.054850
1313	6.5600e-01	-12.4472	-92.997204	0.000152	1.515240	0.513377	-0.012099
1314	6.5650e-01	-12.4873	-93.380348	0.000960	9.596520	3.251389	-0.076629
1315	6.5700e-01	-12.5178	-93.513441	0.000333	3.333528	1.129430	-0.026618
1316	6.5750e-01	-12.5660	-93.658632	0.000364	3.636576	1.232105	-0.029038
1317	6.5800e-01	-12.6077	-94.057909	0.001000	10.000584	3.388290	-0.079855
1318	6.5850e-01	-12.6381	-94.307961	0.000626	6.262992	2.121959	-0.050010
1319	6.5900e-01	-12.6911	-94.432987	0.000313	3.131496	1.060980	-0.025005
1320	6.5950e-01	-12.7232	-94.670940	0.000596	5.959944	2.019284	-0.047591
1321	6.6000e-01	-12.7713	-95.195243	0.001313	13.132080	4.449269	-0.104861
1322	6.6050e-01	-12.8082	-95.380765	0.000465	4.646736	1.574357	-0.037105
1323	6.6100e-01	-12.8515	-95.614685	0.000586	5.858928	1.985059	-0.046784
1324	6.6150e-01	-12.8836	-95.985730	0.000929	9.293472	3.148714	-0.074209
1325	6.6200e-01	-12.9301	-95.917168	-0.000172	-1.717272	-0.581828	0.013713
1326	6.6250e-01	-12.9622	-96.114789	0.000495	4.949784	1.677032	-0.039524
1327	6.6300e-01	-13.0007	-96.489868	0.000939	9.394488	3.182939	-0.075016
1328	6.6350e-01	-13.0360	-96.631026	0.000354	3.535560	1.197880	-0.028232
1329	6.6400e-01	-13.0857	-96.905277	0.000687	6.869088	2.327310	-0.054850
1330	6.6450e-01	-13.1162	-97.175494	0.000677	6.768072	2.293085	-0.054044
1331	6.6500e-01	-13.1595	-97.502175	0.000818	8.182296	2.772237	-0.065336
1332	6.6550e-01	-13.2044	-97.675598	0.000434	4.343688	1.471681	-0.034685
1333	6.6600e-01	-13.2413	-97.941783	0.000667	6.667056	2.258860	-0.053237
1334	6.6650e-01	-13.2863	-98.018412	0.000192	1.919304	0.650278	-0.015326
1335	6.6700e-01	-13.3328	-98.256365	0.000596	5.959944	2.019284	-0.047591
1336	6.6750e-01	-13.3649	-98.502384	0.000616	6.161976	2.087734	-0.049204
1337	6.6800e-01	-13.4018	-98.772601	0.000677	6.768072	2.293085	-0.054044
1338	6.6850e-01	-13.4467	-98.853263	0.000202	2.020320	0.684503	-0.016132
1339	6.6900e-01	-13.4756	-99.200110	0.000869	8.687376	2.943363	-0.069369
1340	6.6950e-01	-13.5253	-99.563089	0.000909	9.091440	3.080263	-0.072596
1341	6.7000e-01	-13.5510	-99.825240	0.000657	6.566040	2.224635	-0.052430
1342	6.7050e-01	-13.5991	-100.059160	0.000586	5.858928	1.985059	-0.046784
1343	6.7100e-01	-13.6440	-100.285013	0.000566	5.656896	1.916608	-0.045171
1344	6.7150e-01	-13.6825	-100.297113	0.000030	0.303048	0.102675	-0.002420
1345	6.7200e-01	-13.7178	-100.664125	0.000919	9.192456	3.114488	-0.073402
1346	6.7250e-01	-13.7547	-101.039203	0.000939	9.394488	3.182939	-0.075016
1347	6.7300e-01	-13.7948	-100.998872	-0.000101	-1.010160	-0.342251	0.008066
1348	6.7350e-01	-13.8413	-101.406215	0.001020	10.202616	3.456740	-0.081469
1349	6.7400e-01	-13.8766	-101.716763	0.000778	7.778232	2.635336	-0.062110
1350	6.7450e-01	-13.9135	-101.882120	0.000414	4.141656	1.403231	-0.033071
1351	6.7500e-01	-13.9584	-102.091841	0.000525	5.252832	1.779708	-0.041944
1352	6.7550e-01	-14.0033	-102.281397	0.000475	4.747752	1.608582	-0.037911
1353	6.7600e-01	-14.0402	-102.499184	0.000545	5.454864	1.848158	-0.043557
1354	6.7650e-01	-14.0755	-102.874263	0.000939	9.394488	3.182939	-0.075016
1355	6.7700e-01	-14.1285	-102.983156	0.000273	2.727432	0.924079	-0.021779
1356	6.7750e-01	-14.1606	-103.051719	0.000172	1.717272	0.581828	-0.013713
1357	6.7800e-01	-14.2023	-103.265473	0.000535	5.353848	1.813933	-0.042751
1358	6.7850e-01	-14.2376	-103.567956	0.000758	7.576200	2.566886	-0.060496
1359	6.7900e-01	-14.2841	-103.902703	0.000838	8.384328	2.840687	-0.066949
1360	6.7950e-01	-14.3242	-104.136622	0.000586	5.858928	1.985059	-0.046784
1361	6.8000e-01	-14.3643	-104.564131	0.001071	10.707696	3.627866	-0.085502
1362	6.8050e-01	-14.3996	-104.648826	0.000212	2.121336	0.718728	-0.016939
1363	6.8100e-01	-14.4429	-104.729488	0.000202	2.020320	0.684503	-0.016132
1364	6.8150e-01	-14.4878	-105.036003	0.000768	7.677216	2.601111	-0.061303
1365	6.8200e-01	-14.5263	-105.294122	0.000647	6.465024	2.190409	-0.051624
1366	6.8250e-01	-14.5680	-105.338486	0.000111	1.111176	0.376477	-0.008873
1367	6.8300e-01	-14.6017	-105.681299	0.000859	8.586360	2.909138	-0.068563
1368	6.8350e-01	-14.6531	-105.963616	0.000707	7.071120	2.395760	-0.056463
1369	6.8400e-01	-14.6835	-106.205602	0.000606	6.060960	2.053509	-0.048397
1370	6.8450e-01	-14.7253	-106.366926	0.000404	4.040640	1.369006	-0.032265
1371	6.8500e-01	-14.7670	-106.693607	0.000818	8.182296	2.772237	-0.065336
1372	6.8550e-01	-14.7990	-106.943659	0.000626	6.262992	2.121959	-0.050010
1373	6.8600e-01	-14.8424	-107.181612	0.000596	5.959944	2.019284	-0.047591
1374	6.8650e-01	-14.8744	-107.439730	0.000647	6.465024	2.190409	-0.051624
1375	6.8700e-01	-14.9274	-107.447796	0.000020	0.202032	0.068450	-0.001613
1376	6.8750e-01	-14.9563	-107.822875	0.000939	9.394488	3.182939	-0.075016
1377	6.8800e-01	-15.0028	-107.895470	0.000182	1.818288	0.616053	-0.014519
1378	6.8850e-01	-15.0445	-108.411707	0.001293	12.930048	4.380819	-0.103247
1379	6.8900e-01	-15.0798	-108.480270	0.000172	1.717272	0.581828	-0.013713
1380	6.8950e-01	-15.1295	-108.770653	0.000727	7.273152	2.464211	-0.058077
1381	6.9000e-01	-15.1680	-109.044903	0.000687	6.869088	2.327310	-0.054850
1382	6.9050e-01	-15.2001	-109.307055	0.000657	6.566040	2.224635	-0.052430
1383	6.9100e-01	-15.2402	-109.444180	0.000343	3.434544	1.163655	-0.027425
1384	6.9150e-01	-15.2771	-109.839424	0.000990	9.899568	3.354065	-0.079049
1385	6.9200e-01	-15.3140	-109.871689	0.000081	0.808128	0.273801	-0.006453
1386	6.9250e-01	-15.3525	-109.912020	0.000101	1.010160	0.342251	-0.008066
1387	6.9300e-01	-15.3958	-110.404058	0.001232	12.323952	4.175468	-0.098408
1388	6.9350e-01	-15.4391	-110.682341	0.000697	6.970104	2.361535	-0.055657
1389	6.9400e-01	-15.4712	-110.758970	0.000192	1.919304	0.650278	-0.015326
1390	6.9450e-01	-15.5097	-111.178413	0.001051	10.505664	3.559415	-0.083888
1391	6.9500e-01	-15.5691	-111.295372	0.000293	2.929464	0.992529	-0.023392
1392	6.9550e-01	-15.6028	-111.537358	0.000606	6.060960	2.053509	-0.048397
1393	6.9600e-01	-15.6445	-111.573656	0.000091	0.909144	0.308026	-0.007260
1394	6.9650e-01	-15.6782	-112.033430	0.001152	11.515824	3.901667	-0.091955
1395	6.9700e-01	-15.7247	-112.190720	0.000394	3.939624	1.334781	-0.031458
1396	6.9750e-01	-15.7616	-112.356077	0.000414	4.141656	1.403231	-0.033071
1397	6.9800e-01	-15.8033	-112.662593	0.000768	7.677216	2.601111	-0.061303
1398	6.9850e-01	-15.8434	-112.973141	0.000778	7.778232	2.635336	-0.062110
1399	6.9900e-01	-15.8787	-113.263525	0.000727	7.273152	2.464211	-0.058077
1400	6.9950e-01	-15.9268	-113.348220	0.000212	2.121336	0.718728	-0.016939
1401	7.0000e-01	-15.9605	-113.646669	0.000748	7.475184	2.532661	-0.059690
1402	7.0050e-01	-16.0022	-113.884622	0.000596	5.959944	2.019284	-0.047591
1403	7.0100e-01	-16.0391	-113.941085	0.000141	1.414224	0.479152	-0.011293
1404	7.0150e-01	-16.0792	-114.118542	0.000444	4.444704	1.505907	-0.035491
1405	7.0200e-01	-16.1193	-114.429090	0.000778	7.778232	2.635336	-0.062110
1406	7.0250e-01	-16.1610	-114.767870	0.000849	8.485344	2.874912	-0.067756
1407	7.0300e-01	-16.2060	-115.074386	0.000768	7.677216	2.601111	-0.061303
1408	7.0350e-01	-16.2429	-115.211511	0.000343	3.434544	1.163655	-0.027425
1409	7.0400e-01	-16.2798	-115.397034	0.000465	4.646736	1.574357	-0.037105
1410	7.0450e-01	-16.3263	-115.772112	0.000939	9.394488	3.182939	-0.075016
1411	7.0500e-01	-16.3600	-116.006032	0.000586	5.858928	1.985059	-0.046784
1412	7.0550e-01	-16.3985	-116.078627	0.000182	1.818288	0.616053	-0.014519
1413	7.0600e-01	-16.4482	-116.344812	0.000667	6.667056	2.258860	-0.053237
1414	7.0650e-01	-16.4835	-116.558566	0.000535	5.353848	1.813933	-0.042751
1415	7.0700e-01	-16.5172	-116.679559	0.000303	3.030480	1.026754	-0.024199
1416	7.0750e-01	-16.5589	-117.078836	0.001000	10.000584	3.388290	-0.079855
1417	7.0800e-01	-16.6022	-117.232094	0.000384	3.838608	1.300556	-0.030652
1418	7.0850e-01	-16.6407	-117.466013	0.000586	5.858928	1.985059	-0.046784
1419	7.0900e-01	-16.6744	-117.578940	0.000283	2.828448	0.958304	-0.022585
1420	7.0950e-01	-16.7241	-118.228269	0.001626	16.263576	5.510249	-0.129866
1421	7.1000e-01	-16.7626	-118.280699	0.000131	1.313208	0.444927	-0.010486
1422	7.1050e-01	-16.8043	-118.498487	0.000545	5.454864	1.848158	-0.043557
1423	7.1100e-01	-16.8477	-118.688042	0.000475	4.747752	1.608582	-0.037911
1424	7.1150e-01	-16.8910	-118.732406	0.000111	1.111176	0.376477	-0.008873
1425	7.1200e-01	-16.9279	-119.079253	0.000869	8.687376	2.943363	-0.069369
1426	7.1250e-01	-16.9583	-119.317206	0.000596	5.959944	2.019284	-0.047591
1427	7.1300e-01	-17.0001	-119.510794	0.000485	4.848768	1.642807	-0.038718
1428	7.1350e-01	-17.0482	-119.873773	0.000909	9.091440	3.080263	-0.072596
1429	7.1400e-01	-17.0722	-120.204487	0.000828	8.283312	2.806462	-0.066143
1430	7.1450e-01	-17.1236	-120.394043	0.000475	4.747752	1.608582	-0.037911
1431	7.1500e-01	-17.1605	-120.583599	0.000475	4.747752	1.608582	-0.037911
1432	7.1550e-01	-17.2022	-120.805419	0.000556	5.555880	1.882383	-0.044364
1433	7.1600e-01	-17.2423	-121.095802	0.000727	7.273152	2.464211	-0.058077
1434	7.1650e-01	-17.2824	-121.361987	0.000667	6.667056	2.258860	-0.053237
1435	7.1700e-01	-17.3273	-121.628171	0.000667	6.667056	2.258860	-0.053237
1436	7.1750e-01	-17.3578	-121.987117	0.000899	8.990424	3.046038	-0.071789
1437	7.1800e-01	-17.3979	-122.128275	0.000354	3.535560	1.197880	-0.028232
1438	7.1850e-01	-17.4396	-122.285566	0.000394	3.939624	1.334781	-0.031458
1439	7.1900e-01	-17.4877	-122.503353	0.000545	5.454864	1.848158	-0.043557
1440	7.1950e-01	-17.5230	-122.878432	0.000939	9.394488	3.182939	-0.075016
1441	7.2000e-01	-17.5615	-123.039756	0.000404	4.040640	1.369006	-0.032265
1442	7.2050e-01	-17.6065	-123.072020	0.000081	0.808128	0.273801	-0.006453
1443	7.2100e-01	-17.6369	-123.564058	0.001232	12.323952	4.175468	-0.098408
1444	7.2150e-01	-17.6802	-123.664886	0.000253	2.525400	0.855629	-0.020165
1445	7.2200e-01	-17.7236	-124.007699	0.000859	8.586360	2.909138	-0.068563
1446	7.2250e-01	-17.7556	-124.294049	0.000717	7.172136	2.429986	-0.057270
1447	7.2300e-01	-17.8054	-124.406976	0.000283	2.828448	0.958304	-0.022585
1448	7.2350e-01	-17.8294	-124.725591	0.000798	7.980264	2.703787	-0.063723
1449	7.2400e-01	-17.8840	-124.874815	0.000374	3.737592	1.266330	-0.029845
1450	7.2450e-01	-17.9241	-125.201496	0.000818	8.182296	2.772237	-0.065336
1451	7.2500e-01	-17.9578	-125.423317	0.000556	5.555880	1.882383	-0.044364
1452	7.2550e-01	-18.0011	-125.641104	0.000545	5.454864	1.848158	-0.043557
1453	7.2600e-01	-18.0380	-126.012149	0.000929	9.293472	3.148714	-0.074209
1454	7.2650e-01	-18.0877	-126.100877	0.000222	2.222352	0.752953	-0.017746
1455	7.2700e-01	-18.1310	-126.306565	0.000515	5.151816	1.745483	-0.041138
1456	7.2750e-01	-18.1583	-126.609048	0.000758	7.576200	2.566886	-0.060496
1457	7.2800e-01	-18.2129	-126.867166	0.000647	6.465024	2.190409	-0.051624
1458	7.2850e-01	-18.2401	-127.226112	0.000899	8.990424	3.046038	-0.071789
1459	7.2900e-01	-18.2850	-127.528594	0.000758	7.576200	2.566886	-0.060496
1460	7.2950e-01	-18.3203	-127.758481	0.000576	5.757912	1.950833	-0.045977
1461	7.3000e-01	-18.3588	-127.839143	0.000202	2.020320	0.684503	-0.016132
1462	7.3050e-01	-18.4022	-128.206155	0.000919	9.192456	3.114488	-0.073402
1463	7.3100e-01	-18.4407	-128.496538	0.000727	7.273152	2.464211	-0.058077
1464	7.3150e-01	-18.4759	-128.690127	0.000485	4.848768	1.642807	-0.038718
1465	7.3200e-01	-18.5273	-129.008742	0.000798	7.980264	2.703787	-0.063723
1466	7.3250e-01	-18.5578	-129.218463	0.000525	5.252832	1.779708	-0.041944
1467	7.3300e-01	-18.6011	-129.520945	0.000758	7.576200	2.566886	-0.060496
1468	7.3350e-01	-18.6444	-129.492713	-0.000071	-0.707112	-0.239576	0.005646
1469	7.3400e-01	-18.6861	-129.900056	0.001020	10.202616	3.456740	-0.081469
1470	7.3450e-01	-18.7182	-130.343697	0.001111	11.111760	3.764766	-0.088728
1471	7.3500e-01	-18.7599	-130.496955	0.000384	3.838608	1.300556	-0.030652
1472	7.3550e-01	-18.8032	-130.589716	0.000232	2.323368	0.787178	-0.018552
1473	7.3600e-01	-18.8449	-130.888165	0.000748	7.475184	2.532661	-0.059690
1474	7.3650e-01	-18.8770	-131.472965	0.001465	14.647320	4.962646	-0.116960
1475	7.3700e-01	-18.9251	-131.678653	0.000515	5.151816	1.745483	-0.041138
1476	7.3750e-01	-18.9620	-131.811745	0.000333	3.333528	1.129430	-0.026618
1477	7.3800e-01	-19.0053	-132.102128	0.000727	7.273152	2.464211	-0.058077
1478	7.3850e-01	-19.0326	-132.436875	0.000838	8.384328	2.840687	-0.066949
1479	7.3900e-01	-19.0888	-132.578034	0.000354	3.535560	1.197880	-0.028232
1480	7.3950e-01	-19.1241	-132.957145	0.000950	9.495504	3.217164	-0.075822
1481	7.4000e-01	-19.1561	-133.247528	0.000727	7.273152	2.464211	-0.058077
1482	7.4050e-01	-19.2059	-133.400786	0.000384	3.838608	1.300556	-0.030652
1483	7.4100e-01	-19.2396	-133.787963	0.000970	9.697536	3.285614	-0.077435
1484	7.4150e-01	-19.2845	-133.908956	0.000303	3.030480	1.026754	-0.024199
1485	7.4200e-01	-19.3198	-134.340498	0.001081	10.808712	3.662091	-0.086308
1486	7.4250e-01	-19.3631	-134.614749	0.000687	6.869088	2.327310	-0.054850
1487	7.4300e-01	-19.3984	-134.804304	0.000475	4.747752	1.608582	-0.037911
1488	7.4350e-01	-19.4545	-134.997893	0.000485	4.848768	1.642807	-0.038718
1489	7.4400e-01	-19.4642	-135.352806	0.000889	8.889408	3.011813	-0.070983
1490	7.4450e-01	-19.5171	-135.417335	0.000162	1.616256	0.547602	-0.012906
1491	7.4500e-01	-19.5540	-135.788380	0.000929	9.293472	3.148714	-0.074209
1492	7.4550e-01	-19.6037	-136.175558	0.000970	9.697536	3.285614	-0.077435
1493	7.4600e-01	-19.6470	-136.550636	0.000939	9.394488	3.182939	-0.075016
1494	7.4650e-01	-19.6823	-136.768423	0.000545	5.454864	1.848158	-0.043557
1495	7.4700e-01	-19.7160	-137.066873	0.000748	7.475184	2.532661	-0.059690
1496	7.4750e-01	-19.7561	-137.244329	0.000444	4.444704	1.505907	-0.035491
1497	7.4800e-01	-19.8010	-137.554877	0.000778	7.778232	2.635336	-0.062110
1498	7.4850e-01	-19.8460	-137.808963	0.000636	6.364008	2.156184	-0.050817
1499	7.4900e-01	-19.8732	-138.091280	0.000707	7.071120	2.395760	-0.056463
1500	7.4950e-01	-19.9214	-138.426027	0.000838	8.384328	2.840687	-0.066949
1501	7.5000e-01	-19.9663	-138.688178	0.000657	6.566040	2.224635	-0.052430
1502	7.5050e-01	-19.9631	-138.789006	-0.000253	-2.525400	-0.855629	-0.020165
1503	7.5100e-01	-19.9374	-138.857568	-0.000172	-1.717272	-0.581828	-0.013713
1504	7.5150e-01	-19.8925	-138.789006	0.000172	1.717272	0.581828	0.013713
1505	7.5200e-01	-19.8716	-138.506689	0.000707	7.071120	2.395760	0.056463
1506	7.5250e-01	-19.8299	-138.551053	-0.000111	-1.111176	-0.376477	-0.008873
1507	7.5300e-01	-19.7786	-138.559119	-0.000020	-0.202032	-0.068450	-0.001613
1508	7.5350e-01	-19.7481	-138.345365	0.000535	5.353848	1.813933	0.042751
1509	7.5400e-01	-19.7128	-138.268736	0.000192	1.919304	0.650278	0.015326
1510	7.5450e-01	-19.6727	-138.131611	0.000343	3.434544	1.163655	0.027425
1511	7.5500e-01	-19.6374	-138.123544	0.000020	0.202032	0.068450	0.001613
1512	7.5550e-01	-19.5845	-137.841227	0.000707	7.071120	2.395760	0.056463
1513	7.5600e-01	-19.5572	-137.808963	0.000081	0.808128	0.273801	0.006453
1514	7.5650e-01	-19.5075	-137.647639	0.000404	4.040640	1.369006	0.032265
1515	7.5700e-01	-19.4706	-137.696036	-0.000121	-1.212192	-0.410702	-0.009679
1516	7.5750e-01	-19.4241	-137.522613	0.000434	4.343688	1.471681	0.034685
1517	7.5800e-01	-19.3839	-137.534712	-0.000030	-0.303048	-0.102675	-0.002420
1518	7.5850e-01	-19.3374	-136.994277	0.001354	13.536144	4.586170	0.108087
1519	7.5900e-01	-19.3069	-136.962012	0.000081	0.808128	0.273801	0.006453
1520	7.5950e-01	-19.2604	-136.853118	0.000273	2.727432	0.924079	0.021779
1521	7.6000e-01	-19.2315	-136.659530	0.000485	4.848768	1.642807	0.038718
1522	7.6050e-01	-19.1850	-136.494173	0.000414	4.141656	1.403231	0.033071
1523	7.6100e-01	-19.1561	-136.546603	-0.000131	-1.313208	-0.444927	-0.010486
1524	7.6150e-01	-19.1048	-136.393345	0.000384	3.838608	1.300556	0.030652
1525	7.6200e-01	-19.0695	-136.175558	0.000545	5.454864	1.848158	0.043557
1526	7.6250e-01	-19.0294	-135.990035	0.000465	4.646736	1.574357	0.037105
1527	7.6300e-01	-18.9957	-135.941638	0.000121	1.212192	0.410702	0.009679
1528	7.6350e-01	-18.9476	-135.848877	0.000232	2.323368	0.787178	0.018552
1529	7.6400e-01	-18.8995	-135.618990	0.000576	5.757912	1.950833	0.045977
1530	7.6450e-01	-18.8706	-135.489931	0.000323	3.232512	1.095205	0.025812
1531	7.6500e-01	-18.8321	-135.385070	0.000263	2.626416	0.889854	0.020972
1532	7.6550e-01	-18.7840	-135.223746	0.000404	4.040640	1.369006	0.032265
1533	7.6600e-01	-18.7535	-134.792205	0.001081	10.808712	3.662091	0.086308
1534	7.6650e-01	-18.7102	-134.715576	0.000192	1.919304	0.650278	0.015326
1535	7.6700e-01	-18.6717	-134.562318	0.000384	3.838608	1.300556	0.030652
1536	7.6750e-01	-18.6316	-134.292101	0.000677	6.768072	2.293085	0.054044
1537	7.6800e-01	-18.5963	-134.203373	0.000222	2.222352	0.752953	0.017746
1538	7.6850e-01	-18.5546	-134.167075	0.000091	0.909144	0.308026	0.007260
1539	7.6900e-01	-18.5048	-133.929122	0.000596	5.959944	2.019284	0.047591
1540	7.6950e-01	-18.4759	-133.642772	0.000717	7.172136	2.429986	0.057270
1541	7.7000e-01	-18.4374	-133.566143	0.000192	1.919304	0.650278	0.015326
1542	7.7050e-01	-18.3989	-133.558077	0.000020	0.202032	0.068450	0.001613
1543	7.7100e-01	-18.3588	-133.295925	0.000657	6.566040	2.224635	0.052430
1544	7.7150e-01	-18.3187	-133.102337	0.000485	4.848768	1.642807	0.038718
1545	7.7200e-01	-18.2754	-132.828086	0.000687	6.869088	2.327310	0.054850
1546	7.7250e-01	-18.2225	-132.815987	0.000030	0.303048	0.102675	0.002420
1547	7.7300e-01	-18.1904	-132.666762	0.000374	3.737592	1.266330	0.029845
1548	7.7350e-01	-18.1519	-132.590133	0.000192	1.919304	0.650278	0.015326
1549	7.7400e-01	-18.1150	-132.319915	0.000677	6.768072	2.293085	0.054044
1550	7.7450e-01	-18.0653	-132.194889	0.000313	3.131496	1.060980	0.025005
1551	7.7500e-01	-18.0316	-132.073896	0.000303	3.030480	1.026754	0.024199
1552	7.7550e-01	-17.9818	-131.892407	0.000455	4.545720	1.540132	0.036298
1553	7.7600e-01	-17.9482	-131.597991	0.000737	7.374168	2.498436	0.058883
1554	7.7650e-01	-17.9048	-131.428601	0.000424	4.242672	1.437456	0.033878
1555	7.7700e-01	-17.8679	-131.404402	0.000061	0.606096	0.205351	0.004840
1556	7.7750e-01	-17.8310	-131.021258	0.000960	9.596520	3.251389	0.076629
1557	7.7800e-01	-17.7958	-130.827669	0.000485	4.848768	1.642807	0.038718
1558	7.7850e-01	-17.7508	-130.412260	0.001040	10.404648	3.525190	0.083082
1559	7.7900e-01	-17.7043	-130.525187	-0.000283	-2.828448	-0.958304	-0.022585
1560	7.7950e-01	-17.6770	-130.323532	0.000505	5.050800	1.711257	0.040331
1561	7.8000e-01	-17.6321	-130.267068	0.000141	1.414224	0.479152	0.011293
1562	7.8050e-01	-17.5904	-130.004917	0.000657	6.566040	2.224635	0.052430
1563	7.8100e-01	-17.5439	-129.875858	0.000323	3.232512	1.095205	0.025812
1564	7.8150e-01	-17.5022	-129.650004	0.000566	5.656896	1.916608	0.045171
1565	7.8200e-01	-17.4685	-129.621773	0.000071	0.707112	0.239576	0.005646
1566	7.8250e-01	-17.4252	-129.391886	0.000576	5.757912	1.950833	0.045977
1567	7.8300e-01	-17.3899	-128.984543	0.001020	10.202616	3.456740	0.081469
1568	7.8350e-01	-17.3498	-128.803054	0.000455	4.545720	1.540132	0.036298
1569	7.8400e-01	-17.3081	-128.863550	-0.000152	-1.515240	-0.513377	-0.012099
1570	7.8450e-01	-17.2744	-128.504604	0.000899	8.990424	3.046038	0.071789
1571	7.8500e-01	-17.2311	-128.407810	0.000242	2.424384	0.821404	0.019359
1572	7.8550e-01	-17.1926	-128.173890	0.000586	5.858928	1.985059	0.046784
1573	7.8600e-01	-17.1509	-128.008533	0.000414	4.141656	1.403231	0.033071
1574	7.8650e-01	-17.1075	-127.871408	0.000343	3.434544	1.163655	0.027425
1575	7.8700e-01	-17.0738	-127.685885	0.000465	4.646736	1.574357	0.037105
1576	7.8750e-01	-17.0305	-127.528594	0.000394	3.939624	1.334781	0.031458
1577	7.8800e-01	-16.9824	-127.242244	0.000717	7.172136	2.429986	0.057270
1578	7.8850e-01	-16.9487	-127.133351	0.000273	2.727432	0.924079	0.021779
1579	7.8900e-01	-16.9166	-127.036556	0.000242	2.424384	0.821404	0.019359
1580	7.8950e-01	-16.8685	-126.826835	0.000525	5.252832	1.779708	0.041944
1581	7.9000e-01	-16.8284	-126.439658	0.000970	9.697536	3.285614	0.077435
1582	7.9050e-01	-16.7883	-126.229937	0.000525	5.252832	1.779708	0.041944
1583	7.9100e-01	-16.7546	-126.117010	0.000283	2.828448	0.958304	0.022585
1584	7.9150e-01	-16.7033	-126.004083	0.000283	2.828448	0.958304	0.022585
1585	7.9200e-01	-16.6648	-125.854858	0.000374	3.737592	1.266330	0.029845
1586	7.9250e-01	-16.6247	-125.588674	0.000667	6.667056	2.258860	0.053237
1587	7.9300e-01	-16.5862	-125.423317	0.000414	4.141656	1.403231	0.033071
1588	7.9350e-01	-16.5477	-125.157132	0.000667	6.667056	2.258860	0.053237
1589	7.9400e-01	-16.5124	-125.060338	0.000242	2.424384	0.821404	0.019359
1590	7.9450e-01	-16.4674	-124.903047	0.000394	3.939624	1.334781	0.031458
1591	7.9500e-01	-16.4257	-124.826418	0.000192	1.919304	0.650278	0.015326
1592	7.9550e-01	-16.3856	-124.713492	0.000283	2.828448	0.958304	0.022585
1593	7.9600e-01	-16.3519	-124.160957	0.001384	13.839192	4.688845	0.110507
1594	7.9650e-01	-16.3102	-124.120626	0.000101	1.010160	0.342251	0.008066
1595	7.9700e-01	-16.2782	-123.898806	0.000556	5.555880	1.882383	0.044364
1596	7.9750e-01	-16.2316	-123.624555	0.000687	6.869088	2.327310	0.054850
1597	7.9800e-01	-16.1979	-123.660853	-0.000091	-0.909144	-0.308026	-0.007260
1598	7.9850e-01	-16.1402	-123.499529	0.000404	4.040640	1.369006	0.032265
1599	7.9900e-01	-16.1081	-123.116384	0.000960	9.596520	3.251389	0.076629
1600	7.9950e-01	-16.0760	-123.007491	0.000273	2.727432	0.924079	0.021779
1601	8.0000e-01	-16.0359	-122.826001	0.000455	4.545720	1.540132	0.036298
1602	8.0050e-01	-15.9910	-122.741306	0.000212	2.121336	0.718728	0.016939
1603	8.0100e-01	-15.9461	-122.503353	0.000596	5.959944	2.019284	0.047591
1604	8.0150e-01	-15.8947	-122.346063	0.000394	3.939624	1.334781	0.031458
1605	8.0200e-01	-15.8723	-121.987117	0.000899	8.990424	3.046038	0.071789
1606	8.0250e-01	-15.8258	-121.882256	0.000263	2.626416	0.889854	0.020972
1607	8.0300e-01	-15.7824	-121.813694	0.000172	1.717272	0.581828	0.013713
1608	8.0350e-01	-15.7584	-121.370053	0.001111	11.111760	3.764766	0.088728
1609	8.0400e-01	-15.7135	-121.305523	0.000162	1.616256	0.547602	0.012906
1610	8.0450e-01	-15.6653	-121.071603	0.000586	5.858928	1.985059	0.046784
1611	8.0500e-01	-15.6332	-120.821551	0.000626	6.262992	2.121959	0.050010
1612	8.0550e-01	-15.5867	-120.615863	0.000515	5.151816	1.745483	0.041138
1613	8.0600e-01	-15.5514	-120.579565	0.000091	0.909144	0.308026	0.007260
1614	8.0650e-01	-15.5065	-120.325480	0.000636	6.364008	2.156184	0.050817
1615	8.0700e-01	-15.4712	-120.047196	0.000697	6.970104	2.361535	0.055657
1616	8.0750e-01	-15.4231	-119.994766	0.000131	1.313208	0.444927	0.010486
1617	8.0800e-01	-15.3894	-119.680184	0.000788	7.879248	2.669562	0.062916
1618	8.0850e-01	-15.3477	-119.438199	0.000606	6.060960	2.053509	0.048397
1619	8.0900e-01	-15.3220	-119.422066	0.000040	0.404064	0.136901	0.003226
1620	8.0950e-01	-15.2659	-119.155882	0.000667	6.667056	2.258860	0.053237
1621	8.1000e-01	-15.2258	-118.974392	0.000455	4.545720	1.540132	0.036298
1622	8.1050e-01	-15.1873	-118.849366	0.000313	3.131496	1.060980	0.025005
1623	8.1100e-01	-15.1456	-118.571082	0.000697	6.970104	2.361535	0.055657
1624	8.1150e-01	-15.1103	-118.482354	0.000222	2.222352	0.752953	0.017746
1625	8.1200e-01	-15.0637	-118.280699	0.000505	5.050800	1.711257	0.040331
1626	8.1250e-01	-15.0252	-117.897555	0.000960	9.596520	3.251389	0.076629
1627	8.1300e-01	-14.9996	-117.486179	0.001030	10.303632	3.490965	0.082275
1628	8.1350e-01	-14.9466	-117.490212	-0.000010	-0.101016	-0.034225	-0.000807
1629	8.1400e-01	-14.9017	-117.498278	-0.000020	-0.202032	-0.068450	-0.001613
1630	8.1450e-01	-14.8712	-117.300656	0.000495	4.949784	1.677032	0.039524
1631	8.1500e-01	-14.8343	-117.115134	0.000465	4.646736	1.574357	0.037105
1632	8.1550e-01	-14.7798	-116.796519	0.000798	7.980264	2.703787	0.063723
1633	8.1600e-01	-14.7509	-116.744089	0.000131	1.313208	0.444927	0.010486
1634	8.1650e-01	-14.7076	-116.167356	0.001445	14.445288	4.894196	0.115347
1635	8.1700e-01	-14.6659	-116.090727	0.000192	1.919304	0.650278	0.015326
1636	8.1750e-01	-14.6306	-115.969734	0.000303	3.030480	1.026754	0.024199
1637	8.1800e-01	-14.5889	-115.808410	0.000404	4.040640	1.369006	0.032265
1638	8.1850e-01	-14.5552	-115.578523	0.000576	5.757912	1.950833	0.045977
1639	8.1900e-01	-14.5071	-115.340570	0.000596	5.959944	2.019284	0.047591
1640	8.1950e-01	-14.4702	-115.167147	0.000434	4.343688	1.471681	0.034685
1641	8.2000e-01	-14.4365	-114.888863	0.000697	6.970104	2.361535	0.055657
1642	8.2050e-01	-14.3900	-114.767870	0.000303	3.030480	1.026754	0.024199
1643	8.2100e-01	-14.3531	-114.421024	0.000869	8.687376	2.943363	0.069369
1644	8.2150e-01	-14.3130	-114.356494	0.000162	1.616256	0.547602	0.012906
1645	8.2200e-01	-14.2713	-114.219369	0.000343	3.434544	1.163655	0.027425
1646	8.2250e-01	-14.2279	-113.981416	0.000596	5.959944	2.019284	0.047591
1647	8.2300e-01	-14.1910	-113.856390	0.000313	3.131496	1.060980	0.025005
1648	8.2350e-01	-14.1509	-113.549875	0.000768	7.677216	2.601111	0.061303
1649	8.2400e-01	-14.1108	-113.408716	0.000354	3.535560	1.197880	0.028232
1650	8.2450e-01	-14.0675	-113.231260	0.000444	4.444704	1.505907	0.035491
1651	8.2500e-01	-14.0274	-113.069936	0.000404	4.040640	1.369006	0.032265
1652	8.2550e-01	-13.9905	-112.831983	0.000596	5.959944	2.019284	0.047591
1653	8.2600e-01	-13.9616	-112.327846	0.001263	12.627000	4.278144	0.100827
1654	8.2650e-01	-13.9119	-112.182654	0.000364	3.636576	1.232105	0.029038
1655	8.2700e-01	-13.8718	-112.146356	0.000091	0.909144	0.308026	0.007260
1656	8.2750e-01	-13.8365	-111.920503	0.000566	5.656896	1.916608	0.045171
1657	8.2800e-01	-13.7836	-111.710782	0.000525	5.252832	1.779708	0.041944
1658	8.2850e-01	-13.7370	-111.521226	0.000475	4.747752	1.608582	0.037911
1659	8.2900e-01	-13.7146	-111.287306	0.000586	5.858928	1.985059	0.046784
1660	8.2950e-01	-13.6793	-111.105817	0.000455	4.545720	1.540132	0.036298
1661	8.3000e-01	-13.6344	-110.758970	0.000869	8.687376	2.943363	0.069369
1662	8.3050e-01	-13.5862	-110.533117	0.000566	5.656896	1.916608	0.045171
1663	8.3100e-01	-13.5494	-110.525051	0.000020	0.202032	0.068450	0.001613
1664	8.3150e-01	-13.5125	-110.194337	0.000828	8.283312	2.806462	0.066143
1665	8.3200e-01	-13.4740	-110.053178	0.000354	3.535560	1.197880	0.028232
1666	8.3250e-01	-13.4258	-109.956384	0.000242	2.424384	0.821404	0.019359
1667	8.3300e-01	-13.3921	-109.649868	0.000768	7.677216	2.601111	0.061303
1668	8.3350e-01	-13.3456	-109.528875	0.000303	3.030480	1.026754	0.024199
1669	8.3400e-01	-13.3023	-109.113466	0.001040	10.404648	3.525190	0.083082
1670	8.3450e-01	-13.2670	-108.847282	0.000667	6.667056	2.258860	0.053237
1671	8.3500e-01	-13.2301	-108.798884	0.000121	1.212192	0.410702	0.009679
1672	8.3550e-01	-13.1900	-108.633527	0.000414	4.141656	1.403231	0.033071
1673	8.3600e-01	-13.1355	-108.512534	0.000303	3.030480	1.026754	0.024199
1674	8.3650e-01	-13.1034	-108.161655	0.000879	8.788392	2.977588	0.070176
1675	8.3700e-01	-13.0681	-108.048728	0.000283	2.828448	0.958304	0.022585
1676	8.3750e-01	-13.0328	-107.653484	0.000990	9.899568	3.354065	0.079049
1677	8.3800e-01	-12.9879	-107.536525	0.000293	2.929464	0.992529	0.023392
1678	8.3850e-01	-12.9446	-107.298572	0.000596	5.959944	2.019284	0.047591
1679	8.3900e-01	-12.9028	-106.850898	0.001121	11.212776	3.798991	0.089535
1680	8.3950e-01	-12.8659	-106.891229	-0.000101	-1.010160	-0.342251	-0.008066
1681	8.4000e-01	-12.8371	-106.746037	0.000364	3.636576	1.232105	0.029038
1682	8.4050e-01	-12.7793	-106.544382	0.000505	5.050800	1.711257	0.040331
1683	8.4100e-01	-12.7504	-106.395158	0.000374	3.737592	1.266330	0.029845
1684	8.4150e-01	-12.7151	-106.262065	0.000333	3.333528	1.129430	0.026618
1685	8.4200e-01	-12.6718	-106.149139	0.000283	2.828448	0.958304	0.022585
1686	8.4250e-01	-12.6285	-105.645001	0.001263	12.627000	4.278144	0.100827
1687	8.4300e-01	-12.5916	-105.415115	0.000576	5.757912	1.950833	0.045977
1688	8.4350e-01	-12.5515	-105.249758	0.000414	4.141656	1.403231	0.033071
1689	8.4400e-01	-12.5018	-105.023904	0.000566	5.656896	1.916608	0.045171
1690	8.4450e-01	-12.4665	-104.785951	0.000596	5.959944	2.019284	0.047591
1691	8.4500e-01	-12.4360	-104.636727	0.000374	3.737592	1.266330	0.029845
1692	8.4550e-01	-12.3847	-104.225351	0.001030	10.303632	3.490965	0.082275
1693	8.4600e-01	-12.3446	-104.209218	0.000040	0.404064	0.136901	0.003226
1694	8.4650e-01	-12.3061	-103.870438	0.000849	8.485344	2.874912	0.067756
1695	8.4700e-01	-12.2756	-103.757511	0.000283	2.828448	0.958304	0.022585
1696	8.4750e-01	-12.2339	-103.410665	0.000869	8.687376	2.943363	0.069369
1697	8.4800e-01	-12.1970	-103.225142	0.000465	4.646736	1.574357	0.037105
1698	8.4850e-01	-12.1440	-102.898461	0.000818	8.182296	2.772237	0.065336
1699	8.4900e-01	-12.1039	-102.801667	0.000242	2.424384	0.821404	0.019359
1700	8.4950e-01	-12.0606	-102.636310	0.000414	4.141656	1.403231	0.033071
1701	8.5000e-01	-12.0301	-102.277364	0.000899	8.990424	3.046038	0.071789
1702	8.5050e-01	-11.9820	-102.144272	0.000333	3.333528	1.129430	0.026618
1703	8.5100e-01	-11.9531	-101.769194	0.000939	9.394488	3.182939	0.075016
1704	8.5150e-01	-11.9002	-101.652234	0.000293	2.929464	0.992529	0.023392
1705	8.5200e-01	-11.8761	-101.587704	0.000162	1.616256	0.547602	0.012906
1706	8.5250e-01	-11.8216	-101.236825	0.000879	8.788392	2.977588	0.070176
1707	8.5300e-01	-11.7847	-101.099699	0.000343	3.434544	1.163655	0.027425
1708	8.5350e-01	-11.7430	-100.825449	0.000687	6.869088	2.327310	0.054850
1709	8.5400e-01	-11.7093	-100.385841	0.001101	11.010744	3.730541	0.087922
1710	8.5450e-01	-11.6708	-100.188219	0.000495	4.949784	1.677032	0.039524
1711	8.5500e-01	-11.6211	-100.143855	0.000111	1.111176	0.376477	0.008873
1712	8.5550e-01	-11.5938	-99.954299	0.000475	4.747752	1.608582	0.037911
1713	8.5600e-01	-11.5376	-99.857505	0.000242	2.424384	0.821404	0.019359
1714	8.5650e-01	-11.5040	-99.643751	0.000535	5.353848	1.813933	0.042751
1715	8.5700e-01	-11.4671	-99.349334	0.000737	7.374168	2.498436	0.058883
1716	8.5750e-01	-11.4318	-99.050885	0.000748	7.475184	2.532661	0.059690
1717	8.5800e-01	-11.3788	-98.820999	0.000576	5.757912	1.950833	0.045977
1718	8.5850e-01	-11.3419	-98.474152	0.000869	8.687376	2.943363	0.069369
1719	8.5900e-01	-11.3098	-98.369291	0.000263	2.626416	0.889854	0.020972
1720	8.5950e-01	-11.2697	-98.300729	0.000172	1.717272	0.581828	0.013713
1721	8.6000e-01	-11.2312	-98.034544	0.000667	6.667056	2.258860	0.053237
1722	8.6050e-01	-11.1927	-97.635268	0.001000	10.000584	3.388290	0.079855
1723	8.6100e-01	-11.1623	-97.594937	0.000101	1.010160	0.342251	0.008066
1724	8.6150e-01	-11.1029	-97.163395	0.001081	10.808712	3.662091	0.086308
1725	8.6200e-01	-11.0692	-97.030303	0.000333	3.333528	1.129430	0.026618
1726	8.6250e-01	-11.0259	-96.989972	0.000101	1.010160	0.342251	0.008066
1727	8.6300e-01	-10.9810	-96.518099	0.001182	11.818872	4.004342	0.094375
1728	8.6350e-01	-10.9409	-96.195451	0.000808	8.081280	2.738012	0.064530
1729	8.6400e-01	-10.9072	-96.138988	0.000141	1.414224	0.479152	0.011293
1730	8.6450e-01	-10.8735	-95.884903	0.000636	6.364008	2.156184	0.050817
1731	8.6500e-01	-10.8254	-95.703413	0.000455	4.545720	1.540132	0.036298
1732	8.6550e-01	-10.7965	-95.429163	0.000687	6.869088	2.327310	0.054850
1733	8.6600e-01	-10.7500	-95.227508	0.000505	5.050800	1.711257	0.040331
1734	8.6650e-01	-10.7083	-94.961323	0.000667	6.667056	2.258860	0.053237
1735	8.6700e-01	-10.6778	-94.646741	0.000788	7.879248	2.669562	0.062916
1736	8.6750e-01	-10.6232	-94.477351	0.000424	4.242672	1.437456	0.033878
1737	8.6800e-01	-10.5863	-94.267630	0.000525	5.252832	1.779708	0.041944
1738	8.6850e-01	-10.5542	-93.900618	0.000919	9.192456	3.114488	0.073402
1739	8.6900e-01	-10.5045	-93.936916	-0.000091	-0.909144	-0.308026	-0.007260
1740	8.6950e-01	-10.4692	-93.489242	0.001121	11.212776	3.798991	0.089535
1741	8.7000e-01	-10.4275	-93.372282	0.000293	2.929464	0.992529	0.023392
1742	8.7050e-01	-10.3922	-93.033502	0.000849	8.485344	2.874912	0.067756
1743	8.7100e-01	-10.3425	-92.630192	0.001010	10.101600	3.422515	0.080662
1744	8.7150e-01	-10.3120	-92.605994	0.000061	0.606096	0.205351	0.004840
1745	8.7200e-01	-10.2687	-92.476934	0.000323	3.232512	1.095205	0.025812
1746	8.7250e-01	-10.2238	-92.230915	0.000616	6.161976	2.087734	0.049204
1747	8.7300e-01	-10.1965	-91.928433	0.000758	7.576200	2.566886	0.060496
1748	8.7350e-01	-10.1500	-91.601752	0.000818	8.182296	2.772237	0.065336
1749	8.7400e-01	-10.1147	-91.545289	0.000141	1.414224	0.479152	0.011293
1750	8.7450e-01	-10.0617	-91.275071	0.000677	6.768072	2.293085	0.054044
1751	8.7500e-01	-10.0265	-91.061317	0.000535	5.353848	1.813933	0.042751
1752	8.7550e-01	-9.9960	-90.831430	0.000576	5.757912	1.950833	0.045977
1753	8.7600e-01	-9.9495	-90.577345	0.000636	6.364008	2.156184	0.050817
1754	8.7650e-01	-9.9126	-90.286962	0.000727	7.273152	2.464211	0.058077
1755	8.7700e-01	-9.8757	-90.040943	0.000616	6.161976	2.087734	0.049204
1756	8.7750e-01	-9.8243	-89.867520	0.000434	4.343688	1.471681	0.034685
1757	8.7800e-01	-9.7858	-89.790891	0.000192	1.919304	0.650278	0.015326
1758	8.7850e-01	-9.7409	-89.435978	0.000889	8.889408	3.011813	0.070983
1759	8.7900e-01	-9.7008	-89.149628	0.000717	7.172136	2.429986	0.057270
1760	8.7950e-01	-9.6671	-88.956039	0.000485	4.848768	1.642807	0.038718
1761	8.8000e-01	-9.6206	-88.705987	0.000626	6.262992	2.121959	0.050010
1762	8.8050e-01	-9.5885	-88.411571	0.000737	7.374168	2.498436	0.058883
1763	8.8100e-01	-9.5468	-88.201850	0.000525	5.252832	1.779708	0.041944
1764	8.8150e-01	-9.5051	-87.867103	0.000838	8.384328	2.840687	0.066949
1765	8.8200e-01	-9.4650	-87.556554	0.000778	7.778232	2.635336	0.062110
1766	8.8250e-01	-9.4233	-87.306502	0.000626	6.262992	2.121959	0.050010
1767	8.8300e-01	-9.3960	-87.044351	0.000657	6.566040	2.224635	0.052430
1768	8.8350e-01	-9.3463	-87.072582	-0.000071	-0.707112	-0.239576	-0.005646
1769	8.8400e-01	-9.3142	-86.632975	0.001101	11.010744	3.730541	0.087922
1770	8.8450e-01	-9.2693	-86.447452	0.000465	4.646736	1.574357	0.037105
1771	8.8500e-01	-9.2340	-86.177234	0.000677	6.768072	2.293085	0.054044
1772	8.8550e-01	-9.1923	-85.818289	0.000899	8.990424	3.046038	0.071789
1773	8.8600e-01	-9.1554	-85.689229	0.000323	3.232512	1.095205	0.025812
1774	8.8650e-01	-9.1104	-85.406913	0.000707	7.071120	2.395760	0.056463
1775	8.8700e-01	-9.0639	-85.092331	0.000788	7.879248	2.669562	0.062916
1776	8.8750e-01	-9.0254	-85.039901	0.000131	1.313208	0.444927	0.010486
1777	8.8800e-01	-8.9885	-84.838246	0.000505	5.050800	1.711257	0.040331
1778	8.8850e-01	-8.9388	-84.559962	0.000697	6.970104	2.361535	0.055657
1779	8.8900e-01	-8.9099	-84.362340	0.000495	4.949784	1.677032	0.039524
1780	8.8950e-01	-8.8586	-83.975163	0.000970	9.697536	3.285614	0.077435
1781	8.9000e-01	-8.8281	-83.608151	0.000919	9.192456	3.114488	0.073402
1782	8.9050e-01	-8.7880	-83.374231	0.000586	5.858928	1.985059	0.046784
1783	8.9100e-01	-8.7431	-83.241139	0.000333	3.333528	1.129430	0.026618
1784	8.9150e-01	-8.6982	-83.027384	0.000535	5.353848	1.813933	0.042751
1785	8.9200e-01	-8.6693	-82.966888	0.000152	1.515240	0.513377	0.012099
1786	8.9250e-01	-8.6276	-82.591810	0.000939	9.394488	3.182939	0.075016
1787	8.9300e-01	-8.5859	-82.204632	0.000970	9.697536	3.285614	0.077435
1788	8.9350e-01	-8.5506	-81.962646	0.000606	6.060960	2.053509	0.048397
1789	8.9400e-01	-8.5137	-81.809389	0.000384	3.838608	1.300556	0.030652
1790	8.9450e-01	-8.4687	-81.498840	0.000778	7.778232	2.635336	0.062110
1791	8.9500e-01	-8.4270	-81.438344	0.000152	1.515240	0.513377	0.012099
1792	8.9550e-01	-8.3885	-80.897908	0.001354	13.536144	4.586170	0.108087
1793	8.9600e-01	-8.3500	-80.760783	0.000343	3.434544	1.163655	0.027425
1794	8.9650e-01	-8.3035	-80.470400	0.000727	7.273152	2.464211	0.058077
1795	8.9700e-01	-8.2650	-80.409903	0.000152	1.515240	0.513377	0.012099
1796	8.9750e-01	-8.2297	-80.034825	0.000939	9.394488	3.182939	0.075016
1797	8.9800e-01	-8.1896	-79.655714	0.000950	9.495504	3.217164	0.075822
1798	8.9850e-01	-8.1479	-79.284669	0.000929	9.293472	3.148714	0.074209
1799	8.9900e-01	-8.1158	-78.998319	0.000717	7.172136	2.429986	0.057270
1800	8.9950e-01	-8.0661	-78.905558	0.000232	2.323368	0.787178	0.018552
1801	9.0000e-01	-8.0436	-78.437718	0.001172	11.717856	3.970117	0.093568
1802	9.0050e-01	-7.9971	-78.320758	0.000293	2.929464	0.992529	0.023392
1803	9.0100e-01	-7.9442	-78.139269	0.000455	4.545720	1.540132	0.036298
1804	9.0150e-01	-7.9089	-77.957779	0.000455	4.545720	1.540132	0.036298
1805	9.0200e-01	-7.8623	-77.647231	0.000778	7.778232	2.635336	0.062110
1806	9.0250e-01	-7.8271	-77.502039	0.000364	3.636576	1.232105	0.029038
1807	9.0300e-01	-7.7837	-77.050332	0.001131	11.313792	3.833217	0.090341
1808	9.0350e-01	-7.7484	-76.768015	0.000707	7.071120	2.395760	0.056463
1809	9.0400e-01	-7.7164	-76.610724	0.000394	3.939624	1.334781	0.031458
1810	9.0450e-01	-7.6682	-76.320341	0.000727	7.273152	2.464211	0.058077
1811	9.0500e-01	-7.6249	-76.183216	0.000343	3.434544	1.163655	0.027425
1812	9.0550e-01	-7.5832	-75.925098	0.000647	6.465024	2.190409	0.051624
1813	9.0600e-01	-7.5415	-75.545986	0.000950	9.495504	3.217164	0.075822
1814	9.0650e-01	-7.5078	-75.328199	0.000545	5.454864	1.848158	0.043557
1815	9.0700e-01	-7.4629	-75.166875	0.000404	4.040640	1.369006	0.032265
1816	9.0750e-01	-7.4292	-74.755499	0.001030	10.303632	3.490965	0.082275
1817	9.0800e-01	-7.3859	-74.545778	0.000525	5.252832	1.779708	0.041944
1818	9.0850e-01	-7.3458	-74.303792	0.000606	6.060960	2.053509	0.048397
1819	9.0900e-01	-7.3169	-74.154567	0.000374	3.737592	1.266330	0.029845
1820	9.0950e-01	-7.2656	-73.771423	0.000960	9.596520	3.251389	0.076629
1821	9.1000e-01	-7.2255	-73.493139	0.000697	6.970104	2.361535	0.055657
1822	9.1050e-01	-7.1838	-73.307617	0.000465	4.646736	1.574357	0.037105
1823	9.1100e-01	-7.1469	-72.960770	0.000869	8.687376	2.943363	0.069369
1824	9.1150e-01	-7.1100	-72.613924	0.000869	8.687376	2.943363	0.069369
1825	9.1200e-01	-7.0731	-72.371938	0.000606	6.060960	2.053509	0.048397
1826	9.1250e-01	-7.0249	-72.210614	0.000404	4.040640	1.369006	0.032265
1827	9.1300e-01	-6.9816	-71.912165	0.000748	7.475184	2.532661	0.059690
1828	9.1350e-01	-6.9479	-71.480623	0.001081	10.808712	3.662091	0.086308
1829	9.1400e-01	-6.9110	-71.303167	0.000444	4.444704	1.505907	0.035491
1830	9.1450e-01	-6.8661	-70.879691	0.001061	10.606680	3.593641	0.084695
1831	9.1500e-01	-6.8324	-70.597374	0.000707	7.071120	2.395760	0.056463
1832	9.1550e-01	-6.7811	-70.387653	0.000525	5.252832	1.779708	0.041944
1833	9.1600e-01	-6.7554	-70.060972	0.000818	8.182296	2.772237	0.065336
1834	9.1650e-01	-6.7057	-69.810920	0.000626	6.262992	2.121959	0.050010
1835	9.1700e-01	-6.6640	-69.847218	-0.000091	-0.909144	-0.308026	-0.007260
1836	9.1750e-01	-6.6223	-69.516504	0.000828	8.283312	2.806462	0.066143
1837	9.1800e-01	-6.5950	-69.258386	0.000647	6.465024	2.190409	0.051624
1838	9.1850e-01	-6.5437	-68.867175	0.000980	9.798552	3.319839	0.078242
1839	9.1900e-01	-6.5100	-68.810712	0.000141	1.414224	0.479152	0.011293
1840	9.1950e-01	-6.4795	-68.133151	0.001697	16.970688	5.749825	0.135512
1841	9.2000e-01	-6.4169	-68.100886	0.000081	0.808128	0.273801	0.006453
1842	9.2050e-01	-6.3913	-67.758073	0.000859	8.586360	2.909138	0.068563
1843	9.2100e-01	-6.3544	-67.447524	0.000778	7.778232	2.635336	0.062110
1844	9.2150e-01	-6.3111	-67.217638	0.000576	5.757912	1.950833	0.045977
1845	9.2200e-01	-6.2645	-67.100678	0.000293	2.929464	0.992529	0.023392
1846	9.2250e-01	-6.2308	-66.741732	0.000899	8.990424	3.046038	0.071789
1847	9.2300e-01	-6.1939	-66.471515	0.000677	6.768072	2.293085	0.054044
1848	9.2350e-01	-6.1474	-66.294058	0.000444	4.444704	1.505907	0.035491
1849	9.2400e-01	-6.1153	-66.007708	0.000717	7.172136	2.429986	0.057270
1850	9.2450e-01	-6.0608	-65.685060	0.000808	8.081280	2.738012	0.064530
1851	9.2500e-01	-6.0255	-65.285784	0.001000	10.000584	3.388290	0.079855
1852	9.2550e-01	-5.9934	-65.011533	0.000687	6.869088	2.327310	0.054850
1853	9.2600e-01	-5.9597	-64.890540	0.000303	3.030480	1.026754	0.024199
1854	9.2650e-01	-5.9180	-64.426734	0.001162	11.616840	3.935892	0.092761
1855	9.2700e-01	-5.8715	-64.229112	0.000495	4.949784	1.677032	0.039524
1856	9.2750e-01	-5.8298	-64.007291	0.000556	5.555880	1.882383	0.044364
1857	9.2800e-01	-5.7897	-63.664478	0.000859	8.586360	2.909138	0.068563
1858	9.2850e-01	-5.7560	-63.184539	0.001202	12.020904	4.072793	0.095988
1859	9.2900e-01	-5.7159	-63.035315	0.000374	3.737592	1.266330	0.029845
1860	9.2950e-01	-5.6742	-62.966752	0.000172	1.717272	0.581828	0.013713
1861	9.3000e-01	-5.6276	-62.369853	0.001495	14.950368	5.065322	0.119380
1862	9.3050e-01	-5.5972	-62.410184	-0.000101	-1.010160	-0.342251	-0.008066
1863	9.3100e-01	-5.5410	-62.160132	0.000626	6.262992	2.121959	0.050010
1864	9.3150e-01	-5.5089	-61.639862	0.001303	13.031064	4.415044	0.104054
1865	9.3200e-01	-5.4785	-61.353512	0.000717	7.172136	2.429986	0.057270
1866	9.3250e-01	-5.4255	-61.184122	0.000424	4.242672	1.437456	0.033878
1867	9.3300e-01	-5.3934	-60.934070	0.000626	6.262992	2.121959	0.050010
1868	9.3350e-01	-5.3453	-60.546893	0.000970	9.697536	3.285614	0.077435
1869	9.3400e-01	-5.3004	-60.232311	0.000788	7.879248	2.669562	0.062916
1870	9.3450e-01	-5.2699	-60.018557	0.000535	5.353848	1.813933	0.042751
1871	9.3500e-01	-5.2330	-59.599115	0.001051	10.505664	3.559415	0.083888
1872	9.3550e-01	-5.1929	-59.336963	0.000657	6.566040	2.224635	0.052430
1873	9.3600e-01	-5.1512	-59.026415	0.000778	7.778232	2.635336	0.062110
1874	9.3650e-01	-5.1047	-58.921554	0.000263	2.626416	0.889854	0.020972
1875	9.3700e-01	-5.0630	-58.574708	0.000869	8.687376	2.943363	0.069369
1876	9.3750e-01	-5.0373	-58.086703	0.001222	12.222936	4.141243	0.097601
1877	9.3800e-01	-4.9844	-57.953610	0.000333	3.333528	1.129430	0.026618
1878	9.3850e-01	-4.9458	-57.570466	0.000960	9.596520	3.251389	0.076629
1879	9.3900e-01	-4.9138	-57.243785	0.000818	8.182296	2.772237	0.065336
1880	9.3950e-01	-4.8721	-56.909038	0.000838	8.384328	2.840687	0.066949
1881	9.4000e-01	-4.8352	-56.570258	0.000849	8.485344	2.874912	0.067756
1882	9.4050e-01	-4.7934	-56.461364	0.000273	2.727432	0.924079	0.021779
1883	9.4100e-01	-4.7533	-56.227444	0.000586	5.858928	1.985059	0.046784
1884	9.4150e-01	-4.7116	-55.775737	0.001131	11.313792	3.833217	0.090341
1885	9.4200e-01	-4.6683	-55.461155	0.000788	7.879248	2.669562	0.062916
1886	9.4250e-01	-4.6410	-55.170772	0.000727	7.273152	2.464211	0.058077
1887	9.4300e-01	-4.5913	-54.807793	0.000909	9.091440	3.080263	0.072596
1888	9.4350e-01	-4.5464	-54.553708	0.000636	6.364008	2.156184	0.050817
1889	9.4400e-01	-4.5127	-54.114100	0.001101	11.010744	3.730541	0.087922
1890	9.4450e-01	-4.4630	-53.928578	0.000465	4.646736	1.574357	0.037105
1891	9.4500e-01	-4.4341	-53.775320	0.000384	3.838608	1.300556	0.030652
1892	9.4550e-01	-4.3972	-53.497036	0.000697	6.970104	2.361535	0.055657
1893	9.4600e-01	-4.3475	-53.057429	0.001101	11.010744	3.730541	0.087922
1894	9.4650e-01	-4.3074	-52.851741	0.000515	5.151816	1.745483	0.041138
1895	9.4700e-01	-4.2641	-52.492795	0.000899	8.990424	3.046038	0.071789
1896	9.4750e-01	-4.2384	-52.041088	0.001131	11.313792	3.833217	0.090341
1897	9.4800e-01	-4.1854	-51.726506	0.000788	7.879248	2.669562	0.062916
1898	9.4850e-01	-4.1357	-51.553083	0.000434	4.343688	1.471681	0.034685
1899	9.4900e-01	-4.1116	-51.206236	0.000869	8.687376	2.943363	0.069369
1900	9.4950e-01	-4.0764	-50.936019	0.000677	6.768072	2.293085	0.054044
1901	9.5000e-01	-4.0234	-50.633536	0.000758	7.576200	2.566886	0.060496
1902	9.5050e-01	-3.9929	-50.306855	0.000818	8.182296	2.772237	0.065336
1903	9.5100e-01	-3.9400	-50.101167	0.000515	5.151816	1.745483	0.041138
1904	9.5150e-01	-3.8999	-49.766420	0.000838	8.384328	2.840687	0.066949
1905	9.5200e-01	-3.8678	-49.282448	0.001212	12.121920	4.107018	0.096794
1906	9.5250e-01	-3.8197	-49.064661	0.000545	5.454864	1.848158	0.043557
1907	9.5300e-01	-3.7844	-48.693616	0.000929	9.293472	3.148714	0.074209
1908	9.5350e-01	-3.7491	-48.560524	0.000333	3.333528	1.129430	0.026618
1909	9.5400e-01	-3.7090	-48.137048	0.001061	10.606680	3.593641	0.084695
1910	9.5450e-01	-3.6625	-47.737772	0.001000	10.000584	3.388290	0.079855
1911	9.5500e-01	-3.6224	-47.544183	0.000485	4.848768	1.642807	0.038718
1912	9.5550e-01	-3.5823	-47.290098	0.000636	6.364008	2.156184	0.050817
1913	9.5600e-01	-3.5502	-47.027946	0.000657	6.566040	2.224635	0.052430
1914	9.5650e-01	-3.5117	-46.640769	0.000970	9.697536	3.285614	0.077435
1915	9.5700e-01	-3.4732	-46.390717	0.000626	6.262992	2.121959	0.050010
1916	9.5750e-01	-3.4218	-46.035804	0.000889	8.889408	3.011813	0.070983
1917	9.5800e-01	-3.3946	-45.503435	0.001333	13.334112	4.517720	0.106474
1918	9.5850e-01	-3.3496	-45.265482	0.000596	5.959944	2.019284	0.047591
1919	9.5900e-01	-3.3095	-44.801676	0.001162	11.616840	3.935892	0.092761
1920	9.5950e-01	-3.2694	-44.934768	-0.000333	-3.333528	-1.129430	-0.026618
1921	9.6000e-01	-3.2325	-44.301572	0.001586	15.859512	5.373348	0.126639
1922	9.6050e-01	-3.1876	-44.120082	0.000455	4.545720	1.540132	0.036298
1923	9.6100e-01	-3.1443	-43.773236	0.000869	8.687376	2.943363	0.069369
1924	9.6150e-01	-3.1154	-43.144072	0.001576	15.758496	5.339123	0.125833
1925	9.6200e-01	-3.0689	-43.006947	0.000343	3.434544	1.163655	0.027425
1926	9.6250e-01	-3.0256	-42.825458	0.000455	4.545720	1.540132	0.036298
1927	9.6300e-01	-2.9791	-42.430214	0.000990	9.899568	3.354065	0.079049
1928	9.6350e-01	-2.9438	-42.119665	0.000778	7.778232	2.635336	0.062110
1929	9.6400e-01	-2.9149	-41.748620	0.000929	9.293472	3.148714	0.074209
1930	9.6450e-01	-2.8684	-41.470336	0.000697	6.970104	2.361535	0.055657
1931	9.6500e-01	-2.8299	-41.135589	0.000838	8.384328	2.840687	0.066949
1932	9.6550e-01	-2.7849	-40.796809	0.000849	8.485344	2.874912	0.067756
1933	9.6600e-01	-2.7593	-40.385433	0.001030	10.303632	3.490965	0.082275
1934	9.6650e-01	-2.7128	-40.022454	0.000909	9.091440	3.080263	0.072596
1935	9.6700e-01	-2.6775	-39.748203	0.000687	6.869088	2.327310	0.054850
1936	9.6750e-01	-2.6309	-39.365059	0.000960	9.596520	3.251389	0.076629
1937	9.6800e-01	-2.6005	-38.969815	0.000990	9.899568	3.354065	0.079049
1938	9.6850e-01	-2.5475	-38.570538	0.001000	10.000584	3.388290	0.079855
1939	9.6900e-01	-2.5042	-38.409215	0.000404	4.040640	1.369006	0.032265
1940	9.6950e-01	-2.4753	-38.126898	0.000707	7.071120	2.395760	0.056463
1941	9.7000e-01	-2.4224	-37.683257	0.001111	11.111760	3.764766	0.088728
1942	9.7050e-01	-2.3887	-37.283980	0.001000	10.000584	3.388290	0.079855
1943	9.7100e-01	-2.3486	-36.904869	0.000950	9.495504	3.217164	0.075822
1944	9.7150e-01	-2.3053	-36.582221	0.000808	8.081280	2.738012	0.064530
1945	9.7200e-01	-2.2668	-36.191010	0.000980	9.798552	3.319839	0.078242
1946	9.7250e-01	-2.2235	-35.908693	0.000707	7.071120	2.395760	0.056463
1947	9.7300e-01	-2.1866	-35.364225	0.001364	13.637160	4.620395	0.108894
1948	9.7350e-01	-2.1449	-35.081908	0.000707	7.071120	2.395760	0.056463
1949	9.7400e-01	-2.1096	-34.618102	0.001162	11.616840	3.935892	0.092761
1950	9.7450e-01	-2.0711	-34.472910	0.000364	3.636576	1.232105	0.029038
1951	9.7500e-01	-2.0245	-34.190593	0.000707	7.071120	2.395760	0.056463
1952	9.7550e-01	-1.9876	-33.787284	0.001010	10.101600	3.422515	0.080662
1953	9.7600e-01	-1.9524	-33.319444	0.001172	11.717856	3.970117	0.093568
1954	9.7650e-01	-1.9138	-33.008896	0.000778	7.778232	2.635336	0.062110
1955	9.7700e-01	-1.8689	-32.823373	0.000465	4.646736	1.574357	0.037105
1956	9.7750e-01	-1.8272	-32.262772	0.001404	14.041224	4.757296	0.112120
1957	9.7800e-01	-1.7839	-31.867529	0.000990	9.899568	3.354065	0.079049
1958	9.7850e-01	-1.7502	-31.440020	0.001071	10.707696	3.627866	0.085502
1959	9.7900e-01	-1.7149	-31.222233	0.000545	5.454864	1.848158	0.043557
1960	9.7950e-01	-1.6700	-30.843122	0.000950	9.495504	3.217164	0.075822
1961	9.8000e-01	-1.6267	-30.431746	0.001030	10.303632	3.490965	0.082275
1962	9.8050e-01	-1.5866	-30.169594	0.000657	6.566040	2.224635	0.052430
1963	9.8100e-01	-1.5497	-29.782417	0.000970	9.697536	3.285614	0.077435
1964	9.8150e-01	-1.5096	-29.306511	0.001192	11.919888	4.038567	0.095181
1965	9.8200e-01	-1.4743	-29.048393	0.000647	6.465024	2.190409	0.051624
1966	9.8250e-01	-1.4310	-28.576520	0.001182	11.818872	4.004342	0.094375
1967	9.8300e-01	-1.3861	-28.338567	0.000596	5.959944	2.019284	0.047591
1968	9.8350e-01	-1.3588	-27.786033	0.001384	13.839192	4.688845	0.110507
1969	9.8400e-01	-1.3058	-27.423054	0.000909	9.091440	3.080263	0.072596
1970	9.8450e-01	-1.2673	-27.076207	0.000869	8.687376	2.943363	0.069369
1971	9.8500e-01	-1.2224	-26.717262	0.000899	8.990424	3.046038	0.071789
1972	9.8550e-01	-1.1919	-26.402680	0.000788	7.879248	2.669562	0.062916
1973	9.8600e-01	-1.1454	-25.987271	0.001040	10.404648	3.525190	0.083082
1974	9.8650e-01	-1.1053	-25.547663	0.001101	11.010744	3.730541	0.087922
1975	9.8700e-01	-1.0668	-25.321810	0.000566	5.656896	1.916608	0.045171
1976	9.8750e-01	-1.0267	-24.849937	0.001182	11.818872	4.004342	0.094375
1977	9.8800e-01	-0.9962	-24.390164	0.001152	11.515824	3.901667	0.091955
1978	9.8850e-01	-0.9545	-24.140112	0.000626	6.262992	2.121959	0.050010
1979	9.8900e-01	-0.9176	-23.543213	0.001495	14.950368	5.065322	0.119380
1980	9.8950e-01	-0.8695	-23.333492	0.000525	5.252832	1.779708	0.041944
1981	9.9000e-01	-0.8294	-22.893884	0.001101	11.010744	3.730541	0.087922
1982	9.9050e-01	-0.7909	-22.248588	0.001616	16.162560	5.476024	0.129059
1983	9.9100e-01	-0.7524	-21.962238	0.000717	7.172136	2.429986	0.057270
1984	9.9150e-01	-0.7123	-21.510531	0.001131	11.313792	3.833217	0.090341
1985	9.9200e-01	-0.6722	-21.208049	0.000758	7.576200	2.566886	0.060496
1986	9.9250e-01	-0.6257	-20.881368	0.000818	8.182296	2.772237	0.065336
1987	9.9300e-01	-0.5952	-20.385297	0.001242	12.424968	4.209693	0.099214
1988	9.9350e-01	-0.5486	-20.034417	0.000879	8.788392	2.977588	0.070176
1989	9.9400e-01	-0.5101	-19.586743	0.001121	11.212776	3.798991	0.089535
1990	9.9450e-01	-0.4749	-19.393155	0.000485	4.848768	1.642807	0.038718
1991	9.9500e-01	-0.4235	-18.973712	0.001051	10.505664	3.559415	0.083888
1992	9.9550e-01	-0.3818	-18.638965	0.000838	8.384328	2.840687	0.066949
1993	9.9600e-01	-0.3433	-18.259854	0.000950	9.495504	3.217164	0.075822
1994	9.9650e-01	-0.3080	-17.695220	0.001414	14.142240	4.791521	0.112927
1995	9.9700e-01	-0.2791	-17.396771	0.000748	7.475184	2.532661	0.059690
1996	9.9750e-01	-0.2342	-16.920865	0.001192	11.919888	4.038567	0.095181
1997	9.9800e-01	-0.1941	-16.453026	0.001172	11.717856	3.970117	0.093568
1998	9.9850e-01	-0.1476	-16.086014	0.000919	9.192456	3.114488	0.073402
1999	9.9900e-01	-0.1123	-15.751267	0.000838	8.384328	2.840687	0.066949
2000	9.9950e-01	-0.0706	-15.634307	0.000293	2.929464	0.992529	0.023392
2001	1.0000e+00	-0.0273	-15.061607	0.000293	2.929464	0.992529	0.114540

Center data before PMax,+/-Pr and +/-Vc Calc.

PMax (uC/cm2):	1.39e+02
Pr (uC/cm2):	6.02e+00
-Pr (uC/cm2):	-1.51e+01
PLoss (uC/cm2):	-1.09e+01
Vc:	5.08e-01
-Vc:	-5.82e-01
C (Max-Eff) (nF):	6.95e-01
K (Eff):	2.35e+03
Vert. (+/-Pr) Shift (uC/cm2):	-4.52e+00
Horiz. Shift (+/-Vc):	-3.72e-02
Offset (uC/cm2):	4.22e+00

A (Loop Area - uC/cm2·Volts):	-3.55e-02



Hysteresis Version: 5.48.1 - Radiant Technologies, Inc., 1999 - 9/12/24

