»»»»»»»»»»»»»»»»»»»»»»»»»»»»»»»»»»»» Hysteresis ««««««««««««««««««««««««««««««««««««
»»»  Executed Version:	5.48.1
»»»  Vision Version:	5.48.4 (R)
»»»  Vision Compiled:	9/18/24
»»»  Driver Version:	5.47.0
»»»  Windows Version:	Windows 8 or 8.1
»»»  Processor Information:	x86 (AMD or Intel) - 32 Processors
»»»  Tester Name:	PMF21124-494 (100V)
»»»  Tester S/N:	PMF21124-494
»»»  Internal Amp Type:	100V RevK 270k
»»»  Internal Amp S/N:	iAB2-596/K     
»»»  Execution Count:	1
»»»»»»»»»»»»»»»»»»»»»»»»»»»»»»»»»»»»»»»»»»««««««««««««««««««««««««««««««««««««««««««

Stored:	6/5/2025 - 12:32:11
Configured:	06/05/25 10:43:40 AM
Executed:	06/05/25 12:31:36 PM

»»»»»»»»»»»»»»»»»»»»»»»»»»»»»»»»»»» Sample Info ««««««««««««««««««««««««««««««««««««
Sample Name:	
Lot Name:	
Wafer Name:	
Die Row/Column:	0/0
Capacitor Number:	0
Sample Area (cm2):	1.00e-04
Sample Thickness (microns):	3.00e-01

Amplifier:	Internal

»»»»»»»»»»»»»»»»»»»»»»»»»»»»»»»»»»» Tester Info «««««««««««««««««««««««««««««««««««
Tester Name:	PMF21124-494 (100V)
Tester Serial Number:	PMF21124-494
Return Signal Amp. Level:	0.19 [Index: 3]

»»»»»»»»»»»»»»»»»»»»»»»»»»»»»»»» Hysteresis Info ««««««««««««««««««««««««««««««««««
Task Name:	Hyst-187
Volts:	20.00
Field:	666.67 (kV/cm)
DCBias:	0.00
DCField:	0.00 (kV/cm)
Hysteresis Period (ms):	2.00e+02
Preset:	Enabled
Preset Delay (ms):	1.00e+03
Profile:	Standard Bipolar

»»»»»»»»»»»»»»»»»»»»»»»»»»»»»»»»»»»»»» Data «««««««««««««««««««««««««««««««««««««««
Points:	2009

Valid Data

Point	Time (ms)	Drive Voltage	Measured Polarization (uC/cm2)	Capacitance (uF)	Normalized Capacitance (uF/cm2)	Dielectric Constant	Instantaneous Current (mA)
   1	0.0000e+00	-0.0032	-9.840518	0.000639	6.386366	2.163759	0.000256
   2	9.9500e-02	0.0273	-9.586179	0.000639	6.386366	2.163759	0.000256
   3	1.9900e-01	0.0594	-9.279356	0.000770	7.704187	2.610249	0.000308
   4	2.9850e-01	0.1203	-8.895829	0.000963	9.630234	3.262812	0.000385
   5	3.9800e-01	0.1604	-8.516338	0.000953	9.528863	3.228466	0.000381
   6	4.9750e-01	0.1813	-8.144921	0.000933	9.326121	3.159775	0.000373
   7	5.9700e-01	0.2310	-7.789653	0.000892	8.920638	3.022394	0.000357
   8	6.9650e-01	0.2663	-7.410163	0.000953	9.528863	3.228466	0.000381
   9	7.9600e-01	0.3048	-7.046820	0.000912	9.123379	3.091085	0.000365
  10	8.9550e-01	0.3465	-6.707701	0.000852	8.515154	2.885012	0.000341
  11	9.9500e-01	0.3866	-6.320136	0.000973	9.731605	3.297157	0.000390
  12	1.0945e+00	0.4299	-5.936608	0.000963	9.630234	3.262812	0.000385
  13	1.1940e+00	0.4604	-5.561154	0.000943	9.427492	3.194121	0.000377
  14	1.2935e+00	0.5053	-5.125144	0.001095	10.948055	3.709301	0.000438
  15	1.3930e+00	0.5406	-4.806210	0.000801	8.008300	2.713285	0.000321
  16	1.4925e+00	0.5888	-4.366162	0.001105	11.049426	3.743647	0.000442
  17	1.5920e+00	0.6257	-3.958412	0.001024	10.238459	3.468884	0.000410
  18	1.6915e+00	0.6593	-3.578921	0.000953	9.528863	3.228466	0.000381
  19	1.7910e+00	0.7139	-3.207504	0.000933	9.326121	3.159775	0.000373
  20	1.8905e+00	0.7428	-2.828014	0.000953	9.528863	3.228466	0.000381
  21	1.9900e+00	0.7813	-2.424300	0.001014	10.137088	3.434538	0.000406
  22	2.0895e+00	0.8214	-1.980215	0.001115	11.150797	3.777992	0.000446
  23	2.1890e+00	0.8631	-1.649170	0.000831	8.312412	2.816322	0.000333
  24	2.2885e+00	0.9080	-1.217196	0.001085	10.846684	3.674956	0.000434
  25	2.3880e+00	0.9529	-0.857891	0.000902	9.022008	3.056739	0.000361
  26	2.4875e+00	0.9882	-0.429955	0.001075	10.745313	3.640611	0.000430
  27	2.5870e+00	1.0251	-0.042390	0.000973	9.731605	3.297157	0.000390
  28	2.6865e+00	1.0716	0.337101	0.000953	9.528863	3.228466	0.000381
  29	2.7860e+00	1.1037	0.769074	0.001085	10.846684	3.674956	0.000434
  30	2.8855e+00	1.1502	1.136454	0.000922	9.224750	3.125430	0.000369
  31	2.9850e+00	1.1791	1.524019	0.000973	9.731605	3.297157	0.000390
  32	3.0845e+00	1.2224	1.927732	0.001014	10.137088	3.434538	0.000406
  33	3.1840e+00	1.2609	2.347594	0.001054	10.542572	3.571920	0.000422
  34	3.2835e+00	1.3010	2.775531	0.001075	10.745313	3.640611	0.000430
  35	3.3830e+00	1.3476	3.155022	0.000953	9.528863	3.228466	0.000381
  36	3.4825e+00	1.3828	3.510290	0.000892	8.920638	3.022394	0.000357
  37	3.5820e+00	1.4165	3.958412	0.001125	11.252168	3.812338	0.000450
  38	3.6815e+00	1.4679	4.350014	0.000983	9.832975	3.331502	0.000394
  39	3.7810e+00	1.4984	4.749690	0.001004	10.035717	3.400193	0.000402
  40	3.8805e+00	1.5433	5.173589	0.001064	10.643943	3.606265	0.000426
  41	3.9800e+00	1.5866	5.532895	0.000902	9.022008	3.056739	0.000361
  42	4.0795e+00	1.6331	5.960831	0.001075	10.745313	3.640611	0.000430
  43	4.1790e+00	1.6572	6.388767	0.001075	10.745313	3.640611	0.000430
  44	4.2785e+00	1.7037	6.764221	0.000943	9.427492	3.194121	0.000377
  45	4.3780e+00	1.7438	7.216380	0.001135	11.353539	3.846683	0.000454
  46	4.4775e+00	1.7743	7.583759	0.000922	9.224750	3.125430	0.000369
  47	4.5770e+00	1.8208	7.947102	0.000912	9.123379	3.091085	0.000365
  48	4.6765e+00	1.8609	8.379075	0.001085	10.846684	3.674956	0.000434
  49	4.7760e+00	1.9042	8.794900	0.001044	10.441201	3.537575	0.000418
  50	4.8755e+00	1.9411	9.194577	0.001004	10.035717	3.400193	0.000402
  51	4.9750e+00	1.9860	9.618476	0.001064	10.643943	3.606265	0.000426
  52	5.0745e+00	2.0197	10.026227	0.001024	10.238459	3.468884	0.000410
  53	5.1740e+00	2.0646	10.466274	0.001105	11.049426	3.743647	0.000442
  54	5.2735e+00	2.0951	10.825579	0.000902	9.022008	3.056739	0.000361
  55	5.3730e+00	2.1368	11.249479	0.001064	10.643943	3.606265	0.000426
  56	5.4725e+00	2.1882	11.649155	0.001004	10.035717	3.400193	0.000402
  57	5.5720e+00	2.2235	12.064980	0.001044	10.441201	3.537575	0.000418
  58	5.6715e+00	2.2588	12.488879	0.001064	10.643943	3.606265	0.000426
  59	5.7710e+00	2.2973	12.856259	0.000922	9.224750	3.125430	0.000369
  60	5.8705e+00	2.3358	13.280158	0.001064	10.643943	3.606265	0.000426
  61	5.9700e+00	2.3823	13.663686	0.000963	9.630234	3.262812	0.000385
  62	6.0695e+00	2.4320	14.107771	0.001115	11.150797	3.777992	0.000446
  63	6.1690e+00	2.4561	14.479187	0.000933	9.326121	3.159775	0.000373
  64	6.2685e+00	2.5010	14.895012	0.001044	10.441201	3.537575	0.000418
  65	6.3680e+00	2.5443	15.242206	0.000872	8.717896	2.953703	0.000349
  66	6.4675e+00	2.5796	15.690328	0.001125	11.252168	3.812338	0.000450
  67	6.5670e+00	2.6213	16.073856	0.000963	9.630234	3.262812	0.000385
  68	6.6665e+00	2.6614	16.469495	0.000993	9.934346	3.365848	0.000398
  69	6.7660e+00	2.6983	16.905506	0.001095	10.948055	3.709301	0.000438
  70	6.8655e+00	2.7368	17.220402	0.000791	7.906929	2.678940	0.000316
  71	6.9650e+00	2.7833	17.664487	0.001115	11.150797	3.777992	0.000446
  72	7.0645e+00	2.8154	18.100498	0.001095	10.948055	3.709301	0.000438
  73	7.1640e+00	2.8555	18.435580	0.000841	8.413783	2.850667	0.000337
  74	7.2635e+00	2.9005	18.843331	0.001024	10.238459	3.468884	0.000410
  75	7.3630e+00	2.9341	19.222822	0.000953	9.528863	3.228466	0.000381
  76	7.4625e+00	2.9823	19.622498	0.001004	10.035717	3.400193	0.000402
  77	7.5620e+00	3.0192	19.993915	0.000933	9.326121	3.159775	0.000373
  78	7.6615e+00	3.0641	20.401665	0.001024	10.238459	3.468884	0.000410
  79	7.7610e+00	3.0946	20.845750	0.001115	11.150797	3.777992	0.000446
  80	7.8605e+00	3.1379	21.184870	0.000852	8.515154	2.885012	0.000341
  81	7.9600e+00	3.1844	21.604732	0.001054	10.542572	3.571920	0.000422
  82	8.0595e+00	3.2181	21.931740	0.000821	8.211041	2.781976	0.000329
  83	8.1590e+00	3.2710	22.367751	0.001095	10.948055	3.709301	0.000438
  84	8.2585e+00	3.2935	22.759353	0.000983	9.832975	3.331502	0.000394
  85	8.3580e+00	3.3320	23.163066	0.001014	10.137088	3.434538	0.000406
  86	8.4575e+00	3.3753	23.502186	0.000852	8.515154	2.885012	0.000341
  87	8.5570e+00	3.4138	23.942233	0.001105	11.049426	3.743647	0.000442
  88	8.6565e+00	3.4443	24.313650	0.000933	9.326121	3.159775	0.000373
  89	8.7560e+00	3.4940	24.693141	0.000953	9.528863	3.228466	0.000381
  90	8.8555e+00	3.5341	25.060520	0.000922	9.224750	3.125430	0.000369
  91	8.9550e+00	3.5742	25.476345	0.001044	10.441201	3.537575	0.000418
  92	9.0545e+00	3.6191	25.827576	0.000882	8.819267	2.988048	0.000353
  93	9.1540e+00	3.6593	26.235327	0.001024	10.238459	3.468884	0.000410
  94	9.2535e+00	3.6881	26.594632	0.000902	9.022008	3.056739	0.000361
  95	9.3530e+00	3.7330	26.966048	0.000933	9.326121	3.159775	0.000373
  96	9.4525e+00	3.7732	27.369762	0.001014	10.137088	3.434538	0.000406
  97	9.5520e+00	3.8165	27.801735	0.001085	10.846684	3.674956	0.000434
  98	9.6515e+00	3.8518	28.112595	0.000781	7.805558	2.644595	0.000312
  99	9.7510e+00	3.8919	28.504197	0.000983	9.832975	3.331502	0.000394
 100	9.8505e+00	3.9400	28.887725	0.000963	9.630234	3.262812	0.000385
 101	9.9500e+00	3.9721	29.283364	0.000993	9.934346	3.365848	0.000398
 102	1.0050e+01	4.0106	29.670929	0.000973	9.731605	3.297157	0.000390
 103	1.0149e+01	4.0475	30.026197	0.000892	8.920638	3.022394	0.000357
 104	1.0248e+01	4.0988	30.417799	0.000983	9.832975	3.331502	0.000394
 105	1.0348e+01	4.1261	30.777104	0.000902	9.022008	3.056739	0.000361
 106	1.0447e+01	4.1710	31.160632	0.000963	9.630234	3.262812	0.000385
 107	1.0547e+01	4.2175	31.528012	0.000922	9.224750	3.125430	0.000369
 108	1.0646e+01	4.2560	31.891354	0.000912	9.123379	3.091085	0.000365
 109	1.0746e+01	4.2945	32.295067	0.001014	10.137088	3.434538	0.000406
 110	1.0845e+01	4.3234	32.678595	0.000963	9.630234	3.262812	0.000385
 111	1.0945e+01	4.3635	32.985418	0.000770	7.704187	2.610249	0.000308
 112	1.1044e+01	4.4116	33.389131	0.001014	10.137088	3.434538	0.000406
 113	1.1144e+01	4.4534	33.748436	0.000902	9.022008	3.056739	0.000361
 114	1.1243e+01	4.4951	34.136001	0.000973	9.731605	3.297157	0.000390
 115	1.1343e+01	4.5336	34.503381	0.000922	9.224750	3.125430	0.000369
 116	1.1443e+01	4.5785	34.846537	0.000862	8.616525	2.919358	0.000345
 117	1.1542e+01	4.6090	35.266399	0.001054	10.542572	3.571920	0.000422
 118	1.1642e+01	4.6426	35.613593	0.000872	8.717896	2.953703	0.000349
 119	1.1741e+01	4.6892	35.952712	0.000852	8.515154	2.885012	0.000341
 120	1.1841e+01	4.7357	36.356426	0.001014	10.137088	3.434538	0.000406
 121	1.1940e+01	4.7694	36.695545	0.000852	8.515154	2.885012	0.000341
 122	1.2040e+01	4.8111	37.075036	0.000953	9.528863	3.228466	0.000381
 123	1.2139e+01	4.8464	37.434341	0.000902	9.022008	3.056739	0.000361
 124	1.2239e+01	4.8945	37.842092	0.001024	10.238459	3.468884	0.000410
 125	1.2338e+01	4.9282	38.169100	0.000821	8.211041	2.781976	0.000329
 126	1.2438e+01	4.9763	38.508219	0.000852	8.515154	2.885012	0.000341
 127	1.2537e+01	5.0068	38.883673	0.000943	9.427492	3.194121	0.000377
 128	1.2636e+01	5.0549	39.263164	0.000953	9.528863	3.228466	0.000381
 129	1.2736e+01	5.0950	39.614394	0.000882	8.819267	2.988048	0.000353
 130	1.2835e+01	5.1303	39.953514	0.000852	8.515154	2.885012	0.000341
 131	1.2935e+01	5.1656	40.300708	0.000872	8.717896	2.953703	0.000349
 132	1.3034e+01	5.2105	40.672124	0.000933	9.326121	3.159775	0.000373
 133	1.3134e+01	5.2619	41.071800	0.001004	10.035717	3.400193	0.000402
 134	1.3233e+01	5.2859	41.394771	0.000811	8.109670	2.747631	0.000325
 135	1.3333e+01	5.3261	41.737928	0.000862	8.616525	2.919358	0.000345
 136	1.3432e+01	5.3662	42.129530	0.000983	9.832975	3.331502	0.000394
 137	1.3532e+01	5.4079	42.472687	0.000862	8.616525	2.919358	0.000345
 138	1.3632e+01	5.4480	42.815843	0.000862	8.616525	2.919358	0.000345
 139	1.3731e+01	5.4881	43.171111	0.000892	8.920638	3.022394	0.000357
 140	1.3831e+01	5.5362	43.477933	0.000770	7.704187	2.610249	0.000308
 141	1.3930e+01	5.5763	43.893758	0.001044	10.441201	3.537575	0.000418
 142	1.4030e+01	5.6132	44.236915	0.000862	8.616525	2.919358	0.000345
 143	1.4129e+01	5.6405	44.559886	0.000811	8.109670	2.747631	0.000325
 144	1.4229e+01	5.6854	44.923228	0.000912	9.123379	3.091085	0.000365
 145	1.4328e+01	5.7287	45.282533	0.000902	9.022008	3.056739	0.000361
 146	1.4428e+01	5.7736	45.633764	0.000882	8.819267	2.988048	0.000353
 147	1.4527e+01	5.8089	45.972883	0.000852	8.515154	2.885012	0.000341
 148	1.4627e+01	5.8474	46.348337	0.000943	9.427492	3.194121	0.000377
 149	1.4726e+01	5.8827	46.675345	0.000821	8.211041	2.781976	0.000329
 150	1.4825e+01	5.9276	47.030613	0.000892	8.920638	3.022394	0.000357
 151	1.4925e+01	5.9710	47.377806	0.000872	8.717896	2.953703	0.000349
 152	1.5024e+01	5.9982	47.725000	0.000872	8.717896	2.953703	0.000349
 153	1.5124e+01	6.0447	48.052008	0.000821	8.211041	2.781976	0.000329
 154	1.5223e+01	6.0913	48.427462	0.000943	9.427492	3.194121	0.000377
 155	1.5323e+01	6.1298	48.794841	0.000922	9.224750	3.125430	0.000369
 156	1.5422e+01	6.1683	49.109738	0.000791	7.906929	2.678940	0.000316
 157	1.5522e+01	6.2052	49.465006	0.000892	8.920638	3.022394	0.000357
 158	1.5621e+01	6.2437	49.844496	0.000953	9.528863	3.228466	0.000381
 159	1.5721e+01	6.2886	50.179579	0.000841	8.413783	2.850667	0.000337
 160	1.5820e+01	6.3287	50.506587	0.000821	8.211041	2.781976	0.000329
 161	1.5920e+01	6.3656	50.861855	0.000892	8.920638	3.022394	0.000357
 162	1.6020e+01	6.4041	51.217123	0.000892	8.920638	3.022394	0.000357
 163	1.6119e+01	6.4346	51.556242	0.000852	8.515154	2.885012	0.000341
 164	1.6218e+01	6.4875	51.875176	0.000801	8.008300	2.713285	0.000321
 165	1.6318e+01	6.5180	52.242555	0.000922	9.224750	3.125430	0.000369
 166	1.6418e+01	6.5661	52.569563	0.000821	8.211041	2.781976	0.000329
 167	1.6517e+01	6.6030	52.920794	0.000882	8.819267	2.988048	0.000353
 168	1.6616e+01	6.6431	53.223579	0.000760	7.602816	2.575904	0.000304
 169	1.6716e+01	6.6800	53.554624	0.000831	8.312412	2.816322	0.000333
 170	1.6816e+01	6.7298	53.909892	0.000892	8.920638	3.022394	0.000357
 171	1.6915e+01	6.7586	54.240937	0.000831	8.312412	2.816322	0.000333
 172	1.7015e+01	6.7987	54.559871	0.000801	8.008300	2.713285	0.000321
 173	1.7114e+01	6.8404	54.931287	0.000933	9.326121	3.159775	0.000373
 174	1.7213e+01	6.8870	55.274444	0.000862	8.616525	2.919358	0.000345
 175	1.7313e+01	6.9255	55.601452	0.000821	8.211041	2.781976	0.000329
 176	1.7413e+01	6.9624	55.944608	0.000862	8.616525	2.919358	0.000345
 177	1.7512e+01	6.9993	56.251431	0.000770	7.704187	2.610249	0.000308
 178	1.7611e+01	7.0378	56.594587	0.000862	8.616525	2.919358	0.000345
 179	1.7711e+01	7.0731	56.929670	0.000841	8.413783	2.850667	0.000337
 180	1.7811e+01	7.1148	57.288975	0.000902	9.022008	3.056739	0.000361
 181	1.7910e+01	7.1661	57.603871	0.000791	7.906929	2.678940	0.000316
 182	1.8009e+01	7.2062	57.942991	0.000852	8.515154	2.885012	0.000341
 183	1.8109e+01	7.2431	58.245776	0.000760	7.602816	2.575904	0.000304
 184	1.8209e+01	7.2704	58.621229	0.000943	9.427492	3.194121	0.000377
 185	1.8308e+01	7.3217	58.932089	0.000781	7.805558	2.644595	0.000312
 186	1.8407e+01	7.3618	59.279283	0.000872	8.717896	2.953703	0.000349
 187	1.8507e+01	7.3971	59.602253	0.000811	8.109670	2.747631	0.000325
 188	1.8607e+01	7.4452	59.925224	0.000811	8.109670	2.747631	0.000325
 189	1.8706e+01	7.4886	60.296641	0.000933	9.326121	3.159775	0.000373
 190	1.8805e+01	7.5190	60.611537	0.000791	7.906929	2.678940	0.000316
 191	1.8905e+01	7.5543	60.886063	0.000689	6.893220	2.335486	0.000276
 192	1.9005e+01	7.5993	61.249405	0.000912	9.123379	3.091085	0.000365
 193	1.9104e+01	7.6458	61.548153	0.000750	7.501445	2.541558	0.000300
 194	1.9203e+01	7.6827	61.879198	0.000831	8.312412	2.816322	0.000333
 195	1.9303e+01	7.7228	62.202169	0.000811	8.109670	2.747631	0.000325
 196	1.9402e+01	7.7597	62.545325	0.000862	8.616525	2.919358	0.000345
 197	1.9502e+01	7.7998	62.868296	0.000811	8.109670	2.747631	0.000325
 198	1.9602e+01	7.8383	63.223564	0.000892	8.920638	3.022394	0.000357
 199	1.9701e+01	7.8864	63.538461	0.000791	7.906929	2.678940	0.000316
 200	1.9800e+01	7.9153	63.829135	0.000730	7.298703	2.472868	0.000292
 201	1.9900e+01	7.9618	64.148068	0.000801	8.008300	2.713285	0.000321
 202	2.0000e+01	7.9939	64.503336	0.000892	8.920638	3.022394	0.000357
 203	2.0099e+01	8.0372	64.785936	0.000710	7.095962	2.404177	0.000284
 204	2.0198e+01	8.0821	65.137167	0.000882	8.819267	2.988048	0.000353
 205	2.0298e+01	8.1094	65.435915	0.000750	7.501445	2.541558	0.000300
 206	2.0398e+01	8.1591	65.787145	0.000882	8.819267	2.988048	0.000353
 207	2.0497e+01	8.1992	66.093968	0.000770	7.704187	2.610249	0.000308
 208	2.0596e+01	8.2393	66.412901	0.000801	8.008300	2.713285	0.000321
 209	2.0696e+01	8.2810	66.703575	0.000730	7.298703	2.472868	0.000292
 210	2.0796e+01	8.3115	67.038657	0.000841	8.413783	2.850667	0.000337
 211	2.0895e+01	8.3564	67.397963	0.000902	9.022008	3.056739	0.000361
 212	2.0994e+01	8.3998	67.720933	0.000811	8.109670	2.747631	0.000325
 213	2.1094e+01	8.4367	68.056016	0.000841	8.413783	2.850667	0.000337
 214	2.1194e+01	8.4816	68.326504	0.000679	6.791849	2.301141	0.000272
 215	2.1293e+01	8.5169	68.677735	0.000882	8.819267	2.988048	0.000353
 216	2.1392e+01	8.5554	69.004743	0.000821	8.211041	2.781976	0.000329
 217	2.1492e+01	8.5859	69.259082	0.000639	6.386366	2.163759	0.000256
 218	2.1591e+01	8.6244	69.618387	0.000902	9.022008	3.056739	0.000361
 219	2.1691e+01	8.6789	69.933284	0.000791	7.906929	2.678940	0.000316
 220	2.1791e+01	8.7094	70.272403	0.000852	8.515154	2.885012	0.000341
 221	2.1890e+01	8.7575	70.546928	0.000689	6.893220	2.335486	0.000276
 222	2.1989e+01	8.7896	70.898159	0.000882	8.819267	2.988048	0.000353
 223	2.2089e+01	8.8313	71.184796	0.000720	7.197333	2.438522	0.000288
 224	2.2189e+01	8.8714	71.519878	0.000841	8.413783	2.850667	0.000337
 225	2.2288e+01	8.9115	71.806515	0.000720	7.197333	2.438522	0.000288
 226	2.2387e+01	8.9596	72.153708	0.000872	8.717896	2.953703	0.000349
 227	2.2487e+01	8.9949	72.444382	0.000730	7.298703	2.472868	0.000292
 228	2.2587e+01	9.0350	72.787539	0.000862	8.616525	2.919358	0.000345
 229	2.2686e+01	9.0719	73.062064	0.000689	6.893220	2.335486	0.000276
 230	2.2785e+01	9.1008	73.401183	0.000852	8.515154	2.885012	0.000341
 231	2.2885e+01	9.1505	73.695894	0.000740	7.400074	2.507213	0.000296
 232	2.2985e+01	9.2003	73.986568	0.000730	7.298703	2.472868	0.000292
 233	2.3084e+01	9.2340	74.265130	0.000699	6.994591	2.369832	0.000280
 234	2.3183e+01	9.2725	74.624436	0.000902	9.022008	3.056739	0.000361
 235	2.3283e+01	9.3158	74.927221	0.000760	7.602816	2.575904	0.000304
 236	2.3383e+01	9.3463	75.209820	0.000710	7.095962	2.404177	0.000284
 237	2.3482e+01	9.3944	75.565088	0.000892	8.920638	3.022394	0.000357
 238	2.3581e+01	9.4361	75.839613	0.000689	6.893220	2.335486	0.000276
 239	2.3681e+01	9.4730	76.154510	0.000791	7.906929	2.678940	0.000316
 240	2.3780e+01	9.5099	76.449221	0.000740	7.400074	2.507213	0.000296
 241	2.3880e+01	9.5548	76.747969	0.000750	7.501445	2.541558	0.000300
 242	2.3980e+01	9.5933	77.091125	0.000862	8.616525	2.919358	0.000345
 243	2.4079e+01	9.6366	77.397948	0.000770	7.704187	2.610249	0.000308
 244	2.4178e+01	9.6671	77.660362	0.000659	6.589107	2.232450	0.000264
 245	2.4278e+01	9.7152	78.011592	0.000882	8.819267	2.988048	0.000353
 246	2.4378e+01	9.7569	78.261895	0.000628	6.284995	2.129414	0.000252
 247	2.4477e+01	9.7922	78.572754	0.000781	7.805558	2.644595	0.000312
 248	2.4576e+01	9.8307	78.867465	0.000740	7.400074	2.507213	0.000296
 249	2.4676e+01	9.8741	79.154102	0.000720	7.197333	2.438522	0.000288
 250	2.4776e+01	9.9142	79.460924	0.000770	7.704187	2.610249	0.000308
 251	2.4875e+01	9.9527	79.767746	0.000770	7.704187	2.610249	0.000308
 252	2.4974e+01	9.9912	80.102829	0.000841	8.413783	2.850667	0.000337
 253	2.5074e+01	10.0377	80.381391	0.000699	6.994591	2.369832	0.000280
 254	2.5174e+01	10.0746	80.716473	0.000841	8.413783	2.850667	0.000337
 255	2.5273e+01	10.1131	81.015221	0.000750	7.501445	2.541558	0.000300
 256	2.5372e+01	10.1548	81.277635	0.000659	6.589107	2.232450	0.000264
 257	2.5472e+01	10.1965	81.564272	0.000720	7.197333	2.438522	0.000288
 258	2.5572e+01	10.2286	81.846871	0.000710	7.095962	2.404177	0.000284
 259	2.5671e+01	10.2735	82.161768	0.000791	7.906929	2.678940	0.000316
 260	2.5770e+01	10.3056	82.480702	0.000801	8.008300	2.713285	0.000321
 261	2.5870e+01	10.3473	82.775413	0.000740	7.400074	2.507213	0.000296
 262	2.5970e+01	10.3906	83.066086	0.000730	7.298703	2.472868	0.000292
 263	2.6069e+01	10.4195	83.336574	0.000679	6.791849	2.301141	0.000272
 264	2.6169e+01	10.4724	83.639360	0.000760	7.602816	2.575904	0.000304
 265	2.6268e+01	10.5141	83.970405	0.000831	8.312412	2.816322	0.000333
 266	2.6367e+01	10.5478	84.248967	0.000699	6.994591	2.369832	0.000280
 267	2.6467e+01	10.5927	84.563864	0.000791	7.906929	2.678940	0.000316
 268	2.6567e+01	10.6200	84.846463	0.000710	7.095962	2.404177	0.000284
 269	2.6666e+01	10.6649	85.133100	0.000720	7.197333	2.438522	0.000288
 270	2.6765e+01	10.7115	85.443959	0.000781	7.805558	2.644595	0.000312
 271	2.6865e+01	10.7403	85.722522	0.000699	6.994591	2.369832	0.000280
 272	2.6965e+01	10.7965	86.017233	0.000740	7.400074	2.507213	0.000296
 273	2.7064e+01	10.8254	86.271572	0.000639	6.386366	2.163759	0.000256
 274	2.7163e+01	10.8623	86.598580	0.000821	8.211041	2.781976	0.000329
 275	2.7263e+01	10.9056	86.901365	0.000760	7.602816	2.575904	0.000304
 276	2.7363e+01	10.9537	87.196076	0.000740	7.400074	2.507213	0.000296
 277	2.7462e+01	10.9826	87.458490	0.000659	6.589107	2.232450	0.000264
 278	2.7561e+01	11.0323	87.761275	0.000760	7.602816	2.575904	0.000304
 279	2.7661e+01	11.0628	88.055986	0.000740	7.400074	2.507213	0.000296
 280	2.7761e+01	11.1077	88.334549	0.000699	6.994591	2.369832	0.000280
 281	2.7860e+01	11.1494	88.637334	0.000760	7.602816	2.575904	0.000304
 282	2.7959e+01	11.1879	88.907822	0.000679	6.791849	2.301141	0.000272
 283	2.8059e+01	11.2248	89.218681	0.000781	7.805558	2.644595	0.000312
 284	2.8159e+01	11.2697	89.505318	0.000720	7.197333	2.438522	0.000288
 285	2.8258e+01	11.3018	89.795992	0.000730	7.298703	2.472868	0.000292
 286	2.8358e+01	11.3516	90.098777	0.000760	7.602816	2.575904	0.000304
 287	2.8457e+01	11.3868	90.397525	0.000750	7.501445	2.541558	0.000300
 288	2.8556e+01	11.4318	90.655902	0.000649	6.487736	2.198105	0.000260
 289	2.8656e+01	11.4622	90.930427	0.000689	6.893220	2.335486	0.000276
 290	2.8756e+01	11.5023	91.225138	0.000740	7.400074	2.507213	0.000296
 291	2.8855e+01	11.5376	91.495626	0.000679	6.791849	2.301141	0.000272
 292	2.8954e+01	11.5858	91.762077	0.000669	6.690478	2.266795	0.000268
 293	2.9054e+01	11.6195	92.060825	0.000750	7.501445	2.541558	0.000300
 294	2.9154e+01	11.6660	92.367647	0.000770	7.704187	2.610249	0.000308
 295	2.9253e+01	11.7029	92.666395	0.000750	7.501445	2.541558	0.000300
 296	2.9352e+01	11.7478	92.944958	0.000699	6.994591	2.369832	0.000280
 297	2.9452e+01	11.7943	93.223520	0.000699	6.994591	2.369832	0.000280
 298	2.9552e+01	11.8280	93.485934	0.000659	6.589107	2.232450	0.000264
 299	2.9651e+01	11.8649	93.792756	0.000770	7.704187	2.610249	0.000308
 300	2.9750e+01	11.9066	94.079393	0.000720	7.197333	2.438522	0.000288
 301	2.9850e+01	11.9467	94.349881	0.000679	6.791849	2.301141	0.000272
 302	2.9950e+01	11.9836	94.620369	0.000679	6.791849	2.301141	0.000272
 303	3.0049e+01	12.0221	94.882783	0.000659	6.589107	2.232450	0.000264
 304	3.0148e+01	12.0590	95.181531	0.000750	7.501445	2.541558	0.000300
 305	3.0248e+01	12.1055	95.468167	0.000720	7.197333	2.438522	0.000288
 306	3.0348e+01	12.1473	95.734618	0.000669	6.690478	2.266795	0.000268
 307	3.0447e+01	12.1793	96.029329	0.000740	7.400074	2.507213	0.000296
 308	3.0547e+01	12.2178	96.283669	0.000639	6.386366	2.163759	0.000256
 309	3.0646e+01	12.2644	96.598565	0.000791	7.906929	2.678940	0.000316
 310	3.0745e+01	12.2980	96.881165	0.000710	7.095962	2.404177	0.000284
 311	3.0845e+01	12.3462	97.123393	0.000608	6.082253	2.060723	0.000243
 312	3.0945e+01	12.3783	97.434252	0.000781	7.805558	2.644595	0.000312
 313	3.1044e+01	12.4200	97.741075	0.000770	7.704187	2.610249	0.000308
 314	3.1143e+01	12.4569	97.979266	0.000598	5.980882	2.026378	0.000239
 315	3.1243e+01	12.5002	98.245717	0.000669	6.690478	2.266795	0.000268
 316	3.1343e+01	12.5435	98.540428	0.000740	7.400074	2.507213	0.000296
 317	3.1442e+01	12.5788	98.794767	0.000639	6.386366	2.163759	0.000256
 318	3.1541e+01	12.6237	99.045070	0.000628	6.284995	2.129414	0.000252
 319	3.1641e+01	12.6638	99.359966	0.000791	7.906929	2.678940	0.000316
 320	3.1741e+01	12.7023	99.662751	0.000760	7.602816	2.575904	0.000304
 321	3.1840e+01	12.7424	99.909017	0.000618	6.183624	2.095068	0.000248
 322	3.1939e+01	12.7889	100.171430	0.000659	6.589107	2.232450	0.000264
 323	3.2039e+01	12.8258	100.498438	0.000821	8.211041	2.781976	0.000329
 324	3.2139e+01	12.8579	100.744704	0.000618	6.183624	2.095068	0.000248
 325	3.2238e+01	12.9093	101.043452	0.000750	7.501445	2.541558	0.000300
 326	3.2337e+01	12.9349	101.285680	0.000608	6.082253	2.060723	0.000243
 327	3.2437e+01	12.9782	101.572317	0.000720	7.197333	2.438522	0.000288
 328	3.2536e+01	13.0167	101.834730	0.000659	6.589107	2.232450	0.000264
 329	3.2636e+01	13.0617	102.089070	0.000639	6.386366	2.163759	0.000256
 330	3.2736e+01	13.0986	102.412041	0.000811	8.109670	2.747631	0.000325
 331	3.2835e+01	13.1322	102.686566	0.000689	6.893220	2.335486	0.000276
 332	3.2934e+01	13.1852	102.936868	0.000628	6.284995	2.129414	0.000252
 333	3.3034e+01	13.2060	103.203319	0.000669	6.690478	2.266795	0.000268
 334	3.3133e+01	13.2638	103.493993	0.000730	7.298703	2.472868	0.000292
 335	3.3233e+01	13.3055	103.764481	0.000679	6.791849	2.301141	0.000272
 336	3.3333e+01	13.3312	104.022858	0.000649	6.487736	2.198105	0.000260
 337	3.3432e+01	13.3745	104.301420	0.000699	6.994591	2.369832	0.000280
 338	3.3532e+01	13.4210	104.575946	0.000689	6.893220	2.335486	0.000276
 339	3.3631e+01	13.4515	104.866619	0.000730	7.298703	2.472868	0.000292
 340	3.3730e+01	13.4916	105.084625	0.000547	5.474028	1.854651	0.000219
 341	3.3830e+01	13.5349	105.399521	0.000791	7.906929	2.678940	0.000316
 342	3.3929e+01	13.5814	105.657898	0.000649	6.487736	2.198105	0.000260
 343	3.4029e+01	13.6071	105.920312	0.000659	6.589107	2.232450	0.000264
 344	3.4129e+01	13.6584	106.182726	0.000659	6.589107	2.232450	0.000264
 345	3.4228e+01	13.6969	106.445139	0.000659	6.589107	2.232450	0.000264
 346	3.4328e+01	13.7386	106.719665	0.000689	6.893220	2.335486	0.000276
 347	3.4427e+01	13.7691	106.957856	0.000598	5.980882	2.026378	0.000239
 348	3.4526e+01	13.8124	107.280827	0.000811	8.109670	2.747631	0.000325
 349	3.4626e+01	13.8574	107.531129	0.000628	6.284995	2.129414	0.000252
 350	3.4725e+01	13.9007	107.829877	0.000750	7.501445	2.541558	0.000300
 351	3.4825e+01	13.9360	108.084217	0.000639	6.386366	2.163759	0.000256
 352	3.4925e+01	13.9697	108.326445	0.000608	6.082253	2.060723	0.000243
 353	3.5024e+01	14.0098	108.637304	0.000781	7.805558	2.644595	0.000312
 354	3.5123e+01	14.0595	108.899718	0.000659	6.589107	2.232450	0.000264
 355	3.5223e+01	14.0948	109.162132	0.000659	6.589107	2.232450	0.000264
 356	3.5322e+01	14.1301	109.412434	0.000628	6.284995	2.129414	0.000252
 357	3.5422e+01	14.1702	109.682922	0.000679	6.791849	2.301141	0.000272
 358	3.5522e+01	14.2119	109.929188	0.000618	6.183624	2.095068	0.000248
 359	3.5621e+01	14.2456	110.215824	0.000720	7.197333	2.438522	0.000288
 360	3.5721e+01	14.2889	110.454015	0.000598	5.980882	2.026378	0.000239
 361	3.5820e+01	14.3290	110.716429	0.000659	6.589107	2.232450	0.000264
 362	3.5919e+01	14.3739	111.007103	0.000730	7.298703	2.472868	0.000292
 363	3.6019e+01	14.4108	111.265480	0.000649	6.487736	2.198105	0.000260
 364	3.6118e+01	14.4493	111.483485	0.000547	5.474028	1.854651	0.000219
 365	3.6218e+01	14.4846	111.758010	0.000689	6.893220	2.335486	0.000276
 366	3.6318e+01	14.5440	112.076944	0.000801	8.008300	2.713285	0.000321
 367	3.6417e+01	14.5745	112.327246	0.000628	6.284995	2.129414	0.000252
 368	3.6517e+01	14.6194	112.581586	0.000639	6.386366	2.163759	0.000256
 369	3.6616e+01	14.6531	112.831888	0.000628	6.284995	2.129414	0.000252
 370	3.6715e+01	14.6964	113.134673	0.000760	7.602816	2.575904	0.000304
 371	3.6815e+01	14.7397	113.368827	0.000588	5.879511	1.992032	0.000235
 372	3.6914e+01	14.7702	113.598944	0.000578	5.778140	1.957687	0.000231
 373	3.7014e+01	14.8135	113.889618	0.000730	7.298703	2.472868	0.000292
 374	3.7114e+01	14.8488	114.160106	0.000679	6.791849	2.301141	0.000272
 375	3.7213e+01	14.9001	114.390223	0.000578	5.778140	1.957687	0.000231
 376	3.7313e+01	14.9194	114.636488	0.000618	6.183624	2.095068	0.000248
 377	3.7412e+01	14.9611	114.927162	0.000730	7.298703	2.472868	0.000292
 378	3.7511e+01	15.0012	115.197650	0.000679	6.791849	2.301141	0.000272
 379	3.7611e+01	15.0461	115.472175	0.000689	6.893220	2.335486	0.000276
 380	3.7711e+01	15.0846	115.718440	0.000618	6.183624	2.095068	0.000248
 381	3.7810e+01	15.1343	115.968743	0.000628	6.284995	2.129414	0.000252
 382	3.7910e+01	15.1744	116.219045	0.000628	6.284995	2.129414	0.000252
 383	3.8009e+01	15.2097	116.497607	0.000699	6.994591	2.369832	0.000280
 384	3.8108e+01	15.2514	116.739836	0.000608	6.082253	2.060723	0.000243
 385	3.8208e+01	15.2948	117.022435	0.000710	7.095962	2.404177	0.000284
 386	3.8307e+01	15.3349	117.264663	0.000608	6.082253	2.060723	0.000243
 387	3.8407e+01	15.3718	117.527077	0.000659	6.589107	2.232450	0.000264
 388	3.8507e+01	15.4103	117.781417	0.000639	6.386366	2.163759	0.000256
 389	3.8606e+01	15.4488	118.080165	0.000750	7.501445	2.541558	0.000300
 390	3.8706e+01	15.4921	118.298170	0.000547	5.474028	1.854651	0.000219
 391	3.8805e+01	15.5322	118.600955	0.000760	7.602816	2.575904	0.000304
 392	3.8904e+01	15.5627	118.843183	0.000608	6.082253	2.060723	0.000243
 393	3.9004e+01	15.6140	119.125783	0.000710	7.095962	2.404177	0.000284
 394	3.9103e+01	15.6429	119.380122	0.000639	6.386366	2.163759	0.000256
 395	3.9203e+01	15.6830	119.610239	0.000578	5.778140	1.957687	0.000231
 396	3.9303e+01	15.7327	119.864579	0.000639	6.386366	2.163759	0.000256
 397	3.9402e+01	15.7680	120.151215	0.000720	7.197333	2.438522	0.000288
 398	3.9502e+01	15.8113	120.429778	0.000699	6.994591	2.369832	0.000280
 399	3.9601e+01	15.8434	120.619523	0.000476	4.764431	1.614233	0.000191
 400	3.9700e+01	15.8851	120.873863	0.000639	6.386366	2.163759	0.000256
 401	3.9800e+01	15.9252	121.156462	0.000710	7.095962	2.404177	0.000284
 402	3.9900e+01	15.9717	121.398690	0.000608	6.082253	2.060723	0.000243
 403	3.9999e+01	16.0038	121.636881	0.000598	5.980882	2.026378	0.000239
 404	4.0099e+01	16.0455	121.899295	0.000659	6.589107	2.232450	0.000264
 405	4.0198e+01	16.0792	122.165746	0.000669	6.690478	2.266795	0.000268
 406	4.0297e+01	16.1290	122.395863	0.000578	5.778140	1.957687	0.000231
 407	4.0397e+01	16.1578	122.662314	0.000669	6.690478	2.266795	0.000268
 408	4.0496e+01	16.2011	122.916653	0.000639	6.386366	2.163759	0.000256
 409	4.0596e+01	16.2413	123.183104	0.000669	6.690478	2.266795	0.000268
 410	4.0696e+01	16.2878	123.425332	0.000608	6.082253	2.060723	0.000243
 411	4.0795e+01	16.3199	123.659486	0.000588	5.879511	1.992032	0.000235
 412	4.0895e+01	16.3616	123.929974	0.000679	6.791849	2.301141	0.000272
 413	4.0994e+01	16.4001	124.172202	0.000608	6.082253	2.060723	0.000243
 414	4.1093e+01	16.4434	124.414431	0.000608	6.082253	2.060723	0.000243
 415	4.1193e+01	16.4851	124.668770	0.000639	6.386366	2.163759	0.000256
 416	4.1292e+01	16.5380	124.939258	0.000679	6.791849	2.301141	0.000272
 417	4.1392e+01	16.5573	125.157264	0.000547	5.474028	1.854651	0.000219
 418	4.1492e+01	16.6038	125.476197	0.000801	8.008300	2.713285	0.000321
 419	4.1591e+01	16.6471	125.678054	0.000507	5.068544	1.717269	0.000203
 420	4.1691e+01	16.6856	125.964691	0.000720	7.197333	2.438522	0.000288
 421	4.1790e+01	16.7257	126.170585	0.000517	5.169915	1.751615	0.000207
 422	4.1889e+01	16.7658	126.465296	0.000740	7.400074	2.507213	0.000296
 423	4.1989e+01	16.7963	126.695412	0.000578	5.778140	1.957687	0.000231
 424	4.2089e+01	16.8444	126.953789	0.000649	6.487736	2.198105	0.000260
 425	4.2188e+01	16.8813	127.236388	0.000710	7.095962	2.404177	0.000284
 426	4.2288e+01	16.9214	127.458431	0.000558	5.575398	1.888996	0.000223
 427	4.2387e+01	16.9696	127.708733	0.000628	6.284995	2.129414	0.000252
 428	4.2486e+01	17.0033	127.963073	0.000639	6.386366	2.163759	0.000256
 429	4.2586e+01	17.0466	128.233561	0.000679	6.791849	2.301141	0.000272
 430	4.2685e+01	17.0787	128.451566	0.000547	5.474028	1.854651	0.000219
 431	4.2785e+01	17.1332	128.693794	0.000608	6.082253	2.060723	0.000243
 432	4.2885e+01	17.1605	128.968320	0.000689	6.893220	2.335486	0.000276
 433	4.2984e+01	17.1990	129.218622	0.000628	6.284995	2.129414	0.000252
 434	4.3084e+01	17.2439	129.472962	0.000639	6.386366	2.163759	0.000256
 435	4.3183e+01	17.2776	129.707116	0.000588	5.879511	1.992032	0.000235
 436	4.3282e+01	17.3145	129.981641	0.000689	6.893220	2.335486	0.000276
 437	4.3382e+01	17.3546	130.199646	0.000547	5.474028	1.854651	0.000219
 438	4.3481e+01	17.4043	130.478208	0.000699	6.994591	2.369832	0.000280
 439	4.3581e+01	17.4460	130.704288	0.000568	5.676769	1.923342	0.000227
 440	4.3681e+01	17.4829	130.922293	0.000547	5.474028	1.854651	0.000219
 441	4.3780e+01	17.5262	131.237190	0.000791	7.906929	2.678940	0.000316
 442	4.3880e+01	17.5615	131.487492	0.000628	6.284995	2.129414	0.000252
 443	4.3979e+01	17.6016	131.705498	0.000547	5.474028	1.854651	0.000219
 444	4.4078e+01	17.6466	131.992134	0.000720	7.197333	2.438522	0.000288
 445	4.4178e+01	17.6802	132.193991	0.000507	5.068544	1.717269	0.000203
 446	4.4278e+01	17.7107	132.480628	0.000720	7.197333	2.438522	0.000288
 447	4.4377e+01	17.7556	132.710745	0.000578	5.778140	1.957687	0.000231
 448	4.4477e+01	17.7893	132.969121	0.000649	6.487736	2.198105	0.000260
 449	4.4576e+01	17.8375	133.223461	0.000639	6.386366	2.163759	0.000256
 450	4.4675e+01	17.8744	133.457615	0.000588	5.879511	1.992032	0.000235
 451	4.4775e+01	17.9225	133.703880	0.000618	6.183624	2.095068	0.000248
 452	4.4874e+01	17.9594	133.970331	0.000669	6.690478	2.266795	0.000268
 453	4.4974e+01	18.0091	134.208522	0.000598	5.980882	2.026378	0.000239
 454	4.5074e+01	18.0300	134.454787	0.000618	6.183624	2.095068	0.000248
 455	4.5173e+01	18.0733	134.705090	0.000628	6.284995	2.129414	0.000252
 456	4.5273e+01	18.1214	134.971541	0.000669	6.690478	2.266795	0.000268
 457	4.5372e+01	18.1535	135.229917	0.000649	6.487736	2.198105	0.000260
 458	4.5471e+01	18.1872	135.460034	0.000578	5.778140	1.957687	0.000231
 459	4.5571e+01	18.2369	135.722448	0.000659	6.589107	2.232450	0.000264
 460	4.5670e+01	18.2770	135.956602	0.000588	5.879511	1.992032	0.000235
 461	4.5770e+01	18.3123	136.198830	0.000608	6.082253	2.060723	0.000243
 462	4.5870e+01	18.3556	136.457207	0.000649	6.487736	2.198105	0.000260
 463	4.5969e+01	18.3989	136.727695	0.000679	6.791849	2.301141	0.000272
 464	4.6069e+01	18.4358	136.957811	0.000578	5.778140	1.957687	0.000231
 465	4.6168e+01	18.4711	137.204077	0.000618	6.183624	2.095068	0.000248
 466	4.6267e+01	18.5193	137.450342	0.000618	6.183624	2.095068	0.000248
 467	4.6367e+01	18.5562	137.672384	0.000558	5.575398	1.888996	0.000223
 468	4.6467e+01	18.5963	137.942872	0.000679	6.791849	2.301141	0.000272
 469	4.6566e+01	18.6396	138.205286	0.000659	6.589107	2.232450	0.000264
 470	4.6666e+01	18.6861	138.443477	0.000598	5.980882	2.026378	0.000239
 471	4.6765e+01	18.7070	138.701854	0.000649	6.487736	2.198105	0.000260
 472	4.6864e+01	18.7567	138.923896	0.000558	5.575398	1.888996	0.000223
 473	4.6964e+01	18.7936	139.190347	0.000669	6.690478	2.266795	0.000268
 474	4.7063e+01	18.8289	139.424501	0.000588	5.879511	1.992032	0.000235
 475	4.7163e+01	18.8722	139.707101	0.000710	7.095962	2.404177	0.000284
 476	4.7263e+01	18.9203	139.933180	0.000568	5.676769	1.923342	0.000227
 477	4.7362e+01	18.9508	140.167334	0.000588	5.879511	1.992032	0.000235
 478	4.7462e+01	18.9909	140.445897	0.000699	6.994591	2.369832	0.000280
 479	4.7561e+01	19.0294	140.671976	0.000568	5.676769	1.923342	0.000227
 480	4.7660e+01	19.0711	140.926316	0.000639	6.386366	2.163759	0.000256
 481	4.7760e+01	19.1176	141.140284	0.000537	5.372657	1.820305	0.000215
 482	4.7859e+01	19.1545	141.418846	0.000699	6.994591	2.369832	0.000280
 483	4.7959e+01	19.1946	141.693372	0.000689	6.893220	2.335486	0.000276
 484	4.8059e+01	19.2380	141.919451	0.000568	5.676769	1.923342	0.000227
 485	4.8158e+01	19.2813	142.181865	0.000659	6.589107	2.232450	0.000264
 486	4.8258e+01	19.3118	142.416019	0.000588	5.879511	1.992032	0.000235
 487	4.8357e+01	19.3551	142.694581	0.000699	6.994591	2.369832	0.000280
 488	4.8456e+01	19.3984	142.932772	0.000598	5.980882	2.026378	0.000239
 489	4.8556e+01	19.4321	143.170963	0.000598	5.980882	2.026378	0.000239
 490	4.8656e+01	19.4786	143.401080	0.000578	5.778140	1.957687	0.000231
 491	4.8755e+01	19.5027	143.643308	0.000608	6.082253	2.060723	0.000243
 492	4.8855e+01	19.5556	143.938019	0.000740	7.400074	2.507213	0.000296
 493	4.8954e+01	19.5941	144.200433	0.000659	6.589107	2.232450	0.000264
 494	4.9053e+01	19.6374	144.430550	0.000578	5.778140	1.957687	0.000231
 495	4.9153e+01	19.6775	144.692963	0.000659	6.589107	2.232450	0.000264
 496	4.9252e+01	19.7080	144.935192	0.000608	6.082253	2.060723	0.000243
 497	4.9352e+01	19.7529	145.169345	0.000588	5.879511	1.992032	0.000235
 498	4.9452e+01	19.7786	145.468093	0.000750	7.501445	2.541558	0.000300
 499	4.9551e+01	19.8412	145.673987	0.000517	5.169915	1.751615	0.000207
 500	4.9651e+01	19.8652	145.928327	0.000639	6.386366	2.163759	0.000256
 501	4.9750e+01	19.9149	146.150369	0.000558	5.575398	1.888996	0.000223
 502	4.9849e+01	19.9470	146.432969	0.000710	7.095962	2.404177	0.000284
 503	4.9949e+01	19.9823	146.679234	0.000618	6.183624	2.095068	0.000248
 504	5.0048e+01	19.9486	146.582343	0.000243	2.432901	0.824289	-0.000097
 505	5.0148e+01	19.9069	146.437006	0.000365	3.649352	1.236434	-0.000146
 506	5.0248e+01	19.8604	146.291669	0.000365	3.649352	1.236434	-0.000146
 507	5.0347e+01	19.8283	146.142295	0.000375	3.750723	1.270779	-0.000150
 508	5.0447e+01	19.7882	146.009070	0.000335	3.345239	1.133398	-0.000134
 509	5.0546e+01	19.7577	145.847584	0.000405	4.054835	1.373815	-0.000162
 510	5.0645e+01	19.7176	145.718396	0.000324	3.243868	1.099052	-0.000130
 511	5.0745e+01	19.6615	145.560948	0.000395	3.953464	1.339470	-0.000158
 512	5.0844e+01	19.6374	145.383314	0.000446	4.460319	1.511197	-0.000179
 513	5.0944e+01	19.5893	145.266237	0.000294	2.939756	0.996016	-0.000118
 514	5.1044e+01	19.5540	145.108788	0.000395	3.953464	1.339470	-0.000158
 515	5.1143e+01	19.5139	144.910969	0.000497	4.967173	1.682924	-0.000199
 516	5.1242e+01	19.4658	144.761595	0.000375	3.750723	1.270779	-0.000150
 517	5.1342e+01	19.4321	144.612221	0.000375	3.750723	1.270779	-0.000150
 518	5.1441e+01	19.3936	144.426512	0.000466	4.663061	1.579888	-0.000187
 519	5.1541e+01	19.3551	144.273101	0.000385	3.852093	1.305125	-0.000154
 520	5.1641e+01	19.3182	144.131802	0.000355	3.547981	1.202088	-0.000142
 521	5.1740e+01	19.2684	143.938019	0.000487	4.865802	1.648578	-0.000195
 522	5.1840e+01	19.2396	143.804794	0.000335	3.345239	1.133398	-0.000134
 523	5.1939e+01	19.1962	143.574677	0.000578	5.778140	1.957687	-0.000231
 524	5.2038e+01	19.1545	143.425303	0.000375	3.750723	1.270779	-0.000150
 525	5.2138e+01	19.1176	143.247669	0.000446	4.460319	1.511197	-0.000179
 526	5.2237e+01	19.0775	143.090221	0.000395	3.953464	1.339470	-0.000158
 527	5.2337e+01	19.0390	142.936809	0.000385	3.852093	1.305125	-0.000154
 528	5.2437e+01	18.9957	142.747064	0.000476	4.764431	1.614233	-0.000191
 529	5.2536e+01	18.9524	142.581541	0.000416	4.156206	1.408161	-0.000166
 530	5.2636e+01	18.9203	142.375648	0.000517	5.169915	1.751615	-0.000207
 531	5.2735e+01	18.8770	142.193976	0.000456	4.561690	1.545542	-0.000183
 532	5.2834e+01	18.8401	142.020380	0.000436	4.358948	1.476852	-0.000174
 533	5.2934e+01	18.7920	141.822560	0.000497	4.967173	1.682924	-0.000199
 534	5.3033e+01	18.7551	141.648963	0.000436	4.358948	1.476852	-0.000174
 535	5.3133e+01	18.7182	141.503626	0.000365	3.649352	1.236434	-0.000146
 536	5.3233e+01	18.6797	141.305807	0.000497	4.967173	1.682924	-0.000199
 537	5.3332e+01	18.6348	141.116061	0.000476	4.764431	1.614233	-0.000191
 538	5.3431e+01	18.5882	140.918242	0.000497	4.967173	1.682924	-0.000199
 539	5.3531e+01	18.5626	140.764830	0.000385	3.852093	1.305125	-0.000154
 540	5.3630e+01	18.5161	140.558936	0.000517	5.169915	1.751615	-0.000207
 541	5.3730e+01	18.4808	140.344968	0.000537	5.372657	1.820305	-0.000215
 542	5.3830e+01	18.4358	140.151186	0.000487	4.865802	1.648578	-0.000195
 543	5.3929e+01	18.3909	139.997775	0.000385	3.852093	1.305125	-0.000154
 544	5.4029e+01	18.3620	139.812066	0.000466	4.663061	1.579888	-0.000187
 545	5.4128e+01	18.3203	139.606172	0.000517	5.169915	1.751615	-0.000207
 546	5.4227e+01	18.2754	139.452761	0.000385	3.852093	1.305125	-0.000154
 547	5.4327e+01	18.2353	139.258979	0.000487	4.865802	1.648578	-0.000195
 548	5.4426e+01	18.1968	139.053085	0.000517	5.169915	1.751615	-0.000207
 549	5.4526e+01	18.1551	138.859302	0.000487	4.865802	1.648578	-0.000195
 550	5.4626e+01	18.1198	138.665520	0.000487	4.865802	1.648578	-0.000195
 551	5.4725e+01	18.0813	138.479812	0.000466	4.663061	1.579888	-0.000187
 552	5.4825e+01	18.0508	138.286029	0.000487	4.865802	1.648578	-0.000195
 553	5.4924e+01	17.9979	138.096284	0.000476	4.764431	1.614233	-0.000191
 554	5.5023e+01	17.9530	137.902501	0.000487	4.865802	1.648578	-0.000195
 555	5.5123e+01	17.9177	137.741016	0.000405	4.054835	1.373815	-0.000162
 556	5.5222e+01	17.8712	137.535122	0.000517	5.169915	1.751615	-0.000207
 557	5.5322e+01	17.8503	137.317116	0.000547	5.474028	1.854651	-0.000219
 558	5.5422e+01	17.8006	137.163705	0.000385	3.852093	1.305125	-0.000154
 559	5.5521e+01	17.7573	136.986071	0.000446	4.460319	1.511197	-0.000179
 560	5.5620e+01	17.7236	136.755955	0.000578	5.778140	1.957687	-0.000231
 561	5.5720e+01	17.6819	136.562172	0.000487	4.865802	1.648578	-0.000195
 562	5.5819e+01	17.6385	136.384538	0.000446	4.460319	1.511197	-0.000179
 563	5.5919e+01	17.5968	136.174607	0.000527	5.271286	1.785960	-0.000211
 564	5.6019e+01	17.5631	135.992936	0.000456	4.561690	1.545542	-0.000183
 565	5.6118e+01	17.5295	135.762819	0.000578	5.778140	1.957687	-0.000231
 566	5.6218e+01	17.4893	135.581148	0.000456	4.561690	1.545542	-0.000183
 567	5.6317e+01	17.4380	135.371217	0.000527	5.271286	1.785960	-0.000211
 568	5.6416e+01	17.4107	135.197620	0.000436	4.358948	1.476852	-0.000174
 569	5.6516e+01	17.3546	134.939243	0.000649	6.487736	2.198105	-0.000260
 570	5.6615e+01	17.3241	134.765647	0.000436	4.358948	1.476852	-0.000174
 571	5.6715e+01	17.2744	134.592050	0.000436	4.358948	1.476852	-0.000174
 572	5.6815e+01	17.2455	134.382119	0.000527	5.271286	1.785960	-0.000211
 573	5.6914e+01	17.2038	134.127779	0.000639	6.386366	2.163759	-0.000256
 574	5.7014e+01	17.1637	133.978405	0.000375	3.750723	1.270779	-0.000150
 575	5.7113e+01	17.1140	133.772511	0.000517	5.169915	1.751615	-0.000207
 576	5.7212e+01	17.0819	133.550469	0.000558	5.575398	1.888996	-0.000223
 577	5.7312e+01	17.0498	133.364761	0.000466	4.663061	1.579888	-0.000187
 578	5.7411e+01	17.0033	133.150792	0.000537	5.372657	1.820305	-0.000215
 579	5.7511e+01	16.9632	132.957010	0.000487	4.865802	1.648578	-0.000195
 580	5.7611e+01	16.9295	132.747079	0.000527	5.271286	1.785960	-0.000211
 581	5.7710e+01	16.8829	132.541185	0.000517	5.169915	1.751615	-0.000207
 582	5.7809e+01	16.8380	132.327217	0.000537	5.372657	1.820305	-0.000215
 583	5.7909e+01	16.8043	132.137471	0.000476	4.764431	1.614233	-0.000191
 584	5.8008e+01	16.7674	131.931577	0.000517	5.169915	1.751615	-0.000207
 585	5.8108e+01	16.7209	131.705498	0.000568	5.676769	1.923342	-0.000227
 586	5.8208e+01	16.6840	131.527864	0.000446	4.460319	1.511197	-0.000179
 587	5.8307e+01	16.6535	131.330044	0.000497	4.967173	1.682924	-0.000199
 588	5.8407e+01	16.6006	131.108002	0.000558	5.575398	1.888996	-0.000223
 589	5.8506e+01	16.5685	130.885959	0.000558	5.575398	1.888996	-0.000223
 590	5.8605e+01	16.5220	130.700251	0.000466	4.663061	1.579888	-0.000187
 591	5.8705e+01	16.4819	130.470134	0.000578	5.778140	1.957687	-0.000231
 592	5.8804e+01	16.4578	130.268277	0.000507	5.068544	1.717269	-0.000203
 593	5.8904e+01	16.4065	130.046235	0.000558	5.575398	1.888996	-0.000223
 594	5.9004e+01	16.3728	129.872638	0.000436	4.358948	1.476852	-0.000174
 595	5.9103e+01	16.3247	129.686930	0.000466	4.663061	1.579888	-0.000187
 596	5.9203e+01	16.2798	129.432590	0.000639	6.386366	2.163759	-0.000256
 597	5.9302e+01	16.2413	129.234771	0.000497	4.967173	1.682924	-0.000199
 598	5.9401e+01	16.2092	129.016765	0.000547	5.474028	1.854651	-0.000219
 599	5.9501e+01	16.1675	128.827020	0.000476	4.764431	1.614233	-0.000191
 600	5.9600e+01	16.1274	128.596903	0.000578	5.778140	1.957687	-0.000231
 601	5.9700e+01	16.0856	128.391009	0.000517	5.169915	1.751615	-0.000207
 602	5.9800e+01	16.0407	128.201264	0.000476	4.764431	1.614233	-0.000191
 603	5.9899e+01	16.0118	127.954999	0.000618	6.183624	2.095068	-0.000248
 604	5.9998e+01	15.9669	127.765253	0.000476	4.764431	1.614233	-0.000191
 605	6.0098e+01	15.9284	127.575508	0.000476	4.764431	1.614233	-0.000191
 606	6.0197e+01	15.8787	127.337317	0.000598	5.980882	2.026378	-0.000239
 607	6.0297e+01	15.8498	127.151609	0.000466	4.663061	1.579888	-0.000187
 608	6.0397e+01	15.7953	126.893232	0.000649	6.487736	2.198105	-0.000260
 609	6.0496e+01	15.7664	126.727709	0.000416	4.156206	1.408161	-0.000166
 610	6.0596e+01	15.7279	126.473370	0.000639	6.386366	2.163759	-0.000256
 611	6.0695e+01	15.6862	126.315922	0.000395	3.953464	1.339470	-0.000158
 612	6.0794e+01	15.6509	126.085805	0.000578	5.778140	1.957687	-0.000231
 613	6.0894e+01	15.6060	125.835502	0.000628	6.284995	2.129414	-0.000252
 614	6.0993e+01	15.5755	125.661906	0.000436	4.358948	1.476852	-0.000174
 615	6.1093e+01	15.5242	125.488309	0.000436	4.358948	1.476852	-0.000174
 616	6.1193e+01	15.4841	125.197635	0.000730	7.298703	2.472868	-0.000292
 617	6.1292e+01	15.4568	125.011927	0.000466	4.663061	1.579888	-0.000187
 618	6.1392e+01	15.4022	124.858516	0.000385	3.852093	1.305125	-0.000154
 619	6.1491e+01	15.3702	124.583990	0.000689	6.893220	2.335486	-0.000276
 620	6.1590e+01	15.3268	124.382134	0.000507	5.068544	1.717269	-0.000203
 621	6.1690e+01	15.2915	124.156054	0.000568	5.676769	1.923342	-0.000227
 622	6.1789e+01	15.2482	123.962271	0.000487	4.865802	1.648578	-0.000195
 623	6.1889e+01	15.2161	123.728118	0.000588	5.879511	1.992032	-0.000235
 624	6.1989e+01	15.1648	123.514149	0.000537	5.372657	1.820305	-0.000215
 625	6.2088e+01	15.1247	123.279995	0.000588	5.879511	1.992032	-0.000235
 626	6.2188e+01	15.0910	123.090250	0.000476	4.764431	1.614233	-0.000191
 627	6.2287e+01	15.0493	122.856096	0.000588	5.879511	1.992032	-0.000235
 628	6.2386e+01	15.0108	122.658277	0.000497	4.967173	1.682924	-0.000199
 629	6.2486e+01	14.9707	122.416048	0.000608	6.082253	2.060723	-0.000243
 630	6.2586e+01	14.9258	122.206117	0.000527	5.271286	1.785960	-0.000211
 631	6.2685e+01	14.8841	121.996186	0.000527	5.271286	1.785960	-0.000211
 632	6.2785e+01	14.8568	121.790292	0.000517	5.169915	1.751615	-0.000207
 633	6.2884e+01	14.8071	121.560176	0.000578	5.778140	1.957687	-0.000231
 634	6.2983e+01	14.7734	121.330059	0.000578	5.778140	1.957687	-0.000231
 635	6.3083e+01	14.7285	121.124165	0.000517	5.169915	1.751615	-0.000207
 636	6.3182e+01	14.6964	120.885974	0.000598	5.980882	2.026378	-0.000239
 637	6.3282e+01	14.6434	120.688154	0.000497	4.967173	1.682924	-0.000199
 638	6.3382e+01	14.6097	120.458038	0.000578	5.778140	1.957687	-0.000231
 639	6.3481e+01	14.5777	120.191587	0.000669	6.690478	2.266795	-0.000268
 640	6.3581e+01	14.5343	120.034138	0.000395	3.953464	1.339470	-0.000158
 641	6.3680e+01	14.4878	119.771725	0.000659	6.589107	2.232450	-0.000264
 642	6.3779e+01	14.4541	119.573905	0.000497	4.967173	1.682924	-0.000199
 643	6.3879e+01	14.4172	119.351862	0.000558	5.575398	1.888996	-0.000223
 644	6.3978e+01	14.3803	119.105597	0.000618	6.183624	2.095068	-0.000248
 645	6.4078e+01	14.3354	118.867406	0.000598	5.980882	2.026378	-0.000239
 646	6.4177e+01	14.2969	118.645364	0.000558	5.575398	1.888996	-0.000223
 647	6.4277e+01	14.2600	118.455618	0.000476	4.764431	1.614233	-0.000191
 648	6.4376e+01	14.2103	118.213390	0.000608	6.082253	2.060723	-0.000243
 649	6.4476e+01	14.1670	117.999422	0.000537	5.372657	1.820305	-0.000215
 650	6.4576e+01	14.1301	117.773342	0.000568	5.676769	1.923342	-0.000227
 651	6.4675e+01	14.0932	117.559374	0.000537	5.372657	1.820305	-0.000215
 652	6.4775e+01	14.0547	117.345406	0.000537	5.372657	1.820305	-0.000215
 653	6.4874e+01	14.0146	117.127401	0.000547	5.474028	1.854651	-0.000219
 654	6.4974e+01	13.9697	116.893247	0.000588	5.879511	1.992032	-0.000235
 655	6.5073e+01	13.9376	116.655056	0.000598	5.980882	2.026378	-0.000239
 656	6.5172e+01	13.8862	116.461273	0.000487	4.865802	1.648578	-0.000195
 657	6.5272e+01	13.8606	116.202897	0.000649	6.487736	2.198105	-0.000260
 658	6.5371e+01	13.8157	116.013151	0.000476	4.764431	1.614233	-0.000191
 659	6.5471e+01	13.7707	115.791109	0.000558	5.575398	1.888996	-0.000223
 660	6.5570e+01	13.7322	115.573103	0.000547	5.474028	1.854651	-0.000219
 661	6.5670e+01	13.6953	115.334912	0.000598	5.980882	2.026378	-0.000239
 662	6.5769e+01	13.6568	115.096721	0.000598	5.980882	2.026378	-0.000239
 663	6.5869e+01	13.6087	114.890827	0.000517	5.169915	1.751615	-0.000207
 664	6.5969e+01	13.5750	114.648599	0.000608	6.082253	2.060723	-0.000243
 665	6.6068e+01	13.5285	114.430594	0.000547	5.474028	1.854651	-0.000219
 666	6.6168e+01	13.4916	114.220663	0.000527	5.271286	1.785960	-0.000211
 667	6.6267e+01	13.4563	113.986509	0.000588	5.879511	1.992032	-0.000235
 668	6.6367e+01	13.4178	113.732169	0.000639	6.386366	2.163759	-0.000256
 669	6.6466e+01	13.3729	113.510127	0.000558	5.575398	1.888996	-0.000223
 670	6.6566e+01	13.3328	113.316344	0.000487	4.865802	1.648578	-0.000195
 671	6.6665e+01	13.2911	113.066042	0.000628	6.284995	2.129414	-0.000252
 672	6.6764e+01	13.2606	112.839962	0.000568	5.676769	1.923342	-0.000227
 673	6.6864e+01	13.2125	112.589660	0.000628	6.284995	2.129414	-0.000252
 674	6.6963e+01	13.1740	112.412026	0.000446	4.460319	1.511197	-0.000179
 675	6.7063e+01	13.1435	112.149612	0.000659	6.589107	2.232450	-0.000264
 676	6.7162e+01	13.0970	111.899310	0.000628	6.284995	2.129414	-0.000252
 677	6.7262e+01	13.0488	111.677267	0.000558	5.575398	1.888996	-0.000223
 678	6.7362e+01	13.0183	111.435039	0.000608	6.082253	2.060723	-0.000243
 679	6.7461e+01	12.9734	111.217034	0.000547	5.474028	1.854651	-0.000219
 680	6.7561e+01	12.9381	111.015177	0.000507	5.068544	1.717269	-0.000203
 681	6.7660e+01	12.8964	110.776986	0.000598	5.980882	2.026378	-0.000239
 682	6.7760e+01	12.8643	110.558981	0.000547	5.474028	1.854651	-0.000219
 683	6.7859e+01	12.8114	110.304641	0.000639	6.386366	2.163759	-0.000256
 684	6.7959e+01	12.7825	110.110859	0.000487	4.865802	1.648578	-0.000195
 685	6.8058e+01	12.7408	109.812111	0.000750	7.501445	2.541558	-0.000300
 686	6.8157e+01	12.6975	109.610254	0.000507	5.068544	1.717269	-0.000203
 687	6.8257e+01	12.6670	109.376100	0.000588	5.879511	1.992032	-0.000235
 688	6.8356e+01	12.6269	109.162132	0.000537	5.372657	1.820305	-0.000215
 689	6.8456e+01	12.5852	108.936052	0.000568	5.676769	1.923342	-0.000227
 690	6.8555e+01	12.5387	108.705935	0.000578	5.778140	1.957687	-0.000231
 691	6.8655e+01	12.4906	108.439484	0.000669	6.690478	2.266795	-0.000268
 692	6.8754e+01	12.4569	108.209368	0.000578	5.778140	1.957687	-0.000231
 693	6.8854e+01	12.4184	107.975214	0.000588	5.879511	1.992032	-0.000235
 694	6.8954e+01	12.3879	107.789506	0.000466	4.663061	1.579888	-0.000187
 695	6.9053e+01	12.3462	107.514980	0.000689	6.893220	2.335486	-0.000276
 696	6.9153e+01	12.3013	107.272752	0.000608	6.082253	2.060723	-0.000243
 697	6.9252e+01	12.2660	107.022450	0.000628	6.284995	2.129414	-0.000252
 698	6.9352e+01	12.2162	106.828667	0.000487	4.865802	1.648578	-0.000195
 699	6.9451e+01	12.1809	106.513771	0.000791	7.906929	2.678940	-0.000316
 700	6.9550e+01	12.1360	106.332100	0.000456	4.561690	1.545542	-0.000183
 701	6.9650e+01	12.0943	106.073723	0.000649	6.487736	2.198105	-0.000260
 702	6.9749e+01	12.0606	105.831495	0.000608	6.082253	2.060723	-0.000243
 703	6.9849e+01	12.0301	105.585230	0.000618	6.183624	2.095068	-0.000248
 704	6.9948e+01	11.9868	105.379336	0.000517	5.169915	1.751615	-0.000207
 705	7.0048e+01	11.9515	105.137107	0.000608	6.082253	2.060723	-0.000243
 706	7.0147e+01	11.9114	104.886805	0.000628	6.284995	2.129414	-0.000252
 707	7.0247e+01	11.8649	104.672837	0.000537	5.372657	1.820305	-0.000215
 708	7.0347e+01	11.8232	104.382163	0.000730	7.298703	2.472868	-0.000292
 709	7.0446e+01	11.7847	104.164158	0.000547	5.474028	1.854651	-0.000219
 710	7.0546e+01	11.7414	103.905781	0.000649	6.487736	2.198105	-0.000260
 711	7.0645e+01	11.6981	103.691813	0.000537	5.372657	1.820305	-0.000215
 712	7.0745e+01	11.6564	103.401139	0.000730	7.298703	2.472868	-0.000292
 713	7.0844e+01	11.6307	103.191208	0.000527	5.271286	1.785960	-0.000211
 714	7.0944e+01	11.5794	102.936868	0.000639	6.386366	2.163759	-0.000256
 715	7.1043e+01	11.5457	102.702715	0.000588	5.879511	1.992032	-0.000235
 716	7.1142e+01	11.5136	102.456449	0.000618	6.183624	2.095068	-0.000248
 717	7.1242e+01	11.4687	102.242481	0.000537	5.372657	1.820305	-0.000215
 718	7.1341e+01	11.4270	101.996216	0.000618	6.183624	2.095068	-0.000248
 719	7.1441e+01	11.3820	101.758025	0.000598	5.980882	2.026378	-0.000239
 720	7.1540e+01	11.3451	101.507722	0.000628	6.284995	2.129414	-0.000252
 721	7.1640e+01	11.3130	101.249346	0.000649	6.487736	2.198105	-0.000260
 722	7.1740e+01	11.2665	101.019229	0.000578	5.778140	1.957687	-0.000231
 723	7.1839e+01	11.2264	100.752778	0.000669	6.690478	2.266795	-0.000268
 724	7.1939e+01	11.1975	100.526698	0.000568	5.676769	1.923342	-0.000227
 725	7.2038e+01	11.1639	100.276396	0.000628	6.284995	2.129414	-0.000252
 726	7.2138e+01	11.1061	100.030131	0.000618	6.183624	2.095068	-0.000248
 727	7.2237e+01	11.0740	99.743494	0.000720	7.197333	2.438522	-0.000288
 728	7.2337e+01	11.0307	99.561823	0.000456	4.561690	1.545542	-0.000183
 729	7.2436e+01	10.9890	99.311521	0.000628	6.284995	2.129414	-0.000252
 730	7.2535e+01	10.9537	99.045070	0.000669	6.690478	2.266795	-0.000268
 731	7.2635e+01	10.9008	98.770544	0.000689	6.893220	2.335486	-0.000276
 732	7.2734e+01	10.8671	98.532353	0.000598	5.980882	2.026378	-0.000239
 733	7.2834e+01	10.8366	98.318385	0.000537	5.372657	1.820305	-0.000215
 734	7.2933e+01	10.7949	98.072120	0.000618	6.183624	2.095068	-0.000248
 735	7.3033e+01	10.7516	97.789520	0.000710	7.095962	2.404177	-0.000284
 736	7.3132e+01	10.7131	97.543255	0.000618	6.183624	2.095068	-0.000248
 737	7.3232e+01	10.6681	97.288916	0.000639	6.386366	2.163759	-0.000256
 738	7.3332e+01	10.6296	97.034576	0.000639	6.386366	2.163759	-0.000256
 739	7.3431e+01	10.5895	96.768125	0.000669	6.690478	2.266795	-0.000268
 740	7.3531e+01	10.5478	96.513786	0.000639	6.386366	2.163759	-0.000256
 741	7.3630e+01	10.5093	96.275595	0.000598	5.980882	2.026378	-0.000239
 742	7.3730e+01	10.4692	96.021255	0.000639	6.386366	2.163759	-0.000256
 743	7.3829e+01	10.4307	95.758841	0.000659	6.589107	2.232450	-0.000264
 744	7.3928e+01	10.3938	95.468167	0.000730	7.298703	2.472868	-0.000292
 745	7.4028e+01	10.3585	95.262273	0.000517	5.169915	1.751615	-0.000207
 746	7.4127e+01	10.3056	94.999860	0.000659	6.589107	2.232450	-0.000264
 747	7.4227e+01	10.2655	94.705149	0.000740	7.400074	2.507213	-0.000296
 748	7.4326e+01	10.2270	94.458883	0.000618	6.183624	2.095068	-0.000248
 749	7.4426e+01	10.1869	94.252990	0.000517	5.169915	1.751615	-0.000207
 750	7.4525e+01	10.1532	93.970390	0.000710	7.095962	2.404177	-0.000284
 751	7.4625e+01	10.1131	93.703939	0.000669	6.690478	2.266795	-0.000268
 752	7.4725e+01	10.0601	93.425377	0.000699	6.994591	2.369832	-0.000280
 753	7.4824e+01	10.0249	93.191223	0.000588	5.879511	1.992032	-0.000235
 754	7.4924e+01	9.9912	92.940920	0.000628	6.284995	2.129414	-0.000252
 755	7.5023e+01	9.9527	92.686581	0.000639	6.386366	2.163759	-0.000256
 756	7.5123e+01	9.9110	92.399944	0.000720	7.197333	2.438522	-0.000288
 757	7.5222e+01	9.8789	92.137530	0.000659	6.589107	2.232450	-0.000264
 758	7.5322e+01	9.8275	91.891265	0.000618	6.183624	2.095068	-0.000248
 759	7.5421e+01	9.7922	91.653074	0.000598	5.980882	2.026378	-0.000239
 760	7.5520e+01	9.7473	91.398735	0.000639	6.386366	2.163759	-0.000256
 761	7.5620e+01	9.7217	91.132284	0.000669	6.690478	2.266795	-0.000268
 762	7.5719e+01	9.6623	90.837573	0.000740	7.400074	2.507213	-0.000296
 763	7.5819e+01	9.6318	90.603419	0.000588	5.879511	1.992032	-0.000235
 764	7.5918e+01	9.5933	90.316782	0.000720	7.197333	2.438522	-0.000288
 765	7.6018e+01	9.5436	90.102814	0.000537	5.372657	1.820305	-0.000215
 766	7.6118e+01	9.5163	89.779843	0.000811	8.109670	2.747631	-0.000325
 767	7.6217e+01	9.4746	89.573949	0.000517	5.169915	1.751615	-0.000207
 768	7.6317e+01	9.4249	89.287313	0.000720	7.197333	2.438522	-0.000288
 769	7.6416e+01	9.4008	89.008750	0.000699	6.994591	2.369832	-0.000280
 770	7.6516e+01	9.3559	88.798819	0.000527	5.271286	1.785960	-0.000211
 771	7.6615e+01	9.3094	88.491997	0.000770	7.704187	2.610249	-0.000308
 772	7.6715e+01	9.2773	88.245732	0.000618	6.183624	2.095068	-0.000248
 773	7.6814e+01	9.2372	87.967169	0.000699	6.994591	2.369832	-0.000280
 774	7.6913e+01	9.2019	87.680533	0.000720	7.197333	2.438522	-0.000288
 775	7.7013e+01	9.1538	87.418119	0.000659	6.589107	2.232450	-0.000264
 776	7.7112e+01	9.1104	87.196076	0.000558	5.575398	1.888996	-0.000223
 777	7.7212e+01	9.0735	86.881180	0.000791	7.906929	2.678940	-0.000316
 778	7.7311e+01	9.0350	86.630877	0.000628	6.284995	2.129414	-0.000252
 779	7.7411e+01	8.9885	86.392686	0.000598	5.980882	2.026378	-0.000239
 780	7.7510e+01	8.9532	86.077790	0.000791	7.906929	2.678940	-0.000316
 781	7.7610e+01	8.9179	85.851710	0.000568	5.676769	1.923342	-0.000227
 782	7.7710e+01	8.8746	85.601408	0.000628	6.284995	2.129414	-0.000252
 783	7.7809e+01	8.8345	85.310734	0.000730	7.298703	2.472868	-0.000292
 784	7.7909e+01	8.7864	85.032171	0.000699	6.994591	2.369832	-0.000280
 785	7.8008e+01	8.7543	84.753609	0.000699	6.994591	2.369832	-0.000280
 786	7.8108e+01	8.7270	84.499270	0.000639	6.386366	2.163759	-0.000256
 787	7.8207e+01	8.6789	84.232819	0.000669	6.690478	2.266795	-0.000268
 788	7.8306e+01	8.6372	83.946182	0.000720	7.197333	2.438522	-0.000288
 789	7.8406e+01	8.5987	83.675694	0.000679	6.791849	2.301141	-0.000272
 790	7.8505e+01	8.5586	83.393094	0.000710	7.095962	2.404177	-0.000284
 791	7.8605e+01	8.5217	83.158940	0.000588	5.879511	1.992032	-0.000235
 792	7.8704e+01	8.4816	82.868267	0.000730	7.298703	2.472868	-0.000292
 793	7.8804e+01	8.4302	82.597779	0.000679	6.791849	2.301141	-0.000272
 794	7.8903e+01	8.3998	82.331328	0.000669	6.690478	2.266795	-0.000268
 795	7.9003e+01	8.3516	82.032580	0.000750	7.501445	2.541558	-0.000300
 796	7.9103e+01	8.3163	81.762092	0.000679	6.791849	2.301141	-0.000272
 797	7.9202e+01	8.2794	81.536012	0.000568	5.676769	1.923342	-0.000227
 798	7.9302e+01	8.2409	81.192855	0.000862	8.616525	2.919358	-0.000345
 799	7.9401e+01	8.1944	80.958702	0.000588	5.879511	1.992032	-0.000235
 800	7.9501e+01	8.1575	80.680139	0.000699	6.994591	2.369832	-0.000280
 801	7.9600e+01	8.1158	80.373317	0.000770	7.704187	2.610249	-0.000308
 802	7.9700e+01	8.0741	80.094754	0.000699	6.994591	2.369832	-0.000280
 803	7.9799e+01	8.0324	79.864638	0.000578	5.778140	1.957687	-0.000231
 804	7.9898e+01	8.0051	79.569927	0.000740	7.400074	2.507213	-0.000296
 805	7.9998e+01	7.9490	79.291364	0.000699	6.994591	2.369832	-0.000280
 806	8.0097e+01	7.9185	79.008765	0.000710	7.095962	2.404177	-0.000284
 807	8.0197e+01	7.8992	78.734240	0.000689	6.893220	2.335486	-0.000276
 808	8.0296e+01	7.8383	78.415306	0.000801	8.008300	2.713285	-0.000321
 809	8.0396e+01	7.8030	78.144818	0.000679	6.791849	2.301141	-0.000272
 810	8.0496e+01	7.7549	77.866256	0.000699	6.994591	2.369832	-0.000280
 811	8.0595e+01	7.7148	77.615953	0.000628	6.284995	2.129414	-0.000252
 812	8.0695e+01	7.6827	77.297019	0.000801	8.008300	2.713285	-0.000321
 813	8.0794e+01	7.6394	77.058828	0.000598	5.980882	2.026378	-0.000239
 814	8.0894e+01	7.5976	76.747969	0.000781	7.805558	2.644595	-0.000312
 815	8.0993e+01	7.5591	76.473444	0.000689	6.893220	2.335486	-0.000276
 816	8.1093e+01	7.5206	76.162584	0.000781	7.805558	2.644595	-0.000312
 817	8.1192e+01	7.4886	75.896133	0.000669	6.690478	2.266795	-0.000268
 818	8.1291e+01	7.4356	75.609497	0.000720	7.197333	2.438522	-0.000288
 819	8.1391e+01	7.3987	75.334971	0.000689	6.893220	2.335486	-0.000276
 820	8.1490e+01	7.3586	75.076595	0.000649	6.487736	2.198105	-0.000260
 821	8.1590e+01	7.3185	74.793995	0.000710	7.095962	2.404177	-0.000284
 822	8.1689e+01	7.2848	74.487173	0.000770	7.704187	2.610249	-0.000308
 823	8.1789e+01	7.2479	74.204573	0.000710	7.095962	2.404177	-0.000284
 824	8.1888e+01	7.1998	73.950234	0.000639	6.386366	2.163759	-0.000256
 825	8.1988e+01	7.1581	73.667634	0.000710	7.095962	2.404177	-0.000284
 826	8.2088e+01	7.1180	73.356775	0.000781	7.805558	2.644595	-0.000312
 827	8.2187e+01	7.0811	73.053990	0.000760	7.602816	2.575904	-0.000304
 828	8.2287e+01	7.0426	72.791576	0.000659	6.589107	2.232450	-0.000264
 829	8.2386e+01	7.0057	72.496865	0.000740	7.400074	2.507213	-0.000296
 830	8.2486e+01	6.9752	72.234451	0.000659	6.589107	2.232450	-0.000264
 831	8.2585e+01	6.9175	71.883220	0.000882	8.819267	2.988048	-0.000353
 832	8.2684e+01	6.8806	71.632918	0.000628	6.284995	2.129414	-0.000252
 833	8.2784e+01	6.8453	71.362430	0.000679	6.791849	2.301141	-0.000272
 834	8.2883e+01	6.7987	71.112127	0.000628	6.284995	2.129414	-0.000252
 835	8.2983e+01	6.7586	70.789157	0.000811	8.109670	2.747631	-0.000325
 836	8.3082e+01	6.7314	70.478297	0.000781	7.805558	2.644595	-0.000312
 837	8.3182e+01	6.6720	70.175512	0.000760	7.602816	2.575904	-0.000304
 838	8.3281e+01	6.6511	69.937321	0.000598	5.980882	2.026378	-0.000239
 839	8.3381e+01	6.5998	69.614350	0.000811	8.109670	2.747631	-0.000325
 840	8.3481e+01	6.5709	69.339825	0.000689	6.893220	2.335486	-0.000276
 841	8.3580e+01	6.5148	69.049151	0.000730	7.298703	2.472868	-0.000292
 842	8.3680e+01	6.4875	68.734255	0.000791	7.906929	2.678940	-0.000316
 843	8.3779e+01	6.4474	68.439544	0.000740	7.400074	2.507213	-0.000296
 844	8.3879e+01	6.4105	68.144833	0.000740	7.400074	2.507213	-0.000296
 845	8.3978e+01	6.3672	67.874345	0.000679	6.791849	2.301141	-0.000272
 846	8.4078e+01	6.3271	67.583671	0.000730	7.298703	2.472868	-0.000292
 847	8.4177e+01	6.2854	67.264737	0.000801	8.008300	2.713285	-0.000321
 848	8.4276e+01	6.2469	66.982138	0.000710	7.095962	2.404177	-0.000284
 849	8.4376e+01	6.2180	66.647055	0.000841	8.413783	2.850667	-0.000337
 850	8.4475e+01	6.1651	66.396753	0.000628	6.284995	2.129414	-0.000252
 851	8.4575e+01	6.1218	66.106079	0.000730	7.298703	2.472868	-0.000292
 852	8.4674e+01	6.0865	65.799257	0.000770	7.704187	2.610249	-0.000308
 853	8.4774e+01	6.0431	65.468212	0.000831	8.312412	2.816322	-0.000333
 854	8.4874e+01	6.0046	65.181575	0.000720	7.197333	2.438522	-0.000288
 855	8.4973e+01	5.9549	64.886864	0.000740	7.400074	2.507213	-0.000296
 856	8.5073e+01	5.9276	64.620413	0.000669	6.690478	2.266795	-0.000268
 857	8.5172e+01	5.8891	64.277257	0.000862	8.616525	2.919358	-0.000345
 858	8.5272e+01	5.8490	63.982546	0.000740	7.400074	2.507213	-0.000296
 859	8.5371e+01	5.8057	63.667649	0.000791	7.906929	2.678940	-0.000316
 860	8.5471e+01	5.7640	63.372938	0.000740	7.400074	2.507213	-0.000296
 861	8.5570e+01	5.7287	63.094376	0.000699	6.994591	2.369832	-0.000280
 862	8.5669e+01	5.6870	62.771405	0.000811	8.109670	2.747631	-0.000325
 863	8.5769e+01	5.6453	62.504954	0.000669	6.690478	2.266795	-0.000268
 864	8.5868e+01	5.6148	62.145649	0.000902	9.022008	3.056739	-0.000361
 865	8.5968e+01	5.5683	61.899384	0.000618	6.183624	2.095068	-0.000248
 866	8.6067e+01	5.5362	61.576413	0.000811	8.109670	2.747631	-0.000325
 867	8.6167e+01	5.4929	61.261516	0.000791	7.906929	2.678940	-0.000316
 868	8.6266e+01	5.4544	60.918360	0.000862	8.616525	2.919358	-0.000345
 869	8.6366e+01	5.4047	60.639797	0.000699	6.994591	2.369832	-0.000280
 870	8.6466e+01	5.3774	60.328938	0.000781	7.805558	2.644595	-0.000312
 871	8.6565e+01	5.3325	60.014041	0.000791	7.906929	2.678940	-0.000316
 872	8.6665e+01	5.2924	59.695108	0.000801	8.008300	2.713285	-0.000321
 873	8.6764e+01	5.2603	59.408471	0.000720	7.197333	2.438522	-0.000288
 874	8.6864e+01	5.2105	59.113760	0.000740	7.400074	2.507213	-0.000296
 875	8.6963e+01	5.1656	58.782715	0.000831	8.312412	2.816322	-0.000333
 876	8.7063e+01	5.1335	58.463781	0.000801	8.008300	2.713285	-0.000321
 877	8.7162e+01	5.0838	58.148885	0.000791	7.906929	2.678940	-0.000316
 878	8.7261e+01	5.0501	57.829951	0.000801	8.008300	2.713285	-0.000321
 879	8.7361e+01	5.0132	57.506980	0.000811	8.109670	2.747631	-0.000325
 880	8.7460e+01	4.9683	57.232455	0.000689	6.893220	2.335486	-0.000276
 881	8.7560e+01	4.9346	56.881224	0.000882	8.819267	2.988048	-0.000353
 882	8.7659e+01	4.8993	56.598624	0.000710	7.095962	2.404177	-0.000284
 883	8.7759e+01	4.8576	56.279691	0.000801	8.008300	2.713285	-0.000321
 884	8.7859e+01	4.8047	55.993054	0.000720	7.197333	2.438522	-0.000288
 885	8.7958e+01	4.7726	55.645860	0.000872	8.717896	2.953703	-0.000349
 886	8.8058e+01	4.7341	55.330964	0.000791	7.906929	2.678940	-0.000316
 887	8.8157e+01	4.6892	55.048364	0.000710	7.095962	2.404177	-0.000284
 888	8.8257e+01	4.6443	54.729431	0.000801	8.008300	2.713285	-0.000321
 889	8.8356e+01	4.6058	54.406460	0.000811	8.109670	2.747631	-0.000325
 890	8.8456e+01	4.5705	54.091563	0.000791	7.906929	2.678940	-0.000316
 891	8.8555e+01	4.5336	53.768592	0.000811	8.109670	2.747631	-0.000325
 892	8.8654e+01	4.4951	53.481956	0.000720	7.197333	2.438522	-0.000288
 893	8.8754e+01	4.4550	53.118613	0.000912	9.123379	3.091085	-0.000365
 894	8.8853e+01	4.4213	52.819865	0.000750	7.501445	2.541558	-0.000300
 895	8.8953e+01	4.3763	52.504969	0.000791	7.906929	2.678940	-0.000316
 896	8.9052e+01	4.3362	52.218332	0.000720	7.197333	2.438522	-0.000288
 897	8.9152e+01	4.2929	51.875176	0.000862	8.616525	2.919358	-0.000345
 898	8.9251e+01	4.2560	51.552205	0.000811	8.109670	2.747631	-0.000325
 899	8.9351e+01	4.2159	51.221160	0.000831	8.312412	2.816322	-0.000333
 900	8.9451e+01	4.1694	50.857817	0.000912	9.123379	3.091085	-0.000365
 901	8.9550e+01	4.1261	50.563107	0.000740	7.400074	2.507213	-0.000296
 902	8.9650e+01	4.0956	50.228024	0.000841	8.413783	2.850667	-0.000337
 903	8.9749e+01	4.0587	49.905053	0.000811	8.109670	2.747631	-0.000325
 904	8.9849e+01	4.0090	49.557860	0.000872	8.717896	2.953703	-0.000349
 905	8.9948e+01	3.9753	49.251037	0.000770	7.704187	2.610249	-0.000308
 906	9.0047e+01	3.9336	48.911918	0.000852	8.515154	2.885012	-0.000341
 907	9.0147e+01	3.8999	48.609133	0.000760	7.602816	2.575904	-0.000304
 908	9.0246e+01	3.8534	48.229642	0.000953	9.528863	3.228466	-0.000381
 909	9.0346e+01	3.8133	47.943005	0.000720	7.197333	2.438522	-0.000288
 910	9.0445e+01	3.7780	47.603886	0.000852	8.515154	2.885012	-0.000341
 911	9.0545e+01	3.7395	47.284952	0.000801	8.008300	2.713285	-0.000321
 912	9.0644e+01	3.6897	46.945833	0.000852	8.515154	2.885012	-0.000341
 913	9.0744e+01	3.6560	46.606714	0.000852	8.515154	2.885012	-0.000341
 914	9.0844e+01	3.6143	46.299891	0.000770	7.704187	2.610249	-0.000308
 915	9.0943e+01	3.5742	45.920400	0.000953	9.528863	3.228466	-0.000381
 916	9.1043e+01	3.5470	45.617615	0.000760	7.602816	2.575904	-0.000304
 917	9.1142e+01	3.4956	45.306756	0.000781	7.805558	2.644595	-0.000312
 918	9.1242e+01	3.4571	44.931302	0.000943	9.427492	3.194121	-0.000377
 919	9.1341e+01	3.4106	44.608331	0.000811	8.109670	2.747631	-0.000325
 920	9.1441e+01	3.3753	44.285360	0.000811	8.109670	2.747631	-0.000325
 921	9.1540e+01	3.3384	43.938167	0.000872	8.717896	2.953703	-0.000349
 922	9.1639e+01	3.2935	43.595010	0.000862	8.616525	2.919358	-0.000345
 923	9.1739e+01	3.2550	43.288188	0.000770	7.704187	2.610249	-0.000308
 924	9.1838e+01	3.2085	42.912734	0.000943	9.427492	3.194121	-0.000377
 925	9.1938e+01	3.1716	42.565541	0.000872	8.717896	2.953703	-0.000349
 926	9.2037e+01	3.1539	42.266793	0.000750	7.501445	2.541558	-0.000300
 927	9.2137e+01	3.0881	41.875190	0.000983	9.832975	3.331502	-0.000394
 928	9.2237e+01	3.0561	41.600665	0.000689	6.893220	2.335486	-0.000276
 929	9.2336e+01	3.0144	41.180803	0.001054	10.542572	3.571920	-0.000422
 930	9.2436e+01	2.9775	40.894166	0.000720	7.197333	2.438522	-0.000288
 931	9.2535e+01	2.9406	40.555047	0.000852	8.515154	2.885012	-0.000341
 932	9.2635e+01	2.8924	40.232076	0.000811	8.109670	2.747631	-0.000325
 933	9.2734e+01	2.8523	39.856623	0.000943	9.427492	3.194121	-0.000377
 934	9.2834e+01	2.8267	39.509429	0.000872	8.717896	2.953703	-0.000349
 935	9.2933e+01	2.7769	39.190495	0.000801	8.008300	2.713285	-0.000321
 936	9.3032e+01	2.7336	38.835227	0.000892	8.920638	3.022394	-0.000357
 937	9.3132e+01	2.7015	38.488034	0.000872	8.717896	2.953703	-0.000349
 938	9.3231e+01	2.6486	38.144877	0.000862	8.616525	2.919358	-0.000345
 939	9.3331e+01	2.6229	37.781535	0.000912	9.123379	3.091085	-0.000365
 940	9.3430e+01	2.5844	37.450490	0.000831	8.312412	2.816322	-0.000333
 941	9.3530e+01	2.5347	37.087147	0.000912	9.123379	3.091085	-0.000365
 942	9.3629e+01	2.5026	36.768214	0.000801	8.008300	2.713285	-0.000321
 943	9.3729e+01	2.4609	36.368537	0.001004	10.035717	3.400193	-0.000402
 944	9.3829e+01	2.4176	36.073826	0.000740	7.400074	2.507213	-0.000296
 945	9.3928e+01	2.3759	35.702410	0.000933	9.326121	3.159775	-0.000373
 946	9.4028e+01	2.3310	35.351179	0.000882	8.819267	2.988048	-0.000353
 947	9.4127e+01	2.2989	34.971688	0.000953	9.528863	3.228466	-0.000381
 948	9.4227e+01	2.2636	34.640643	0.000831	8.312412	2.816322	-0.000333
 949	9.4326e+01	2.2251	34.269227	0.000933	9.326121	3.159775	-0.000373
 950	9.4425e+01	2.1818	33.926070	0.000862	8.616525	2.919358	-0.000345
 951	9.4525e+01	2.1481	33.562728	0.000912	9.123379	3.091085	-0.000365
 952	9.4624e+01	2.1048	33.211497	0.000882	8.819267	2.988048	-0.000353
 953	9.4724e+01	2.0598	32.856229	0.000892	8.920638	3.022394	-0.000357
 954	9.4823e+01	2.0181	32.517110	0.000852	8.515154	2.885012	-0.000341
 955	9.4923e+01	1.9828	32.153768	0.000912	9.123379	3.091085	-0.000365
 956	9.5022e+01	1.9379	31.762165	0.000983	9.832975	3.331502	-0.000394
 957	9.5122e+01	1.9058	31.419009	0.000862	8.616525	2.919358	-0.000345
 958	9.5222e+01	1.8641	31.059704	0.000902	9.022008	3.056739	-0.000361
 959	9.5321e+01	1.8240	30.736733	0.000811	8.109670	2.747631	-0.000325
 960	9.5421e+01	1.7775	30.345131	0.000983	9.832975	3.331502	-0.000394
 961	9.5520e+01	1.7406	30.001974	0.000862	8.616525	2.919358	-0.000345
 962	9.5620e+01	1.7085	29.606335	0.000993	9.934346	3.365848	-0.000398
 963	9.5719e+01	1.6668	29.242993	0.000912	9.123379	3.091085	-0.000365
 964	9.5819e+01	1.6219	28.932133	0.000781	7.805558	2.644595	-0.000312
 965	9.5918e+01	1.5818	28.540531	0.000983	9.832975	3.331502	-0.000394
 966	9.6017e+01	1.5545	28.161040	0.000953	9.528863	3.228466	-0.000381
 967	9.6117e+01	1.5032	27.817884	0.000862	8.616525	2.919358	-0.000345
 968	9.6216e+01	1.4663	27.430319	0.000973	9.731605	3.297157	-0.000390
 969	9.6316e+01	1.4181	27.050828	0.000953	9.528863	3.228466	-0.000381
 970	9.6415e+01	1.3828	26.719783	0.000831	8.312412	2.816322	-0.000333
 971	9.6515e+01	1.3443	26.344329	0.000943	9.427492	3.194121	-0.000377
 972	9.6615e+01	1.3026	25.968876	0.000943	9.427492	3.194121	-0.000377
 973	9.6714e+01	1.2706	25.593422	0.000943	9.427492	3.194121	-0.000377
 974	9.6814e+01	1.2224	25.230080	0.000912	9.123379	3.091085	-0.000365
 975	9.6913e+01	1.1887	24.870775	0.000902	9.022008	3.056739	-0.000361
 976	9.7013e+01	1.1454	24.479173	0.000983	9.832975	3.331502	-0.000394
 977	9.7112e+01	1.1037	24.095645	0.000963	9.630234	3.262812	-0.000385
 978	9.7212e+01	1.0604	23.712117	0.000963	9.630234	3.262812	-0.000385
 979	9.7311e+01	1.0299	23.372997	0.000852	8.515154	2.885012	-0.000341
 980	9.7410e+01	0.9866	22.957172	0.001044	10.441201	3.537575	-0.000418
 981	9.7510e+01	0.9433	22.585756	0.000933	9.326121	3.159775	-0.000373
 982	9.7609e+01	0.9064	22.210302	0.000943	9.427492	3.194121	-0.000377
 983	9.7709e+01	0.8711	21.842923	0.000922	9.224750	3.125430	-0.000369
 984	9.7808e+01	0.8230	21.455358	0.000973	9.731605	3.297157	-0.000390
 985	9.7908e+01	0.7764	21.092016	0.000912	9.123379	3.091085	-0.000365
 986	9.8007e+01	0.7412	20.696376	0.000993	9.934346	3.365848	-0.000398
 987	9.8107e+01	0.7043	20.324960	0.000933	9.326121	3.159775	-0.000373
 988	9.8207e+01	0.6658	19.945469	0.000953	9.528863	3.228466	-0.000381
 989	9.8306e+01	0.6257	19.565978	0.000953	9.528863	3.228466	-0.000381
 990	9.8406e+01	0.5888	19.198599	0.000922	9.224750	3.125430	-0.000369
 991	9.8505e+01	0.5438	18.786811	0.001034	10.339830	3.503229	-0.000414
 992	9.8605e+01	0.5069	18.451729	0.000841	8.413783	2.850667	-0.000337
 993	9.8704e+01	0.4604	18.019755	0.001085	10.846684	3.674956	-0.000434
 994	9.8803e+01	0.4251	17.660450	0.000902	9.022008	3.056739	-0.000361
 995	9.8903e+01	0.3850	17.268848	0.000983	9.832975	3.331502	-0.000394
 996	9.9002e+01	0.3417	16.913580	0.000892	8.920638	3.022394	-0.000357
 997	9.9102e+01	0.3016	16.497755	0.001044	10.441201	3.537575	-0.000418
 998	9.9201e+01	0.2663	16.134413	0.000912	9.123379	3.091085	-0.000365
 999	9.9301e+01	0.2294	15.722625	0.001034	10.339830	3.503229	-0.000414
1000	9.9400e+01	0.1813	15.375431	0.000872	8.717896	2.953703	-0.000349
1001	9.9500e+01	0.1588	14.959606	0.001044	10.441201	3.537575	-0.000418
1002	9.9600e+01	0.1043	14.563967	0.000993	9.934346	3.365848	-0.000398
1003	9.9699e+01	0.0642	14.192551	0.000933	9.326121	3.159775	-0.000373
1004	9.9799e+01	0.0305	13.744429	0.001125	11.252168	3.812338	-0.000450
1005	9.9898e+01	-0.0032	13.486052	0.000649	6.487736	2.198105	-0.000260
1006	9.9998e+01	-0.0465	13.082338	0.001014	10.137088	3.434538	-0.000406
1007	1.0010e+02	-0.0802	12.702848	0.000953	9.528863	3.228466	-0.000381
1008	1.0020e+02	-0.1251	12.307208	0.000993	9.934346	3.365848	-0.000398
1009	1.0030e+02	-0.1652	11.883309	0.001064	10.643943	3.606265	-0.000426
1010	1.0040e+02	-0.2005	11.487670	0.000993	9.934346	3.365848	-0.000398
1011	1.0050e+02	-0.2406	11.120290	0.000922	9.224750	3.125430	-0.000369
1012	1.0059e+02	-0.2807	10.716577	0.001014	10.137088	3.434538	-0.000406
1013	1.0069e+02	-0.3225	10.296715	0.001054	10.542572	3.571920	-0.000422
1014	1.0079e+02	-0.3577	9.933372	0.000912	9.123379	3.091085	-0.000365
1015	1.0089e+02	-0.3962	9.509473	0.001064	10.643943	3.606265	-0.000426
1016	1.0099e+02	-0.4380	9.113834	0.000993	9.934346	3.365848	-0.000398
1017	1.0109e+02	-0.4845	8.730306	0.000963	9.630234	3.262812	-0.000385
1018	1.0119e+02	-0.5246	8.342741	0.000973	9.731605	3.297157	-0.000390
1019	1.0129e+02	-0.5631	7.934990	0.001024	10.238459	3.468884	-0.000410
1020	1.0139e+02	-0.5984	7.519165	0.001044	10.441201	3.537575	-0.000418
1021	1.0149e+02	-0.6465	7.115452	0.001014	10.137088	3.434538	-0.000406
1022	1.0159e+02	-0.6882	6.739998	0.000943	9.427492	3.194121	-0.000377
1023	1.0169e+02	-0.7187	6.332247	0.001024	10.238459	3.468884	-0.000410
1024	1.0179e+02	-0.7604	5.912385	0.001054	10.542572	3.571920	-0.000422
1025	1.0189e+02	-0.8037	5.484449	0.001075	10.745313	3.640611	-0.000430
1026	1.0199e+02	-0.8342	5.096884	0.000973	9.731605	3.297157	-0.000390
1027	1.0209e+02	-0.8743	4.693170	0.001014	10.137088	3.434538	-0.000406
1028	1.0219e+02	-0.9289	4.309642	0.000963	9.630234	3.262812	-0.000385
1029	1.0229e+02	-0.9577	3.909966	0.001004	10.035717	3.400193	-0.000402
1030	1.0239e+02	-1.0010	3.473955	0.001095	10.948055	3.709301	-0.000438
1031	1.0248e+02	-1.0428	3.062167	0.001034	10.339830	3.503229	-0.000414
1032	1.0258e+02	-1.0909	2.670565	0.000983	9.832975	3.331502	-0.000394
1033	1.0268e+02	-1.1198	2.230517	0.001105	11.049426	3.743647	-0.000442
1034	1.0278e+02	-1.1615	1.846990	0.000963	9.630234	3.262812	-0.000385
1035	1.0288e+02	-1.2016	1.443276	0.001014	10.137088	3.434538	-0.000406
1036	1.0298e+02	-1.2417	1.079934	0.000912	9.123379	3.091085	-0.000365
1037	1.0308e+02	-1.2834	0.619700	0.001156	11.556280	3.915374	-0.000463
1038	1.0318e+02	-1.3235	0.228098	0.000983	9.832975	3.331502	-0.000394
1039	1.0328e+02	-1.3588	-0.199838	0.001075	10.745313	3.640611	-0.000430
1040	1.0338e+02	-1.4021	-0.571255	0.000933	9.326121	3.159775	-0.000373
1041	1.0348e+02	-1.4454	-1.023414	0.001135	11.353539	3.846683	-0.000454
1042	1.0358e+02	-1.4791	-1.402905	0.000953	9.528863	3.228466	-0.000381
1043	1.0368e+02	-1.5224	-1.822767	0.001054	10.542572	3.571920	-0.000422
1044	1.0378e+02	-1.5465	-2.238592	0.001044	10.441201	3.537575	-0.000418
1045	1.0388e+02	-1.6026	-2.601934	0.000912	9.123379	3.091085	-0.000365
1046	1.0398e+02	-1.6411	-3.013722	0.001034	10.339830	3.503229	-0.000414
1047	1.0408e+02	-1.6860	-3.441658	0.001075	10.745313	3.640611	-0.000430
1048	1.0418e+02	-1.7262	-3.865557	0.001064	10.643943	3.606265	-0.000426
1049	1.0428e+02	-1.7534	-4.228900	0.000912	9.123379	3.091085	-0.000365
1050	1.0438e+02	-1.7935	-4.672985	0.001115	11.150797	3.777992	-0.000446
1051	1.0447e+02	-1.8465	-5.056513	0.000963	9.630234	3.262812	-0.000385
1052	1.0457e+02	-1.8786	-5.488486	0.001085	10.846684	3.674956	-0.000434
1053	1.0467e+02	-1.9219	-5.888162	0.001004	10.035717	3.400193	-0.000402
1054	1.0477e+02	-1.9556	-6.308025	0.001054	10.542572	3.571920	-0.000422
1055	1.0487e+02	-1.9957	-6.687515	0.000953	9.528863	3.228466	-0.000381
1056	1.0497e+02	-2.0358	-7.123526	0.001095	10.948055	3.709301	-0.000438
1057	1.0507e+02	-2.0791	-7.511091	0.000973	9.731605	3.297157	-0.000390
1058	1.0517e+02	-2.1176	-7.866359	0.000892	8.920638	3.022394	-0.000357
1059	1.0527e+02	-2.1561	-8.270073	0.001014	10.137088	3.434538	-0.000406
1060	1.0537e+02	-2.2042	-8.706083	0.001095	10.948055	3.709301	-0.000438
1061	1.0547e+02	-2.2363	-9.125945	0.001054	10.542572	3.571920	-0.000422
1062	1.0557e+02	-2.2796	-9.517548	0.000983	9.832975	3.331502	-0.000394
1063	1.0567e+02	-2.3181	-9.897038	0.000953	9.528863	3.228466	-0.000381
1064	1.0577e+02	-2.3566	-10.333049	0.001095	10.948055	3.709301	-0.000438
1065	1.0587e+02	-2.4047	-10.720614	0.000973	9.731605	3.297157	-0.000390
1066	1.0597e+02	-2.4288	-11.120290	0.001004	10.035717	3.400193	-0.000402
1067	1.0607e+02	-2.4769	-11.491707	0.000933	9.326121	3.159775	-0.000373
1068	1.0617e+02	-2.5122	-11.879272	0.000973	9.731605	3.297157	-0.000390
1069	1.0627e+02	-2.5539	-12.339505	0.001156	11.556280	3.915374	-0.000463
1070	1.0637e+02	-2.6005	-12.739182	0.001004	10.035717	3.400193	-0.000402
1071	1.0647e+02	-2.6277	-13.114635	0.000943	9.427492	3.194121	-0.000377
1072	1.0656e+02	-2.6807	-13.518349	0.001014	10.137088	3.434538	-0.000406
1073	1.0666e+02	-2.7208	-13.901877	0.000963	9.630234	3.262812	-0.000385
1074	1.0676e+02	-2.7513	-14.289442	0.000973	9.731605	3.297157	-0.000390
1075	1.0686e+02	-2.8058	-14.705267	0.001044	10.441201	3.537575	-0.000418
1076	1.0696e+02	-2.8299	-15.060535	0.000892	8.920638	3.022394	-0.000357
1077	1.0706e+02	-2.8732	-15.480397	0.001054	10.542572	3.571920	-0.000422
1078	1.0716e+02	-2.9149	-15.884111	0.001014	10.137088	3.434538	-0.000406
1079	1.0726e+02	-2.9598	-16.271676	0.000973	9.731605	3.297157	-0.000390
1080	1.0736e+02	-2.9999	-16.683463	0.001034	10.339830	3.503229	-0.000414
1081	1.0746e+02	-3.0352	-17.079103	0.000993	9.934346	3.365848	-0.000398
1082	1.0756e+02	-3.0737	-17.478779	0.001004	10.035717	3.400193	-0.000402
1083	1.0766e+02	-3.1074	-17.858270	0.000953	9.528863	3.228466	-0.000381
1084	1.0776e+02	-3.1523	-18.253909	0.000993	9.934346	3.365848	-0.000398
1085	1.0786e+02	-3.1924	-18.613214	0.000902	9.022008	3.056739	-0.000361
1086	1.0796e+02	-3.2325	-19.000779	0.000973	9.731605	3.297157	-0.000390
1087	1.0806e+02	-3.2710	-19.448901	0.001125	11.252168	3.812338	-0.000450
1088	1.0816e+02	-3.3176	-19.767835	0.000801	8.008300	2.713285	-0.000321
1089	1.0826e+02	-3.3528	-20.159437	0.000983	9.832975	3.331502	-0.000394
1090	1.0836e+02	-3.3897	-20.542965	0.000963	9.630234	3.262812	-0.000385
1091	1.0845e+02	-3.4282	-20.946679	0.001014	10.137088	3.434538	-0.000406
1092	1.0855e+02	-3.4700	-21.293872	0.000872	8.717896	2.953703	-0.000349
1093	1.0865e+02	-3.5101	-21.677400	0.000963	9.630234	3.262812	-0.000385
1094	1.0875e+02	-3.5534	-22.077077	0.001004	10.035717	3.400193	-0.000402
1095	1.0885e+02	-3.5903	-22.509050	0.001085	10.846684	3.674956	-0.000434
1096	1.0895e+02	-3.6384	-22.884504	0.000943	9.427492	3.194121	-0.000377
1097	1.0905e+02	-3.6705	-23.211512	0.000821	8.211041	2.781976	-0.000329
1098	1.0915e+02	-3.7058	-23.558706	0.000872	8.717896	2.953703	-0.000349
1099	1.0925e+02	-3.7491	-23.978568	0.001054	10.542572	3.571920	-0.000422
1100	1.0935e+02	-3.7908	-24.398430	0.001054	10.542572	3.571920	-0.000422
1101	1.0945e+02	-3.8309	-24.697178	0.000750	7.501445	2.541558	-0.000300
1102	1.0955e+02	-3.8726	-25.100891	0.001014	10.137088	3.434538	-0.000406
1103	1.0965e+02	-3.9079	-25.476345	0.000943	9.427492	3.194121	-0.000377
1104	1.0975e+02	-3.9609	-25.835650	0.000902	9.022008	3.056739	-0.000361
1105	1.0985e+02	-3.9881	-26.190918	0.000892	8.920638	3.022394	-0.000357
1106	1.0995e+02	-4.0411	-26.578483	0.000973	9.731605	3.297157	-0.000390
1107	1.1005e+02	-4.0715	-26.941825	0.000912	9.123379	3.091085	-0.000365
1108	1.1015e+02	-4.1052	-27.289019	0.000872	8.717896	2.953703	-0.000349
1109	1.1025e+02	-4.1485	-27.676584	0.000973	9.731605	3.297157	-0.000390
1110	1.1035e+02	-4.1903	-28.064149	0.000973	9.731605	3.297157	-0.000390
1111	1.1044e+02	-4.2320	-28.399231	0.000841	8.413783	2.850667	-0.000337
1112	1.1054e+02	-4.2673	-28.770648	0.000933	9.326121	3.159775	-0.000373
1113	1.1064e+02	-4.3090	-29.158213	0.000973	9.731605	3.297157	-0.000390
1114	1.1074e+02	-4.3555	-29.529629	0.000933	9.326121	3.159775	-0.000373
1115	1.1084e+02	-4.3892	-29.897009	0.000922	9.224750	3.125430	-0.000369
1116	1.1094e+02	-4.4357	-30.252277	0.000892	8.920638	3.022394	-0.000357
1117	1.1104e+02	-4.4694	-30.611582	0.000902	9.022008	3.056739	-0.000361
1118	1.1114e+02	-4.5111	-30.918404	0.000770	7.704187	2.610249	-0.000308
1119	1.1124e+02	-4.5416	-31.342303	0.001064	10.643943	3.606265	-0.000426
1120	1.1134e+02	-4.5833	-31.669311	0.000821	8.211041	2.781976	-0.000329
1121	1.1144e+02	-4.6298	-32.036691	0.000922	9.224750	3.125430	-0.000369
1122	1.1154e+02	-4.6619	-32.351587	0.000791	7.906929	2.678940	-0.000316
1123	1.1164e+02	-4.7100	-32.727041	0.000943	9.427492	3.194121	-0.000377
1124	1.1174e+02	-4.7389	-33.106532	0.000953	9.528863	3.228466	-0.000381
1125	1.1184e+02	-4.7822	-33.473911	0.000922	9.224750	3.125430	-0.000369
1126	1.1194e+02	-4.8223	-33.813030	0.000852	8.515154	2.885012	-0.000341
1127	1.1204e+02	-4.8688	-34.160224	0.000872	8.717896	2.953703	-0.000349
1128	1.1214e+02	-4.9057	-34.547789	0.000973	9.731605	3.297157	-0.000390
1129	1.1224e+02	-4.9394	-34.870760	0.000811	8.109670	2.747631	-0.000325
1130	1.1234e+02	-4.9860	-35.209879	0.000852	8.515154	2.885012	-0.000341
1131	1.1244e+02	-5.0309	-35.601482	0.000983	9.832975	3.331502	-0.000394
1132	1.1253e+02	-5.0614	-35.884081	0.000710	7.095962	2.404177	-0.000284
1133	1.1263e+02	-5.1015	-36.312017	0.001075	10.745313	3.640611	-0.000430
1134	1.1273e+02	-5.1432	-36.614803	0.000760	7.602816	2.575904	-0.000304
1135	1.1283e+02	-5.1865	-36.978145	0.000912	9.123379	3.091085	-0.000365
1136	1.1293e+02	-5.2298	-37.353598	0.000943	9.427492	3.194121	-0.000377
1137	1.1303e+02	-5.2635	-37.660421	0.000770	7.704187	2.610249	-0.000308
1138	1.1313e+02	-5.3036	-38.015689	0.000892	8.920638	3.022394	-0.000357
1139	1.1323e+02	-5.3469	-38.379031	0.000912	9.123379	3.091085	-0.000365
1140	1.1333e+02	-5.3886	-38.738336	0.000902	9.022008	3.056739	-0.000361
1141	1.1343e+02	-5.4143	-39.117827	0.000953	9.528863	3.228466	-0.000381
1142	1.1353e+02	-5.4576	-39.412538	0.000740	7.400074	2.507213	-0.000296
1143	1.1363e+02	-5.5057	-39.767806	0.000892	8.920638	3.022394	-0.000357
1144	1.1373e+02	-5.5474	-40.135185	0.000922	9.224750	3.125430	-0.000369
1145	1.1383e+02	-5.5763	-40.478341	0.000862	8.616525	2.919358	-0.000345
1146	1.1393e+02	-5.6164	-40.837647	0.000902	9.022008	3.056739	-0.000361
1147	1.1403e+02	-5.6629	-41.160617	0.000811	8.109670	2.747631	-0.000325
1148	1.1413e+02	-5.7030	-41.507811	0.000872	8.717896	2.953703	-0.000349
1149	1.1423e+02	-5.7432	-41.875190	0.000922	9.224750	3.125430	-0.000369
1150	1.1433e+02	-5.7897	-42.190087	0.000791	7.906929	2.678940	-0.000316
1151	1.1442e+02	-5.8121	-42.521132	0.000831	8.312412	2.816322	-0.000333
1152	1.1452e+02	-5.8571	-42.888512	0.000922	9.224750	3.125430	-0.000369
1153	1.1462e+02	-5.8956	-43.223594	0.000841	8.413783	2.850667	-0.000337
1154	1.1472e+02	-5.9373	-43.586936	0.000912	9.123379	3.091085	-0.000365
1155	1.1482e+02	-5.9854	-43.897795	0.000781	7.805558	2.644595	-0.000312
1156	1.1492e+02	-6.0159	-44.220766	0.000811	8.109670	2.747631	-0.000325
1157	1.1502e+02	-6.0608	-44.580071	0.000902	9.022008	3.056739	-0.000361
1158	1.1512e+02	-6.0961	-44.919191	0.000852	8.515154	2.885012	-0.000341
1159	1.1522e+02	-6.1474	-45.258310	0.000852	8.515154	2.885012	-0.000341
1160	1.1532e+02	-6.1843	-45.597430	0.000852	8.515154	2.885012	-0.000341
1161	1.1542e+02	-6.2116	-45.924438	0.000821	8.211041	2.781976	-0.000329
1162	1.1552e+02	-6.2661	-46.235297	0.000781	7.805558	2.644595	-0.000312
1163	1.1562e+02	-6.3046	-46.606714	0.000933	9.326121	3.159775	-0.000373
1164	1.1572e+02	-6.3399	-46.929684	0.000811	8.109670	2.747631	-0.000325
1165	1.1582e+02	-6.3816	-47.248618	0.000801	8.008300	2.713285	-0.000321
1166	1.1592e+02	-6.4282	-47.551403	0.000760	7.602816	2.575904	-0.000304
1167	1.1602e+02	-6.4602	-47.906671	0.000892	8.920638	3.022394	-0.000357
1168	1.1612e+02	-6.4971	-48.217531	0.000781	7.805558	2.644595	-0.000312
1169	1.1622e+02	-6.5389	-48.540502	0.000811	8.109670	2.747631	-0.000325
1170	1.1632e+02	-6.5838	-48.907881	0.000922	9.224750	3.125430	-0.000369
1171	1.1642e+02	-6.6078	-49.210666	0.000760	7.602816	2.575904	-0.000304
1172	1.1651e+02	-6.6528	-49.578045	0.000922	9.224750	3.125430	-0.000369
1173	1.1661e+02	-6.6913	-49.860645	0.000710	7.095962	2.404177	-0.000284
1174	1.1671e+02	-6.7346	-50.207839	0.000872	8.717896	2.953703	-0.000349
1175	1.1681e+02	-6.7715	-50.542921	0.000841	8.413783	2.850667	-0.000337
1176	1.1691e+02	-6.8148	-50.886077	0.000862	8.616525	2.919358	-0.000345
1177	1.1701e+02	-6.8533	-51.176751	0.000730	7.298703	2.472868	-0.000292
1178	1.1711e+02	-6.8950	-51.519908	0.000862	8.616525	2.919358	-0.000345
1179	1.1721e+02	-6.9319	-51.863064	0.000862	8.616525	2.919358	-0.000345
1180	1.1731e+02	-6.9736	-52.206221	0.000862	8.616525	2.919358	-0.000345
1181	1.1741e+02	-7.0169	-52.533229	0.000821	8.211041	2.781976	-0.000329
1182	1.1751e+02	-7.0554	-52.872348	0.000852	8.515154	2.885012	-0.000341
1183	1.1761e+02	-7.0891	-53.187245	0.000791	7.906929	2.678940	-0.000316
1184	1.1771e+02	-7.1388	-53.538476	0.000882	8.819267	2.988048	-0.000353
1185	1.1781e+02	-7.1709	-53.841261	0.000760	7.602816	2.575904	-0.000304
1186	1.1791e+02	-7.2126	-54.127897	0.000720	7.197333	2.438522	-0.000288
1187	1.1801e+02	-7.2640	-54.495277	0.000922	9.224750	3.125430	-0.000369
1188	1.1811e+02	-7.2977	-54.785951	0.000730	7.298703	2.472868	-0.000292
1189	1.1821e+02	-7.3410	-55.137181	0.000882	8.819267	2.988048	-0.000353
1190	1.1831e+02	-7.3682	-55.460152	0.000811	8.109670	2.747631	-0.000325
1191	1.1841e+02	-7.4148	-55.807346	0.000872	8.717896	2.953703	-0.000349
1192	1.1850e+02	-7.4549	-56.093983	0.000720	7.197333	2.438522	-0.000288
1193	1.1860e+02	-7.4966	-56.412916	0.000801	8.008300	2.713285	-0.000321
1194	1.1870e+02	-7.5447	-56.756073	0.000862	8.616525	2.919358	-0.000345
1195	1.1880e+02	-7.5720	-57.050784	0.000740	7.400074	2.507213	-0.000296
1196	1.1890e+02	-7.6137	-57.414126	0.000912	9.123379	3.091085	-0.000365
1197	1.1900e+02	-7.6474	-57.733060	0.000801	8.008300	2.713285	-0.000321
1198	1.1910e+02	-7.6955	-58.076216	0.000862	8.616525	2.919358	-0.000345
1199	1.1920e+02	-7.7324	-58.334593	0.000649	6.487736	2.198105	-0.000260
1200	1.1930e+02	-7.7629	-58.722158	0.000973	9.731605	3.297157	-0.000390
1201	1.1940e+02	-7.8094	-58.980535	0.000649	6.487736	2.198105	-0.000260
1202	1.1950e+02	-7.8415	-59.311580	0.000831	8.312412	2.816322	-0.000333
1203	1.1960e+02	-7.8928	-59.650699	0.000852	8.515154	2.885012	-0.000341
1204	1.1970e+02	-7.9281	-59.909076	0.000649	6.487736	2.198105	-0.000260
1205	1.1980e+02	-7.9730	-60.268381	0.000902	9.022008	3.056739	-0.000361
1206	1.1990e+02	-8.0212	-60.615575	0.000872	8.717896	2.953703	-0.000349
1207	1.2000e+02	-8.0549	-60.922397	0.000770	7.704187	2.610249	-0.000308
1208	1.2010e+02	-8.0869	-61.245368	0.000811	8.109670	2.747631	-0.000325
1209	1.2020e+02	-8.1335	-61.536041	0.000730	7.298703	2.472868	-0.000292
1210	1.2030e+02	-8.1736	-61.891309	0.000892	8.920638	3.022394	-0.000357
1211	1.2039e+02	-8.2105	-62.210243	0.000801	8.008300	2.713285	-0.000321
1212	1.2049e+02	-8.2586	-62.521103	0.000781	7.805558	2.644595	-0.000312
1213	1.2059e+02	-8.2891	-62.823888	0.000760	7.602816	2.575904	-0.000304
1214	1.2069e+02	-8.3324	-63.098413	0.000689	6.893220	2.335486	-0.000276
1215	1.2079e+02	-8.3693	-63.421384	0.000811	8.109670	2.747631	-0.000325
1216	1.2089e+02	-8.4094	-63.780689	0.000902	9.022008	3.056739	-0.000361
1217	1.2099e+02	-8.4431	-64.043103	0.000659	6.589107	2.232450	-0.000264
1218	1.2109e+02	-8.4912	-64.390296	0.000872	8.717896	2.953703	-0.000349
1219	1.2119e+02	-8.5345	-64.697119	0.000770	7.704187	2.610249	-0.000308
1220	1.2129e+02	-8.5634	-65.028164	0.000831	8.312412	2.816322	-0.000333
1221	1.2139e+02	-8.6035	-65.306726	0.000699	6.994591	2.369832	-0.000280
1222	1.2149e+02	-8.6484	-65.601437	0.000740	7.400074	2.507213	-0.000296
1223	1.2159e+02	-8.6933	-65.932482	0.000831	8.312412	2.816322	-0.000333
1224	1.2169e+02	-8.7254	-66.202970	0.000679	6.791849	2.301141	-0.000272
1225	1.2179e+02	-8.7703	-66.525941	0.000811	8.109670	2.747631	-0.000325
1226	1.2189e+02	-8.8153	-66.856986	0.000831	8.312412	2.816322	-0.000333
1227	1.2199e+02	-8.8425	-67.171883	0.000791	7.906929	2.678940	-0.000316
1228	1.2209e+02	-8.8939	-67.482742	0.000781	7.805558	2.644595	-0.000312
1229	1.2219e+02	-8.9292	-67.753231	0.000679	6.791849	2.301141	-0.000272
1230	1.2229e+02	-8.9741	-68.084276	0.000831	8.312412	2.816322	-0.000333
1231	1.2239e+02	-9.0046	-68.427432	0.000862	8.616525	2.919358	-0.000345
1232	1.2248e+02	-9.0431	-68.697920	0.000679	6.791849	2.301141	-0.000272
1233	1.2258e+02	-9.0800	-69.024928	0.000821	8.211041	2.781976	-0.000329
1234	1.2268e+02	-9.1249	-69.307528	0.000710	7.095962	2.404177	-0.000284
1235	1.2278e+02	-9.1650	-69.614350	0.000770	7.704187	2.610249	-0.000308
1236	1.2288e+02	-9.2131	-69.917135	0.000760	7.602816	2.575904	-0.000304
1237	1.2298e+02	-9.2468	-70.223958	0.000770	7.704187	2.610249	-0.000308
1238	1.2308e+02	-9.2789	-70.611523	0.000973	9.731605	3.297157	-0.000390
1239	1.2318e+02	-9.3286	-70.837602	0.000568	5.676769	1.923342	-0.000227
1240	1.2328e+02	-9.3687	-71.124239	0.000720	7.197333	2.438522	-0.000288
1241	1.2338e+02	-9.4120	-71.479507	0.000892	8.920638	3.022394	-0.000357
1242	1.2348e+02	-9.4489	-71.737883	0.000649	6.487736	2.198105	-0.000260
1243	1.2358e+02	-9.4842	-72.113337	0.000943	9.427492	3.194121	-0.000377
1244	1.2368e+02	-9.5275	-72.383825	0.000679	6.791849	2.301141	-0.000272
1245	1.2378e+02	-9.5692	-72.686610	0.000760	7.602816	2.575904	-0.000304
1246	1.2388e+02	-9.6158	-72.977284	0.000730	7.298703	2.472868	-0.000292
1247	1.2398e+02	-9.6446	-73.267958	0.000730	7.298703	2.472868	-0.000292
1248	1.2408e+02	-9.6783	-73.570743	0.000760	7.602816	2.575904	-0.000304
1249	1.2418e+02	-9.7281	-73.877565	0.000770	7.704187	2.610249	-0.000308
1250	1.2428e+02	-9.7634	-74.200536	0.000811	8.109670	2.747631	-0.000325
1251	1.2438e+02	-9.8051	-74.503321	0.000760	7.602816	2.575904	-0.000304
1252	1.2447e+02	-9.8388	-74.769772	0.000669	6.690478	2.266795	-0.000268
1253	1.2457e+02	-9.8724	-75.129078	0.000902	9.022008	3.056739	-0.000361
1254	1.2467e+02	-9.9206	-75.383417	0.000639	6.386366	2.163759	-0.000256
1255	1.2477e+02	-9.9623	-75.678128	0.000740	7.400074	2.507213	-0.000296
1256	1.2487e+02	-10.0008	-75.988987	0.000781	7.805558	2.644595	-0.000312
1257	1.2497e+02	-10.0393	-76.279661	0.000730	7.298703	2.472868	-0.000292
1258	1.2507e+02	-10.0794	-76.626855	0.000872	8.717896	2.953703	-0.000349
1259	1.2517e+02	-10.1179	-76.877157	0.000628	6.284995	2.129414	-0.000252
1260	1.2527e+02	-10.1660	-77.183980	0.000770	7.704187	2.610249	-0.000308
1261	1.2537e+02	-10.2061	-77.446393	0.000659	6.589107	2.232450	-0.000264
1262	1.2547e+02	-10.2318	-77.757253	0.000781	7.805558	2.644595	-0.000312
1263	1.2557e+02	-10.2863	-78.092335	0.000841	8.413783	2.850667	-0.000337
1264	1.2567e+02	-10.3264	-78.370898	0.000699	6.994591	2.369832	-0.000280
1265	1.2577e+02	-10.3553	-78.613126	0.000608	6.082253	2.060723	-0.000243
1266	1.2587e+02	-10.4002	-78.948208	0.000841	8.413783	2.850667	-0.000337
1267	1.2597e+02	-10.4436	-79.222733	0.000689	6.893220	2.335486	-0.000276
1268	1.2607e+02	-10.4869	-79.537630	0.000791	7.906929	2.678940	-0.000316
1269	1.2617e+02	-10.5174	-79.840415	0.000760	7.602816	2.575904	-0.000304
1270	1.2627e+02	-10.5639	-80.171460	0.000831	8.312412	2.816322	-0.000333
1271	1.2636e+02	-10.5976	-80.417725	0.000618	6.183624	2.095068	-0.000248
1272	1.2646e+02	-10.6457	-80.736659	0.000801	8.008300	2.713285	-0.000321
1273	1.2656e+02	-10.6874	-81.007147	0.000679	6.791849	2.301141	-0.000272
1274	1.2666e+02	-10.7211	-81.265524	0.000649	6.487736	2.198105	-0.000260
1275	1.2676e+02	-10.7612	-81.612718	0.000872	8.717896	2.953703	-0.000349
1276	1.2686e+02	-10.8061	-81.863020	0.000628	6.284995	2.129414	-0.000252
1277	1.2696e+02	-10.8318	-82.141582	0.000699	6.994591	2.369832	-0.000280
1278	1.2706e+02	-10.8783	-82.436293	0.000740	7.400074	2.507213	-0.000296
1279	1.2716e+02	-10.9168	-82.722930	0.000720	7.197333	2.438522	-0.000288
1280	1.2726e+02	-10.9633	-83.033789	0.000781	7.805558	2.644595	-0.000312
1281	1.2736e+02	-11.0002	-83.364834	0.000831	8.312412	2.816322	-0.000333
1282	1.2746e+02	-11.0387	-83.619174	0.000639	6.386366	2.163759	-0.000256
1283	1.2756e+02	-11.0804	-83.889662	0.000679	6.791849	2.301141	-0.000272
1284	1.2766e+02	-11.1141	-84.160150	0.000679	6.791849	2.301141	-0.000272
1285	1.2776e+02	-11.1639	-84.515418	0.000892	8.920638	3.022394	-0.000357
1286	1.2786e+02	-11.2072	-84.749572	0.000588	5.879511	1.992032	-0.000235
1287	1.2796e+02	-11.2409	-85.024097	0.000689	6.893220	2.335486	-0.000276
1288	1.2806e+02	-11.2713	-85.314771	0.000730	7.298703	2.472868	-0.000292
1289	1.2816e+02	-11.3243	-85.633705	0.000801	8.008300	2.713285	-0.000321
1290	1.2826e+02	-11.3596	-85.884007	0.000628	6.284995	2.129414	-0.000252
1291	1.2835e+02	-11.3901	-86.154495	0.000679	6.791849	2.301141	-0.000272
1292	1.2845e+02	-11.4350	-86.437095	0.000710	7.095962	2.404177	-0.000284
1293	1.2855e+02	-11.4783	-86.723731	0.000720	7.197333	2.438522	-0.000288
1294	1.2865e+02	-11.5216	-87.066888	0.000862	8.616525	2.919358	-0.000345
1295	1.2875e+02	-11.5489	-87.321227	0.000639	6.386366	2.163759	-0.000256
1296	1.2885e+02	-11.5938	-87.579604	0.000649	6.487736	2.198105	-0.000260
1297	1.2895e+02	-11.6403	-87.882389	0.000760	7.602816	2.575904	-0.000304
1298	1.2905e+02	-11.6756	-88.140766	0.000649	6.487736	2.198105	-0.000260
1299	1.2915e+02	-11.7189	-88.439514	0.000750	7.501445	2.541558	-0.000300
1300	1.2925e+02	-11.7574	-88.689816	0.000628	6.284995	2.129414	-0.000252
1301	1.2935e+02	-11.7975	-88.960305	0.000679	6.791849	2.301141	-0.000272
1302	1.2945e+02	-11.8264	-89.263090	0.000760	7.602816	2.575904	-0.000304
1303	1.2955e+02	-11.8745	-89.557801	0.000740	7.400074	2.507213	-0.000296
1304	1.2965e+02	-11.9098	-89.832326	0.000689	6.893220	2.335486	-0.000276
1305	1.2975e+02	-11.9483	-90.114925	0.000710	7.095962	2.404177	-0.000284
1306	1.2985e+02	-11.9884	-90.393488	0.000699	6.994591	2.369832	-0.000280
1307	1.2995e+02	-12.0462	-90.672050	0.000699	6.994591	2.369832	-0.000280
1308	1.3005e+02	-12.0751	-90.938501	0.000669	6.690478	2.266795	-0.000268
1309	1.3015e+02	-12.1136	-91.233212	0.000740	7.400074	2.507213	-0.000296
1310	1.3025e+02	-12.1633	-91.560220	0.000821	8.211041	2.781976	-0.000329
1311	1.3034e+02	-12.1938	-91.766114	0.000517	5.169915	1.751615	-0.000207
1312	1.3044e+02	-12.2419	-92.089085	0.000811	8.109670	2.747631	-0.000325
1313	1.3054e+02	-12.2708	-92.323239	0.000588	5.879511	1.992032	-0.000235
1314	1.3064e+02	-12.3125	-92.626024	0.000760	7.602816	2.575904	-0.000304
1315	1.3074e+02	-12.3590	-92.872289	0.000618	6.183624	2.095068	-0.000248
1316	1.3084e+02	-12.3927	-93.158926	0.000720	7.197333	2.438522	-0.000288
1317	1.3094e+02	-12.4344	-93.449599	0.000730	7.298703	2.472868	-0.000292
1318	1.3104e+02	-12.4697	-93.720088	0.000679	6.791849	2.301141	-0.000272
1319	1.3114e+02	-12.5130	-93.982501	0.000659	6.589107	2.232450	-0.000264
1320	1.3124e+02	-12.5419	-94.236841	0.000639	6.386366	2.163759	-0.000256
1321	1.3134e+02	-12.5964	-94.511366	0.000689	6.893220	2.335486	-0.000276
1322	1.3144e+02	-12.6462	-94.810114	0.000750	7.501445	2.541558	-0.000300
1323	1.3154e+02	-12.6750	-95.068491	0.000649	6.487736	2.198105	-0.000260
1324	1.3164e+02	-12.7184	-95.338979	0.000679	6.791849	2.301141	-0.000272
1325	1.3174e+02	-12.7472	-95.569096	0.000578	5.778140	1.957687	-0.000231
1326	1.3184e+02	-12.7922	-95.892067	0.000811	8.109670	2.747631	-0.000325
1327	1.3194e+02	-12.8371	-96.126220	0.000588	5.879511	1.992032	-0.000235
1328	1.3204e+02	-12.8627	-96.404783	0.000699	6.994591	2.369832	-0.000280
1329	1.3214e+02	-12.9141	-96.647011	0.000608	6.082253	2.060723	-0.000243
1330	1.3224e+02	-12.9397	-96.957870	0.000781	7.805558	2.644595	-0.000312
1331	1.3234e+02	-12.9879	-97.216247	0.000649	6.487736	2.198105	-0.000260
1332	1.3243e+02	-13.0264	-97.474624	0.000649	6.487736	2.198105	-0.000260
1333	1.3253e+02	-13.0697	-97.761260	0.000720	7.197333	2.438522	-0.000288
1334	1.3263e+02	-13.1162	-98.027711	0.000669	6.690478	2.266795	-0.000268
1335	1.3273e+02	-13.1579	-98.237642	0.000527	5.271286	1.785960	-0.000211
1336	1.3283e+02	-13.1964	-98.524279	0.000720	7.197333	2.438522	-0.000288
1337	1.3293e+02	-13.2333	-98.774582	0.000628	6.284995	2.129414	-0.000252
1338	1.3303e+02	-13.2718	-99.041032	0.000669	6.690478	2.266795	-0.000268
1339	1.3313e+02	-13.3087	-99.368040	0.000821	8.211041	2.781976	-0.000329
1340	1.3323e+02	-13.3536	-99.573934	0.000517	5.169915	1.751615	-0.000207
1341	1.3333e+02	-13.3937	-99.876720	0.000760	7.602816	2.575904	-0.000304
1342	1.3343e+02	-13.4322	-100.082614	0.000517	5.169915	1.751615	-0.000207
1343	1.3353e+02	-13.4723	-100.393473	0.000781	7.805558	2.644595	-0.000312
1344	1.3363e+02	-13.5092	-100.623590	0.000578	5.778140	1.957687	-0.000231
1345	1.3373e+02	-13.5510	-100.918301	0.000740	7.400074	2.507213	-0.000296
1346	1.3383e+02	-13.5927	-101.172640	0.000639	6.386366	2.163759	-0.000256
1347	1.3393e+02	-13.6247	-101.426980	0.000639	6.386366	2.163759	-0.000256
1348	1.3403e+02	-13.6665	-101.701505	0.000689	6.893220	2.335486	-0.000276
1349	1.3413e+02	-13.7114	-101.939696	0.000598	5.980882	2.026378	-0.000239
1350	1.3423e+02	-13.7531	-102.218258	0.000699	6.994591	2.369832	-0.000280
1351	1.3432e+02	-13.7916	-102.512969	0.000740	7.400074	2.507213	-0.000296
1352	1.3442e+02	-13.8317	-102.767309	0.000639	6.386366	2.163759	-0.000256
1353	1.3452e+02	-13.8718	-103.009537	0.000608	6.082253	2.060723	-0.000243
1354	1.3462e+02	-13.9071	-103.223505	0.000537	5.372657	1.820305	-0.000215
1355	1.3472e+02	-13.9456	-103.554550	0.000831	8.312412	2.816322	-0.000333
1356	1.3482e+02	-13.9889	-103.760444	0.000517	5.169915	1.751615	-0.000207
1357	1.3492e+02	-14.0274	-104.039007	0.000699	6.994591	2.369832	-0.000280
1358	1.3502e+02	-14.0675	-104.305457	0.000669	6.690478	2.266795	-0.000268
1359	1.3512e+02	-14.1028	-104.575946	0.000679	6.791849	2.301141	-0.000272
1360	1.3522e+02	-14.1541	-104.878731	0.000760	7.602816	2.575904	-0.000304
1361	1.3532e+02	-14.1878	-105.120959	0.000608	6.082253	2.060723	-0.000243
1362	1.3542e+02	-14.2247	-105.371261	0.000628	6.284995	2.129414	-0.000252
1363	1.3552e+02	-14.2616	-105.617527	0.000618	6.183624	2.095068	-0.000248
1364	1.3562e+02	-14.3033	-105.888015	0.000679	6.791849	2.301141	-0.000272
1365	1.3572e+02	-14.3483	-106.162540	0.000689	6.893220	2.335486	-0.000276
1366	1.3582e+02	-14.3819	-106.388620	0.000568	5.676769	1.923342	-0.000227
1367	1.3592e+02	-14.4237	-106.642959	0.000639	6.386366	2.163759	-0.000256
1368	1.3602e+02	-14.4734	-106.885187	0.000608	6.082253	2.060723	-0.000243
1369	1.3612e+02	-14.5087	-107.212195	0.000821	8.211041	2.781976	-0.000329
1370	1.3622e+02	-14.5456	-107.430201	0.000547	5.474028	1.854651	-0.000219
1371	1.3631e+02	-14.5857	-107.692614	0.000659	6.589107	2.232450	-0.000264
1372	1.3641e+02	-14.6258	-107.967140	0.000689	6.893220	2.335486	-0.000276
1373	1.3651e+02	-14.6659	-108.177071	0.000527	5.271286	1.785960	-0.000211
1374	1.3661e+02	-14.7012	-108.467744	0.000730	7.298703	2.472868	-0.000292
1375	1.3671e+02	-14.7413	-108.750344	0.000710	7.095962	2.404177	-0.000284
1376	1.3681e+02	-14.7782	-109.004683	0.000639	6.386366	2.163759	-0.000256
1377	1.3691e+02	-14.8247	-109.267097	0.000659	6.589107	2.232450	-0.000264
1378	1.3701e+02	-14.8616	-109.489140	0.000558	5.575398	1.888996	-0.000223
1379	1.3711e+02	-14.9049	-109.791925	0.000760	7.602816	2.575904	-0.000304
1380	1.3721e+02	-14.9547	-110.001856	0.000527	5.271286	1.785960	-0.000211
1381	1.3731e+02	-14.9835	-110.308678	0.000770	7.704187	2.610249	-0.000308
1382	1.3741e+02	-15.0268	-110.526684	0.000547	5.474028	1.854651	-0.000219
1383	1.3751e+02	-15.0541	-110.809283	0.000710	7.095962	2.404177	-0.000284
1384	1.3761e+02	-15.1039	-111.071697	0.000659	6.589107	2.232450	-0.000264
1385	1.3771e+02	-15.1472	-111.301814	0.000578	5.778140	1.957687	-0.000231
1386	1.3781e+02	-15.1841	-111.556153	0.000639	6.386366	2.163759	-0.000256
1387	1.3791e+02	-15.2226	-111.842790	0.000720	7.197333	2.438522	-0.000288
1388	1.3801e+02	-15.2691	-112.080981	0.000598	5.980882	2.026378	-0.000239
1389	1.3811e+02	-15.3028	-112.367618	0.000720	7.197333	2.438522	-0.000288
1390	1.3821e+02	-15.3413	-112.654254	0.000720	7.197333	2.438522	-0.000288
1391	1.3831e+02	-15.3814	-112.860148	0.000517	5.169915	1.751615	-0.000207
1392	1.3840e+02	-15.4279	-113.146785	0.000720	7.197333	2.438522	-0.000288
1393	1.3850e+02	-15.4536	-113.372864	0.000568	5.676769	1.923342	-0.000227
1394	1.3860e+02	-15.5033	-113.590870	0.000547	5.474028	1.854651	-0.000219
1395	1.3870e+02	-15.5402	-113.913841	0.000811	8.109670	2.747631	-0.000325
1396	1.3880e+02	-15.5803	-114.168180	0.000639	6.386366	2.163759	-0.000256
1397	1.3890e+02	-15.6236	-114.386185	0.000547	5.474028	1.854651	-0.000219
1398	1.3900e+02	-15.6589	-114.648599	0.000659	6.589107	2.232450	-0.000264
1399	1.3910e+02	-15.7151	-114.898902	0.000628	6.284995	2.129414	-0.000252
1400	1.3920e+02	-15.7391	-115.169390	0.000679	6.791849	2.301141	-0.000272
1401	1.3930e+02	-15.7889	-115.411618	0.000608	6.082253	2.060723	-0.000243
1402	1.3940e+02	-15.8193	-115.674032	0.000659	6.589107	2.232450	-0.000264
1403	1.3950e+02	-15.8627	-115.988928	0.000791	7.906929	2.678940	-0.000316
1404	1.3960e+02	-15.9076	-116.223082	0.000588	5.879511	1.992032	-0.000235
1405	1.3970e+02	-15.9364	-116.489533	0.000669	6.690478	2.266795	-0.000268
1406	1.3980e+02	-15.9830	-116.715613	0.000568	5.676769	1.923342	-0.000227
1407	1.3990e+02	-16.0263	-117.038584	0.000811	8.109670	2.747631	-0.000325
1408	1.4000e+02	-16.0584	-117.300997	0.000659	6.589107	2.232450	-0.000264
1409	1.4010e+02	-16.0969	-117.547263	0.000618	6.183624	2.095068	-0.000248
1410	1.4020e+02	-16.1434	-117.809677	0.000659	6.589107	2.232450	-0.000264
1411	1.4029e+02	-16.1819	-118.051905	0.000608	6.082253	2.060723	-0.000243
1412	1.4039e+02	-16.2188	-118.382950	0.000831	8.312412	2.816322	-0.000333
1413	1.4049e+02	-16.2621	-118.621141	0.000598	5.980882	2.026378	-0.000239
1414	1.4059e+02	-16.3038	-118.895666	0.000689	6.893220	2.335486	-0.000276
1415	1.4069e+02	-16.3407	-119.186340	0.000730	7.298703	2.472868	-0.000292
1416	1.4079e+02	-16.3824	-119.392234	0.000517	5.169915	1.751615	-0.000207
1417	1.4089e+02	-16.4225	-119.642536	0.000628	6.284995	2.129414	-0.000252
1418	1.4099e+02	-16.4546	-119.953396	0.000781	7.805558	2.644595	-0.000312
1419	1.4109e+02	-16.4931	-120.211772	0.000649	6.487736	2.198105	-0.000260
1420	1.4119e+02	-16.5428	-120.494372	0.000710	7.095962	2.404177	-0.000284
1421	1.4129e+02	-16.5830	-120.748711	0.000639	6.386366	2.163759	-0.000256
1422	1.4139e+02	-16.6118	-121.027274	0.000699	6.994591	2.369832	-0.000280
1423	1.4149e+02	-16.6632	-121.265465	0.000598	5.980882	2.026378	-0.000239
1424	1.4159e+02	-16.7033	-121.544027	0.000699	6.994591	2.369832	-0.000280
1425	1.4169e+02	-16.7418	-121.822589	0.000699	6.994591	2.369832	-0.000280
1426	1.4179e+02	-16.7819	-122.060780	0.000598	5.980882	2.026378	-0.000239
1427	1.4189e+02	-16.8156	-122.347417	0.000720	7.197333	2.438522	-0.000288
1428	1.4199e+02	-16.8557	-122.654239	0.000770	7.704187	2.610249	-0.000308
1429	1.4209e+02	-16.8942	-122.888393	0.000588	5.879511	1.992032	-0.000235
1430	1.4219e+02	-16.9247	-123.146770	0.000649	6.487736	2.198105	-0.000260
1431	1.4228e+02	-16.9808	-123.429369	0.000710	7.095962	2.404177	-0.000284
1432	1.4238e+02	-17.0145	-123.703895	0.000689	6.893220	2.335486	-0.000276
1433	1.4248e+02	-17.0562	-123.990531	0.000720	7.197333	2.438522	-0.000288
1434	1.4258e+02	-17.0947	-124.252945	0.000659	6.589107	2.232450	-0.000264
1435	1.4268e+02	-17.1396	-124.555730	0.000760	7.602816	2.575904	-0.000304
1436	1.4278e+02	-17.1781	-124.858516	0.000760	7.602816	2.575904	-0.000304
1437	1.4288e+02	-17.2086	-125.084595	0.000568	5.676769	1.923342	-0.000227
1438	1.4298e+02	-17.2535	-125.371232	0.000720	7.197333	2.438522	-0.000288
1439	1.4308e+02	-17.2984	-125.669980	0.000750	7.501445	2.541558	-0.000300
1440	1.4318e+02	-17.3353	-125.908171	0.000598	5.980882	2.026378	-0.000239
1441	1.4328e+02	-17.3754	-126.210956	0.000760	7.602816	2.575904	-0.000304
1442	1.4338e+02	-17.4139	-126.485481	0.000689	6.893220	2.335486	-0.000276
1443	1.4348e+02	-17.4653	-126.760006	0.000689	6.893220	2.335486	-0.000276
1444	1.4358e+02	-17.5006	-127.030495	0.000679	6.791849	2.301141	-0.000272
1445	1.4368e+02	-17.5455	-127.296946	0.000669	6.690478	2.266795	-0.000268
1446	1.4378e+02	-17.5728	-127.579545	0.000710	7.095962	2.404177	-0.000284
1447	1.4388e+02	-17.6193	-127.894442	0.000791	7.906929	2.678940	-0.000316
1448	1.4398e+02	-17.6530	-128.148781	0.000639	6.386366	2.163759	-0.000256
1449	1.4408e+02	-17.6851	-128.463678	0.000791	7.906929	2.678940	-0.000316
1450	1.4418e+02	-17.7380	-128.734166	0.000679	6.791849	2.301141	-0.000272
1451	1.4428e+02	-17.7765	-129.049062	0.000791	7.906929	2.678940	-0.000316
1452	1.4437e+02	-17.8134	-129.287253	0.000598	5.980882	2.026378	-0.000239
1453	1.4447e+02	-17.8471	-129.610224	0.000811	8.109670	2.747631	-0.000325
1454	1.4457e+02	-17.8840	-129.872638	0.000659	6.589107	2.232450	-0.000264
1455	1.4467e+02	-17.9369	-130.143126	0.000679	6.791849	2.301141	-0.000272
1456	1.4477e+02	-17.9754	-130.437837	0.000740	7.400074	2.507213	-0.000296
1457	1.4487e+02	-18.0139	-130.744659	0.000770	7.704187	2.610249	-0.000308
1458	1.4497e+02	-18.0540	-131.071667	0.000821	8.211041	2.781976	-0.000329
1459	1.4507e+02	-18.0957	-131.354267	0.000710	7.095962	2.404177	-0.000284
1460	1.4517e+02	-18.1375	-131.648978	0.000740	7.400074	2.507213	-0.000296
1461	1.4527e+02	-18.1808	-131.955800	0.000770	7.704187	2.610249	-0.000308
1462	1.4537e+02	-18.2080	-132.226288	0.000679	6.791849	2.301141	-0.000272
1463	1.4547e+02	-18.2449	-132.525036	0.000750	7.501445	2.541558	-0.000300
1464	1.4557e+02	-18.2899	-132.823784	0.000750	7.501445	2.541558	-0.000300
1465	1.4567e+02	-18.3316	-133.118495	0.000740	7.400074	2.507213	-0.000296
1466	1.4577e+02	-18.3765	-133.397058	0.000699	6.994591	2.369832	-0.000280
1467	1.4587e+02	-18.4166	-133.687731	0.000730	7.298703	2.472868	-0.000292
1468	1.4597e+02	-18.4551	-134.010702	0.000811	8.109670	2.747631	-0.000325
1469	1.4607e+02	-18.4920	-134.289265	0.000699	6.994591	2.369832	-0.000280
1470	1.4617e+02	-18.5353	-134.616273	0.000821	8.211041	2.781976	-0.000329
1471	1.4626e+02	-18.5722	-134.923095	0.000770	7.704187	2.610249	-0.000308
1472	1.4636e+02	-18.5995	-135.250103	0.000821	8.211041	2.781976	-0.000329
1473	1.4646e+02	-18.6508	-135.528665	0.000699	6.994591	2.369832	-0.000280
1474	1.4656e+02	-18.6957	-135.875859	0.000872	8.717896	2.953703	-0.000349
1475	1.4666e+02	-18.7342	-136.146347	0.000679	6.791849	2.301141	-0.000272
1476	1.4676e+02	-18.7679	-136.477392	0.000831	8.312412	2.816322	-0.000333
1477	1.4686e+02	-18.8016	-136.788252	0.000781	7.805558	2.644595	-0.000312
1478	1.4696e+02	-18.8433	-137.127371	0.000852	8.515154	2.885012	-0.000341
1479	1.4706e+02	-18.8898	-137.422082	0.000740	7.400074	2.507213	-0.000296
1480	1.4716e+02	-18.9332	-137.757164	0.000841	8.413783	2.850667	-0.000337
1481	1.4726e+02	-18.9668	-138.051875	0.000740	7.400074	2.507213	-0.000296
1482	1.4736e+02	-19.0134	-138.407143	0.000892	8.920638	3.022394	-0.000357
1483	1.4746e+02	-19.0503	-138.697817	0.000730	7.298703	2.472868	-0.000292
1484	1.4756e+02	-19.0888	-139.065196	0.000922	9.224750	3.125430	-0.000369
1485	1.4766e+02	-19.1241	-139.335684	0.000679	6.791849	2.301141	-0.000272
1486	1.4776e+02	-19.1674	-139.654618	0.000801	8.008300	2.713285	-0.000321
1487	1.4786e+02	-19.2075	-139.953366	0.000750	7.501445	2.541558	-0.000300
1488	1.4796e+02	-19.2588	-140.312671	0.000902	9.022008	3.056739	-0.000361
1489	1.4806e+02	-19.2877	-140.607382	0.000740	7.400074	2.507213	-0.000296
1490	1.4816e+02	-19.3310	-140.938427	0.000831	8.312412	2.816322	-0.000333
1491	1.4825e+02	-19.3615	-141.297732	0.000902	9.022008	3.056739	-0.000361
1492	1.4835e+02	-19.4128	-141.608592	0.000781	7.805558	2.644595	-0.000312
1493	1.4845e+02	-19.4449	-141.959823	0.000882	8.819267	2.988048	-0.000353
1494	1.4855e+02	-19.4850	-142.238385	0.000699	6.994591	2.369832	-0.000280
1495	1.4865e+02	-19.5299	-142.654210	0.001044	10.441201	3.537575	-0.000418
1496	1.4875e+02	-19.5588	-142.944884	0.000730	7.298703	2.472868	-0.000292
1497	1.4885e+02	-19.6166	-143.288040	0.000862	8.616525	2.919358	-0.000345
1498	1.4895e+02	-19.6438	-143.538343	0.000628	6.284995	2.129414	-0.000252
1499	1.4905e+02	-19.6823	-143.917833	0.000953	9.528863	3.228466	-0.000381
1500	1.4915e+02	-19.7144	-144.289250	0.000933	9.326121	3.159775	-0.000373
1501	1.4925e+02	-19.7625	-144.636444	0.000872	8.717896	2.953703	-0.000349
1502	1.4935e+02	-19.8010	-144.979600	0.000862	8.616525	2.919358	-0.000345
1503	1.4945e+02	-19.8428	-145.278348	0.000750	7.501445	2.541558	-0.000300
1504	1.4955e+02	-19.8909	-145.617468	0.000852	8.515154	2.885012	-0.000341
1505	1.4965e+02	-19.9230	-145.960624	0.000862	8.616525	2.919358	-0.000345
1506	1.4975e+02	-19.9615	-146.328003	0.000922	9.224750	3.125430	-0.000369
1507	1.4985e+02	-20.0032	-146.679234	0.000882	8.819267	2.988048	-0.000353
1508	1.4995e+02	-19.9647	-146.675197	0.000010	0.101371	0.034345	0.000004
1509	1.5005e+02	-19.9326	-146.618677	0.000142	1.419192	0.480835	0.000057
1510	1.5015e+02	-19.8780	-146.582343	0.000091	0.912338	0.309108	0.000037
1511	1.5025e+02	-19.8428	-146.574269	0.000020	0.202742	0.068691	0.000008
1512	1.5034e+02	-19.7994	-146.505637	0.000172	1.723305	0.583872	0.000069
1513	1.5044e+02	-19.7674	-146.461229	0.000112	1.115080	0.377799	0.000045
1514	1.5054e+02	-19.7256	-146.376449	0.000213	2.128789	0.721253	0.000085
1515	1.5064e+02	-19.6839	-146.352226	0.000061	0.608225	0.206072	0.000024
1516	1.5074e+02	-19.6438	-146.275521	0.000193	1.926047	0.652562	0.000077
1517	1.5084e+02	-19.6021	-146.154407	0.000304	3.041126	1.030362	0.000122
1518	1.5094e+02	-19.5636	-146.081738	0.000182	1.824676	0.618217	0.000073
1519	1.5104e+02	-19.5139	-145.972735	0.000274	2.737014	0.927325	0.000110
1520	1.5114e+02	-19.4898	-145.912178	0.000152	1.520563	0.515181	0.000061
1521	1.5124e+02	-19.4449	-145.791064	0.000304	3.041126	1.030362	0.000122
1522	1.5134e+02	-19.4080	-145.698210	0.000233	2.331530	0.789944	0.000093
1523	1.5144e+02	-19.3647	-145.601319	0.000243	2.432901	0.824289	0.000097
1524	1.5154e+02	-19.3262	-145.532688	0.000172	1.723305	0.583872	0.000069
1525	1.5164e+02	-19.2813	-145.387351	0.000365	3.649352	1.236434	0.000146
1526	1.5174e+02	-19.2556	-145.237977	0.000375	3.750723	1.270779	0.000150
1527	1.5184e+02	-19.2139	-145.133011	0.000264	2.635643	0.892980	0.000105
1528	1.5194e+02	-19.1626	-145.028046	0.000264	2.635643	0.892980	0.000105
1529	1.5204e+02	-19.1257	-144.874635	0.000385	3.852093	1.305125	0.000154
1530	1.5214e+02	-19.0888	-144.793892	0.000203	2.027418	0.686908	0.000081
1531	1.5224e+02	-19.0535	-144.624332	0.000426	4.257577	1.442506	0.000170
1532	1.5233e+02	-19.0086	-144.499181	0.000314	3.142497	1.064707	0.000126
1533	1.5243e+02	-18.9717	-144.353844	0.000365	3.649352	1.236434	0.000146
1534	1.5253e+02	-18.9299	-144.236767	0.000294	2.939756	0.996016	0.000118
1535	1.5263e+02	-18.8930	-144.127764	0.000274	2.737014	0.927325	0.000110
1536	1.5273e+02	-18.8481	-143.970316	0.000395	3.953464	1.339470	0.000158
1537	1.5283e+02	-18.8048	-143.812868	0.000395	3.953464	1.339470	0.000158
1538	1.5293e+02	-18.7695	-143.703865	0.000274	2.737014	0.927325	0.000110
1539	1.5303e+02	-18.7294	-143.506046	0.000497	4.967173	1.682924	0.000199
1540	1.5313e+02	-18.6877	-143.409154	0.000243	2.432901	0.824289	0.000097
1541	1.5323e+02	-18.6460	-143.279966	0.000324	3.243868	1.099052	0.000130
1542	1.5333e+02	-18.6171	-143.086183	0.000487	4.865802	1.648578	0.000195
1543	1.5343e+02	-18.5770	-142.961032	0.000314	3.142497	1.064707	0.000126
1544	1.5353e+02	-18.5257	-142.835881	0.000314	3.142497	1.064707	0.000126
1545	1.5363e+02	-18.4920	-142.674396	0.000405	4.054835	1.373815	0.000162
1546	1.5373e+02	-18.4487	-142.496762	0.000446	4.460319	1.511197	0.000179
1547	1.5383e+02	-18.4134	-142.335276	0.000405	4.054835	1.373815	0.000162
1548	1.5393e+02	-18.3861	-142.250496	0.000213	2.128789	0.721253	0.000085
1549	1.5403e+02	-18.3332	-142.084974	0.000416	4.156206	1.408161	0.000166
1550	1.5413e+02	-18.2963	-141.947711	0.000345	3.446610	1.167743	0.000138
1551	1.5422e+02	-18.2514	-141.753929	0.000487	4.865802	1.648578	0.000195
1552	1.5432e+02	-18.2209	-141.572257	0.000456	4.561690	1.545542	0.000183
1553	1.5442e+02	-18.1808	-141.402698	0.000426	4.257577	1.442506	0.000170
1554	1.5452e+02	-18.1326	-141.257361	0.000365	3.649352	1.236434	0.000146
1555	1.5462e+02	-18.0925	-141.063578	0.000487	4.865802	1.648578	0.000195
1556	1.5472e+02	-18.0621	-140.881907	0.000456	4.561690	1.545542	0.000183
1557	1.5482e+02	-18.0123	-140.756756	0.000314	3.142497	1.064707	0.000126
1558	1.5492e+02	-17.9690	-140.595271	0.000405	4.054835	1.373815	0.000162
1559	1.5502e+02	-17.9369	-140.449934	0.000365	3.649352	1.236434	0.000146
1560	1.5512e+02	-17.8920	-140.252114	0.000497	4.967173	1.682924	0.000199
1561	1.5522e+02	-17.8535	-140.090629	0.000405	4.054835	1.373815	0.000162
1562	1.5532e+02	-17.8134	-139.933180	0.000395	3.953464	1.339470	0.000158
1563	1.5542e+02	-17.7781	-139.755546	0.000446	4.460319	1.511197	0.000179
1564	1.5552e+02	-17.7300	-139.569838	0.000466	4.663061	1.579888	0.000187
1565	1.5562e+02	-17.6931	-139.464873	0.000264	2.635643	0.892980	0.000105
1566	1.5572e+02	-17.6482	-139.218607	0.000618	6.183624	2.095068	0.000248
1567	1.5582e+02	-17.6241	-139.073270	0.000365	3.649352	1.236434	0.000146
1568	1.5592e+02	-17.5712	-138.919859	0.000385	3.852093	1.305125	0.000154
1569	1.5602e+02	-17.5359	-138.713965	0.000517	5.169915	1.751615	0.000207
1570	1.5612e+02	-17.4958	-138.536331	0.000446	4.460319	1.511197	0.000179
1571	1.5622e+02	-17.4428	-138.407143	0.000324	3.243868	1.099052	0.000130
1572	1.5631e+02	-17.4172	-138.209323	0.000497	4.967173	1.682924	0.000199
1573	1.5641e+02	-17.3803	-138.076098	0.000335	3.345239	1.133398	0.000134
1574	1.5651e+02	-17.3418	-137.890390	0.000466	4.663061	1.579888	0.000187
1575	1.5661e+02	-17.2984	-137.728904	0.000405	4.054835	1.373815	0.000162
1576	1.5671e+02	-17.2583	-137.555307	0.000436	4.358948	1.476852	0.000174
1577	1.5681e+02	-17.2070	-137.333265	0.000558	5.575398	1.888996	0.000223
1578	1.5691e+02	-17.1878	-137.216188	0.000294	2.939756	0.996016	0.000118
1579	1.5701e+02	-17.1428	-136.986071	0.000578	5.778140	1.957687	0.000231
1580	1.5711e+02	-17.0979	-136.844772	0.000355	3.547981	1.202088	0.000142
1581	1.5721e+02	-17.0594	-136.638878	0.000517	5.169915	1.751615	0.000207
1582	1.5731e+02	-17.0081	-136.477392	0.000405	4.054835	1.373815	0.000162
1583	1.5741e+02	-16.9728	-136.344167	0.000335	3.345239	1.133398	0.000134
1584	1.5751e+02	-16.9407	-136.138273	0.000517	5.169915	1.751615	0.000207
1585	1.5761e+02	-16.8990	-135.932379	0.000517	5.169915	1.751615	0.000207
1586	1.5771e+02	-16.8605	-135.758782	0.000436	4.358948	1.476852	0.000174
1587	1.5781e+02	-16.8188	-135.601334	0.000395	3.953464	1.339470	0.000158
1588	1.5791e+02	-16.7755	-135.407551	0.000487	4.865802	1.648578	0.000195
1589	1.5801e+02	-16.7386	-135.205694	0.000507	5.068544	1.717269	0.000203
1590	1.5811e+02	-16.7097	-135.032098	0.000436	4.358948	1.476852	0.000174
1591	1.5821e+02	-16.6600	-134.882724	0.000375	3.750723	1.270779	0.000150
1592	1.5830e+02	-16.6231	-134.688941	0.000487	4.865802	1.648578	0.000195
1593	1.5840e+02	-16.5733	-134.487084	0.000507	5.068544	1.717269	0.000203
1594	1.5850e+02	-16.5316	-134.313487	0.000436	4.358948	1.476852	0.000174
1595	1.5860e+02	-16.4947	-134.143928	0.000426	4.257577	1.442506	0.000170
1596	1.5870e+02	-16.4594	-133.950145	0.000487	4.865802	1.648578	0.000195
1597	1.5880e+02	-16.4129	-133.760400	0.000476	4.764431	1.614233	0.000191
1598	1.5890e+02	-16.3776	-133.574692	0.000466	4.663061	1.579888	0.000187
1599	1.5900e+02	-16.3471	-133.401095	0.000436	4.358948	1.476852	0.000174
1600	1.5910e+02	-16.3022	-133.219424	0.000456	4.561690	1.545542	0.000183
1601	1.5920e+02	-16.2621	-133.029678	0.000476	4.764431	1.614233	0.000191
1602	1.5930e+02	-16.2236	-132.831859	0.000497	4.967173	1.682924	0.000199
1603	1.5940e+02	-16.1739	-132.654225	0.000446	4.460319	1.511197	0.000179
1604	1.5950e+02	-16.1466	-132.452368	0.000507	5.068544	1.717269	0.000203
1605	1.5960e+02	-16.0937	-132.266660	0.000466	4.663061	1.579888	0.000187
1606	1.5970e+02	-16.0568	-132.097100	0.000426	4.257577	1.442506	0.000170
1607	1.5980e+02	-16.0215	-131.891206	0.000517	5.169915	1.751615	0.000207
1608	1.5990e+02	-15.9717	-131.693386	0.000497	4.967173	1.682924	0.000199
1609	1.6000e+02	-15.9381	-131.519790	0.000436	4.358948	1.476852	0.000174
1610	1.6010e+02	-15.9028	-131.342156	0.000446	4.460319	1.511197	0.000179
1611	1.6019e+02	-15.8643	-131.168559	0.000436	4.358948	1.476852	0.000174
1612	1.6029e+02	-15.8161	-130.970739	0.000497	4.967173	1.682924	0.000199
1613	1.6039e+02	-15.7873	-130.744659	0.000568	5.676769	1.923342	0.000227
1614	1.6049e+02	-15.7439	-130.575100	0.000426	4.257577	1.442506	0.000170
1615	1.6059e+02	-15.7038	-130.405540	0.000426	4.257577	1.442506	0.000170
1616	1.6069e+02	-15.6605	-130.147163	0.000649	6.487736	2.198105	0.000260
1617	1.6079e+02	-15.6188	-130.013938	0.000335	3.345239	1.133398	0.000134
1618	1.6089e+02	-15.5819	-129.812081	0.000507	5.068544	1.717269	0.000203
1619	1.6099e+02	-15.5322	-129.638484	0.000436	4.358948	1.476852	0.000174
1620	1.6109e+02	-15.5065	-129.436627	0.000507	5.068544	1.717269	0.000203
1621	1.6119e+02	-15.4600	-129.250919	0.000466	4.663061	1.579888	0.000187
1622	1.6129e+02	-15.4295	-129.032914	0.000547	5.474028	1.854651	0.000219
1623	1.6139e+02	-15.3782	-128.875466	0.000395	3.953464	1.339470	0.000158
1624	1.6149e+02	-15.3445	-128.669572	0.000517	5.169915	1.751615	0.000207
1625	1.6159e+02	-15.3012	-128.479826	0.000476	4.764431	1.614233	0.000191
1626	1.6169e+02	-15.2611	-128.294118	0.000466	4.663061	1.579888	0.000187
1627	1.6179e+02	-15.2210	-128.100336	0.000487	4.865802	1.648578	0.000195
1628	1.6189e+02	-15.1809	-127.862145	0.000598	5.980882	2.026378	0.000239
1629	1.6199e+02	-15.1407	-127.672399	0.000476	4.764431	1.614233	0.000191
1630	1.6209e+02	-15.1055	-127.470542	0.000507	5.068544	1.717269	0.000203
1631	1.6219e+02	-15.0637	-127.268686	0.000507	5.068544	1.717269	0.000203
1632	1.6228e+02	-15.0220	-127.074903	0.000487	4.865802	1.648578	0.000195
1633	1.6238e+02	-14.9900	-126.885158	0.000476	4.764431	1.614233	0.000191
1634	1.6248e+02	-14.9386	-126.703487	0.000456	4.561690	1.545542	0.000183
1635	1.6258e+02	-14.9001	-126.461258	0.000608	6.082253	2.060723	0.000243
1636	1.6268e+02	-14.8648	-126.295736	0.000416	4.156206	1.408161	0.000166
1637	1.6278e+02	-14.8247	-126.114065	0.000456	4.561690	1.545542	0.000183
1638	1.6288e+02	-14.7846	-125.932394	0.000456	4.561690	1.545542	0.000183
1639	1.6298e+02	-14.7477	-125.690166	0.000608	6.082253	2.060723	0.000243
1640	1.6308e+02	-14.7076	-125.520606	0.000426	4.257577	1.442506	0.000170
1641	1.6318e+02	-14.6643	-125.306638	0.000537	5.372657	1.820305	0.000215
1642	1.6328e+02	-14.6290	-125.165338	0.000355	3.547981	1.202088	0.000142
1643	1.6338e+02	-14.5777	-124.858516	0.000770	7.704187	2.610249	0.000308
1644	1.6348e+02	-14.5520	-124.721253	0.000345	3.446610	1.167743	0.000138
1645	1.6358e+02	-14.5071	-124.487099	0.000588	5.879511	1.992032	0.000235
1646	1.6368e+02	-14.4670	-124.345799	0.000355	3.547981	1.202088	0.000142
1647	1.6378e+02	-14.4269	-124.107608	0.000598	5.980882	2.026378	0.000239
1648	1.6388e+02	-14.3787	-123.905752	0.000507	5.068544	1.717269	0.000203
1649	1.6398e+02	-14.3483	-123.675635	0.000578	5.778140	1.957687	0.000231
1650	1.6408e+02	-14.3082	-123.538372	0.000345	3.446610	1.167743	0.000138
1651	1.6418e+02	-14.2729	-123.275958	0.000659	6.589107	2.232450	0.000264
1652	1.6427e+02	-14.2247	-123.078139	0.000497	4.967173	1.682924	0.000199
1653	1.6437e+02	-14.1846	-122.908579	0.000426	4.257577	1.442506	0.000170
1654	1.6447e+02	-14.1493	-122.714796	0.000487	4.865802	1.648578	0.000195
1655	1.6457e+02	-14.1092	-122.488717	0.000568	5.676769	1.923342	0.000227
1656	1.6467e+02	-14.0771	-122.270712	0.000547	5.474028	1.854651	0.000219
1657	1.6477e+02	-14.0274	-122.085003	0.000466	4.663061	1.579888	0.000187
1658	1.6487e+02	-13.9905	-121.862961	0.000558	5.575398	1.888996	0.000223
1659	1.6497e+02	-13.9456	-121.689364	0.000436	4.358948	1.476852	0.000174
1660	1.6507e+02	-13.9087	-121.479433	0.000527	5.271286	1.785960	0.000211
1661	1.6517e+02	-13.8670	-121.253353	0.000568	5.676769	1.923342	0.000227
1662	1.6527e+02	-13.8317	-121.059571	0.000487	4.865802	1.648578	0.000195
1663	1.6537e+02	-13.7884	-120.837528	0.000558	5.575398	1.888996	0.000223
1664	1.6547e+02	-13.7515	-120.595300	0.000608	6.082253	2.060723	0.000243
1665	1.6557e+02	-13.7162	-120.429778	0.000416	4.156206	1.408161	0.000166
1666	1.6567e+02	-13.6713	-120.207735	0.000558	5.575398	1.888996	0.000223
1667	1.6577e+02	-13.6312	-120.030101	0.000446	4.460319	1.511197	0.000179
1668	1.6587e+02	-13.5943	-119.808059	0.000558	5.575398	1.888996	0.000223
1669	1.6597e+02	-13.5510	-119.573905	0.000588	5.879511	1.992032	0.000235
1670	1.6607e+02	-13.5060	-119.331677	0.000608	6.082253	2.060723	0.000243
1671	1.6616e+02	-13.4659	-119.158080	0.000436	4.358948	1.476852	0.000174
1672	1.6626e+02	-13.4274	-118.919889	0.000598	5.980882	2.026378	0.000239
1673	1.6636e+02	-13.3905	-118.713995	0.000517	5.169915	1.751615	0.000207
1674	1.6646e+02	-13.3440	-118.504064	0.000527	5.271286	1.785960	0.000211
1675	1.6656e+02	-13.3167	-118.318356	0.000466	4.663061	1.579888	0.000187
1676	1.6666e+02	-13.2654	-118.080165	0.000598	5.980882	2.026378	0.000239
1677	1.6676e+02	-13.2269	-117.850048	0.000578	5.778140	1.957687	0.000231
1678	1.6686e+02	-13.1948	-117.632043	0.000547	5.474028	1.854651	0.000219
1679	1.6696e+02	-13.1515	-117.426149	0.000517	5.169915	1.751615	0.000207
1680	1.6706e+02	-13.1130	-117.252552	0.000436	4.358948	1.476852	0.000174
1681	1.6716e+02	-13.0729	-116.998212	0.000639	6.386366	2.163759	0.000256
1682	1.6726e+02	-13.0232	-116.776170	0.000558	5.575398	1.888996	0.000223
1683	1.6736e+02	-12.9815	-116.590462	0.000466	4.663061	1.579888	0.000187
1684	1.6746e+02	-12.9574	-116.352271	0.000598	5.980882	2.026378	0.000239
1685	1.6756e+02	-12.9205	-116.150414	0.000507	5.068544	1.717269	0.000203
1686	1.6766e+02	-12.8772	-115.944520	0.000517	5.169915	1.751615	0.000207
1687	1.6776e+02	-12.8226	-115.734589	0.000527	5.271286	1.785960	0.000211
1688	1.6786e+02	-12.7986	-115.520621	0.000537	5.372657	1.820305	0.000215
1689	1.6796e+02	-12.7553	-115.298578	0.000558	5.575398	1.888996	0.000223
1690	1.6806e+02	-12.7135	-115.076536	0.000558	5.575398	1.888996	0.000223
1691	1.6816e+02	-12.6799	-114.862567	0.000537	5.372657	1.820305	0.000215
1692	1.6825e+02	-12.6317	-114.648599	0.000537	5.372657	1.820305	0.000215
1693	1.6835e+02	-12.5996	-114.434631	0.000537	5.372657	1.820305	0.000215
1694	1.6845e+02	-12.5531	-114.196440	0.000598	5.980882	2.026378	0.000239
1695	1.6855e+02	-12.5082	-114.059177	0.000345	3.446610	1.167743	0.000138
1696	1.6865e+02	-12.4793	-113.776578	0.000710	7.095962	2.404177	0.000284
1697	1.6875e+02	-12.4344	-113.558573	0.000547	5.474028	1.854651	0.000219
1698	1.6885e+02	-12.3927	-113.360753	0.000497	4.967173	1.682924	0.000199
1699	1.6895e+02	-12.3558	-113.122562	0.000598	5.980882	2.026378	0.000239
1700	1.6905e+02	-12.3157	-112.900519	0.000558	5.575398	1.888996	0.000223
1701	1.6915e+02	-12.2708	-112.682514	0.000547	5.474028	1.854651	0.000219
1702	1.6925e+02	-12.2371	-112.432212	0.000628	6.284995	2.129414	0.000252
1703	1.6935e+02	-12.2002	-112.222281	0.000527	5.271286	1.785960	0.000211
1704	1.6945e+02	-12.1473	-112.000238	0.000558	5.575398	1.888996	0.000223
1705	1.6955e+02	-12.1200	-111.794344	0.000517	5.169915	1.751615	0.000207
1706	1.6965e+02	-12.0847	-111.576339	0.000547	5.474028	1.854651	0.000219
1707	1.6975e+02	-12.0334	-111.358334	0.000547	5.474028	1.854651	0.000219
1708	1.6985e+02	-11.9997	-111.120143	0.000598	5.980882	2.026378	0.000239
1709	1.6995e+02	-11.9676	-110.877914	0.000608	6.082253	2.060723	0.000243
1710	1.7005e+02	-11.9211	-110.688169	0.000476	4.764431	1.614233	0.000191
1711	1.7015e+02	-11.8745	-110.470164	0.000547	5.474028	1.854651	0.000219
1712	1.7024e+02	-11.8457	-110.244084	0.000568	5.676769	1.923342	0.000227
1713	1.7034e+02	-11.7943	-110.042227	0.000507	5.068544	1.717269	0.000203
1714	1.7044e+02	-11.7542	-109.779814	0.000659	6.589107	2.232450	0.000264
1715	1.7054e+02	-11.7173	-109.590068	0.000476	4.764431	1.614233	0.000191
1716	1.7064e+02	-11.6804	-109.347840	0.000608	6.082253	2.060723	0.000243
1717	1.7074e+02	-11.6387	-109.109649	0.000598	5.980882	2.026378	0.000239
1718	1.7084e+02	-11.5922	-108.903755	0.000517	5.169915	1.751615	0.000207
1719	1.7094e+02	-11.5745	-108.685750	0.000547	5.474028	1.854651	0.000219
1720	1.7104e+02	-11.5216	-108.475819	0.000527	5.271286	1.785960	0.000211
1721	1.7114e+02	-11.4719	-108.189182	0.000720	7.197333	2.438522	0.000288
1722	1.7124e+02	-11.4398	-107.979251	0.000527	5.271286	1.785960	0.000211
1723	1.7134e+02	-11.3949	-107.745097	0.000588	5.879511	1.992032	0.000235
1724	1.7144e+02	-11.3676	-107.494795	0.000628	6.284995	2.129414	0.000252
1725	1.7154e+02	-11.3243	-107.280827	0.000537	5.372657	1.820305	0.000215
1726	1.7164e+02	-11.2810	-107.050710	0.000578	5.778140	1.957687	0.000231
1727	1.7174e+02	-11.2377	-106.836742	0.000537	5.372657	1.820305	0.000215
1728	1.7184e+02	-11.1959	-106.614699	0.000558	5.575398	1.888996	0.000223
1729	1.7194e+02	-11.1590	-106.380545	0.000588	5.879511	1.992032	0.000235
1730	1.7204e+02	-11.1270	-106.146391	0.000588	5.879511	1.992032	0.000235
1731	1.7213e+02	-11.0772	-105.912238	0.000588	5.879511	1.992032	0.000235
1732	1.7223e+02	-11.0467	-105.665972	0.000618	6.183624	2.095068	0.000248
1733	1.7233e+02	-11.0018	-105.403558	0.000659	6.589107	2.232450	0.000264
1734	1.7243e+02	-10.9601	-105.213813	0.000476	4.764431	1.614233	0.000191
1735	1.7253e+02	-10.9264	-104.947362	0.000669	6.690478	2.266795	0.000268
1736	1.7263e+02	-10.8783	-104.745505	0.000507	5.068544	1.717269	0.000203
1737	1.7273e+02	-10.8478	-104.503277	0.000608	6.082253	2.060723	0.000243
1738	1.7283e+02	-10.8013	-104.313532	0.000476	4.764431	1.614233	0.000191
1739	1.7293e+02	-10.7532	-104.039007	0.000689	6.893220	2.335486	0.000276
1740	1.7303e+02	-10.7147	-103.825038	0.000537	5.372657	1.820305	0.000215
1741	1.7313e+02	-10.6794	-103.562625	0.000659	6.589107	2.232450	0.000264
1742	1.7323e+02	-10.6457	-103.336545	0.000568	5.676769	1.923342	0.000227
1743	1.7333e+02	-10.6040	-103.098354	0.000598	5.980882	2.026378	0.000239
1744	1.7343e+02	-10.5607	-102.876311	0.000558	5.575398	1.888996	0.000223
1745	1.7353e+02	-10.5254	-102.682529	0.000487	4.865802	1.648578	0.000195
1746	1.7363e+02	-10.4805	-102.420115	0.000659	6.589107	2.232450	0.000264
1747	1.7373e+02	-10.4371	-102.181924	0.000598	5.980882	2.026378	0.000239
1748	1.7383e+02	-10.4034	-101.947770	0.000588	5.879511	1.992032	0.000235
1749	1.7393e+02	-10.3617	-101.669208	0.000699	6.994591	2.369832	0.000280
1750	1.7403e+02	-10.3297	-101.495611	0.000436	4.358948	1.476852	0.000174
1751	1.7413e+02	-10.2799	-101.245309	0.000628	6.284995	2.129414	0.000252
1752	1.7422e+02	-10.2398	-100.986932	0.000649	6.487736	2.198105	0.000260
1753	1.7432e+02	-10.1997	-100.772964	0.000537	5.372657	1.820305	0.000215
1754	1.7442e+02	-10.1644	-100.554958	0.000547	5.474028	1.854651	0.000219
1755	1.7452e+02	-10.1227	-100.264285	0.000730	7.298703	2.472868	0.000292
1756	1.7462e+02	-10.0858	-100.058391	0.000517	5.169915	1.751615	0.000207
1757	1.7472e+02	-10.0553	-99.779828	0.000699	6.994591	2.369832	0.000280
1758	1.7482e+02	-9.9992	-99.569897	0.000527	5.271286	1.785960	0.000211
1759	1.7492e+02	-9.9591	-99.368040	0.000507	5.068544	1.717269	0.000203
1760	1.7502e+02	-9.9254	-99.105627	0.000659	6.589107	2.232450	0.000264
1761	1.7512e+02	-9.8837	-98.851287	0.000639	6.386366	2.163759	0.000256
1762	1.7522e+02	-9.8356	-98.609059	0.000608	6.082253	2.060723	0.000243
1763	1.7532e+02	-9.7987	-98.354719	0.000639	6.386366	2.163759	0.000256
1764	1.7542e+02	-9.7682	-98.120566	0.000588	5.879511	1.992032	0.000235
1765	1.7552e+02	-9.7265	-97.898523	0.000558	5.575398	1.888996	0.000223
1766	1.7562e+02	-9.6815	-97.619961	0.000699	6.994591	2.369832	0.000280
1767	1.7572e+02	-9.6398	-97.377733	0.000608	6.082253	2.060723	0.000243
1768	1.7582e+02	-9.6110	-97.119356	0.000649	6.487736	2.198105	0.000260
1769	1.7592e+02	-9.5676	-96.889239	0.000578	5.778140	1.957687	0.000231
1770	1.7602e+02	-9.5324	-96.683345	0.000517	5.169915	1.751615	0.000207
1771	1.7612e+02	-9.4842	-96.445154	0.000598	5.980882	2.026378	0.000239
1772	1.7621e+02	-9.4505	-96.158518	0.000720	7.197333	2.438522	0.000288
1773	1.7631e+02	-9.4104	-95.924364	0.000588	5.879511	1.992032	0.000235
1774	1.7641e+02	-9.3687	-95.661950	0.000659	6.589107	2.232450	0.000264
1775	1.7651e+02	-9.3222	-95.447982	0.000537	5.372657	1.820305	0.000215
1776	1.7661e+02	-9.2965	-95.217865	0.000578	5.778140	1.957687	0.000231
1777	1.7671e+02	-9.2500	-95.003897	0.000537	5.372657	1.820305	0.000215
1778	1.7681e+02	-9.2099	-94.684963	0.000801	8.008300	2.713285	0.000321
1779	1.7691e+02	-9.1602	-94.426586	0.000649	6.487736	2.198105	0.000260
1780	1.7701e+02	-9.1313	-94.184358	0.000608	6.082253	2.060723	0.000243
1781	1.7711e+02	-9.0864	-93.942130	0.000608	6.082253	2.060723	0.000243
1782	1.7721e+02	-9.0495	-93.691828	0.000628	6.284995	2.129414	0.000252
1783	1.7731e+02	-8.9997	-93.461711	0.000578	5.778140	1.957687	0.000231
1784	1.7741e+02	-8.9709	-93.191223	0.000679	6.791849	2.301141	0.000272
1785	1.7751e+02	-8.9308	-92.920735	0.000679	6.791849	2.301141	0.000272
1786	1.7761e+02	-8.8842	-92.710804	0.000527	5.271286	1.785960	0.000211
1787	1.7771e+02	-8.8457	-92.416093	0.000740	7.400074	2.507213	0.000296
1788	1.7781e+02	-8.8088	-92.169827	0.000618	6.183624	2.095068	0.000248
1789	1.7791e+02	-8.7703	-91.911451	0.000649	6.487736	2.198105	0.000260
1790	1.7801e+02	-8.7254	-91.657111	0.000639	6.386366	2.163759	0.000256
1791	1.7810e+02	-8.6917	-91.362400	0.000740	7.400074	2.507213	0.000296
1792	1.7820e+02	-8.6500	-91.176692	0.000466	4.663061	1.579888	0.000187
1793	1.7830e+02	-8.6099	-90.922353	0.000639	6.386366	2.163759	0.000256
1794	1.7840e+02	-8.5666	-90.619567	0.000760	7.602816	2.575904	0.000304
1795	1.7850e+02	-8.5185	-90.417711	0.000507	5.068544	1.717269	0.000203
1796	1.7860e+02	-8.4848	-90.131074	0.000720	7.197333	2.438522	0.000288
1797	1.7870e+02	-8.4543	-89.840400	0.000730	7.298703	2.472868	0.000292
1798	1.7880e+02	-8.4158	-89.610283	0.000578	5.778140	1.957687	0.000231
1799	1.7890e+02	-8.3773	-89.331721	0.000699	6.994591	2.369832	0.000280
1800	1.7900e+02	-8.3372	-89.129864	0.000507	5.068544	1.717269	0.000203
1801	1.7910e+02	-8.2923	-88.839190	0.000730	7.298703	2.472868	0.000292
1802	1.7920e+02	-8.2474	-88.580814	0.000649	6.487736	2.198105	0.000260
1803	1.7930e+02	-8.2105	-88.342623	0.000598	5.980882	2.026378	0.000239
1804	1.7940e+02	-8.1736	-88.076172	0.000669	6.690478	2.266795	0.000268
1805	1.7950e+02	-8.1351	-87.777424	0.000750	7.501445	2.541558	0.000300
1806	1.7960e+02	-8.0853	-87.539233	0.000598	5.980882	2.026378	0.000239
1807	1.7970e+02	-8.0516	-87.260670	0.000699	6.994591	2.369832	0.000280
1808	1.7980e+02	-8.0035	-87.066888	0.000487	4.865802	1.648578	0.000195
1809	1.7990e+02	-7.9746	-86.808511	0.000649	6.487736	2.198105	0.000260
1810	1.8000e+02	-7.9281	-86.513800	0.000740	7.400074	2.507213	0.000296
1811	1.8009e+02	-7.8928	-86.206978	0.000770	7.704187	2.610249	0.000308
1812	1.8019e+02	-7.8559	-86.005121	0.000507	5.068544	1.717269	0.000203
1813	1.8029e+02	-7.8174	-85.710410	0.000740	7.400074	2.507213	0.000296
1814	1.8039e+02	-7.7597	-85.472219	0.000598	5.980882	2.026378	0.000239
1815	1.8049e+02	-7.7388	-85.217880	0.000639	6.386366	2.163759	0.000256
1816	1.8059e+02	-7.6827	-84.923169	0.000740	7.400074	2.507213	0.000296
1817	1.8069e+02	-7.6586	-84.628458	0.000740	7.400074	2.507213	0.000296
1818	1.8079e+02	-7.6105	-84.434675	0.000487	4.865802	1.648578	0.000195
1819	1.8089e+02	-7.5752	-84.119779	0.000791	7.906929	2.678940	0.000316
1820	1.8099e+02	-7.5367	-83.897736	0.000558	5.575398	1.888996	0.000223
1821	1.8109e+02	-7.4902	-83.598988	0.000750	7.501445	2.541558	0.000300
1822	1.8119e+02	-7.4501	-83.340612	0.000649	6.487736	2.198105	0.000260
1823	1.8129e+02	-7.4196	-83.094346	0.000618	6.183624	2.095068	0.000248
1824	1.8139e+02	-7.3698	-82.763301	0.000831	8.312412	2.816322	0.000333
1825	1.8149e+02	-7.3297	-82.533184	0.000578	5.778140	1.957687	0.000231
1826	1.8159e+02	-7.2944	-82.254622	0.000699	6.994591	2.369832	0.000280
1827	1.8169e+02	-7.2543	-81.951837	0.000760	7.602816	2.575904	0.000304
1828	1.8179e+02	-7.2223	-81.721720	0.000578	5.778140	1.957687	0.000231
1829	1.8189e+02	-7.1677	-81.422972	0.000750	7.501445	2.541558	0.000300
1830	1.8199e+02	-7.1340	-81.176707	0.000618	6.183624	2.095068	0.000248
1831	1.8209e+02	-7.0955	-80.894107	0.000710	7.095962	2.404177	0.000284
1832	1.8218e+02	-7.0522	-80.599396	0.000740	7.400074	2.507213	0.000296
1833	1.8228e+02	-7.0121	-80.300648	0.000750	7.501445	2.541558	0.000300
1834	1.8238e+02	-6.9752	-80.042272	0.000649	6.487736	2.198105	0.000260
1835	1.8248e+02	-6.9335	-79.775821	0.000669	6.690478	2.266795	0.000268
1836	1.8258e+02	-6.8934	-79.533593	0.000608	6.082253	2.060723	0.000243
1837	1.8268e+02	-6.8581	-79.178325	0.000892	8.920638	3.022394	0.000357
1838	1.8278e+02	-6.8164	-78.928022	0.000628	6.284995	2.129414	0.000252
1839	1.8288e+02	-6.7747	-78.665608	0.000659	6.589107	2.232450	0.000264
1840	1.8298e+02	-6.7378	-78.419343	0.000618	6.183624	2.095068	0.000248
1841	1.8308e+02	-6.6929	-78.100409	0.000801	8.008300	2.713285	0.000321
1842	1.8318e+02	-6.6479	-77.817810	0.000710	7.095962	2.404177	0.000284
1843	1.8328e+02	-6.6223	-77.547322	0.000679	6.791849	2.301141	0.000272
1844	1.8338e+02	-6.5774	-77.256648	0.000730	7.298703	2.472868	0.000292
1845	1.8348e+02	-6.5308	-76.961937	0.000740	7.400074	2.507213	0.000296
1846	1.8358e+02	-6.4939	-76.659152	0.000760	7.602816	2.575904	0.000304
1847	1.8368e+02	-6.4554	-76.457295	0.000507	5.068544	1.717269	0.000203
1848	1.8378e+02	-6.4137	-76.146436	0.000781	7.805558	2.644595	0.000312
1849	1.8388e+02	-6.3848	-75.879985	0.000669	6.690478	2.266795	0.000268
1850	1.8398e+02	-6.3367	-75.577200	0.000760	7.602816	2.575904	0.000304
1851	1.8407e+02	-6.3062	-75.298637	0.000699	6.994591	2.369832	0.000280
1852	1.8417e+02	-6.2565	-75.060446	0.000598	5.980882	2.026378	0.000239
1853	1.8427e+02	-6.2340	-74.745550	0.000791	7.906929	2.678940	0.000316
1854	1.8437e+02	-6.1843	-74.475062	0.000679	6.791849	2.301141	0.000272
1855	1.8447e+02	-6.1362	-74.176313	0.000750	7.501445	2.541558	0.000300
1856	1.8457e+02	-6.1041	-73.893714	0.000710	7.095962	2.404177	0.000284
1857	1.8467e+02	-6.0704	-73.578817	0.000791	7.906929	2.678940	0.000316
1858	1.8477e+02	-6.0223	-73.284106	0.000740	7.400074	2.507213	0.000296
1859	1.8487e+02	-5.9790	-73.037841	0.000618	6.183624	2.095068	0.000248
1860	1.8497e+02	-5.9389	-72.755242	0.000710	7.095962	2.404177	0.000284
1861	1.8507e+02	-5.8972	-72.444382	0.000781	7.805558	2.644595	0.000312
1862	1.8517e+02	-5.8667	-72.137560	0.000770	7.704187	2.610249	0.000308
1863	1.8527e+02	-5.8266	-71.879183	0.000649	6.487736	2.198105	0.000260
1864	1.8537e+02	-5.7865	-71.560250	0.000801	8.008300	2.713285	0.000321
1865	1.8547e+02	-5.7496	-71.297836	0.000659	6.589107	2.232450	0.000264
1866	1.8557e+02	-5.6998	-70.991013	0.000770	7.704187	2.610249	0.000308
1867	1.8567e+02	-5.6662	-70.700340	0.000730	7.298703	2.472868	0.000292
1868	1.8577e+02	-5.6196	-70.393517	0.000770	7.704187	2.610249	0.000308
1869	1.8587e+02	-5.5875	-70.127066	0.000669	6.690478	2.266795	0.000268
1870	1.8597e+02	-5.5314	-69.824281	0.000760	7.602816	2.575904	0.000304
1871	1.8606e+02	-5.5041	-69.485162	0.000852	8.515154	2.885012	0.000341
1872	1.8616e+02	-5.4608	-69.255045	0.000578	5.778140	1.957687	0.000231
1873	1.8626e+02	-5.4223	-68.944186	0.000781	7.805558	2.644595	0.000312
1874	1.8636e+02	-5.3886	-68.649475	0.000740	7.400074	2.507213	0.000296
1875	1.8646e+02	-5.3469	-68.350727	0.000750	7.501445	2.541558	0.000300
1876	1.8656e+02	-5.3100	-68.051979	0.000750	7.501445	2.541558	0.000300
1877	1.8666e+02	-5.2699	-67.753231	0.000750	7.501445	2.541558	0.000300
1878	1.8676e+02	-5.2202	-67.434297	0.000801	8.008300	2.713285	0.000321
1879	1.8686e+02	-5.1833	-67.188032	0.000618	6.183624	2.095068	0.000248
1880	1.8696e+02	-5.1432	-66.832764	0.000892	8.920638	3.022394	0.000357
1881	1.8706e+02	-5.1095	-66.525941	0.000770	7.704187	2.610249	0.000308
1882	1.8716e+02	-5.0678	-66.259490	0.000669	6.690478	2.266795	0.000268
1883	1.8726e+02	-5.0261	-65.980928	0.000699	6.994591	2.369832	0.000280
1884	1.8736e+02	-4.9940	-65.661994	0.000801	8.008300	2.713285	0.000321
1885	1.8746e+02	-4.9442	-65.339023	0.000811	8.109670	2.747631	0.000325
1886	1.8756e+02	-4.9122	-65.036238	0.000760	7.602816	2.575904	0.000304
1887	1.8766e+02	-4.8737	-64.761713	0.000689	6.893220	2.335486	0.000276
1888	1.8776e+02	-4.8271	-64.462965	0.000750	7.501445	2.541558	0.000300
1889	1.8786e+02	-4.7742	-64.144031	0.000801	8.008300	2.713285	0.000321
1890	1.8796e+02	-4.7469	-63.861432	0.000710	7.095962	2.404177	0.000284
1891	1.8806e+02	-4.7164	-63.530387	0.000831	8.312412	2.816322	0.000333
1892	1.8815e+02	-4.6747	-63.227601	0.000760	7.602816	2.575904	0.000304
1893	1.8825e+02	-4.6266	-62.896556	0.000831	8.312412	2.816322	0.000333
1894	1.8835e+02	-4.5849	-62.609920	0.000720	7.197333	2.438522	0.000288
1895	1.8845e+02	-4.5448	-62.286949	0.000811	8.109670	2.747631	0.000325
1896	1.8855e+02	-4.5111	-62.004349	0.000710	7.095962	2.404177	0.000284
1897	1.8865e+02	-4.4742	-61.653118	0.000882	8.819267	2.988048	0.000353
1898	1.8875e+02	-4.4229	-61.350333	0.000760	7.602816	2.575904	0.000304
1899	1.8885e+02	-4.3796	-61.039474	0.000781	7.805558	2.644595	0.000312
1900	1.8895e+02	-4.3491	-60.728614	0.000781	7.805558	2.644595	0.000312
1901	1.8905e+02	-4.3058	-60.454089	0.000689	6.893220	2.335486	0.000276
1902	1.8915e+02	-4.2801	-60.078635	0.000943	9.427492	3.194121	0.000377
1903	1.8925e+02	-4.2304	-59.767776	0.000781	7.805558	2.644595	0.000312
1904	1.8935e+02	-4.1935	-59.469028	0.000750	7.501445	2.541558	0.000300
1905	1.8945e+02	-4.1421	-59.162206	0.000770	7.704187	2.610249	0.000308
1906	1.8955e+02	-4.1084	-58.831161	0.000831	8.312412	2.816322	0.000333
1907	1.8965e+02	-4.0715	-58.536450	0.000740	7.400074	2.507213	0.000296
1908	1.8975e+02	-4.0362	-58.241739	0.000740	7.400074	2.507213	0.000296
1909	1.8985e+02	-3.9849	-57.874359	0.000922	9.224750	3.125430	0.000369
1910	1.8995e+02	-3.9480	-57.583686	0.000730	7.298703	2.472868	0.000292
1911	1.9004e+02	-3.9047	-57.232455	0.000882	8.819267	2.988048	0.000353
1912	1.9014e+02	-3.8726	-56.929670	0.000760	7.602816	2.575904	0.000304
1913	1.9024e+02	-3.8341	-56.582476	0.000872	8.717896	2.953703	0.000349
1914	1.9034e+02	-3.7924	-56.299876	0.000710	7.095962	2.404177	0.000284
1915	1.9044e+02	-3.7443	-56.021314	0.000699	6.994591	2.369832	0.000280
1916	1.9054e+02	-3.7042	-55.633749	0.000973	9.731605	3.297157	0.000390
1917	1.9064e+02	-3.6657	-55.371335	0.000659	6.589107	2.232450	0.000264
1918	1.9074e+02	-3.6304	-55.020104	0.000882	8.819267	2.988048	0.000353
1919	1.9084e+02	-3.5903	-54.729431	0.000730	7.298703	2.472868	0.000292
1920	1.9094e+02	-3.5534	-54.353977	0.000943	9.427492	3.194121	0.000377
1921	1.9104e+02	-3.5165	-54.051192	0.000760	7.602816	2.575904	0.000304
1922	1.9114e+02	-3.4732	-53.748407	0.000760	7.602816	2.575904	0.000304
1923	1.9124e+02	-3.4266	-53.405250	0.000862	8.616525	2.919358	0.000345
1924	1.9134e+02	-3.3930	-53.041908	0.000912	9.123379	3.091085	0.000365
1925	1.9144e+02	-3.3593	-52.759308	0.000710	7.095962	2.404177	0.000284
1926	1.9154e+02	-3.2983	-52.444412	0.000791	7.906929	2.678940	0.000316
1927	1.9164e+02	-3.2694	-52.101255	0.000862	8.616525	2.919358	0.000345
1928	1.9174e+02	-3.2325	-51.750024	0.000882	8.819267	2.988048	0.000353
1929	1.9184e+02	-3.1988	-51.418979	0.000831	8.312412	2.816322	0.000333
1930	1.9194e+02	-3.1587	-51.100046	0.000801	8.008300	2.713285	0.000321
1931	1.9203e+02	-3.1122	-50.756889	0.000862	8.616525	2.919358	0.000345
1932	1.9213e+02	-3.0705	-50.433918	0.000811	8.109670	2.747631	0.000325
1933	1.9223e+02	-3.0320	-50.094799	0.000852	8.515154	2.885012	0.000341
1934	1.9233e+02	-2.9967	-49.731457	0.000912	9.123379	3.091085	0.000365
1935	1.9243e+02	-2.9566	-49.424634	0.000770	7.704187	2.610249	0.000308
1936	1.9253e+02	-2.9149	-49.085515	0.000852	8.515154	2.885012	0.000341
1937	1.9263e+02	-2.8700	-48.742358	0.000862	8.616525	2.919358	0.000345
1938	1.9273e+02	-2.8331	-48.415350	0.000821	8.211041	2.781976	0.000329
1939	1.9283e+02	-2.7930	-48.064120	0.000882	8.819267	2.988048	0.000353
1940	1.9293e+02	-2.7400	-47.700777	0.000912	9.123379	3.091085	0.000365
1941	1.9303e+02	-2.7112	-47.365695	0.000841	8.413783	2.850667	0.000337
1942	1.9313e+02	-2.6694	-47.030613	0.000841	8.413783	2.850667	0.000337
1943	1.9323e+02	-2.6454	-46.655159	0.000943	9.427492	3.194121	0.000377
1944	1.9333e+02	-2.6037	-46.376597	0.000699	6.994591	2.369832	0.000280
1945	1.9343e+02	-2.5588	-46.025366	0.000882	8.819267	2.988048	0.000353
1946	1.9353e+02	-2.5058	-45.666061	0.000902	9.022008	3.056739	0.000361
1947	1.9363e+02	-2.4753	-45.326941	0.000852	8.515154	2.885012	0.000341
1948	1.9373e+02	-2.4384	-44.939376	0.000973	9.731605	3.297157	0.000390
1949	1.9383e+02	-2.3935	-44.576034	0.000912	9.123379	3.091085	0.000365
1950	1.9393e+02	-2.3518	-44.277286	0.000750	7.501445	2.541558	0.000300
1951	1.9403e+02	-2.3133	-43.869535	0.001024	10.238459	3.468884	0.000410
1952	1.9412e+02	-2.2700	-43.562713	0.000770	7.704187	2.610249	0.000308
1953	1.9422e+02	-2.2395	-43.211482	0.000882	8.819267	2.988048	0.000353
1954	1.9432e+02	-2.1978	-42.864289	0.000872	8.717896	2.953703	0.000349
1955	1.9442e+02	-2.1497	-42.513058	0.000882	8.819267	2.988048	0.000353
1956	1.9452e+02	-2.1192	-42.157790	0.000892	8.920638	3.022394	0.000357
1957	1.9462e+02	-2.0807	-41.762151	0.000993	9.934346	3.365848	0.000398
1958	1.9472e+02	-2.0326	-41.467440	0.000740	7.400074	2.507213	0.000296
1959	1.9482e+02	-1.9989	-41.063726	0.001014	10.137088	3.434538	0.000406
1960	1.9492e+02	-1.9604	-40.692310	0.000933	9.326121	3.159775	0.000373
1961	1.9502e+02	-1.9106	-40.361265	0.000831	8.312412	2.816322	0.000333
1962	1.9512e+02	-1.8737	-39.961588	0.001004	10.035717	3.400193	0.000402
1963	1.9522e+02	-1.8433	-39.642654	0.000801	8.008300	2.713285	0.000321
1964	1.9532e+02	-1.8032	-39.259126	0.000963	9.630234	3.262812	0.000385
1965	1.9542e+02	-1.7631	-38.879636	0.000953	9.528863	3.228466	0.000381
1966	1.9552e+02	-1.7165	-38.504182	0.000943	9.427492	3.194121	0.000377
1967	1.9562e+02	-1.6700	-38.161026	0.000862	8.616525	2.919358	0.000345
1968	1.9572e+02	-1.6347	-37.773461	0.000973	9.731605	3.297157	0.000390
1969	1.9582e+02	-1.6042	-37.406081	0.000922	9.224750	3.125430	0.000369
1970	1.9592e+02	-1.5593	-37.026590	0.000953	9.528863	3.228466	0.000381
1971	1.9601e+02	-1.5208	-36.679397	0.000872	8.717896	2.953703	0.000349
1972	1.9611e+02	-1.4759	-36.307980	0.000933	9.326121	3.159775	0.000373
1973	1.9621e+02	-1.4390	-35.920415	0.000973	9.731605	3.297157	0.000390
1974	1.9631e+02	-1.4037	-35.557073	0.000912	9.123379	3.091085	0.000365
1975	1.9641e+02	-1.3652	-35.209879	0.000872	8.717896	2.953703	0.000349
1976	1.9651e+02	-1.3171	-34.794054	0.001044	10.441201	3.537575	0.000418
1977	1.9661e+02	-1.2818	-34.430712	0.000912	9.123379	3.091085	0.000365
1978	1.9671e+02	-1.2401	-34.067370	0.000912	9.123379	3.091085	0.000365
1979	1.9681e+02	-1.2016	-33.679805	0.000973	9.731605	3.297157	0.000390
1980	1.9691e+02	-1.1454	-33.263980	0.001044	10.441201	3.537575	0.000418
1981	1.9701e+02	-1.1182	-32.900638	0.000912	9.123379	3.091085	0.000365
1982	1.9711e+02	-1.0764	-32.492887	0.001024	10.238459	3.468884	0.000410
1983	1.9721e+02	-1.0476	-32.169916	0.000811	8.109670	2.747631	0.000325
1984	1.9731e+02	-0.9898	-31.754091	0.001044	10.441201	3.537575	0.000418
1985	1.9741e+02	-0.9674	-31.358452	0.000993	9.934346	3.365848	0.000398
1986	1.9751e+02	-0.9272	-30.942627	0.001044	10.441201	3.537575	0.000418
1987	1.9761e+02	-0.8807	-30.559099	0.000963	9.630234	3.262812	0.000385
1988	1.9771e+02	-0.8358	-30.195757	0.000912	9.123379	3.091085	0.000365
1989	1.9781e+02	-0.8021	-29.743598	0.001135	11.353539	3.846683	0.000454
1990	1.9791e+02	-0.7684	-29.404478	0.000852	8.515154	2.885012	0.000341
1991	1.9800e+02	-0.7219	-28.988653	0.001044	10.441201	3.537575	0.000418
1992	1.9810e+02	-0.6818	-28.572828	0.001044	10.441201	3.537575	0.000418
1993	1.9820e+02	-0.6401	-28.132780	0.001105	11.049426	3.743647	0.000442
1994	1.9830e+02	-0.6032	-27.813847	0.000801	8.008300	2.713285	0.000321
1995	1.9840e+02	-0.5567	-27.385910	0.001075	10.745313	3.640611	0.000430
1996	1.9850e+02	-0.5134	-26.974122	0.001034	10.339830	3.503229	0.000414
1997	1.9860e+02	-0.4829	-26.598669	0.000943	9.427492	3.194121	0.000377
1998	1.9870e+02	-0.4444	-26.162658	0.001095	10.948055	3.709301	0.000438
1999	1.9880e+02	-0.3978	-25.742796	0.001054	10.542572	3.571920	0.000422
2000	1.9890e+02	-0.3577	-25.335045	0.001024	10.238459	3.468884	0.000410
2001	1.9900e+02	-0.3208	-24.911146	0.001064	10.643943	3.606265	0.000426
2002	1.9910e+02	-0.2775	-24.475135	0.001095	10.948055	3.709301	0.000438
2003	1.9920e+02	-0.2390	-24.075459	0.001004	10.035717	3.400193	0.000402
2004	1.9930e+02	-0.2134	-23.663671	0.001034	10.339830	3.503229	0.000414
2005	1.9940e+02	-0.1588	-23.211512	0.001135	11.353539	3.846683	0.000454
2006	1.9950e+02	-0.1251	-22.836058	0.000943	9.427492	3.194121	0.000377
2007	1.9960e+02	-0.0802	-22.355639	0.001206	12.063135	4.087101	0.000483
2008	1.9970e+02	-0.0449	-21.988260	0.000922	9.224750	3.125430	0.000369
2009	1.9980e+02	-0.0048	-21.507841	0.000922	9.224750	3.125430	0.000483

Center data before PMax,+/-Pr and +/-Vc Calc.

PMax (uC/cm2):	1.47e+02
Pr (uC/cm2):	1.35e+01
-Pr (uC/cm2):	-2.15e+01
PLoss (uC/cm2):	-1.17e+01
Vc:	1.03e+00
-Vc:	-1.34e+00
C (Max-Eff) (nF):	7.34e-01
K (Eff):	2.49e+03
Vert. (+/-Pr) Shift (uC/cm2):	-4.00e+00
Horiz. Shift (+/-Vc):	-1.56e-01
Offset (uC/cm2):	9.84e+00

A (Loop Area - uC/cm2·Volts):	9.33e-02



Hysteresis Version: 5.48.1 - Radiant Technologies, Inc., 1999 - 9/12/24

