»»»»»»»»»»»»»»»»»»»»»»»»»»»»»»»»»»»» Hysteresis ««««««««««««««««««««««««««««««««««««
»»»  Executed Version:	5.48.1
»»»  Vision Version:	5.48.4 (R)
»»»  Vision Compiled:	9/18/24
»»»  Driver Version:	5.47.0
»»»  Windows Version:	Windows 8 or 8.1
»»»  Processor Information:	x86 (AMD or Intel) - 32 Processors
»»»  Tester Name:	PMF21124-494 (100V)
»»»  Tester S/N:	PMF21124-494
»»»  Internal Amp Type:	100V RevK 270k
»»»  Internal Amp S/N:	iAB2-596/K     
»»»  Execution Count:	1
»»»»»»»»»»»»»»»»»»»»»»»»»»»»»»»»»»»»»»»»»»««««««««««««««««««««««««««««««««««««««««««

Stored:	6/5/2025 - 11:53:13
Configured:	06/05/25 10:43:40 AM
Executed:	06/05/25 11:52:36 AM

»»»»»»»»»»»»»»»»»»»»»»»»»»»»»»»»»»» Sample Info ««««««««««««««««««««««««««««««««««««
Sample Name:	
Lot Name:	
Wafer Name:	
Die Row/Column:	0/0
Capacitor Number:	0
Sample Area (cm2):	1.00e-04
Sample Thickness (microns):	3.00e-01

Amplifier:	Internal

»»»»»»»»»»»»»»»»»»»»»»»»»»»»»»»»»»» Tester Info «««««««««««««««««««««««««««««««««««
Tester Name:	PMF21124-494 (100V)
Tester Serial Number:	PMF21124-494
Return Signal Amp. Level:	0.19 [Index: 3]

»»»»»»»»»»»»»»»»»»»»»»»»»»»»»»»» Hysteresis Info ««««««««««««««««««««««««««««««««««
Task Name:	Hyst-187
Volts:	20.00
Field:	666.67 (kV/cm)
DCBias:	0.00
DCField:	0.00 (kV/cm)
Hysteresis Period (ms):	1.00e+00
Preset:	Enabled
Preset Delay (ms):	1.00e+03
Profile:	Standard Bipolar

»»»»»»»»»»»»»»»»»»»»»»»»»»»»»»»»»»»»»» Data «««««««««««««««««««««««««««««««««««««««
Points:	2001

Valid Data

Point	Time (ms)	Drive Voltage	Measured Polarization (uC/cm2)	Capacitance (uF)	Normalized Capacitance (uF/cm2)	Dielectric Constant	Instantaneous Current (mA)
   1	0.0000e+00	0.0048	2.381545	0.000505	5.048569	1.710501	0.040331
   2	5.0000e-04	0.0305	2.583200	0.000505	5.048569	1.710501	0.040331
   3	1.0000e-03	0.0449	2.635630	0.000131	1.312628	0.444730	0.010486
   4	1.5000e-03	0.0914	2.829219	0.000485	4.846626	1.642081	0.038718
   5	2.0000e-03	0.1364	2.994576	0.000414	4.139826	1.402611	0.033071
   6	2.5000e-03	0.1684	3.349488	0.000889	8.885481	3.010482	0.070983
   7	3.0000e-03	0.2005	3.506779	0.000394	3.937884	1.334191	0.031458
   8	3.5000e-03	0.2454	3.700368	0.000485	4.846626	1.642081	0.038718
   9	4.0000e-03	0.2807	4.063347	0.000909	9.087424	3.078902	0.072596
  10	4.5000e-03	0.3273	4.301300	0.000596	5.957311	2.018392	0.047591
  11	5.0000e-03	0.3658	4.490855	0.000475	4.745655	1.607871	0.037911
  12	5.5000e-03	0.4059	4.692510	0.000505	5.048569	1.710501	0.040331
  13	6.0000e-03	0.4460	4.926430	0.000586	5.856340	1.984182	0.046784
  14	6.5000e-03	0.4861	5.301508	0.000939	9.390338	3.181533	0.075016
  15	7.0000e-03	0.5198	5.531395	0.000576	5.755368	1.949972	0.045977
  16	7.5000e-03	0.5679	5.890341	0.000899	8.986452	3.044692	0.071789
  17	8.0000e-03	0.6016	5.962936	0.000182	1.817485	0.615780	0.014519
  18	8.5000e-03	0.6481	6.225088	0.000656	6.563139	2.223652	0.052430
  19	9.0000e-03	0.6850	6.531603	0.000767	7.673824	2.599962	0.061303
  20	9.5000e-03	0.7203	6.721159	0.000475	4.745655	1.607871	0.037911
  21	1.0000e-02	0.7588	7.225296	0.001262	12.621422	4.276253	0.100827
  22	1.0500e-02	0.8053	7.479381	0.000636	6.361197	2.155232	0.050817
  23	1.1000e-02	0.8438	7.672970	0.000485	4.846626	1.642081	0.038718
  24	1.1500e-02	0.8871	8.060148	0.000969	9.693252	3.284163	0.077435
  25	1.2000e-02	0.9144	8.148876	0.000222	2.221370	0.752621	0.017746
  26	1.2500e-02	0.9529	8.451358	0.000757	7.572853	2.565752	0.060496
  27	1.3000e-02	1.0075	8.705443	0.000636	6.361197	2.155232	0.050817
  28	1.3500e-02	1.0524	8.931297	0.000565	5.654397	1.915762	0.045171
  29	1.4000e-02	1.0845	9.225713	0.000737	7.370910	2.497332	0.058883
  30	1.4500e-02	1.1246	9.350739	0.000313	3.130113	1.060511	0.025005
  31	1.5000e-02	1.1647	9.725817	0.000939	9.390338	3.181533	0.075016
  32	1.5500e-02	1.2000	10.052498	0.000818	8.178681	2.771012	0.065336
  33	1.6000e-02	1.2529	10.169458	0.000293	2.928170	0.992091	0.023392
  34	1.6500e-02	1.2882	10.318683	0.000374	3.735941	1.265771	0.029845
  35	1.7000e-02	1.3203	10.709893	0.000979	9.794223	3.318373	0.078242
  36	1.7500e-02	1.3652	10.976078	0.000666	6.664111	2.257862	0.053237
  37	1.8000e-02	1.4021	11.185799	0.000525	5.250511	1.778921	0.041944
  38	1.8500e-02	1.4582	11.322924	0.000343	3.433027	1.163141	0.027425
  39	1.9000e-02	1.4839	11.762532	0.001101	11.005880	3.728893	0.087922
  40	1.9500e-02	1.5224	11.996452	0.000586	5.856340	1.984182	0.046784
  41	2.0000e-02	1.5545	12.246504	0.000626	6.260225	2.121022	0.050010
  42	2.0500e-02	1.6074	12.633681	0.000969	9.693252	3.284163	0.077435
  43	2.1000e-02	1.6475	12.738542	0.000263	2.625256	0.889461	0.020972
  44	2.1500e-02	1.6796	13.020859	0.000707	7.067996	2.394702	0.056463
  45	2.2000e-02	1.7326	13.242679	0.000555	5.553426	1.881552	0.044364
  46	2.2500e-02	1.7679	13.674221	0.001080	10.803937	3.660473	0.086308
  47	2.3000e-02	1.7967	13.811346	0.000343	3.433027	1.163141	0.027425
  48	2.3500e-02	1.8368	14.089630	0.000697	6.967025	2.360492	0.055657
  49	2.4000e-02	1.8834	14.621999	0.001333	13.328221	4.515724	0.106474
  50	2.4500e-02	1.9187	14.646198	0.000061	0.605828	0.205260	0.004840
  51	2.5000e-02	1.9684	14.956746	0.000777	7.774796	2.634172	0.062110
  52	2.5500e-02	2.0037	15.013210	0.000141	1.413599	0.478940	0.011293
  53	2.6000e-02	2.0502	15.271328	0.000646	6.462168	2.189442	0.051624
  54	2.6500e-02	2.0887	15.678671	0.001020	10.198109	3.455213	0.081469
  55	2.7000e-02	2.1272	15.928723	0.000626	6.260225	2.121022	0.050010
  56	2.7500e-02	2.1561	16.352198	0.001060	10.601994	3.592053	0.084695
  57	2.8000e-02	2.2122	16.549820	0.000495	4.947597	1.676291	0.039524
  58	2.8500e-02	2.2507	16.509489	-0.000101	-1.009714	-0.342100	-0.008066
  59	2.9000e-02	2.2812	16.832137	0.000808	8.077710	2.736802	0.064530
  60	2.9500e-02	2.3197	17.235447	0.001010	10.097137	3.421003	0.080662
  61	3.0000e-02	2.3646	17.566161	0.000828	8.279653	2.805222	0.066143
  62	3.0500e-02	2.4063	17.679088	0.000283	2.827198	0.957881	0.022585
  63	3.1000e-02	2.4449	17.989636	0.000777	7.774796	2.634172	0.062110
  64	3.1500e-02	2.4866	18.300185	0.000777	7.774796	2.634172	0.062110
  65	3.2000e-02	2.5186	18.505873	0.000515	5.149540	1.744711	0.041138
  66	3.2500e-02	2.5796	18.933381	0.001070	10.702966	3.626263	0.085502
  67	3.3000e-02	2.5973	19.183434	0.000626	6.260225	2.121022	0.050010
  68	3.3500e-02	2.6534	19.256029	0.000182	1.817485	0.615780	0.014519
  69	3.4000e-02	2.6967	19.598843	0.000858	8.582567	2.907852	0.068563
  70	3.4500e-02	2.7256	19.913424	0.000788	7.875767	2.668382	0.062916
  71	3.5000e-02	2.7737	20.107013	0.000485	4.846626	1.642081	0.038718
  72	3.5500e-02	2.7994	20.300602	0.000485	4.846626	1.642081	0.038718
  73	3.6000e-02	2.8491	20.752309	0.001131	11.308794	3.831523	0.090341
  74	3.6500e-02	2.8844	21.030593	0.000697	6.967025	2.360492	0.055657
  75	3.7000e-02	2.9309	21.199983	0.000424	4.240798	1.436821	0.033878
  76	3.7500e-02	2.9775	21.494399	0.000737	7.370910	2.497332	0.058883
  77	3.8000e-02	3.0095	21.651690	0.000394	3.937884	1.334191	0.031458
  78	3.8500e-02	3.0513	22.046934	0.000990	9.895195	3.352583	0.079049
  79	3.9000e-02	3.0930	22.349416	0.000757	7.572853	2.565752	0.060496
  80	3.9500e-02	3.1250	22.538972	0.000475	4.745655	1.607871	0.037911
  81	4.0000e-02	3.1635	22.950348	0.001030	10.299080	3.489423	0.082275
  82	4.0500e-02	3.2069	23.208466	0.000646	6.462168	2.189442	0.051624
  83	4.1000e-02	3.2470	23.353657	0.000363	3.634969	1.231561	0.029038
  84	4.1500e-02	3.2935	23.619842	0.000666	6.664111	2.257862	0.053237
  85	4.2000e-02	3.3272	23.857795	0.000596	5.957311	2.018392	0.047591
  86	4.2500e-02	3.3673	24.095748	0.000596	5.957311	2.018392	0.047591
  87	4.3000e-02	3.4090	24.507124	0.001030	10.299080	3.489423	0.082275
  88	4.3500e-02	3.4443	24.672481	0.000414	4.139826	1.402611	0.033071
  89	4.4000e-02	3.4908	24.894301	0.000555	5.553426	1.881552	0.044364
  90	4.4500e-02	3.5277	25.188717	0.000737	7.370910	2.497332	0.058883
  91	4.5000e-02	3.5630	25.527498	0.000848	8.481595	2.873642	0.067756
  92	4.5500e-02	3.6047	25.721086	0.000485	4.846626	1.642081	0.038718
  93	4.6000e-02	3.6416	26.168760	0.001121	11.207823	3.797313	0.089535
  94	4.6500e-02	3.6897	26.370415	0.000505	5.048569	1.710501	0.040331
  95	4.7000e-02	3.7314	26.596269	0.000565	5.654397	1.915762	0.045171
  96	4.7500e-02	3.7716	26.918917	0.000808	8.077710	2.736802	0.064530
  97	4.8000e-02	3.8101	27.092340	0.000434	4.341769	1.471031	0.034685
  98	4.8500e-02	3.8470	27.382723	0.000727	7.269939	2.463122	0.058077
  99	4.9000e-02	3.8887	27.604543	0.000555	5.553426	1.881552	0.044364
 100	4.9500e-02	3.9207	27.894926	0.000727	7.269939	2.463122	0.058077
 101	5.0000e-02	3.9657	28.173210	0.000697	6.967025	2.360492	0.055657
 102	5.0500e-02	4.0122	28.552322	0.000949	9.491309	3.215743	0.075822
 103	5.1000e-02	4.0587	28.810440	0.000646	6.462168	2.189442	0.051624
 104	5.1500e-02	4.0860	29.056459	0.000616	6.159254	2.086812	0.049204
 105	5.2000e-02	4.1133	29.286346	0.000576	5.755368	1.949972	0.045977
 106	5.2500e-02	4.1678	29.645291	0.000899	8.986452	3.044692	0.071789
 107	5.3000e-02	4.1983	29.826781	0.000454	4.543712	1.539451	0.036298
 108	5.3500e-02	4.2544	30.185726	0.000899	8.986452	3.044692	0.071789
 109	5.4000e-02	4.2833	30.439812	0.000636	6.361197	2.155232	0.050817
 110	5.4500e-02	4.3250	30.661632	0.000555	5.553426	1.881552	0.044364
 111	5.5000e-02	4.3619	30.895552	0.000586	5.856340	1.984182	0.046784
 112	5.5500e-02	4.4052	31.161736	0.000666	6.664111	2.257862	0.053237
 113	5.6000e-02	4.4453	31.496484	0.000838	8.380624	2.839432	0.066949
 114	5.6500e-02	4.4854	31.883661	0.000969	9.693252	3.284163	0.077435
 115	5.7000e-02	4.5271	32.020786	0.000343	3.433027	1.163141	0.027425
 116	5.7500e-02	4.5737	32.270838	0.000626	6.260225	2.121022	0.050010
 117	5.8000e-02	4.6058	32.476526	0.000515	5.149540	1.744711	0.041138
 118	5.8500e-02	4.6459	32.710446	0.000586	5.856340	1.984182	0.046784
 119	5.9000e-02	4.6860	33.073425	0.000909	9.087424	3.078902	0.072596
 120	5.9500e-02	4.7325	33.258948	0.000464	4.644683	1.573661	0.037105
 121	6.0000e-02	4.7726	33.666291	0.001020	10.198109	3.455213	0.081469
 122	6.0500e-02	4.8047	34.029269	0.000909	9.087424	3.078902	0.072596
 123	6.1000e-02	4.8416	34.226891	0.000495	4.947597	1.676291	0.039524
 124	6.1500e-02	4.8817	34.448712	0.000555	5.553426	1.881552	0.044364
 125	6.2000e-02	4.9202	34.799591	0.000878	8.784510	2.976272	0.070176
 126	6.2500e-02	4.9763	34.973015	0.000434	4.341769	1.471031	0.034685
 127	6.3000e-02	5.0084	35.335993	0.000909	9.087424	3.078902	0.072596
 128	6.3500e-02	5.0421	35.606211	0.000677	6.765082	2.292072	0.054044
 129	6.4000e-02	5.0774	35.807866	0.000505	5.048569	1.710501	0.040331
 130	6.4500e-02	5.1271	36.130514	0.000808	8.077710	2.736802	0.064530
 131	6.5000e-02	5.1720	36.408798	0.000697	6.967025	2.360492	0.055657
 132	6.5500e-02	5.2073	36.630618	0.000555	5.553426	1.881552	0.044364
 133	6.6000e-02	5.2490	36.908902	0.000697	6.967025	2.360492	0.055657
 134	6.6500e-02	5.2811	37.312212	0.001010	10.097137	3.421003	0.080662
 135	6.7000e-02	5.3261	37.481602	0.000424	4.240798	1.436821	0.033878
 136	6.7500e-02	5.3726	37.525966	0.000111	1.110685	0.376310	0.008873
 137	6.8000e-02	5.4047	37.933309	0.001020	10.198109	3.455213	0.081469
 138	6.8500e-02	5.4432	38.368884	0.001090	10.904908	3.694683	0.087115
 139	6.9000e-02	5.4913	38.582638	0.000535	5.351483	1.813131	0.042751
 140	6.9500e-02	5.5266	38.780260	0.000495	4.947597	1.676291	0.039524
 141	7.0000e-02	5.5731	39.062577	0.000707	7.067996	2.394702	0.056463
 142	7.0500e-02	5.6084	39.461853	0.001000	9.996166	3.386793	0.079855
 143	7.1000e-02	5.6501	39.808700	0.000868	8.683538	2.942062	0.069369
 144	7.1500e-02	5.6902	40.002288	0.000485	4.846626	1.642081	0.038718
 145	7.2000e-02	5.7271	40.324936	0.000808	8.077710	2.736802	0.064530
 146	7.2500e-02	5.7720	40.667750	0.000858	8.582567	2.907852	0.068563
 147	7.3000e-02	5.8041	40.800842	0.000333	3.332055	1.128931	0.026618
 148	7.3500e-02	5.8490	41.159788	0.000899	8.986452	3.044692	0.071789
 149	7.4000e-02	5.8972	41.313046	0.000384	3.836912	1.299981	0.030652
 150	7.4500e-02	5.9276	41.635693	0.000808	8.077710	2.736802	0.064530
 151	7.5000e-02	5.9629	41.861547	0.000565	5.654397	1.915762	0.045171
 152	7.5500e-02	6.0111	42.115632	0.000636	6.361197	2.155232	0.050817
 153	7.6000e-02	6.0528	42.317287	0.000505	5.048569	1.710501	0.040331
 154	7.6500e-02	6.0897	42.635902	0.000798	7.976739	2.702592	0.063723
 155	7.7000e-02	6.1250	42.785127	0.000374	3.735941	1.265771	0.029845
 156	7.7500e-02	6.1747	43.285231	0.001252	12.520450	4.242043	0.100021
 157	7.8000e-02	6.2084	43.486886	0.000505	5.048569	1.710501	0.040331
 158	7.8500e-02	6.2453	43.672408	0.000464	4.644683	1.573661	0.037105
 159	7.9000e-02	6.2838	43.962791	0.000727	7.269939	2.463122	0.058077
 160	7.9500e-02	6.3223	44.398366	0.001090	10.904908	3.694683	0.087115
 161	8.0000e-02	6.3560	44.491127	0.000232	2.322342	0.786831	0.018552
 162	8.0500e-02	6.4105	44.950900	0.001151	11.510737	3.899943	0.091955
 163	8.1000e-02	6.4490	45.305813	0.000889	8.885481	3.010482	0.070983
 164	8.1500e-02	6.4859	45.446972	0.000353	3.533998	1.197351	0.028232
 165	8.2000e-02	6.5196	45.588130	0.000353	3.533998	1.197351	0.028232
 166	8.2500e-02	6.5677	45.854315	0.000666	6.664111	2.257862	0.053237
 167	8.3000e-02	6.6078	46.128565	0.000687	6.866053	2.326282	0.054850
 168	8.3500e-02	6.6447	46.398783	0.000677	6.765082	2.292072	0.054044
 169	8.4000e-02	6.6880	46.769828	0.000929	9.289366	3.147323	0.074209
 170	8.4500e-02	6.7314	46.995681	0.000565	5.654397	1.915762	0.045171
 171	8.5000e-02	6.7699	47.342528	0.000868	8.683538	2.942062	0.069369
 172	8.5500e-02	6.8068	47.657110	0.000788	7.875767	2.668382	0.062916
 173	8.6000e-02	6.8453	47.842632	0.000464	4.644683	1.573661	0.037105
 174	8.6500e-02	6.8886	48.128982	0.000717	7.168968	2.428912	0.057270
 175	8.7000e-02	6.9239	48.262074	0.000333	3.332055	1.128931	0.026618
 176	8.7500e-02	6.9688	48.604888	0.000858	8.582567	2.907852	0.068563
 177	8.8000e-02	7.0105	48.790410	0.000464	4.644683	1.573661	0.037105
 178	8.8500e-02	7.0426	49.213886	0.001060	10.601994	3.592053	0.084695
 179	8.9000e-02	7.0843	49.576865	0.000909	9.087424	3.078902	0.072596
 180	8.9500e-02	7.1180	49.830950	0.000636	6.361197	2.155232	0.050817
 181	9.0000e-02	7.1613	49.960009	0.000323	3.231084	1.094721	0.025812
 182	9.0500e-02	7.1982	50.242326	0.000707	7.067996	2.394702	0.056463
 183	9.1000e-02	7.2495	50.476246	0.000586	5.856340	1.984182	0.046784
 184	9.1500e-02	7.2800	50.891655	0.001040	10.400052	3.523633	0.083082
 185	9.2000e-02	7.3265	51.105409	0.000535	5.351483	1.813131	0.042751
 186	9.2500e-02	7.3634	51.339329	0.000586	5.856340	1.984182	0.046784
 187	9.3000e-02	7.4083	51.730539	0.000979	9.794223	3.318373	0.078242
 188	9.3500e-02	7.4420	52.004790	0.000687	6.866053	2.326282	0.054850
 189	9.4000e-02	7.4950	52.194346	0.000475	4.745655	1.607871	0.037911
 190	9.4500e-02	7.5287	52.379868	0.000464	4.644683	1.573661	0.037105
 191	9.5000e-02	7.5624	52.702516	0.000808	8.077710	2.736802	0.064530
 192	9.5500e-02	7.6137	53.101793	0.001000	9.996166	3.386793	0.079855
 193	9.6000e-02	7.6554	53.384110	0.000707	7.067996	2.394702	0.056463
 194	9.6500e-02	7.6811	53.444606	0.000151	1.514571	0.513150	0.012099
 195	9.7000e-02	7.7260	53.783386	0.000848	8.481595	2.873642	0.067756
 196	9.7500e-02	7.7741	54.061670	0.000697	6.967025	2.360492	0.055657
 197	9.8000e-02	7.8030	54.416583	0.000889	8.885481	3.010482	0.070983
 198	9.8500e-02	7.8383	54.618238	0.000505	5.048569	1.710501	0.040331
 199	9.9000e-02	7.8752	54.844091	0.000565	5.654397	1.915762	0.045171
 200	9.9500e-02	7.9313	54.993316	0.000374	3.735941	1.265771	0.029845
 201	1.0000e-01	7.9682	55.267567	0.000687	6.866053	2.326282	0.054850
 202	1.0050e-01	8.0051	55.650711	0.000959	9.592281	3.249953	0.076629
 203	1.0100e-01	8.0549	56.058054	0.001020	10.198109	3.455213	0.081469
 204	1.0150e-01	8.0918	56.243577	0.000464	4.644683	1.573661	0.037105
 205	1.0200e-01	8.1254	56.396834	0.000384	3.836912	1.299981	0.030652
 206	1.0250e-01	8.1639	56.715449	0.000798	7.976739	2.702592	0.063723
 207	1.0300e-01	8.1992	56.977601	0.000656	6.563139	2.223652	0.052430
 208	1.0350e-01	8.2474	57.146991	0.000424	4.240798	1.436821	0.033878
 209	1.0400e-01	8.2810	57.586598	0.001101	11.005880	3.728893	0.087922
 210	1.0450e-01	8.3292	57.784220	0.000495	4.947597	1.676291	0.039524
 211	1.0500e-01	8.3629	58.082670	0.000747	7.471882	2.531542	0.059690
 212	1.0550e-01	8.4014	58.417417	0.000838	8.380624	2.839432	0.066949
 213	1.0600e-01	8.4431	58.530343	0.000283	2.827198	0.957881	0.022585
 214	1.0650e-01	8.4912	58.869124	0.000848	8.481595	2.873642	0.067756
 215	1.0700e-01	8.5297	59.199838	0.000828	8.279653	2.805222	0.066143
 216	1.0750e-01	8.5698	59.316798	0.000293	2.928170	0.992091	0.023392
 217	1.0800e-01	8.5987	59.562817	0.000616	6.159254	2.086812	0.049204
 218	1.0850e-01	8.6500	59.760439	0.000495	4.947597	1.676291	0.039524
 219	1.0900e-01	8.6789	60.103252	0.000858	8.582567	2.907852	0.068563
 220	1.0950e-01	8.7286	60.490429	0.000969	9.693252	3.284163	0.077435
 221	1.1000e-01	8.7655	60.752581	0.000656	6.563139	2.223652	0.052430
 222	1.1050e-01	8.8056	61.038931	0.000717	7.168968	2.428912	0.057270
 223	1.1100e-01	8.8506	61.143791	0.000263	2.625256	0.889461	0.020972
 224	1.1150e-01	8.8858	61.619697	0.001191	11.914622	4.036783	0.095181
 225	1.1200e-01	8.9227	61.724558	0.000263	2.625256	0.889461	0.020972
 226	1.1250e-01	8.9661	61.994775	0.000677	6.765082	2.292072	0.054044
 227	1.1300e-01	9.0126	62.180298	0.000464	4.644683	1.573661	0.037105
 228	1.1350e-01	9.0463	62.361787	0.000454	4.543712	1.539451	0.036298
 229	1.1400e-01	9.0816	62.813494	0.001131	11.308794	3.831523	0.090341
 230	1.1450e-01	9.1153	63.111943	0.000747	7.471882	2.531542	0.059690
 231	1.1500e-01	9.1682	63.398293	0.000717	7.168968	2.428912	0.057270
 232	1.1550e-01	9.2083	63.660445	0.000656	6.563139	2.223652	0.052430
 233	1.1600e-01	9.2532	63.910497	0.000626	6.260225	2.121022	0.050010
 234	1.1650e-01	9.2757	64.027457	0.000293	2.928170	0.992091	0.023392
 235	1.1700e-01	9.3302	64.454965	0.001070	10.702966	3.626263	0.085502
 236	1.1750e-01	9.3671	64.648554	0.000485	4.846626	1.642081	0.038718
 237	1.1800e-01	9.4104	64.765514	0.000293	2.928170	0.992091	0.023392
 238	1.1850e-01	9.4521	65.104294	0.000848	8.481595	2.873642	0.067756
 239	1.1900e-01	9.4922	65.394677	0.000727	7.269939	2.463122	0.058077
 240	1.1950e-01	9.5340	65.479372	0.000212	2.120399	0.718411	0.016939
 241	1.2000e-01	9.5676	66.048039	0.001424	14.236964	4.823614	0.113733
 242	1.2050e-01	9.6110	66.181132	0.000333	3.332055	1.128931	0.026618
 243	1.2100e-01	9.6511	66.503779	0.000808	8.077710	2.736802	0.064530
 244	1.2150e-01	9.6928	66.741732	0.000596	5.957311	2.018392	0.047591
 245	1.2200e-01	9.7200	66.927255	0.000464	4.644683	1.573661	0.037105
 246	1.2250e-01	9.7650	67.358796	0.001080	10.803937	3.660473	0.086308
 247	1.2300e-01	9.8051	67.548352	0.000475	4.745655	1.607871	0.037911
 248	1.2350e-01	9.8452	67.798404	0.000626	6.260225	2.121022	0.050010
 249	1.2400e-01	9.8837	68.088787	0.000727	7.269939	2.463122	0.058077
 250	1.2450e-01	9.9334	68.338839	0.000626	6.260225	2.121022	0.050010
 251	1.2500e-01	9.9623	68.600991	0.000656	6.563139	2.223652	0.052430
 252	1.2550e-01	9.9960	68.879274	0.000697	6.967025	2.360492	0.055657
 253	1.2600e-01	10.0473	69.000267	0.000303	3.029141	1.026301	0.024199
 254	1.2650e-01	10.0874	69.230154	0.000576	5.755368	1.949972	0.045977
 255	1.2700e-01	10.1227	69.581034	0.000878	8.784510	2.976272	0.070176
 256	1.2750e-01	10.1740	69.806887	0.000565	5.654397	1.915762	0.045171
 257	1.2800e-01	10.2125	70.109370	0.000757	7.572853	2.565752	0.060496
 258	1.2850e-01	10.2430	70.290859	0.000454	4.543712	1.539451	0.036298
 259	1.2900e-01	10.2895	70.649805	0.000899	8.986452	3.044692	0.071789
 260	1.2950e-01	10.3361	70.815162	0.000414	4.139826	1.402611	0.033071
 261	1.3000e-01	10.3746	70.879691	0.000162	1.615542	0.547360	0.012906
 262	1.3050e-01	10.4051	71.335432	0.001141	11.409765	3.865733	0.091148
 263	1.3100e-01	10.4484	71.617748	0.000707	7.067996	2.394702	0.056463
 264	1.3150e-01	10.4885	71.883933	0.000666	6.664111	2.257862	0.053237
 265	1.3200e-01	10.5270	72.089621	0.000515	5.149540	1.744711	0.041138
 266	1.3250e-01	10.5671	72.299342	0.000525	5.250511	1.778921	0.041944
 267	1.3300e-01	10.5992	72.561494	0.000656	6.563139	2.223652	0.052430
 268	1.3350e-01	10.6489	72.819612	0.000646	6.462168	2.189442	0.051624
 269	1.3400e-01	10.6826	73.109995	0.000727	7.269939	2.463122	0.058077
 270	1.3450e-01	10.7291	73.396345	0.000717	7.168968	2.428912	0.057270
 271	1.3500e-01	10.7692	73.654463	0.000646	6.462168	2.189442	0.051624
 272	1.3550e-01	10.8109	73.795622	0.000353	3.533998	1.197351	0.028232
 273	1.3600e-01	10.8494	74.118270	0.000808	8.077710	2.736802	0.064530
 274	1.3650e-01	10.8879	74.493348	0.000939	9.390338	3.181533	0.075016
 275	1.3700e-01	10.9280	74.791797	0.000747	7.471882	2.531542	0.059690
 276	1.3750e-01	10.9681	75.045882	0.000636	6.361197	2.155232	0.050817
 277	1.3800e-01	11.0115	75.142677	0.000242	2.423313	0.821041	0.019359
 278	1.3850e-01	11.0467	75.364497	0.000555	5.553426	1.881552	0.044364
 279	1.3900e-01	11.0933	75.646814	0.000707	7.067996	2.394702	0.056463
 280	1.3950e-01	11.1270	75.973495	0.000818	8.178681	2.771012	0.065336
 281	1.4000e-01	11.1687	76.191282	0.000545	5.452454	1.847341	0.043557
 282	1.4050e-01	11.2056	76.505864	0.000788	7.875767	2.668382	0.062916
 283	1.4100e-01	11.2537	76.719618	0.000535	5.351483	1.813131	0.042751
 284	1.4150e-01	11.2874	76.880942	0.000404	4.038855	1.368401	0.032265
 285	1.4200e-01	11.3227	77.215689	0.000838	8.380624	2.839432	0.066949
 286	1.4250e-01	11.3660	77.304417	0.000222	2.221370	0.752621	0.017746
 287	1.4300e-01	11.4157	77.546403	0.000606	6.058282	2.052602	0.048397
 288	1.4350e-01	11.4462	77.877117	0.000828	8.279653	2.805222	0.066143
 289	1.4400e-01	11.4879	78.127170	0.000626	6.260225	2.121022	0.050010
 290	1.4450e-01	11.5376	78.478049	0.000878	8.784510	2.976272	0.070176
 291	1.4500e-01	11.5729	78.671638	0.000485	4.846626	1.642081	0.038718
 292	1.4550e-01	11.6034	78.909591	0.000596	5.957311	2.018392	0.047591
 293	1.4600e-01	11.6339	79.139477	0.000576	5.755368	1.949972	0.045977
 294	1.4650e-01	11.6852	79.522622	0.000959	9.592281	3.249953	0.076629
 295	1.4700e-01	11.7253	79.712177	0.000475	4.745655	1.607871	0.037911
 296	1.4750e-01	11.7638	79.837203	0.000313	3.130113	1.060511	0.025005
 297	1.4800e-01	11.8152	80.167917	0.000828	8.279653	2.805222	0.066143
 298	1.4850e-01	11.8360	80.430069	0.000656	6.563139	2.223652	0.052430
 299	1.4900e-01	11.8890	80.575260	0.000363	3.634969	1.231561	0.029038
 300	1.4950e-01	11.9291	80.845478	0.000677	6.765082	2.292072	0.054044
 301	1.5000e-01	11.9692	80.990670	0.000363	3.634969	1.231561	0.029038
 302	1.5050e-01	12.0061	81.361715	0.000929	9.289366	3.147323	0.074209
 303	1.5100e-01	12.0414	81.486741	0.000313	3.130113	1.060511	0.025005
 304	1.5150e-01	12.0831	81.886017	0.001000	9.996166	3.386793	0.079855
 305	1.5200e-01	12.1200	82.047341	0.000404	4.038855	1.368401	0.032265
 306	1.5250e-01	12.1713	82.293360	0.000616	6.159254	2.086812	0.049204
 307	1.5300e-01	12.2082	82.575677	0.000707	7.067996	2.394702	0.056463
 308	1.5350e-01	12.2419	82.926557	0.000878	8.784510	2.976272	0.070176
 309	1.5400e-01	12.2932	83.152410	0.000565	5.654397	1.915762	0.045171
 310	1.5450e-01	12.3301	83.281470	0.000323	3.231084	1.094721	0.025812
 311	1.5500e-01	12.3734	83.442794	0.000404	4.038855	1.368401	0.032265
 312	1.5550e-01	12.4136	83.789640	0.000868	8.683538	2.942062	0.069369
 313	1.5600e-01	12.4553	83.874335	0.000212	2.120399	0.718411	0.016939
 314	1.5650e-01	12.4954	84.249413	0.000939	9.390338	3.181533	0.075016
 315	1.5700e-01	12.5355	84.471234	0.000555	5.553426	1.881552	0.044364
 316	1.5750e-01	12.5676	84.680955	0.000525	5.250511	1.778921	0.041944
 317	1.5800e-01	12.6012	85.003603	0.000808	8.077710	2.736802	0.064530
 318	1.5850e-01	12.6510	85.302052	0.000747	7.471882	2.531542	0.059690
 319	1.5900e-01	12.6863	85.414979	0.000283	2.827198	0.957881	0.022585
 320	1.5950e-01	12.7200	85.705362	0.000727	7.269939	2.463122	0.058077
 321	1.6000e-01	12.7633	85.951381	0.000616	6.159254	2.086812	0.049204
 322	1.6050e-01	12.8114	86.366790	0.001040	10.400052	3.523633	0.083082
 323	1.6100e-01	12.8451	86.507948	0.000353	3.533998	1.197351	0.028232
 324	1.6150e-01	12.8932	86.943523	0.001090	10.904908	3.694683	0.087115
 325	1.6200e-01	12.9285	87.032251	0.000222	2.221370	0.752621	0.017746
 326	1.6250e-01	12.9718	87.185509	0.000384	3.836912	1.299981	0.030652
 327	1.6300e-01	12.9975	87.383131	0.000495	4.947597	1.676291	0.039524
 328	1.6350e-01	13.0472	87.673514	0.000727	7.269939	2.463122	0.058077
 329	1.6400e-01	13.0825	88.012294	0.000848	8.481595	2.873642	0.067756
 330	1.6450e-01	13.1210	88.238148	0.000565	5.654397	1.915762	0.045171
 331	1.6500e-01	13.1659	88.439803	0.000505	5.048569	1.710501	0.040331
 332	1.6550e-01	13.1980	88.758417	0.000798	7.976739	2.702592	0.063723
 333	1.6600e-01	13.2478	88.863278	0.000263	2.625256	0.889461	0.020972
 334	1.6650e-01	13.2847	89.117363	0.000636	6.361197	2.155232	0.050817
 335	1.6700e-01	13.3248	89.343217	0.000565	5.654397	1.915762	0.045171
 336	1.6750e-01	13.3649	89.629567	0.000717	7.168968	2.428912	0.057270
 337	1.6800e-01	13.4082	89.863487	0.000586	5.856340	1.984182	0.046784
 338	1.6850e-01	13.4435	90.174035	0.000777	7.774796	2.634172	0.062110
 339	1.6900e-01	13.4884	90.347458	0.000434	4.341769	1.471031	0.034685
 340	1.6950e-01	13.5253	90.565246	0.000545	5.452454	1.847341	0.043557
 341	1.7000e-01	13.5558	90.924191	0.000899	8.986452	3.044692	0.071789
 342	1.7050e-01	13.6007	91.166177	0.000606	6.058282	2.052602	0.048397
 343	1.7100e-01	13.6440	91.331534	0.000414	4.139826	1.402611	0.033071
 344	1.7150e-01	13.6857	91.464627	0.000333	3.332055	1.128931	0.026618
 345	1.7200e-01	13.7210	91.738877	0.000687	6.866053	2.326282	0.054850
 346	1.7250e-01	13.7675	92.134121	0.000990	9.895195	3.352583	0.079049
 347	1.7300e-01	13.7964	92.243015	0.000273	2.726227	0.923671	0.021779
 348	1.7350e-01	13.8477	92.327710	0.000212	2.120399	0.718411	0.016939
 349	1.7400e-01	13.8846	92.549530	0.000555	5.553426	1.881552	0.044364
 350	1.7450e-01	13.9231	92.775384	0.000565	5.654397	1.915762	0.045171
 351	1.7500e-01	13.9648	93.037535	0.000656	6.563139	2.223652	0.052430
 352	1.7550e-01	14.0114	93.275488	0.000596	5.957311	2.018392	0.047591
 353	1.7600e-01	14.0435	93.561838	0.000717	7.168968	2.428912	0.057270
 354	1.7650e-01	14.0884	93.795758	0.000586	5.856340	1.984182	0.046784
 355	1.7700e-01	14.1301	94.009512	0.000535	5.351483	1.813131	0.042751
 356	1.7750e-01	14.1734	94.279729	0.000677	6.765082	2.292072	0.054044
 357	1.7800e-01	14.2135	94.553980	0.000687	6.866053	2.326282	0.054850
 358	1.7850e-01	14.2472	94.872595	0.000798	7.976739	2.702592	0.063723
 359	1.7900e-01	14.2809	95.017787	0.000363	3.634969	1.231561	0.029038
 360	1.7950e-01	14.3210	95.304137	0.000717	7.168968	2.428912	0.057270
 361	1.8000e-01	14.3723	95.509825	0.000515	5.149540	1.744711	0.041138
 362	1.8050e-01	14.4076	95.707446	0.000495	4.947597	1.676291	0.039524
 363	1.8100e-01	14.4429	95.808274	0.000252	2.524284	0.855251	0.020165
 364	1.8150e-01	14.4942	96.058326	0.000626	6.260225	2.121022	0.050010
 365	1.8200e-01	14.5167	96.360808	0.000757	7.572853	2.565752	0.060496
 366	1.8250e-01	14.5632	96.481801	0.000303	3.029141	1.026301	0.024199
 367	1.8300e-01	14.6065	96.820582	0.000848	8.481595	2.873642	0.067756
 368	1.8350e-01	14.6418	97.042402	0.000555	5.553426	1.881552	0.044364
 369	1.8400e-01	14.6851	97.231958	0.000475	4.745655	1.607871	0.037911
 370	1.8450e-01	14.7269	97.324719	0.000232	2.322342	0.786831	0.018552
 371	1.8500e-01	14.7686	97.828856	0.001262	12.621422	4.276253	0.100827
 372	1.8550e-01	14.8087	98.046644	0.000545	5.452454	1.847341	0.043557
 373	1.8600e-01	14.8520	98.207968	0.000404	4.038855	1.368401	0.032265
 374	1.8650e-01	14.8825	98.405589	0.000495	4.947597	1.676291	0.039524
 375	1.8700e-01	14.9226	98.623377	0.000545	5.452454	1.847341	0.043557
 376	1.8750e-01	14.9627	98.954091	0.000828	8.279653	2.805222	0.066143
 377	1.8800e-01	15.0028	99.175911	0.000555	5.553426	1.881552	0.044364
 378	1.8850e-01	15.0413	99.369500	0.000485	4.846626	1.642081	0.038718
 379	1.8900e-01	15.0782	99.615519	0.000616	6.159254	2.086812	0.049204
 380	1.8950e-01	15.1359	99.756677	0.000353	3.533998	1.197351	0.028232
 381	1.9000e-01	15.1664	99.918001	0.000404	4.038855	1.368401	0.032265
 382	1.9050e-01	15.2129	100.248715	0.000828	8.279653	2.805222	0.066143
 383	1.9100e-01	15.2418	100.522966	0.000687	6.866053	2.326282	0.054850
 384	1.9150e-01	15.2948	100.607661	0.000212	2.120399	0.718411	0.016939
 385	1.9200e-01	15.3252	100.942408	0.000838	8.380624	2.839432	0.066949
 386	1.9250e-01	15.3702	101.160196	0.000545	5.452454	1.847341	0.043557
 387	1.9300e-01	15.4038	101.470744	0.000777	7.774796	2.634172	0.062110
 388	1.9350e-01	15.4391	101.668366	0.000495	4.947597	1.676291	0.039524
 389	1.9400e-01	15.4873	101.910352	0.000606	6.058282	2.052602	0.048397
 390	1.9450e-01	15.5306	102.019246	0.000273	2.726227	0.923671	0.021779
 391	1.9500e-01	15.5675	102.337860	0.000798	7.976739	2.702592	0.063723
 392	1.9550e-01	15.6124	102.523383	0.000464	4.644683	1.573661	0.037105
 393	1.9600e-01	15.6445	102.789568	0.000666	6.664111	2.257862	0.053237
 394	1.9650e-01	15.6862	103.011388	0.000555	5.553426	1.881552	0.044364
 395	1.9700e-01	15.7279	103.196910	0.000464	4.644683	1.573661	0.037105
 396	1.9750e-01	15.7680	103.382433	0.000464	4.644683	1.573661	0.037105
 397	1.9800e-01	15.8129	103.672816	0.000727	7.269939	2.463122	0.058077
 398	1.9850e-01	15.8418	103.838173	0.000414	4.139826	1.402611	0.033071
 399	1.9900e-01	15.8803	104.197119	0.000899	8.986452	3.044692	0.071789
 400	1.9950e-01	15.9284	104.427006	0.000576	5.755368	1.949972	0.045977
 401	2.0000e-01	15.9717	104.535899	0.000273	2.726227	0.923671	0.021779
 402	2.0050e-01	16.0070	104.624627	0.000222	2.221370	0.752621	0.017746
 403	2.0100e-01	16.0503	104.890812	0.000666	6.664111	2.257862	0.053237
 404	2.0150e-01	16.0872	105.096500	0.000515	5.149540	1.744711	0.041138
 405	2.0200e-01	16.1209	105.532075	0.001090	10.904908	3.694683	0.087115
 406	2.0250e-01	16.1771	105.661134	0.000323	3.231084	1.094721	0.025812
 407	2.0300e-01	16.2011	106.003947	0.000858	8.582567	2.907852	0.068563
 408	2.0350e-01	16.2493	106.197536	0.000485	4.846626	1.642081	0.038718
 409	2.0400e-01	16.2798	106.350794	0.000384	3.836912	1.299981	0.030652
 410	2.0450e-01	16.3199	106.657309	0.000767	7.673824	2.599962	0.061303
 411	2.0500e-01	16.3616	106.774269	0.000293	2.928170	0.992091	0.023392
 412	2.0550e-01	16.4097	107.016255	0.000606	6.058282	2.052602	0.048397
 413	2.0600e-01	16.4434	107.310671	0.000737	7.370910	2.497332	0.058883
 414	2.0650e-01	16.4883	107.504260	0.000485	4.846626	1.642081	0.038718
 415	2.0700e-01	16.5220	107.782544	0.000697	6.967025	2.360492	0.055657
 416	2.0750e-01	16.5605	108.109225	0.000818	8.178681	2.771012	0.065336
 417	2.0800e-01	16.6038	108.238284	0.000323	3.231084	1.094721	0.025812
 418	2.0850e-01	16.6455	108.355244	0.000293	2.928170	0.992091	0.023392
 419	2.0900e-01	16.6888	108.419773	0.000162	1.615542	0.547360	0.012906
 420	2.0950e-01	16.7209	108.810984	0.000979	9.794223	3.318373	0.078242
 421	2.1000e-01	16.7546	109.044903	0.000586	5.856340	1.984182	0.046784
 422	2.1050e-01	16.8011	109.270757	0.000565	5.654397	1.915762	0.045171
 423	2.1100e-01	16.8428	109.424015	0.000384	3.836912	1.299981	0.030652
 424	2.1150e-01	16.8942	109.605504	0.000454	4.543712	1.539451	0.036298
 425	2.1200e-01	16.9214	110.004781	0.001000	9.996166	3.386793	0.079855
 426	2.1250e-01	16.9648	110.109641	0.000263	2.625256	0.889461	0.020972
 427	2.1300e-01	17.0113	110.331462	0.000555	5.553426	1.881552	0.044364
 428	2.1350e-01	17.0514	110.577481	0.000616	6.159254	2.086812	0.049204
 429	2.1400e-01	17.0915	110.678308	0.000252	2.524284	0.855251	0.020165
 430	2.1450e-01	17.1316	111.025155	0.000868	8.683538	2.942062	0.069369
 431	2.1500e-01	17.1685	111.178413	0.000384	3.836912	1.299981	0.030652
 432	2.1550e-01	17.2118	111.428465	0.000626	6.260225	2.121022	0.050010
 433	2.1600e-01	17.2455	111.642219	0.000535	5.351483	1.813131	0.042751
 434	2.1650e-01	17.2872	111.872106	0.000576	5.755368	1.949972	0.045977
 435	2.1700e-01	17.3225	112.081827	0.000525	5.250511	1.778921	0.041944
 436	2.1750e-01	17.3706	112.263316	0.000454	4.543712	1.539451	0.036298
 437	2.1800e-01	17.3979	112.521434	0.000646	6.462168	2.189442	0.051624
 438	2.1850e-01	17.4460	112.682758	0.000404	4.038855	1.368401	0.032265
 439	2.1900e-01	17.4958	112.908612	0.000565	5.654397	1.915762	0.045171
 440	2.1950e-01	17.5198	113.098168	0.000475	4.745655	1.607871	0.037911
 441	2.2000e-01	17.5680	113.315955	0.000545	5.452454	1.847341	0.043557
 442	2.2050e-01	17.6032	113.517610	0.000505	5.048569	1.710501	0.040331
 443	2.2100e-01	17.6450	113.824125	0.000767	7.673824	2.599962	0.061303
 444	2.2150e-01	17.6835	114.033846	0.000525	5.250511	1.778921	0.041944
 445	2.2200e-01	17.7284	114.304064	0.000677	6.765082	2.292072	0.054044
 446	2.2250e-01	17.7733	114.437156	0.000333	3.332055	1.128931	0.026618
 447	2.2300e-01	17.8118	114.537984	0.000252	2.524284	0.855251	0.020165
 448	2.2350e-01	17.8471	114.808201	0.000677	6.765082	2.292072	0.054044
 449	2.2400e-01	17.9000	114.892896	0.000212	2.120399	0.718411	0.016939
 450	2.2450e-01	17.9305	115.223611	0.000828	8.279653	2.805222	0.066143
 451	2.2500e-01	17.9626	115.626920	0.001010	10.097137	3.421003	0.080662
 452	2.2550e-01	17.9995	115.731781	0.000263	2.625256	0.889461	0.020972
 453	2.2600e-01	18.0428	116.038296	0.000767	7.673824	2.599962	0.061303
 454	2.2650e-01	18.0829	116.300448	0.000656	6.563139	2.223652	0.052430
 455	2.2700e-01	18.1262	116.437573	0.000343	3.433027	1.163141	0.027425
 456	2.2750e-01	18.1631	116.631162	0.000485	4.846626	1.642081	0.038718
 457	2.2800e-01	18.2000	116.905413	0.000687	6.866053	2.326282	0.054850
 458	2.2850e-01	18.2514	116.978008	0.000182	1.817485	0.615780	0.014519
 459	2.2900e-01	18.2947	117.228061	0.000626	6.260225	2.121022	0.050010
 460	2.2950e-01	18.3219	117.373252	0.000363	3.634969	1.231561	0.029038
 461	2.3000e-01	18.3653	117.639437	0.000666	6.664111	2.257862	0.053237
 462	2.3050e-01	18.4198	117.889489	0.000626	6.260225	2.121022	0.050010
 463	2.3100e-01	18.4423	117.913687	0.000061	0.605828	0.205260	0.004840
 464	2.3150e-01	18.4856	118.244401	0.000828	8.279653	2.805222	0.066143
 465	2.3200e-01	18.5353	118.385560	0.000353	3.533998	1.197351	0.028232
 466	2.3250e-01	18.5706	118.554950	0.000424	4.240798	1.436821	0.033878
 467	2.3300e-01	18.6043	118.885664	0.000828	8.279653	2.805222	0.066143
 468	2.3350e-01	18.6508	119.095385	0.000525	5.250511	1.778921	0.041944
 469	2.3400e-01	18.6957	119.155882	0.000151	1.514571	0.513150	0.012099
 470	2.3450e-01	18.7374	119.522894	0.000919	9.188395	3.113113	0.073402
 471	2.3500e-01	18.7647	119.720515	0.000495	4.947597	1.676291	0.039524
 472	2.3550e-01	18.8112	119.881839	0.000404	4.038855	1.368401	0.032265
 473	2.3600e-01	18.8529	120.329513	0.001121	11.207823	3.797313	0.089535
 474	2.3650e-01	18.8898	120.353712	0.000061	0.605828	0.205260	0.004840
 475	2.3700e-01	18.9251	120.664261	0.000777	7.774796	2.634172	0.062110
 476	2.3750e-01	18.9717	120.857849	0.000485	4.846626	1.642081	0.038718
 477	2.3800e-01	19.0166	120.918346	0.000151	1.514571	0.513150	0.012099
 478	2.3850e-01	19.0519	121.245027	0.000818	8.178681	2.771012	0.065336
 479	2.3900e-01	19.0952	121.406351	0.000404	4.038855	1.368401	0.032265
 480	2.3950e-01	19.1289	121.523311	0.000293	2.928170	0.992091	0.023392
 481	2.4000e-01	19.1674	121.720932	0.000495	4.947597	1.676291	0.039524
 482	2.4050e-01	19.2139	121.966951	0.000616	6.159254	2.086812	0.049204
 483	2.4100e-01	19.2572	122.253301	0.000717	7.168968	2.428912	0.057270
 484	2.4150e-01	19.2909	122.289599	0.000091	0.908742	0.307890	0.007260
 485	2.4200e-01	19.3198	122.604181	0.000788	7.875767	2.668382	0.062916
 486	2.4250e-01	19.3631	122.922796	0.000798	7.976739	2.702592	0.063723
 487	2.4300e-01	19.4080	123.112351	0.000475	4.745655	1.607871	0.037911
 488	2.4350e-01	19.4577	123.100252	-0.000030	-0.302914	-0.102630	-0.002420
 489	2.4400e-01	19.4850	123.503562	0.001010	10.097137	3.421003	0.080662
 490	2.4450e-01	19.5267	123.681018	0.000444	4.442740	1.505241	0.035491
 491	2.4500e-01	19.5781	123.878640	0.000495	4.947597	1.676291	0.039524
 492	2.4550e-01	19.6134	124.039964	0.000404	4.038855	1.368401	0.032265
 493	2.4600e-01	19.6486	124.330347	0.000727	7.269939	2.463122	0.058077
 494	2.4650e-01	19.6807	124.330347	0.000000	0.000000	0.000000	0.000000
 495	2.4700e-01	19.7256	124.665094	0.000838	8.380624	2.839432	0.066949
 496	2.4750e-01	19.7593	124.834484	0.000424	4.240798	1.436821	0.033878
 497	2.4800e-01	19.8107	124.963544	0.000323	3.231084	1.094721	0.025812
 498	2.4850e-01	19.8460	125.257960	0.000737	7.370910	2.497332	0.058883
 499	2.4900e-01	19.8845	125.540277	0.000707	7.067996	2.394702	0.056463
 500	2.4950e-01	19.9278	125.624972	0.000212	2.120399	0.718411	0.016939
 501	2.5000e-01	19.9663	125.834693	0.000525	5.250511	1.778921	0.041944
 502	2.5050e-01	19.9791	125.967785	0.000333	3.332055	1.128931	0.026618
 503	2.5100e-01	19.9406	125.907289	0.000151	1.514571	0.513150	-0.012099
 504	2.5150e-01	19.9053	125.576575	0.000828	8.279653	2.805222	-0.066143
 505	2.5200e-01	19.8668	125.588674	-0.000030	-0.302914	-0.102630	0.002420
 506	2.5250e-01	19.8331	125.503979	0.000212	2.120399	0.718411	-0.016939
 507	2.5300e-01	19.7914	125.318456	0.000464	4.644683	1.573661	-0.037105
 508	2.5350e-01	19.7497	125.108735	0.000525	5.250511	1.778921	-0.041944
 509	2.5400e-01	19.7048	124.979676	0.000323	3.231084	1.094721	-0.025812
 510	2.5450e-01	19.6727	124.951444	0.000071	0.706800	0.239470	-0.005646
 511	2.5500e-01	19.6246	124.673161	0.000697	6.967025	2.360492	-0.055657
 512	2.5550e-01	19.5957	124.544101	0.000323	3.231084	1.094721	-0.025812
 513	2.5600e-01	19.5460	124.302115	0.000606	6.058282	2.052602	-0.048397
 514	2.5650e-01	19.5155	124.197255	0.000263	2.625256	0.889461	-0.020972
 515	2.5700e-01	19.4674	124.160957	0.000091	0.908742	0.307890	-0.007260
 516	2.5750e-01	19.4273	124.112560	0.000121	1.211656	0.410520	-0.009679
 517	2.5800e-01	19.3984	123.765713	0.000868	8.683538	2.942062	-0.069369
 518	2.5850e-01	19.3422	123.664886	0.000252	2.524284	0.855251	-0.020165
 519	2.5900e-01	19.3102	123.213179	0.001131	11.308794	3.831523	-0.090341
 520	2.5950e-01	19.2668	123.072020	0.000353	3.533998	1.197351	-0.028232
 521	2.6000e-01	19.2331	123.124451	-0.000131	-1.312628	-0.444730	0.010486
 522	2.6050e-01	19.1866	122.995392	0.000323	3.231084	1.094721	-0.025812
 523	2.6100e-01	19.1529	122.672744	0.000808	8.077710	2.736802	-0.064530
 524	2.6150e-01	19.1192	122.487221	0.000464	4.644683	1.573661	-0.037105
 525	2.6200e-01	19.0711	122.386394	0.000252	2.524284	0.855251	-0.020165
 526	2.6250e-01	19.0246	122.430758	-0.000111	-1.110685	-0.376310	0.008873
 527	2.6300e-01	18.9861	122.156507	0.000687	6.866053	2.326282	-0.054850
 528	2.6350e-01	18.9588	121.910488	0.000616	6.159254	2.086812	-0.049204
 529	2.6400e-01	18.9107	121.817727	0.000232	2.322342	0.786831	-0.018552
 530	2.6450e-01	18.8802	121.567675	0.000626	6.260225	2.121022	-0.050010
 531	2.6500e-01	18.8401	121.422483	0.000363	3.634969	1.231561	-0.029038
 532	2.6550e-01	18.7984	121.329722	0.000232	2.322342	0.786831	-0.018552
 533	2.6600e-01	18.7503	121.132100	0.000495	4.947597	1.676291	-0.039524
 534	2.6650e-01	18.7182	120.882048	0.000626	6.260225	2.121022	-0.050010
 535	2.6700e-01	18.6733	120.797353	0.000212	2.120399	0.718411	-0.016939
 536	2.6750e-01	18.6348	120.656194	0.000353	3.533998	1.197351	-0.028232
 537	2.6800e-01	18.5866	120.587632	0.000172	1.716513	0.581570	-0.013713
 538	2.6850e-01	18.5481	120.313381	0.000687	6.866053	2.326282	-0.054850
 539	2.6900e-01	18.5128	120.059296	0.000636	6.361197	2.155232	-0.050817
 540	2.6950e-01	18.4679	120.010899	0.000121	1.211656	0.410520	-0.009679
 541	2.7000e-01	18.4294	119.829409	0.000454	4.543712	1.539451	-0.036298
 542	2.7050e-01	18.3925	119.587423	0.000606	6.058282	2.052602	-0.048397
 543	2.7100e-01	18.3588	119.349470	0.000596	5.957311	2.018392	-0.047591
 544	2.7150e-01	18.3171	119.143782	0.000515	5.149540	1.744711	-0.041138
 545	2.7200e-01	18.2690	119.063120	0.000202	2.019427	0.684201	-0.016132
 546	2.7250e-01	18.2241	118.958260	0.000263	2.625256	0.889461	-0.020972
 547	2.7300e-01	18.1904	118.671910	0.000717	7.168968	2.428912	-0.057270
 548	2.7350e-01	18.1455	118.518652	0.000384	3.836912	1.299981	-0.030652
 549	2.7400e-01	18.1102	118.421858	0.000242	2.423313	0.821041	-0.019359
 550	2.7450e-01	18.0765	118.321030	0.000252	2.524284	0.855251	-0.020165
 551	2.7500e-01	18.0364	118.034680	0.000717	7.168968	2.428912	-0.057270
 552	2.7550e-01	17.9883	117.841092	0.000485	4.846626	1.642081	-0.038718
 553	2.7600e-01	17.9466	117.587006	0.000636	6.361197	2.155232	-0.050817
 554	2.7650e-01	17.9177	117.466013	0.000303	3.029141	1.026301	-0.024199
 555	2.7700e-01	17.8712	117.345020	0.000303	3.029141	1.026301	-0.024199
 556	2.7750e-01	17.8310	117.058670	0.000717	7.168968	2.428912	-0.057270
 557	2.7800e-01	17.7925	116.965909	0.000232	2.322342	0.786831	-0.018552
 558	2.7850e-01	17.7540	116.820718	0.000363	3.634969	1.231561	-0.029038
 559	2.7900e-01	17.7155	116.514202	0.000767	7.673824	2.599962	-0.061303
 560	2.7950e-01	17.6706	116.369011	0.000363	3.634969	1.231561	-0.029038
 561	2.8000e-01	17.6337	116.171389	0.000495	4.947597	1.676291	-0.039524
 562	2.8050e-01	17.5856	116.147190	0.000061	0.605828	0.205260	-0.004840
 563	2.8100e-01	17.5487	115.913270	0.000586	5.856340	1.984182	-0.046784
 564	2.8150e-01	17.5118	115.820509	0.000232	2.322342	0.786831	-0.018552
 565	2.8200e-01	17.4717	115.554325	0.000666	6.664111	2.257862	-0.053237
 566	2.8250e-01	17.4284	115.324438	0.000576	5.755368	1.949972	-0.045977
 567	2.8300e-01	17.3851	115.110684	0.000535	5.351483	1.813131	-0.042751
 568	2.8350e-01	17.3482	114.993724	0.000293	2.928170	0.992091	-0.023392
 569	2.8400e-01	17.3145	114.727539	0.000666	6.664111	2.257862	-0.053237
 570	2.8450e-01	17.2744	114.437156	0.000727	7.269939	2.463122	-0.058077
 571	2.8500e-01	17.2343	114.255667	0.000454	4.543712	1.539451	-0.036298
 572	2.8550e-01	17.2022	114.166939	0.000222	2.221370	0.752621	-0.017746
 573	2.8600e-01	17.1444	114.162906	0.000010	0.100971	0.034210	-0.000807
 574	2.8650e-01	17.1043	113.844291	0.000798	7.976739	2.702592	-0.063723
 575	2.8700e-01	17.0690	113.884622	-0.000101	-1.009714	-0.342100	0.008066
 576	2.8750e-01	17.0321	113.537775	0.000868	8.683538	2.942062	-0.069369
 577	2.8800e-01	16.9952	113.223194	0.000788	7.875767	2.668382	-0.062916
 578	2.8850e-01	16.9471	113.291756	-0.000172	-1.716513	-0.581570	0.013713
 579	2.8900e-01	16.9118	113.082035	0.000525	5.250511	1.778921	-0.041944
 580	2.8950e-01	16.8733	112.860215	0.000555	5.553426	1.881552	-0.044364
 581	2.9000e-01	16.8220	112.573865	0.000717	7.168968	2.428912	-0.057270
 582	2.9050e-01	16.8011	112.323813	0.000626	6.260225	2.121022	-0.050010
 583	2.9100e-01	16.7514	112.142323	0.000454	4.543712	1.539451	-0.036298
 584	2.9150e-01	16.7081	111.972933	0.000424	4.240798	1.436821	-0.033878
 585	2.9200e-01	16.6696	111.823708	0.000374	3.735941	1.265771	-0.029845
 586	2.9250e-01	16.6295	111.722881	0.000252	2.524284	0.855251	-0.020165
 587	2.9300e-01	16.5830	111.509127	0.000535	5.351483	1.813131	-0.042751
 588	2.9350e-01	16.5477	111.287306	0.000555	5.553426	1.881552	-0.044364
 589	2.9400e-01	16.5140	111.283273	0.000010	0.100971	0.034210	-0.000807
 590	2.9450e-01	16.4755	110.932394	0.000878	8.784510	2.976272	-0.070176
 591	2.9500e-01	16.4289	110.771070	0.000404	4.038855	1.368401	-0.032265
 592	2.9550e-01	16.3840	110.436322	0.000838	8.380624	2.839432	-0.066949
 593	2.9600e-01	16.3487	110.339528	0.000242	2.423313	0.821041	-0.019359
 594	2.9650e-01	16.3134	110.190303	0.000374	3.735941	1.265771	-0.029845
 595	2.9700e-01	16.2749	109.928152	0.000656	6.563139	2.223652	-0.052430
 596	2.9750e-01	16.2284	109.710365	0.000545	5.452454	1.847341	-0.043557
 597	2.9800e-01	16.1915	109.440147	0.000677	6.765082	2.292072	-0.054044
 598	2.9850e-01	16.1466	109.411915	0.000071	0.706800	0.239470	-0.005646
 599	2.9900e-01	16.1017	109.254625	0.000394	3.937884	1.334191	-0.031458
 600	2.9950e-01	16.0744	109.149764	0.000263	2.625256	0.889461	-0.020972
 601	3.0000e-01	16.0247	108.907778	0.000606	6.058282	2.052602	-0.048397
 602	3.0050e-01	15.9846	108.629494	0.000697	6.967025	2.360492	-0.055657
 603	3.0100e-01	15.9429	108.335078	0.000737	7.370910	2.497332	-0.058883
 604	3.0150e-01	15.9204	108.282648	0.000131	1.312628	0.444730	-0.010486
 605	3.0200e-01	15.8707	108.129390	0.000384	3.836912	1.299981	-0.030652
 606	3.0250e-01	15.8242	107.927735	0.000505	5.048569	1.710501	-0.040331
 607	3.0300e-01	15.7953	107.609120	0.000798	7.976739	2.702592	-0.063723
 608	3.0350e-01	15.7568	107.359068	0.000626	6.260225	2.121022	-0.050010
 609	3.0400e-01	15.7054	107.169513	0.000475	4.745655	1.607871	-0.037911
 610	3.0450e-01	15.6637	107.088851	0.000202	2.019427	0.684201	-0.016132
 611	3.0500e-01	15.6252	106.983990	0.000263	2.625256	0.889461	-0.020972
 612	3.0550e-01	15.5867	106.774269	0.000525	5.250511	1.778921	-0.041944
 613	3.0600e-01	15.5498	106.540349	0.000586	5.856340	1.984182	-0.046784
 614	3.0650e-01	15.5113	106.366926	0.000434	4.341769	1.471031	-0.034685
 615	3.0700e-01	15.4648	106.036212	0.000828	8.279653	2.805222	-0.066143
 616	3.0750e-01	15.4295	105.830524	0.000515	5.149540	1.744711	-0.041138
 617	3.0800e-01	15.3958	105.761961	0.000172	1.716513	0.581570	-0.013713
 618	3.0850e-01	15.3493	105.632902	0.000323	3.231084	1.094721	-0.025812
 619	3.0900e-01	15.3044	105.277989	0.000889	8.885481	3.010482	-0.070983
 620	3.0950e-01	15.2659	105.031970	0.000616	6.159254	2.086812	-0.049204
 621	3.1000e-01	15.2306	104.939209	0.000232	2.322342	0.786831	-0.018552
 622	3.1050e-01	15.1889	104.717389	0.000555	5.553426	1.881552	-0.044364
 623	3.1100e-01	15.1584	104.527833	0.000475	4.745655	1.607871	-0.037911
 624	3.1150e-01	15.1071	104.306013	0.000555	5.553426	1.881552	-0.044364
 625	3.1200e-01	15.0686	104.297946	0.000020	0.201943	0.068420	-0.001613
 626	3.1250e-01	15.0349	104.047894	0.000626	6.260225	2.121022	-0.050010
 627	3.1300e-01	14.9948	103.882537	0.000414	4.139826	1.402611	-0.033071
 628	3.1350e-01	14.9514	103.620386	0.000656	6.563139	2.223652	-0.052430
 629	3.1400e-01	14.9113	103.390499	0.000576	5.755368	1.949972	-0.045977
 630	3.1450e-01	14.8552	103.160613	0.000576	5.755368	1.949972	-0.045977
 631	3.1500e-01	14.8247	103.136414	0.000061	0.605828	0.205260	-0.004840
 632	3.1550e-01	14.7910	102.801667	0.000838	8.380624	2.839432	-0.066949
 633	3.1600e-01	14.7477	102.587913	0.000535	5.351483	1.813131	-0.042751
 634	3.1650e-01	14.7060	102.349960	0.000596	5.957311	2.018392	-0.047591
 635	3.1700e-01	14.6659	102.249132	0.000252	2.524284	0.855251	-0.020165
 636	3.1750e-01	14.6306	101.982948	0.000666	6.664111	2.257862	-0.053237
 637	3.1800e-01	14.5857	101.865988	0.000293	2.928170	0.992091	-0.023392
 638	3.1850e-01	14.5584	101.551406	0.000788	7.875767	2.668382	-0.062916
 639	3.1900e-01	14.5055	101.373950	0.000444	4.442740	1.505241	-0.035491
 640	3.1950e-01	14.4686	101.204560	0.000424	4.240798	1.436821	-0.033878
 641	3.2000e-01	14.4237	101.079534	0.000313	3.130113	1.060511	-0.025005
 642	3.2050e-01	14.3916	100.817382	0.000656	6.563139	2.223652	-0.052430
 643	3.2100e-01	14.3483	100.575396	0.000606	6.058282	2.052602	-0.048397
 644	3.2150e-01	14.3049	100.470536	0.000263	2.625256	0.889461	-0.020972
 645	3.2200e-01	14.2648	100.285013	0.000464	4.644683	1.573661	-0.037105
 646	3.2250e-01	14.2247	100.075292	0.000525	5.250511	1.778921	-0.041944
 647	3.2300e-01	14.1894	99.849439	0.000565	5.654397	1.915762	-0.045171
 648	3.2350e-01	14.1541	99.623585	0.000565	5.654397	1.915762	-0.045171
 649	3.2400e-01	14.1060	99.317070	0.000767	7.673824	2.599962	-0.061303
 650	3.2450e-01	14.0675	99.256573	0.000151	1.514571	0.513150	-0.012099
 651	3.2500e-01	14.0306	99.067018	0.000475	4.745655	1.607871	-0.037911
 652	3.2550e-01	13.9921	98.776634	0.000727	7.269939	2.463122	-0.058077
 653	3.2600e-01	13.9488	98.603211	0.000434	4.341769	1.471031	-0.034685
 654	3.2650e-01	13.9183	98.324927	0.000697	6.967025	2.360492	-0.055657
 655	3.2700e-01	13.8718	98.216034	0.000273	2.726227	0.923671	-0.021779
 656	3.2750e-01	13.8349	98.042610	0.000434	4.341769	1.471031	-0.034685
 657	3.2800e-01	13.7900	97.873220	0.000424	4.240798	1.436821	-0.033878
 658	3.2850e-01	13.7515	97.518308	0.000889	8.885481	3.010482	-0.070983
 659	3.2900e-01	13.7210	97.280355	0.000596	5.957311	2.018392	-0.047591
 660	3.2950e-01	13.6681	97.199693	0.000202	2.019427	0.684201	-0.016132
 661	3.3000e-01	13.6231	97.018203	0.000454	4.543712	1.539451	-0.036298
 662	3.3050e-01	13.5895	96.772184	0.000616	6.159254	2.086812	-0.049204
 663	3.3100e-01	13.5510	96.445503	0.000818	8.178681	2.771012	-0.065336
 664	3.3150e-01	13.5189	96.207551	0.000596	5.957311	2.018392	-0.047591
 665	3.3200e-01	13.4707	96.094624	0.000283	2.827198	0.957881	-0.022585
 666	3.3250e-01	13.4258	95.800208	0.000737	7.370910	2.497332	-0.058883
 667	3.3300e-01	13.3937	95.683248	0.000293	2.928170	0.992091	-0.023392
 668	3.3350e-01	13.3488	95.582420	0.000252	2.524284	0.855251	-0.020165
 669	3.3400e-01	13.3039	95.344468	0.000596	5.957311	2.018392	-0.047591
 670	3.3450e-01	13.2702	95.183144	0.000404	4.038855	1.368401	-0.032265
 671	3.3500e-01	13.2333	94.884694	0.000747	7.471882	2.531542	-0.059690
 672	3.3550e-01	13.1884	94.626576	0.000646	6.462168	2.189442	-0.051624
 673	3.3600e-01	13.1531	94.501550	0.000313	3.130113	1.060511	-0.025005
 674	3.3650e-01	13.1114	94.295862	0.000515	5.149540	1.744711	-0.041138
 675	3.3700e-01	13.0713	94.037744	0.000646	6.462168	2.189442	-0.051624
 676	3.3750e-01	13.0248	93.823989	0.000535	5.351483	1.813131	-0.042751
 677	3.3800e-01	12.9895	93.537639	0.000717	7.168968	2.428912	-0.057270
 678	3.3850e-01	12.9494	93.497308	0.000101	1.009714	0.342100	-0.008066
 679	3.3900e-01	12.9093	92.977039	0.001303	13.025307	4.413094	-0.104054
 680	3.3950e-01	12.8820	92.932675	0.000111	1.110685	0.376310	-0.008873
 681	3.4000e-01	12.8258	92.823781	0.000273	2.726227	0.923671	-0.021779
 682	3.4050e-01	12.7938	92.509199	0.000788	7.875767	2.668382	-0.062916
 683	3.4100e-01	12.7569	92.376107	0.000333	3.332055	1.128931	-0.026618
 684	3.4150e-01	12.7135	92.150253	0.000565	5.654397	1.915762	-0.045171
 685	3.4200e-01	12.6702	91.871970	0.000697	6.967025	2.360492	-0.055657
 686	3.4250e-01	12.6349	91.698546	0.000434	4.341769	1.471031	-0.034685
 687	3.4300e-01	12.5948	91.468660	0.000576	5.755368	1.949972	-0.045977
 688	3.4350e-01	12.5515	91.295237	0.000434	4.341769	1.471031	-0.034685
 689	3.4400e-01	12.5146	91.109714	0.000464	4.644683	1.573661	-0.037105
 690	3.4450e-01	12.4745	90.819331	0.000727	7.269939	2.463122	-0.058077
 691	3.4500e-01	12.4248	90.500716	0.000798	7.976739	2.702592	-0.063723
 692	3.4550e-01	12.3895	90.367624	0.000333	3.332055	1.128931	-0.026618
 693	3.4600e-01	12.3606	90.081274	0.000717	7.168968	2.428912	-0.057270
 694	3.4650e-01	12.3061	90.069175	0.000030	0.302914	0.102630	-0.002420
 695	3.4700e-01	12.2740	89.879619	0.000475	4.745655	1.607871	-0.037911
 696	3.4750e-01	12.2291	89.617467	0.000656	6.563139	2.223652	-0.052430
 697	3.4800e-01	12.1906	89.347250	0.000677	6.765082	2.292072	-0.054044
 698	3.4850e-01	12.1489	89.097198	0.000626	6.260225	2.121022	-0.050010
 699	3.4900e-01	12.1104	88.839079	0.000646	6.462168	2.189442	-0.051624
 700	3.4950e-01	12.0767	88.613226	0.000565	5.654397	1.915762	-0.045171
 701	3.5000e-01	12.0269	88.464001	0.000374	3.735941	1.265771	-0.029845
 702	3.5050e-01	11.9900	88.282512	0.000454	4.543712	1.539451	-0.036298
 703	3.5100e-01	11.9451	88.092956	0.000475	4.745655	1.607871	-0.037911
 704	3.5150e-01	11.9066	87.762242	0.000828	8.279653	2.805222	-0.066143
 705	3.5200e-01	11.8665	87.617051	0.000363	3.634969	1.231561	-0.029038
 706	3.5250e-01	11.8280	87.455727	0.000404	4.038855	1.368401	-0.032265
 707	3.5300e-01	11.7911	87.213741	0.000606	6.058282	2.052602	-0.048397
 708	3.5350e-01	11.7510	86.971755	0.000606	6.058282	2.052602	-0.048397
 709	3.5400e-01	11.7205	86.729769	0.000606	6.058282	2.052602	-0.048397
 710	3.5450e-01	11.6708	86.600710	0.000323	3.231084	1.094721	-0.025812
 711	3.5500e-01	11.6243	86.229665	0.000929	9.289366	3.147323	-0.074209
 712	3.5550e-01	11.5986	86.100606	0.000323	3.231084	1.094721	-0.025812
 713	3.5600e-01	11.5489	85.862653	0.000596	5.957311	2.018392	-0.047591
 714	3.5650e-01	11.5104	85.588402	0.000687	6.866053	2.326282	-0.054850
 715	3.5700e-01	11.4751	85.419012	0.000424	4.240798	1.436821	-0.033878
 716	3.5750e-01	11.4253	85.302052	0.000293	2.928170	0.992091	-0.023392
 717	3.5800e-01	11.3997	85.144761	0.000394	3.937884	1.334191	-0.031458
 718	3.5850e-01	11.3499	84.874544	0.000677	6.765082	2.292072	-0.054044
 719	3.5900e-01	11.3114	84.584160	0.000727	7.269939	2.463122	-0.058077
 720	3.5950e-01	11.2665	84.305877	0.000697	6.967025	2.360492	-0.055657
 721	3.6000e-01	11.2248	84.088089	0.000545	5.452454	1.847341	-0.043557
 722	3.6050e-01	11.1831	83.971129	0.000293	2.928170	0.992091	-0.023392
 723	3.6100e-01	11.1462	83.551687	0.001050	10.501023	3.557843	-0.083888
 724	3.6150e-01	11.1109	83.378264	0.000434	4.341769	1.471031	-0.034685
 725	3.6200e-01	11.0676	83.289536	0.000222	2.221370	0.752621	-0.017746
 726	3.6250e-01	11.0323	83.156444	0.000333	3.332055	1.128931	-0.026618
 727	3.6300e-01	10.9906	82.962855	0.000485	4.846626	1.642081	-0.038718
 728	3.6350e-01	10.9505	82.692637	0.000677	6.765082	2.292072	-0.054044
 729	3.6400e-01	10.9152	82.309493	0.000959	9.592281	3.249953	-0.076629
 730	3.6450e-01	10.8719	82.107838	0.000505	5.048569	1.710501	-0.040331
 731	3.6500e-01	10.8446	81.801322	0.000767	7.673824	2.599962	-0.061303
 732	3.6550e-01	10.8013	81.579502	0.000555	5.553426	1.881552	-0.044364
 733	3.6600e-01	10.7548	81.466575	0.000283	2.827198	0.957881	-0.022585
 734	3.6650e-01	10.7034	81.212490	0.000636	6.361197	2.155232	-0.050817
 735	3.6700e-01	10.6698	80.905975	0.000767	7.673824	2.599962	-0.061303
 736	3.6750e-01	10.6409	80.651889	0.000636	6.361197	2.155232	-0.050817
 737	3.6800e-01	10.5879	80.502665	0.000374	3.735941	1.265771	-0.029845
 738	3.6850e-01	10.5494	80.292944	0.000525	5.250511	1.778921	-0.041944
 739	3.6900e-01	10.5141	80.071123	0.000555	5.553426	1.881552	-0.044364
 740	3.6950e-01	10.4724	79.917865	0.000384	3.836912	1.299981	-0.030652
 741	3.7000e-01	10.4307	79.627482	0.000727	7.269939	2.463122	-0.058077
 742	3.7050e-01	10.3842	79.220139	0.001020	10.198109	3.455213	-0.081469
 743	3.7100e-01	10.3425	79.191908	0.000071	0.706800	0.239470	-0.005646
 744	3.7150e-01	10.3104	79.074948	0.000293	2.928170	0.992091	-0.023392
 745	3.7200e-01	10.2687	78.651472	0.001060	10.601994	3.592053	-0.084695
 746	3.7250e-01	10.2302	78.478049	0.000434	4.341769	1.471031	-0.034685
 747	3.7300e-01	10.1869	78.195732	0.000707	7.067996	2.394702	-0.056463
 748	3.7350e-01	10.1532	78.014243	0.000454	4.543712	1.539451	-0.036298
 749	3.7400e-01	10.1131	77.663363	0.000878	8.784510	2.976272	-0.070176
 750	3.7450e-01	10.0730	77.647231	0.000040	0.403885	0.136840	-0.003226
 751	3.7500e-01	10.0361	77.066465	0.001454	14.539878	4.926244	-0.116153
 752	3.7550e-01	10.0008	76.901108	0.000414	4.139826	1.402611	-0.033071
 753	3.7600e-01	9.9462	76.832545	0.000172	1.716513	0.581570	-0.013713
 754	3.7650e-01	9.9045	76.659122	0.000434	4.341769	1.471031	-0.034685
 755	3.7700e-01	9.8773	76.441334	0.000545	5.452454	1.847341	-0.043557
 756	3.7750e-01	9.8372	76.211448	0.000576	5.755368	1.949972	-0.045977
 757	3.7800e-01	9.7890	75.969462	0.000606	6.058282	2.052602	-0.048397
 758	3.7850e-01	9.7537	75.707310	0.000656	6.563139	2.223652	-0.052430
 759	3.7900e-01	9.7120	75.340298	0.000919	9.188395	3.113113	-0.073402
 760	3.7950e-01	9.6639	75.259636	0.000202	2.019427	0.684201	-0.016132
 761	3.8000e-01	9.6302	75.045882	0.000535	5.351483	1.813131	-0.042751
 762	3.8050e-01	9.5949	74.803896	0.000606	6.058282	2.052602	-0.048397
 763	3.8100e-01	9.5436	74.574010	0.000576	5.755368	1.949972	-0.045977
 764	3.8150e-01	9.5195	74.416719	0.000394	3.937884	1.334191	-0.031458
 765	3.8200e-01	9.4650	73.981144	0.001090	10.904908	3.694683	-0.087115
 766	3.8250e-01	9.4329	73.811754	0.000424	4.240798	1.436821	-0.033878
 767	3.8300e-01	9.3912	73.646397	0.000414	4.139826	1.402611	-0.033071
 768	3.8350e-01	9.3543	73.376179	0.000677	6.765082	2.292072	-0.054044
 769	3.8400e-01	9.3142	73.061598	0.000788	7.875767	2.668382	-0.062916
 770	3.8450e-01	9.2660	72.912373	0.000374	3.735941	1.265771	-0.029845
 771	3.8500e-01	9.2275	72.722817	0.000475	4.745655	1.607871	-0.037911
 772	3.8550e-01	9.1906	72.472765	0.000626	6.260225	2.121022	-0.050010
 773	3.8600e-01	9.1538	72.142051	0.000828	8.279653	2.805222	-0.066143
 774	3.8650e-01	9.1185	71.758907	0.000959	9.592281	3.249953	-0.076629
 775	3.8700e-01	9.0703	71.698410	0.000151	1.514571	0.513150	-0.012099
 776	3.8750e-01	9.0415	71.601616	0.000242	2.423313	0.821041	-0.019359
 777	3.8800e-01	8.9885	71.311233	0.000727	7.269939	2.463122	-0.058077
 778	3.8850e-01	8.9516	70.988585	0.000808	8.077710	2.736802	-0.064530
 779	3.8900e-01	8.9083	70.690136	0.000747	7.471882	2.531542	-0.059690
 780	3.8950e-01	8.8682	70.468315	0.000555	5.553426	1.881552	-0.044364
 781	3.9000e-01	8.8313	70.266660	0.000505	5.048569	1.710501	-0.040331
 782	3.9050e-01	8.7928	70.093237	0.000434	4.341769	1.471031	-0.034685
 783	3.9100e-01	8.7575	69.770589	0.000808	8.077710	2.736802	-0.064530
 784	3.9150e-01	8.7110	69.536670	0.000586	5.856340	1.984182	-0.046784
 785	3.9200e-01	8.6661	69.407610	0.000323	3.231084	1.094721	-0.025812
 786	3.9250e-01	8.6308	69.262419	0.000363	3.634969	1.231561	-0.029038
 787	3.9300e-01	8.5923	68.891374	0.000929	9.289366	3.147323	-0.074209
 788	3.9350e-01	8.5441	68.685686	0.000515	5.149540	1.744711	-0.041138
 789	3.9400e-01	8.5137	68.258177	0.001070	10.702966	3.626263	-0.085502
 790	3.9450e-01	8.4703	68.024258	0.000586	5.856340	1.984182	-0.046784
 791	3.9500e-01	8.4270	67.717742	0.000767	7.673824	2.599962	-0.061303
 792	3.9550e-01	8.3853	67.612882	0.000263	2.625256	0.889461	-0.020972
 793	3.9600e-01	8.3500	67.411227	0.000505	5.048569	1.710501	-0.040331
 794	3.9650e-01	8.3179	67.080513	0.000828	8.279653	2.805222	-0.066143
 795	3.9700e-01	8.2634	66.866758	0.000535	5.351483	1.813131	-0.042751
 796	3.9750e-01	8.2329	66.693335	0.000434	4.341769	1.471031	-0.034685
 797	3.9800e-01	8.1896	66.378753	0.000788	7.875767	2.668382	-0.062916
 798	3.9850e-01	8.1479	66.136767	0.000606	6.058282	2.052602	-0.048397
 799	3.9900e-01	8.1078	65.886715	0.000626	6.260225	2.121022	-0.050010
 800	3.9950e-01	8.0789	65.523736	0.000909	9.087424	3.078902	-0.072596
 801	4.0000e-01	8.0324	65.382578	0.000353	3.533998	1.197351	-0.028232
 802	4.0050e-01	7.9939	65.140592	0.000606	6.058282	2.052602	-0.048397
 803	4.0100e-01	7.9506	64.793746	0.000868	8.683538	2.942062	-0.069369
 804	4.0150e-01	7.9057	64.588058	0.000515	5.149540	1.744711	-0.041138
 805	4.0200e-01	7.8704	64.410601	0.000444	4.442740	1.505241	-0.035491
 806	4.0250e-01	7.8254	64.229112	0.000454	4.543712	1.539451	-0.036298
 807	4.0300e-01	7.7950	63.975027	0.000636	6.361197	2.155232	-0.050817
 808	4.0350e-01	7.7500	63.591882	0.000959	9.592281	3.249953	-0.076629
 809	4.0400e-01	7.7132	63.410393	0.000454	4.543712	1.539451	-0.036298
 810	4.0450e-01	7.6795	63.136142	0.000687	6.866053	2.326282	-0.054850
 811	4.0500e-01	7.6281	62.728799	0.001020	10.198109	3.455213	-0.081469
 812	4.0550e-01	7.5864	62.583608	0.000363	3.634969	1.231561	-0.029038
 813	4.0600e-01	7.5447	62.394052	0.000475	4.745655	1.607871	-0.037911
 814	4.0650e-01	7.5062	62.200463	0.000485	4.846626	1.642081	-0.038718
 815	4.0700e-01	7.4709	61.994775	0.000515	5.149540	1.744711	-0.041138
 816	4.0750e-01	7.4356	61.672127	0.000808	8.077710	2.736802	-0.064530
 817	4.0800e-01	7.3859	61.361579	0.000777	7.774796	2.634172	-0.062110
 818	4.0850e-01	7.3506	61.119593	0.000606	6.058282	2.052602	-0.048397
 819	4.0900e-01	7.3153	60.954236	0.000414	4.139826	1.402611	-0.033071
 820	4.0950e-01	7.2720	60.615455	0.000848	8.481595	2.873642	-0.067756
 821	4.1000e-01	7.2335	60.337172	0.000697	6.967025	2.360492	-0.055657
 822	4.1050e-01	7.1918	60.196013	0.000353	3.533998	1.197351	-0.028232
 823	4.1100e-01	7.1404	59.909663	0.000717	7.168968	2.428912	-0.057270
 824	4.1150e-01	7.1164	59.655578	0.000636	6.361197	2.155232	-0.050817
 825	4.1200e-01	7.0682	59.506353	0.000374	3.735941	1.265771	-0.029845
 826	4.1250e-01	7.0201	59.203871	0.000757	7.572853	2.565752	-0.060496
 827	4.1300e-01	6.9848	58.852991	0.000878	8.784510	2.976272	-0.070176
 828	4.1350e-01	6.9431	58.611005	0.000606	6.058282	2.052602	-0.048397
 829	4.1400e-01	6.8998	58.312556	0.000747	7.471882	2.531542	-0.059690
 830	4.1450e-01	6.8677	57.965710	0.000868	8.683538	2.942062	-0.069369
 831	4.1500e-01	6.8324	57.905213	0.000151	1.514571	0.513150	-0.012099
 832	4.1550e-01	6.7891	57.546267	0.000899	8.986452	3.044692	-0.071789
 833	4.1600e-01	6.7458	57.445440	0.000252	2.524284	0.855251	-0.020165
 834	4.1650e-01	6.7073	57.219586	0.000565	5.654397	1.915762	-0.045171
 835	4.1700e-01	6.6656	57.021965	0.000495	4.947597	1.676291	-0.039524
 836	4.1750e-01	6.6399	56.719482	0.000757	7.572853	2.565752	-0.060496
 837	4.1800e-01	6.5918	56.388768	0.000828	8.279653	2.805222	-0.066143
 838	4.1850e-01	6.5485	56.199212	0.000475	4.745655	1.607871	-0.037911
 839	4.1900e-01	6.5164	55.969326	0.000576	5.755368	1.949972	-0.045977
 840	4.1950e-01	6.4747	55.561983	0.001020	10.198109	3.455213	-0.081469
 841	4.2000e-01	6.4298	55.271600	0.000727	7.269939	2.463122	-0.058077
 842	4.2050e-01	6.3897	55.154640	0.000293	2.928170	0.992091	-0.023392
 843	4.2100e-01	6.3512	54.751330	0.001010	10.097137	3.421003	-0.080662
 844	4.2150e-01	6.3078	54.585973	0.000414	4.139826	1.402611	-0.033071
 845	4.2200e-01	6.2709	54.327855	0.000646	6.462168	2.189442	-0.051624
 846	4.2250e-01	6.2260	54.041505	0.000717	7.168968	2.428912	-0.057270
 847	4.2300e-01	6.2004	53.686592	0.000889	8.885481	3.010482	-0.070983
 848	4.2350e-01	6.1538	53.581731	0.000263	2.625256	0.889461	-0.020972
 849	4.2400e-01	6.1041	53.355878	0.000565	5.654397	1.915762	-0.045171
 850	4.2450e-01	6.0688	53.085660	0.000677	6.765082	2.292072	-0.054044
 851	4.2500e-01	6.0271	53.004998	0.000202	2.019427	0.684201	-0.016132
 852	4.2550e-01	5.9918	52.508927	0.001242	12.419479	4.207833	-0.099214
 853	4.2600e-01	5.9581	52.291140	0.000545	5.452454	1.847341	-0.043557
 854	4.2650e-01	5.9132	52.121750	0.000424	4.240798	1.436821	-0.033878
 855	4.2700e-01	5.8731	51.867665	0.000636	6.361197	2.155232	-0.050817
 856	4.2750e-01	5.8330	51.528884	0.000848	8.481595	2.873642	-0.067756
 857	4.2800e-01	5.7865	51.303031	0.000565	5.654397	1.915762	-0.045171
 858	4.2850e-01	5.7480	51.198170	0.000263	2.625256	0.889461	-0.020972
 859	4.2900e-01	5.7095	50.839224	0.000899	8.986452	3.044692	-0.071789
 860	4.2950e-01	5.6790	50.464146	0.000939	9.390338	3.181533	-0.075016
 861	4.3000e-01	5.6276	50.294756	0.000424	4.240798	1.436821	-0.033878
 862	4.3050e-01	5.5891	50.113267	0.000454	4.543712	1.539451	-0.036298
 863	4.3100e-01	5.5474	49.718023	0.000990	9.895195	3.352583	-0.079049
 864	4.3150e-01	5.5073	49.504269	0.000535	5.351483	1.813131	-0.042751
 865	4.3200e-01	5.4672	49.193720	0.000777	7.774796	2.634172	-0.062110
 866	4.3250e-01	5.4303	48.971900	0.000555	5.553426	1.881552	-0.044364
 867	4.3300e-01	5.3870	48.629086	0.000858	8.582567	2.907852	-0.068563
 868	4.3350e-01	5.3469	48.306439	0.000808	8.077710	2.736802	-0.064530
 869	4.3400e-01	5.3132	48.068486	0.000596	5.957311	2.018392	-0.047591
 870	4.3450e-01	5.2715	47.903129	0.000414	4.139826	1.402611	-0.033071
 871	4.3500e-01	5.2266	47.818434	0.000212	2.120399	0.718411	-0.016939
 872	4.3550e-01	5.1929	47.423190	0.000990	9.895195	3.352583	-0.079049
 873	4.3600e-01	5.1512	47.072310	0.000878	8.784510	2.976272	-0.070176
 874	4.3650e-01	5.1191	46.862589	0.000525	5.250511	1.778921	-0.041944
 875	4.3700e-01	5.0710	46.604471	0.000646	6.462168	2.189442	-0.051624
 876	4.3750e-01	5.0453	46.193095	0.001030	10.299080	3.489423	-0.082275
 877	4.3800e-01	4.9956	45.963208	0.000576	5.755368	1.949972	-0.045977
 878	4.3850e-01	4.9603	45.809950	0.000384	3.836912	1.299981	-0.030652
 879	4.3900e-01	4.9106	45.467137	0.000858	8.582567	2.907852	-0.068563
 880	4.3950e-01	4.8672	45.160622	0.000767	7.673824	2.599962	-0.061303
 881	4.4000e-01	4.8319	45.031562	0.000323	3.231084	1.094721	-0.025812
 882	4.4050e-01	4.7870	44.777477	0.000636	6.361197	2.155232	-0.050817
 883	4.4100e-01	4.7582	44.551624	0.000565	5.654397	1.915762	-0.045171
 884	4.4150e-01	4.7164	44.172512	0.000949	9.491309	3.215743	-0.075822
 885	4.4200e-01	4.6731	43.700640	0.001181	11.813651	4.002573	-0.094375
 886	4.4250e-01	4.6202	43.583680	0.000293	2.928170	0.992091	-0.023392
 887	4.4300e-01	4.5801	43.369926	0.000535	5.351483	1.813131	-0.042751
 888	4.4350e-01	4.5560	42.998881	0.000929	9.289366	3.147323	-0.074209
 889	4.4400e-01	4.5031	42.797226	0.000505	5.048569	1.710501	-0.040331
 890	4.4450e-01	4.4758	42.648001	0.000374	3.735941	1.265771	-0.029845
 891	4.4500e-01	4.4309	42.321320	0.000818	8.178681	2.771012	-0.065336
 892	4.4550e-01	4.3812	42.159996	0.000404	4.038855	1.368401	-0.032265
 893	4.4600e-01	4.3507	41.752653	0.001020	10.198109	3.455213	-0.081469
 894	4.4650e-01	4.3122	41.434038	0.000798	7.976739	2.702592	-0.063723
 895	4.4700e-01	4.2673	41.131556	0.000757	7.572853	2.565752	-0.060496
 896	4.4750e-01	4.2320	40.877471	0.000636	6.361197	2.155232	-0.050817
 897	4.4800e-01	4.1903	40.647584	0.000576	5.755368	1.949972	-0.045977
 898	4.4850e-01	4.1534	40.441896	0.000515	5.149540	1.744711	-0.041138
 899	4.4900e-01	4.1100	40.228142	0.000535	5.351483	1.813131	-0.042751
 900	4.4950e-01	4.0780	39.905494	0.000808	8.077710	2.736802	-0.064530
 901	4.5000e-01	4.0266	39.724005	0.000454	4.543712	1.539451	-0.036298
 902	4.5050e-01	3.9897	39.486052	0.000596	5.957311	2.018392	-0.047591
 903	4.5100e-01	3.9512	39.070643	0.001040	10.400052	3.523633	-0.083082
 904	4.5150e-01	3.9127	38.739929	0.000828	8.279653	2.805222	-0.066143
 905	4.5200e-01	3.8694	38.409215	0.000828	8.279653	2.805222	-0.066143
 906	4.5250e-01	3.8357	38.211593	0.000495	4.947597	1.676291	-0.039524
 907	4.5300e-01	3.7924	37.929276	0.000707	7.067996	2.394702	-0.056463
 908	4.5350e-01	3.7523	37.642926	0.000717	7.168968	2.428912	-0.057270
 909	4.5400e-01	3.7058	37.388841	0.000636	6.361197	2.155232	-0.050817
 910	4.5450e-01	3.6689	37.215417	0.000434	4.341769	1.471031	-0.034685
 911	4.5500e-01	3.6336	37.001663	0.000535	5.351483	1.813131	-0.042751
 912	4.5550e-01	3.5887	36.703214	0.000747	7.471882	2.531542	-0.059690
 913	4.5600e-01	3.5470	36.336202	0.000919	9.188395	3.113113	-0.073402
 914	4.5650e-01	3.5117	36.211176	0.000313	3.130113	1.060511	-0.025005
 915	4.5700e-01	3.4732	35.707038	0.001262	12.621422	4.276253	-0.100827
 916	4.5750e-01	3.4266	35.582012	0.000313	3.130113	1.060511	-0.025005
 917	4.5800e-01	3.3913	35.287596	0.000737	7.370910	2.497332	-0.058883
 918	4.5850e-01	3.3480	34.964948	0.000808	8.077710	2.736802	-0.064530
 919	4.5900e-01	3.3079	34.791525	0.000434	4.341769	1.471031	-0.034685
 920	4.5950e-01	3.2758	34.505175	0.000717	7.168968	2.428912	-0.057270
 921	4.6000e-01	3.2309	34.190593	0.000788	7.875767	2.668382	-0.062916
 922	4.6050e-01	3.1892	33.880045	0.000777	7.774796	2.634172	-0.062110
 923	4.6100e-01	3.1555	33.698555	0.000454	4.543712	1.539451	-0.036298
 924	4.6150e-01	3.1170	33.331543	0.000919	9.188395	3.113113	-0.073402
 925	4.6200e-01	3.0609	33.109723	0.000555	5.553426	1.881552	-0.044364
 926	4.6250e-01	3.0336	32.895969	0.000535	5.351483	1.813131	-0.042751
 927	4.6300e-01	2.9887	32.613652	0.000707	7.067996	2.394702	-0.056463
 928	4.6350e-01	2.9550	32.295037	0.000798	7.976739	2.702592	-0.063723
 929	4.6400e-01	2.9085	31.911893	0.000959	9.592281	3.249953	-0.076629
 930	4.6450e-01	2.8716	31.669907	0.000606	6.058282	2.052602	-0.048397
 931	4.6500e-01	2.8315	31.452119	0.000545	5.452454	1.847341	-0.043557
 932	4.6550e-01	2.7946	31.226266	0.000565	5.654397	1.915762	-0.045171
 933	4.6600e-01	2.7384	30.871353	0.000889	8.885481	3.010482	-0.070983
 934	4.6650e-01	2.7047	30.468043	0.001010	10.097137	3.421003	-0.080662
 935	4.6700e-01	2.6646	30.189760	0.000697	6.967025	2.360492	-0.055657
 936	4.6750e-01	2.6293	29.992138	0.000495	4.947597	1.676291	-0.039524
 937	4.6800e-01	2.5828	29.681589	0.000777	7.774796	2.634172	-0.062110
 938	4.6850e-01	2.5555	29.419438	0.000656	6.563139	2.223652	-0.052430
 939	4.6900e-01	2.5106	29.197617	0.000555	5.553426	1.881552	-0.044364
 940	4.6950e-01	2.4705	28.951598	0.000616	6.159254	2.086812	-0.049204
 941	4.7000e-01	2.4240	28.653149	0.000747	7.471882	2.531542	-0.059690
 942	4.7050e-01	2.3999	28.229674	0.001060	10.601994	3.592053	-0.084695
 943	4.7100e-01	2.3470	28.092548	0.000343	3.433027	1.163141	-0.027425
 944	4.7150e-01	2.3165	27.777967	0.000788	7.875767	2.668382	-0.062916
 945	4.7200e-01	2.2716	27.431120	0.000868	8.683538	2.942062	-0.069369
 946	4.7250e-01	2.2235	27.273829	0.000394	3.937884	1.334191	-0.031458
 947	4.7300e-01	2.1850	26.874553	0.001000	9.996166	3.386793	-0.079855
 948	4.7350e-01	2.1465	26.644666	0.000576	5.755368	1.949972	-0.045977
 949	4.7400e-01	2.1048	26.354283	0.000727	7.269939	2.463122	-0.058077
 950	4.7450e-01	2.0679	26.071966	0.000707	7.067996	2.394702	-0.056463
 951	4.7500e-01	2.0374	25.797715	0.000687	6.866053	2.326282	-0.054850
 952	4.7550e-01	1.9844	25.515398	0.000707	7.067996	2.394702	-0.056463
 953	4.7600e-01	1.9556	25.216949	0.000747	7.471882	2.531542	-0.059690
 954	4.7650e-01	1.9106	25.091923	0.000313	3.130113	1.060511	-0.025005
 955	4.7700e-01	1.8657	24.821705	0.000677	6.765082	2.292072	-0.054044
 956	4.7750e-01	1.8368	24.289336	0.001333	13.328221	4.515724	-0.106474
 957	4.7800e-01	1.7919	23.970722	0.000798	7.976739	2.702592	-0.063723
 958	4.7850e-01	1.7502	23.700504	0.000677	6.765082	2.292072	-0.054044
 959	4.7900e-01	1.7149	23.337525	0.000909	9.087424	3.078902	-0.072596
 960	4.7950e-01	1.6700	23.244764	0.000232	2.322342	0.786831	-0.018552
 961	4.8000e-01	1.6267	22.813222	0.001080	10.803937	3.660473	-0.086308
 962	4.8050e-01	1.5946	22.631733	0.000454	4.543712	1.539451	-0.036298
 963	4.8100e-01	1.5433	22.426045	0.000515	5.149540	1.744711	-0.041138
 964	4.8150e-01	1.5192	22.103397	0.000808	8.077710	2.736802	-0.064530
 965	4.8200e-01	1.4695	21.808981	0.000737	7.370910	2.497332	-0.058883
 966	4.8250e-01	1.4342	21.522631	0.000717	7.168968	2.428912	-0.057270
 967	4.8300e-01	1.3861	21.308876	0.000535	5.351483	1.813131	-0.042751
 968	4.8350e-01	1.3524	20.994295	0.000788	7.875767	2.668382	-0.062916
 969	4.8400e-01	1.3058	20.603084	0.000979	9.794223	3.318373	-0.078242
 970	4.8450e-01	1.2786	20.215907	0.000969	9.693252	3.284163	-0.077435
 971	4.8500e-01	1.2304	19.949722	0.000666	6.664111	2.257862	-0.053237
 972	4.8550e-01	1.1855	19.748067	0.000505	5.048569	1.710501	-0.040331
 973	4.8600e-01	1.1518	19.457684	0.000727	7.269939	2.463122	-0.058077
 974	4.8650e-01	1.1069	19.175367	0.000707	7.067996	2.394702	-0.056463
 975	4.8700e-01	1.0700	18.856753	0.000798	7.976739	2.702592	-0.063723
 976	4.8750e-01	1.0283	18.622833	0.000586	5.856340	1.984182	-0.046784
 977	4.8800e-01	0.9866	18.457476	0.000414	4.139826	1.402611	-0.033071
 978	4.8850e-01	0.9433	18.082398	0.000939	9.390338	3.181533	-0.075016
 979	4.8900e-01	0.9080	17.743617	0.000848	8.481595	2.873642	-0.067756
 980	4.8950e-01	0.8743	17.445168	0.000747	7.471882	2.531542	-0.059690
 981	4.9000e-01	0.8326	17.126553	0.000798	7.976739	2.702592	-0.063723
 982	4.9050e-01	0.7797	16.864402	0.000656	6.563139	2.223652	-0.052430
 983	4.9100e-01	0.7492	16.565953	0.000747	7.471882	2.531542	-0.059690
 984	4.9150e-01	0.6994	16.364298	0.000505	5.048569	1.710501	-0.040331
 985	4.9200e-01	0.6690	15.924690	0.001101	11.005880	3.728893	-0.087922
 986	4.9250e-01	0.6385	15.706903	0.000545	5.452454	1.847341	-0.043557
 987	4.9300e-01	0.5759	15.468950	0.000596	5.957311	2.018392	-0.047591
 988	4.9350e-01	0.5486	15.170500	0.000747	7.471882	2.531542	-0.059690
 989	4.9400e-01	0.5166	14.795422	0.000939	9.390338	3.181533	-0.075016
 990	4.9450e-01	0.4700	14.545370	0.000626	6.260225	2.121022	-0.050010
 991	4.9500e-01	0.4235	14.178358	0.000919	9.188395	3.113113	-0.073402
 992	4.9550e-01	0.3914	13.960571	0.000545	5.452454	1.847341	-0.043557
 993	4.9600e-01	0.3481	13.609691	0.000878	8.784510	2.976272	-0.070176
 994	4.9650e-01	0.3112	13.379805	0.000576	5.755368	1.949972	-0.045977
 995	4.9700e-01	0.2679	13.166050	0.000535	5.351483	1.813131	-0.042751
 996	4.9750e-01	0.2342	12.690145	0.001191	11.914622	4.036783	-0.095181
 997	4.9800e-01	0.1829	12.315067	0.000939	9.390338	3.181533	-0.075016
 998	4.9850e-01	0.1444	12.218272	0.000242	2.423313	0.821041	-0.019359
 999	4.9900e-01	0.1139	12.020650	0.000495	4.947597	1.676291	-0.039524
1000	4.9950e-01	0.0690	11.536679	0.001212	12.116565	4.105203	-0.096794
1001	5.0000e-01	0.0321	11.153534	0.000959	9.592281	3.249953	-0.076629
1002	5.0050e-01	0.0064	10.907515	0.000616	6.159254	2.086812	-0.049204
1003	5.0100e-01	-0.0385	10.588900	0.000798	7.976739	2.702592	-0.063723
1004	5.0150e-01	-0.0834	10.475974	0.000283	2.827198	0.957881	-0.022585
1005	5.0200e-01	-0.1235	10.125094	0.000878	8.784510	2.976272	-0.070176
1006	5.0250e-01	-0.1684	9.955704	0.000424	4.240798	1.436821	-0.033878
1007	5.0300e-01	-0.1973	9.580626	0.000939	9.390338	3.181533	-0.075016
1008	5.0350e-01	-0.2374	9.354772	0.000565	5.654397	1.915762	-0.045171
1009	5.0400e-01	-0.2807	9.060356	0.000737	7.370910	2.497332	-0.058883
1010	5.0450e-01	-0.3257	8.669145	0.000979	9.794223	3.318373	-0.078242
1011	5.0500e-01	-0.3545	8.495722	0.000434	4.341769	1.471031	-0.034685
1012	5.0550e-01	-0.4075	8.177107	0.000798	7.976739	2.702592	-0.063723
1013	5.0600e-01	-0.4460	7.721367	0.001141	11.409765	3.865733	-0.091148
1014	5.0650e-01	-0.4813	7.515679	0.000515	5.149540	1.744711	-0.041138
1015	5.0700e-01	-0.5326	7.297892	0.000545	5.452454	1.847341	-0.043557
1016	5.0750e-01	-0.5679	7.003476	0.000737	7.370910	2.497332	-0.058883
1017	5.0800e-01	-0.6000	6.559835	0.001111	11.106851	3.763103	-0.088728
1018	5.0850e-01	-0.6369	6.442875	0.000293	2.928170	0.992091	-0.023392
1019	5.0900e-01	-0.6818	6.148459	0.000737	7.370910	2.497332	-0.058883
1020	5.0950e-01	-0.7235	5.757248	0.000979	9.794223	3.318373	-0.078242
1021	5.1000e-01	-0.7588	5.462832	0.000737	7.370910	2.497332	-0.058883
1022	5.1050e-01	-0.8053	5.124052	0.000848	8.481595	2.873642	-0.067756
1023	5.1100e-01	-0.8438	4.801404	0.000808	8.077710	2.736802	-0.064530
1024	5.1150e-01	-0.8855	4.632014	0.000424	4.240798	1.436821	-0.033878
1025	5.1200e-01	-0.9224	4.123843	0.001272	12.722393	4.310463	-0.101634
1026	5.1250e-01	-0.9593	3.986718	0.000343	3.433027	1.163141	-0.027425
1027	5.1300e-01	-1.0091	3.639871	0.000868	8.683538	2.942062	-0.069369
1028	5.1350e-01	-1.0428	3.353521	0.000717	7.168968	2.428912	-0.057270
1029	5.1400e-01	-1.0877	3.042973	0.000777	7.774796	2.634172	-0.062110
1030	5.1450e-01	-1.1182	2.651762	0.000979	9.794223	3.318373	-0.078242
1031	5.1500e-01	-1.1631	2.502538	0.000374	3.735941	1.265771	-0.029845
1032	5.1550e-01	-1.2016	1.986301	0.001292	12.924336	4.378884	-0.103247
1033	5.1600e-01	-1.2433	1.865308	0.000303	3.029141	1.026301	-0.024199
1034	5.1650e-01	-1.2994	1.566859	0.000747	7.471882	2.531542	-0.059690
1035	5.1700e-01	-1.3171	1.107086	0.001151	11.510737	3.899943	-0.091955
1036	5.1750e-01	-1.3700	0.925596	0.000454	4.543712	1.539451	-0.036298
1037	5.1800e-01	-1.4037	0.752173	0.000434	4.341769	1.471031	-0.034685
1038	5.1850e-01	-1.4342	0.373062	0.000949	9.491309	3.215743	-0.075822
1039	5.1900e-01	-1.4967	0.123010	0.000626	6.260225	2.121022	-0.050010
1040	5.1950e-01	-1.5336	-0.187539	0.000777	7.774796	2.634172	-0.062110
1041	5.2000e-01	-1.5593	-0.461790	0.000687	6.866053	2.326282	-0.054850
1042	5.2050e-01	-1.5962	-0.913497	0.001131	11.308794	3.831523	-0.090341
1043	5.2100e-01	-1.6443	-1.159516	0.000616	6.159254	2.086812	-0.049204
1044	5.2150e-01	-1.6828	-1.357138	0.000495	4.947597	1.676291	-0.039524
1045	5.2200e-01	-1.7165	-1.728183	0.000929	9.289366	3.147323	-0.074209
1046	5.2250e-01	-1.7550	-2.046798	0.000798	7.976739	2.702592	-0.063723
1047	5.2300e-01	-1.8080	-2.325081	0.000697	6.967025	2.360492	-0.055657
1048	5.2350e-01	-1.8433	-2.438008	0.000283	2.827198	0.957881	-0.022585
1049	5.2400e-01	-1.8882	-2.829219	0.000979	9.794223	3.318373	-0.078242
1050	5.2450e-01	-1.9155	-3.067171	0.000596	5.957311	2.018392	-0.047591
1051	5.2500e-01	-1.9668	-3.526945	0.001151	11.510737	3.899943	-0.091955
1052	5.2550e-01	-2.0069	-3.668103	0.000353	3.533998	1.197351	-0.028232
1053	5.2600e-01	-2.0342	-3.990751	0.000808	8.077710	2.736802	-0.064530
1054	5.2650e-01	-2.0887	-4.337598	0.000868	8.683538	2.942062	-0.069369
1055	5.2700e-01	-2.1240	-4.632014	0.000737	7.370910	2.497332	-0.058883
1056	5.2750e-01	-2.1673	-4.930463	0.000747	7.471882	2.531542	-0.059690
1057	5.2800e-01	-2.1978	-5.176482	0.000616	6.159254	2.086812	-0.049204
1058	5.2850e-01	-2.2411	-5.543494	0.000919	9.188395	3.113113	-0.073402
1059	5.2900e-01	-2.2780	-5.733050	0.000475	4.745655	1.607871	-0.037911
1060	5.2950e-01	-2.3261	-6.104095	0.000929	9.289366	3.147323	-0.074209
1061	5.3000e-01	-2.3695	-6.438842	0.000838	8.380624	2.839432	-0.066949
1062	5.3050e-01	-2.4015	-6.741324	0.000757	7.572853	2.565752	-0.060496
1063	5.3100e-01	-2.4481	-6.991376	0.000626	6.260225	2.121022	-0.050010
1064	5.3150e-01	-2.4785	-7.430984	0.001101	11.005880	3.728893	-0.087922
1065	5.3200e-01	-2.5251	-7.709268	0.000697	6.967025	2.360492	-0.055657
1066	5.3250e-01	-2.5684	-7.939155	0.000576	5.755368	1.949972	-0.045977
1067	5.3300e-01	-2.6101	-8.221472	0.000707	7.067996	2.394702	-0.056463
1068	5.3350e-01	-2.6502	-8.523954	0.000757	7.572853	2.565752	-0.060496
1069	5.3400e-01	-2.6887	-8.802238	0.000697	6.967025	2.360492	-0.055657
1070	5.3450e-01	-2.7288	-9.096654	0.000737	7.370910	2.497332	-0.058883
1071	5.3500e-01	-2.7577	-9.213614	0.000293	2.928170	0.992091	-0.023392
1072	5.3550e-01	-2.8058	-9.665321	0.001131	11.308794	3.831523	-0.090341
1073	5.3600e-01	-2.8427	-10.028300	0.000909	9.087424	3.078902	-0.072596
1074	5.3650e-01	-2.8892	-10.233988	0.000515	5.149540	1.744711	-0.041138
1075	5.3700e-01	-2.9277	-10.568735	0.000838	8.380624	2.839432	-0.066949
1076	5.3750e-01	-2.9582	-10.871217	0.000757	7.572853	2.565752	-0.060496
1077	5.3800e-01	-3.0160	-11.097071	0.000565	5.654397	1.915762	-0.045171
1078	5.3850e-01	-3.0496	-11.488281	0.000979	9.794223	3.318373	-0.078242
1079	5.3900e-01	-3.0849	-11.685903	0.000495	4.947597	1.676291	-0.039524
1080	5.3950e-01	-3.1315	-12.000485	0.000788	7.875767	2.668382	-0.062916
1081	5.4000e-01	-3.1587	-12.391695	0.000979	9.794223	3.318373	-0.078242
1082	5.4050e-01	-3.2069	-12.601417	0.000525	5.250511	1.778921	-0.041944
1083	5.4100e-01	-3.2454	-12.903899	0.000757	7.572853	2.565752	-0.060496
1084	5.4150e-01	-3.2839	-13.141852	0.000596	5.957311	2.018392	-0.047591
1085	5.4200e-01	-3.3272	-13.432235	0.000727	7.269939	2.463122	-0.058077
1086	5.4250e-01	-3.3609	-13.871843	0.001101	11.005880	3.728893	-0.087922
1087	5.4300e-01	-3.4218	-13.928306	0.000141	1.413599	0.478940	-0.011293
1088	5.4350e-01	-3.4443	-14.138027	0.000525	5.250511	1.778921	-0.041944
1089	5.4400e-01	-3.4860	-14.476807	0.000848	8.481595	2.873642	-0.067756
1090	5.4450e-01	-3.5197	-15.001110	0.001313	13.126279	4.447304	-0.104861
1091	5.4500e-01	-3.5566	-15.057574	0.000141	1.413599	0.478940	-0.011293
1092	5.4550e-01	-3.5983	-15.468950	0.001030	10.299080	3.489423	-0.082275
1093	5.4600e-01	-3.6496	-15.807730	0.000848	8.481595	2.873642	-0.067756
1094	5.4650e-01	-3.6865	-15.960988	0.000384	3.836912	1.299981	-0.030652
1095	5.4700e-01	-3.7298	-16.243305	0.000707	7.067996	2.394702	-0.056463
1096	5.4750e-01	-3.7683	-16.594184	0.000878	8.784510	2.976272	-0.070176
1097	5.4800e-01	-3.8052	-16.896667	0.000757	7.572853	2.565752	-0.060496
1098	5.4850e-01	-3.8421	-17.158818	0.000656	6.563139	2.223652	-0.052430
1099	5.4900e-01	-3.8919	-17.283844	0.000313	3.130113	1.060511	-0.025005
1100	5.4950e-01	-3.9272	-17.545995	0.000656	6.563139	2.223652	-0.052430
1101	5.5000e-01	-3.9528	-17.864610	0.000798	7.976739	2.702592	-0.063723
1102	5.5050e-01	-3.9977	-18.336483	0.001181	11.813651	4.002573	-0.094375
1103	5.5100e-01	-4.0507	-18.699462	0.000909	9.087424	3.078902	-0.072596
1104	5.5150e-01	-4.0892	-18.905150	0.000515	5.149540	1.744711	-0.041138
1105	5.5200e-01	-4.1229	-19.118904	0.000535	5.351483	1.813131	-0.042751
1106	5.5250e-01	-4.1614	-19.360890	0.000606	6.058282	2.052602	-0.048397
1107	5.5300e-01	-4.2079	-19.744034	0.000959	9.592281	3.249953	-0.076629
1108	5.5350e-01	-4.2560	-19.929557	0.000464	4.644683	1.573661	-0.037105
1109	5.5400e-01	-4.2881	-20.280436	0.000878	8.784510	2.976272	-0.070176
1110	5.5450e-01	-4.3266	-20.619217	0.000848	8.481595	2.873642	-0.067756
1111	5.5500e-01	-4.3619	-20.861203	0.000606	6.058282	2.052602	-0.048397
1112	5.5550e-01	-4.4036	-21.103188	0.000606	6.058282	2.052602	-0.048397
1113	5.5600e-01	-4.4485	-21.478267	0.000939	9.390338	3.181533	-0.075016
1114	5.5650e-01	-4.4822	-21.687988	0.000525	5.250511	1.778921	-0.041944
1115	5.5700e-01	-4.5352	-21.978371	0.000727	7.269939	2.463122	-0.058077
1116	5.5750e-01	-4.5624	-22.151794	0.000434	4.341769	1.471031	-0.034685
1117	5.5800e-01	-4.6138	-22.559137	0.001020	10.198109	3.455213	-0.081469
1118	5.5850e-01	-4.6443	-22.930182	0.000929	9.289366	3.147323	-0.074209
1119	5.5900e-01	-4.6860	-23.031010	0.000252	2.524284	0.855251	-0.020165
1120	5.5950e-01	-4.7245	-23.272995	0.000606	6.058282	2.052602	-0.048397
1121	5.6000e-01	-4.7662	-23.692438	0.001050	10.501023	3.557843	-0.083888
1122	5.6050e-01	-4.8015	-23.922324	0.000576	5.755368	1.949972	-0.045977
1123	5.6100e-01	-4.8480	-24.309502	0.000969	9.693252	3.284163	-0.077435
1124	5.6150e-01	-4.8913	-24.551488	0.000606	6.058282	2.052602	-0.048397
1125	5.6200e-01	-4.9362	-24.777341	0.000565	5.654397	1.915762	-0.045171
1126	5.6250e-01	-4.9587	-25.116122	0.000848	8.481595	2.873642	-0.067756
1127	5.6300e-01	-5.0100	-25.386339	0.000677	6.765082	2.292072	-0.054044
1128	5.6350e-01	-5.0405	-25.688822	0.000757	7.572853	2.565752	-0.060496
1129	5.6400e-01	-5.0822	-25.882410	0.000485	4.846626	1.642081	-0.038718
1130	5.6450e-01	-5.1191	-26.209091	0.000818	8.178681	2.771012	-0.065336
1131	5.6500e-01	-5.1608	-26.503507	0.000737	7.370910	2.497332	-0.058883
1132	5.6550e-01	-5.2122	-26.749526	0.000616	6.159254	2.086812	-0.049204
1133	5.6600e-01	-5.2394	-26.963281	0.000535	5.351483	1.813131	-0.042751
1134	5.6650e-01	-5.2859	-27.156869	0.000485	4.846626	1.642081	-0.038718
1135	5.6700e-01	-5.3261	-27.544047	0.000969	9.693252	3.284163	-0.077435
1136	5.6750e-01	-5.3662	-27.919125	0.000939	9.390338	3.181533	-0.075016
1137	5.6800e-01	-5.4143	-27.911059	-0.000020	-0.201943	-0.068420	0.001613
1138	5.6850e-01	-5.4480	-28.257905	0.000868	8.683538	2.942062	-0.069369
1139	5.6900e-01	-5.4849	-28.435362	0.000444	4.442740	1.505241	-0.035491
1140	5.6950e-01	-5.5266	-28.802374	0.000919	9.188395	3.113113	-0.073402
1141	5.7000e-01	-5.5683	-29.120988	0.000798	7.976739	2.702592	-0.063723
1142	5.7050e-01	-5.6084	-29.423471	0.000757	7.572853	2.565752	-0.060496
1143	5.7100e-01	-5.6421	-29.709821	0.000717	7.168968	2.428912	-0.057270
1144	5.7150e-01	-5.6934	-30.036502	0.000818	8.178681	2.771012	-0.065336
1145	5.7200e-01	-5.7287	-30.343017	0.000767	7.673824	2.599962	-0.061303
1146	5.7250e-01	-5.7624	-30.552738	0.000525	5.250511	1.778921	-0.041944
1147	5.7300e-01	-5.8057	-30.774559	0.000555	5.553426	1.881552	-0.044364
1148	5.7350e-01	-5.8506	-31.012512	0.000596	5.957311	2.018392	-0.047591
1149	5.7400e-01	-5.8859	-31.145604	0.000333	3.332055	1.128931	-0.026618
1150	5.7450e-01	-5.9244	-31.605377	0.001151	11.510737	3.899943	-0.091955
1151	5.7500e-01	-5.9613	-31.875595	0.000677	6.765082	2.292072	-0.054044
1152	5.7550e-01	-6.0046	-32.004654	0.000323	3.231084	1.094721	-0.025812
1153	5.7600e-01	-6.0496	-32.299070	0.000737	7.370910	2.497332	-0.058883
1154	5.7650e-01	-6.0881	-32.331335	0.000081	0.807771	0.273680	-0.006453
1155	5.7700e-01	-6.1298	-32.916134	0.001464	14.640849	4.960454	-0.116960
1156	5.7750e-01	-6.1667	-33.125855	0.000525	5.250511	1.778921	-0.041944
1157	5.7800e-01	-6.2068	-33.388007	0.000656	6.563139	2.223652	-0.052430
1158	5.7850e-01	-6.2453	-33.763085	0.000939	9.390338	3.181533	-0.075016
1159	5.7900e-01	-6.2870	-33.779217	0.000040	0.403885	0.136840	-0.003226
1160	5.7950e-01	-6.3239	-34.198660	0.001050	10.501023	3.557843	-0.083888
1161	5.8000e-01	-6.3736	-34.581804	0.000959	9.592281	3.249953	-0.076629
1162	5.8050e-01	-6.4073	-34.747161	0.000414	4.139826	1.402611	-0.033071
1163	5.8100e-01	-6.4490	-35.198868	0.001131	11.308794	3.831523	-0.090341
1164	5.8150e-01	-6.4875	-35.348093	0.000374	3.735941	1.265771	-0.029845
1165	5.8200e-01	-6.5276	-35.662674	0.000788	7.875767	2.668382	-0.062916
1166	5.8250e-01	-6.5581	-35.860296	0.000495	4.947597	1.676291	-0.039524
1167	5.8300e-01	-6.6046	-36.082117	0.000555	5.553426	1.881552	-0.044364
1168	5.8350e-01	-6.6431	-36.312003	0.000576	5.755368	1.949972	-0.045977
1169	5.8400e-01	-6.6880	-36.650784	0.000848	8.481595	2.873642	-0.067756
1170	5.8450e-01	-6.7185	-36.908902	0.000646	6.462168	2.189442	-0.051624
1171	5.8500e-01	-6.7667	-37.094424	0.000464	4.644683	1.573661	-0.037105
1172	5.8550e-01	-6.8036	-37.501767	0.001020	10.198109	3.455213	-0.081469
1173	5.8600e-01	-6.8453	-37.727621	0.000565	5.654397	1.915762	-0.045171
1174	5.8650e-01	-6.8934	-37.897011	0.000424	4.240798	1.436821	-0.033878
1175	5.8700e-01	-6.9239	-38.251924	0.000889	8.885481	3.010482	-0.070983
1176	5.8750e-01	-6.9543	-38.477777	0.000565	5.654397	1.915762	-0.045171
1177	5.8800e-01	-7.0057	-38.663300	0.000464	4.644683	1.573661	-0.037105
1178	5.8850e-01	-7.0426	-38.925451	0.000656	6.563139	2.223652	-0.052430
1179	5.8900e-01	-7.0859	-39.429588	0.001262	12.621422	4.276253	-0.100827
1180	5.8950e-01	-7.1244	-39.570747	0.000353	3.533998	1.197351	-0.028232
1181	5.9000e-01	-7.1613	-39.865163	0.000737	7.370910	2.497332	-0.058883
1182	5.9050e-01	-7.1950	-40.175712	0.000777	7.774796	2.634172	-0.062110
1183	5.9100e-01	-7.2447	-40.353168	0.000444	4.442740	1.505241	-0.035491
1184	5.9150e-01	-7.2880	-40.542724	0.000475	4.745655	1.607871	-0.037911
1185	5.9200e-01	-7.3233	-40.821008	0.000697	6.967025	2.360492	-0.055657
1186	5.9250e-01	-7.3650	-41.095258	0.000687	6.866053	2.326282	-0.054850
1187	5.9300e-01	-7.4035	-41.405807	0.000777	7.774796	2.634172	-0.062110
1188	5.9350e-01	-7.4372	-41.776852	0.000929	9.289366	3.147323	-0.074209
1189	5.9400e-01	-7.4886	-42.030937	0.000636	6.361197	2.155232	-0.050817
1190	5.9450e-01	-7.5239	-42.232592	0.000505	5.048569	1.710501	-0.040331
1191	5.9500e-01	-7.5640	-42.430214	0.000495	4.947597	1.676291	-0.039524
1192	5.9550e-01	-7.6009	-42.664134	0.000586	5.856340	1.984182	-0.046784
1193	5.9600e-01	-7.6442	-42.954517	0.000727	7.269939	2.463122	-0.058077
1194	5.9650e-01	-7.6763	-43.252966	0.000747	7.471882	2.531542	-0.059690
1195	5.9700e-01	-7.7212	-43.539316	0.000717	7.168968	2.428912	-0.057270
1196	5.9750e-01	-7.7581	-43.740971	0.000505	5.048569	1.710501	-0.040331
1197	5.9800e-01	-7.8030	-44.067652	0.000818	8.178681	2.771012	-0.065336
1198	5.9850e-01	-7.8367	-44.228976	0.000404	4.038855	1.368401	-0.032265
1199	5.9900e-01	-7.8880	-44.390300	0.000404	4.038855	1.368401	-0.032265
1200	5.9950e-01	-7.9345	-44.587922	0.000495	4.947597	1.676291	-0.039524
1201	6.0000e-01	-7.9634	-44.914603	0.000818	8.178681	2.771012	-0.065336
1202	6.0050e-01	-8.0067	-45.233217	0.000798	7.976739	2.702592	-0.063723
1203	6.0100e-01	-8.0420	-45.475203	0.000606	6.058282	2.052602	-0.048397
1204	6.0150e-01	-8.0853	-45.749454	0.000687	6.866053	2.326282	-0.054850
1205	6.0200e-01	-8.1126	-46.043870	0.000737	7.370910	2.497332	-0.058883
1206	6.0250e-01	-8.1671	-46.418948	0.000939	9.390338	3.181533	-0.075016
1207	6.0300e-01	-8.2008	-46.479445	0.000151	1.514571	0.513150	-0.012099
1208	6.0350e-01	-8.2425	-46.781927	0.000757	7.572853	2.565752	-0.060496
1209	6.0400e-01	-8.2827	-46.947284	0.000414	4.139826	1.402611	-0.033071
1210	6.0450e-01	-8.3276	-47.342528	0.000990	9.895195	3.352583	-0.079049
1211	6.0500e-01	-8.3645	-47.649043	0.000767	7.673824	2.599962	-0.061303
1212	6.0550e-01	-8.4062	-47.931360	0.000707	7.067996	2.394702	-0.056463
1213	6.0600e-01	-8.4415	-48.096717	0.000414	4.139826	1.402611	-0.033071
1214	6.0650e-01	-8.4864	-48.471796	0.000939	9.390338	3.181533	-0.075016
1215	6.0700e-01	-8.5201	-48.685550	0.000535	5.351483	1.813131	-0.042751
1216	6.0750e-01	-8.5682	-48.867039	0.000454	4.543712	1.539451	-0.036298
1217	6.0800e-01	-8.6019	-49.096926	0.000576	5.755368	1.949972	-0.045977
1218	6.0850e-01	-8.6484	-49.415541	0.000798	7.976739	2.702592	-0.063723
1219	6.0900e-01	-8.6853	-49.665593	0.000626	6.260225	2.121022	-0.050010
1220	6.0950e-01	-8.7286	-49.851115	0.000464	4.644683	1.573661	-0.037105
1221	6.1000e-01	-8.7591	-50.076969	0.000565	5.654397	1.915762	-0.045171
1222	6.1050e-01	-8.8008	-50.407683	0.000828	8.279653	2.805222	-0.066143
1223	6.1100e-01	-8.8489	-50.790827	0.000959	9.592281	3.249953	-0.076629
1224	6.1150e-01	-8.8826	-50.871489	0.000202	2.019427	0.684201	-0.016132
1225	6.1200e-01	-8.9308	-51.194137	0.000808	8.077710	2.736802	-0.064530
1226	6.1250e-01	-8.9596	-51.323196	0.000323	3.231084	1.094721	-0.025812
1227	6.1300e-01	-9.0062	-51.637778	0.000788	7.875767	2.668382	-0.062916
1228	6.1350e-01	-9.0543	-51.835400	0.000495	4.947597	1.676291	-0.039524
1229	6.1400e-01	-9.0864	-52.033022	0.000495	4.947597	1.676291	-0.039524
1230	6.1450e-01	-9.1297	-52.307272	0.000687	6.866053	2.326282	-0.054850
1231	6.1500e-01	-9.1778	-52.597655	0.000727	7.269939	2.463122	-0.058077
1232	6.1550e-01	-9.1987	-52.904171	0.000767	7.673824	2.599962	-0.061303
1233	6.1600e-01	-9.2484	-53.198587	0.000737	7.370910	2.497332	-0.058883
1234	6.1650e-01	-9.2741	-53.416374	0.000545	5.452454	1.847341	-0.043557
1235	6.1700e-01	-9.3190	-53.690625	0.000687	6.866053	2.326282	-0.054850
1236	6.1750e-01	-9.3623	-54.045538	0.000889	8.885481	3.010482	-0.070983
1237	6.1800e-01	-9.4008	-54.243160	0.000495	4.947597	1.676291	-0.039524
1238	6.1850e-01	-9.4425	-54.549675	0.000767	7.673824	2.599962	-0.061303
1239	6.1900e-01	-9.4794	-54.706966	0.000394	3.937884	1.334191	-0.031458
1240	6.1950e-01	-9.5259	-54.952985	0.000616	6.159254	2.086812	-0.049204
1241	6.2000e-01	-9.5660	-55.239335	0.000717	7.168968	2.428912	-0.057270
1242	6.2050e-01	-9.5901	-55.453089	0.000535	5.351483	1.813131	-0.042751
1243	6.2100e-01	-9.6479	-55.799936	0.000868	8.683538	2.942062	-0.069369
1244	6.2150e-01	-9.6799	-56.021756	0.000555	5.553426	1.881552	-0.044364
1245	6.2200e-01	-9.7233	-56.275841	0.000636	6.361197	2.155232	-0.050817
1246	6.2250e-01	-9.7746	-56.300040	0.000061	0.605828	0.205260	-0.004840
1247	6.2300e-01	-9.8099	-56.663019	0.000909	9.087424	3.078902	-0.072596
1248	6.2350e-01	-9.8404	-56.933236	0.000677	6.765082	2.292072	-0.054044
1249	6.2400e-01	-9.8837	-57.130858	0.000495	4.947597	1.676291	-0.039524
1250	6.2450e-01	-9.9286	-57.409142	0.000697	6.967025	2.360492	-0.055657
1251	6.2500e-01	-9.9591	-57.659194	0.000626	6.260225	2.121022	-0.050010
1252	6.2550e-01	-10.0056	-57.856816	0.000495	4.947597	1.676291	-0.039524
1253	6.2600e-01	-10.0537	-58.131067	0.000687	6.866053	2.326282	-0.054850
1254	6.2650e-01	-10.0794	-58.276258	0.000363	3.634969	1.231561	-0.029038
1255	6.2700e-01	-10.1243	-58.574708	0.000747	7.471882	2.531542	-0.059690
1256	6.2750e-01	-10.1692	-58.760230	0.000464	4.644683	1.573661	-0.037105
1257	6.2800e-01	-10.2158	-58.994150	0.000586	5.856340	1.984182	-0.046784
1258	6.2850e-01	-10.2414	-59.276467	0.000707	7.067996	2.394702	-0.056463
1259	6.2900e-01	-10.2799	-59.595081	0.000798	7.976739	2.702592	-0.063723
1260	6.2950e-01	-10.3281	-59.800770	0.000515	5.149540	1.744711	-0.041138
1261	6.3000e-01	-10.3649	-60.083086	0.000707	7.067996	2.394702	-0.056463
1262	6.3050e-01	-10.4083	-60.260543	0.000444	4.442740	1.505241	-0.035491
1263	6.3100e-01	-10.4548	-60.583191	0.000808	8.077710	2.736802	-0.064530
1264	6.3150e-01	-10.4869	-60.788879	0.000515	5.149540	1.744711	-0.041138
1265	6.3200e-01	-10.5254	-61.067162	0.000697	6.967025	2.360492	-0.055657
1266	6.3250e-01	-10.5703	-61.220420	0.000384	3.836912	1.299981	-0.030652
1267	6.3300e-01	-10.5976	-61.547101	0.000818	8.178681	2.771012	-0.065336
1268	6.3350e-01	-10.6409	-61.809253	0.000656	6.563139	2.223652	-0.052430
1269	6.3400e-01	-10.6842	-62.164165	0.000889	8.885481	3.010482	-0.070983
1270	6.3450e-01	-10.7243	-62.345655	0.000454	4.543712	1.539451	-0.036298
1271	6.3500e-01	-10.7644	-62.623939	0.000697	6.967025	2.360492	-0.055657
1272	6.3550e-01	-10.8045	-62.752998	0.000323	3.231084	1.094721	-0.025812
1273	6.3600e-01	-10.8462	-63.019182	0.000666	6.664111	2.257862	-0.053237
1274	6.3650e-01	-10.8879	-63.321665	0.000757	7.572853	2.565752	-0.060496
1275	6.3700e-01	-10.9312	-63.547518	0.000565	5.654397	1.915762	-0.045171
1276	6.3750e-01	-10.9746	-63.753206	0.000515	5.149540	1.744711	-0.041138
1277	6.3800e-01	-11.0066	-64.027457	0.000687	6.866053	2.326282	-0.054850
1278	6.3850e-01	-11.0467	-64.204913	0.000444	4.442740	1.505241	-0.035491
1279	6.3900e-01	-11.0917	-64.422701	0.000545	5.452454	1.847341	-0.043557
1280	6.3950e-01	-11.1286	-64.692918	0.000677	6.765082	2.292072	-0.054044
1281	6.4000e-01	-11.1655	-65.176890	0.001212	12.116565	4.105203	-0.096794
1282	6.4050e-01	-11.2056	-65.314015	0.000343	3.433027	1.163141	-0.027425
1283	6.4100e-01	-11.2457	-65.507604	0.000485	4.846626	1.642081	-0.038718
1284	6.4150e-01	-11.2890	-65.616498	0.000273	2.726227	0.923671	-0.021779
1285	6.4200e-01	-11.3227	-65.842351	0.000565	5.654397	1.915762	-0.045171
1286	6.4250e-01	-11.3644	-66.164999	0.000808	8.077710	2.736802	-0.064530
1287	6.4300e-01	-11.4045	-66.435217	0.000677	6.765082	2.292072	-0.054044
1288	6.4350e-01	-11.4478	-66.584441	0.000374	3.735941	1.265771	-0.029845
1289	6.4400e-01	-11.4863	-66.923222	0.000848	8.481595	2.873642	-0.067756
1290	6.4450e-01	-11.5232	-67.217638	0.000737	7.370910	2.497332	-0.058883
1291	6.4500e-01	-11.5585	-67.512054	0.000737	7.370910	2.497332	-0.058883
1292	6.4550e-01	-11.6098	-67.641113	0.000323	3.231084	1.094721	-0.025812
1293	6.4600e-01	-11.6548	-68.072655	0.001080	10.803937	3.660473	-0.086308
1294	6.4650e-01	-11.6804	-68.286409	0.000535	5.351483	1.813131	-0.042751
1295	6.4700e-01	-11.7269	-68.278343	-0.000020	-0.201943	-0.068420	0.001613
1296	6.4750e-01	-11.7670	-68.568726	0.000727	7.269939	2.463122	-0.058077
1297	6.4800e-01	-11.7991	-68.790546	0.000555	5.553426	1.881552	-0.044364
1298	6.4850e-01	-11.8424	-69.036565	0.000616	6.159254	2.086812	-0.049204
1299	6.4900e-01	-11.8826	-69.282584	0.000616	6.159254	2.086812	-0.049204
1300	6.4950e-01	-11.9291	-69.560868	0.000697	6.967025	2.360492	-0.055657
1301	6.5000e-01	-11.9628	-69.851251	0.000727	7.269939	2.463122	-0.058077
1302	6.5050e-01	-11.9997	-69.923847	0.000182	1.817485	0.615780	-0.014519
1303	6.5100e-01	-12.0446	-70.242462	0.000798	7.976739	2.702592	-0.063723
1304	6.5150e-01	-12.0927	-70.423951	0.000454	4.543712	1.539451	-0.036298
1305	6.5200e-01	-12.1312	-70.839360	0.001040	10.400052	3.523633	-0.083082
1306	6.5250e-01	-12.1649	-71.198306	0.000899	8.986452	3.044692	-0.071789
1307	6.5300e-01	-12.2066	-71.238637	0.000101	1.009714	0.342100	-0.008066
1308	6.5350e-01	-12.2483	-71.387862	0.000374	3.735941	1.265771	-0.029845
1309	6.5400e-01	-12.2916	-71.496755	0.000273	2.726227	0.923671	-0.021779
1310	6.5450e-01	-12.3221	-71.940396	0.001111	11.106851	3.763103	-0.088728
1311	6.5500e-01	-12.3670	-72.166250	0.000565	5.654397	1.915762	-0.045171
1312	6.5550e-01	-12.3991	-72.315474	0.000374	3.735941	1.265771	-0.029845
1313	6.5600e-01	-12.4488	-72.646189	0.000828	8.279653	2.805222	-0.066143
1314	6.5650e-01	-12.4809	-72.855910	0.000525	5.250511	1.778921	-0.041944
1315	6.5700e-01	-12.5210	-73.001101	0.000363	3.634969	1.231561	-0.029038
1316	6.5750e-01	-12.5692	-73.214855	0.000535	5.351483	1.813131	-0.042751
1317	6.5800e-01	-12.6173	-73.440709	0.000565	5.654397	1.915762	-0.045171
1318	6.5850e-01	-12.6446	-73.731092	0.000727	7.269939	2.463122	-0.058077
1319	6.5900e-01	-12.6943	-73.815787	0.000212	2.120399	0.718411	-0.016939
1320	6.5950e-01	-12.7280	-74.174733	0.000899	8.986452	3.044692	-0.071789
1321	6.6000e-01	-12.7665	-74.428818	0.000636	6.361197	2.155232	-0.050817
1322	6.6050e-01	-12.8066	-74.662738	0.000586	5.856340	1.984182	-0.046784
1323	6.6100e-01	-12.8419	-74.803896	0.000353	3.533998	1.197351	-0.028232
1324	6.6150e-01	-12.8900	-75.320133	0.001292	12.924336	4.378884	-0.103247
1325	6.6200e-01	-12.9189	-75.368530	0.000121	1.211656	0.410520	-0.009679
1326	6.6250e-01	-12.9654	-75.554053	0.000464	4.644683	1.573661	-0.037105
1327	6.6300e-01	-13.0007	-75.711344	0.000394	3.937884	1.334191	-0.031458
1328	6.6350e-01	-13.0520	-76.033991	0.000808	8.077710	2.736802	-0.064530
1329	6.6400e-01	-13.0873	-76.304209	0.000677	6.765082	2.292072	-0.054044
1330	6.6450e-01	-13.1226	-76.509897	0.000515	5.149540	1.744711	-0.041138
1331	6.6500e-01	-13.1643	-76.784148	0.000687	6.866053	2.326282	-0.054850
1332	6.6550e-01	-13.1980	-76.925306	0.000353	3.533998	1.197351	-0.028232
1333	6.6600e-01	-13.2365	-77.211656	0.000717	7.168968	2.428912	-0.057270
1334	6.6650e-01	-13.2863	-77.417344	0.000515	5.149540	1.744711	-0.041138
1335	6.6700e-01	-13.3264	-77.699661	0.000707	7.067996	2.394702	-0.056463
1336	6.6750e-01	-13.3697	-77.957779	0.000646	6.462168	2.189442	-0.051624
1337	6.6800e-01	-13.4002	-78.312692	0.000889	8.885481	3.010482	-0.070983
1338	6.6850e-01	-13.4483	-78.510314	0.000495	4.947597	1.676291	-0.039524
1339	6.6900e-01	-13.4932	-78.607108	0.000242	2.423313	0.821041	-0.019359
1340	6.6950e-01	-13.5349	-78.816829	0.000525	5.250511	1.778921	-0.041944
1341	6.7000e-01	-13.5670	-79.264503	0.001121	11.207823	3.797313	-0.089535
1342	6.7050e-01	-13.6071	-79.357265	0.000232	2.322342	0.786831	-0.018552
1343	6.7100e-01	-13.6520	-79.595217	0.000596	5.957311	2.018392	-0.047591
1344	6.7150e-01	-13.6777	-79.829137	0.000586	5.856340	1.984182	-0.046784
1345	6.7200e-01	-13.7258	-80.026759	0.000495	4.947597	1.676291	-0.039524
1346	6.7250e-01	-13.7627	-80.232447	0.000515	5.149540	1.744711	-0.041138
1347	6.7300e-01	-13.7996	-80.498632	0.000666	6.664111	2.257862	-0.053237
1348	6.7350e-01	-13.8413	-80.797081	0.000747	7.471882	2.531542	-0.059690
1349	6.7400e-01	-13.8846	-81.095530	0.000747	7.471882	2.531542	-0.059690
1350	6.7450e-01	-13.9231	-81.309284	0.000535	5.351483	1.813131	-0.042751
1351	6.7500e-01	-13.9568	-81.623866	0.000788	7.875767	2.668382	-0.062916
1352	6.7550e-01	-13.9985	-81.930382	0.000767	7.673824	2.599962	-0.061303
1353	6.7600e-01	-14.0483	-82.051375	0.000303	3.029141	1.026301	-0.024199
1354	6.7650e-01	-14.0852	-82.579710	0.001323	13.227250	4.481514	-0.105667
1355	6.7700e-01	-14.1253	-82.515181	-0.000162	-1.615542	-0.547360	0.012906
1356	6.7750e-01	-14.1606	-82.737001	0.000555	5.553426	1.881552	-0.044364
1357	6.7800e-01	-14.2039	-83.116113	0.000949	9.491309	3.215743	-0.075822
1358	6.7850e-01	-14.2456	-83.309701	0.000485	4.846626	1.642081	-0.038718
1359	6.7900e-01	-14.2809	-83.483125	0.000434	4.341769	1.471031	-0.034685
1360	6.7950e-01	-14.3242	-83.733177	0.000626	6.260225	2.121022	-0.050010
1361	6.8000e-01	-14.3707	-84.108255	0.000939	9.390338	3.181533	-0.075016
1362	6.8050e-01	-14.4060	-84.241347	0.000333	3.332055	1.128931	-0.026618
1363	6.8100e-01	-14.4365	-84.531730	0.000727	7.269939	2.463122	-0.058077
1364	6.8150e-01	-14.4894	-84.842279	0.000777	7.774796	2.634172	-0.062110
1365	6.8200e-01	-14.5263	-85.003603	0.000404	4.038855	1.368401	-0.032265
1366	6.8250e-01	-14.5632	-85.338350	0.000838	8.380624	2.839432	-0.066949
1367	6.8300e-01	-14.6001	-85.548071	0.000525	5.250511	1.778921	-0.041944
1368	6.8350e-01	-14.6482	-85.697296	0.000374	3.735941	1.265771	-0.029845
1369	6.8400e-01	-14.6835	-85.991712	0.000737	7.370910	2.497332	-0.058883
1370	6.8450e-01	-14.7253	-86.310327	0.000798	7.976739	2.702592	-0.063723
1371	6.8500e-01	-14.7638	-86.556346	0.000616	6.159254	2.086812	-0.049204
1372	6.8550e-01	-14.8007	-86.753967	0.000495	4.947597	1.676291	-0.039524
1373	6.8600e-01	-14.8488	-86.939490	0.000464	4.644683	1.573661	-0.037105
1374	6.8650e-01	-14.8825	-87.399263	0.001151	11.510737	3.899943	-0.091955
1375	6.8700e-01	-14.9210	-87.705779	0.000767	7.673824	2.599962	-0.061303
1376	6.8750e-01	-14.9643	-87.887268	0.000454	4.543712	1.539451	-0.036298
1377	6.8800e-01	-14.9996	-88.193784	0.000767	7.673824	2.599962	-0.061303
1378	6.8850e-01	-15.0429	-88.363174	0.000424	4.240798	1.436821	-0.033878
1379	6.8900e-01	-15.0830	-88.657590	0.000737	7.370910	2.497332	-0.058883
1380	6.8950e-01	-15.1263	-88.988304	0.000828	8.279653	2.805222	-0.066143
1381	6.9000e-01	-15.1648	-89.286753	0.000747	7.471882	2.531542	-0.059690
1382	6.9050e-01	-15.2001	-89.605368	0.000798	7.976739	2.702592	-0.063723
1383	6.9100e-01	-15.2514	-89.823156	0.000545	5.452454	1.847341	-0.043557
1384	6.9150e-01	-15.2964	-90.032877	0.000525	5.250511	1.778921	-0.041944
1385	6.9200e-01	-15.3140	-90.303094	0.000677	6.765082	2.292072	-0.054044
1386	6.9250e-01	-15.3509	-90.629775	0.000818	8.178681	2.771012	-0.065336
1387	6.9300e-01	-15.4087	-90.779000	0.000374	3.735941	1.265771	-0.029845
1388	6.9350e-01	-15.4536	-91.117780	0.000848	8.481595	2.873642	-0.067756
1389	6.9400e-01	-15.4857	-91.371865	0.000636	6.361197	2.155232	-0.050817
1390	6.9450e-01	-15.5210	-91.549322	0.000444	4.442740	1.505241	-0.035491
1391	6.9500e-01	-15.5659	-91.686447	0.000343	3.433027	1.163141	-0.027425
1392	6.9550e-01	-15.6012	-92.065558	0.000949	9.491309	3.215743	-0.075822
1393	6.9600e-01	-15.6493	-92.541464	0.001191	11.914622	4.036783	-0.095181
1394	6.9650e-01	-15.6766	-92.767318	0.000565	5.654397	1.915762	-0.045171
1395	6.9700e-01	-15.7311	-92.960906	0.000485	4.846626	1.642081	-0.038718
1396	6.9750e-01	-15.7696	-93.291620	0.000828	8.279653	2.805222	-0.066143
1397	6.9800e-01	-15.8129	-93.610235	0.000798	7.976739	2.702592	-0.063723
1398	6.9850e-01	-15.8450	-93.912718	0.000757	7.572853	2.565752	-0.060496
1399	6.9900e-01	-15.8851	-94.158737	0.000616	6.159254	2.086812	-0.049204
1400	6.9950e-01	-15.9268	-94.469285	0.000777	7.774796	2.634172	-0.062110
1401	7.0000e-01	-15.9621	-94.743536	0.000687	6.866053	2.326282	-0.054850
1402	7.0050e-01	-16.0054	-94.900827	0.000394	3.937884	1.334191	-0.031458
1403	7.0100e-01	-16.0439	-95.275905	0.000939	9.390338	3.181533	-0.075016
1404	7.0150e-01	-16.0792	-95.521924	0.000616	6.159254	2.086812	-0.049204
1405	7.0200e-01	-16.1209	-95.856671	0.000838	8.380624	2.839432	-0.066949
1406	7.0250e-01	-16.1642	-96.114789	0.000646	6.462168	2.189442	-0.051624
1407	7.0300e-01	-16.1995	-96.385007	0.000677	6.765082	2.292072	-0.054044
1408	7.0350e-01	-16.2396	-96.691522	0.000767	7.673824	2.599962	-0.061303
1409	7.0400e-01	-16.2926	-96.885111	0.000485	4.846626	1.642081	-0.038718
1410	7.0450e-01	-16.3199	-97.187594	0.000757	7.572853	2.565752	-0.060496
1411	7.0500e-01	-16.3680	-97.385215	0.000495	4.947597	1.676291	-0.039524
1412	7.0550e-01	-16.3985	-97.784492	0.001000	9.996166	3.386793	-0.079855
1413	7.0600e-01	-16.4450	-98.143438	0.000899	8.986452	3.044692	-0.071789
1414	7.0650e-01	-16.4867	-98.357192	0.000535	5.351483	1.813131	-0.042751
1415	7.0700e-01	-16.5268	-98.720171	0.000909	9.087424	3.078902	-0.072596
1416	7.0750e-01	-16.5605	-98.905694	0.000464	4.644683	1.573661	-0.037105
1417	7.0800e-01	-16.6006	-99.139613	0.000586	5.856340	1.984182	-0.046784
1418	7.0850e-01	-16.6503	-99.458228	0.000798	7.976739	2.702592	-0.063723
1419	7.0900e-01	-16.6856	-99.853472	0.000990	9.895195	3.352583	-0.079049
1420	7.0950e-01	-16.7129	-100.172087	0.000798	7.976739	2.702592	-0.063723
1421	7.1000e-01	-16.7610	-100.422139	0.000626	6.260225	2.121022	-0.050010
1422	7.1050e-01	-16.8108	-100.615727	0.000485	4.846626	1.642081	-0.038718
1423	7.1100e-01	-16.8380	-100.990806	0.000939	9.390338	3.181533	-0.075016
1424	7.1150e-01	-16.8749	-101.430413	0.001101	11.005880	3.728893	-0.087922
1425	7.1200e-01	-16.9279	-101.684499	0.000636	6.361197	2.155232	-0.050817
1426	7.1250e-01	-16.9680	-101.942617	0.000646	6.462168	2.189442	-0.051624
1427	7.1300e-01	-17.0081	-102.228967	0.000717	7.168968	2.428912	-0.057270
1428	7.1350e-01	-17.0418	-102.575813	0.000868	8.683538	2.942062	-0.069369
1429	7.1400e-01	-17.0899	-102.894428	0.000798	7.976739	2.702592	-0.063723
1430	7.1450e-01	-17.1268	-103.164646	0.000677	6.765082	2.292072	-0.054044
1431	7.1500e-01	-17.1653	-103.418731	0.000636	6.361197	2.155232	-0.050817
1432	7.1550e-01	-17.2054	-103.753478	0.000838	8.380624	2.839432	-0.066949
1433	7.1600e-01	-17.2567	-103.858339	0.000263	2.625256	0.889461	-0.020972
1434	7.1650e-01	-17.2824	-104.346344	0.001222	12.217536	4.139413	-0.097601
1435	7.1700e-01	-17.3177	-104.709322	0.000909	9.087424	3.078902	-0.072596
1436	7.1750e-01	-17.3578	-104.878713	0.000424	4.240798	1.436821	-0.033878
1437	7.1800e-01	-17.4059	-105.116665	0.000596	5.957311	2.018392	-0.047591
1438	7.1850e-01	-17.4524	-105.568372	0.001131	11.308794	3.831523	-0.090341
1439	7.1900e-01	-17.4813	-105.911186	0.000858	8.582567	2.907852	-0.068563
1440	7.1950e-01	-17.5246	-106.209635	0.000747	7.471882	2.531542	-0.059690
1441	7.2000e-01	-17.5712	-106.415323	0.000515	5.149540	1.744711	-0.041138
1442	7.2050e-01	-17.6097	-106.665375	0.000626	6.260225	2.121022	-0.050010
1443	7.2100e-01	-17.6594	-106.907361	0.000606	6.058282	2.052602	-0.048397
1444	7.2150e-01	-17.6867	-107.209844	0.000757	7.572853	2.565752	-0.060496
1445	7.2200e-01	-17.7316	-107.471995	0.000656	6.563139	2.223652	-0.052430
1446	7.2250e-01	-17.7669	-107.802709	0.000828	8.279653	2.805222	-0.066143
1447	7.2300e-01	-17.8054	-108.089059	0.000717	7.168968	2.428912	-0.057270
1448	7.2350e-01	-17.8439	-108.431872	0.000858	8.582567	2.907852	-0.068563
1449	7.2400e-01	-17.8888	-108.843249	0.001030	10.299080	3.489423	-0.082275
1450	7.2450e-01	-17.9209	-109.069102	0.000565	5.654397	1.915762	-0.045171
1451	7.2500e-01	-17.9690	-109.343353	0.000687	6.866053	2.326282	-0.054850
1452	7.2550e-01	-18.0123	-109.694232	0.000878	8.784510	2.976272	-0.070176
1453	7.2600e-01	-18.0460	-110.020913	0.000818	8.178681	2.771012	-0.065336
1454	7.2650e-01	-18.0877	-110.307263	0.000717	7.168968	2.428912	-0.057270
1455	7.2700e-01	-18.1278	-110.654110	0.000868	8.683538	2.942062	-0.069369
1456	7.2750e-01	-18.1792	-110.815434	0.000404	4.038855	1.368401	-0.032265
1457	7.2800e-01	-18.2064	-111.158247	0.000858	8.582567	2.907852	-0.068563
1458	7.2850e-01	-18.2449	-111.686583	0.001323	13.227250	4.481514	-0.105667
1459	7.2900e-01	-18.2883	-111.972933	0.000717	7.168968	2.428912	-0.057270
1460	7.2950e-01	-18.3219	-112.251217	0.000697	6.967025	2.360492	-0.055657
1461	7.3000e-01	-18.3653	-112.529501	0.000697	6.967025	2.360492	-0.055657
1462	7.3050e-01	-18.4086	-112.860215	0.000828	8.279653	2.805222	-0.066143
1463	7.3100e-01	-18.4471	-113.142532	0.000707	7.067996	2.394702	-0.056463
1464	7.3150e-01	-18.4920	-113.473246	0.000828	8.279653	2.805222	-0.066143
1465	7.3200e-01	-18.5225	-113.739430	0.000666	6.664111	2.257862	-0.053237
1466	7.3250e-01	-18.5578	-114.062078	0.000808	8.077710	2.736802	-0.064530
1467	7.3300e-01	-18.5947	-114.529918	0.001171	11.712679	3.968363	-0.093568
1468	7.3350e-01	-18.6428	-114.747705	0.000545	5.452454	1.847341	-0.043557
1469	7.3400e-01	-18.6797	-115.021956	0.000687	6.866053	2.326282	-0.054850
1470	7.3450e-01	-18.7214	-115.449464	0.001070	10.702966	3.626263	-0.085502
1471	7.3500e-01	-18.7583	-115.719682	0.000677	6.765082	2.292072	-0.054044
1472	7.3550e-01	-18.8048	-116.070561	0.000878	8.784510	2.976272	-0.070176
1473	7.3600e-01	-18.8529	-116.332713	0.000656	6.563139	2.223652	-0.052430
1474	7.3650e-01	-18.8866	-116.606963	0.000687	6.866053	2.326282	-0.054850
1475	7.3700e-01	-18.9364	-117.010273	0.001010	10.097137	3.421003	-0.080662
1476	7.3750e-01	-18.9668	-117.393418	0.000959	9.592281	3.249953	-0.076629
1477	7.3800e-01	-18.9973	-117.748330	0.000889	8.885481	3.010482	-0.070983
1478	7.3850e-01	-19.0374	-117.905621	0.000394	3.937884	1.334191	-0.031458
1479	7.3900e-01	-19.0888	-118.284732	0.000949	9.491309	3.215743	-0.075822
1480	7.3950e-01	-19.1273	-118.534784	0.000626	6.260225	2.121022	-0.050010
1481	7.4000e-01	-19.1577	-118.889697	0.000889	8.885481	3.010482	-0.070983
1482	7.4050e-01	-19.2043	-119.147815	0.000646	6.462168	2.189442	-0.051624
1483	7.4100e-01	-19.2396	-119.506761	0.000899	8.986452	3.044692	-0.071789
1484	7.4150e-01	-19.2877	-119.974601	0.001171	11.712679	3.968363	-0.093568
1485	7.4200e-01	-19.3214	-120.551334	0.001444	14.438907	4.892034	-0.115347
1486	7.4250e-01	-19.3679	-120.575532	0.000061	0.605828	0.205260	-0.004840
1487	7.4300e-01	-19.4096	-120.861882	0.000717	7.168968	2.428912	-0.057270
1488	7.4350e-01	-19.4545	-121.200663	0.000848	8.481595	2.873642	-0.067756
1489	7.4400e-01	-19.4834	-121.716899	0.001292	12.924336	4.378884	-0.103247
1490	7.4450e-01	-19.5107	-122.023415	0.000767	7.673824	2.599962	-0.061303
1491	7.4500e-01	-19.5588	-122.277500	0.000636	6.361197	2.155232	-0.050817
1492	7.4550e-01	-19.5957	-122.563850	0.000717	7.168968	2.428912	-0.057270
1493	7.4600e-01	-19.6422	-122.898597	0.000838	8.380624	2.839432	-0.066949
1494	7.4650e-01	-19.6904	-123.217212	0.000798	7.976739	2.702592	-0.063723
1495	7.4700e-01	-19.7176	-123.592290	0.000939	9.390338	3.181533	-0.075016
1496	7.4750e-01	-19.7561	-123.927037	0.000838	8.380624	2.839432	-0.066949
1497	7.4800e-01	-19.8075	-124.233553	0.000767	7.673824	2.599962	-0.061303
1498	7.4850e-01	-19.8428	-124.632830	0.001000	9.996166	3.386793	-0.079855
1499	7.4900e-01	-19.8748	-124.858683	0.000565	5.654397	1.915762	-0.045171
1500	7.4950e-01	-19.9246	-125.241827	0.000959	9.592281	3.249953	-0.076629
1501	7.5000e-01	-19.9663	-125.584641	0.000858	8.582567	2.907852	-0.068563
1502	7.5050e-01	-19.9775	-125.794362	0.000525	5.250511	1.778921	-0.041944
1503	7.5100e-01	-19.9358	-125.951653	-0.000394	-3.937884	-1.334191	-0.031458
1504	7.5150e-01	-19.9069	-125.935520	0.000040	0.403885	0.136840	0.003226
1505	7.5200e-01	-19.8684	-125.943587	-0.000020	-0.201943	-0.068420	-0.001613
1506	7.5250e-01	-19.8283	-125.862925	0.000202	2.019427	0.684201	0.016132
1507	7.5300e-01	-19.7914	-125.967785	-0.000263	-2.625256	-0.889461	-0.020972
1508	7.5350e-01	-19.7577	-125.838726	0.000323	3.231084	1.094721	0.025812
1509	7.5400e-01	-19.7080	-125.741932	0.000242	2.423313	0.821041	0.019359
1510	7.5450e-01	-19.6647	-125.826627	-0.000212	-2.120399	-0.718411	-0.016939
1511	7.5500e-01	-19.6246	-125.665303	0.000404	4.038855	1.368401	0.032265
1512	7.5550e-01	-19.5925	-125.725799	-0.000151	-1.514571	-0.513150	-0.012099
1513	7.5600e-01	-19.5492	-125.596740	0.000323	3.231084	1.094721	0.025812
1514	7.5650e-01	-19.5091	-125.499946	0.000242	2.423313	0.821041	0.019359
1515	7.5700e-01	-19.4722	-125.362820	0.000343	3.433027	1.163141	0.027425
1516	7.5750e-01	-19.4385	-125.306357	0.000141	1.413599	0.478940	0.011293
1517	7.5800e-01	-19.3920	-125.189397	0.000293	2.928170	0.992091	0.023392
1518	7.5850e-01	-19.3470	-124.931279	0.000646	6.462168	2.189442	0.051624
1519	7.5900e-01	-19.3118	-124.999842	-0.000172	-1.716513	-0.581570	-0.013713
1520	7.5950e-01	-19.2700	-124.915146	0.000212	2.120399	0.718411	0.016939
1521	7.6000e-01	-19.2380	-124.822385	0.000232	2.322342	0.786831	0.018552
1522	7.6050e-01	-19.1914	-124.769955	0.000131	1.312628	0.444730	0.010486
1523	7.6100e-01	-19.1497	-124.612664	0.000394	3.937884	1.334191	0.031458
1524	7.6150e-01	-19.1144	-124.503770	0.000273	2.726227	0.923671	0.021779
1525	7.6200e-01	-19.0695	-124.394877	0.000273	2.726227	0.923671	0.021779
1526	7.6250e-01	-19.0294	-124.241619	0.000384	3.836912	1.299981	0.030652
1527	7.6300e-01	-18.9909	-124.148858	0.000232	2.322342	0.786831	0.018552
1528	7.6350e-01	-18.9540	-124.104494	0.000111	1.110685	0.376310	0.008873
1529	7.6400e-01	-18.9219	-123.842342	0.000656	6.563139	2.223652	0.052430
1530	7.6450e-01	-18.8770	-123.685051	0.000394	3.937884	1.334191	0.031458
1531	7.6500e-01	-18.8209	-123.535827	0.000374	3.735941	1.265771	0.029845
1532	7.6550e-01	-18.7968	-123.519694	0.000040	0.403885	0.136840	0.003226
1533	7.6600e-01	-18.7551	-123.410801	0.000273	2.726227	0.923671	0.021779
1534	7.6650e-01	-18.7054	-123.334172	0.000192	1.918456	0.649991	0.015326
1535	7.6700e-01	-18.6717	-123.249477	0.000212	2.120399	0.718411	0.016939
1536	7.6750e-01	-18.6203	-123.035723	0.000535	5.351483	1.813131	0.042751
1537	7.6800e-01	-18.5802	-123.047822	-0.000030	-0.302914	-0.102630	-0.002420
1538	7.6850e-01	-18.5497	-122.821968	0.000565	5.654397	1.915762	0.045171
1539	7.6900e-01	-18.5145	-122.644512	0.000444	4.442740	1.505241	0.035491
1540	7.6950e-01	-18.4599	-122.414625	0.000576	5.755368	1.949972	0.045977
1541	7.7000e-01	-18.4326	-122.442857	-0.000071	-0.706800	-0.239470	-0.005646
1542	7.7050e-01	-18.3941	-122.261368	0.000454	4.543712	1.539451	0.036298
1543	7.7100e-01	-18.3524	-122.039547	0.000555	5.553426	1.881552	0.044364
1544	7.7150e-01	-18.3139	-121.845958	0.000485	4.846626	1.642081	0.038718
1545	7.7200e-01	-18.2706	-121.676568	0.000424	4.240798	1.436821	0.033878
1546	7.7250e-01	-18.2305	-121.628171	0.000121	1.211656	0.410520	0.009679
1547	7.7300e-01	-18.1936	-121.442649	0.000464	4.644683	1.573661	0.037105
1548	7.7350e-01	-18.1567	-121.458781	-0.000040	-0.403885	-0.136840	-0.003226
1549	7.7400e-01	-18.1150	-121.152265	0.000767	7.673824	2.599962	0.061303
1550	7.7450e-01	-18.0749	-120.962710	0.000475	4.745655	1.607871	0.037911
1551	7.7500e-01	-18.0316	-120.910280	0.000131	1.312628	0.444730	0.010486
1552	7.7550e-01	-17.9915	-120.736856	0.000434	4.341769	1.471031	0.034685
1553	7.7600e-01	-17.9514	-120.458573	0.000697	6.967025	2.360492	0.055657
1554	7.7650e-01	-17.9064	-120.345646	0.000283	2.827198	0.957881	0.022585
1555	7.7700e-01	-17.8615	-120.277083	0.000172	1.716513	0.581570	0.013713
1556	7.7750e-01	-17.8278	-120.164156	0.000283	2.827198	0.957881	0.022585
1557	7.7800e-01	-17.7861	-120.119792	0.000111	1.110685	0.376310	0.008873
1558	7.7850e-01	-17.7524	-119.651953	0.001171	11.712679	3.968363	0.093568
1559	7.7900e-01	-17.7043	-119.619688	0.000081	0.807771	0.273680	0.006453
1560	7.7950e-01	-17.6642	-119.482563	0.000343	3.433027	1.163141	0.027425
1561	7.8000e-01	-17.6225	-119.272842	0.000525	5.250511	1.778921	0.041944
1562	7.8050e-01	-17.6000	-119.111518	0.000404	4.038855	1.368401	0.032265
1563	7.8100e-01	-17.5519	-119.038922	0.000182	1.817485	0.615780	0.014519
1564	7.8150e-01	-17.5086	-118.780803	0.000646	6.462168	2.189442	0.051624
1565	7.8200e-01	-17.4685	-118.655777	0.000313	3.130113	1.060511	0.025005
1566	7.8250e-01	-17.4300	-118.478321	0.000444	4.442740	1.505241	0.035491
1567	7.8300e-01	-17.3883	-118.329096	0.000374	3.735941	1.265771	0.029845
1568	7.8350e-01	-17.3562	-118.143574	0.000464	4.644683	1.573661	0.037105
1569	7.8400e-01	-17.3177	-118.062912	0.000202	2.019427	0.684201	0.016132
1570	7.8450e-01	-17.2631	-117.905621	0.000394	3.937884	1.334191	0.031458
1571	7.8500e-01	-17.2246	-117.720099	0.000464	4.644683	1.573661	0.037105
1572	7.8550e-01	-17.1845	-117.595072	0.000313	3.130113	1.060511	0.025005
1573	7.8600e-01	-17.1541	-117.425682	0.000424	4.240798	1.436821	0.033878
1574	7.8650e-01	-17.1091	-117.187730	0.000596	5.957311	2.018392	0.047591
1575	7.8700e-01	-17.0771	-117.107068	0.000202	2.019427	0.684201	0.016132
1576	7.8750e-01	-17.0321	-116.921545	0.000464	4.644683	1.573661	0.037105
1577	7.8800e-01	-16.9872	-116.655361	0.000666	6.664111	2.257862	0.053237
1578	7.8850e-01	-16.9487	-116.566632	0.000222	2.221370	0.752621	0.017746
1579	7.8900e-01	-16.9102	-116.449672	0.000293	2.928170	0.992091	0.023392
1580	7.8950e-01	-16.8749	-116.014098	0.001090	10.904908	3.694683	0.087115
1581	7.9000e-01	-16.8284	-115.933436	0.000202	2.019427	0.684201	0.016132
1582	7.9050e-01	-16.7899	-115.889072	0.000111	1.110685	0.376310	0.008873
1583	7.9100e-01	-16.7530	-115.606755	0.000707	7.067996	2.394702	0.056463
1584	7.9150e-01	-16.7049	-115.695483	-0.000222	-2.221370	-0.752621	-0.017746
1585	7.9200e-01	-16.6664	-115.445431	0.000626	6.260225	2.121022	0.050010
1586	7.9250e-01	-16.6279	-115.195379	0.000626	6.260225	2.121022	0.050010
1587	7.9300e-01	-16.5765	-115.142949	0.000131	1.312628	0.444730	0.010486
1588	7.9350e-01	-16.5445	-114.739639	0.001010	10.097137	3.421003	0.080662
1589	7.9400e-01	-16.5156	-114.586381	0.000384	3.836912	1.299981	0.030652
1590	7.9450e-01	-16.4658	-114.312130	0.000687	6.866053	2.326282	0.054850
1591	7.9500e-01	-16.4289	-114.497653	-0.000464	-4.644683	-1.573661	-0.037105
1592	7.9550e-01	-16.3904	-114.118542	0.000949	9.491309	3.215743	0.075822
1593	7.9600e-01	-16.3439	-113.993515	0.000313	3.130113	1.060511	0.025005
1594	7.9650e-01	-16.3022	-113.856390	0.000343	3.433027	1.163141	0.027425
1595	7.9700e-01	-16.2637	-113.779761	0.000192	1.918456	0.649991	0.015326
1596	7.9750e-01	-16.2316	-113.598272	0.000454	4.543712	1.539451	0.036298
1597	7.9800e-01	-16.1787	-113.360319	0.000596	5.957311	2.018392	0.047591
1598	7.9850e-01	-16.1386	-113.235293	0.000313	3.130113	1.060511	0.025005
1599	7.9900e-01	-16.1097	-112.997340	0.000596	5.957311	2.018392	0.047591
1600	7.9950e-01	-16.0680	-112.723089	0.000687	6.866053	2.326282	0.054850
1601	8.0000e-01	-16.0279	-112.585964	0.000343	3.433027	1.163141	0.027425
1602	8.0050e-01	-15.9926	-112.356077	0.000576	5.755368	1.949972	0.045977
1603	8.0100e-01	-15.9493	-112.307680	0.000121	1.211656	0.410520	0.009679
1604	8.0150e-01	-15.9076	-112.081827	0.000565	5.654397	1.915762	0.045171
1605	8.0200e-01	-15.8659	-111.968900	0.000283	2.827198	0.957881	0.022585
1606	8.0250e-01	-15.8290	-111.815642	0.000384	3.836912	1.299981	0.030652
1607	8.0300e-01	-15.7953	-111.448630	0.000919	9.188395	3.113113	0.073402
1608	8.0350e-01	-15.7504	-111.392167	0.000141	1.413599	0.478940	0.011293
1609	8.0400e-01	-15.7183	-111.255041	0.000343	3.433027	1.163141	0.027425
1610	8.0450e-01	-15.6573	-111.134049	0.000303	3.029141	1.026301	0.024199
1611	8.0500e-01	-15.6268	-110.916261	0.000545	5.452454	1.847341	0.043557
1612	8.0550e-01	-15.5883	-110.698474	0.000545	5.452454	1.847341	0.043557
1613	8.0600e-01	-15.5466	-110.400025	0.000747	7.471882	2.531542	0.059690
1614	8.0650e-01	-15.4969	-110.230634	0.000424	4.240798	1.436821	0.033878
1615	8.0700e-01	-15.4744	-110.137873	0.000232	2.322342	0.786831	0.018552
1616	8.0750e-01	-15.4327	-109.912020	0.000565	5.654397	1.915762	0.045171
1617	8.0800e-01	-15.3878	-109.746663	0.000414	4.139826	1.402611	0.033071
1618	8.0850e-01	-15.3509	-109.573239	0.000434	4.341769	1.471031	0.034685
1619	8.0900e-01	-15.3156	-109.298989	0.000687	6.866053	2.326282	0.054850
1620	8.0950e-01	-15.2739	-109.210261	0.000222	2.221370	0.752621	0.017746
1621	8.1000e-01	-15.2354	-108.891646	0.000798	7.976739	2.702592	0.063723
1622	8.1050e-01	-15.1921	-108.831149	0.000151	1.514571	0.513150	0.012099
1623	8.1100e-01	-15.1552	-108.653693	0.000444	4.442740	1.505241	0.035491
1624	8.1150e-01	-15.1055	-108.516568	0.000343	3.433027	1.163141	0.027425
1625	8.1200e-01	-15.0718	-108.322979	0.000485	4.846626	1.642081	0.038718
1626	8.1250e-01	-15.0285	-108.125357	0.000495	4.947597	1.676291	0.039524
1627	8.1300e-01	-14.9803	-107.972099	0.000384	3.836912	1.299981	0.030652
1628	8.1350e-01	-14.9531	-107.645418	0.000818	8.178681	2.771012	0.065336
1629	8.1400e-01	-14.9065	-107.504260	0.000353	3.533998	1.197351	0.028232
1630	8.1450e-01	-14.8664	-107.407465	0.000242	2.423313	0.821041	0.019359
1631	8.1500e-01	-14.8343	-107.234042	0.000434	4.341769	1.471031	0.034685
1632	8.1550e-01	-14.7878	-107.008189	0.000565	5.654397	1.915762	0.045171
1633	8.1600e-01	-14.7429	-106.782335	0.000565	5.654397	1.915762	0.045171
1634	8.1650e-01	-14.7156	-106.584713	0.000495	4.947597	1.676291	0.039524
1635	8.1700e-01	-14.6803	-106.350794	0.000586	5.856340	1.984182	0.046784
1636	8.1750e-01	-14.6354	-106.290297	0.000151	1.514571	0.513150	0.012099
1637	8.1800e-01	-14.5873	-106.112841	0.000444	4.442740	1.505241	0.035491
1638	8.1850e-01	-14.5408	-105.911186	0.000505	5.048569	1.710501	0.040331
1639	8.1900e-01	-14.5103	-105.693399	0.000545	5.452454	1.847341	0.043557
1640	8.1950e-01	-14.4606	-105.427214	0.000666	6.664111	2.257862	0.053237
1641	8.2000e-01	-14.4269	-105.431247	-0.000010	-0.100971	-0.034210	-0.000807
1642	8.2050e-01	-14.3900	-105.338486	0.000232	2.322342	0.786831	0.018552
1643	8.2100e-01	-14.3499	-104.999706	0.000848	8.481595	2.873642	0.067756
1644	8.2150e-01	-14.3065	-104.874680	0.000313	3.130113	1.060511	0.025005
1645	8.2200e-01	-14.2713	-104.600429	0.000687	6.866053	2.326282	0.054850
1646	8.2250e-01	-14.2328	-104.439105	0.000404	4.038855	1.368401	0.032265
1647	8.2300e-01	-14.1830	-104.362476	0.000192	1.918456	0.649991	0.015326
1648	8.2350e-01	-14.1606	-104.096291	0.000666	6.664111	2.257862	0.053237
1649	8.2400e-01	-14.1156	-103.898670	0.000495	4.947597	1.676291	0.039524
1650	8.2450e-01	-14.0691	-103.753478	0.000363	3.634969	1.231561	0.029038
1651	8.2500e-01	-14.0338	-103.543757	0.000525	5.250511	1.778921	0.041944
1652	8.2550e-01	-13.9905	-103.479227	0.000162	1.615542	0.547360	0.012906
1653	8.2600e-01	-13.9472	-103.108182	0.000929	9.289366	3.147323	0.074209
1654	8.2650e-01	-13.9167	-102.971057	0.000343	3.433027	1.163141	0.027425
1655	8.2700e-01	-13.8686	-102.837965	0.000333	3.332055	1.128931	0.026618
1656	8.2750e-01	-13.8349	-102.487085	0.000878	8.784510	2.976272	0.070176
1657	8.2800e-01	-13.7948	-102.362059	0.000313	3.130113	1.060511	0.025005
1658	8.2850e-01	-13.7531	-102.269298	0.000232	2.322342	0.786831	0.018552
1659	8.2900e-01	-13.7114	-101.982948	0.000717	7.168968	2.428912	0.057270
1660	8.2950e-01	-13.6649	-101.890187	0.000232	2.322342	0.786831	0.018552
1661	8.3000e-01	-13.6360	-101.656267	0.000586	5.856340	1.984182	0.046784
1662	8.3050e-01	-13.5879	-101.341685	0.000788	7.875767	2.668382	0.062916
1663	8.3100e-01	-13.5622	-101.119865	0.000555	5.553426	1.881552	0.044364
1664	8.3150e-01	-13.5157	-100.998872	0.000303	3.029141	1.026301	0.024199
1665	8.3200e-01	-13.4772	-100.833515	0.000414	4.139826	1.402611	0.033071
1666	8.3250e-01	-13.4322	-100.615727	0.000545	5.452454	1.847341	0.043557
1667	8.3300e-01	-13.3937	-100.583463	0.000081	0.807771	0.273680	0.006453
1668	8.3350e-01	-13.3584	-100.454403	0.000323	3.231084	1.094721	0.025812
1669	8.3400e-01	-13.3071	-100.256782	0.000495	4.947597	1.676291	0.039524
1670	8.3450e-01	-13.2654	-99.893803	0.000909	9.087424	3.078902	0.072596
1671	8.3500e-01	-13.2237	-99.700214	0.000485	4.846626	1.642081	0.038718
1672	8.3550e-01	-13.1852	-99.421930	0.000697	6.967025	2.360492	0.055657
1673	8.3600e-01	-13.1531	-99.337235	0.000212	2.120399	0.718411	0.016939
1674	8.3650e-01	-13.1082	-99.083150	0.000636	6.361197	2.155232	0.050817
1675	8.3700e-01	-13.0601	-99.026687	0.000141	1.413599	0.478940	0.011293
1676	8.3750e-01	-13.0232	-98.808899	0.000545	5.452454	1.847341	0.043557
1677	8.3800e-01	-12.9879	-98.534649	0.000687	6.866053	2.326282	0.054850
1678	8.3850e-01	-12.9430	-98.224100	0.000777	7.774796	2.634172	0.062110
1679	8.3900e-01	-12.9077	-98.082941	0.000353	3.533998	1.197351	0.028232
1680	8.3950e-01	-12.8692	-97.949849	0.000333	3.332055	1.128931	0.026618
1681	8.4000e-01	-12.8307	-97.699797	0.000626	6.260225	2.121022	0.050010
1682	8.4050e-01	-12.7905	-97.667532	0.000081	0.807771	0.273680	0.006453
1683	8.4100e-01	-12.7504	-97.421513	0.000616	6.159254	2.086812	0.049204
1684	8.4150e-01	-12.7071	-97.110965	0.000777	7.774796	2.634172	0.062110
1685	8.4200e-01	-12.6734	-96.893177	0.000545	5.452454	1.847341	0.043557
1686	8.4250e-01	-12.6381	-96.739920	0.000384	3.836912	1.299981	0.030652
1687	8.4300e-01	-12.5964	-96.534232	0.000515	5.149540	1.744711	0.041138
1688	8.4350e-01	-12.5499	-96.425338	0.000273	2.726227	0.923671	0.021779
1689	8.4400e-01	-12.5082	-96.134955	0.000727	7.269939	2.463122	0.058077
1690	8.4450e-01	-12.4713	-96.054293	0.000202	2.019427	0.684201	0.016132
1691	8.4500e-01	-12.4344	-95.953465	0.000252	2.524284	0.855251	0.020165
1692	8.4550e-01	-12.3927	-95.582420	0.000929	9.289366	3.147323	0.074209
1693	8.4600e-01	-12.3494	-95.413030	0.000424	4.240798	1.436821	0.033878
1694	8.4650e-01	-12.3189	-95.279938	0.000333	3.332055	1.128931	0.026618
1695	8.4700e-01	-12.2756	-94.900827	0.000949	9.491309	3.215743	0.075822
1696	8.4750e-01	-12.2371	-94.904860	-0.000010	-0.100971	-0.034210	-0.000807
1697	8.4800e-01	-12.1874	-94.509616	0.000990	9.895195	3.352583	0.079049
1698	8.4850e-01	-12.1489	-94.445087	0.000162	1.615542	0.547360	0.012906
1699	8.4900e-01	-12.1071	-94.279729	0.000414	4.139826	1.402611	0.033071
1700	8.4950e-01	-12.0719	-94.106306	0.000434	4.341769	1.471031	0.034685
1701	8.5000e-01	-12.0366	-93.791725	0.000788	7.875767	2.668382	0.062916
1702	8.5050e-01	-11.9884	-93.702996	0.000222	2.221370	0.752621	0.017746
1703	8.5100e-01	-11.9451	-93.315819	0.000969	9.693252	3.284163	0.077435
1704	8.5150e-01	-11.9178	-93.061734	0.000636	6.361197	2.155232	0.050817
1705	8.5200e-01	-11.8777	-93.009303	0.000131	1.312628	0.444730	0.010486
1706	8.5250e-01	-11.8344	-92.710854	0.000747	7.471882	2.531542	0.059690
1707	8.5300e-01	-11.7895	-92.626159	0.000212	2.120399	0.718411	0.016939
1708	8.5350e-01	-11.7462	-92.480967	0.000363	3.634969	1.231561	0.029038
1709	8.5400e-01	-11.7061	-92.251081	0.000576	5.755368	1.949972	0.045977
1710	8.5450e-01	-11.6708	-92.105889	0.000363	3.634969	1.231561	0.029038
1711	8.5500e-01	-11.6227	-91.803407	0.000757	7.572853	2.565752	0.060496
1712	8.5550e-01	-11.5890	-91.621917	0.000454	4.543712	1.539451	0.036298
1713	8.5600e-01	-11.5585	-91.367832	0.000636	6.361197	2.155232	0.050817
1714	8.5650e-01	-11.5007	-91.166177	0.000505	5.048569	1.710501	0.040331
1715	8.5700e-01	-11.4751	-90.920158	0.000616	6.159254	2.086812	0.049204
1716	8.5750e-01	-11.4318	-90.694305	0.000565	5.654397	1.915762	0.045171
1717	8.5800e-01	-11.3949	-90.641875	0.000131	1.312628	0.444730	0.010486
1718	8.5850e-01	-11.3532	-90.403922	0.000596	5.957311	2.018392	0.047591
1719	8.5900e-01	-11.3130	-90.105472	0.000747	7.471882	2.531542	0.059690
1720	8.5950e-01	-11.2665	-89.895751	0.000525	5.250511	1.778921	0.041944
1721	8.6000e-01	-11.2344	-89.815089	0.000202	2.019427	0.684201	0.016132
1722	8.6050e-01	-11.1911	-89.585203	0.000576	5.755368	1.949972	0.045977
1723	8.6100e-01	-11.1398	-89.565037	0.000050	0.504857	0.171050	0.004033
1724	8.6150e-01	-11.1061	-89.177860	0.000969	9.693252	3.284163	0.077435
1725	8.6200e-01	-11.0724	-88.855212	0.000808	8.077710	2.736802	0.064530
1726	8.6250e-01	-11.0275	-88.818914	0.000091	0.908742	0.307890	0.007260
1727	8.6300e-01	-10.9794	-88.548696	0.000677	6.765082	2.292072	0.054044
1728	8.6350e-01	-10.9537	-88.355108	0.000485	4.846626	1.642081	0.038718
1729	8.6400e-01	-10.9104	-88.113122	0.000606	6.058282	2.052602	0.048397
1730	8.6450e-01	-10.8783	-87.842904	0.000677	6.765082	2.292072	0.054044
1731	8.6500e-01	-10.8334	-87.633183	0.000525	5.250511	1.778921	0.041944
1732	8.6550e-01	-10.7804	-87.516223	0.000293	2.928170	0.992091	0.023392
1733	8.6600e-01	-10.7468	-87.258105	0.000646	6.462168	2.189442	0.051624
1734	8.6650e-01	-10.7066	-87.197608	0.000151	1.514571	0.513150	0.012099
1735	8.6700e-01	-10.6714	-86.939490	0.000646	6.462168	2.189442	0.051624
1736	8.6750e-01	-10.6313	-86.628941	0.000777	7.774796	2.634172	0.062110
1737	8.6800e-01	-10.5960	-86.443419	0.000464	4.644683	1.573661	0.037105
1738	8.6850e-01	-10.5494	-86.237731	0.000515	5.149540	1.744711	0.041138
1739	8.6900e-01	-10.5125	-86.084473	0.000384	3.836912	1.299981	0.030652
1740	8.6950e-01	-10.4724	-85.802156	0.000707	7.067996	2.394702	0.056463
1741	8.7000e-01	-10.4307	-85.660998	0.000353	3.533998	1.197351	0.028232
1742	8.7050e-01	-10.3890	-85.447244	0.000535	5.351483	1.813131	0.042751
1743	8.7100e-01	-10.3457	-85.225423	0.000555	5.553426	1.881552	0.044364
1744	8.7150e-01	-10.2976	-85.047967	0.000444	4.442740	1.505241	0.035491
1745	8.7200e-01	-10.2671	-84.664822	0.000959	9.592281	3.249953	0.076629
1746	8.7250e-01	-10.2254	-84.543829	0.000303	3.029141	1.026301	0.024199
1747	8.7300e-01	-10.1869	-84.301844	0.000606	6.058282	2.052602	0.048397
1748	8.7350e-01	-10.1468	-84.261513	0.000101	1.009714	0.342100	0.008066
1749	8.7400e-01	-10.1051	-83.979196	0.000707	7.067996	2.394702	0.056463
1750	8.7450e-01	-10.0650	-83.866269	0.000283	2.827198	0.957881	0.022585
1751	8.7500e-01	-10.0216	-83.567820	0.000747	7.471882	2.531542	0.059690
1752	8.7550e-01	-9.9944	-83.277436	0.000727	7.269939	2.463122	0.058077
1753	8.7600e-01	-9.9575	-83.059649	0.000545	5.452454	1.847341	0.043557
1754	8.7650e-01	-9.8997	-82.934623	0.000313	3.130113	1.060511	0.025005
1755	8.7700e-01	-9.8724	-82.575677	0.000899	8.986452	3.044692	0.071789
1756	8.7750e-01	-9.8259	-82.438552	0.000343	3.433027	1.163141	0.027425
1757	8.7800e-01	-9.7938	-82.152202	0.000717	7.168968	2.428912	0.057270
1758	8.7850e-01	-9.7489	-82.023143	0.000323	3.231084	1.094721	0.025812
1759	8.7900e-01	-9.7136	-81.886017	0.000343	3.433027	1.163141	0.027425
1760	8.7950e-01	-9.6719	-81.442377	0.001111	11.106851	3.763103	0.088728
1761	8.8000e-01	-9.6254	-81.180225	0.000656	6.563139	2.223652	0.052430
1762	8.8050e-01	-9.5933	-81.059232	0.000303	3.029141	1.026301	0.024199
1763	8.8100e-01	-9.5500	-80.938239	0.000303	3.029141	1.026301	0.024199
1764	8.8150e-01	-9.5099	-80.567194	0.000929	9.289366	3.147323	0.074209
1765	8.8200e-01	-9.4650	-80.470400	0.000242	2.423313	0.821041	0.019359
1766	8.8250e-01	-9.4281	-80.385705	0.000212	2.120399	0.718411	0.016939
1767	8.8300e-01	-9.3848	-80.135653	0.000626	6.260225	2.121022	0.050010
1768	8.8350e-01	-9.3511	-79.813005	0.000808	8.077710	2.736802	0.064530
1769	8.8400e-01	-9.3046	-79.558920	0.000636	6.361197	2.155232	0.050817
1770	8.8450e-01	-9.2644	-79.445993	0.000283	2.827198	0.957881	0.022585
1771	8.8500e-01	-9.2275	-79.316934	0.000323	3.231084	1.094721	0.025812
1772	8.8550e-01	-9.1858	-79.167709	0.000374	3.735941	1.265771	0.029845
1773	8.8600e-01	-9.1441	-78.909591	0.000646	6.462168	2.189442	0.051624
1774	8.8650e-01	-9.1040	-78.695836	0.000535	5.351483	1.813131	0.042751
1775	8.8700e-01	-9.0639	-78.401420	0.000737	7.370910	2.497332	0.058883
1776	8.8750e-01	-9.0254	-78.022309	0.000949	9.491309	3.215743	0.075822
1777	8.8800e-01	-8.9917	-77.848886	0.000434	4.341769	1.471031	0.034685
1778	8.8850e-01	-8.9372	-77.760158	0.000222	2.221370	0.752621	0.017746
1779	8.8900e-01	-8.9099	-77.522205	0.000596	5.957311	2.018392	0.047591
1780	8.8950e-01	-8.8682	-77.122928	0.001000	9.996166	3.386793	0.079855
1781	8.9000e-01	-8.8313	-76.993869	0.000323	3.231084	1.094721	0.025812
1782	8.9050e-01	-8.7864	-76.828512	0.000414	4.139826	1.402611	0.033071
1783	8.9100e-01	-8.7479	-76.602658	0.000565	5.654397	1.915762	0.045171
1784	8.9150e-01	-8.7142	-76.288077	0.000788	7.875767	2.668382	0.062916
1785	8.9200e-01	-8.6580	-76.219514	0.000172	1.716513	0.581570	0.013713
1786	8.9250e-01	-8.6276	-76.021892	0.000495	4.947597	1.676291	0.039524
1787	8.9300e-01	-8.5939	-75.779906	0.000606	6.058282	2.052602	0.048397
1788	8.9350e-01	-8.5441	-75.638748	0.000353	3.533998	1.197351	0.028232
1789	8.9400e-01	-8.5056	-75.400795	0.000596	5.957311	2.018392	0.047591
1790	8.9450e-01	-8.4655	-75.102346	0.000747	7.471882	2.531542	0.059690
1791	8.9500e-01	-8.4270	-74.868426	0.000586	5.856340	1.984182	0.046784
1792	8.9550e-01	-8.3853	-74.695003	0.000434	4.341769	1.471031	0.034685
1793	8.9600e-01	-8.3500	-74.420752	0.000687	6.866053	2.326282	0.054850
1794	8.9650e-01	-8.3147	-74.106170	0.000788	7.875767	2.668382	0.062916
1795	8.9700e-01	-8.2602	-74.065839	0.000101	1.009714	0.342100	0.008066
1796	8.9750e-01	-8.2265	-73.948879	0.000293	2.928170	0.992091	0.023392
1797	8.9800e-01	-8.1864	-73.573801	0.000939	9.390338	3.181533	0.075016
1798	8.9850e-01	-8.1511	-73.323749	0.000626	6.260225	2.121022	0.050010
1799	8.9900e-01	-8.1110	-72.972870	0.000878	8.784510	2.976272	0.070176
1800	8.9950e-01	-8.0613	-72.811546	0.000404	4.038855	1.368401	0.032265
1801	9.0000e-01	-8.0276	-72.605858	0.000515	5.149540	1.744711	0.041138
1802	9.0050e-01	-7.9859	-72.432434	0.000434	4.341769	1.471031	0.034685
1803	9.0100e-01	-7.9458	-72.101720	0.000828	8.279653	2.805222	0.066143
1804	9.0150e-01	-7.9089	-71.924264	0.000444	4.442740	1.505241	0.035491
1805	9.0200e-01	-7.8656	-71.670179	0.000636	6.361197	2.155232	0.050817
1806	9.0250e-01	-7.8287	-71.601616	0.000172	1.716513	0.581570	0.013713
1807	9.0300e-01	-7.7934	-71.299134	0.000757	7.572853	2.565752	0.060496
1808	9.0350e-01	-7.7452	-70.932122	0.000919	9.188395	3.113113	0.073402
1809	9.0400e-01	-7.6987	-70.762732	0.000424	4.240798	1.436821	0.033878
1810	9.0450e-01	-7.6650	-70.512679	0.000626	6.260225	2.121022	0.050010
1811	9.0500e-01	-7.6329	-70.311024	0.000505	5.048569	1.710501	0.040331
1812	9.0550e-01	-7.5864	-70.206164	0.000263	2.625256	0.889461	0.020972
1813	9.0600e-01	-7.5527	-69.935946	0.000677	6.765082	2.292072	0.054044
1814	9.0650e-01	-7.5030	-69.798821	0.000343	3.433027	1.163141	0.027425
1815	9.0700e-01	-7.4709	-69.544736	0.000636	6.361197	2.155232	0.050817
1816	9.0750e-01	-7.4260	-69.133360	0.001030	10.299080	3.489423	0.082275
1817	9.0800e-01	-7.3907	-68.935738	0.000495	4.947597	1.676291	0.039524
1818	9.0850e-01	-7.3410	-68.883308	0.000131	1.312628	0.444730	0.010486
1819	9.0900e-01	-7.3009	-68.645355	0.000596	5.957311	2.018392	0.047591
1820	9.0950e-01	-7.2559	-68.439667	0.000515	5.149540	1.744711	0.041138
1821	9.1000e-01	-7.2190	-68.108953	0.000828	8.279653	2.805222	0.066143
1822	9.1050e-01	-7.1838	-67.891165	0.000545	5.452454	1.847341	0.043557
1823	9.1100e-01	-7.1501	-67.560451	0.000828	8.279653	2.805222	0.066143
1824	9.1150e-01	-7.1100	-67.286201	0.000687	6.866053	2.326282	0.054850
1825	9.1200e-01	-7.0650	-67.165208	0.000303	3.029141	1.026301	0.024199
1826	9.1250e-01	-7.0265	-66.987751	0.000444	4.442740	1.505241	0.035491
1827	9.1300e-01	-6.9929	-66.665103	0.000808	8.077710	2.736802	0.064530
1828	9.1350e-01	-6.9431	-66.294058	0.000929	9.289366	3.147323	0.074209
1829	9.1400e-01	-6.9126	-66.173065	0.000303	3.029141	1.026301	0.024199
1830	9.1450e-01	-6.8645	-65.910914	0.000656	6.563139	2.223652	0.052430
1831	9.1500e-01	-6.8292	-65.681027	0.000576	5.755368	1.949972	0.045977
1832	9.1550e-01	-6.7859	-65.447108	0.000586	5.856340	1.984182	0.046784
1833	9.1600e-01	-6.7490	-65.322082	0.000313	3.130113	1.060511	0.025005
1834	9.1650e-01	-6.7025	-65.015566	0.000767	7.673824	2.599962	0.061303
1835	9.1700e-01	-6.6608	-64.797779	0.000545	5.452454	1.847341	0.043557
1836	9.1750e-01	-6.6335	-64.531594	0.000666	6.664111	2.257862	0.053237
1837	9.1800e-01	-6.5982	-64.350105	0.000454	4.543712	1.539451	0.036298
1838	9.1850e-01	-6.5501	-63.995192	0.000889	8.885481	3.010482	0.070983
1839	9.1900e-01	-6.5084	-63.850001	0.000363	3.634969	1.231561	0.029038
1840	9.1950e-01	-6.4699	-63.583816	0.000666	6.664111	2.257862	0.053237
1841	9.2000e-01	-6.4282	-63.309565	0.000687	6.866053	2.326282	0.054850
1842	9.2050e-01	-6.3881	-63.140175	0.000424	4.240798	1.436821	0.033878
1843	9.2100e-01	-6.3592	-62.869958	0.000677	6.765082	2.292072	0.054044
1844	9.2150e-01	-6.3191	-62.547310	0.000808	8.077710	2.736802	0.064530
1845	9.2200e-01	-6.2726	-62.442449	0.000263	2.625256	0.889461	0.020972
1846	9.2250e-01	-6.2308	-62.152066	0.000727	7.269939	2.463122	0.058077
1847	9.2300e-01	-6.1923	-61.902014	0.000626	6.260225	2.121022	0.050010
1848	9.2350e-01	-6.1458	-61.688260	0.000535	5.351483	1.813131	0.042751
1849	9.2400e-01	-6.1121	-61.555167	0.000333	3.332055	1.128931	0.026618
1850	9.2450e-01	-6.0704	-61.401910	0.000384	3.836912	1.299981	0.030652
1851	9.2500e-01	-6.0303	-60.994567	0.001020	10.198109	3.455213	0.081469
1852	9.2550e-01	-6.0014	-60.784846	0.000525	5.250511	1.778921	0.041944
1853	9.2600e-01	-5.9629	-60.575124	0.000525	5.250511	1.778921	0.041944
1854	9.2650e-01	-5.9068	-60.317006	0.000646	6.462168	2.189442	0.051624
1855	9.2700e-01	-5.8731	-60.115351	0.000505	5.048569	1.710501	0.040331
1856	9.2750e-01	-5.8394	-59.780604	0.000838	8.380624	2.839432	0.066949
1857	9.2800e-01	-5.7929	-59.659611	0.000303	3.029141	1.026301	0.024199
1858	9.2850e-01	-5.7448	-59.336963	0.000808	8.077710	2.736802	0.064530
1859	9.2900e-01	-5.7014	-59.127242	0.000525	5.250511	1.778921	0.041944
1860	9.2950e-01	-5.6694	-58.808627	0.000798	7.976739	2.702592	0.063723
1861	9.3000e-01	-5.6421	-58.715866	0.000232	2.322342	0.786831	0.018552
1862	9.3050e-01	-5.5908	-58.385152	0.000828	8.279653	2.805222	0.066143
1863	9.3100e-01	-5.5522	-58.191563	0.000485	4.846626	1.642081	0.038718
1864	9.3150e-01	-5.5057	-58.058471	0.000333	3.332055	1.128931	0.026618
1865	9.3200e-01	-5.4720	-57.659194	0.001000	9.996166	3.386793	0.079855
1866	9.3250e-01	-5.4303	-57.360745	0.000747	7.471882	2.531542	0.059690
1867	9.3300e-01	-5.3934	-57.231686	0.000323	3.231084	1.094721	0.025812
1868	9.3350e-01	-5.3565	-56.937270	0.000737	7.370910	2.497332	0.058883
1869	9.3400e-01	-5.3148	-56.808210	0.000323	3.231084	1.094721	0.025812
1870	9.3450e-01	-5.2699	-56.473463	0.000838	8.380624	2.839432	0.066949
1871	9.3500e-01	-5.2298	-56.340371	0.000333	3.332055	1.128931	0.026618
1872	9.3550e-01	-5.1849	-55.973359	0.000919	9.188395	3.113113	0.073402
1873	9.3600e-01	-5.1480	-55.739439	0.000586	5.856340	1.984182	0.046784
1874	9.3650e-01	-5.1127	-55.594248	0.000363	3.634969	1.231561	0.029038
1875	9.3700e-01	-5.0758	-55.231269	0.000909	9.087424	3.078902	0.072596
1876	9.3750e-01	-5.0277	-55.029614	0.000505	5.048569	1.710501	0.040331
1877	9.3800e-01	-4.9908	-54.787628	0.000606	6.058282	2.052602	0.048397
1878	9.3850e-01	-4.9507	-54.464980	0.000808	8.077710	2.736802	0.064530
1879	9.3900e-01	-4.9073	-54.339954	0.000313	3.130113	1.060511	0.025005
1880	9.3950e-01	-4.8705	-54.049571	0.000727	7.269939	2.463122	0.058077
1881	9.4000e-01	-4.8336	-53.601897	0.001121	11.207823	3.797313	0.089535
1882	9.4050e-01	-4.7918	-53.517202	0.000212	2.120399	0.718411	0.016939
1883	9.4100e-01	-4.7501	-53.146157	0.000929	9.289366	3.147323	0.074209
1884	9.4150e-01	-4.7068	-53.073561	0.000182	1.817485	0.615780	0.014519
1885	9.4200e-01	-4.6635	-52.754946	0.000798	7.976739	2.702592	0.063723
1886	9.4250e-01	-4.6234	-52.464563	0.000727	7.269939	2.463122	0.058077
1887	9.4300e-01	-4.5929	-52.270974	0.000485	4.846626	1.642081	0.038718
1888	9.4350e-01	-4.5480	-52.037055	0.000586	5.856340	1.984182	0.046784
1889	9.4400e-01	-4.5127	-51.726506	0.000777	7.774796	2.634172	0.062110
1890	9.4450e-01	-4.4710	-51.641811	0.000212	2.120399	0.718411	0.016939
1891	9.4500e-01	-4.4293	-51.230435	0.001030	10.299080	3.489423	0.082275
1892	9.4550e-01	-4.3892	-50.960217	0.000677	6.765082	2.292072	0.054044
1893	9.4600e-01	-4.3491	-50.677900	0.000707	7.067996	2.394702	0.056463
1894	9.4650e-01	-4.3106	-50.637570	0.000101	1.009714	0.342100	0.008066
1895	9.4700e-01	-4.2721	-50.399617	0.000596	5.957311	2.018392	0.047591
1896	9.4750e-01	-4.2304	-50.121333	0.000697	6.967025	2.360492	0.055657
1897	9.4800e-01	-4.1838	-49.907579	0.000535	5.351483	1.813131	0.042751
1898	9.4850e-01	-4.1469	-49.576865	0.000828	8.279653	2.805222	0.066143
1899	9.4900e-01	-4.1100	-49.322779	0.000636	6.361197	2.155232	0.050817
1900	9.4950e-01	-4.0667	-49.024330	0.000747	7.471882	2.531542	0.059690
1901	9.5000e-01	-4.0266	-48.790410	0.000586	5.856340	1.984182	0.046784
1902	9.5050e-01	-3.9833	-48.548424	0.000606	6.058282	2.052602	0.048397
1903	9.5100e-01	-3.9384	-48.233843	0.000788	7.875767	2.668382	0.062916
1904	9.5150e-01	-3.9063	-48.100750	0.000333	3.332055	1.128931	0.026618
1905	9.5200e-01	-3.8630	-47.786169	0.000788	7.875767	2.668382	0.062916
1906	9.5250e-01	-3.8277	-47.479653	0.000767	7.673824	2.599962	0.061303
1907	9.5300e-01	-3.7924	-47.382859	0.000242	2.423313	0.821041	0.019359
1908	9.5350e-01	-3.7459	-46.959384	0.001060	10.601994	3.592053	0.084695
1909	9.5400e-01	-3.7154	-46.741596	0.000545	5.452454	1.847341	0.043557
1910	9.5450e-01	-3.6753	-46.418948	0.000808	8.077710	2.736802	0.064530
1911	9.5500e-01	-3.6320	-46.084201	0.000838	8.380624	2.839432	0.066949
1912	9.5550e-01	-3.5903	-45.846248	0.000596	5.957311	2.018392	0.047591
1913	9.5600e-01	-3.5518	-45.624428	0.000555	5.553426	1.881552	0.044364
1914	9.5650e-01	-3.5085	-45.459071	0.000414	4.139826	1.402611	0.033071
1915	9.5700e-01	-3.4651	-45.273548	0.000464	4.644683	1.573661	0.037105
1916	9.5750e-01	-3.4282	-44.967033	0.000767	7.673824	2.599962	0.061303
1917	9.5800e-01	-3.3865	-44.612120	0.000889	8.885481	3.010482	0.070983
1918	9.5850e-01	-3.3480	-44.370134	0.000606	6.058282	2.052602	0.048397
1919	9.5900e-01	-3.3047	-44.164446	0.000515	5.149540	1.744711	0.041138
1920	9.5950e-01	-3.2614	-43.995056	0.000424	4.240798	1.436821	0.033878
1921	9.6000e-01	-3.2261	-43.611912	0.000959	9.592281	3.249953	0.076629
1922	9.6050e-01	-3.1876	-43.337661	0.000687	6.866053	2.326282	0.054850
1923	9.6100e-01	-3.1523	-43.031146	0.000767	7.673824	2.599962	0.061303
1924	9.6150e-01	-3.1058	-42.797226	0.000586	5.856340	1.984182	0.046784
1925	9.6200e-01	-3.0673	-42.643968	0.000384	3.836912	1.299981	0.030652
1926	9.6250e-01	-3.0272	-42.297122	0.000868	8.683538	2.942062	0.069369
1927	9.6300e-01	-2.9935	-42.127731	0.000424	4.240798	1.436821	0.033878
1928	9.6350e-01	-2.9454	-41.934143	0.000485	4.846626	1.642081	0.038718
1929	9.6400e-01	-2.9101	-41.587296	0.000868	8.683538	2.942062	0.069369
1930	9.6450e-01	-2.8652	-41.353377	0.000586	5.856340	1.984182	0.046784
1931	9.6500e-01	-2.8331	-41.002497	0.000878	8.784510	2.976272	0.070176
1932	9.6550e-01	-2.7914	-40.937967	0.000162	1.615542	0.547360	0.012906
1933	9.6600e-01	-2.7464	-40.579022	0.000899	8.986452	3.044692	0.071789
1934	9.6650e-01	-2.7128	-40.171679	0.001020	10.198109	3.455213	0.081469
1935	9.6700e-01	-2.6743	-39.865163	0.000767	7.673824	2.599962	0.061303
1936	9.6750e-01	-2.6229	-39.659475	0.000515	5.149540	1.744711	0.041138
1937	9.6800e-01	-2.5908	-39.506217	0.000384	3.836912	1.299981	0.030652
1938	9.6850e-01	-2.5411	-39.292463	0.000535	5.351483	1.813131	0.042751
1939	9.6900e-01	-2.5090	-38.953683	0.000848	8.481595	2.873642	0.067756
1940	9.6950e-01	-2.4721	-38.768160	0.000464	4.644683	1.573661	0.037105
1941	9.7000e-01	-2.4256	-38.429380	0.000848	8.481595	2.873642	0.067756
1942	9.7050e-01	-2.3903	-38.058335	0.000929	9.289366	3.147323	0.074209
1943	9.7100e-01	-2.3550	-37.880879	0.000444	4.442740	1.505241	0.035491
1944	9.7150e-01	-2.3117	-37.650992	0.000576	5.755368	1.949972	0.045977
1945	9.7200e-01	-2.2732	-37.328344	0.000808	8.077710	2.736802	0.064530
1946	9.7250e-01	-2.2283	-37.017796	0.000777	7.774796	2.634172	0.062110
1947	9.7300e-01	-2.1898	-36.828240	0.000475	4.745655	1.607871	0.037911
1948	9.7350e-01	-2.1497	-36.537857	0.000727	7.269939	2.463122	0.058077
1949	9.7400e-01	-2.1048	-36.320069	0.000545	5.452454	1.847341	0.043557
1950	9.7450e-01	-2.0743	-36.005488	0.000788	7.875767	2.668382	0.062916
1951	9.7500e-01	-2.0229	-35.602178	0.001010	10.097137	3.421003	0.080662
1952	9.7550e-01	-1.9780	-35.368258	0.000586	5.856340	1.984182	0.046784
1953	9.7600e-01	-1.9475	-35.162570	0.000515	5.149540	1.744711	0.041138
1954	9.7650e-01	-1.9171	-34.977048	0.000464	4.644683	1.573661	0.037105
1955	9.7700e-01	-1.8705	-34.658433	0.000798	7.976739	2.702592	0.063723
1956	9.7750e-01	-1.8352	-34.489043	0.000424	4.240798	1.436821	0.033878
1957	9.7800e-01	-1.7935	-34.089766	0.001000	9.996166	3.386793	0.079855
1958	9.7850e-01	-1.7470	-33.642092	0.001121	11.207823	3.797313	0.089535
1959	9.7900e-01	-1.7069	-33.625960	0.000040	0.403885	0.136840	0.003226
1960	9.7950e-01	-1.6668	-33.585629	0.000101	1.009714	0.342100	0.008066
1961	9.8000e-01	-1.6283	-32.859671	0.001817	18.174847	6.157805	0.145192
1962	9.8050e-01	-1.5850	-32.666082	0.000485	4.846626	1.642081	0.038718
1963	9.8100e-01	-1.5465	-32.307136	0.000899	8.986452	3.044692	0.071789
1964	9.8150e-01	-1.5096	-32.097415	0.000525	5.250511	1.778921	0.041944
1965	9.8200e-01	-1.4727	-31.996588	0.000252	2.524284	0.855251	0.020165
1966	9.8250e-01	-1.4278	-31.682006	0.000788	7.875767	2.668382	0.062916
1967	9.8300e-01	-1.3861	-31.516649	0.000414	4.139826	1.402611	0.033071
1968	9.8350e-01	-1.3540	-31.185935	0.000828	8.279653	2.805222	0.066143
1969	9.8400e-01	-1.3139	-30.633400	0.001383	13.833078	4.686774	0.110507
1970	9.8450e-01	-1.2641	-30.496275	0.000343	3.433027	1.163141	0.027425
1971	9.8500e-01	-1.2321	-30.177660	0.000798	7.976739	2.702592	0.063723
1972	9.8550e-01	-1.1919	-29.951807	0.000565	5.654397	1.915762	0.045171
1973	9.8600e-01	-1.1454	-29.705788	0.000616	6.159254	2.086812	0.049204
1974	9.8650e-01	-1.1133	-29.310544	0.000990	9.895195	3.352583	0.079049
1975	9.8700e-01	-1.0668	-29.116955	0.000485	4.846626	1.642081	0.038718
1976	9.8750e-01	-1.0235	-28.822539	0.000737	7.370910	2.497332	0.058883
1977	9.8800e-01	-0.9946	-28.580553	0.000606	6.058282	2.052602	0.048397
1978	9.8850e-01	-0.9449	-28.286137	0.000737	7.370910	2.497332	0.058883
1979	9.8900e-01	-0.9048	-28.173210	0.000283	2.827198	0.957881	0.022585
1980	9.8950e-01	-0.8679	-27.826364	0.000868	8.683538	2.942062	0.069369
1981	9.9000e-01	-0.8326	-27.519848	0.000767	7.673824	2.599962	0.061303
1982	9.9050e-01	-0.7893	-27.213333	0.000767	7.673824	2.599962	0.061303
1983	9.9100e-01	-0.7588	-26.918917	0.000737	7.370910	2.497332	0.058883
1984	9.9150e-01	-0.7187	-26.547872	0.000929	9.289366	3.147323	0.074209
1985	9.9200e-01	-0.6706	-26.390581	0.000394	3.937884	1.334191	0.031458
1986	9.9250e-01	-0.6273	-26.192959	0.000495	4.947597	1.676291	0.039524
1987	9.9300e-01	-0.5855	-25.753351	0.001101	11.005880	3.728893	0.087922
1988	9.9350e-01	-0.5422	-25.608160	0.000363	3.634969	1.231561	0.029038
1989	9.9400e-01	-0.5037	-25.293578	0.000788	7.875767	2.668382	0.062916
1990	9.9450e-01	-0.4716	-24.987062	0.000767	7.673824	2.599962	0.061303
1991	9.9500e-01	-0.4219	-24.644249	0.000858	8.582567	2.907852	0.068563
1992	9.9550e-01	-0.3882	-24.313535	0.000828	8.279653	2.805222	0.066143
1993	9.9600e-01	-0.3465	-24.160277	0.000384	3.836912	1.299981	0.030652
1994	9.9650e-01	-0.3080	-23.809398	0.000878	8.784510	2.976272	0.070176
1995	9.9700e-01	-0.2711	-23.627908	0.000454	4.543712	1.539451	0.036298
1996	9.9750e-01	-0.2262	-23.200400	0.001070	10.702966	3.626263	0.085502
1997	9.9800e-01	-0.1909	-22.962447	0.000596	5.957311	2.018392	0.047591
1998	9.9850e-01	-0.1492	-22.663998	0.000747	7.471882	2.531542	0.059690
1999	9.9900e-01	-0.1123	-22.409912	0.000636	6.361197	2.155232	0.050817
2000	9.9950e-01	-0.0786	-22.095331	0.000788	7.875767	2.668382	0.062916
2001	1.0000e+00	-0.0225	-21.667822	0.000788	7.875767	2.668382	0.085502

Center data before PMax,+/-Pr and +/-Vc Calc.

PMax (uC/cm2):	1.26e+02
Pr (uC/cm2):	1.09e+01
-Pr (uC/cm2):	-2.17e+01
PLoss (uC/cm2):	-2.40e+01
-Vc:	-1.51e+00
C (Max-Eff) (nF):	6.30e-01
K (Eff):	2.14e+03
Vert. (+/-Pr) Shift (uC/cm2):	-5.40e+00
Offset (uC/cm2):	-2.37e+00

A (Loop Area - uC/cm2·Volts):	-4.02e-01



Hysteresis Version: 5.48.1 - Radiant Technologies, Inc., 1999 - 9/12/24

