»»»»»»»»»»»»»»»»»»»»»»»»»»»»»»»»»»»» Hysteresis ««««««««««««««««««««««««««««««««««««
»»»  Executed Version:	5.48.1
»»»  Vision Version:	5.48.4 (R)
»»»  Vision Compiled:	9/18/24
»»»  Driver Version:	5.47.0
»»»  Windows Version:	Windows 8 or 8.1
»»»  Processor Information:	x86 (AMD or Intel) - 32 Processors
»»»  Tester Name:	PMF21124-494 (100V)
»»»  Tester S/N:	PMF21124-494
»»»  Internal Amp Type:	100V RevK 270k
»»»  Internal Amp S/N:	iAB2-596/K     
»»»  Execution Count:	1
»»»»»»»»»»»»»»»»»»»»»»»»»»»»»»»»»»»»»»»»»»««««««««««««««««««««««««««««««««««««««««««

Stored:	6/5/2025 - 11:54:4
Configured:	06/05/25 10:43:40 AM
Executed:	06/05/25 11:53:27 AM

»»»»»»»»»»»»»»»»»»»»»»»»»»»»»»»»»»» Sample Info ««««««««««««««««««««««««««««««««««««
Sample Name:	
Lot Name:	
Wafer Name:	
Die Row/Column:	0/0
Capacitor Number:	0
Sample Area (cm2):	1.00e-04
Sample Thickness (microns):	3.00e-01

Amplifier:	Internal

»»»»»»»»»»»»»»»»»»»»»»»»»»»»»»»»»»» Tester Info «««««««««««««««««««««««««««««««««««
Tester Name:	PMF21124-494 (100V)
Tester Serial Number:	PMF21124-494
Return Signal Amp. Level:	0.19 [Index: 3]

»»»»»»»»»»»»»»»»»»»»»»»»»»»»»»»» Hysteresis Info ««««««««««««««««««««««««««««««««««
Task Name:	Hyst-187
Volts:	20.00
Field:	666.67 (kV/cm)
DCBias:	0.00
DCField:	0.00 (kV/cm)
Hysteresis Period (ms):	2.00e+02
Preset:	Enabled
Preset Delay (ms):	1.00e+03
Profile:	Standard Bipolar

»»»»»»»»»»»»»»»»»»»»»»»»»»»»»»»»»»»»»» Data «««««««««««««««««««««««««««««««««««««««
Points:	2009

Valid Data

Point	Time (ms)	Drive Voltage	Measured Polarization (uC/cm2)	Capacitance (uF)	Normalized Capacitance (uF/cm2)	Dielectric Constant	Instantaneous Current (mA)
   1	0.0000e+00	0.0032	13.209508	0.000466	4.661377	1.579317	0.000187
   2	9.9500e-02	0.0273	13.395216	0.000466	4.661377	1.579317	0.000187
   3	1.9900e-01	0.0690	13.625333	0.000578	5.776055	1.956980	0.000231
   4	2.9850e-01	0.1043	13.948304	0.000811	8.106743	2.746639	0.000325
   5	3.9800e-01	0.1508	14.194569	0.000618	6.181392	2.094312	0.000248
   6	4.9750e-01	0.1813	14.440835	0.000618	6.181392	2.094312	0.000248
   7	5.9700e-01	0.2262	14.715360	0.000689	6.890732	2.334643	0.000276
   8	6.9650e-01	0.2631	15.006034	0.000730	7.296069	2.471975	0.000292
   9	7.9600e-01	0.3144	15.268447	0.000659	6.586729	2.231644	0.000264
  10	8.9550e-01	0.3417	15.534898	0.000669	6.688063	2.265977	0.000268
  11	9.9500e-01	0.3818	15.805386	0.000679	6.789397	2.300310	0.000272
  12	1.0945e+00	0.4315	16.100097	0.000740	7.397403	2.506308	0.000296
  13	1.1940e+00	0.4620	16.378660	0.000699	6.992066	2.368976	0.000280
  14	1.2935e+00	0.5005	16.661259	0.000709	7.093400	2.403309	0.000284
  15	1.3930e+00	0.5422	16.939822	0.000699	6.992066	2.368976	0.000280
  16	1.4925e+00	0.5855	17.246644	0.000770	7.701406	2.609307	0.000308
  17	1.5920e+00	0.6337	17.521169	0.000689	6.890732	2.334643	0.000276
  18	1.6915e+00	0.6706	17.811843	0.000730	7.296069	2.471975	0.000292
  19	1.7910e+00	0.7075	18.062145	0.000628	6.282726	2.128645	0.000252
  20	1.8905e+00	0.7460	18.393190	0.000831	8.309412	2.815305	0.000333
  21	1.9900e+00	0.7748	18.663679	0.000679	6.789397	2.300310	0.000272
  22	2.0895e+00	0.8230	18.934167	0.000679	6.789397	2.300310	0.000272
  23	2.1890e+00	0.8631	19.208692	0.000689	6.890732	2.334643	0.000276
  24	2.2885e+00	0.9032	19.507440	0.000750	7.498737	2.540641	0.000300
  25	2.3880e+00	0.9449	19.810225	0.000760	7.600072	2.574974	0.000304
  26	2.4875e+00	0.9866	20.080713	0.000679	6.789397	2.300310	0.000272
  27	2.5870e+00	1.0267	20.387535	0.000770	7.701406	2.609307	0.000308
  28	2.6865e+00	1.0684	20.678209	0.000730	7.296069	2.471975	0.000292
  29	2.7860e+00	1.1037	20.944660	0.000669	6.688063	2.265977	0.000268
  30	2.8855e+00	1.1374	21.259557	0.000790	7.904075	2.677973	0.000316
  31	2.9850e+00	1.1903	21.562342	0.000760	7.600072	2.574974	0.000304
  32	3.0845e+00	1.2288	21.824756	0.000659	6.586729	2.231644	0.000264
  33	3.1840e+00	1.2625	22.159838	0.000841	8.410746	2.849638	0.000337
  34	3.2835e+00	1.3010	22.365732	0.000517	5.168049	1.750982	0.000207
  35	3.3830e+00	1.3395	22.729074	0.000912	9.120086	3.089969	0.000365
  36	3.4825e+00	1.3861	23.019748	0.000730	7.296069	2.471975	0.000292
  37	3.5820e+00	1.4246	23.290236	0.000679	6.789397	2.300310	0.000272
  38	3.6815e+00	1.4615	23.564761	0.000689	6.890732	2.334643	0.000276
  39	3.7810e+00	1.5016	23.895806	0.000831	8.309412	2.815305	0.000333
  40	3.8805e+00	1.5369	24.186480	0.000730	7.296069	2.471975	0.000292
  41	3.9800e+00	1.5721	24.465043	0.000699	6.992066	2.368976	0.000280
  42	4.0795e+00	1.6219	24.747642	0.000709	7.093400	2.403309	0.000284
  43	4.1790e+00	1.6620	25.018130	0.000679	6.789397	2.300310	0.000272
  44	4.2785e+00	1.6941	25.337064	0.000801	8.005409	2.712306	0.000321
  45	4.3780e+00	1.7326	25.647923	0.000780	7.802740	2.643640	0.000312
  46	4.4775e+00	1.7839	25.934560	0.000719	7.194735	2.437642	0.000288
  47	4.5770e+00	1.8112	26.241382	0.000770	7.701406	2.609307	0.000308
  48	4.6765e+00	1.8673	26.552242	0.000780	7.802740	2.643640	0.000312
  49	4.7760e+00	1.9042	26.875213	0.000811	8.106743	2.746639	0.000325
  50	4.8755e+00	1.9379	27.117441	0.000608	6.080057	2.059979	0.000243
  51	4.9750e+00	1.9716	27.408115	0.000730	7.296069	2.471975	0.000292
  52	5.0745e+00	2.0261	27.694751	0.000719	7.194735	2.437642	0.000288
  53	5.1740e+00	2.0582	28.029833	0.000841	8.410746	2.849638	0.000337
  54	5.2735e+00	2.0951	28.272062	0.000608	6.080057	2.059979	0.000243
  55	5.3730e+00	2.1336	28.590995	0.000801	8.005409	2.712306	0.000321
  56	5.4725e+00	2.1834	28.901855	0.000780	7.802740	2.643640	0.000312
  57	5.5720e+00	2.2170	29.216751	0.000790	7.904075	2.677973	0.000316
  58	5.6715e+00	2.2539	29.531648	0.000790	7.904075	2.677973	0.000316
  59	5.7710e+00	2.2989	29.814247	0.000709	7.093400	2.403309	0.000284
  60	5.8705e+00	2.3358	30.129144	0.000790	7.904075	2.677973	0.000316
  61	5.9700e+00	2.3759	30.415781	0.000719	7.194735	2.437642	0.000288
  62	6.0695e+00	2.4160	30.710492	0.000740	7.397403	2.506308	0.000296
  63	6.1690e+00	2.4545	31.021351	0.000780	7.802740	2.643640	0.000312
  64	6.2685e+00	2.4930	31.307988	0.000719	7.194735	2.437642	0.000288
  65	6.3680e+00	2.5427	31.598661	0.000730	7.296069	2.471975	0.000292
  66	6.4675e+00	2.5780	31.901447	0.000760	7.600072	2.574974	0.000304
  67	6.5670e+00	2.6181	32.204232	0.000760	7.600072	2.574974	0.000304
  68	6.6665e+00	2.6614	32.490868	0.000719	7.194735	2.437642	0.000288
  69	6.7660e+00	2.6967	32.825951	0.000841	8.410746	2.849638	0.000337
  70	6.8655e+00	2.7352	33.084327	0.000649	6.485395	2.197311	0.000260
  71	6.9650e+00	2.7785	33.399224	0.000790	7.904075	2.677973	0.000316
  72	7.0645e+00	2.8251	33.697972	0.000750	7.498737	2.540641	0.000300
  73	7.1640e+00	2.8523	33.996720	0.000750	7.498737	2.540641	0.000300
  74	7.2635e+00	2.8988	34.323728	0.000821	8.208078	2.780972	0.000329
  75	7.3630e+00	2.9293	34.606328	0.000709	7.093400	2.403309	0.000284
  76	7.4625e+00	2.9759	34.913150	0.000770	7.701406	2.609307	0.000308
  77	7.5620e+00	3.0176	35.171527	0.000649	6.485395	2.197311	0.000260
  78	7.6615e+00	3.0529	35.522757	0.000882	8.816083	2.986970	0.000353
  79	7.7610e+00	3.0914	35.829580	0.000770	7.701406	2.609307	0.000308
  80	7.8605e+00	3.1347	36.148513	0.000801	8.005409	2.712306	0.000321
  81	7.9600e+00	3.1764	36.414964	0.000669	6.688063	2.265977	0.000268
  82	8.0595e+00	3.2149	36.665267	0.000628	6.282726	2.128645	0.000252
  83	8.1590e+00	3.2502	37.077055	0.001034	10.336098	3.501965	0.000414
  84	8.2585e+00	3.2967	37.339468	0.000659	6.586729	2.231644	0.000264
  85	8.3580e+00	3.3320	37.622068	0.000709	7.093400	2.403309	0.000284
  86	8.4575e+00	3.3769	37.900630	0.000699	6.992066	2.368976	0.000280
  87	8.5570e+00	3.4122	38.243787	0.000861	8.613415	2.918304	0.000345
  88	8.6565e+00	3.4523	38.538498	0.000740	7.397403	2.506308	0.000296
  89	8.7560e+00	3.4988	38.825134	0.000719	7.194735	2.437642	0.000288
  90	8.8555e+00	3.5277	39.152142	0.000821	8.208078	2.780972	0.000329
  91	8.9550e+00	3.5790	39.458965	0.000770	7.701406	2.609307	0.000308
  92	9.0545e+00	3.6079	39.757713	0.000750	7.498737	2.540641	0.000300
  93	9.1540e+00	3.6560	40.068572	0.000780	7.802740	2.643640	0.000312
  94	9.2535e+00	3.6994	40.367320	0.000750	7.498737	2.540641	0.000300
  95	9.3530e+00	3.7395	40.645883	0.000699	6.992066	2.368976	0.000280
  96	9.4525e+00	3.7667	40.948668	0.000760	7.600072	2.574974	0.000304
  97	9.5520e+00	3.8084	41.279713	0.000831	8.309412	2.815305	0.000333
  98	9.6515e+00	3.8534	41.546164	0.000669	6.688063	2.265977	0.000268
  99	9.7510e+00	3.8935	41.832801	0.000719	7.194735	2.437642	0.000288
 100	9.8505e+00	3.9304	42.151734	0.000801	8.005409	2.712306	0.000321
 101	9.9500e+00	3.9785	42.458557	0.000770	7.701406	2.609307	0.000308
 102	1.0050e+01	4.0154	42.777490	0.000801	8.005409	2.712306	0.000321
 103	1.0149e+01	4.0491	43.064127	0.000719	7.194735	2.437642	0.000288
 104	1.0248e+01	4.0876	43.350764	0.000719	7.194735	2.437642	0.000288
 105	1.0348e+01	4.1277	43.649512	0.000750	7.498737	2.540641	0.000300
 106	1.0447e+01	4.1694	43.960371	0.000780	7.802740	2.643640	0.000312
 107	1.0547e+01	4.2015	44.259119	0.000750	7.498737	2.540641	0.000300
 108	1.0646e+01	4.2496	44.574016	0.000790	7.904075	2.677973	0.000316
 109	1.0746e+01	4.2849	44.921209	0.000871	8.714749	2.952637	0.000349
 110	1.0845e+01	4.3411	45.147289	0.000567	5.674720	1.922647	0.000227
 111	1.0945e+01	4.3587	45.490445	0.000861	8.613415	2.918304	0.000345
 112	1.1044e+01	4.4068	45.797268	0.000770	7.701406	2.609307	0.000308
 113	1.1144e+01	4.4453	46.108127	0.000780	7.802740	2.643640	0.000312
 114	1.1243e+01	4.4854	46.447247	0.000851	8.512080	2.883971	0.000341
 115	1.1343e+01	4.5320	46.705623	0.000649	6.485395	2.197311	0.000260
 116	1.1443e+01	4.5705	46.988223	0.000709	7.093400	2.403309	0.000284
 117	1.1542e+01	4.6025	47.278897	0.000730	7.296069	2.471975	0.000292
 118	1.1642e+01	4.6443	47.630127	0.000882	8.816083	2.986970	0.000353
 119	1.1741e+01	4.6844	47.904653	0.000689	6.890732	2.334643	0.000276
 120	1.1841e+01	4.7277	48.195326	0.000730	7.296069	2.471975	0.000292
 121	1.1940e+01	4.7630	48.510223	0.000790	7.904075	2.677973	0.000316
 122	1.2040e+01	4.8143	48.768600	0.000649	6.485395	2.197311	0.000260
 123	1.2139e+01	4.8448	49.119831	0.000882	8.816083	2.986970	0.000353
 124	1.2239e+01	4.8881	49.418579	0.000750	7.498737	2.540641	0.000300
 125	1.2338e+01	4.9282	49.697141	0.000699	6.992066	2.368976	0.000280
 126	1.2438e+01	4.9715	50.048372	0.000882	8.816083	2.986970	0.000353
 127	1.2537e+01	5.0116	50.298674	0.000628	6.282726	2.128645	0.000252
 128	1.2636e+01	5.0581	50.666054	0.000922	9.221420	3.124302	0.000369
 129	1.2736e+01	5.0934	50.924430	0.000649	6.485395	2.197311	0.000260
 130	1.2835e+01	5.1207	51.215104	0.000730	7.296069	2.471975	0.000292
 131	1.2935e+01	5.1656	51.542112	0.000821	8.208078	2.780972	0.000329
 132	1.3034e+01	5.2089	51.857009	0.000790	7.904075	2.677973	0.000316
 133	1.3134e+01	5.2458	52.115385	0.000649	6.485395	2.197311	0.000260
 134	1.3233e+01	5.2908	52.418170	0.000760	7.600072	2.574974	0.000304
 135	1.3333e+01	5.3357	52.753253	0.000841	8.410746	2.849638	0.000337
 136	1.3432e+01	5.3662	53.056038	0.000760	7.600072	2.574974	0.000304
 137	1.3532e+01	5.4111	53.379009	0.000811	8.106743	2.746639	0.000325
 138	1.3632e+01	5.4400	53.653534	0.000689	6.890732	2.334643	0.000276
 139	1.3731e+01	5.4897	53.956319	0.000760	7.600072	2.574974	0.000304
 140	1.3831e+01	5.5186	54.226807	0.000679	6.789397	2.300310	0.000272
 141	1.3930e+01	5.5715	54.565927	0.000851	8.512080	2.883971	0.000341
 142	1.4030e+01	5.6036	54.876786	0.000780	7.802740	2.643640	0.000312
 143	1.4129e+01	5.6469	55.155348	0.000699	6.992066	2.368976	0.000280
 144	1.4229e+01	5.6822	55.474282	0.000801	8.005409	2.712306	0.000321
 145	1.4328e+01	5.7271	55.805327	0.000831	8.309412	2.815305	0.000333
 146	1.4428e+01	5.7672	56.075815	0.000679	6.789397	2.300310	0.000272
 147	1.4527e+01	5.8057	56.378601	0.000760	7.600072	2.574974	0.000304
 148	1.4627e+01	5.8474	56.661200	0.000709	7.093400	2.403309	0.000284
 149	1.4726e+01	5.8940	56.980134	0.000801	8.005409	2.712306	0.000321
 150	1.4825e+01	5.9228	57.295030	0.000790	7.904075	2.677973	0.000316
 151	1.4925e+01	5.9565	57.601853	0.000770	7.701406	2.609307	0.000308
 152	1.5024e+01	6.0030	57.880415	0.000699	6.992066	2.368976	0.000280
 153	1.5124e+01	6.0464	58.179163	0.000750	7.498737	2.540641	0.000300
 154	1.5223e+01	6.0849	58.506171	0.000821	8.208078	2.780972	0.000329
 155	1.5323e+01	6.1266	58.796845	0.000730	7.296069	2.471975	0.000292
 156	1.5422e+01	6.1586	59.103667	0.000770	7.701406	2.609307	0.000308
 157	1.5522e+01	6.2068	59.390304	0.000719	7.194735	2.437642	0.000288
 158	1.5621e+01	6.2389	59.709238	0.000801	8.005409	2.712306	0.000321
 159	1.5721e+01	6.2902	59.999911	0.000730	7.296069	2.471975	0.000292
 160	1.5820e+01	6.3255	60.318845	0.000801	8.005409	2.712306	0.000321
 161	1.5920e+01	6.3608	60.593370	0.000689	6.890732	2.334643	0.000276
 162	1.6020e+01	6.3977	60.880007	0.000719	7.194735	2.437642	0.000288
 163	1.6119e+01	6.4346	61.227201	0.000871	8.714749	2.952637	0.000349
 164	1.6218e+01	6.4875	61.501726	0.000689	6.890732	2.334643	0.000276
 165	1.6318e+01	6.5196	61.792400	0.000730	7.296069	2.471975	0.000292
 166	1.6418e+01	6.5629	62.099222	0.000770	7.701406	2.609307	0.000308
 167	1.6517e+01	6.6062	62.434304	0.000841	8.410746	2.849638	0.000337
 168	1.6616e+01	6.6479	62.716904	0.000709	7.093400	2.403309	0.000284
 169	1.6716e+01	6.6704	63.011615	0.000740	7.397403	2.506308	0.000296
 170	1.6816e+01	6.7169	63.334585	0.000811	8.106743	2.746639	0.000325
 171	1.6915e+01	6.7570	63.584888	0.000628	6.282726	2.128645	0.000252
 172	1.7015e+01	6.7939	63.928044	0.000861	8.613415	2.918304	0.000345
 173	1.7114e+01	6.8356	64.194495	0.000669	6.688063	2.265977	0.000268
 174	1.7213e+01	6.8854	64.525541	0.000831	8.309412	2.815305	0.000333
 175	1.7313e+01	6.9207	64.828326	0.000760	7.600072	2.574974	0.000304
 176	1.7413e+01	6.9592	65.114962	0.000719	7.194735	2.437642	0.000288
 177	1.7512e+01	7.0041	65.425822	0.000780	7.802740	2.643640	0.000312
 178	1.7611e+01	7.0394	65.720533	0.000740	7.397403	2.506308	0.000296
 179	1.7711e+01	7.0699	66.023318	0.000760	7.600072	2.574974	0.000304
 180	1.7811e+01	7.1244	66.346289	0.000811	8.106743	2.746639	0.000325
 181	1.7910e+01	7.1565	66.632925	0.000719	7.194735	2.437642	0.000288
 182	1.8009e+01	7.1870	66.895339	0.000659	6.586729	2.231644	0.000264
 183	1.8109e+01	7.2399	67.242533	0.000871	8.714749	2.952637	0.000349
 184	1.8209e+01	7.2816	67.541281	0.000750	7.498737	2.540641	0.000300
 185	1.8308e+01	7.3233	67.840029	0.000750	7.498737	2.540641	0.000300
 186	1.8407e+01	7.3554	68.110517	0.000679	6.789397	2.300310	0.000272
 187	1.8507e+01	7.3987	68.457711	0.000871	8.714749	2.952637	0.000349
 188	1.8607e+01	7.4324	68.748384	0.000730	7.296069	2.471975	0.000292
 189	1.8706e+01	7.4821	69.055207	0.000770	7.701406	2.609307	0.000308
 190	1.8805e+01	7.5142	69.329732	0.000689	6.890732	2.334643	0.000276
 191	1.8905e+01	7.5511	69.608294	0.000699	6.992066	2.368976	0.000280
 192	1.9005e+01	7.5944	69.931265	0.000811	8.106743	2.746639	0.000325
 193	1.9104e+01	7.6410	70.250199	0.000801	8.005409	2.712306	0.000321
 194	1.9203e+01	7.6859	70.504539	0.000638	6.384060	2.162978	0.000256
 195	1.9303e+01	7.7196	70.847695	0.000861	8.613415	2.918304	0.000345
 196	1.9402e+01	7.7533	71.142406	0.000740	7.397403	2.506308	0.000296
 197	1.9502e+01	7.7998	71.469414	0.000821	8.208078	2.780972	0.000329
 198	1.9602e+01	7.8335	71.735865	0.000669	6.688063	2.265977	0.000268
 199	1.9701e+01	7.8928	72.026539	0.000730	7.296069	2.471975	0.000292
 200	1.9800e+01	7.9153	72.345472	0.000801	8.005409	2.712306	0.000321
 201	1.9900e+01	7.9586	72.624035	0.000699	6.992066	2.368976	0.000280
 202	2.0000e+01	7.9955	72.902597	0.000699	6.992066	2.368976	0.000280
 203	2.0099e+01	8.0324	73.221531	0.000801	8.005409	2.712306	0.000321
 204	2.0198e+01	8.0757	73.520279	0.000750	7.498737	2.540641	0.000300
 205	2.0298e+01	8.1110	73.819027	0.000750	7.498737	2.540641	0.000300
 206	2.0398e+01	8.1479	74.101626	0.000709	7.093400	2.403309	0.000284
 207	2.0497e+01	8.1960	74.420560	0.000801	8.005409	2.712306	0.000321
 208	2.0596e+01	8.2265	74.699123	0.000699	6.992066	2.368976	0.000280
 209	2.0696e+01	8.2762	74.993833	0.000740	7.397403	2.506308	0.000296
 210	2.0796e+01	8.3196	75.288544	0.000740	7.397403	2.506308	0.000296
 211	2.0895e+01	8.3581	75.591330	0.000760	7.600072	2.574974	0.000304
 212	2.0994e+01	8.3950	75.914300	0.000811	8.106743	2.746639	0.000325
 213	2.1094e+01	8.4383	76.196900	0.000709	7.093400	2.403309	0.000284
 214	2.1194e+01	8.4736	76.495648	0.000750	7.498737	2.540641	0.000300
 215	2.1293e+01	8.5185	76.806507	0.000780	7.802740	2.643640	0.000312
 216	2.1392e+01	8.5474	77.105255	0.000750	7.498737	2.540641	0.000300
 217	2.1492e+01	8.5891	77.371706	0.000669	6.688063	2.265977	0.000268
 218	2.1591e+01	8.6388	77.654306	0.000709	7.093400	2.403309	0.000284
 219	2.1691e+01	8.6757	77.953054	0.000750	7.498737	2.540641	0.000300
 220	2.1791e+01	8.7190	78.276025	0.000811	8.106743	2.746639	0.000325
 221	2.1890e+01	8.7527	78.538439	0.000659	6.586729	2.231644	0.000264
 222	2.1989e+01	8.7896	78.825075	0.000719	7.194735	2.437642	0.000288
 223	2.2089e+01	8.8313	79.115749	0.000730	7.296069	2.471975	0.000292
 224	2.2189e+01	8.8746	79.422571	0.000770	7.701406	2.609307	0.000308
 225	2.2288e+01	8.9083	79.729394	0.000770	7.701406	2.609307	0.000308
 226	2.2387e+01	8.9452	79.991808	0.000659	6.586729	2.231644	0.000264
 227	2.2487e+01	8.9949	80.274407	0.000709	7.093400	2.403309	0.000284
 228	2.2587e+01	9.0286	80.605452	0.000831	8.309412	2.815305	0.000333
 229	2.2686e+01	9.0719	80.867866	0.000659	6.586729	2.231644	0.000264
 230	2.2785e+01	9.1104	81.178725	0.000780	7.802740	2.643640	0.000312
 231	2.2885e+01	9.1489	81.437102	0.000649	6.485395	2.197311	0.000260
 232	2.2985e+01	9.1971	81.764110	0.000821	8.208078	2.780972	0.000329
 233	2.3084e+01	9.2308	82.042672	0.000699	6.992066	2.368976	0.000280
 234	2.3183e+01	9.2725	82.333346	0.000730	7.296069	2.471975	0.000292
 235	2.3283e+01	9.3110	82.603834	0.000679	6.789397	2.300310	0.000272
 236	2.3383e+01	9.3543	82.898545	0.000740	7.397403	2.506308	0.000296
 237	2.3482e+01	9.3928	83.189219	0.000730	7.296069	2.471975	0.000292
 238	2.3581e+01	9.4329	83.496041	0.000770	7.701406	2.609307	0.000308
 239	2.3681e+01	9.4714	83.746344	0.000628	6.282726	2.128645	0.000252
 240	2.3780e+01	9.5163	84.020869	0.000689	6.890732	2.334643	0.000276
 241	2.3880e+01	9.5468	84.315580	0.000740	7.397403	2.506308	0.000296
 242	2.3980e+01	9.5949	84.594142	0.000699	6.992066	2.368976	0.000280
 243	2.4079e+01	9.6382	84.921150	0.000821	8.208078	2.780972	0.000329
 244	2.4178e+01	9.6671	85.151267	0.000578	5.776055	1.956980	0.000231
 245	2.4278e+01	9.7088	85.445978	0.000740	7.397403	2.506308	0.000296
 246	2.4378e+01	9.7537	85.732615	0.000719	7.194735	2.437642	0.000288
 247	2.4477e+01	9.7906	86.031363	0.000750	7.498737	2.540641	0.000300
 248	2.4576e+01	9.8339	86.301851	0.000679	6.789397	2.300310	0.000272
 249	2.4676e+01	9.8644	86.568302	0.000669	6.688063	2.265977	0.000268
 250	2.4776e+01	9.9045	86.850901	0.000709	7.093400	2.403309	0.000284
 251	2.4875e+01	9.9495	87.157723	0.000770	7.701406	2.609307	0.000308
 252	2.4974e+01	9.9831	87.428212	0.000679	6.789397	2.300310	0.000272
 253	2.5074e+01	10.0281	87.735034	0.000770	7.701406	2.609307	0.000308
 254	2.5174e+01	10.0617	87.985336	0.000628	6.282726	2.128645	0.000252
 255	2.5273e+01	10.1002	88.320419	0.000841	8.410746	2.849638	0.000337
 256	2.5372e+01	10.1420	88.554572	0.000588	5.877389	1.991313	0.000235
 257	2.5472e+01	10.1901	88.865432	0.000780	7.802740	2.643640	0.000312
 258	2.5572e+01	10.2222	89.127846	0.000659	6.586729	2.231644	0.000264
 259	2.5671e+01	10.2719	89.442742	0.000790	7.904075	2.677973	0.000316
 260	2.5770e+01	10.3184	89.729379	0.000719	7.194735	2.437642	0.000288
 261	2.5870e+01	10.3441	89.999867	0.000679	6.789397	2.300310	0.000272
 262	2.5970e+01	10.3890	90.258244	0.000649	6.485395	2.197311	0.000260
 263	2.6069e+01	10.4307	90.520658	0.000659	6.586729	2.231644	0.000264
 264	2.6169e+01	10.4692	90.807294	0.000719	7.194735	2.437642	0.000288
 265	2.6268e+01	10.5045	91.114116	0.000770	7.701406	2.609307	0.000308
 266	2.6367e+01	10.5510	91.396716	0.000709	7.093400	2.403309	0.000284
 267	2.6467e+01	10.5863	91.663167	0.000669	6.688063	2.265977	0.000268
 268	2.6567e+01	10.6184	91.949804	0.000719	7.194735	2.437642	0.000288
 269	2.6666e+01	10.6714	92.212217	0.000659	6.586729	2.231644	0.000264
 270	2.6765e+01	10.7002	92.502891	0.000730	7.296069	2.471975	0.000292
 271	2.6865e+01	10.7387	92.745119	0.000608	6.080057	2.059979	0.000243
 272	2.6965e+01	10.7901	93.027719	0.000709	7.093400	2.403309	0.000284
 273	2.7064e+01	10.8270	93.334541	0.000770	7.701406	2.609307	0.000308
 274	2.7163e+01	10.8671	93.633289	0.000750	7.498737	2.540641	0.000300
 275	2.7263e+01	10.9072	93.867443	0.000588	5.877389	1.991313	0.000235
 276	2.7363e+01	10.9457	94.146005	0.000699	6.992066	2.368976	0.000280
 277	2.7462e+01	10.9842	94.368048	0.000557	5.573386	1.888314	0.000223
 278	2.7561e+01	11.0291	94.707167	0.000851	8.512080	2.883971	0.000341
 279	2.7661e+01	11.0676	94.981693	0.000689	6.890732	2.334643	0.000276
 280	2.7761e+01	11.1077	95.256218	0.000689	6.890732	2.334643	0.000276
 281	2.7860e+01	11.1462	95.510557	0.000638	6.384060	2.162978	0.000256
 282	2.7959e+01	11.1927	95.781045	0.000679	6.789397	2.300310	0.000272
 283	2.8059e+01	11.2232	96.055571	0.000689	6.890732	2.334643	0.000276
 284	2.8159e+01	11.2617	96.354319	0.000750	7.498737	2.540641	0.000300
 285	2.8258e+01	11.3082	96.612695	0.000649	6.485395	2.197311	0.000260
 286	2.8358e+01	11.3451	96.907406	0.000740	7.397403	2.506308	0.000296
 287	2.8457e+01	11.3852	97.157709	0.000628	6.282726	2.128645	0.000252
 288	2.8556e+01	11.4253	97.412048	0.000638	6.384060	2.162978	0.000256
 289	2.8656e+01	11.4590	97.686573	0.000689	6.890732	2.334643	0.000276
 290	2.8756e+01	11.5072	98.005507	0.000801	8.005409	2.712306	0.000321
 291	2.8855e+01	11.5457	98.259847	0.000638	6.384060	2.162978	0.000256
 292	2.8954e+01	11.5890	98.502075	0.000608	6.080057	2.059979	0.000243
 293	2.9054e+01	11.6211	98.804860	0.000760	7.600072	2.574974	0.000304
 294	2.9154e+01	11.6612	99.079385	0.000689	6.890732	2.334643	0.000276
 295	2.9253e+01	11.7109	99.398319	0.000801	8.005409	2.712306	0.000321
 296	2.9352e+01	11.7478	99.600176	0.000507	5.066715	1.716649	0.000203
 297	2.9452e+01	11.7847	99.927184	0.000821	8.208078	2.780972	0.000329
 298	2.9552e+01	11.8200	100.165375	0.000598	5.978723	2.025646	0.000239
 299	2.9651e+01	11.8681	100.435863	0.000679	6.789397	2.300310	0.000272
 300	2.9750e+01	11.9002	100.710388	0.000689	6.890732	2.334643	0.000276
 301	2.9850e+01	11.9467	100.984913	0.000689	6.890732	2.334643	0.000276
 302	2.9950e+01	11.9708	101.231179	0.000618	6.181392	2.094312	0.000248
 303	3.0049e+01	12.0205	101.501667	0.000679	6.789397	2.300310	0.000272
 304	3.0148e+01	12.0638	101.796378	0.000740	7.397403	2.506308	0.000296
 305	3.0248e+01	12.0927	102.018420	0.000557	5.573386	1.888314	0.000223
 306	3.0348e+01	12.1473	102.337354	0.000801	8.005409	2.712306	0.000321
 307	3.0447e+01	12.1809	102.619953	0.000709	7.093400	2.403309	0.000284
 308	3.0547e+01	12.2243	102.862181	0.000608	6.080057	2.059979	0.000243
 309	3.0646e+01	12.2628	103.136707	0.000689	6.890732	2.334643	0.000276
 310	3.0745e+01	12.3029	103.374898	0.000598	5.978723	2.025646	0.000239
 311	3.0845e+01	12.3333	103.677683	0.000760	7.600072	2.574974	0.000304
 312	3.0945e+01	12.3943	104.008728	0.000831	8.309412	2.815305	0.000333
 313	3.1044e+01	12.4152	104.254993	0.000618	6.181392	2.094312	0.000248
 314	3.1143e+01	12.4601	104.456850	0.000507	5.066715	1.716649	0.000203
 315	3.1243e+01	12.5002	104.739450	0.000709	7.093400	2.403309	0.000284
 316	3.1343e+01	12.5435	105.009938	0.000679	6.789397	2.300310	0.000272
 317	3.1442e+01	12.5868	105.304649	0.000740	7.397403	2.506308	0.000296
 318	3.1541e+01	12.6205	105.575137	0.000679	6.789397	2.300310	0.000272
 319	3.1641e+01	12.6574	105.801216	0.000567	5.674720	1.922647	0.000227
 320	3.1741e+01	12.6991	106.079779	0.000699	6.992066	2.368976	0.000280
 321	3.1840e+01	12.7296	106.402750	0.000811	8.106743	2.746639	0.000325
 322	3.1939e+01	12.7825	106.677275	0.000689	6.890732	2.334643	0.000276
 323	3.2039e+01	12.8162	106.919503	0.000608	6.080057	2.059979	0.000243
 324	3.2139e+01	12.8627	107.181917	0.000659	6.586729	2.231644	0.000264
 325	3.2238e+01	12.9044	107.464516	0.000709	7.093400	2.403309	0.000284
 326	3.2337e+01	12.9301	107.706744	0.000608	6.080057	2.059979	0.000243
 327	3.2437e+01	12.9702	107.961084	0.000638	6.384060	2.162978	0.000256
 328	3.2536e+01	13.0135	108.255795	0.000740	7.397403	2.506308	0.000296
 329	3.2636e+01	13.0520	108.510134	0.000638	6.384060	2.162978	0.000256
 330	3.2736e+01	13.0921	108.744288	0.000588	5.877389	1.991313	0.000235
 331	3.2835e+01	13.1403	109.026888	0.000709	7.093400	2.403309	0.000284
 332	3.2934e+01	13.1756	109.301413	0.000689	6.890732	2.334643	0.000276
 333	3.3034e+01	13.2189	109.579975	0.000699	6.992066	2.368976	0.000280
 334	3.3133e+01	13.2542	109.842389	0.000659	6.586729	2.231644	0.000264
 335	3.3233e+01	13.2895	110.120952	0.000699	6.992066	2.368976	0.000280
 336	3.3333e+01	13.3456	110.383365	0.000659	6.586729	2.231644	0.000264
 337	3.3432e+01	13.3761	110.629631	0.000618	6.181392	2.094312	0.000248
 338	3.3532e+01	13.4146	110.908193	0.000699	6.992066	2.368976	0.000280
 339	3.3631e+01	13.4499	111.178681	0.000679	6.789397	2.300310	0.000272
 340	3.3730e+01	13.4916	111.412835	0.000588	5.877389	1.991313	0.000235
 341	3.3830e+01	13.5413	111.707546	0.000740	7.397403	2.506308	0.000296
 342	3.3929e+01	13.5670	111.982071	0.000689	6.890732	2.334643	0.000276
 343	3.4029e+01	13.6119	112.248522	0.000669	6.688063	2.265977	0.000268
 344	3.4129e+01	13.6472	112.498824	0.000628	6.282726	2.128645	0.000252
 345	3.4228e+01	13.7018	112.761238	0.000659	6.586729	2.231644	0.000264
 346	3.4328e+01	13.7322	113.035764	0.000689	6.890732	2.334643	0.000276
 347	3.4427e+01	13.7723	113.330474	0.000740	7.397403	2.506308	0.000296
 348	3.4526e+01	13.8140	113.568665	0.000598	5.978723	2.025646	0.000239
 349	3.4626e+01	13.8413	113.810894	0.000608	6.080057	2.059979	0.000243
 350	3.4725e+01	13.8927	114.073307	0.000659	6.586729	2.231644	0.000264
 351	3.4825e+01	13.9247	114.376093	0.000760	7.600072	2.574974	0.000304
 352	3.4925e+01	13.9713	114.654655	0.000699	6.992066	2.368976	0.000280
 353	3.5024e+01	14.0130	114.884772	0.000578	5.776055	1.956980	0.000231
 354	3.5123e+01	14.0467	115.139111	0.000638	6.384060	2.162978	0.000256
 355	3.5223e+01	14.0900	115.437859	0.000750	7.498737	2.540641	0.000300
 356	3.5322e+01	14.1365	115.728533	0.000730	7.296069	2.471975	0.000292
 357	3.5422e+01	14.1750	115.982873	0.000638	6.384060	2.162978	0.000256
 358	3.5522e+01	14.2087	116.212989	0.000578	5.776055	1.956980	0.000231
 359	3.5621e+01	14.2408	116.471366	0.000649	6.485395	2.197311	0.000260
 360	3.5721e+01	14.2825	116.725706	0.000638	6.384060	2.162978	0.000256
 361	3.5820e+01	14.3322	117.020417	0.000740	7.397403	2.506308	0.000296
 362	3.5919e+01	14.3627	117.250533	0.000578	5.776055	1.956980	0.000231
 363	3.6019e+01	14.4076	117.565430	0.000790	7.904075	2.677973	0.000316
 364	3.6118e+01	14.4525	117.819769	0.000638	6.384060	2.162978	0.000256
 365	3.6218e+01	14.4846	118.090257	0.000679	6.789397	2.300310	0.000272
 366	3.6318e+01	14.5376	118.348634	0.000649	6.485395	2.197311	0.000260
 367	3.6417e+01	14.5648	118.570677	0.000557	5.573386	1.888314	0.000223
 368	3.6517e+01	14.6097	118.869425	0.000750	7.498737	2.540641	0.000300
 369	3.6616e+01	14.6418	119.099541	0.000578	5.776055	1.956980	0.000231
 370	3.6715e+01	14.6916	119.374067	0.000689	6.890732	2.334643	0.000276
 371	3.6815e+01	14.7253	119.668778	0.000740	7.397403	2.506308	0.000296
 372	3.6914e+01	14.7718	119.911006	0.000608	6.080057	2.059979	0.000243
 373	3.7014e+01	14.7990	120.185531	0.000689	6.890732	2.334643	0.000276
 374	3.7114e+01	14.8440	120.395462	0.000527	5.269383	1.785315	0.000211
 375	3.7213e+01	14.8857	120.678061	0.000709	7.093400	2.403309	0.000284
 376	3.7313e+01	14.9242	120.960661	0.000709	7.093400	2.403309	0.000284
 377	3.7412e+01	14.9723	121.178666	0.000547	5.472052	1.853981	0.000219
 378	3.7511e+01	15.0060	121.441080	0.000659	6.586729	2.231644	0.000264
 379	3.7611e+01	15.0413	121.735791	0.000740	7.397403	2.506308	0.000296
 380	3.7711e+01	15.0894	122.030502	0.000740	7.397403	2.506308	0.000296
 381	3.7810e+01	15.1311	122.248507	0.000547	5.472052	1.853981	0.000219
 382	3.7910e+01	15.1664	122.506884	0.000649	6.485395	2.197311	0.000260
 383	3.8009e+01	15.2097	122.789483	0.000709	7.093400	2.403309	0.000284
 384	3.8108e+01	15.2482	123.003452	0.000537	5.370717	1.819648	0.000215
 385	3.8208e+01	15.2883	123.265865	0.000659	6.586729	2.231644	0.000264
 386	3.8307e+01	15.3284	123.536354	0.000679	6.789397	2.300310	0.000272
 387	3.8407e+01	15.3702	123.778582	0.000608	6.080057	2.059979	0.000243
 388	3.8507e+01	15.4006	124.045033	0.000669	6.688063	2.265977	0.000268
 389	3.8606e+01	15.4375	124.295335	0.000628	6.282726	2.128645	0.000252
 390	3.8706e+01	15.4873	124.525452	0.000578	5.776055	1.956980	0.000231
 391	3.8805e+01	15.5258	124.848423	0.000811	8.106743	2.746639	0.000325
 392	3.8904e+01	15.5643	125.074502	0.000567	5.674720	1.922647	0.000227
 393	3.9004e+01	15.6076	125.308656	0.000588	5.877389	1.991313	0.000235
 394	3.9103e+01	15.6573	125.558959	0.000628	6.282726	2.128645	0.000252
 395	3.9203e+01	15.6862	125.873855	0.000790	7.904075	2.677973	0.000316
 396	3.9303e+01	15.7343	126.075712	0.000507	5.066715	1.716649	0.000203
 397	3.9402e+01	15.7600	126.342163	0.000669	6.688063	2.265977	0.000268
 398	3.9502e+01	15.7969	126.596502	0.000638	6.384060	2.162978	0.000256
 399	3.9601e+01	15.8530	126.842768	0.000618	6.181392	2.094312	0.000248
 400	3.9700e+01	15.8787	127.052699	0.000527	5.269383	1.785315	0.000211
 401	3.9800e+01	15.9204	127.331261	0.000699	6.992066	2.368976	0.000280
 402	3.9900e+01	15.9653	127.589638	0.000649	6.485395	2.197311	0.000260
 403	3.9999e+01	16.0038	127.860126	0.000679	6.789397	2.300310	0.000272
 404	4.0099e+01	16.0455	128.082168	0.000557	5.573386	1.888314	0.000223
 405	4.0198e+01	16.0905	128.320359	0.000598	5.978723	2.025646	0.000239
 406	4.0297e+01	16.1274	128.590848	0.000679	6.789397	2.300310	0.000272
 407	4.0397e+01	16.1626	128.837113	0.000618	6.181392	2.094312	0.000248
 408	4.0496e+01	16.2108	129.079341	0.000608	6.080057	2.059979	0.000243
 409	4.0596e+01	16.2541	129.321569	0.000608	6.080057	2.059979	0.000243
 410	4.0696e+01	16.2782	129.579946	0.000649	6.485395	2.197311	0.000260
 411	4.0795e+01	16.3167	129.822174	0.000608	6.080057	2.059979	0.000243
 412	4.0895e+01	16.3568	130.048254	0.000567	5.674720	1.922647	0.000227
 413	4.0994e+01	16.4033	130.318742	0.000679	6.789397	2.300310	0.000272
 414	4.1093e+01	16.4514	130.589230	0.000679	6.789397	2.300310	0.000272
 415	4.1193e+01	16.4819	130.819346	0.000578	5.776055	1.956980	0.000231
 416	4.1292e+01	16.5236	131.061575	0.000608	6.080057	2.059979	0.000243
 417	4.1392e+01	16.5717	131.307840	0.000618	6.181392	2.094312	0.000248
 418	4.1492e+01	16.6070	131.586402	0.000699	6.992066	2.368976	0.000280
 419	4.1591e+01	16.6391	131.796333	0.000527	5.269383	1.785315	0.000211
 420	4.1691e+01	16.6824	132.042599	0.000618	6.181392	2.094312	0.000248
 421	4.1790e+01	16.7177	132.288864	0.000618	6.181392	2.094312	0.000248
 422	4.1889e+01	16.7642	132.539166	0.000628	6.282726	2.128645	0.000252
 423	4.1989e+01	16.8027	132.781394	0.000608	6.080057	2.059979	0.000243
 424	4.2089e+01	16.8380	133.007474	0.000567	5.674720	1.922647	0.000227
 425	4.2188e+01	16.8765	133.298148	0.000730	7.296069	2.471975	0.000292
 426	4.2288e+01	16.9231	133.548450	0.000628	6.282726	2.128645	0.000252
 427	4.2387e+01	16.9535	133.778567	0.000578	5.776055	1.956980	0.000231
 428	4.2486e+01	16.9904	134.036944	0.000649	6.485395	2.197311	0.000260
 429	4.2586e+01	17.0273	134.258986	0.000557	5.573386	1.888314	0.000223
 430	4.2685e+01	17.0690	134.497177	0.000598	5.978723	2.025646	0.000239
 431	4.2785e+01	17.1188	134.755554	0.000649	6.485395	2.197311	0.000260
 432	4.2885e+01	17.1605	134.965485	0.000527	5.269383	1.785315	0.000211
 433	4.2984e+01	17.1990	135.215787	0.000628	6.282726	2.128645	0.000252
 434	4.3084e+01	17.2391	135.462053	0.000618	6.181392	2.094312	0.000248
 435	4.3183e+01	17.2808	135.696206	0.000588	5.877389	1.991313	0.000235
 436	4.3282e+01	17.3177	135.958620	0.000659	6.586729	2.231644	0.000264
 437	4.3382e+01	17.3514	136.180663	0.000557	5.573386	1.888314	0.000223
 438	4.3481e+01	17.3979	136.455188	0.000689	6.890732	2.334643	0.000276
 439	4.3581e+01	17.4380	136.673193	0.000547	5.472052	1.853981	0.000219
 440	4.3681e+01	17.4765	136.899273	0.000567	5.674720	1.922647	0.000227
 441	4.3780e+01	17.5230	137.149575	0.000628	6.282726	2.128645	0.000252
 442	4.3880e+01	17.5680	137.403915	0.000638	6.384060	2.162978	0.000256
 443	4.3979e+01	17.6000	137.654217	0.000628	6.282726	2.128645	0.000252
 444	4.4078e+01	17.6401	137.880297	0.000567	5.674720	1.922647	0.000227
 445	4.4178e+01	17.6722	138.094265	0.000537	5.370717	1.819648	0.000215
 446	4.4278e+01	17.7155	138.368790	0.000689	6.890732	2.334643	0.000276
 447	4.4377e+01	17.7589	138.590833	0.000557	5.573386	1.888314	0.000223
 448	4.4477e+01	17.7974	138.800764	0.000527	5.269383	1.785315	0.000211
 449	4.4576e+01	17.8359	139.042992	0.000608	6.080057	2.059979	0.000243
 450	4.4675e+01	17.8792	139.293294	0.000628	6.282726	2.128645	0.000252
 451	4.4775e+01	17.9209	139.523411	0.000578	5.776055	1.956980	0.000231
 452	4.4874e+01	17.9562	139.769676	0.000618	6.181392	2.094312	0.000248
 453	4.4974e+01	18.0011	140.011905	0.000608	6.080057	2.059979	0.000243
 454	4.5074e+01	18.0380	140.233947	0.000557	5.573386	1.888314	0.000223
 455	4.5173e+01	18.0845	140.484249	0.000628	6.282726	2.128645	0.000252
 456	4.5273e+01	18.1086	140.710329	0.000567	5.674720	1.922647	0.000227
 457	4.5372e+01	18.1583	140.956594	0.000618	6.181392	2.094312	0.000248
 458	4.5471e+01	18.1968	141.182674	0.000567	5.674720	1.922647	0.000227
 459	4.5571e+01	18.2305	141.432976	0.000628	6.282726	2.128645	0.000252
 460	4.5670e+01	18.2770	141.650982	0.000547	5.472052	1.853981	0.000219
 461	4.5770e+01	18.3155	141.909358	0.000649	6.485395	2.197311	0.000260
 462	4.5870e+01	18.3492	142.123327	0.000537	5.370717	1.819648	0.000215
 463	4.5969e+01	18.4006	142.389777	0.000669	6.688063	2.265977	0.000268
 464	4.6069e+01	18.4342	142.607783	0.000547	5.472052	1.853981	0.000219
 465	4.6168e+01	18.4776	142.866159	0.000649	6.485395	2.197311	0.000260
 466	4.6267e+01	18.5145	143.084165	0.000547	5.472052	1.853981	0.000219
 467	4.6367e+01	18.5610	143.346579	0.000659	6.586729	2.231644	0.000264
 468	4.6467e+01	18.5931	143.556510	0.000527	5.269383	1.785315	0.000211
 469	4.6566e+01	18.6380	143.782589	0.000567	5.674720	1.922647	0.000227
 470	4.6666e+01	18.6829	144.036929	0.000638	6.384060	2.162978	0.000256
 471	4.6765e+01	18.7182	144.254934	0.000547	5.472052	1.853981	0.000219
 472	4.6864e+01	18.7551	144.472940	0.000547	5.472052	1.853981	0.000219
 473	4.6964e+01	18.7984	144.751502	0.000699	6.992066	2.368976	0.000280
 474	4.7063e+01	18.8273	144.961433	0.000527	5.269383	1.785315	0.000211
 475	4.7163e+01	18.8786	145.199624	0.000598	5.978723	2.025646	0.000239
 476	4.7263e+01	18.9187	145.417629	0.000547	5.472052	1.853981	0.000219
 477	4.7362e+01	18.9556	145.671969	0.000638	6.384060	2.162978	0.000256
 478	4.7462e+01	18.9845	145.853640	0.000456	4.560043	1.544984	0.000183
 479	4.7561e+01	19.0278	146.148351	0.000740	7.397403	2.506308	0.000296
 480	4.7660e+01	19.0679	146.390579	0.000608	6.080057	2.059979	0.000243
 481	4.7760e+01	19.1144	146.592436	0.000507	5.066715	1.716649	0.000203
 482	4.7859e+01	19.1626	146.838701	0.000618	6.181392	2.094312	0.000248
 483	4.7959e+01	19.1898	147.105152	0.000669	6.688063	2.265977	0.000268
 484	4.8059e+01	19.2428	147.311046	0.000517	5.168049	1.750982	0.000207
 485	4.8158e+01	19.2716	147.533088	0.000557	5.573386	1.888314	0.000223
 486	4.8258e+01	19.3053	147.811651	0.000699	6.992066	2.368976	0.000280
 487	4.8357e+01	19.3535	148.033693	0.000557	5.573386	1.888314	0.000223
 488	4.8456e+01	19.3855	148.243624	0.000527	5.269383	1.785315	0.000211
 489	4.8556e+01	19.4289	148.502001	0.000649	6.485395	2.197311	0.000260
 490	4.8656e+01	19.4754	148.707895	0.000517	5.168049	1.750982	0.000207
 491	4.8755e+01	19.5187	148.925900	0.000547	5.472052	1.853981	0.000219
 492	4.8855e+01	19.5540	149.180240	0.000638	6.384060	2.162978	0.000256
 493	4.8954e+01	19.5845	149.418431	0.000598	5.978723	2.025646	0.000239
 494	4.9053e+01	19.6294	149.644510	0.000567	5.674720	1.922647	0.000227
 495	4.9153e+01	19.6663	149.878664	0.000588	5.877389	1.991313	0.000235
 496	4.9252e+01	19.7032	150.104744	0.000567	5.674720	1.922647	0.000227
 497	4.9352e+01	19.7545	150.391381	0.000719	7.194735	2.437642	0.000288
 498	4.9452e+01	19.7914	150.573052	0.000456	4.560043	1.544984	0.000183
 499	4.9551e+01	19.8251	150.815280	0.000608	6.080057	2.059979	0.000243
 500	4.9651e+01	19.8684	151.065582	0.000628	6.282726	2.128645	0.000252
 501	4.9750e+01	19.9117	151.283588	0.000547	5.472052	1.853981	0.000219
 502	4.9849e+01	19.9454	151.533890	0.000628	6.282726	2.128645	0.000252
 503	4.9949e+01	19.9952	151.796304	0.000659	6.586729	2.231644	0.000264
 504	5.0048e+01	19.9502	151.638855	0.000395	3.952037	1.338986	-0.000158
 505	5.0148e+01	19.9037	151.525816	0.000284	2.837360	0.961324	-0.000114
 506	5.0248e+01	19.8700	151.408739	0.000294	2.938694	0.995657	-0.000118
 507	5.0347e+01	19.8283	151.255328	0.000385	3.850703	1.304654	-0.000154
 508	5.0447e+01	19.7914	151.126139	0.000324	3.242697	1.098656	-0.000130
 509	5.0546e+01	19.7497	151.013099	0.000284	2.837360	0.961324	-0.000114
 510	5.0645e+01	19.7144	150.839503	0.000436	4.357374	1.476318	-0.000174
 511	5.0745e+01	19.6679	150.682054	0.000395	3.952037	1.338986	-0.000158
 512	5.0844e+01	19.6182	150.560940	0.000304	3.040029	1.029990	-0.000122
 513	5.0944e+01	19.5797	150.423678	0.000345	3.445366	1.167322	-0.000138
 514	5.1044e+01	19.5412	150.262192	0.000405	4.053372	1.373319	-0.000162
 515	5.1143e+01	19.5203	150.141078	0.000304	3.040029	1.029990	-0.000122
 516	5.1242e+01	19.4706	149.955370	0.000466	4.661377	1.579317	-0.000187
 517	5.1342e+01	19.4401	149.801959	0.000385	3.850703	1.304654	-0.000154
 518	5.1441e+01	19.3936	149.676807	0.000314	3.141363	1.064323	-0.000126
 519	5.1541e+01	19.3615	149.531471	0.000365	3.648034	1.235988	-0.000146
 520	5.1641e+01	19.3214	149.374022	0.000395	3.952037	1.338986	-0.000158
 521	5.1740e+01	19.2700	149.244834	0.000324	3.242697	1.098656	-0.000130
 522	5.1840e+01	19.2348	149.087386	0.000395	3.952037	1.338986	-0.000158
 523	5.1939e+01	19.1930	148.913789	0.000436	4.357374	1.476318	-0.000174
 524	5.2038e+01	19.1529	148.784600	0.000324	3.242697	1.098656	-0.000130
 525	5.2138e+01	19.1096	148.598892	0.000466	4.661377	1.579317	-0.000187
 526	5.2237e+01	19.0807	148.453555	0.000365	3.648034	1.235988	-0.000146
 527	5.2337e+01	19.0294	148.344553	0.000274	2.736026	0.926991	-0.000110
 528	5.2437e+01	19.0021	148.126547	0.000547	5.472052	1.853981	-0.000219
 529	5.2536e+01	18.9620	147.961025	0.000415	4.154706	1.407652	-0.000166
 530	5.2636e+01	18.9107	147.823762	0.000345	3.445366	1.167322	-0.000138
 531	5.2735e+01	18.8658	147.674388	0.000375	3.749369	1.270321	-0.000150
 532	5.2834e+01	18.8433	147.529051	0.000365	3.648034	1.235988	-0.000146
 533	5.2934e+01	18.7984	147.319120	0.000527	5.269383	1.785315	-0.000211
 534	5.3033e+01	18.7551	147.206080	0.000284	2.837360	0.961324	-0.000114
 535	5.3133e+01	18.7150	146.996149	0.000527	5.269383	1.785315	-0.000211
 536	5.3233e+01	18.6765	146.822553	0.000436	4.357374	1.476318	-0.000174
 537	5.3332e+01	18.6380	146.636844	0.000466	4.661377	1.579317	-0.000187
 538	5.3431e+01	18.5882	146.511693	0.000314	3.141363	1.064323	-0.000126
 539	5.3531e+01	18.5530	146.354245	0.000395	3.952037	1.338986	-0.000158
 540	5.3630e+01	18.5096	146.152388	0.000507	5.066715	1.716649	-0.000203
 541	5.3730e+01	18.4727	145.934383	0.000547	5.472052	1.853981	-0.000219
 542	5.3830e+01	18.4423	145.849603	0.000213	2.128020	0.720993	-0.000085
 543	5.3929e+01	18.4054	145.655820	0.000486	4.864046	1.647983	-0.000195
 544	5.4029e+01	18.3572	145.474149	0.000456	4.560043	1.544984	-0.000183
 545	5.4128e+01	18.3268	145.336887	0.000345	3.445366	1.167322	-0.000138
 546	5.4227e+01	18.2722	145.143104	0.000486	4.864046	1.647983	-0.000195
 547	5.4327e+01	18.2369	144.977581	0.000415	4.154706	1.407652	-0.000166
 548	5.4426e+01	18.1968	144.767650	0.000527	5.269383	1.785315	-0.000211
 549	5.4526e+01	18.1551	144.610202	0.000395	3.952037	1.338986	-0.000158
 550	5.4626e+01	18.1150	144.460828	0.000375	3.749369	1.270321	-0.000150
 551	5.4725e+01	18.0733	144.295306	0.000415	4.154706	1.407652	-0.000166
 552	5.4825e+01	18.0348	144.109597	0.000466	4.661377	1.579317	-0.000187
 553	5.4924e+01	18.0075	143.923889	0.000466	4.661377	1.579317	-0.000187
 554	5.5023e+01	17.9530	143.742218	0.000456	4.560043	1.544984	-0.000183
 555	5.5123e+01	17.9161	143.596881	0.000365	3.648034	1.235988	-0.000146
 556	5.5222e+01	17.8760	143.403099	0.000486	4.864046	1.647983	-0.000195
 557	5.5322e+01	17.8423	143.233539	0.000426	4.256040	1.441985	-0.000170
 558	5.5422e+01	17.8022	143.088202	0.000365	3.648034	1.235988	-0.000146
 559	5.5521e+01	17.7573	142.845974	0.000608	6.080057	2.059979	-0.000243
 560	5.5620e+01	17.7139	142.688526	0.000395	3.952037	1.338986	-0.000158
 561	5.5720e+01	17.6754	142.514929	0.000436	4.357374	1.476318	-0.000174
 562	5.5819e+01	17.6369	142.357480	0.000395	3.952037	1.338986	-0.000158
 563	5.5919e+01	17.5952	142.147549	0.000527	5.269383	1.785315	-0.000211
 564	5.6019e+01	17.5583	141.977990	0.000426	4.256040	1.441985	-0.000170
 565	5.6118e+01	17.5182	141.820541	0.000395	3.952037	1.338986	-0.000158
 566	5.6218e+01	17.4877	141.622722	0.000497	4.965380	1.682316	-0.000199
 567	5.6317e+01	17.4380	141.404716	0.000547	5.472052	1.853981	-0.000219
 568	5.6416e+01	17.4011	141.227082	0.000446	4.458709	1.510651	-0.000179
 569	5.6516e+01	17.3562	141.053486	0.000436	4.357374	1.476318	-0.000174
 570	5.6615e+01	17.3225	140.851629	0.000507	5.066715	1.716649	-0.000203
 571	5.6715e+01	17.2728	140.682069	0.000426	4.256040	1.441985	-0.000170
 572	5.6815e+01	17.2391	140.504435	0.000446	4.458709	1.510651	-0.000179
 573	5.6914e+01	17.2118	140.286430	0.000547	5.472052	1.853981	-0.000219
 574	5.7014e+01	17.1589	140.133019	0.000385	3.850703	1.304654	-0.000154
 575	5.7113e+01	17.1140	139.943273	0.000476	4.762712	1.613650	-0.000191
 576	5.7212e+01	17.0787	139.753528	0.000476	4.762712	1.613650	-0.000191
 577	5.7312e+01	17.0386	139.543597	0.000527	5.269383	1.785315	-0.000211
 578	5.7411e+01	17.0049	139.341740	0.000507	5.066715	1.716649	-0.000203
 579	5.7511e+01	16.9551	139.156032	0.000466	4.661377	1.579317	-0.000187
 580	5.7611e+01	16.9198	138.990509	0.000415	4.154706	1.407652	-0.000166
 581	5.7710e+01	16.8781	138.792690	0.000497	4.965380	1.682316	-0.000199
 582	5.7809e+01	16.8460	138.611018	0.000456	4.560043	1.544984	-0.000183
 583	5.7909e+01	16.7915	138.393013	0.000547	5.472052	1.853981	-0.000219
 584	5.8008e+01	16.7674	138.239602	0.000385	3.850703	1.304654	-0.000154
 585	5.8108e+01	16.7209	138.037745	0.000507	5.066715	1.716649	-0.000203
 586	5.8208e+01	16.6744	137.827814	0.000527	5.269383	1.785315	-0.000211
 587	5.8307e+01	16.6407	137.666329	0.000405	4.053372	1.373319	-0.000162
 588	5.8407e+01	16.6022	137.460435	0.000517	5.168049	1.750982	-0.000207
 589	5.8506e+01	16.5605	137.230318	0.000578	5.776055	1.956980	-0.000231
 590	5.8605e+01	16.5204	137.064795	0.000415	4.154706	1.407652	-0.000166
 591	5.8705e+01	16.4771	136.834679	0.000578	5.776055	1.956980	-0.000231
 592	5.8804e+01	16.4482	136.677230	0.000395	3.952037	1.338986	-0.000158
 593	5.8904e+01	16.4017	136.483448	0.000486	4.864046	1.647983	-0.000195
 594	5.9004e+01	16.3648	136.277554	0.000517	5.168049	1.750982	-0.000207
 595	5.9103e+01	16.3183	136.091846	0.000466	4.661377	1.579317	-0.000187
 596	5.9203e+01	16.2862	135.861729	0.000578	5.776055	1.956980	-0.000231
 597	5.9302e+01	16.2477	135.696206	0.000415	4.154706	1.407652	-0.000166
 598	5.9401e+01	16.1947	135.498387	0.000497	4.965380	1.682316	-0.000199
 599	5.9501e+01	16.1675	135.292493	0.000517	5.168049	1.750982	-0.000207
 600	5.9600e+01	16.1225	135.074488	0.000547	5.472052	1.853981	-0.000219
 601	5.9700e+01	16.0856	134.925114	0.000375	3.749369	1.270321	-0.000150
 602	5.9800e+01	16.0343	134.682885	0.000608	6.080057	2.059979	-0.000243
 603	5.9899e+01	16.0022	134.505251	0.000446	4.458709	1.510651	-0.000179
 604	5.9998e+01	15.9653	134.295320	0.000527	5.269383	1.785315	-0.000211
 605	6.0098e+01	15.9300	134.097501	0.000497	4.965380	1.682316	-0.000199
 606	6.0197e+01	15.8883	133.895644	0.000507	5.066715	1.716649	-0.000203
 607	6.0297e+01	15.8418	133.665527	0.000578	5.776055	1.956980	-0.000231
 608	6.0397e+01	15.8049	133.483856	0.000456	4.560043	1.544984	-0.000183
 609	6.0496e+01	15.7680	133.290074	0.000486	4.864046	1.647983	-0.000195
 610	6.0596e+01	15.7231	133.076105	0.000537	5.370717	1.819648	-0.000215
 611	6.0695e+01	15.6878	132.862137	0.000537	5.370717	1.819648	-0.000215
 612	6.0794e+01	15.6445	132.680466	0.000456	4.560043	1.544984	-0.000183
 613	6.0894e+01	15.6140	132.470535	0.000527	5.269383	1.785315	-0.000211
 614	6.0993e+01	15.5739	132.256567	0.000537	5.370717	1.819648	-0.000215
 615	6.1093e+01	15.5242	132.026450	0.000578	5.776055	1.956980	-0.000231
 616	6.1193e+01	15.4873	131.864965	0.000405	4.053372	1.373319	-0.000162
 617	6.1292e+01	15.4488	131.646959	0.000547	5.472052	1.853981	-0.000219
 618	6.1392e+01	15.4087	131.445102	0.000507	5.066715	1.716649	-0.000203
 619	6.1491e+01	15.3653	131.223060	0.000557	5.573386	1.888314	-0.000223
 620	6.1590e+01	15.3300	131.049463	0.000436	4.357374	1.476318	-0.000174
 621	6.1690e+01	15.2915	130.791087	0.000649	6.485395	2.197311	-0.000260
 622	6.1789e+01	15.2418	130.613453	0.000446	4.458709	1.510651	-0.000179
 623	6.1889e+01	15.2145	130.431781	0.000456	4.560043	1.544984	-0.000183
 624	6.1989e+01	15.1680	130.185516	0.000618	6.181392	2.094312	-0.000248
 625	6.2088e+01	15.1263	129.999808	0.000466	4.661377	1.579317	-0.000187
 626	6.2188e+01	15.0926	129.797951	0.000507	5.066715	1.716649	-0.000203
 627	6.2287e+01	15.0461	129.563797	0.000588	5.877389	1.991313	-0.000235
 628	6.2386e+01	15.0124	129.357903	0.000517	5.168049	1.750982	-0.000207
 629	6.2486e+01	14.9691	129.143935	0.000537	5.370717	1.819648	-0.000215
 630	6.2586e+01	14.9274	128.962264	0.000456	4.560043	1.544984	-0.000183
 631	6.2685e+01	14.8841	128.740222	0.000557	5.573386	1.888314	-0.000223
 632	6.2785e+01	14.8584	128.538365	0.000507	5.066715	1.716649	-0.000203
 633	6.2884e+01	14.8055	128.284025	0.000638	6.384060	2.162978	-0.000256
 634	6.2983e+01	14.7718	128.130614	0.000385	3.850703	1.304654	-0.000154
 635	6.3083e+01	14.7285	127.904534	0.000567	5.674720	1.922647	-0.000227
 636	6.3182e+01	14.6916	127.690566	0.000537	5.370717	1.819648	-0.000215
 637	6.3282e+01	14.6547	127.488709	0.000507	5.066715	1.716649	-0.000203
 638	6.3382e+01	14.6130	127.258593	0.000578	5.776055	1.956980	-0.000231
 639	6.3481e+01	14.5696	127.044625	0.000537	5.370717	1.819648	-0.000215
 640	6.3581e+01	14.5279	126.830656	0.000537	5.370717	1.819648	-0.000215
 641	6.3680e+01	14.4878	126.600540	0.000578	5.776055	1.956980	-0.000231
 642	6.3779e+01	14.4525	126.386571	0.000537	5.370717	1.819648	-0.000215
 643	6.3879e+01	14.4108	126.176640	0.000527	5.269383	1.785315	-0.000211
 644	6.3978e+01	14.3707	125.966709	0.000527	5.269383	1.785315	-0.000211
 645	6.4078e+01	14.3402	125.764853	0.000507	5.066715	1.716649	-0.000203
 646	6.4177e+01	14.2921	125.534736	0.000578	5.776055	1.956980	-0.000231
 647	6.4277e+01	14.2616	125.320768	0.000537	5.370717	1.819648	-0.000215
 648	6.4376e+01	14.2071	125.131022	0.000476	4.762712	1.613650	-0.000191
 649	6.4476e+01	14.1670	124.913017	0.000547	5.472052	1.853981	-0.000219
 650	6.4576e+01	14.1317	124.707123	0.000517	5.168049	1.750982	-0.000207
 651	6.4675e+01	14.0868	124.468932	0.000598	5.978723	2.025646	-0.000239
 652	6.4775e+01	14.0531	124.254964	0.000537	5.370717	1.819648	-0.000215
 653	6.4874e+01	14.0050	124.061181	0.000486	4.864046	1.647983	-0.000195
 654	6.4974e+01	13.9729	123.859324	0.000507	5.066715	1.716649	-0.000203
 655	6.5073e+01	13.9312	123.629208	0.000578	5.776055	1.956980	-0.000231
 656	6.5172e+01	13.8911	123.407165	0.000557	5.573386	1.888314	-0.000223
 657	6.5272e+01	13.8477	123.201271	0.000517	5.168049	1.750982	-0.000207
 658	6.5371e+01	13.8092	122.971155	0.000578	5.776055	1.956980	-0.000231
 659	6.5471e+01	13.7723	122.777372	0.000486	4.864046	1.647983	-0.000195
 660	6.5570e+01	13.7435	122.547255	0.000578	5.776055	1.956980	-0.000231
 661	6.5670e+01	13.6889	122.317139	0.000578	5.776055	1.956980	-0.000231
 662	6.5769e+01	13.6440	122.127393	0.000476	4.762712	1.613650	-0.000191
 663	6.5869e+01	13.6103	121.893239	0.000588	5.877389	1.991313	-0.000235
 664	6.5969e+01	13.5702	121.671197	0.000557	5.573386	1.888314	-0.000223
 665	6.6068e+01	13.5397	121.437043	0.000588	5.877389	1.991313	-0.000235
 666	6.6168e+01	13.5028	121.271520	0.000415	4.154706	1.407652	-0.000166
 667	6.6267e+01	13.4563	121.013144	0.000649	6.485395	2.197311	-0.000260
 668	6.6367e+01	13.4130	120.795138	0.000547	5.472052	1.853981	-0.000219
 669	6.6466e+01	13.3729	120.613467	0.000456	4.560043	1.544984	-0.000183
 670	6.6566e+01	13.3296	120.330868	0.000709	7.093400	2.403309	-0.000284
 671	6.6665e+01	13.2975	120.157271	0.000436	4.357374	1.476318	-0.000174
 672	6.6764e+01	13.2510	119.959451	0.000497	4.965380	1.682316	-0.000199
 673	6.6864e+01	13.2125	119.705112	0.000638	6.384060	2.162978	-0.000256
 674	6.6963e+01	13.1804	119.474995	0.000578	5.776055	1.956980	-0.000231
 675	6.7063e+01	13.1339	119.269101	0.000517	5.168049	1.750982	-0.000207
 676	6.7162e+01	13.0954	119.038984	0.000578	5.776055	1.956980	-0.000231
 677	6.7262e+01	13.0504	118.825016	0.000537	5.370717	1.819648	-0.000215
 678	6.7362e+01	13.0200	118.607011	0.000547	5.472052	1.853981	-0.000219
 679	6.7461e+01	12.9702	118.348634	0.000649	6.485395	2.197311	-0.000260
 680	6.7561e+01	12.9301	118.179074	0.000426	4.256040	1.441985	-0.000170
 681	6.7660e+01	12.8932	117.961069	0.000547	5.472052	1.853981	-0.000219
 682	6.7760e+01	12.8627	117.722878	0.000598	5.978723	2.025646	-0.000239
 683	6.7859e+01	12.8178	117.476613	0.000618	6.181392	2.094312	-0.000248
 684	6.7959e+01	12.7825	117.266682	0.000527	5.269383	1.785315	-0.000211
 685	6.8058e+01	12.7360	117.052714	0.000537	5.370717	1.819648	-0.000215
 686	6.8157e+01	12.6927	116.842783	0.000527	5.269383	1.785315	-0.000211
 687	6.8257e+01	12.6558	116.636889	0.000517	5.168049	1.750982	-0.000207
 688	6.8356e+01	12.6189	116.386586	0.000628	6.282726	2.128645	-0.000252
 689	6.8456e+01	12.5804	116.221064	0.000415	4.154706	1.407652	-0.000166
 690	6.8555e+01	12.5403	115.958650	0.000659	6.586729	2.231644	-0.000264
 691	6.8655e+01	12.5002	115.732570	0.000567	5.674720	1.922647	-0.000227
 692	6.8754e+01	12.4601	115.490342	0.000608	6.080057	2.059979	-0.000243
 693	6.8854e+01	12.4152	115.296560	0.000486	4.864046	1.647983	-0.000195
 694	6.8954e+01	12.3783	115.074517	0.000557	5.573386	1.888314	-0.000223
 695	6.9053e+01	12.3590	114.795955	0.000699	6.992066	2.368976	-0.000280
 696	6.9153e+01	12.2997	114.573912	0.000557	5.573386	1.888314	-0.000223
 697	6.9252e+01	12.2579	114.432612	0.000355	3.546700	1.201655	-0.000142
 698	6.9352e+01	12.2259	114.186347	0.000618	6.181392	2.094312	-0.000248
 699	6.9451e+01	12.1809	113.895673	0.000730	7.296069	2.471975	-0.000292
 700	6.9550e+01	12.1473	113.701891	0.000486	4.864046	1.647983	-0.000195
 701	6.9650e+01	12.1007	113.459663	0.000608	6.080057	2.059979	-0.000243
 702	6.9749e+01	12.0606	113.277992	0.000456	4.560043	1.544984	-0.000183
 703	6.9849e+01	12.0253	113.003466	0.000689	6.890732	2.334643	-0.000276
 704	6.9948e+01	11.9836	112.817758	0.000466	4.661377	1.579317	-0.000187
 705	7.0048e+01	11.9467	112.547270	0.000679	6.789397	2.300310	-0.000272
 706	7.0147e+01	11.9002	112.337339	0.000527	5.269383	1.785315	-0.000211
 707	7.0247e+01	11.8617	112.107222	0.000578	5.776055	1.956980	-0.000231
 708	7.0347e+01	11.8200	111.889217	0.000547	5.472052	1.853981	-0.000219
 709	7.0446e+01	11.7735	111.594506	0.000740	7.397403	2.506308	-0.000296
 710	7.0546e+01	11.7478	111.368426	0.000567	5.674720	1.922647	-0.000227
 711	7.0645e+01	11.7029	111.182718	0.000466	4.661377	1.579317	-0.000187
 712	7.0745e+01	11.6628	110.944527	0.000598	5.978723	2.025646	-0.000239
 713	7.0844e+01	11.6259	110.734596	0.000527	5.269383	1.785315	-0.000211
 714	7.0944e+01	11.5842	110.484294	0.000628	6.282726	2.128645	-0.000252
 715	7.1043e+01	11.5537	110.233991	0.000628	6.282726	2.128645	-0.000252
 716	7.1142e+01	11.5088	110.003875	0.000578	5.776055	1.956980	-0.000231
 717	7.1242e+01	11.4622	109.802018	0.000507	5.066715	1.716649	-0.000203
 718	7.1341e+01	11.4270	109.543641	0.000649	6.485395	2.197311	-0.000260
 719	7.1441e+01	11.3836	109.337747	0.000517	5.168049	1.750982	-0.000207
 720	7.1540e+01	11.3483	109.038999	0.000750	7.498737	2.540641	-0.000300
 721	7.1640e+01	11.3082	108.837142	0.000507	5.066715	1.716649	-0.000203
 722	7.1740e+01	11.2697	108.647397	0.000476	4.762712	1.613650	-0.000191
 723	7.1839e+01	11.2248	108.356723	0.000730	7.296069	2.471975	-0.000292
 724	7.1939e+01	11.1895	108.114495	0.000608	6.080057	2.059979	-0.000243
 725	7.2038e+01	11.1414	107.892453	0.000557	5.573386	1.888314	-0.000223
 726	7.2138e+01	11.1061	107.674447	0.000547	5.472052	1.853981	-0.000219
 727	7.2237e+01	11.0612	107.407996	0.000669	6.688063	2.265977	-0.000268
 728	7.2337e+01	11.0339	107.185954	0.000557	5.573386	1.888314	-0.000223
 729	7.2436e+01	10.9922	106.935651	0.000628	6.282726	2.128645	-0.000252
 730	7.2535e+01	10.9537	106.709572	0.000567	5.674720	1.922647	-0.000227
 731	7.2635e+01	10.9088	106.451195	0.000649	6.485395	2.197311	-0.000260
 732	7.2734e+01	10.8671	106.217041	0.000588	5.877389	1.991313	-0.000235
 733	7.2834e+01	10.8270	105.962702	0.000638	6.384060	2.162978	-0.000256
 734	7.2933e+01	10.7885	105.724511	0.000598	5.978723	2.025646	-0.000239
 735	7.3033e+01	10.7452	105.482283	0.000608	6.080057	2.059979	-0.000243
 736	7.3132e+01	10.7050	105.236017	0.000618	6.181392	2.094312	-0.000248
 737	7.3232e+01	10.6665	105.022049	0.000537	5.370717	1.819648	-0.000215
 738	7.3332e+01	10.6296	104.767710	0.000638	6.384060	2.162978	-0.000256
 739	7.3431e+01	10.5863	104.509333	0.000649	6.485395	2.197311	-0.000260
 740	7.3531e+01	10.5510	104.307476	0.000507	5.066715	1.716649	-0.000203
 741	7.3630e+01	10.5077	104.065248	0.000608	6.080057	2.059979	-0.000243
 742	7.3730e+01	10.4692	103.774574	0.000730	7.296069	2.471975	-0.000292
 743	7.3829e+01	10.4275	103.524272	0.000628	6.282726	2.128645	-0.000252
 744	7.3928e+01	10.3858	103.290118	0.000588	5.877389	1.991313	-0.000235
 745	7.4028e+01	10.3457	103.060001	0.000578	5.776055	1.956980	-0.000231
 746	7.4127e+01	10.3120	102.846033	0.000537	5.370717	1.819648	-0.000215
 747	7.4227e+01	10.2703	102.535173	0.000780	7.802740	2.643640	-0.000312
 748	7.4326e+01	10.2222	102.292945	0.000608	6.080057	2.059979	-0.000243
 749	7.4426e+01	10.1837	102.046680	0.000618	6.181392	2.094312	-0.000248
 750	7.4525e+01	10.1452	101.812526	0.000588	5.877389	1.991313	-0.000235
 751	7.4625e+01	10.1051	101.554149	0.000649	6.485395	2.197311	-0.000260
 752	7.4725e+01	10.0698	101.315958	0.000598	5.978723	2.025646	-0.000239
 753	7.4824e+01	10.0281	101.073730	0.000608	6.080057	2.059979	-0.000243
 754	7.4924e+01	9.9815	100.815354	0.000649	6.485395	2.197311	-0.000260
 755	7.5023e+01	9.9478	100.577163	0.000598	5.978723	2.025646	-0.000239
 756	7.5123e+01	9.9045	100.298600	0.000699	6.992066	2.368976	-0.000280
 757	7.5222e+01	9.8676	100.068484	0.000578	5.776055	1.956980	-0.000231
 758	7.5322e+01	9.8291	99.789921	0.000699	6.992066	2.368976	-0.000280
 759	7.5421e+01	9.7922	99.535582	0.000638	6.384060	2.162978	-0.000256
 760	7.5520e+01	9.7441	99.301428	0.000588	5.877389	1.991313	-0.000235
 761	7.5620e+01	9.7088	99.059200	0.000608	6.080057	2.059979	-0.000243
 762	7.5719e+01	9.6703	98.780637	0.000699	6.992066	2.368976	-0.000280
 763	7.5819e+01	9.6318	98.594929	0.000466	4.661377	1.579317	-0.000187
 764	7.5918e+01	9.5997	98.316367	0.000699	6.992066	2.368976	-0.000280
 765	7.6018e+01	9.5484	98.057990	0.000649	6.485395	2.197311	-0.000260
 766	7.6118e+01	9.5131	97.755205	0.000760	7.600072	2.574974	-0.000304
 767	7.6217e+01	9.4698	97.517014	0.000598	5.978723	2.025646	-0.000239
 768	7.6317e+01	9.4345	97.246526	0.000679	6.789397	2.300310	-0.000272
 769	7.6416e+01	9.3944	97.020446	0.000567	5.674720	1.922647	-0.000227
 770	7.6516e+01	9.3479	96.749958	0.000679	6.789397	2.300310	-0.000272
 771	7.6615e+01	9.3174	96.479470	0.000679	6.789397	2.300310	-0.000272
 772	7.6715e+01	9.2693	96.241279	0.000598	5.978723	2.025646	-0.000239
 773	7.6814e+01	9.2404	95.970791	0.000679	6.789397	2.300310	-0.000272
 774	7.6913e+01	9.1842	95.688191	0.000709	7.093400	2.403309	-0.000284
 775	7.7013e+01	9.1409	95.498446	0.000476	4.762712	1.613650	-0.000191
 776	7.7112e+01	9.1185	95.244106	0.000638	6.384060	2.162978	-0.000256
 777	7.7212e+01	9.0735	94.929210	0.000790	7.904075	2.677973	-0.000316
 778	7.7311e+01	9.0318	94.695056	0.000588	5.877389	1.991313	-0.000235
 779	7.7411e+01	8.9901	94.400345	0.000740	7.397403	2.506308	-0.000296
 780	7.7510e+01	8.9468	94.186377	0.000537	5.370717	1.819648	-0.000215
 781	7.7610e+01	8.9163	93.879554	0.000770	7.701406	2.609307	-0.000308
 782	7.7710e+01	8.8762	93.625215	0.000638	6.384060	2.162978	-0.000256
 783	7.7809e+01	8.8297	93.358764	0.000669	6.688063	2.265977	-0.000268
 784	7.7909e+01	8.7896	93.084239	0.000689	6.890732	2.334643	-0.000276
 785	7.8008e+01	8.7543	92.870271	0.000537	5.370717	1.819648	-0.000215
 786	7.8108e+01	8.7174	92.611894	0.000649	6.485395	2.197311	-0.000260
 787	7.8207e+01	8.6677	92.329294	0.000709	7.093400	2.403309	-0.000284
 788	7.8306e+01	8.6372	92.074955	0.000638	6.384060	2.162978	-0.000256
 789	7.8406e+01	8.5875	91.800430	0.000689	6.890732	2.334643	-0.000276
 790	7.8505e+01	8.5522	91.546090	0.000638	6.384060	2.162978	-0.000256
 791	7.8605e+01	8.5137	91.267528	0.000699	6.992066	2.368976	-0.000280
 792	7.8704e+01	8.4736	91.037411	0.000578	5.776055	1.956980	-0.000231
 793	7.8804e+01	8.4351	90.730589	0.000770	7.701406	2.609307	-0.000308
 794	7.8903e+01	8.3998	90.492398	0.000598	5.978723	2.025646	-0.000239
 795	7.9003e+01	8.3548	90.221909	0.000679	6.789397	2.300310	-0.000272
 796	7.9103e+01	8.3147	89.927199	0.000740	7.397403	2.506308	-0.000296
 797	7.9202e+01	8.2827	89.693045	0.000588	5.877389	1.991313	-0.000235
 798	7.9302e+01	8.2361	89.390260	0.000760	7.600072	2.574974	-0.000304
 799	7.9401e+01	8.1992	89.164180	0.000567	5.674720	1.922647	-0.000227
 800	7.9501e+01	8.1671	88.837172	0.000821	8.208078	2.780972	-0.000329
 801	7.9600e+01	8.1062	88.598981	0.000598	5.978723	2.025646	-0.000239
 802	7.9700e+01	8.0725	88.324456	0.000689	6.890732	2.334643	-0.000276
 803	7.9799e+01	8.0372	88.045893	0.000699	6.992066	2.368976	-0.000280
 804	7.9898e+01	7.9907	87.823851	0.000557	5.573386	1.888314	-0.000223
 805	7.9998e+01	7.9618	87.541251	0.000709	7.093400	2.403309	-0.000284
 806	8.0097e+01	7.9153	87.242503	0.000750	7.498737	2.540641	-0.000300
 807	8.0197e+01	7.8768	87.004312	0.000598	5.978723	2.025646	-0.000239
 808	8.0296e+01	7.8431	86.701527	0.000760	7.600072	2.574974	-0.000304
 809	8.0396e+01	7.7950	86.467373	0.000588	5.877389	1.991313	-0.000235
 810	8.0496e+01	7.7597	86.192848	0.000689	6.890732	2.334643	-0.000276
 811	8.0595e+01	7.7196	85.930434	0.000659	6.586729	2.231644	-0.000264
 812	8.0695e+01	7.6698	85.631686	0.000750	7.498737	2.540641	-0.000300
 813	8.0794e+01	7.6329	85.401569	0.000578	5.776055	1.956980	-0.000231
 814	8.0894e+01	7.5993	85.098784	0.000760	7.600072	2.574974	-0.000304
 815	8.0993e+01	7.5591	84.800036	0.000750	7.498737	2.540641	-0.000300
 816	8.1093e+01	7.5239	84.549734	0.000628	6.282726	2.128645	-0.000252
 817	8.1192e+01	7.4854	84.279246	0.000679	6.789397	2.300310	-0.000272
 818	8.1291e+01	7.4356	84.028943	0.000628	6.282726	2.128645	-0.000252
 819	8.1391e+01	7.3939	83.766529	0.000659	6.586729	2.231644	-0.000264
 820	8.1490e+01	7.3538	83.520264	0.000618	6.181392	2.094312	-0.000248
 821	8.1590e+01	7.3169	83.233628	0.000719	7.194735	2.437642	-0.000288
 822	8.1689e+01	7.2672	82.951028	0.000709	7.093400	2.403309	-0.000284
 823	8.1789e+01	7.2431	82.660354	0.000730	7.296069	2.471975	-0.000292
 824	8.1888e+01	7.1934	82.442349	0.000547	5.472052	1.853981	-0.000219
 825	8.1988e+01	7.1613	82.159749	0.000709	7.093400	2.403309	-0.000284
 826	8.2088e+01	7.1164	81.856964	0.000760	7.600072	2.574974	-0.000304
 827	8.2187e+01	7.0795	81.586476	0.000679	6.789397	2.300310	-0.000272
 828	8.2287e+01	7.0458	81.303877	0.000709	7.093400	2.403309	-0.000284
 829	8.2386e+01	7.0025	81.061648	0.000608	6.080057	2.059979	-0.000243
 830	8.2486e+01	6.9624	80.766938	0.000740	7.397403	2.506308	-0.000296
 831	8.2585e+01	6.9223	80.484338	0.000709	7.093400	2.403309	-0.000284
 832	8.2684e+01	6.8773	80.209813	0.000689	6.890732	2.334643	-0.000276
 833	8.2784e+01	6.8404	79.947399	0.000659	6.586729	2.231644	-0.000264
 834	8.2883e+01	6.7955	79.684985	0.000659	6.586729	2.231644	-0.000264
 835	8.2983e+01	6.7602	79.382200	0.000760	7.600072	2.574974	-0.000304
 836	8.3082e+01	6.7314	79.135935	0.000618	6.181392	2.094312	-0.000248
 837	8.3182e+01	6.6768	78.825075	0.000780	7.802740	2.643640	-0.000312
 838	8.3281e+01	6.6544	78.566699	0.000649	6.485395	2.197311	-0.000260
 839	8.3381e+01	6.6094	78.304285	0.000659	6.586729	2.231644	-0.000264
 840	8.3481e+01	6.5581	78.021685	0.000709	7.093400	2.403309	-0.000284
 841	8.3580e+01	6.5196	77.747160	0.000689	6.890732	2.334643	-0.000276
 842	8.3680e+01	6.4779	77.448412	0.000750	7.498737	2.540641	-0.000300
 843	8.3779e+01	6.4394	77.206184	0.000608	6.080057	2.059979	-0.000243
 844	8.3879e+01	6.3977	76.895324	0.000780	7.802740	2.643640	-0.000312
 845	8.3978e+01	6.3624	76.636948	0.000649	6.485395	2.197311	-0.000260
 846	8.4078e+01	6.3287	76.322051	0.000790	7.904075	2.677973	-0.000316
 847	8.4177e+01	6.2774	76.104046	0.000547	5.472052	1.853981	-0.000219
 848	8.4276e+01	6.2292	75.789149	0.000790	7.904075	2.677973	-0.000316
 849	8.4376e+01	6.1972	75.498475	0.000730	7.296069	2.471975	-0.000292
 850	8.4475e+01	6.1763	75.232024	0.000669	6.688063	2.265977	-0.000268
 851	8.4575e+01	6.1218	74.981722	0.000628	6.282726	2.128645	-0.000252
 852	8.4674e+01	6.0816	74.678937	0.000760	7.600072	2.574974	-0.000304
 853	8.4774e+01	6.0415	74.408449	0.000679	6.789397	2.300310	-0.000272
 854	8.4874e+01	6.0159	74.121812	0.000719	7.194735	2.437642	-0.000288
 855	8.4973e+01	5.9549	73.871510	0.000628	6.282726	2.128645	-0.000252
 856	8.5073e+01	5.9308	73.572762	0.000750	7.498737	2.540641	-0.000300
 857	8.5172e+01	5.8795	73.282088	0.000730	7.296069	2.471975	-0.000292
 858	8.5272e+01	5.8426	73.011600	0.000679	6.789397	2.300310	-0.000272
 859	8.5371e+01	5.8025	72.745149	0.000669	6.688063	2.265977	-0.000268
 860	8.5471e+01	5.7608	72.478698	0.000669	6.688063	2.265977	-0.000268
 861	8.5570e+01	5.7255	72.159764	0.000801	8.005409	2.712306	-0.000321
 862	8.5669e+01	5.6870	71.873128	0.000719	7.194735	2.437642	-0.000288
 863	8.5769e+01	5.6453	71.622825	0.000628	6.282726	2.128645	-0.000252
 864	8.5868e+01	5.6068	71.316003	0.000770	7.701406	2.609307	-0.000308
 865	8.5968e+01	5.5635	71.029366	0.000719	7.194735	2.437642	-0.000288
 866	8.6067e+01	5.5250	70.730618	0.000750	7.498737	2.540641	-0.000300
 867	8.6167e+01	5.4945	70.439944	0.000730	7.296069	2.471975	-0.000292
 868	8.6266e+01	5.4480	70.189642	0.000628	6.282726	2.128645	-0.000252
 869	8.6366e+01	5.4047	69.882820	0.000770	7.701406	2.609307	-0.000308
 870	8.6466e+01	5.3726	69.632517	0.000628	6.282726	2.128645	-0.000252
 871	8.6565e+01	5.3373	69.337806	0.000740	7.397403	2.506308	-0.000296
 872	8.6665e+01	5.2956	69.039058	0.000750	7.498737	2.540641	-0.000300
 873	8.6764e+01	5.2442	68.772607	0.000669	6.688063	2.265977	-0.000268
 874	8.6864e+01	5.2089	68.465785	0.000770	7.701406	2.609307	-0.000308
 875	8.6963e+01	5.1737	68.146851	0.000801	8.005409	2.712306	-0.000321
 876	8.7063e+01	5.1271	67.884437	0.000659	6.586729	2.231644	-0.000264
 877	8.7162e+01	5.0902	67.609912	0.000689	6.890732	2.334643	-0.000276
 878	8.7261e+01	5.0533	67.335387	0.000689	6.890732	2.334643	-0.000276
 879	8.7361e+01	4.9956	67.028565	0.000770	7.701406	2.609307	-0.000308
 880	8.7460e+01	4.9763	66.717705	0.000780	7.802740	2.643640	-0.000312
 881	8.7560e+01	4.9298	66.455291	0.000659	6.586729	2.231644	-0.000264
 882	8.7659e+01	4.8961	66.192878	0.000659	6.586729	2.231644	-0.000264
 883	8.7759e+01	4.8560	65.882018	0.000780	7.802740	2.643640	-0.000312
 884	8.7859e+01	4.8111	65.607493	0.000689	6.890732	2.334643	-0.000276
 885	8.7958e+01	4.7726	65.272411	0.000841	8.410746	2.849638	-0.000337
 886	8.8058e+01	4.7261	65.009997	0.000659	6.586729	2.231644	-0.000264
 887	8.8157e+01	4.6892	64.747583	0.000659	6.586729	2.231644	-0.000264
 888	8.8257e+01	4.6507	64.440761	0.000770	7.701406	2.609307	-0.000308
 889	8.8356e+01	4.6058	64.146050	0.000740	7.397403	2.506308	-0.000296
 890	8.8456e+01	4.5753	63.875562	0.000679	6.789397	2.300310	-0.000272
 891	8.8555e+01	4.5287	63.572776	0.000760	7.600072	2.574974	-0.000304
 892	8.8654e+01	4.4902	63.278066	0.000740	7.397403	2.506308	-0.000296
 893	8.8754e+01	4.4534	62.963169	0.000790	7.904075	2.677973	-0.000316
 894	8.8853e+01	4.4148	62.688644	0.000689	6.890732	2.334643	-0.000276
 895	8.8953e+01	4.3715	62.393933	0.000740	7.397403	2.506308	-0.000296
 896	8.9052e+01	4.3282	62.099222	0.000740	7.397403	2.506308	-0.000296
 897	8.9152e+01	4.2833	61.796437	0.000760	7.600072	2.574974	-0.000304
 898	8.9251e+01	4.2544	61.509800	0.000719	7.194735	2.437642	-0.000288
 899	8.9351e+01	4.2111	61.190866	0.000801	8.005409	2.712306	-0.000321
 900	8.9451e+01	4.1710	60.900193	0.000730	7.296069	2.471975	-0.000292
 901	8.9550e+01	4.1309	60.625667	0.000689	6.890732	2.334643	-0.000276
 902	8.9650e+01	4.0924	60.282511	0.000861	8.613415	2.918304	-0.000345
 903	8.9749e+01	4.0523	59.987800	0.000740	7.397403	2.506308	-0.000296
 904	8.9849e+01	4.0170	59.685015	0.000760	7.600072	2.574974	-0.000304
 905	8.9948e+01	3.9769	59.382230	0.000760	7.600072	2.574974	-0.000304
 906	9.0047e+01	3.9320	59.107704	0.000689	6.890732	2.334643	-0.000276
 907	9.0147e+01	3.8935	58.788771	0.000801	8.005409	2.712306	-0.000321
 908	9.0246e+01	3.8534	58.473874	0.000790	7.904075	2.677973	-0.000316
 909	9.0346e+01	3.8149	58.219534	0.000638	6.384060	2.162978	-0.000256
 910	9.0445e+01	3.7828	57.912712	0.000770	7.701406	2.609307	-0.000308
 911	9.0545e+01	3.7266	57.597816	0.000790	7.904075	2.677973	-0.000316
 912	9.0644e+01	3.7010	57.299068	0.000750	7.498737	2.540641	-0.000300
 913	9.0744e+01	3.6577	57.004357	0.000740	7.397403	2.506308	-0.000296
 914	9.0844e+01	3.6063	56.669274	0.000841	8.410746	2.849638	-0.000337
 915	9.0943e+01	3.5758	56.390712	0.000699	6.992066	2.368976	-0.000280
 916	9.1043e+01	3.5454	56.075815	0.000790	7.904075	2.677973	-0.000316
 917	9.1142e+01	3.4908	55.785142	0.000730	7.296069	2.471975	-0.000292
 918	9.1242e+01	3.4507	55.474282	0.000780	7.802740	2.643640	-0.000312
 919	9.1341e+01	3.4122	55.151311	0.000811	8.106743	2.746639	-0.000325
 920	9.1441e+01	3.3769	54.884860	0.000669	6.688063	2.265977	-0.000268
 921	9.1540e+01	3.3288	54.553815	0.000831	8.309412	2.815305	-0.000333
 922	9.1639e+01	3.3047	54.238919	0.000790	7.904075	2.677973	-0.000316
 923	9.1739e+01	3.2550	53.976505	0.000659	6.586729	2.231644	-0.000264
 924	9.1838e+01	3.2133	53.641423	0.000841	8.410746	2.849638	-0.000337
 925	9.1938e+01	3.1748	53.338637	0.000760	7.600072	2.574974	-0.000304
 926	9.2037e+01	3.1363	53.056038	0.000709	7.093400	2.403309	-0.000284
 927	9.2137e+01	3.0994	52.753253	0.000760	7.600072	2.574974	-0.000304
 928	9.2237e+01	3.0641	52.434319	0.000801	8.005409	2.712306	-0.000321
 929	9.2336e+01	3.0111	52.119422	0.000790	7.904075	2.677973	-0.000316
 930	9.2436e+01	2.9759	51.832786	0.000719	7.194735	2.437642	-0.000288
 931	9.2535e+01	2.9374	51.469444	0.000912	9.120086	3.089969	-0.000365
 932	9.2635e+01	2.8908	51.235290	0.000588	5.877389	1.991313	-0.000235
 933	9.2734e+01	2.8507	50.855799	0.000953	9.525423	3.227301	-0.000381
 934	9.2834e+01	2.8122	50.520717	0.000841	8.410746	2.849638	-0.000337
 935	9.2933e+01	2.7769	50.262340	0.000649	6.485395	2.197311	-0.000260
 936	9.3032e+01	2.7464	49.959555	0.000760	7.600072	2.574974	-0.000304
 937	9.3132e+01	2.6951	49.636584	0.000811	8.106743	2.746639	-0.000325
 938	9.3231e+01	2.6502	49.317650	0.000801	8.005409	2.712306	-0.000321
 939	9.3331e+01	2.6101	49.031014	0.000719	7.194735	2.437642	-0.000288
 940	9.3430e+01	2.5748	48.708043	0.000811	8.106743	2.746639	-0.000325
 941	9.3530e+01	2.5427	48.336626	0.000932	9.322755	3.158635	-0.000373
 942	9.3629e+01	2.4930	48.058064	0.000699	6.992066	2.368976	-0.000280
 943	9.3729e+01	2.4577	47.743167	0.000790	7.904075	2.677973	-0.000316
 944	9.3829e+01	2.4240	47.440382	0.000760	7.600072	2.574974	-0.000304
 945	9.3928e+01	2.3807	47.089151	0.000882	8.816083	2.986970	-0.000353
 946	9.4028e+01	2.3470	46.778292	0.000780	7.802740	2.643640	-0.000312
 947	9.4127e+01	2.3021	46.467432	0.000780	7.802740	2.643640	-0.000312
 948	9.4227e+01	2.2668	46.184833	0.000709	7.093400	2.403309	-0.000284
 949	9.4326e+01	2.2106	45.845713	0.000851	8.512080	2.883971	-0.000341
 950	9.4425e+01	2.1705	45.506594	0.000851	8.512080	2.883971	-0.000341
 951	9.4525e+01	2.1481	45.211883	0.000740	7.397403	2.506308	-0.000296
 952	9.4624e+01	2.0999	44.876801	0.000841	8.410746	2.849638	-0.000337
 953	9.4724e+01	2.0566	44.598238	0.000699	6.992066	2.368976	-0.000280
 954	9.4823e+01	2.0133	44.259119	0.000851	8.512080	2.883971	-0.000341
 955	9.4923e+01	1.9812	43.911925	0.000871	8.714749	2.952637	-0.000349
 956	9.5022e+01	1.9379	43.617215	0.000740	7.397403	2.506308	-0.000296
 957	9.5122e+01	1.9010	43.318466	0.000750	7.498737	2.540641	-0.000300
 958	9.5222e+01	1.8625	42.967236	0.000882	8.816083	2.986970	-0.000353
 959	9.5321e+01	1.8144	42.680599	0.000719	7.194735	2.437642	-0.000288
 960	9.5421e+01	1.7839	42.345517	0.000841	8.410746	2.849638	-0.000337
 961	9.5520e+01	1.7454	42.026583	0.000801	8.005409	2.712306	-0.000321
 962	9.5620e+01	1.6941	41.671315	0.000892	8.917418	3.021303	-0.000357
 963	9.5719e+01	1.6700	41.408901	0.000659	6.586729	2.231644	-0.000264
 964	9.5819e+01	1.6219	41.033448	0.000942	9.424089	3.192968	-0.000377
 965	9.5918e+01	1.5866	40.771034	0.000659	6.586729	2.231644	-0.000264
 966	9.6017e+01	1.5417	40.415766	0.000892	8.917418	3.021303	-0.000357
 967	9.6117e+01	1.5032	40.161426	0.000638	6.384060	2.162978	-0.000256
 968	9.6216e+01	1.4582	39.773861	0.000973	9.728092	3.295967	-0.000390
 969	9.6316e+01	1.4133	39.467039	0.000770	7.701406	2.609307	-0.000308
 970	9.6415e+01	1.3812	39.152142	0.000790	7.904075	2.677973	-0.000316
 971	9.6515e+01	1.3427	38.845320	0.000770	7.701406	2.609307	-0.000308
 972	9.6615e+01	1.3058	38.469866	0.000942	9.424089	3.192968	-0.000377
 973	9.6714e+01	1.2641	38.154970	0.000790	7.904075	2.677973	-0.000316
 974	9.6814e+01	1.2224	37.823925	0.000831	8.309412	2.815305	-0.000333
 975	9.6913e+01	1.1871	37.525177	0.000750	7.498737	2.540641	-0.000300
 976	9.7013e+01	1.1422	37.190094	0.000841	8.410746	2.849638	-0.000337
 977	9.7112e+01	1.1037	36.855012	0.000841	8.410746	2.849638	-0.000337
 978	9.7212e+01	1.0588	36.544153	0.000780	7.802740	2.643640	-0.000312
 979	9.7311e+01	1.0155	36.237330	0.000770	7.701406	2.609307	-0.000308
 980	9.7410e+01	0.9818	35.886100	0.000882	8.816083	2.986970	-0.000353
 981	9.7510e+01	0.9449	35.571203	0.000790	7.904075	2.677973	-0.000316
 982	9.7609e+01	0.8984	35.272455	0.000750	7.498737	2.540641	-0.000300
 983	9.7709e+01	0.8663	34.953521	0.000801	8.005409	2.712306	-0.000321
 984	9.7808e+01	0.8166	34.618439	0.000841	8.410746	2.849638	-0.000337
 985	9.7908e+01	0.7957	34.259134	0.000902	9.018752	3.055636	-0.000361
 986	9.8007e+01	0.7476	33.956349	0.000760	7.600072	2.574974	-0.000304
 987	9.8107e+01	0.6962	33.653564	0.000760	7.600072	2.574974	-0.000304
 988	9.8207e+01	0.6658	33.330593	0.000811	8.106743	2.746639	-0.000325
 989	9.8306e+01	0.6224	32.963213	0.000922	9.221420	3.124302	-0.000369
 990	9.8406e+01	0.5936	32.672540	0.000730	7.296069	2.471975	-0.000292
 991	9.8505e+01	0.5470	32.361680	0.000780	7.802740	2.643640	-0.000312
 992	9.8605e+01	0.5037	32.030635	0.000831	8.309412	2.815305	-0.000333
 993	9.8704e+01	0.4652	31.667293	0.000912	9.120086	3.089969	-0.000365
 994	9.8803e+01	0.4283	31.368545	0.000750	7.498737	2.540641	-0.000300
 995	9.8903e+01	0.3946	31.033462	0.000841	8.410746	2.849638	-0.000337
 996	9.9002e+01	0.3513	30.710492	0.000811	8.106743	2.746639	-0.000325
 997	9.9102e+01	0.3000	30.383484	0.000821	8.208078	2.780972	-0.000329
 998	9.9201e+01	0.2599	30.052438	0.000831	8.309412	2.815305	-0.000333
 999	9.9301e+01	0.2246	29.745616	0.000770	7.701406	2.609307	-0.000308
1000	9.9400e+01	0.1877	29.434757	0.000780	7.802740	2.643640	-0.000312
1001	9.9500e+01	0.1492	29.055266	0.000953	9.525423	3.227301	-0.000381
1002	9.9600e+01	0.1075	28.744406	0.000780	7.802740	2.643640	-0.000312
1003	9.9699e+01	0.0658	28.385101	0.000902	9.018752	3.055636	-0.000361
1004	9.9799e+01	0.0273	28.050019	0.000841	8.410746	2.849638	-0.000337
1005	9.9898e+01	-0.0096	27.799717	0.000628	6.282726	2.128645	-0.000252
1006	9.9998e+01	-0.0497	27.476746	0.000811	8.106743	2.746639	-0.000325
1007	1.0010e+02	-0.0866	27.101292	0.000942	9.424089	3.192968	-0.000377
1008	1.0020e+02	-0.1267	26.802544	0.000750	7.498737	2.540641	-0.000300
1009	1.0030e+02	-0.1684	26.499759	0.000760	7.600072	2.574974	-0.000304
1010	1.0040e+02	-0.2037	26.152565	0.000871	8.714749	2.952637	-0.000349
1011	1.0050e+02	-0.2438	25.845743	0.000770	7.701406	2.609307	-0.000308
1012	1.0059e+02	-0.2888	25.494512	0.000882	8.816083	2.986970	-0.000353
1013	1.0069e+02	-0.3289	25.203838	0.000730	7.296069	2.471975	-0.000292
1014	1.0079e+02	-0.3577	24.868756	0.000841	8.410746	2.849638	-0.000337
1015	1.0089e+02	-0.3995	24.513488	0.000892	8.917418	3.021303	-0.000357
1016	1.0099e+02	-0.4492	24.190517	0.000811	8.106743	2.746639	-0.000325
1017	1.0109e+02	-0.4861	23.843324	0.000871	8.714749	2.952637	-0.000349
1018	1.0119e+02	-0.5214	23.504204	0.000851	8.512080	2.883971	-0.000341
1019	1.0129e+02	-0.5615	23.193345	0.000780	7.802740	2.643640	-0.000312
1020	1.0139e+02	-0.6080	22.846151	0.000871	8.714749	2.952637	-0.000349
1021	1.0149e+02	-0.6497	22.599886	0.000618	6.181392	2.094312	-0.000248
1022	1.0159e+02	-0.6786	22.196172	0.001013	10.133429	3.433299	-0.000406
1023	1.0169e+02	-0.7235	21.933758	0.000659	6.586729	2.231644	-0.000264
1024	1.0179e+02	-0.7556	21.530045	0.001013	10.133429	3.433299	-0.000406
1025	1.0189e+02	-0.8021	21.235334	0.000740	7.397403	2.506308	-0.000296
1026	1.0199e+02	-0.8438	20.908326	0.000821	8.208078	2.780972	-0.000329
1027	1.0209e+02	-0.8855	20.557095	0.000882	8.816083	2.986970	-0.000353
1028	1.0219e+02	-0.9224	20.246236	0.000780	7.802740	2.643640	-0.000312
1029	1.0229e+02	-0.9641	19.882894	0.000912	9.120086	3.089969	-0.000365
1030	1.0239e+02	-0.9930	19.592220	0.000730	7.296069	2.471975	-0.000292
1031	1.0248e+02	-1.0428	19.236952	0.000892	8.917418	3.021303	-0.000357
1032	1.0258e+02	-1.0796	18.922055	0.000790	7.904075	2.677973	-0.000316
1033	1.0268e+02	-1.1278	18.570824	0.000882	8.816083	2.986970	-0.000353
1034	1.0278e+02	-1.1679	18.255928	0.000790	7.904075	2.677973	-0.000316
1035	1.0288e+02	-1.2048	17.924883	0.000831	8.309412	2.815305	-0.000333
1036	1.0298e+02	-1.2304	17.557503	0.000922	9.221420	3.124302	-0.000369
1037	1.0308e+02	-1.2786	17.242607	0.000790	7.904075	2.677973	-0.000316
1038	1.0318e+02	-1.3155	16.923673	0.000801	8.005409	2.712306	-0.000321
1039	1.0328e+02	-1.3700	16.588591	0.000841	8.410746	2.849638	-0.000337
1040	1.0338e+02	-1.4037	16.281768	0.000770	7.701406	2.609307	-0.000308
1041	1.0348e+02	-1.4390	15.906315	0.000942	9.424089	3.192968	-0.000377
1042	1.0358e+02	-1.4807	15.587381	0.000801	8.005409	2.712306	-0.000321
1043	1.0368e+02	-1.5208	15.224039	0.000912	9.120086	3.089969	-0.000365
1044	1.0378e+02	-1.5593	14.953551	0.000679	6.789397	2.300310	-0.000272
1045	1.0388e+02	-1.5962	14.590209	0.000912	9.120086	3.089969	-0.000365
1046	1.0398e+02	-1.6427	14.263201	0.000821	8.208078	2.780972	-0.000329
1047	1.0408e+02	-1.6844	13.952341	0.000780	7.802740	2.643640	-0.000312
1048	1.0418e+02	-1.7117	13.645519	0.000770	7.701406	2.609307	-0.000308
1049	1.0428e+02	-1.7582	13.249879	0.000993	9.930760	3.364633	-0.000398
1050	1.0438e+02	-1.7999	12.967280	0.000709	7.093400	2.403309	-0.000284
1051	1.0447e+02	-1.8433	12.628161	0.000851	8.512080	2.883971	-0.000341
1052	1.0457e+02	-1.8721	12.260781	0.000922	9.221420	3.124302	-0.000369
1053	1.0467e+02	-1.9235	11.974145	0.000719	7.194735	2.437642	-0.000288
1054	1.0477e+02	-1.9636	11.622914	0.000882	8.816083	2.986970	-0.000353
1055	1.0487e+02	-1.9941	11.231312	0.000983	9.829426	3.330300	-0.000394
1056	1.0497e+02	-2.0358	10.972935	0.000649	6.485395	2.197311	-0.000260
1057	1.0507e+02	-2.0775	10.609593	0.000912	9.120086	3.089969	-0.000365
1058	1.0517e+02	-2.1176	10.331030	0.000699	6.992066	2.368976	-0.000280
1059	1.0527e+02	-2.1545	9.947502	0.000963	9.626758	3.261634	-0.000385
1060	1.0537e+02	-2.1946	9.600309	0.000871	8.714749	2.952637	-0.000349
1061	1.0547e+02	-2.2331	9.309635	0.000730	7.296069	2.471975	-0.000292
1062	1.0557e+02	-2.2796	8.966478	0.000861	8.613415	2.918304	-0.000345
1063	1.0567e+02	-2.3213	8.671768	0.000740	7.397403	2.506308	-0.000296
1064	1.0577e+02	-2.3582	8.312462	0.000902	9.018752	3.055636	-0.000361
1065	1.0587e+02	-2.4015	7.957195	0.000892	8.917418	3.021303	-0.000357
1066	1.0597e+02	-2.4449	7.634224	0.000811	8.106743	2.746639	-0.000325
1067	1.0607e+02	-2.4689	7.331439	0.000760	7.600072	2.574974	-0.000304
1068	1.0617e+02	-2.5186	7.004431	0.000821	8.208078	2.780972	-0.000329
1069	1.0627e+02	-2.5588	6.669348	0.000841	8.410746	2.849638	-0.000337
1070	1.0637e+02	-2.6005	6.306006	0.000912	9.120086	3.089969	-0.000365
1071	1.0647e+02	-2.6358	5.991109	0.000790	7.904075	2.677973	-0.000316
1072	1.0656e+02	-2.6823	5.651990	0.000851	8.512080	2.883971	-0.000341
1073	1.0666e+02	-2.7192	5.353242	0.000750	7.498737	2.540641	-0.000300
1074	1.0676e+02	-2.7513	5.010085	0.000861	8.613415	2.918304	-0.000345
1075	1.0686e+02	-2.8026	4.586186	0.001064	10.640100	3.604964	-0.000426
1076	1.0696e+02	-2.8347	4.327810	0.000649	6.485395	2.197311	-0.000260
1077	1.0706e+02	-2.8748	3.988690	0.000851	8.512080	2.883971	-0.000341
1078	1.0716e+02	-2.9197	3.661682	0.000821	8.208078	2.780972	-0.000329
1079	1.0726e+02	-2.9550	3.330637	0.000831	8.309412	2.815305	-0.000333
1080	1.0736e+02	-2.9951	2.991518	0.000851	8.512080	2.883971	-0.000341
1081	1.0746e+02	-3.0352	2.664510	0.000821	8.208078	2.780972	-0.000329
1082	1.0756e+02	-3.0737	2.365762	0.000750	7.498737	2.540641	-0.000300
1083	1.0766e+02	-3.1202	2.034716	0.000831	8.309412	2.815305	-0.000333
1084	1.0776e+02	-3.1475	1.667337	0.000922	9.221420	3.124302	-0.000369
1085	1.0786e+02	-3.1940	1.360515	0.000770	7.701406	2.609307	-0.000308
1086	1.0796e+02	-3.2406	1.033507	0.000821	8.208078	2.780972	-0.000329
1087	1.0806e+02	-3.2807	0.706499	0.000821	8.208078	2.780972	-0.000329
1088	1.0816e+02	-3.3143	0.335082	0.000932	9.322755	3.158635	-0.000373
1089	1.0826e+02	-3.3545	0.072668	0.000659	6.586729	2.231644	-0.000264
1090	1.0836e+02	-3.3897	-0.290674	0.000912	9.120086	3.089969	-0.000365
1091	1.0845e+02	-3.4218	-0.621719	0.000831	8.309412	2.815305	-0.000333
1092	1.0855e+02	-3.4764	-0.940653	0.000801	8.005409	2.712306	-0.000321
1093	1.0865e+02	-3.5133	-1.259586	0.000801	8.005409	2.712306	-0.000321
1094	1.0875e+02	-3.5454	-1.574483	0.000790	7.904075	2.677973	-0.000316
1095	1.0885e+02	-3.5855	-1.905528	0.000831	8.309412	2.815305	-0.000333
1096	1.0895e+02	-3.6304	-2.260796	0.000892	8.917418	3.021303	-0.000357
1097	1.0905e+02	-3.6817	-2.583767	0.000811	8.106743	2.746639	-0.000325
1098	1.0915e+02	-3.7170	-2.858292	0.000689	6.890732	2.334643	-0.000276
1099	1.0925e+02	-3.7555	-3.213560	0.000892	8.917418	3.021303	-0.000357
1100	1.0935e+02	-3.7956	-3.508271	0.000740	7.397403	2.506308	-0.000296
1101	1.0945e+02	-3.8277	-3.827205	0.000801	8.005409	2.712306	-0.000321
1102	1.0955e+02	-3.8742	-4.166324	0.000851	8.512080	2.883971	-0.000341
1103	1.0965e+02	-3.9111	-4.513518	0.000871	8.714749	2.952637	-0.000349
1104	1.0975e+02	-3.9560	-4.860711	0.000871	8.714749	2.952637	-0.000349
1105	1.0985e+02	-3.9961	-5.167534	0.000770	7.701406	2.609307	-0.000308
1106	1.0995e+02	-4.0314	-5.518765	0.000882	8.816083	2.986970	-0.000353
1107	1.1005e+02	-4.0699	-5.781178	0.000659	6.586729	2.231644	-0.000264
1108	1.1015e+02	-4.1084	-6.108186	0.000821	8.208078	2.780972	-0.000329
1109	1.1025e+02	-4.1437	-6.459417	0.000882	8.816083	2.986970	-0.000353
1110	1.1035e+02	-4.1935	-6.754128	0.000740	7.397403	2.506308	-0.000296
1111	1.1044e+02	-4.2304	-7.085173	0.000831	8.309412	2.815305	-0.000333
1112	1.1054e+02	-4.2673	-7.428330	0.000861	8.613415	2.918304	-0.000345
1113	1.1064e+02	-4.3090	-7.751301	0.000811	8.106743	2.746639	-0.000325
1114	1.1074e+02	-4.3507	-8.033900	0.000709	7.093400	2.403309	-0.000284
1115	1.1084e+02	-4.3972	-8.401279	0.000922	9.221420	3.124302	-0.000369
1116	1.1094e+02	-4.4325	-8.728287	0.000821	8.208078	2.780972	-0.000329
1117	1.1104e+02	-4.4662	-9.039147	0.000780	7.802740	2.643640	-0.000312
1118	1.1114e+02	-4.5159	-9.366155	0.000821	8.208078	2.780972	-0.000329
1119	1.1124e+02	-4.5512	-9.644717	0.000699	6.992066	2.368976	-0.000280
1120	1.1134e+02	-4.5801	-9.995948	0.000882	8.816083	2.986970	-0.000353
1121	1.1144e+02	-4.6250	-10.278548	0.000709	7.093400	2.403309	-0.000284
1122	1.1154e+02	-4.6667	-10.605556	0.000821	8.208078	2.780972	-0.000329
1123	1.1164e+02	-4.7100	-10.940638	0.000841	8.410746	2.849638	-0.000337
1124	1.1174e+02	-4.7566	-11.283794	0.000861	8.613415	2.918304	-0.000345
1125	1.1184e+02	-4.7886	-11.497763	0.000537	5.370717	1.819648	-0.000215
1126	1.1194e+02	-4.8352	-11.909550	0.001034	10.336098	3.501965	-0.000414
1127	1.1204e+02	-4.8576	-12.176001	0.000669	6.688063	2.265977	-0.000268
1128	1.1214e+02	-4.9090	-12.478787	0.000760	7.600072	2.574974	-0.000304
1129	1.1224e+02	-4.9507	-12.846166	0.000922	9.221420	3.124302	-0.000369
1130	1.1234e+02	-4.9795	-13.124728	0.000699	6.992066	2.368976	-0.000280
1131	1.1244e+02	-5.0180	-13.492108	0.000922	9.221420	3.124302	-0.000369
1132	1.1253e+02	-5.0726	-13.790856	0.000750	7.498737	2.540641	-0.000300
1133	1.1263e+02	-5.1031	-14.061344	0.000679	6.789397	2.300310	-0.000272
1134	1.1273e+02	-5.1576	-14.424686	0.000912	9.120086	3.089969	-0.000365
1135	1.1283e+02	-5.1849	-14.715360	0.000730	7.296069	2.471975	-0.000292
1136	1.1293e+02	-5.2170	-15.022182	0.000770	7.701406	2.609307	-0.000308
1137	1.1303e+02	-5.2683	-15.333042	0.000780	7.802740	2.643640	-0.000312
1138	1.1313e+02	-5.3004	-15.656012	0.000811	8.106743	2.746639	-0.000325
1139	1.1323e+02	-5.3501	-15.954760	0.000750	7.498737	2.540641	-0.000300
1140	1.1333e+02	-5.3854	-16.289843	0.000841	8.410746	2.849638	-0.000337
1141	1.1343e+02	-5.4239	-16.560331	0.000679	6.789397	2.300310	-0.000272
1142	1.1353e+02	-5.4752	-16.863116	0.000760	7.600072	2.574974	-0.000304
1143	1.1363e+02	-5.5009	-17.214347	0.000882	8.816083	2.986970	-0.000353
1144	1.1373e+02	-5.5442	-17.492909	0.000699	6.992066	2.368976	-0.000280
1145	1.1383e+02	-5.5875	-17.852214	0.000902	9.018752	3.055636	-0.000361
1146	1.1393e+02	-5.6293	-18.146925	0.000740	7.397403	2.506308	-0.000296
1147	1.1403e+02	-5.6645	-18.449710	0.000760	7.600072	2.574974	-0.000304
1148	1.1413e+02	-5.6982	-18.736347	0.000719	7.194735	2.437642	-0.000288
1149	1.1423e+02	-5.7399	-19.027021	0.000730	7.296069	2.471975	-0.000292
1150	1.1433e+02	-5.7849	-19.366140	0.000851	8.512080	2.883971	-0.000341
1151	1.1442e+02	-5.8234	-19.668925	0.000760	7.600072	2.574974	-0.000304
1152	1.1452e+02	-5.8651	-19.967673	0.000750	7.498737	2.540641	-0.000300
1153	1.1462e+02	-5.9068	-20.242199	0.000689	6.890732	2.334643	-0.000276
1154	1.1472e+02	-5.9437	-20.597467	0.000892	8.917418	3.021303	-0.000357
1155	1.1482e+02	-5.9934	-20.871992	0.000689	6.890732	2.334643	-0.000276
1156	1.1492e+02	-6.0255	-21.174777	0.000760	7.600072	2.574974	-0.000304
1157	1.1502e+02	-6.0608	-21.517933	0.000861	8.613415	2.918304	-0.000345
1158	1.1512e+02	-6.1073	-21.796496	0.000699	6.992066	2.368976	-0.000280
1159	1.1522e+02	-6.1474	-22.103318	0.000770	7.701406	2.609307	-0.000308
1160	1.1532e+02	-6.1859	-22.377843	0.000689	6.890732	2.334643	-0.000276
1161	1.1542e+02	-6.2276	-22.680629	0.000760	7.600072	2.574974	-0.000304
1162	1.1552e+02	-6.2645	-23.003599	0.000811	8.106743	2.746639	-0.000325
1163	1.1562e+02	-6.3046	-23.294273	0.000730	7.296069	2.471975	-0.000292
1164	1.1572e+02	-6.3367	-23.597058	0.000760	7.600072	2.574974	-0.000304
1165	1.1582e+02	-6.3800	-23.911955	0.000790	7.904075	2.677973	-0.000316
1166	1.1592e+02	-6.4266	-24.214740	0.000760	7.600072	2.574974	-0.000304
1167	1.1602e+02	-6.4506	-24.465043	0.000628	6.282726	2.128645	-0.000252
1168	1.1612e+02	-6.5004	-24.747642	0.000709	7.093400	2.403309	-0.000284
1169	1.1622e+02	-6.5421	-25.074650	0.000821	8.208078	2.780972	-0.000329
1170	1.1632e+02	-6.5790	-25.397621	0.000811	8.106743	2.746639	-0.000325
1171	1.1642e+02	-6.6110	-25.696369	0.000750	7.498737	2.540641	-0.000300
1172	1.1651e+02	-6.6544	-25.983006	0.000719	7.194735	2.437642	-0.000288
1173	1.1661e+02	-6.7105	-26.253494	0.000679	6.789397	2.300310	-0.000272
1174	1.1671e+02	-6.7394	-26.572427	0.000801	8.005409	2.712306	-0.000321
1175	1.1681e+02	-6.7779	-26.887324	0.000790	7.904075	2.677973	-0.000316
1176	1.1691e+02	-6.8180	-27.161849	0.000689	6.890732	2.334643	-0.000276
1177	1.1701e+02	-6.8485	-27.488857	0.000821	8.208078	2.780972	-0.000329
1178	1.1711e+02	-6.9046	-27.751271	0.000659	6.586729	2.231644	-0.000264
1179	1.1721e+02	-6.9383	-28.041945	0.000730	7.296069	2.471975	-0.000292
1180	1.1731e+02	-6.9800	-28.360879	0.000801	8.005409	2.712306	-0.000321
1181	1.1741e+02	-7.0169	-28.647515	0.000719	7.194735	2.437642	-0.000288
1182	1.1751e+02	-7.0570	-28.954338	0.000770	7.701406	2.609307	-0.000308
1183	1.1761e+02	-7.1068	-29.232900	0.000699	6.992066	2.368976	-0.000280
1184	1.1771e+02	-7.1372	-29.487239	0.000638	6.384060	2.162978	-0.000256
1185	1.1781e+02	-7.1757	-29.781950	0.000740	7.397403	2.506308	-0.000296
1186	1.1791e+02	-7.2174	-30.112995	0.000831	8.309412	2.815305	-0.000333
1187	1.1801e+02	-7.2559	-30.411744	0.000750	7.498737	2.540641	-0.000300
1188	1.1811e+02	-7.2977	-30.674157	0.000659	6.586729	2.231644	-0.000264
1189	1.1821e+02	-7.3474	-30.980980	0.000770	7.701406	2.609307	-0.000308
1190	1.1831e+02	-7.3731	-31.271653	0.000730	7.296069	2.471975	-0.000292
1191	1.1841e+02	-7.4180	-31.578476	0.000770	7.701406	2.609307	-0.000308
1192	1.1850e+02	-7.4565	-31.857038	0.000699	6.992066	2.368976	-0.000280
1193	1.1860e+02	-7.4982	-32.135600	0.000699	6.992066	2.368976	-0.000280
1194	1.1870e+02	-7.5319	-32.406089	0.000679	6.789397	2.300310	-0.000272
1195	1.1880e+02	-7.5704	-32.725022	0.000801	8.005409	2.712306	-0.000321
1196	1.1890e+02	-7.6089	-33.015696	0.000730	7.296069	2.471975	-0.000292
1197	1.1900e+02	-7.6522	-33.282147	0.000669	6.688063	2.265977	-0.000268
1198	1.1910e+02	-7.7019	-33.560709	0.000699	6.992066	2.368976	-0.000280
1199	1.1920e+02	-7.7292	-33.843309	0.000709	7.093400	2.403309	-0.000284
1200	1.1930e+02	-7.7709	-34.117834	0.000689	6.890732	2.334643	-0.000276
1201	1.1940e+02	-7.8110	-34.493288	0.000942	9.424089	3.192968	-0.000377
1202	1.1950e+02	-7.8383	-34.731479	0.000598	5.978723	2.025646	-0.000239
1203	1.1960e+02	-7.8912	-35.001967	0.000679	6.789397	2.300310	-0.000272
1204	1.1970e+02	-7.9474	-35.312826	0.000780	7.802740	2.643640	-0.000312
1205	1.1980e+02	-7.9778	-35.599463	0.000719	7.194735	2.437642	-0.000288
1206	1.1990e+02	-8.0196	-35.898211	0.000750	7.498737	2.540641	-0.000300
1207	1.2000e+02	-8.0516	-36.168699	0.000679	6.789397	2.300310	-0.000272
1208	1.2010e+02	-8.0901	-36.443224	0.000689	6.890732	2.334643	-0.000276
1209	1.2020e+02	-8.1286	-36.746009	0.000760	7.600072	2.574974	-0.000304
1210	1.2030e+02	-8.1704	-37.028609	0.000709	7.093400	2.403309	-0.000284
1211	1.2039e+02	-8.2121	-37.315246	0.000719	7.194735	2.437642	-0.000288
1212	1.2049e+02	-8.2554	-37.626105	0.000780	7.802740	2.643640	-0.000312
1213	1.2059e+02	-8.2875	-37.908705	0.000709	7.093400	2.403309	-0.000284
1214	1.2069e+02	-8.3372	-38.163044	0.000638	6.384060	2.162978	-0.000256
1215	1.2079e+02	-8.3757	-38.481978	0.000801	8.005409	2.712306	-0.000321
1216	1.2089e+02	-8.4142	-38.716132	0.000588	5.877389	1.991313	-0.000235
1217	1.2099e+02	-8.4463	-39.031028	0.000790	7.904075	2.677973	-0.000316
1218	1.2109e+02	-8.4944	-39.301516	0.000679	6.789397	2.300310	-0.000272
1219	1.2119e+02	-8.5361	-39.592190	0.000730	7.296069	2.471975	-0.000292
1220	1.2129e+02	-8.5698	-39.894975	0.000760	7.600072	2.574974	-0.000304
1221	1.2139e+02	-8.6115	-40.121055	0.000567	5.674720	1.922647	-0.000227
1222	1.2149e+02	-8.6548	-40.456137	0.000841	8.410746	2.849638	-0.000337
1223	1.2159e+02	-8.6901	-40.738737	0.000709	7.093400	2.403309	-0.000284
1224	1.2169e+02	-8.7286	-41.013262	0.000689	6.890732	2.334643	-0.000276
1225	1.2179e+02	-8.7735	-41.279713	0.000669	6.688063	2.265977	-0.000268
1226	1.2189e+02	-8.8137	-41.566350	0.000719	7.194735	2.437642	-0.000288
1227	1.2199e+02	-8.8570	-41.865098	0.000750	7.498737	2.540641	-0.000300
1228	1.2209e+02	-8.8778	-42.135586	0.000679	6.789397	2.300310	-0.000272
1229	1.2219e+02	-8.9260	-42.418185	0.000709	7.093400	2.403309	-0.000284
1230	1.2229e+02	-8.9725	-42.708859	0.000730	7.296069	2.471975	-0.000292
1231	1.2239e+02	-9.0062	-42.975310	0.000669	6.688063	2.265977	-0.000268
1232	1.2248e+02	-9.0527	-43.257909	0.000709	7.093400	2.403309	-0.000284
1233	1.2258e+02	-9.0928	-43.544546	0.000719	7.194735	2.437642	-0.000288
1234	1.2268e+02	-9.1329	-43.802923	0.000649	6.485395	2.197311	-0.000260
1235	1.2278e+02	-9.1778	-44.109745	0.000770	7.701406	2.609307	-0.000308
1236	1.2288e+02	-9.1955	-44.380233	0.000679	6.789397	2.300310	-0.000272
1237	1.2298e+02	-9.2452	-44.654758	0.000689	6.890732	2.334643	-0.000276
1238	1.2308e+02	-9.2821	-44.965618	0.000780	7.802740	2.643640	-0.000312
1239	1.2318e+02	-9.3286	-45.244180	0.000699	6.992066	2.368976	-0.000280
1240	1.2328e+02	-9.3623	-45.542928	0.000750	7.498737	2.540641	-0.000300
1241	1.2338e+02	-9.4072	-45.833602	0.000730	7.296069	2.471975	-0.000292
1242	1.2348e+02	-9.4537	-46.116202	0.000709	7.093400	2.403309	-0.000284
1243	1.2358e+02	-9.4922	-46.366504	0.000628	6.282726	2.128645	-0.000252
1244	1.2368e+02	-9.5340	-46.657178	0.000730	7.296069	2.471975	-0.000292
1245	1.2378e+02	-9.5692	-46.947851	0.000730	7.296069	2.471975	-0.000292
1246	1.2388e+02	-9.6045	-47.226414	0.000699	6.992066	2.368976	-0.000280
1247	1.2398e+02	-9.6446	-47.504976	0.000699	6.992066	2.368976	-0.000280
1248	1.2408e+02	-9.6880	-47.763353	0.000649	6.485395	2.197311	-0.000260
1249	1.2418e+02	-9.7265	-48.074212	0.000780	7.802740	2.643640	-0.000312
1250	1.2428e+02	-9.7682	-48.320478	0.000618	6.181392	2.094312	-0.000248
1251	1.2438e+02	-9.7987	-48.595003	0.000689	6.890732	2.334643	-0.000276
1252	1.2447e+02	-9.8484	-48.885677	0.000730	7.296069	2.471975	-0.000292
1253	1.2457e+02	-9.8853	-49.184425	0.000750	7.498737	2.540641	-0.000300
1254	1.2467e+02	-9.9174	-49.462987	0.000699	6.992066	2.368976	-0.000280
1255	1.2477e+02	-9.9671	-49.697141	0.000588	5.877389	1.991313	-0.000235
1256	1.2487e+02	-10.0104	-50.012038	0.000790	7.904075	2.677973	-0.000316
1257	1.2497e+02	-10.0457	-50.270414	0.000649	6.485395	2.197311	-0.000260
1258	1.2507e+02	-10.0842	-50.577237	0.000770	7.701406	2.609307	-0.000308
1259	1.2517e+02	-10.1243	-50.827539	0.000628	6.282726	2.128645	-0.000252
1260	1.2527e+02	-10.1644	-51.134361	0.000770	7.701406	2.609307	-0.000308
1261	1.2537e+02	-10.2029	-51.420998	0.000719	7.194735	2.437642	-0.000288
1262	1.2547e+02	-10.2462	-51.711672	0.000730	7.296069	2.471975	-0.000292
1263	1.2557e+02	-10.2863	-51.966011	0.000638	6.384060	2.162978	-0.000256
1264	1.2567e+02	-10.3264	-52.260722	0.000740	7.397403	2.506308	-0.000296
1265	1.2577e+02	-10.3682	-52.486802	0.000567	5.674720	1.922647	-0.000227
1266	1.2587e+02	-10.4067	-52.777476	0.000730	7.296069	2.471975	-0.000292
1267	1.2597e+02	-10.4436	-53.043926	0.000669	6.688063	2.265977	-0.000268
1268	1.2607e+02	-10.4837	-53.326526	0.000709	7.093400	2.403309	-0.000284
1269	1.2617e+02	-10.5254	-53.613163	0.000719	7.194735	2.437642	-0.000288
1270	1.2627e+02	-10.5687	-53.859428	0.000618	6.181392	2.094312	-0.000248
1271	1.2636e+02	-10.6088	-54.222770	0.000912	9.120086	3.089969	-0.000365
1272	1.2646e+02	-10.6425	-54.448850	0.000567	5.674720	1.922647	-0.000227
1273	1.2656e+02	-10.6922	-54.747598	0.000750	7.498737	2.540641	-0.000300
1274	1.2666e+02	-10.7147	-54.993863	0.000618	6.181392	2.094312	-0.000248
1275	1.2676e+02	-10.7580	-55.308760	0.000790	7.904075	2.677973	-0.000316
1276	1.2686e+02	-10.7933	-55.563099	0.000638	6.384060	2.162978	-0.000256
1277	1.2696e+02	-10.8510	-55.825513	0.000659	6.586729	2.231644	-0.000264
1278	1.2706e+02	-10.8863	-56.116187	0.000730	7.296069	2.471975	-0.000292
1279	1.2716e+02	-10.9216	-56.406861	0.000730	7.296069	2.471975	-0.000292
1280	1.2726e+02	-10.9633	-56.693497	0.000719	7.194735	2.437642	-0.000288
1281	1.2736e+02	-11.0018	-56.951874	0.000649	6.485395	2.197311	-0.000260
1282	1.2746e+02	-11.0435	-57.246585	0.000740	7.397403	2.506308	-0.000296
1283	1.2756e+02	-11.0949	-57.484776	0.000598	5.978723	2.025646	-0.000239
1284	1.2766e+02	-11.1334	-57.819858	0.000841	8.410746	2.849638	-0.000337
1285	1.2776e+02	-11.1639	-58.025752	0.000517	5.168049	1.750982	-0.000207
1286	1.2786e+02	-11.2088	-58.296240	0.000679	6.789397	2.300310	-0.000272
1287	1.2796e+02	-11.2409	-58.578840	0.000709	7.093400	2.403309	-0.000284
1288	1.2806e+02	-11.2810	-58.873550	0.000740	7.397403	2.506308	-0.000296
1289	1.2816e+02	-11.3195	-59.156150	0.000709	7.093400	2.403309	-0.000284
1290	1.2826e+02	-11.3548	-59.418564	0.000659	6.586729	2.231644	-0.000264
1291	1.2835e+02	-11.3965	-59.705200	0.000719	7.194735	2.437642	-0.000288
1292	1.2845e+02	-11.4318	-59.955503	0.000628	6.282726	2.128645	-0.000252
1293	1.2855e+02	-11.4751	-60.250214	0.000740	7.397403	2.506308	-0.000296
1294	1.2865e+02	-11.5056	-60.508590	0.000649	6.485395	2.197311	-0.000260
1295	1.2875e+02	-11.5569	-60.775041	0.000669	6.688063	2.265977	-0.000268
1296	1.2885e+02	-11.5922	-61.037455	0.000659	6.586729	2.231644	-0.000264
1297	1.2895e+02	-11.6291	-61.332166	0.000740	7.397403	2.506308	-0.000296
1298	1.2905e+02	-11.6740	-61.550171	0.000547	5.472052	1.853981	-0.000219
1299	1.2915e+02	-11.7221	-61.844882	0.000740	7.397403	2.506308	-0.000296
1300	1.2925e+02	-11.7526	-62.127482	0.000709	7.093400	2.403309	-0.000284
1301	1.2935e+02	-11.7911	-62.430267	0.000760	7.600072	2.574974	-0.000304
1302	1.2945e+02	-11.8376	-62.664421	0.000588	5.877389	1.991313	-0.000235
1303	1.2955e+02	-11.8826	-62.930872	0.000669	6.688063	2.265977	-0.000268
1304	1.2965e+02	-11.9098	-63.205397	0.000689	6.890732	2.334643	-0.000276
1305	1.2975e+02	-11.9563	-63.483959	0.000699	6.992066	2.368976	-0.000280
1306	1.2985e+02	-11.9884	-63.762522	0.000699	6.992066	2.368976	-0.000280
1307	1.2995e+02	-12.0366	-64.037047	0.000689	6.890732	2.334643	-0.000276
1308	1.3005e+02	-12.0799	-64.283312	0.000618	6.181392	2.094312	-0.000248
1309	1.3015e+02	-12.1055	-64.553800	0.000679	6.789397	2.300310	-0.000272
1310	1.3025e+02	-12.1569	-64.832363	0.000699	6.992066	2.368976	-0.000280
1311	1.3034e+02	-12.2034	-65.118999	0.000719	7.194735	2.437642	-0.000288
1312	1.3044e+02	-12.2307	-65.389488	0.000679	6.789397	2.300310	-0.000272
1313	1.3054e+02	-12.2756	-65.603456	0.000537	5.370717	1.819648	-0.000215
1314	1.3064e+02	-12.3173	-65.922389	0.000801	8.005409	2.712306	-0.000321
1315	1.3074e+02	-12.3638	-66.144432	0.000557	5.573386	1.888314	-0.000223
1316	1.3084e+02	-12.3975	-66.447217	0.000760	7.600072	2.574974	-0.000304
1317	1.3094e+02	-12.4408	-66.725779	0.000699	6.992066	2.368976	-0.000280
1318	1.3104e+02	-12.4825	-66.976082	0.000628	6.282726	2.128645	-0.000252
1319	1.3114e+02	-12.5098	-67.218310	0.000608	6.080057	2.059979	-0.000243
1320	1.3124e+02	-12.5579	-67.484761	0.000669	6.688063	2.265977	-0.000268
1321	1.3134e+02	-12.6045	-67.739101	0.000638	6.384060	2.162978	-0.000256
1322	1.3144e+02	-12.6285	-68.013626	0.000689	6.890732	2.334643	-0.000276
1323	1.3154e+02	-12.6718	-68.272002	0.000649	6.485395	2.197311	-0.000260
1324	1.3164e+02	-12.7151	-68.586899	0.000790	7.904075	2.677973	-0.000316
1325	1.3174e+02	-12.7520	-68.817016	0.000578	5.776055	1.956980	-0.000231
1326	1.3184e+02	-12.8034	-69.055207	0.000598	5.978723	2.025646	-0.000239
1327	1.3194e+02	-12.8307	-69.353955	0.000750	7.498737	2.540641	-0.000300
1328	1.3204e+02	-12.8756	-69.620406	0.000669	6.688063	2.265977	-0.000268
1329	1.3214e+02	-12.9125	-69.903005	0.000709	7.093400	2.403309	-0.000284
1330	1.3224e+02	-12.9606	-70.145233	0.000608	6.080057	2.059979	-0.000243
1331	1.3234e+02	-12.9975	-70.423796	0.000699	6.992066	2.368976	-0.000280
1332	1.3243e+02	-13.0328	-70.686210	0.000659	6.586729	2.231644	-0.000264
1333	1.3253e+02	-13.0697	-70.952661	0.000669	6.688063	2.265977	-0.000268
1334	1.3263e+02	-13.1146	-71.251409	0.000750	7.498737	2.540641	-0.000300
1335	1.3273e+02	-13.1483	-71.534008	0.000709	7.093400	2.403309	-0.000284
1336	1.3283e+02	-13.1884	-71.768162	0.000588	5.877389	1.991313	-0.000235
1337	1.3293e+02	-13.2301	-72.042687	0.000689	6.890732	2.334643	-0.000276
1338	1.3303e+02	-13.2734	-72.357584	0.000790	7.904075	2.677973	-0.000316
1339	1.3313e+02	-13.3183	-72.611923	0.000638	6.384060	2.162978	-0.000256
1340	1.3323e+02	-13.3520	-72.894523	0.000709	7.093400	2.403309	-0.000284
1341	1.3333e+02	-13.3809	-73.221531	0.000821	8.208078	2.780972	-0.000329
1342	1.3343e+02	-13.4354	-73.443573	0.000557	5.573386	1.888314	-0.000223
1343	1.3353e+02	-13.4788	-73.774618	0.000831	8.309412	2.815305	-0.000333
1344	1.3363e+02	-13.5125	-74.065292	0.000730	7.296069	2.471975	-0.000292
1345	1.3373e+02	-13.5510	-74.283298	0.000547	5.472052	1.853981	-0.000219
1346	1.3383e+02	-13.5879	-74.582046	0.000750	7.498737	2.540641	-0.000300
1347	1.3393e+02	-13.6392	-74.872719	0.000730	7.296069	2.471975	-0.000292
1348	1.3403e+02	-13.6745	-75.175505	0.000760	7.600072	2.574974	-0.000304
1349	1.3413e+02	-13.7146	-75.510587	0.000841	8.410746	2.849638	-0.000337
1350	1.3423e+02	-13.7483	-75.740704	0.000578	5.776055	1.956980	-0.000231
1351	1.3432e+02	-13.7868	-76.087897	0.000871	8.714749	2.952637	-0.000349
1352	1.3442e+02	-13.8285	-76.390682	0.000760	7.600072	2.574974	-0.000304
1353	1.3452e+02	-13.8766	-76.717690	0.000821	8.208078	2.780972	-0.000329
1354	1.3462e+02	-13.9119	-77.016438	0.000750	7.498737	2.540641	-0.000300
1355	1.3472e+02	-13.9552	-77.359595	0.000861	8.613415	2.918304	-0.000345
1356	1.3482e+02	-13.9809	-77.609897	0.000628	6.282726	2.128645	-0.000252
1357	1.3492e+02	-14.0242	-77.896534	0.000719	7.194735	2.437642	-0.000288
1358	1.3502e+02	-14.0723	-78.227579	0.000831	8.309412	2.815305	-0.000333
1359	1.3512e+02	-14.1108	-78.562661	0.000841	8.410746	2.849638	-0.000337
1360	1.3522e+02	-14.1525	-78.889669	0.000821	8.208078	2.780972	-0.000329
1361	1.3532e+02	-14.1894	-79.228789	0.000851	8.512080	2.883971	-0.000341
1362	1.3542e+02	-14.2231	-79.527537	0.000750	7.498737	2.540641	-0.000300
1363	1.3552e+02	-14.2745	-79.850508	0.000811	8.106743	2.746639	-0.000325
1364	1.3562e+02	-14.3114	-80.129070	0.000699	6.992066	2.368976	-0.000280
1365	1.3572e+02	-14.3467	-80.484338	0.000892	8.917418	3.021303	-0.000357
1366	1.3582e+02	-14.3948	-80.766938	0.000709	7.093400	2.403309	-0.000284
1367	1.3592e+02	-14.4269	-81.134317	0.000922	9.221420	3.124302	-0.000369
1368	1.3602e+02	-14.4686	-81.461325	0.000821	8.208078	2.780972	-0.000329
1369	1.3612e+02	-14.5023	-81.796407	0.000841	8.410746	2.849638	-0.000337
1370	1.3622e+02	-14.5488	-82.163787	0.000922	9.221420	3.124302	-0.000369
1371	1.3631e+02	-14.5809	-82.462535	0.000750	7.498737	2.540641	-0.000300
1372	1.3641e+02	-14.6338	-82.829914	0.000922	9.221420	3.124302	-0.000369
1373	1.3651e+02	-14.6627	-83.169033	0.000851	8.512080	2.883971	-0.000341
1374	1.3661e+02	-14.7044	-83.483930	0.000790	7.904075	2.677973	-0.000316
1375	1.3671e+02	-14.7461	-83.859384	0.000942	9.424089	3.192968	-0.000377
1376	1.3681e+02	-14.7798	-84.194466	0.000841	8.410746	2.849638	-0.000337
1377	1.3691e+02	-14.8263	-84.513400	0.000801	8.005409	2.712306	-0.000321
1378	1.3701e+02	-14.8696	-84.864630	0.000882	8.816083	2.986970	-0.000353
1379	1.3711e+02	-14.9097	-85.219898	0.000892	8.917418	3.021303	-0.000357
1380	1.3721e+02	-14.9402	-85.587278	0.000922	9.221420	3.124302	-0.000369
1381	1.3731e+02	-14.9883	-85.918323	0.000831	8.309412	2.815305	-0.000333
1382	1.3741e+02	-15.0172	-86.293776	0.000942	9.424089	3.192968	-0.000377
1383	1.3751e+02	-15.0702	-86.636933	0.000861	8.613415	2.918304	-0.000345
1384	1.3761e+02	-15.1055	-86.972015	0.000841	8.410746	2.849638	-0.000337
1385	1.3771e+02	-15.1472	-87.323246	0.000882	8.816083	2.986970	-0.000353
1386	1.3781e+02	-15.1873	-87.722922	0.001003	10.032095	3.398966	-0.000402
1387	1.3791e+02	-15.2258	-88.090302	0.000922	9.221420	3.124302	-0.000369
1388	1.3801e+02	-15.2707	-88.441533	0.000882	8.816083	2.986970	-0.000353
1389	1.3811e+02	-15.3156	-88.796801	0.000892	8.917418	3.021303	-0.000357
1390	1.3821e+02	-15.3493	-89.168217	0.000932	9.322755	3.158635	-0.000373
1391	1.3831e+02	-15.3862	-89.547708	0.000953	9.525423	3.227301	-0.000381
1392	1.3840e+02	-15.4231	-89.907013	0.000902	9.018752	3.055636	-0.000361
1393	1.3850e+02	-15.4584	-90.270355	0.000912	9.120086	3.089969	-0.000365
1394	1.3860e+02	-15.5049	-90.665994	0.000993	9.930760	3.364633	-0.000398
1395	1.3870e+02	-15.5482	-91.057597	0.000983	9.829426	3.330300	-0.000394
1396	1.3880e+02	-15.5867	-91.408827	0.000882	8.816083	2.986970	-0.000353
1397	1.3890e+02	-15.6268	-91.792355	0.000963	9.626758	3.261634	-0.000385
1398	1.3900e+02	-15.6589	-92.159735	0.000922	9.221420	3.124302	-0.000369
1399	1.3910e+02	-15.7135	-92.547300	0.000973	9.728092	3.295967	-0.000390
1400	1.3920e+02	-15.7375	-92.902568	0.000892	8.917418	3.021303	-0.000357
1401	1.3930e+02	-15.7905	-93.310318	0.001023	10.234763	3.467632	-0.000410
1402	1.3940e+02	-15.8193	-93.718069	0.001023	10.234763	3.467632	-0.000410
1403	1.3950e+02	-15.8643	-94.081411	0.000912	9.120086	3.089969	-0.000365
1404	1.3960e+02	-15.9060	-94.513385	0.001084	10.842769	3.673630	-0.000434
1405	1.3970e+02	-15.9525	-94.872690	0.000902	9.018752	3.055636	-0.000361
1406	1.3980e+02	-15.9798	-95.292552	0.001054	10.538766	3.570631	-0.000422
1407	1.3990e+02	-16.0183	-95.647820	0.000892	8.917418	3.021303	-0.000357
1408	1.4000e+02	-16.0600	-96.071719	0.001064	10.640100	3.604964	-0.000426
1409	1.4010e+02	-16.1097	-96.531953	0.001155	11.552109	3.913961	-0.000463
1410	1.4020e+02	-16.1434	-96.891258	0.000902	9.018752	3.055636	-0.000361
1411	1.4029e+02	-16.1819	-97.335343	0.001115	11.146772	3.776629	-0.000446
1412	1.4039e+02	-16.2284	-97.718871	0.000963	9.626758	3.261634	-0.000385
1413	1.4049e+02	-16.2653	-98.114510	0.000993	9.930760	3.364633	-0.000398
1414	1.4059e+02	-16.3006	-98.554558	0.001105	11.045438	3.742296	-0.000442
1415	1.4069e+02	-16.3343	-98.962308	0.001023	10.234763	3.467632	-0.000410
1416	1.4079e+02	-16.3824	-99.353911	0.000983	9.829426	3.330300	-0.000394
1417	1.4089e+02	-16.4257	-99.761661	0.001023	10.234763	3.467632	-0.000410
1418	1.4099e+02	-16.4658	-100.205746	0.001115	11.146772	3.776629	-0.000446
1419	1.4109e+02	-16.5092	-100.585237	0.000953	9.525423	3.227301	-0.000381
1420	1.4119e+02	-16.5445	-101.045470	0.001155	11.552109	3.913961	-0.000463
1421	1.4129e+02	-16.5862	-101.433035	0.000973	9.728092	3.295967	-0.000390
1422	1.4139e+02	-16.6166	-101.897306	0.001165	11.653443	3.948293	-0.000467
1423	1.4149e+02	-16.6648	-102.325242	0.001074	10.741435	3.639297	-0.000430
1424	1.4159e+02	-16.6904	-102.704733	0.000953	9.525423	3.227301	-0.000381
1425	1.4169e+02	-16.7418	-103.189189	0.001216	12.160115	4.119958	-0.000487
1426	1.4179e+02	-16.7851	-103.568680	0.000953	9.525423	3.227301	-0.000381
1427	1.4189e+02	-16.8204	-104.045062	0.001196	11.957446	4.051292	-0.000479
1428	1.4199e+02	-16.8589	-104.477036	0.001084	10.842769	3.673630	-0.000434
1429	1.4209e+02	-16.8942	-104.917084	0.001105	11.045438	3.742296	-0.000442
1430	1.4219e+02	-16.9455	-105.369243	0.001135	11.349441	3.845295	-0.000454
1431	1.4228e+02	-16.9792	-105.817365	0.001125	11.248106	3.810962	-0.000450
1432	1.4238e+02	-17.0225	-106.265487	0.001125	11.248106	3.810962	-0.000450
1433	1.4248e+02	-17.0706	-106.729758	0.001165	11.653443	3.948293	-0.000467
1434	1.4258e+02	-17.1043	-107.169805	0.001105	11.045438	3.742296	-0.000442
1435	1.4268e+02	-17.1364	-107.617927	0.001125	11.248106	3.810962	-0.000450
1436	1.4278e+02	-17.1829	-108.066049	0.001125	11.248106	3.810962	-0.000450
1437	1.4288e+02	-17.2198	-108.554543	0.001226	12.261449	4.154291	-0.000491
1438	1.4298e+02	-17.2599	-109.010739	0.001145	11.450775	3.879628	-0.000458
1439	1.4308e+02	-17.3017	-109.466936	0.001145	11.450775	3.879628	-0.000458
1440	1.4318e+02	-17.3402	-109.975615	0.001277	12.768121	4.325956	-0.000511
1441	1.4328e+02	-17.3883	-110.460071	0.001216	12.160115	4.119958	-0.000487
1442	1.4338e+02	-17.4123	-110.892044	0.001084	10.842769	3.673630	-0.000434
1443	1.4348e+02	-17.4621	-111.388612	0.001246	12.464118	4.222957	-0.000499
1444	1.4358e+02	-17.4974	-111.860957	0.001186	11.856112	4.016959	-0.000475
1445	1.4368e+02	-17.5246	-112.313116	0.001135	11.349441	3.845295	-0.000454
1446	1.4378e+02	-17.5744	-112.801610	0.001226	12.261449	4.154291	-0.000491
1447	1.4388e+02	-17.6129	-113.354697	0.001388	13.882798	4.703619	-0.000556
1448	1.4398e+02	-17.6562	-113.823005	0.001175	11.754778	3.982626	-0.000471
1449	1.4408e+02	-17.7011	-114.315536	0.001236	12.362783	4.188624	-0.000495
1450	1.4418e+02	-17.7332	-114.816140	0.001257	12.565452	4.257290	-0.000503
1451	1.4428e+02	-17.7845	-115.284448	0.001175	11.754778	3.982626	-0.000471
1452	1.4437e+02	-17.8214	-115.801202	0.001297	12.970789	4.394622	-0.000519
1453	1.4447e+02	-17.8583	-116.309881	0.001277	12.768121	4.325956	-0.000511
1454	1.4457e+02	-17.9081	-116.806448	0.001246	12.464118	4.222957	-0.000499
1455	1.4467e+02	-17.9305	-117.343387	0.001348	13.477461	4.566287	-0.000540
1456	1.4477e+02	-17.9690	-117.835918	0.001236	12.362783	4.188624	-0.000495
1457	1.4487e+02	-18.0203	-118.356708	0.001307	13.072123	4.428955	-0.000523
1458	1.4497e+02	-18.0701	-118.853276	0.001246	12.464118	4.222957	-0.000499
1459	1.4507e+02	-18.1006	-119.386178	0.001338	13.376126	4.531954	-0.000536
1460	1.4517e+02	-18.1455	-119.947340	0.001409	14.085466	4.772285	-0.000564
1461	1.4527e+02	-18.1776	-120.443908	0.001246	12.464118	4.222957	-0.000499
1462	1.4537e+02	-18.2257	-121.025255	0.001459	14.592138	4.943950	-0.000584
1463	1.4547e+02	-18.2481	-121.481451	0.001145	11.450775	3.879628	-0.000458
1464	1.4557e+02	-18.2963	-122.066836	0.001469	14.693472	4.978283	-0.000588
1465	1.4567e+02	-18.3412	-122.603775	0.001348	13.477461	4.566287	-0.000540
1466	1.4577e+02	-18.3669	-123.156863	0.001388	13.882798	4.703619	-0.000556
1467	1.4587e+02	-18.4246	-123.669579	0.001287	12.869455	4.360289	-0.000515
1468	1.4597e+02	-18.4535	-124.202481	0.001338	13.376126	4.531954	-0.000536
1469	1.4607e+02	-18.4968	-124.795940	0.001490	14.896141	5.046949	-0.000596
1470	1.4617e+02	-18.5257	-125.353065	0.001398	13.984132	4.737952	-0.000560
1471	1.4626e+02	-18.5706	-125.902115	0.001378	13.781463	4.669286	-0.000552
1472	1.4636e+02	-18.6075	-126.503648	0.001510	15.098809	5.115615	-0.000605
1473	1.4646e+02	-18.6492	-127.068847	0.001419	14.186801	4.806618	-0.000568
1474	1.4656e+02	-18.6941	-127.630009	0.001409	14.085466	4.772285	-0.000564
1475	1.4666e+02	-18.7278	-128.247691	0.001550	15.504146	5.252947	-0.000621
1476	1.4676e+02	-18.7775	-128.788667	0.001358	13.578795	4.600620	-0.000544
1477	1.4686e+02	-18.8177	-129.394238	0.001520	15.200144	5.149948	-0.000609
1478	1.4696e+02	-18.8529	-129.975585	0.001459	14.592138	4.943950	-0.000584
1479	1.4706e+02	-18.8995	-130.601341	0.001571	15.706815	5.321613	-0.000629
1480	1.4716e+02	-18.9332	-131.178652	0.001449	14.490804	4.909617	-0.000580
1481	1.4726e+02	-18.9701	-131.780185	0.001510	15.098809	5.115615	-0.000605
1482	1.4736e+02	-19.0070	-132.345384	0.001419	14.186801	4.806618	-0.000568
1483	1.4746e+02	-19.0583	-132.938843	0.001490	14.896141	5.046949	-0.000596
1484	1.4756e+02	-19.0904	-133.621119	0.001713	17.125495	5.802275	-0.000686
1485	1.4766e+02	-19.1385	-134.182281	0.001409	14.085466	4.772285	-0.000564
1486	1.4776e+02	-19.1770	-134.864556	0.001713	17.125495	5.802275	-0.000686
1487	1.4786e+02	-19.2187	-135.506461	0.001611	16.112152	5.458945	-0.000645
1488	1.4796e+02	-19.2412	-136.095883	0.001479	14.794806	5.012616	-0.000592
1489	1.4806e+02	-19.2829	-136.745862	0.001631	16.314821	5.527611	-0.000653
1490	1.4816e+02	-19.3310	-137.387766	0.001611	16.112152	5.458945	-0.000645
1491	1.4825e+02	-19.3711	-138.021597	0.001591	15.909484	5.390279	-0.000637
1492	1.4835e+02	-19.4112	-138.651390	0.001581	15.808149	5.355946	-0.000633
1493	1.4845e+02	-19.4497	-139.297332	0.001621	16.213486	5.493278	-0.000649
1494	1.4855e+02	-19.4882	-139.971533	0.001692	16.922826	5.733609	-0.000678
1495	1.4865e+02	-19.5315	-140.653809	0.001713	17.125495	5.802275	-0.000686
1496	1.4875e+02	-19.5652	-141.291677	0.001601	16.010818	5.424612	-0.000641
1497	1.4885e+02	-19.6101	-141.957804	0.001672	16.720158	5.664943	-0.000669
1498	1.4895e+02	-19.6519	-142.676414	0.001804	18.037504	6.111272	-0.000722
1499	1.4905e+02	-19.6904	-143.326393	0.001631	16.314821	5.527611	-0.000653
1500	1.4915e+02	-19.7369	-144.061152	0.001844	18.442841	6.248604	-0.000738
1501	1.4925e+02	-19.7690	-144.731316	0.001682	16.821492	5.699276	-0.000674
1502	1.4935e+02	-19.8075	-145.441852	0.001783	17.834835	6.042606	-0.000714
1503	1.4945e+02	-19.8476	-146.136239	0.001743	17.429498	5.905274	-0.000698
1504	1.4955e+02	-19.8813	-146.838701	0.001763	17.632166	5.973940	-0.000706
1505	1.4965e+02	-19.9246	-147.557311	0.001804	18.037504	6.111272	-0.000722
1506	1.4975e+02	-19.9647	-148.296107	0.001854	18.544175	6.282937	-0.000743
1507	1.4985e+02	-20.0112	-149.002606	0.001773	17.733501	6.008273	-0.000710
1508	1.4995e+02	-19.9727	-149.398245	-0.000993	-9.930760	-3.364633	-0.000398
1509	1.5005e+02	-19.9246	-149.713142	-0.000790	-7.904075	-2.677973	-0.000316
1510	1.5015e+02	-19.8797	-149.971518	-0.000649	-6.485395	-2.197311	-0.000260
1511	1.5025e+02	-19.8476	-150.221821	-0.000628	-6.282726	-2.128645	-0.000252
1512	1.5034e+02	-19.8043	-150.431752	-0.000527	-5.269383	-1.785315	-0.000211
1513	1.5044e+02	-19.7690	-150.597274	-0.000415	-4.154706	-1.407652	-0.000166
1514	1.5054e+02	-19.7224	-150.823354	-0.000567	-5.674720	-1.922647	-0.000227
1515	1.5064e+02	-19.6823	-150.976765	-0.000385	-3.850703	-1.304654	-0.000154
1516	1.5074e+02	-19.6519	-151.101916	-0.000314	-3.141363	-1.064323	-0.000126
1517	1.5084e+02	-19.6053	-151.218993	-0.000294	-2.938694	-0.995657	-0.000118
1518	1.5094e+02	-19.5732	-151.267439	-0.000122	-1.216011	-0.411996	-0.000049
1519	1.5104e+02	-19.5139	-151.408739	-0.000355	-3.546700	-1.201655	-0.000142
1520	1.5114e+02	-19.4898	-151.505630	-0.000243	-2.432023	-0.823992	-0.000097
1521	1.5124e+02	-19.4449	-151.570224	-0.000162	-1.621349	-0.549328	-0.000065
1522	1.5134e+02	-19.3984	-151.630781	-0.000152	-1.520014	-0.514995	-0.000061
1523	1.5144e+02	-19.3663	-151.715561	-0.000213	-2.128020	-0.720993	-0.000085
1524	1.5154e+02	-19.3294	-151.719598	-0.000010	-0.101334	-0.034333	-0.000004
1525	1.5164e+02	-19.2989	-151.751895	-0.000081	-0.810674	-0.274664	-0.000032
1526	1.5174e+02	-19.2572	-151.735747	0.000041	0.405337	0.137332	0.000016
1527	1.5184e+02	-19.2123	-151.731710	0.000010	0.101334	0.034333	0.000004
1528	1.5194e+02	-19.1642	-151.796304	-0.000162	-1.621349	-0.549328	-0.000065
1529	1.5204e+02	-19.1225	-151.747858	0.000122	1.216011	0.411996	0.000049
1530	1.5214e+02	-19.0904	-151.751895	-0.000010	-0.101334	-0.034333	-0.000004
1531	1.5224e+02	-19.0551	-151.715561	0.000091	0.912009	0.308997	0.000037
1532	1.5233e+02	-19.0166	-151.731710	-0.000041	-0.405337	-0.137332	-0.000016
1533	1.5243e+02	-18.9733	-151.683264	0.000122	1.216011	0.411996	0.000049
1534	1.5253e+02	-18.9348	-151.646930	0.000091	0.912009	0.308997	0.000037
1535	1.5263e+02	-18.8898	-151.598484	0.000122	1.216011	0.411996	0.000049
1536	1.5273e+02	-18.8610	-151.533890	0.000162	1.621349	0.549328	0.000065
1537	1.5283e+02	-18.8177	-151.505630	0.000071	0.709340	0.240331	0.000028
1538	1.5293e+02	-18.7808	-151.457184	0.000122	1.216011	0.411996	0.000049
1539	1.5303e+02	-18.7294	-151.360293	0.000243	2.432023	0.823992	0.000097
1540	1.5313e+02	-18.6925	-151.352219	0.000020	0.202669	0.068666	0.000008
1541	1.5323e+02	-18.6620	-151.206882	0.000365	3.648034	1.235988	0.000146
1542	1.5333e+02	-18.6155	-151.182659	0.000061	0.608006	0.205998	0.000024
1543	1.5343e+02	-18.5786	-151.122102	0.000152	1.520014	0.514995	0.000061
1544	1.5353e+02	-18.5385	-150.988877	0.000334	3.344032	1.132989	0.000134
1545	1.5363e+02	-18.4888	-150.904097	0.000213	2.128020	0.720993	0.000085
1546	1.5373e+02	-18.4535	-150.815280	0.000223	2.229354	0.755326	0.000089
1547	1.5383e+02	-18.4086	-150.726463	0.000223	2.229354	0.755326	0.000089
1548	1.5393e+02	-18.3829	-150.633609	0.000233	2.330689	0.789659	0.000093
1549	1.5403e+02	-18.3348	-150.516532	0.000294	2.938694	0.995657	0.000118
1550	1.5413e+02	-18.2883	-150.431752	0.000213	2.128020	0.720993	0.000085
1551	1.5422e+02	-18.2562	-150.286415	0.000365	3.648034	1.235988	0.000146
1552	1.5432e+02	-18.2080	-150.205672	0.000203	2.026686	0.686660	0.000081
1553	1.5442e+02	-18.1744	-150.092632	0.000284	2.837360	0.961324	0.000114
1554	1.5452e+02	-18.1294	-149.959407	0.000334	3.344032	1.132989	0.000134
1555	1.5462e+02	-18.0909	-149.854441	0.000263	2.634692	0.892658	0.000105
1556	1.5472e+02	-18.0621	-149.757550	0.000243	2.432023	0.823992	0.000097
1557	1.5482e+02	-18.0268	-149.688919	0.000172	1.722683	0.583661	0.000069
1558	1.5492e+02	-17.9802	-149.515322	0.000436	4.357374	1.476318	0.000174
1559	1.5502e+02	-17.9417	-149.386134	0.000324	3.242697	1.098656	0.000130
1560	1.5512e+02	-17.9032	-149.224648	0.000405	4.053372	1.373319	0.000162
1561	1.5522e+02	-17.8535	-149.168128	0.000142	1.418680	0.480662	0.000057
1562	1.5532e+02	-17.8118	-149.026829	0.000355	3.546700	1.201655	0.000142
1563	1.5542e+02	-17.7653	-148.829009	0.000497	4.965380	1.682316	0.000199
1564	1.5552e+02	-17.7364	-148.748266	0.000203	2.026686	0.686660	0.000081
1565	1.5562e+02	-17.6995	-148.594855	0.000385	3.850703	1.304654	0.000154
1566	1.5572e+02	-17.6594	-148.493927	0.000253	2.533357	0.858325	0.000101
1567	1.5582e+02	-17.6241	-148.292070	0.000507	5.066715	1.716649	0.000203
1568	1.5592e+02	-17.5808	-148.183067	0.000274	2.736026	0.926991	0.000110
1569	1.5602e+02	-17.5311	-148.061953	0.000304	3.040029	1.029990	0.000122
1570	1.5612e+02	-17.4861	-147.904505	0.000395	3.952037	1.338986	0.000158
1571	1.5622e+02	-17.4589	-147.783391	0.000304	3.040029	1.029990	0.000122
1572	1.5631e+02	-17.4075	-147.605757	0.000446	4.458709	1.510651	0.000179
1573	1.5641e+02	-17.3787	-147.504828	0.000253	2.533357	0.858325	0.000101
1574	1.5651e+02	-17.3385	-147.347380	0.000395	3.952037	1.338986	0.000158
1575	1.5661e+02	-17.3000	-147.230303	0.000294	2.938694	0.995657	0.000118
1576	1.5671e+02	-17.2599	-147.093041	0.000345	3.445366	1.167322	0.000138
1577	1.5681e+02	-17.2166	-146.907332	0.000466	4.661377	1.579317	0.000187
1578	1.5691e+02	-17.1781	-146.766033	0.000355	3.546700	1.201655	0.000142
1579	1.5701e+02	-17.1476	-146.612621	0.000385	3.850703	1.304654	0.000154
1580	1.5711e+02	-17.0963	-146.471322	0.000355	3.546700	1.201655	0.000142
1581	1.5721e+02	-17.0514	-146.297725	0.000436	4.357374	1.476318	0.000174
1582	1.5731e+02	-17.0145	-146.128165	0.000426	4.256040	1.441985	0.000170
1583	1.5741e+02	-16.9760	-146.023200	0.000263	2.634692	0.892658	0.000105
1584	1.5751e+02	-16.9455	-145.857677	0.000415	4.154706	1.407652	0.000166
1585	1.5761e+02	-16.8974	-145.692155	0.000415	4.154706	1.407652	0.000166
1586	1.5771e+02	-16.8573	-145.538743	0.000385	3.850703	1.304654	0.000154
1587	1.5781e+02	-16.8220	-145.389369	0.000375	3.749369	1.270321	0.000150
1588	1.5791e+02	-16.7803	-145.248070	0.000355	3.546700	1.201655	0.000142
1589	1.5801e+02	-16.7386	-145.090621	0.000395	3.952037	1.338986	0.000158
1590	1.5811e+02	-16.7017	-144.888765	0.000507	5.066715	1.716649	0.000203
1591	1.5821e+02	-16.6648	-144.759576	0.000324	3.242697	1.098656	0.000130
1592	1.5830e+02	-16.6182	-144.594054	0.000415	4.154706	1.407652	0.000166
1593	1.5840e+02	-16.5765	-144.428531	0.000415	4.154706	1.407652	0.000166
1594	1.5850e+02	-16.5380	-144.287231	0.000355	3.546700	1.201655	0.000142
1595	1.5860e+02	-16.5060	-144.158043	0.000324	3.242697	1.098656	0.000130
1596	1.5870e+02	-16.4658	-143.940038	0.000547	5.472052	1.853981	0.000219
1597	1.5880e+02	-16.4193	-143.786626	0.000385	3.850703	1.304654	0.000154
1598	1.5890e+02	-16.3824	-143.608992	0.000446	4.458709	1.510651	0.000179
1599	1.5900e+02	-16.3407	-143.443470	0.000415	4.154706	1.407652	0.000166
1600	1.5910e+02	-16.3118	-143.290059	0.000385	3.850703	1.304654	0.000154
1601	1.5920e+02	-16.2653	-143.140685	0.000375	3.749369	1.270321	0.000150
1602	1.5930e+02	-16.2252	-142.963051	0.000446	4.458709	1.510651	0.000179
1603	1.5940e+02	-16.1723	-142.813677	0.000375	3.749369	1.270321	0.000150
1604	1.5950e+02	-16.1530	-142.619894	0.000486	4.864046	1.647983	0.000195
1605	1.5960e+02	-16.1049	-142.523003	0.000243	2.432023	0.823992	0.000097
1606	1.5970e+02	-16.0648	-142.325183	0.000497	4.965380	1.682316	0.000199
1607	1.5980e+02	-16.0279	-142.151586	0.000436	4.357374	1.476318	0.000174
1608	1.5990e+02	-15.9782	-141.994138	0.000395	3.952037	1.338986	0.000158
1609	1.6000e+02	-15.9413	-141.873024	0.000304	3.040029	1.029990	0.000122
1610	1.6010e+02	-15.9124	-141.646945	0.000567	5.674720	1.922647	0.000227
1611	1.6019e+02	-15.8643	-141.497570	0.000375	3.749369	1.270321	0.000150
1612	1.6029e+02	-15.8242	-141.295714	0.000507	5.066715	1.716649	0.000203
1613	1.6039e+02	-15.7808	-141.093857	0.000507	5.066715	1.716649	0.000203
1614	1.6049e+02	-15.7455	-141.001003	0.000233	2.330689	0.789659	0.000093
1615	1.6059e+02	-15.7086	-140.819332	0.000456	4.560043	1.544984	0.000183
1616	1.6069e+02	-15.6589	-140.621512	0.000497	4.965380	1.682316	0.000199
1617	1.6079e+02	-15.6300	-140.447915	0.000436	4.357374	1.476318	0.000174
1618	1.6089e+02	-15.5803	-140.306615	0.000355	3.546700	1.201655	0.000142
1619	1.6099e+02	-15.5466	-140.149167	0.000395	3.952037	1.338986	0.000158
1620	1.6109e+02	-15.5081	-139.931162	0.000547	5.472052	1.853981	0.000219
1621	1.6119e+02	-15.4568	-139.793899	0.000345	3.445366	1.167322	0.000138
1622	1.6129e+02	-15.4199	-139.592042	0.000507	5.066715	1.716649	0.000203
1623	1.6139e+02	-15.3846	-139.398260	0.000486	4.864046	1.647983	0.000195
1624	1.6149e+02	-15.3381	-139.240812	0.000395	3.952037	1.338986	0.000158
1625	1.6159e+02	-15.3140	-139.095475	0.000365	3.648034	1.235988	0.000146
1626	1.6169e+02	-15.2659	-138.881507	0.000537	5.370717	1.819648	0.000215
1627	1.6179e+02	-15.2258	-138.740207	0.000355	3.546700	1.201655	0.000142
1628	1.6189e+02	-15.1793	-138.518164	0.000557	5.573386	1.888314	0.000223
1629	1.6199e+02	-15.1568	-138.360716	0.000395	3.952037	1.338986	0.000158
1630	1.6209e+02	-15.1071	-138.142711	0.000547	5.472052	1.853981	0.000219
1631	1.6219e+02	-15.0621	-138.005448	0.000345	3.445366	1.167322	0.000138
1632	1.6228e+02	-15.0317	-137.815703	0.000476	4.762712	1.613650	0.000191
1633	1.6238e+02	-14.9851	-137.642106	0.000436	4.357374	1.476318	0.000174
1634	1.6248e+02	-14.9514	-137.411989	0.000578	5.776055	1.956980	0.000231
1635	1.6258e+02	-14.9033	-137.290875	0.000304	3.040029	1.029990	0.000122
1636	1.6268e+02	-14.8680	-137.113241	0.000446	4.458709	1.510651	0.000179
1637	1.6278e+02	-14.8215	-136.927533	0.000466	4.661377	1.579317	0.000187
1638	1.6288e+02	-14.7814	-136.721639	0.000517	5.168049	1.750982	0.000207
1639	1.6298e+02	-14.7509	-136.539968	0.000456	4.560043	1.544984	0.000183
1640	1.6308e+02	-14.7188	-136.378482	0.000405	4.053372	1.373319	0.000162
1641	1.6318e+02	-14.6707	-136.212960	0.000415	4.154706	1.407652	0.000166
1642	1.6328e+02	-14.6354	-136.019177	0.000486	4.864046	1.647983	0.000195
1643	1.6338e+02	-14.5809	-135.785023	0.000588	5.877389	1.991313	0.000235
1644	1.6348e+02	-14.5472	-135.639687	0.000365	3.648034	1.235988	0.000146
1645	1.6358e+02	-14.5007	-135.409570	0.000578	5.776055	1.956980	0.000231
1646	1.6368e+02	-14.4782	-135.276344	0.000334	3.344032	1.132989	0.000134
1647	1.6378e+02	-14.4221	-135.074488	0.000507	5.066715	1.716649	0.000203
1648	1.6388e+02	-14.3964	-134.864556	0.000527	5.269383	1.785315	0.000211
1649	1.6398e+02	-14.3515	-134.703071	0.000405	4.053372	1.373319	0.000162
1650	1.6408e+02	-14.3033	-134.481029	0.000557	5.573386	1.888314	0.000223
1651	1.6418e+02	-14.2680	-134.307432	0.000436	4.357374	1.476318	0.000174
1652	1.6427e+02	-14.2247	-134.117686	0.000476	4.762712	1.613650	0.000191
1653	1.6437e+02	-14.1894	-133.931978	0.000466	4.661377	1.579317	0.000187
1654	1.6447e+02	-14.1493	-133.762418	0.000426	4.256040	1.441985	0.000170
1655	1.6457e+02	-14.1124	-133.568636	0.000486	4.864046	1.647983	0.000195
1656	1.6467e+02	-14.0755	-133.346593	0.000557	5.573386	1.888314	0.000223
1657	1.6477e+02	-14.0290	-133.112440	0.000588	5.877389	1.991313	0.000235
1658	1.6487e+02	-13.9969	-132.946917	0.000415	4.154706	1.407652	0.000166
1659	1.6497e+02	-13.9488	-132.797543	0.000375	3.749369	1.270321	0.000150
1660	1.6507e+02	-13.9167	-132.587612	0.000527	5.269383	1.785315	0.000211
1661	1.6517e+02	-13.8686	-132.422089	0.000415	4.154706	1.407652	0.000166
1662	1.6527e+02	-13.8381	-132.167750	0.000638	6.384060	2.162978	0.000256
1663	1.6537e+02	-13.7980	-132.002227	0.000415	4.154706	1.407652	0.000166
1664	1.6547e+02	-13.7531	-131.812482	0.000476	4.762712	1.613650	0.000191
1665	1.6557e+02	-13.7082	-131.659071	0.000385	3.850703	1.304654	0.000154
1666	1.6567e+02	-13.6777	-131.412805	0.000618	6.181392	2.094312	0.000248
1667	1.6577e+02	-13.6360	-131.186726	0.000567	5.674720	1.922647	0.000227
1668	1.6587e+02	-13.5911	-131.009092	0.000446	4.458709	1.510651	0.000179
1669	1.6597e+02	-13.5542	-130.787049	0.000557	5.573386	1.888314	0.000223
1670	1.6607e+02	-13.5157	-130.601341	0.000466	4.661377	1.579317	0.000187
1671	1.6616e+02	-13.4675	-130.395447	0.000517	5.168049	1.750982	0.000207
1672	1.6626e+02	-13.4354	-130.197628	0.000497	4.965380	1.682316	0.000199
1673	1.6636e+02	-13.3921	-130.040179	0.000395	3.952037	1.338986	0.000158
1674	1.6646e+02	-13.3536	-129.818137	0.000557	5.573386	1.888314	0.000223
1675	1.6656e+02	-13.3119	-129.583983	0.000588	5.877389	1.991313	0.000235
1676	1.6666e+02	-13.2654	-129.361940	0.000557	5.573386	1.888314	0.000223
1677	1.6676e+02	-13.2317	-129.168158	0.000486	4.864046	1.647983	0.000195
1678	1.6686e+02	-13.1948	-129.018784	0.000375	3.749369	1.270321	0.000150
1679	1.6696e+02	-13.1499	-128.776556	0.000608	6.080057	2.059979	0.000243
1680	1.6706e+02	-13.1146	-128.602959	0.000436	4.357374	1.476318	0.000174
1681	1.6716e+02	-13.0713	-128.380916	0.000557	5.573386	1.888314	0.000223
1682	1.6726e+02	-13.0312	-128.162911	0.000547	5.472052	1.853981	0.000219
1683	1.6736e+02	-12.9959	-127.985277	0.000446	4.458709	1.510651	0.000179
1684	1.6746e+02	-12.9574	-127.759198	0.000567	5.674720	1.922647	0.000227
1685	1.6756e+02	-12.9125	-127.609824	0.000375	3.749369	1.270321	0.000150
1686	1.6766e+02	-12.8836	-127.355484	0.000638	6.384060	2.162978	0.000256
1687	1.6776e+02	-12.8371	-127.173813	0.000456	4.560043	1.544984	0.000183
1688	1.6786e+02	-12.8018	-126.931585	0.000608	6.080057	2.059979	0.000243
1689	1.6796e+02	-12.7553	-126.737802	0.000486	4.864046	1.647983	0.000195
1690	1.6806e+02	-12.7151	-126.564205	0.000436	4.357374	1.476318	0.000174
1691	1.6816e+02	-12.6734	-126.277569	0.000719	7.194735	2.437642	0.000288
1692	1.6825e+02	-12.6365	-126.152418	0.000314	3.141363	1.064323	0.000126
1693	1.6835e+02	-12.5980	-125.942486	0.000527	5.269383	1.785315	0.000211
1694	1.6845e+02	-12.5531	-125.728518	0.000537	5.370717	1.819648	0.000215
1695	1.6855e+02	-12.5194	-125.462067	0.000669	6.688063	2.265977	0.000268
1696	1.6865e+02	-12.4713	-125.260211	0.000507	5.066715	1.716649	0.000203
1697	1.6875e+02	-12.4360	-125.082577	0.000446	4.458709	1.510651	0.000179
1698	1.6885e+02	-12.3943	-124.852460	0.000578	5.776055	1.956980	0.000231
1699	1.6895e+02	-12.3622	-124.686937	0.000415	4.154706	1.407652	0.000166
1700	1.6905e+02	-12.3173	-124.485080	0.000507	5.066715	1.716649	0.000203
1701	1.6915e+02	-12.2788	-124.238815	0.000618	6.181392	2.094312	0.000248
1702	1.6925e+02	-12.2387	-124.032921	0.000517	5.168049	1.750982	0.000207
1703	1.6935e+02	-12.1954	-123.770507	0.000659	6.586729	2.231644	0.000264
1704	1.6945e+02	-12.1521	-123.564614	0.000517	5.168049	1.750982	0.000207
1705	1.6955e+02	-12.1296	-123.407165	0.000395	3.952037	1.338986	0.000158
1706	1.6965e+02	-12.0783	-123.132640	0.000689	6.890732	2.334643	0.000276
1707	1.6975e+02	-12.0317	-122.930783	0.000507	5.066715	1.716649	0.000203
1708	1.6985e+02	-11.9981	-122.716815	0.000537	5.370717	1.819648	0.000215
1709	1.6995e+02	-11.9596	-122.486698	0.000578	5.776055	1.956980	0.000231
1710	1.7005e+02	-11.9194	-122.292916	0.000486	4.864046	1.647983	0.000195
1711	1.7015e+02	-11.8842	-122.074910	0.000547	5.472052	1.853981	0.000219
1712	1.7024e+02	-11.8360	-121.856905	0.000547	5.472052	1.853981	0.000219
1713	1.7034e+02	-11.8023	-121.622751	0.000588	5.877389	1.991313	0.000235
1714	1.7044e+02	-11.7622	-121.388597	0.000588	5.877389	1.991313	0.000235
1715	1.7054e+02	-11.7189	-121.206926	0.000456	4.560043	1.544984	0.000183
1716	1.7064e+02	-11.6772	-120.972772	0.000588	5.877389	1.991313	0.000235
1717	1.7074e+02	-11.6451	-120.746693	0.000567	5.674720	1.922647	0.000227
1718	1.7084e+02	-11.5970	-120.556947	0.000476	4.762712	1.613650	0.000191
1719	1.7094e+02	-11.5521	-120.347016	0.000527	5.269383	1.785315	0.000211
1720	1.7104e+02	-11.5120	-120.104788	0.000608	6.080057	2.059979	0.000243
1721	1.7114e+02	-11.4863	-119.898894	0.000517	5.168049	1.750982	0.000207
1722	1.7124e+02	-11.4494	-119.664740	0.000588	5.877389	1.991313	0.000235
1723	1.7134e+02	-11.4061	-119.470958	0.000486	4.864046	1.647983	0.000195
1724	1.7144e+02	-11.3612	-119.184321	0.000719	7.194735	2.437642	0.000288
1725	1.7154e+02	-11.3227	-119.022836	0.000405	4.053372	1.373319	0.000162
1726	1.7164e+02	-11.2794	-118.760422	0.000659	6.586729	2.231644	0.000264
1727	1.7174e+02	-11.2280	-118.570677	0.000476	4.762712	1.613650	0.000191
1728	1.7184e+02	-11.2024	-118.320374	0.000628	6.282726	2.128645	0.000252
1729	1.7194e+02	-11.1735	-118.126592	0.000486	4.864046	1.647983	0.000195
1730	1.7204e+02	-11.1157	-117.868215	0.000649	6.485395	2.197311	0.000260
1731	1.7213e+02	-11.0772	-117.666358	0.000507	5.066715	1.716649	0.000203
1732	1.7223e+02	-11.0500	-117.448353	0.000547	5.472052	1.853981	0.000219
1733	1.7233e+02	-10.9986	-117.238422	0.000527	5.269383	1.785315	0.000211
1734	1.7243e+02	-10.9617	-117.024454	0.000537	5.370717	1.819648	0.000215
1735	1.7253e+02	-10.9312	-116.729743	0.000740	7.397403	2.506308	0.000296
1736	1.7263e+02	-10.8799	-116.556146	0.000436	4.357374	1.476318	0.000174
1737	1.7273e+02	-10.8382	-116.334103	0.000557	5.573386	1.888314	0.000223
1738	1.7283e+02	-10.7981	-116.132247	0.000507	5.066715	1.716649	0.000203
1739	1.7293e+02	-10.7644	-115.857721	0.000689	6.890732	2.334643	0.000276
1740	1.7303e+02	-10.7227	-115.651827	0.000517	5.168049	1.750982	0.000207
1741	1.7313e+02	-10.6890	-115.445934	0.000517	5.168049	1.750982	0.000207
1742	1.7323e+02	-10.6345	-115.244077	0.000507	5.066715	1.716649	0.000203
1743	1.7333e+02	-10.6040	-114.989737	0.000638	6.384060	2.162978	0.000256
1744	1.7343e+02	-10.5591	-114.779806	0.000527	5.269383	1.785315	0.000211
1745	1.7353e+02	-10.5270	-114.537578	0.000608	6.080057	2.059979	0.000243
1746	1.7363e+02	-10.4869	-114.339758	0.000497	4.965380	1.682316	0.000199
1747	1.7373e+02	-10.4436	-114.125790	0.000537	5.370717	1.819648	0.000215
1748	1.7383e+02	-10.4018	-113.887599	0.000598	5.978723	2.025646	0.000239
1749	1.7393e+02	-10.3633	-113.645371	0.000608	6.080057	2.059979	0.000243
1750	1.7403e+02	-10.3168	-113.391031	0.000638	6.384060	2.162978	0.000256
1751	1.7413e+02	-10.2879	-113.221472	0.000426	4.256040	1.441985	0.000170
1752	1.7422e+02	-10.2414	-113.011541	0.000527	5.269383	1.785315	0.000211
1753	1.7432e+02	-10.2077	-112.773350	0.000598	5.978723	2.025646	0.000239
1754	1.7442e+02	-10.1628	-112.478639	0.000740	7.397403	2.506308	0.000296
1755	1.7452e+02	-10.1275	-112.276782	0.000507	5.066715	1.716649	0.000203
1756	1.7462e+02	-10.0938	-112.054740	0.000557	5.573386	1.888314	0.000223
1757	1.7472e+02	-10.0473	-111.828660	0.000567	5.674720	1.922647	0.000227
1758	1.7482e+02	-10.0056	-111.578358	0.000628	6.282726	2.128645	0.000252
1759	1.7492e+02	-9.9719	-111.372464	0.000517	5.168049	1.750982	0.000207
1760	1.7502e+02	-9.9270	-111.126198	0.000618	6.181392	2.094312	0.000248
1761	1.7512e+02	-9.8853	-110.928379	0.000497	4.965380	1.682316	0.000199
1762	1.7522e+02	-9.8468	-110.653853	0.000689	6.890732	2.334643	0.000276
1763	1.7532e+02	-9.8067	-110.451997	0.000507	5.066715	1.716649	0.000203
1764	1.7542e+02	-9.7602	-110.209769	0.000608	6.080057	2.059979	0.000243
1765	1.7552e+02	-9.7200	-110.011949	0.000497	4.965380	1.682316	0.000199
1766	1.7562e+02	-9.6815	-109.749535	0.000659	6.586729	2.231644	0.000264
1767	1.7572e+02	-9.6575	-109.487121	0.000659	6.586729	2.231644	0.000264
1768	1.7582e+02	-9.5965	-109.313524	0.000436	4.357374	1.476318	0.000174
1769	1.7592e+02	-9.5757	-109.051111	0.000659	6.586729	2.231644	0.000264
1770	1.7602e+02	-9.5243	-108.829068	0.000557	5.573386	1.888314	0.000223
1771	1.7612e+02	-9.4874	-108.607026	0.000557	5.573386	1.888314	0.000223
1772	1.7621e+02	-9.4537	-108.360760	0.000618	6.181392	2.094312	0.000248
1773	1.7631e+02	-9.4008	-108.134681	0.000567	5.674720	1.922647	0.000227
1774	1.7641e+02	-9.3719	-107.932824	0.000507	5.066715	1.716649	0.000203
1775	1.7651e+02	-9.3254	-107.674447	0.000649	6.485395	2.197311	0.000260
1776	1.7661e+02	-9.2853	-107.428182	0.000618	6.181392	2.094312	0.000248
1777	1.7671e+02	-9.2436	-107.214214	0.000537	5.370717	1.819648	0.000215
1778	1.7681e+02	-9.2083	-106.951800	0.000659	6.586729	2.231644	0.000264
1779	1.7691e+02	-9.1746	-106.741869	0.000527	5.269383	1.785315	0.000211
1780	1.7701e+02	-9.1297	-106.515789	0.000567	5.674720	1.922647	0.000227
1781	1.7711e+02	-9.0880	-106.229153	0.000719	7.194735	2.437642	0.000288
1782	1.7721e+02	-9.0527	-106.039407	0.000476	4.762712	1.613650	0.000191
1783	1.7731e+02	-9.0078	-105.789105	0.000628	6.282726	2.128645	0.000252
1784	1.7741e+02	-8.9757	-105.575137	0.000537	5.370717	1.819648	0.000215
1785	1.7751e+02	-8.9308	-105.296574	0.000699	6.992066	2.368976	0.000280
1786	1.7761e+02	-8.9051	-105.070495	0.000567	5.674720	1.922647	0.000227
1787	1.7771e+02	-8.8425	-104.820192	0.000628	6.282726	2.128645	0.000252
1788	1.7781e+02	-8.8121	-104.602187	0.000547	5.472052	1.853981	0.000219
1789	1.7791e+02	-8.7735	-104.355922	0.000618	6.181392	2.094312	0.000248
1790	1.7801e+02	-8.7399	-104.125805	0.000578	5.776055	1.956980	0.000231
1791	1.7810e+02	-8.6949	-103.903762	0.000557	5.573386	1.888314	0.000223
1792	1.7820e+02	-8.6500	-103.689794	0.000537	5.370717	1.819648	0.000215
1793	1.7830e+02	-8.5955	-103.391046	0.000750	7.498737	2.540641	0.000300
1794	1.7840e+02	-8.5714	-103.181115	0.000527	5.269383	1.785315	0.000211
1795	1.7850e+02	-8.5249	-102.967147	0.000537	5.370717	1.819648	0.000215
1796	1.7860e+02	-8.4832	-102.724919	0.000608	6.080057	2.059979	0.000243
1797	1.7870e+02	-8.4543	-102.397911	0.000821	8.208078	2.780972	0.000329
1798	1.7880e+02	-8.4078	-102.212203	0.000466	4.661377	1.579317	0.000187
1799	1.7890e+02	-8.3773	-101.969974	0.000608	6.080057	2.059979	0.000243
1800	1.7900e+02	-8.3404	-101.731783	0.000598	5.978723	2.025646	0.000239
1801	1.7910e+02	-8.2923	-101.493592	0.000598	5.978723	2.025646	0.000239
1802	1.7920e+02	-8.2554	-101.239253	0.000638	6.384060	2.162978	0.000256
1803	1.7930e+02	-8.2153	-100.984913	0.000638	6.384060	2.162978	0.000256
1804	1.7940e+02	-8.1720	-100.783057	0.000507	5.066715	1.716649	0.000203
1805	1.7950e+02	-8.1431	-100.540828	0.000608	6.080057	2.059979	0.000243
1806	1.7960e+02	-8.0869	-100.274377	0.000669	6.688063	2.265977	0.000268
1807	1.7970e+02	-8.0500	-100.080595	0.000486	4.864046	1.647983	0.000195
1808	1.7980e+02	-8.0196	-99.793958	0.000719	7.194735	2.437642	0.000288
1809	1.7990e+02	-7.9714	-99.487136	0.000770	7.701406	2.609307	0.000308
1810	1.8000e+02	-7.9313	-99.281242	0.000517	5.168049	1.750982	0.000207
1811	1.8009e+02	-7.8896	-99.063237	0.000547	5.472052	1.853981	0.000219
1812	1.8019e+02	-7.8543	-98.796786	0.000669	6.688063	2.265977	0.000268
1813	1.8029e+02	-7.8190	-98.554558	0.000608	6.080057	2.059979	0.000243
1814	1.8039e+02	-7.7693	-98.312329	0.000608	6.080057	2.059979	0.000243
1815	1.8049e+02	-7.7388	-98.090287	0.000557	5.573386	1.888314	0.000223
1816	1.8059e+02	-7.6923	-97.807688	0.000709	7.093400	2.403309	0.000284
1817	1.8069e+02	-7.6586	-97.573534	0.000588	5.877389	1.991313	0.000235
1818	1.8079e+02	-7.6265	-97.299008	0.000689	6.890732	2.334643	0.000276
1819	1.8089e+02	-7.5752	-97.056780	0.000608	6.080057	2.059979	0.000243
1820	1.8099e+02	-7.5383	-96.798404	0.000649	6.485395	2.197311	0.000260
1821	1.8109e+02	-7.4966	-96.564250	0.000588	5.877389	1.991313	0.000235
1822	1.8119e+02	-7.4468	-96.305873	0.000649	6.485395	2.197311	0.000260
1823	1.8129e+02	-7.4100	-96.027311	0.000699	6.992066	2.368976	0.000280
1824	1.8139e+02	-7.3795	-95.772971	0.000638	6.384060	2.162978	0.000256
1825	1.8149e+02	-7.3297	-95.559003	0.000537	5.370717	1.819648	0.000215
1826	1.8159e+02	-7.2993	-95.240069	0.000801	8.005409	2.712306	0.000321
1827	1.8169e+02	-7.2543	-95.009952	0.000578	5.776055	1.956980	0.000231
1828	1.8179e+02	-7.2190	-94.759650	0.000628	6.282726	2.128645	0.000252
1829	1.8189e+02	-7.1805	-94.553756	0.000517	5.168049	1.750982	0.000207
1830	1.8199e+02	-7.1292	-94.263082	0.000730	7.296069	2.471975	0.000292
1831	1.8209e+02	-7.0971	-94.028928	0.000588	5.877389	1.991313	0.000235
1832	1.8218e+02	-7.0586	-93.758440	0.000679	6.789397	2.300310	0.000272
1833	1.8228e+02	-7.0169	-93.491989	0.000669	6.688063	2.265977	0.000268
1834	1.8238e+02	-6.9720	-93.221501	0.000679	6.789397	2.300310	0.000272
1835	1.8248e+02	-6.9335	-92.979273	0.000608	6.080057	2.059979	0.000243
1836	1.8258e+02	-6.8982	-92.704748	0.000689	6.890732	2.334643	0.000276
1837	1.8268e+02	-6.8581	-92.478668	0.000567	5.674720	1.922647	0.000227
1838	1.8278e+02	-6.8164	-92.216255	0.000659	6.586729	2.231644	0.000264
1839	1.8288e+02	-6.7731	-91.893284	0.000811	8.106743	2.746639	0.000325
1840	1.8298e+02	-6.7378	-91.671241	0.000557	5.573386	1.888314	0.000223
1841	1.8308e+02	-6.7025	-91.400753	0.000679	6.789397	2.300310	0.000272
1842	1.8318e+02	-6.6592	-91.162562	0.000598	5.978723	2.025646	0.000239
1843	1.8328e+02	-6.6143	-90.904185	0.000649	6.485395	2.197311	0.000260
1844	1.8338e+02	-6.5741	-90.617549	0.000719	7.194735	2.437642	0.000288
1845	1.8348e+02	-6.5437	-90.371283	0.000618	6.181392	2.094312	0.000248
1846	1.8358e+02	-6.4987	-90.112907	0.000649	6.485395	2.197311	0.000260
1847	1.8368e+02	-6.4651	-89.858567	0.000638	6.384060	2.162978	0.000256
1848	1.8378e+02	-6.4314	-89.580005	0.000699	6.992066	2.368976	0.000280
1849	1.8388e+02	-6.3848	-89.309517	0.000679	6.789397	2.300310	0.000272
1850	1.8398e+02	-6.3431	-89.079400	0.000578	5.776055	1.956980	0.000231
1851	1.8407e+02	-6.3062	-88.808912	0.000679	6.789397	2.300310	0.000272
1852	1.8417e+02	-6.2613	-88.562647	0.000618	6.181392	2.094312	0.000248
1853	1.8427e+02	-6.2228	-88.288121	0.000689	6.890732	2.334643	0.000276
1854	1.8437e+02	-6.1795	-88.021670	0.000669	6.688063	2.265977	0.000268
1855	1.8447e+02	-6.1362	-87.726960	0.000740	7.397403	2.506308	0.000296
1856	1.8457e+02	-6.1089	-87.480694	0.000618	6.181392	2.094312	0.000248
1857	1.8467e+02	-6.0608	-87.214243	0.000669	6.688063	2.265977	0.000268
1858	1.8477e+02	-6.0303	-86.899347	0.000790	7.904075	2.677973	0.000316
1859	1.8487e+02	-5.9838	-86.657119	0.000608	6.080057	2.059979	0.000243
1860	1.8497e+02	-5.9373	-86.406816	0.000628	6.282726	2.128645	0.000252
1861	1.8507e+02	-5.9132	-86.136328	0.000679	6.789397	2.300310	0.000272
1862	1.8517e+02	-5.8522	-85.825469	0.000780	7.802740	2.643640	0.000312
1863	1.8527e+02	-5.8234	-85.599389	0.000567	5.674720	1.922647	0.000227
1864	1.8537e+02	-5.7865	-85.288530	0.000780	7.802740	2.643640	0.000312
1865	1.8547e+02	-5.7480	-85.009967	0.000699	6.992066	2.368976	0.000280
1866	1.8557e+02	-5.7014	-84.775813	0.000588	5.877389	1.991313	0.000235
1867	1.8567e+02	-5.6662	-84.505325	0.000679	6.789397	2.300310	0.000272
1868	1.8577e+02	-5.6212	-84.210614	0.000740	7.397403	2.506308	0.000296
1869	1.8587e+02	-5.5811	-83.948201	0.000659	6.586729	2.231644	0.000264
1870	1.8597e+02	-5.5442	-83.669638	0.000699	6.992066	2.368976	0.000280
1871	1.8606e+02	-5.5025	-83.391076	0.000699	6.992066	2.368976	0.000280
1872	1.8616e+02	-5.4688	-83.096365	0.000740	7.397403	2.506308	0.000296
1873	1.8626e+02	-5.4303	-82.866248	0.000578	5.776055	1.956980	0.000231
1874	1.8636e+02	-5.3806	-82.575574	0.000730	7.296069	2.471975	0.000292
1875	1.8646e+02	-5.3581	-82.276826	0.000750	7.498737	2.540641	0.000300
1876	1.8656e+02	-5.3020	-82.010375	0.000669	6.688063	2.265977	0.000268
1877	1.8666e+02	-5.2699	-81.723739	0.000719	7.194735	2.437642	0.000288
1878	1.8676e+02	-5.2362	-81.501696	0.000557	5.573386	1.888314	0.000223
1879	1.8686e+02	-5.1913	-81.206985	0.000740	7.397403	2.506308	0.000296
1880	1.8696e+02	-5.1448	-80.904200	0.000760	7.600072	2.574974	0.000304
1881	1.8706e+02	-5.1095	-80.637749	0.000669	6.688063	2.265977	0.000268
1882	1.8716e+02	-5.0662	-80.347075	0.000730	7.296069	2.471975	0.000292
1883	1.8726e+02	-5.0309	-80.084662	0.000659	6.586729	2.231644	0.000264
1884	1.8736e+02	-4.9827	-79.814174	0.000679	6.789397	2.300310	0.000272
1885	1.8746e+02	-4.9507	-79.523500	0.000730	7.296069	2.471975	0.000292
1886	1.8756e+02	-4.9057	-79.204566	0.000801	8.005409	2.712306	0.000321
1887	1.8766e+02	-4.8737	-78.946189	0.000649	6.485395	2.197311	0.000260
1888	1.8776e+02	-4.8207	-78.671664	0.000689	6.890732	2.334643	0.000276
1889	1.8786e+02	-4.7854	-78.389065	0.000709	7.093400	2.403309	0.000284
1890	1.8796e+02	-4.7469	-78.134725	0.000638	6.384060	2.162978	0.000256
1891	1.8806e+02	-4.7084	-77.835977	0.000750	7.498737	2.540641	0.000300
1892	1.8815e+02	-4.6715	-77.569526	0.000669	6.688063	2.265977	0.000268
1893	1.8825e+02	-4.6234	-77.266741	0.000760	7.600072	2.574974	0.000304
1894	1.8835e+02	-4.5897	-77.004327	0.000659	6.586729	2.231644	0.000264
1895	1.8845e+02	-4.5496	-76.701542	0.000760	7.600072	2.574974	0.000304
1896	1.8855e+02	-4.5143	-76.447202	0.000638	6.384060	2.162978	0.000256
1897	1.8865e+02	-4.4726	-76.124231	0.000811	8.106743	2.746639	0.000325
1898	1.8875e+02	-4.4293	-75.845669	0.000699	6.992066	2.368976	0.000280
1899	1.8885e+02	-4.3892	-75.542884	0.000760	7.600072	2.574974	0.000304
1900	1.8895e+02	-4.3587	-75.349101	0.000486	4.864046	1.647983	0.000195
1901	1.8905e+02	-4.3074	-74.997871	0.000882	8.816083	2.986970	0.000353
1902	1.8915e+02	-4.2657	-74.699123	0.000750	7.498737	2.540641	0.000300
1903	1.8925e+02	-4.2336	-74.420560	0.000699	6.992066	2.368976	0.000280
1904	1.8935e+02	-4.1935	-74.182369	0.000598	5.978723	2.025646	0.000239
1905	1.8945e+02	-4.1566	-73.823064	0.000902	9.018752	3.055636	0.000361
1906	1.8955e+02	-4.1036	-73.588910	0.000588	5.877389	1.991313	0.000235
1907	1.8965e+02	-4.0731	-73.298236	0.000730	7.296069	2.471975	0.000292
1908	1.8975e+02	-4.0362	-73.019674	0.000699	6.992066	2.368976	0.000280
1909	1.8985e+02	-3.9865	-72.720926	0.000750	7.498737	2.540641	0.000300
1910	1.8995e+02	-3.9560	-72.397955	0.000811	8.106743	2.746639	0.000325
1911	1.9004e+02	-3.9095	-72.175913	0.000557	5.573386	1.888314	0.000223
1912	1.9014e+02	-3.8678	-71.844868	0.000831	8.309412	2.815305	0.000333
1913	1.9024e+02	-3.8277	-71.578417	0.000669	6.688063	2.265977	0.000268
1914	1.9034e+02	-3.7972	-71.279669	0.000750	7.498737	2.540641	0.000300
1915	1.9044e+02	-3.7523	-71.001106	0.000699	6.992066	2.368976	0.000280
1916	1.9054e+02	-3.7154	-70.742730	0.000649	6.485395	2.197311	0.000260
1917	1.9064e+02	-3.6705	-70.423796	0.000801	8.005409	2.712306	0.000321
1918	1.9074e+02	-3.6384	-70.108899	0.000790	7.904075	2.677973	0.000316
1919	1.9084e+02	-3.5983	-69.830337	0.000699	6.992066	2.368976	0.000280
1920	1.9094e+02	-3.5630	-69.519477	0.000780	7.802740	2.643640	0.000312
1921	1.9104e+02	-3.5101	-69.269175	0.000628	6.282726	2.128645	0.000252
1922	1.9114e+02	-3.4667	-68.986575	0.000709	7.093400	2.403309	0.000284
1923	1.9124e+02	-3.4363	-68.712050	0.000689	6.890732	2.334643	0.000276
1924	1.9134e+02	-3.3897	-68.389079	0.000811	8.106743	2.746639	0.000325
1925	1.9144e+02	-3.3512	-68.098406	0.000730	7.296069	2.471975	0.000292
1926	1.9154e+02	-3.3111	-67.791583	0.000770	7.701406	2.609307	0.000308
1927	1.9164e+02	-3.2791	-67.549355	0.000608	6.080057	2.059979	0.000243
1928	1.9174e+02	-3.2357	-67.242533	0.000770	7.701406	2.609307	0.000308
1929	1.9184e+02	-3.1940	-66.931673	0.000780	7.802740	2.643640	0.000312
1930	1.9194e+02	-3.1555	-66.649074	0.000709	7.093400	2.403309	0.000284
1931	1.9203e+02	-3.1186	-66.350326	0.000750	7.498737	2.540641	0.000300
1932	1.9213e+02	-3.0833	-66.023318	0.000821	8.208078	2.780972	0.000329
1933	1.9223e+02	-3.0368	-65.764941	0.000649	6.485395	2.197311	0.000260
1934	1.9233e+02	-2.9983	-65.421785	0.000861	8.613415	2.918304	0.000345
1935	1.9243e+02	-2.9550	-65.163408	0.000649	6.485395	2.197311	0.000260
1936	1.9253e+02	-2.9085	-64.860623	0.000760	7.600072	2.574974	0.000304
1937	1.9263e+02	-2.8716	-64.537652	0.000811	8.106743	2.746639	0.000325
1938	1.9273e+02	-2.8331	-64.259090	0.000699	6.992066	2.368976	0.000280
1939	1.9283e+02	-2.7946	-63.984564	0.000689	6.890732	2.334643	0.000276
1940	1.9293e+02	-2.7464	-63.629296	0.000892	8.917418	3.021303	0.000357
1941	1.9303e+02	-2.7160	-63.391105	0.000598	5.978723	2.025646	0.000239
1942	1.9313e+02	-2.6710	-63.108506	0.000709	7.093400	2.403309	0.000284
1943	1.9323e+02	-2.6325	-62.785535	0.000811	8.106743	2.746639	0.000325
1944	1.9333e+02	-2.5956	-62.498898	0.000719	7.194735	2.437642	0.000288
1945	1.9343e+02	-2.5571	-62.171890	0.000821	8.208078	2.780972	0.000329
1946	1.9353e+02	-2.5106	-61.889291	0.000709	7.093400	2.403309	0.000284
1947	1.9363e+02	-2.4721	-61.562283	0.000821	8.208078	2.780972	0.000329
1948	1.9373e+02	-2.4400	-61.291795	0.000679	6.789397	2.300310	0.000272
1949	1.9383e+02	-2.3967	-60.993047	0.000750	7.498737	2.540641	0.000300
1950	1.9393e+02	-2.3550	-60.666039	0.000821	8.208078	2.780972	0.000329
1951	1.9403e+02	-2.3197	-60.371328	0.000740	7.397403	2.506308	0.000296
1952	1.9412e+02	-2.2748	-60.108914	0.000659	6.586729	2.231644	0.000264
1953	1.9422e+02	-2.2395	-59.806129	0.000760	7.600072	2.574974	0.000304
1954	1.9432e+02	-2.2042	-59.479121	0.000821	8.208078	2.780972	0.000329
1955	1.9442e+02	-2.1577	-59.144039	0.000841	8.410746	2.849638	0.000337
1956	1.9452e+02	-2.1160	-58.893736	0.000628	6.282726	2.128645	0.000252
1957	1.9462e+02	-2.0855	-58.570765	0.000811	8.106743	2.746639	0.000325
1958	1.9472e+02	-2.0454	-58.243757	0.000821	8.208078	2.780972	0.000329
1959	1.9482e+02	-2.0005	-57.957121	0.000719	7.194735	2.437642	0.000288
1960	1.9492e+02	-1.9524	-57.686633	0.000679	6.789397	2.300310	0.000272
1961	1.9502e+02	-1.9171	-57.319253	0.000922	9.221420	3.124302	0.000369
1962	1.9512e+02	-1.8802	-57.020505	0.000750	7.498737	2.540641	0.000300
1963	1.9522e+02	-1.8368	-56.713683	0.000770	7.701406	2.609307	0.000308
1964	1.9532e+02	-1.8048	-56.402823	0.000780	7.802740	2.643640	0.000312
1965	1.9542e+02	-1.7695	-56.079853	0.000811	8.106743	2.746639	0.000325
1966	1.9552e+02	-1.7197	-55.744770	0.000841	8.410746	2.849638	0.000337
1967	1.9562e+02	-1.6764	-55.454096	0.000730	7.296069	2.471975	0.000292
1968	1.9572e+02	-1.6379	-55.155348	0.000750	7.498737	2.540641	0.000300
1969	1.9582e+02	-1.6058	-54.864675	0.000730	7.296069	2.471975	0.000292
1970	1.9592e+02	-1.5577	-54.541704	0.000811	8.106743	2.746639	0.000325
1971	1.9601e+02	-1.5208	-54.230844	0.000780	7.802740	2.643640	0.000312
1972	1.9611e+02	-1.4807	-53.915948	0.000790	7.904075	2.677973	0.000316
1973	1.9621e+02	-1.4518	-53.601051	0.000790	7.904075	2.677973	0.000316
1974	1.9631e+02	-1.4085	-53.318452	0.000709	7.093400	2.403309	0.000284
1975	1.9641e+02	-1.3604	-52.983369	0.000841	8.410746	2.849638	0.000337
1976	1.9651e+02	-1.3187	-52.664436	0.000801	8.005409	2.712306	0.000321
1977	1.9661e+02	-1.2802	-52.385873	0.000699	6.992066	2.368976	0.000280
1978	1.9671e+02	-1.2385	-52.018494	0.000922	9.221420	3.124302	0.000369
1979	1.9681e+02	-1.2112	-51.719746	0.000750	7.498737	2.540641	0.000300
1980	1.9691e+02	-1.1631	-51.408886	0.000780	7.802740	2.643640	0.000312
1981	1.9701e+02	-1.1133	-51.089953	0.000801	8.005409	2.712306	0.000321
1982	1.9711e+02	-1.0845	-50.811390	0.000699	6.992066	2.368976	0.000280
1983	1.9721e+02	-1.0444	-50.423825	0.000973	9.728092	3.295967	0.000390
1984	1.9731e+02	-1.0042	-50.088743	0.000841	8.410746	2.849638	0.000337
1985	1.9741e+02	-0.9690	-49.846515	0.000608	6.080057	2.059979	0.000243
1986	1.9751e+02	-0.9192	-49.503358	0.000861	8.613415	2.918304	0.000345
1987	1.9761e+02	-0.8807	-49.152128	0.000882	8.816083	2.986970	0.000353
1988	1.9771e+02	-0.8454	-48.857417	0.000740	7.397403	2.506308	0.000296
1989	1.9781e+02	-0.7957	-48.530409	0.000821	8.208078	2.780972	0.000329
1990	1.9791e+02	-0.7524	-48.195326	0.000841	8.410746	2.849638	0.000337
1991	1.9800e+02	-0.7139	-47.908690	0.000719	7.194735	2.437642	0.000288
1992	1.9810e+02	-0.6706	-47.573608	0.000841	8.410746	2.849638	0.000337
1993	1.9820e+02	-0.6449	-47.234488	0.000851	8.512080	2.883971	0.000341
1994	1.9830e+02	-0.6016	-46.915554	0.000801	8.005409	2.712306	0.000321
1995	1.9840e+02	-0.5615	-46.592584	0.000811	8.106743	2.746639	0.000325
1996	1.9850e+02	-0.5246	-46.269613	0.000811	8.106743	2.746639	0.000325
1997	1.9860e+02	-0.4845	-45.934530	0.000841	8.410746	2.849638	0.000337
1998	1.9870e+02	-0.4492	-45.607522	0.000821	8.208078	2.780972	0.000329
1999	1.9880e+02	-0.4139	-45.320886	0.000719	7.194735	2.437642	0.000288
2000	1.9890e+02	-0.3561	-44.961581	0.000902	9.018752	3.055636	0.000361
2001	1.9900e+02	-0.3208	-44.662833	0.000750	7.498737	2.540641	0.000300
2002	1.9910e+02	-0.2872	-44.335825	0.000821	8.208078	2.780972	0.000329
2003	1.9920e+02	-0.2422	-43.988631	0.000871	8.714749	2.952637	0.000349
2004	1.9930e+02	-0.2086	-43.665660	0.000811	8.106743	2.746639	0.000325
2005	1.9940e+02	-0.1620	-43.322504	0.000861	8.613415	2.918304	0.000345
2006	1.9950e+02	-0.1235	-43.039904	0.000709	7.093400	2.403309	0.000284
2007	1.9960e+02	-0.0802	-42.680599	0.000902	9.018752	3.055636	0.000361
2008	1.9970e+02	-0.0465	-42.321294	0.000902	9.018752	3.055636	0.000361
2009	1.9980e+02	-0.0112	-42.018509	0.000902	9.018752	3.055636	0.000304

Center data before PMax,+/-Pr and +/-Vc Calc.

PMax (uC/cm2):	1.52e+02
Pr (uC/cm2):	2.79e+01
-Pr (uC/cm2):	-4.20e+01
PLoss (uC/cm2):	-5.52e+01
-Vc:	-3.36e+00
C (Max-Eff) (nF):	7.59e-01
K (Eff):	2.57e+03
Vert. (+/-Pr) Shift (uC/cm2):	-7.08e+00
Offset (uC/cm2):	-1.32e+01

A (Loop Area - uC/cm2·Volts):	-1.60e-01



Hysteresis Version: 5.48.1 - Radiant Technologies, Inc., 1999 - 9/12/24

