»»»»»»»»»»»»»»»»»»»»»»»»»»»»»»»»»»»» Hysteresis ««««««««««««««««««««««««««««««««««««
»»»  Executed Version:	5.48.1
»»»  Vision Version:	5.48.4 (R)
»»»  Vision Compiled:	9/18/24
»»»  Driver Version:	5.47.0
»»»  Windows Version:	Windows 8 or 8.1
»»»  Processor Information:	x86 (AMD or Intel) - 32 Processors
»»»  Tester Name:	PMF21124-494 (100V)
»»»  Tester S/N:	PMF21124-494
»»»  Internal Amp Type:	100V RevK 270k
»»»  Internal Amp S/N:	iAB2-596/K     
»»»  Execution Count:	1
»»»»»»»»»»»»»»»»»»»»»»»»»»»»»»»»»»»»»»»»»»««««««««««««««««««««««««««««««««««««««««««

Stored:	6/16/2025 - 12:4:21
Configured:	06/16/25 10:13:01 AM
Executed:	06/16/25 12:03:40 PM

»»»»»»»»»»»»»»»»»»»»»»»»»»»»»»»»»»» Sample Info ««««««««««««««««««««««««««««««««««««
Sample Name:	
Lot Name:	
Wafer Name:	
Die Row/Column:	0/0
Capacitor Number:	0
Sample Area (cm2):	1.00e-04
Sample Thickness (microns):	3.00e-01

Amplifier:	Internal

»»»»»»»»»»»»»»»»»»»»»»»»»»»»»»»»»»» Tester Info «««««««««««««««««««««««««««««««««««
Tester Name:	PMF21124-494 (100V)
Tester Serial Number:	PMF21124-494
Return Signal Amp. Level:	0.19 [Index: 3]

»»»»»»»»»»»»»»»»»»»»»»»»»»»»»»»» Hysteresis Info ««««««««««««««««««««««««««««««««««
Task Name:	Hyst-2190
Volts:	20.00
Field:	666.67 (kV/cm)
DCBias:	0.00
DCField:	0.00 (kV/cm)
Hysteresis Period (ms):	2.00e+02
Preset:	Enabled
Preset Delay (ms):	1.00e+03
Profile:	Standard Bipolar

»»»»»»»»»»»»»»»»»»»»»»»»»»»»»»»»»»»»»» Data «««««««««««««««««««««««««««««««««««««««
Points:	2009

Valid Data

Point	Time (ms)	Drive Voltage	Measured Polarization (uC/cm2)	Capacitance (uF)	Normalized Capacitance (uF/cm2)	Dielectric Constant	Instantaneous Current (mA)
   1	0.0000e+00	0.0032	80.191646	0.000436	4.357811	1.476466	0.000174
   2	9.9500e-02	0.0273	80.365243	0.000436	4.357811	1.476466	0.000174
   3	1.9900e-01	0.0770	80.623619	0.000649	6.486045	2.197532	0.000260
   4	2.9850e-01	0.1075	80.833550	0.000527	5.269911	1.785494	0.000211
   5	3.9800e-01	0.1572	81.140373	0.000770	7.702178	2.609569	0.000308
   6	4.9750e-01	0.1941	81.334155	0.000486	4.864534	1.648149	0.000195
   7	5.9700e-01	0.2294	81.665200	0.000831	8.310245	2.815587	0.000333
   8	6.9650e-01	0.2679	81.923577	0.000649	6.486045	2.197532	0.000260
   9	7.9600e-01	0.3032	82.202139	0.000699	6.992767	2.369214	0.000280
  10	8.9550e-01	0.3497	82.464553	0.000659	6.587389	2.231868	0.000264
  11	9.9500e-01	0.3995	82.698707	0.000588	5.877978	1.991513	0.000235
  12	1.0945e+00	0.4412	82.936898	0.000598	5.979323	2.025849	0.000239
  13	1.1940e+00	0.4732	83.179126	0.000608	6.080667	2.060186	0.000243
  14	1.2935e+00	0.5134	83.433466	0.000638	6.384700	2.163195	0.000256
  15	1.3930e+00	0.5438	83.712028	0.000699	6.992767	2.369214	0.000280
  16	1.4925e+00	0.5952	83.950219	0.000598	5.979323	2.025849	0.000239
  17	1.5920e+00	0.6353	84.176299	0.000568	5.675289	1.922840	0.000227
  18	1.6915e+00	0.6593	84.487158	0.000780	7.803523	2.643905	0.000312
  19	1.7910e+00	0.7123	84.745535	0.000649	6.486045	2.197532	0.000260
  20	1.8905e+00	0.7556	84.987763	0.000608	6.080667	2.060186	0.000243
  21	1.9900e+00	0.7893	85.270362	0.000709	7.094112	2.403550	0.000284
  22	2.0895e+00	0.8310	85.496442	0.000568	5.675289	1.922840	0.000227
  23	2.1890e+00	0.8727	85.815376	0.000801	8.006212	2.712578	0.000321
  24	2.2885e+00	0.9176	86.029344	0.000537	5.371256	1.819831	0.000215
  25	2.3880e+00	0.9465	86.324055	0.000740	7.398145	2.506559	0.000296
  26	2.4875e+00	0.9978	86.602617	0.000699	6.992767	2.369214	0.000280
  27	2.5870e+00	1.0267	86.865031	0.000659	6.587389	2.231868	0.000264
  28	2.6865e+00	1.0684	87.123408	0.000649	6.486045	2.197532	0.000260
  29	2.7860e+00	1.1117	87.397933	0.000689	6.891423	2.334877	0.000276
  30	2.8855e+00	1.1502	87.628050	0.000578	5.776634	1.957176	0.000231
  31	2.9850e+00	1.1887	87.878352	0.000628	6.283356	2.128859	0.000252
  32	3.0845e+00	1.2240	88.160952	0.000709	7.094112	2.403550	0.000284
  33	3.1840e+00	1.2689	88.427403	0.000669	6.688734	2.266204	0.000268
  34	3.2835e+00	1.3091	88.629259	0.000507	5.067223	1.716821	0.000203
  35	3.3830e+00	1.3492	88.899748	0.000679	6.790078	2.300541	0.000272
  36	3.4825e+00	1.3989	89.178310	0.000699	6.992767	2.369214	0.000280
  37	3.5820e+00	1.4326	89.489169	0.000780	7.803523	2.643905	0.000312
  38	3.6815e+00	1.4743	89.735435	0.000618	6.182012	2.094522	0.000248
  39	3.7810e+00	1.5048	90.022071	0.000720	7.195456	2.437887	0.000288
  40	3.8805e+00	1.5449	90.252188	0.000578	5.776634	1.957176	0.000231
  41	3.9800e+00	1.5850	90.542862	0.000730	7.296801	2.472223	0.000292
  42	4.0795e+00	1.6251	90.772979	0.000578	5.776634	1.957176	0.000231
  43	4.1790e+00	1.6588	91.083838	0.000780	7.803523	2.643905	0.000312
  44	4.2785e+00	1.7133	91.350289	0.000669	6.688734	2.266204	0.000268
  45	4.3780e+00	1.7518	91.649037	0.000750	7.499489	2.540896	0.000300
  46	4.4775e+00	1.7839	91.907414	0.000649	6.486045	2.197532	0.000260
  47	4.5770e+00	1.8304	92.121382	0.000537	5.371256	1.819831	0.000215
  48	4.6765e+00	1.8721	92.428204	0.000770	7.702178	2.609569	0.000308
  49	4.7760e+00	1.9090	92.674469	0.000618	6.182012	2.094522	0.000248
  50	4.8755e+00	1.9524	92.892475	0.000547	5.472600	1.854167	0.000219
  51	4.9750e+00	1.9989	93.207371	0.000790	7.904867	2.678242	0.000316
  52	5.0745e+00	2.0261	93.465748	0.000649	6.486045	2.197532	0.000260
  53	5.1740e+00	2.0663	93.712013	0.000618	6.182012	2.094522	0.000248
  54	5.2735e+00	2.1128	93.982501	0.000679	6.790078	2.300541	0.000272
  55	5.3730e+00	2.1497	94.289324	0.000770	7.702178	2.609569	0.000308
  56	5.4725e+00	2.1898	94.539626	0.000628	6.283356	2.128859	0.000252
  57	5.5720e+00	2.2138	94.798003	0.000649	6.486045	2.197532	0.000260
  58	5.6715e+00	2.2604	95.100788	0.000760	7.600834	2.575232	0.000304
  59	5.7710e+00	2.3021	95.318793	0.000547	5.472600	1.854167	0.000219
  60	5.8705e+00	2.3422	95.601393	0.000709	7.094112	2.403550	0.000284
  61	5.9700e+00	2.3823	95.896104	0.000740	7.398145	2.506559	0.000296
  62	6.0695e+00	2.4320	96.170629	0.000689	6.891423	2.334877	0.000276
  63	6.1690e+00	2.4705	96.388634	0.000547	5.472600	1.854167	0.000219
  64	6.2685e+00	2.5074	96.699494	0.000780	7.803523	2.643905	0.000312
  65	6.3680e+00	2.5395	96.941722	0.000608	6.080667	2.060186	0.000243
  66	6.4675e+00	2.5892	97.192024	0.000628	6.283356	2.128859	0.000252
  67	6.5670e+00	2.6277	97.434252	0.000608	6.080667	2.060186	0.000243
  68	6.6665e+00	2.6694	97.720889	0.000720	7.195456	2.437887	0.000288
  69	6.7660e+00	2.6967	97.983303	0.000659	6.587389	2.231868	0.000264
  70	6.8655e+00	2.7432	98.249754	0.000669	6.688734	2.266204	0.000268
  71	6.9650e+00	2.7849	98.491982	0.000608	6.080667	2.060186	0.000243
  72	7.0645e+00	2.8299	98.758433	0.000669	6.688734	2.266204	0.000268
  73	7.1640e+00	2.8620	99.020847	0.000659	6.587389	2.231868	0.000264
  74	7.2635e+00	2.8988	99.291335	0.000679	6.790078	2.300541	0.000272
  75	7.3630e+00	2.9438	99.521452	0.000578	5.776634	1.957176	0.000231
  76	7.4625e+00	2.9839	99.812125	0.000730	7.296801	2.472223	0.000292
  77	7.5620e+00	3.0208	100.078576	0.000669	6.688734	2.266204	0.000268
  78	7.6615e+00	3.0657	100.369250	0.000730	7.296801	2.472223	0.000292
  79	7.7610e+00	3.1042	100.619553	0.000628	6.283356	2.128859	0.000252
  80	7.8605e+00	3.1347	100.918301	0.000750	7.499489	2.540896	0.000300
  81	7.9600e+00	3.1892	101.192826	0.000689	6.891423	2.334877	0.000276
  82	8.0595e+00	3.2293	101.390645	0.000497	4.965878	1.682485	0.000199
  83	8.1590e+00	3.2566	101.669208	0.000699	6.992767	2.369214	0.000280
  84	8.2585e+00	3.3111	101.907399	0.000598	5.979323	2.025849	0.000239
  85	8.3580e+00	3.3432	102.202110	0.000740	7.398145	2.506559	0.000296
  86	8.4575e+00	3.3849	102.448375	0.000618	6.182012	2.094522	0.000248
  87	8.5570e+00	3.4202	102.714826	0.000669	6.688734	2.266204	0.000268
  88	8.6565e+00	3.4667	103.013574	0.000750	7.499489	2.540896	0.000300
  89	8.7560e+00	3.4988	103.247728	0.000588	5.877978	1.991513	0.000235
  90	8.8555e+00	3.5309	103.506105	0.000649	6.486045	2.197532	0.000260
  91	8.9550e+00	3.5839	103.796778	0.000730	7.296801	2.472223	0.000292
  92	9.0545e+00	3.6256	104.039007	0.000608	6.080667	2.060186	0.000243
  93	9.1540e+00	3.6625	104.313532	0.000689	6.891423	2.334877	0.000276
  94	9.2535e+00	3.6962	104.563834	0.000628	6.283356	2.128859	0.000252
  95	9.3530e+00	3.7363	104.854508	0.000730	7.296801	2.472223	0.000292
  96	9.4525e+00	3.7796	105.133070	0.000699	6.992767	2.369214	0.000280
  97	9.5520e+00	3.8197	105.423744	0.000730	7.296801	2.472223	0.000292
  98	9.6515e+00	3.8566	105.653861	0.000578	5.776634	1.957176	0.000231
  99	9.7510e+00	3.8983	105.892052	0.000598	5.979323	2.025849	0.000239
 100	9.8505e+00	3.9400	106.194837	0.000760	7.600834	2.575232	0.000304
 101	9.9500e+00	3.9769	106.428991	0.000588	5.877978	1.991513	0.000235
 102	1.0050e+01	4.0138	106.687368	0.000649	6.486045	2.197532	0.000260
 103	1.0149e+01	4.0667	106.933633	0.000618	6.182012	2.094522	0.000248
 104	1.0248e+01	4.0940	107.196047	0.000659	6.587389	2.231868	0.000264
 105	1.0348e+01	4.1341	107.482683	0.000720	7.195456	2.437887	0.000288
 106	1.0447e+01	4.1806	107.720874	0.000598	5.979323	2.025849	0.000239
 107	1.0547e+01	4.2207	107.995400	0.000689	6.891423	2.334877	0.000276
 108	1.0646e+01	4.2576	108.257813	0.000659	6.587389	2.231868	0.000264
 109	1.0746e+01	4.2945	108.508116	0.000628	6.283356	2.128859	0.000252
 110	1.0845e+01	4.3378	108.802827	0.000740	7.398145	2.506559	0.000296
 111	1.0945e+01	4.3699	109.045055	0.000608	6.080667	2.060186	0.000243
 112	1.1044e+01	4.4116	109.355914	0.000780	7.803523	2.643905	0.000312
 113	1.1144e+01	4.4485	109.577957	0.000557	5.573945	1.888504	0.000223
 114	1.1243e+01	4.4919	109.820185	0.000608	6.080667	2.060186	0.000243
 115	1.1343e+01	4.5480	110.114896	0.000740	7.398145	2.506559	0.000296
 116	1.1443e+01	4.5769	110.405570	0.000730	7.296801	2.472223	0.000292
 117	1.1542e+01	4.6090	110.627612	0.000557	5.573945	1.888504	0.000223
 118	1.1642e+01	4.6555	110.881952	0.000638	6.384700	2.163195	0.000256
 119	1.1741e+01	4.7004	111.124180	0.000608	6.080667	2.060186	0.000243
 120	1.1841e+01	4.7373	111.386594	0.000659	6.587389	2.231868	0.000264
 121	1.1940e+01	4.7870	111.636896	0.000628	6.283356	2.128859	0.000252
 122	1.2040e+01	4.8223	111.915458	0.000699	6.992767	2.369214	0.000280
 123	1.2139e+01	4.8528	112.177872	0.000659	6.587389	2.231868	0.000264
 124	1.2239e+01	4.9090	112.452397	0.000689	6.891423	2.334877	0.000276
 125	1.2338e+01	4.9410	112.678477	0.000568	5.675289	1.922840	0.000227
 126	1.2438e+01	4.9651	112.948965	0.000679	6.790078	2.300541	0.000272
 127	1.2537e+01	5.0132	113.231565	0.000709	7.094112	2.403550	0.000284
 128	1.2636e+01	5.0549	113.469756	0.000598	5.979323	2.025849	0.000239
 129	1.2736e+01	5.0983	113.699872	0.000578	5.776634	1.957176	0.000231
 130	1.2835e+01	5.1335	114.014769	0.000790	7.904867	2.678242	0.000316
 131	1.2935e+01	5.1753	114.228737	0.000537	5.371256	1.819831	0.000215
 132	1.3034e+01	5.2122	114.483077	0.000638	6.384700	2.163195	0.000256
 133	1.3134e+01	5.2474	114.802010	0.000801	8.006212	2.712578	0.000321
 134	1.3233e+01	5.2940	115.011941	0.000527	5.269911	1.785494	0.000211
 135	1.3333e+01	5.3357	115.302615	0.000730	7.296801	2.472223	0.000292
 136	1.3432e+01	5.3710	115.516583	0.000537	5.371256	1.819831	0.000215
 137	1.3532e+01	5.4207	115.799183	0.000709	7.094112	2.403550	0.000284
 138	1.3632e+01	5.4416	116.033337	0.000588	5.877978	1.991513	0.000235
 139	1.3731e+01	5.4977	116.307862	0.000689	6.891423	2.334877	0.000276
 140	1.3831e+01	5.5314	116.566239	0.000649	6.486045	2.197532	0.000260
 141	1.3930e+01	5.5795	116.864987	0.000750	7.499489	2.540896	0.000300
 142	1.4030e+01	5.6212	117.082992	0.000547	5.472600	1.854167	0.000219
 143	1.4129e+01	5.6597	117.349443	0.000669	6.688734	2.266204	0.000268
 144	1.4229e+01	5.6966	117.571486	0.000557	5.573945	1.888504	0.000223
 145	1.4328e+01	5.7335	117.837936	0.000669	6.688734	2.266204	0.000268
 146	1.4428e+01	5.7801	118.136685	0.000750	7.499489	2.540896	0.000300
 147	1.4527e+01	5.8105	118.366801	0.000578	5.776634	1.957176	0.000231
 148	1.4627e+01	5.8490	118.596918	0.000578	5.776634	1.957176	0.000231
 149	1.4726e+01	5.9004	118.855295	0.000649	6.486045	2.197532	0.000260
 150	1.4825e+01	5.9421	119.145968	0.000730	7.296801	2.472223	0.000292
 151	1.4925e+01	5.9742	119.400308	0.000638	6.384700	2.163195	0.000256
 152	1.5024e+01	6.0111	119.618313	0.000547	5.472600	1.854167	0.000219
 153	1.5124e+01	6.0624	119.892839	0.000689	6.891423	2.334877	0.000276
 154	1.5223e+01	6.0945	120.167364	0.000689	6.891423	2.334877	0.000276
 155	1.5323e+01	6.1362	120.417666	0.000628	6.283356	2.128859	0.000252
 156	1.5422e+01	6.1635	120.643746	0.000568	5.675289	1.922840	0.000227
 157	1.5522e+01	6.2052	120.910197	0.000669	6.688734	2.266204	0.000268
 158	1.5621e+01	6.2549	121.176648	0.000669	6.688734	2.266204	0.000268
 159	1.5721e+01	6.2950	121.418876	0.000608	6.080667	2.060186	0.000243
 160	1.5820e+01	6.3399	121.648993	0.000578	5.776634	1.957176	0.000231
 161	1.5920e+01	6.3672	121.927555	0.000699	6.992767	2.369214	0.000280
 162	1.6020e+01	6.4121	122.210154	0.000709	7.094112	2.403550	0.000284
 163	1.6119e+01	6.4474	122.448346	0.000598	5.979323	2.025849	0.000239
 164	1.6218e+01	6.4907	122.662314	0.000537	5.371256	1.819831	0.000215
 165	1.6318e+01	6.5276	122.920690	0.000649	6.486045	2.197532	0.000260
 166	1.6418e+01	6.5725	123.215401	0.000740	7.398145	2.506559	0.000296
 167	1.6517e+01	6.6062	123.477815	0.000659	6.587389	2.231868	0.000264
 168	1.6616e+01	6.6511	123.711969	0.000588	5.877978	1.991513	0.000235
 169	1.6716e+01	6.6880	123.929974	0.000547	5.472600	1.854167	0.000219
 170	1.6816e+01	6.7378	124.139905	0.000527	5.269911	1.785494	0.000211
 171	1.6915e+01	6.7667	124.474988	0.000841	8.411589	2.849924	0.000337
 172	1.7015e+01	6.8116	124.709142	0.000588	5.877978	1.991513	0.000235
 173	1.7114e+01	6.8437	124.910998	0.000507	5.067223	1.716821	0.000203
 174	1.7213e+01	6.8838	125.173412	0.000659	6.587389	2.231868	0.000264
 175	1.7313e+01	6.9255	125.427752	0.000638	6.384700	2.163195	0.000256
 176	1.7413e+01	6.9688	125.629608	0.000507	5.067223	1.716821	0.000203
 177	1.7512e+01	7.0057	125.892022	0.000659	6.587389	2.231868	0.000264
 178	1.7611e+01	7.0474	126.154436	0.000659	6.587389	2.231868	0.000264
 179	1.7711e+01	7.0811	126.400701	0.000618	6.182012	2.094522	0.000248
 180	1.7811e+01	7.1244	126.638892	0.000598	5.979323	2.025849	0.000239
 181	1.7910e+01	7.1741	126.889195	0.000628	6.283356	2.128859	0.000252
 182	1.8009e+01	7.1934	127.139497	0.000628	6.283356	2.128859	0.000252
 183	1.8109e+01	7.2479	127.365577	0.000568	5.675289	1.922840	0.000227
 184	1.8209e+01	7.2848	127.660288	0.000740	7.398145	2.506559	0.000296
 185	1.8308e+01	7.3329	127.918664	0.000649	6.486045	2.197532	0.000260
 186	1.8407e+01	7.3586	128.116484	0.000497	4.965878	1.682485	0.000199
 187	1.8507e+01	7.4019	128.366786	0.000628	6.283356	2.128859	0.000252
 188	1.8607e+01	7.4436	128.621126	0.000638	6.384700	2.163195	0.000256
 189	1.8706e+01	7.4886	128.875466	0.000638	6.384700	2.163195	0.000256
 190	1.8805e+01	7.5287	129.109619	0.000588	5.877978	1.991513	0.000235
 191	1.8905e+01	7.5591	129.339736	0.000578	5.776634	1.957176	0.000231
 192	1.9005e+01	7.6009	129.590039	0.000628	6.283356	2.128859	0.000252
 193	1.9104e+01	7.6474	129.795933	0.000517	5.168567	1.751158	0.000207
 194	1.9203e+01	7.6843	130.062384	0.000669	6.688734	2.266204	0.000268
 195	1.9303e+01	7.7228	130.288463	0.000568	5.675289	1.922840	0.000227
 196	1.9402e+01	7.7581	130.534728	0.000618	6.182012	2.094522	0.000248
 197	1.9502e+01	7.7982	130.768882	0.000588	5.877978	1.991513	0.000235
 198	1.9602e+01	7.8383	130.998999	0.000578	5.776634	1.957176	0.000231
 199	1.9701e+01	7.8880	131.245264	0.000618	6.182012	2.094522	0.000248
 200	1.9800e+01	7.9169	131.507678	0.000659	6.587389	2.231868	0.000264
 201	1.9900e+01	7.9666	131.729721	0.000557	5.573945	1.888504	0.000223
 202	2.0000e+01	7.9987	131.947726	0.000547	5.472600	1.854167	0.000219
 203	2.0099e+01	8.0420	132.202065	0.000638	6.384700	2.163195	0.000256
 204	2.0198e+01	8.0773	132.440256	0.000598	5.979323	2.025849	0.000239
 205	2.0298e+01	8.1286	132.678447	0.000598	5.979323	2.025849	0.000239
 206	2.0398e+01	8.1527	132.912601	0.000588	5.877978	1.991513	0.000235
 207	2.0497e+01	8.2024	133.175015	0.000659	6.587389	2.231868	0.000264
 208	2.0596e+01	8.2490	133.397058	0.000557	5.573945	1.888504	0.000223
 209	2.0696e+01	8.2778	133.570654	0.000436	4.357811	1.476466	0.000174
 210	2.0796e+01	8.3196	133.865365	0.000740	7.398145	2.506559	0.000296
 211	2.0895e+01	8.3677	134.115668	0.000628	6.283356	2.128859	0.000252
 212	2.0994e+01	8.4094	134.374044	0.000649	6.486045	2.197532	0.000260
 213	2.1094e+01	8.4415	134.575901	0.000507	5.067223	1.716821	0.000203
 214	2.1194e+01	8.4832	134.818129	0.000608	6.080667	2.060186	0.000243
 215	2.1293e+01	8.5217	135.032098	0.000537	5.371256	1.819831	0.000215
 216	2.1392e+01	8.5666	135.270289	0.000598	5.979323	2.025849	0.000239
 217	2.1492e+01	8.6051	135.504442	0.000588	5.877978	1.991513	0.000235
 218	2.1591e+01	8.6372	135.783005	0.000699	6.992767	2.369214	0.000280
 219	2.1691e+01	8.6805	136.009084	0.000568	5.675289	1.922840	0.000227
 220	2.1791e+01	8.7206	136.271498	0.000659	6.587389	2.231868	0.000264
 221	2.1890e+01	8.7655	136.453169	0.000456	4.560500	1.545139	0.000183
 222	2.1989e+01	8.7896	136.691360	0.000598	5.979323	2.025849	0.000239
 223	2.2089e+01	8.8377	136.893217	0.000507	5.067223	1.716821	0.000203
 224	2.2189e+01	8.8810	137.127371	0.000588	5.877978	1.991513	0.000235
 225	2.2288e+01	8.9243	137.389785	0.000659	6.587389	2.231868	0.000264
 226	2.2387e+01	8.9548	137.607790	0.000547	5.472600	1.854167	0.000219
 227	2.2487e+01	8.9965	137.825796	0.000547	5.472600	1.854167	0.000219
 228	2.2587e+01	9.0382	138.068024	0.000608	6.080667	2.060186	0.000243
 229	2.2686e+01	9.0816	138.294103	0.000568	5.675289	1.922840	0.000227
 230	2.2785e+01	9.1153	138.540369	0.000618	6.182012	2.094522	0.000248
 231	2.2885e+01	9.1650	138.790671	0.000628	6.283356	2.128859	0.000252
 232	2.2985e+01	9.2035	139.028862	0.000598	5.979323	2.025849	0.000239
 233	2.3084e+01	9.2420	139.263016	0.000588	5.877978	1.991513	0.000235
 234	2.3183e+01	9.2789	139.476984	0.000537	5.371256	1.819831	0.000215
 235	2.3283e+01	9.3078	139.690952	0.000537	5.371256	1.819831	0.000215
 236	2.3383e+01	9.3495	139.937218	0.000618	6.182012	2.094522	0.000248
 237	2.3482e+01	9.3976	140.175409	0.000598	5.979323	2.025849	0.000239
 238	2.3581e+01	9.4361	140.453971	0.000699	6.992767	2.369214	0.000280
 239	2.3681e+01	9.4826	140.639679	0.000466	4.661845	1.579476	0.000187
 240	2.3780e+01	9.5147	140.833462	0.000486	4.864534	1.648149	0.000195
 241	2.3880e+01	9.5612	141.071653	0.000598	5.979323	2.025849	0.000239
 242	2.3980e+01	9.6013	141.273509	0.000507	5.067223	1.716821	0.000203
 243	2.4079e+01	9.6366	141.507663	0.000588	5.877978	1.991513	0.000235
 244	2.4178e+01	9.6751	141.737780	0.000578	5.776634	1.957176	0.000231
 245	2.4278e+01	9.7152	141.971934	0.000588	5.877978	1.991513	0.000235
 246	2.4378e+01	9.7553	142.193976	0.000557	5.573945	1.888504	0.000223
 247	2.4477e+01	9.8019	142.403907	0.000527	5.269911	1.785494	0.000211
 248	2.4576e+01	9.8372	142.658247	0.000638	6.384700	2.163195	0.000256
 249	2.4676e+01	9.8741	142.860104	0.000507	5.067223	1.716821	0.000203
 250	2.4776e+01	9.9077	143.094258	0.000588	5.877978	1.991513	0.000235
 251	2.4875e+01	9.9527	143.300152	0.000517	5.168567	1.751158	0.000207
 252	2.4974e+01	9.9976	143.546417	0.000618	6.182012	2.094522	0.000248
 253	2.5074e+01	10.0345	143.752311	0.000517	5.168567	1.751158	0.000207
 254	2.5174e+01	10.0794	144.006650	0.000638	6.384700	2.163195	0.000256
 255	2.5273e+01	10.1083	144.273101	0.000669	6.688734	2.266204	0.000268
 256	2.5372e+01	10.1564	144.474958	0.000507	5.067223	1.716821	0.000203
 257	2.5472e+01	10.1933	144.701038	0.000568	5.675289	1.922840	0.000227
 258	2.5572e+01	10.2286	144.890783	0.000476	4.763189	1.613812	0.000191
 259	2.5671e+01	10.2719	145.133011	0.000608	6.080667	2.060186	0.000243
 260	2.5770e+01	10.3136	145.330831	0.000497	4.965878	1.682485	0.000199
 261	2.5870e+01	10.3537	145.556910	0.000568	5.675289	1.922840	0.000227
 262	2.5970e+01	10.4018	145.815287	0.000649	6.486045	2.197532	0.000260
 263	2.6069e+01	10.4291	146.057515	0.000608	6.080667	2.060186	0.000243
 264	2.6169e+01	10.4788	146.263409	0.000517	5.168567	1.751158	0.000207
 265	2.6268e+01	10.5174	146.489489	0.000568	5.675289	1.922840	0.000227
 266	2.6367e+01	10.5542	146.715568	0.000568	5.675289	1.922840	0.000227
 267	2.6467e+01	10.5927	146.949722	0.000588	5.877978	1.991513	0.000235
 268	2.6567e+01	10.6280	147.171765	0.000557	5.573945	1.888504	0.000223
 269	2.6666e+01	10.6730	147.426104	0.000638	6.384700	2.163195	0.000256
 270	2.6765e+01	10.7099	147.611813	0.000466	4.661845	1.579476	0.000187
 271	2.6865e+01	10.7452	147.886338	0.000689	6.891423	2.334877	0.000276
 272	2.6965e+01	10.7933	148.096269	0.000527	5.269911	1.785494	0.000211
 273	2.7064e+01	10.8446	148.334460	0.000598	5.979323	2.025849	0.000239
 274	2.7163e+01	10.8703	148.548428	0.000537	5.371256	1.819831	0.000215
 275	2.7263e+01	10.9104	148.738173	0.000476	4.763189	1.613812	0.000191
 276	2.7363e+01	10.9553	148.948104	0.000527	5.269911	1.785494	0.000211
 277	2.7462e+01	10.9922	149.186295	0.000598	5.979323	2.025849	0.000239
 278	2.7561e+01	11.0323	149.424487	0.000598	5.979323	2.025849	0.000239
 279	2.7661e+01	11.0788	149.654603	0.000578	5.776634	1.957176	0.000231
 280	2.7761e+01	11.1045	149.872609	0.000547	5.472600	1.854167	0.000219
 281	2.7860e+01	11.1542	150.038131	0.000416	4.155123	1.407794	0.000166
 282	2.7959e+01	11.1799	150.292471	0.000638	6.384700	2.163195	0.000256
 283	2.8059e+01	11.2248	150.534699	0.000608	6.080667	2.060186	0.000243
 284	2.8159e+01	11.2778	150.772890	0.000598	5.979323	2.025849	0.000239
 285	2.8258e+01	11.3098	151.027229	0.000638	6.384700	2.163195	0.000256
 286	2.8358e+01	11.3483	151.212938	0.000466	4.661845	1.579476	0.000187
 287	2.8457e+01	11.3804	151.439017	0.000568	5.675289	1.922840	0.000227
 288	2.8556e+01	11.4286	151.616651	0.000446	4.459156	1.510803	0.000179
 289	2.8656e+01	11.4703	151.854842	0.000598	5.979323	2.025849	0.000239
 290	2.8756e+01	11.5088	152.157627	0.000760	7.600834	2.575232	0.000304
 291	2.8855e+01	11.5585	152.359484	0.000507	5.067223	1.716821	0.000203
 292	2.8954e+01	11.5777	152.557304	0.000497	4.965878	1.682485	0.000199
 293	2.9054e+01	11.6307	152.743012	0.000466	4.661845	1.579476	0.000187
 294	2.9154e+01	11.6788	152.985240	0.000608	6.080667	2.060186	0.000243
 295	2.9253e+01	11.7029	153.199208	0.000537	5.371256	1.819831	0.000215
 296	2.9352e+01	11.7446	153.441437	0.000608	6.080667	2.060186	0.000243
 297	2.9452e+01	11.7943	153.623108	0.000456	4.560500	1.545139	0.000183
 298	2.9552e+01	11.8248	153.873410	0.000628	6.283356	2.128859	0.000252
 299	2.9651e+01	11.8713	154.099490	0.000568	5.675289	1.922840	0.000227
 300	2.9750e+01	11.9098	154.297309	0.000497	4.965878	1.682485	0.000199
 301	2.9850e+01	11.9435	154.547612	0.000628	6.283356	2.128859	0.000252
 302	2.9950e+01	11.9916	154.725246	0.000446	4.459156	1.510803	0.000179
 303	3.0049e+01	12.0317	154.959400	0.000588	5.877978	1.991513	0.000235
 304	3.0148e+01	12.0686	155.205665	0.000618	6.182012	2.094522	0.000248
 305	3.0248e+01	12.0959	155.447893	0.000608	6.080667	2.060186	0.000243
 306	3.0348e+01	12.1440	155.637638	0.000476	4.763189	1.613812	0.000191
 307	3.0447e+01	12.1777	155.879867	0.000608	6.080667	2.060186	0.000243
 308	3.0547e+01	12.2259	156.105946	0.000568	5.675289	1.922840	0.000227
 309	3.0646e+01	12.2708	156.323951	0.000547	5.472600	1.854167	0.000219
 310	3.0745e+01	12.3109	156.558105	0.000588	5.877978	1.991513	0.000235
 311	3.0845e+01	12.3494	156.735739	0.000446	4.459156	1.510803	0.000179
 312	3.0945e+01	12.3863	156.961819	0.000568	5.675289	1.922840	0.000227
 313	3.1044e+01	12.4232	157.159639	0.000497	4.965878	1.682485	0.000199
 314	3.1143e+01	12.4713	157.385718	0.000568	5.675289	1.922840	0.000227
 315	3.1243e+01	12.5066	157.583538	0.000497	4.965878	1.682485	0.000199
 316	3.1343e+01	12.5419	157.809617	0.000568	5.675289	1.922840	0.000227
 317	3.1442e+01	12.5852	158.007437	0.000497	4.965878	1.682485	0.000199
 318	3.1541e+01	12.6205	158.285999	0.000699	6.992767	2.369214	0.000280
 319	3.1641e+01	12.6670	158.516116	0.000578	5.776634	1.957176	0.000231
 320	3.1741e+01	12.7087	158.697787	0.000456	4.560500	1.545139	0.000183
 321	3.1840e+01	12.7424	158.972313	0.000689	6.891423	2.334877	0.000276
 322	3.1939e+01	12.7857	159.182244	0.000527	5.269911	1.785494	0.000211
 323	3.2039e+01	12.8194	159.396212	0.000537	5.371256	1.819831	0.000215
 324	3.2139e+01	12.8724	159.630366	0.000588	5.877978	1.991513	0.000235
 325	3.2238e+01	12.8996	159.900854	0.000679	6.790078	2.300541	0.000272
 326	3.2337e+01	12.9446	160.098673	0.000497	4.965878	1.682485	0.000199
 327	3.2437e+01	12.9879	160.320716	0.000557	5.573945	1.888504	0.000223
 328	3.2536e+01	13.0183	160.486238	0.000416	4.155123	1.407794	0.000166
 329	3.2636e+01	13.0585	160.684058	0.000497	4.965878	1.682485	0.000199
 330	3.2736e+01	13.1066	160.950509	0.000669	6.688734	2.266204	0.000268
 331	3.2835e+01	13.1483	161.136217	0.000466	4.661845	1.579476	0.000187
 332	3.2934e+01	13.1852	161.390557	0.000638	6.384700	2.163195	0.000256
 333	3.3034e+01	13.2205	161.616636	0.000568	5.675289	1.922840	0.000227
 334	3.3133e+01	13.2590	161.818493	0.000507	5.067223	1.716821	0.000203
 335	3.3233e+01	13.2991	162.056684	0.000598	5.979323	2.025849	0.000239
 336	3.3333e+01	13.3408	162.266615	0.000527	5.269911	1.785494	0.000211
 337	3.3432e+01	13.3761	162.488658	0.000557	5.573945	1.888504	0.000223
 338	3.3532e+01	13.4210	162.734923	0.000618	6.182012	2.094522	0.000248
 339	3.3631e+01	13.4675	162.924668	0.000476	4.763189	1.613812	0.000191
 340	3.3730e+01	13.5012	163.170934	0.000618	6.182012	2.094522	0.000248
 341	3.3830e+01	13.5333	163.392976	0.000557	5.573945	1.888504	0.000223
 342	3.3929e+01	13.5830	163.643279	0.000628	6.283356	2.128859	0.000252
 343	3.4029e+01	13.6151	163.897618	0.000638	6.384700	2.163195	0.000256
 344	3.4129e+01	13.6633	164.091401	0.000486	4.864534	1.648149	0.000195
 345	3.4228e+01	13.7001	164.273072	0.000456	4.560500	1.545139	0.000183
 346	3.4328e+01	13.7435	164.519337	0.000618	6.182012	2.094522	0.000248
 347	3.4427e+01	13.7804	164.769639	0.000628	6.283356	2.128859	0.000252
 348	3.4526e+01	13.8221	164.999756	0.000578	5.776634	1.957176	0.000231
 349	3.4626e+01	13.8606	165.193539	0.000486	4.864534	1.648149	0.000195
 350	3.4725e+01	13.9023	165.383284	0.000476	4.763189	1.613812	0.000191
 351	3.4825e+01	13.9344	165.637624	0.000638	6.384700	2.163195	0.000256
 352	3.4925e+01	13.9681	165.896000	0.000649	6.486045	2.197532	0.000260
 353	3.5024e+01	14.0226	166.118043	0.000557	5.573945	1.888504	0.000223
 354	3.5123e+01	14.0531	166.344122	0.000568	5.675289	1.922840	0.000227
 355	3.5223e+01	14.1060	166.578276	0.000588	5.877978	1.991513	0.000235
 356	3.5322e+01	14.1333	166.792244	0.000537	5.371256	1.819831	0.000215
 357	3.5422e+01	14.1734	167.034473	0.000608	6.080667	2.060186	0.000243
 358	3.5522e+01	14.2023	167.252478	0.000547	5.472600	1.854167	0.000219
 359	3.5621e+01	14.2520	167.539115	0.000720	7.195456	2.437887	0.000288
 360	3.5721e+01	14.2937	167.789417	0.000628	6.283356	2.128859	0.000252
 361	3.5820e+01	14.3354	167.999348	0.000527	5.269911	1.785494	0.000211
 362	3.5919e+01	14.3803	168.233502	0.000588	5.877978	1.991513	0.000235
 363	3.6019e+01	14.4156	168.411136	0.000446	4.459156	1.510803	0.000179
 364	3.6118e+01	14.4638	168.661438	0.000628	6.283356	2.128859	0.000252
 365	3.6218e+01	14.4942	168.883481	0.000557	5.573945	1.888504	0.000223
 366	3.6318e+01	14.5408	169.117635	0.000588	5.877978	1.991513	0.000235
 367	3.6417e+01	14.5809	169.363900	0.000618	6.182012	2.094522	0.000248
 368	3.6517e+01	14.6081	169.573831	0.000527	5.269911	1.785494	0.000211
 369	3.6616e+01	14.6482	169.840282	0.000669	6.688734	2.266204	0.000268
 370	3.6715e+01	14.6900	170.098659	0.000649	6.486045	2.197532	0.000260
 371	3.6815e+01	14.7413	170.296478	0.000497	4.965878	1.682485	0.000199
 372	3.6914e+01	14.7686	170.530632	0.000588	5.877978	1.991513	0.000235
 373	3.7014e+01	14.8167	170.768823	0.000598	5.979323	2.025849	0.000239
 374	3.7114e+01	14.8520	171.035274	0.000669	6.688734	2.266204	0.000268
 375	3.7213e+01	14.8905	171.297688	0.000659	6.587389	2.231868	0.000264
 376	3.7313e+01	14.9306	171.535879	0.000598	5.979323	2.025849	0.000239
 377	3.7412e+01	14.9723	171.794256	0.000649	6.486045	2.197532	0.000260
 378	3.7511e+01	15.0188	172.016298	0.000557	5.573945	1.888504	0.000223
 379	3.7611e+01	15.0477	172.270638	0.000638	6.384700	2.163195	0.000256
 380	3.7711e+01	15.0926	172.488643	0.000547	5.472600	1.854167	0.000219
 381	3.7810e+01	15.1359	172.698574	0.000527	5.269911	1.785494	0.000211
 382	3.7910e+01	15.1744	172.965025	0.000669	6.688734	2.266204	0.000268
 383	3.8009e+01	15.2081	173.174956	0.000527	5.269911	1.785494	0.000211
 384	3.8108e+01	15.2498	173.429296	0.000638	6.384700	2.163195	0.000256
 385	3.8208e+01	15.2980	173.675561	0.000618	6.182012	2.094522	0.000248
 386	3.8307e+01	15.3333	173.913752	0.000598	5.979323	2.025849	0.000239
 387	3.8407e+01	15.3702	174.168091	0.000638	6.384700	2.163195	0.000256
 388	3.8507e+01	15.4151	174.414357	0.000618	6.182012	2.094522	0.000248
 389	3.8606e+01	15.4504	174.680808	0.000669	6.688734	2.266204	0.000268
 390	3.8706e+01	15.4985	174.906887	0.000568	5.675289	1.922840	0.000227
 391	3.8805e+01	15.5418	175.193524	0.000720	7.195456	2.437887	0.000288
 392	3.8904e+01	15.5723	175.488235	0.000740	7.398145	2.506559	0.000296
 393	3.9004e+01	15.6092	175.714314	0.000568	5.675289	1.922840	0.000227
 394	3.9103e+01	15.6477	176.033248	0.000801	8.006212	2.712578	0.000321
 395	3.9203e+01	15.6926	176.206845	0.000436	4.357811	1.476466	0.000174
 396	3.9303e+01	15.7263	176.533853	0.000821	8.208901	2.781251	0.000329
 397	3.9402e+01	15.7680	176.768007	0.000588	5.877978	1.991513	0.000235
 398	3.9502e+01	15.8113	177.002161	0.000588	5.877978	1.991513	0.000235
 399	3.9601e+01	15.8578	177.204018	0.000507	5.067223	1.716821	0.000203
 400	3.9700e+01	15.8899	177.474506	0.000679	6.790078	2.300541	0.000272
 401	3.9800e+01	15.9252	177.740957	0.000669	6.688734	2.266204	0.000268
 402	3.9900e+01	15.9685	177.958962	0.000547	5.472600	1.854167	0.000219
 403	3.9999e+01	16.0183	178.209264	0.000628	6.283356	2.128859	0.000252
 404	4.0099e+01	16.0536	178.503975	0.000740	7.398145	2.506559	0.000296
 405	4.0198e+01	16.0889	178.734092	0.000578	5.776634	1.957176	0.000231
 406	4.0297e+01	16.1354	178.996506	0.000659	6.587389	2.231868	0.000264
 407	4.0397e+01	16.1707	179.283142	0.000720	7.195456	2.437887	0.000288
 408	4.0496e+01	16.2140	179.549593	0.000669	6.688734	2.266204	0.000268
 409	4.0596e+01	16.2413	179.783747	0.000588	5.877978	1.991513	0.000235
 410	4.0696e+01	16.3006	180.126904	0.000861	8.614278	2.918597	0.000345
 411	4.0795e+01	16.3199	180.381243	0.000638	6.384700	2.163195	0.000256
 412	4.0895e+01	16.3584	180.635583	0.000638	6.384700	2.163195	0.000256
 413	4.0994e+01	16.3985	180.914145	0.000699	6.992767	2.369214	0.000280
 414	4.1093e+01	16.4530	181.160411	0.000618	6.182012	2.094522	0.000248
 415	4.1193e+01	16.4883	181.447047	0.000720	7.195456	2.437887	0.000288
 416	4.1292e+01	16.5300	181.689275	0.000608	6.080667	2.060186	0.000243
 417	4.1392e+01	16.5733	181.967838	0.000699	6.992767	2.369214	0.000280
 418	4.1492e+01	16.6086	182.185843	0.000547	5.472600	1.854167	0.000219
 419	4.1591e+01	16.6455	182.472480	0.000720	7.195456	2.437887	0.000288
 420	4.1691e+01	16.6792	182.779302	0.000770	7.702178	2.609569	0.000308
 421	4.1790e+01	16.7241	183.037679	0.000649	6.486045	2.197532	0.000260
 422	4.1889e+01	16.7658	183.296055	0.000649	6.486045	2.197532	0.000260
 423	4.1989e+01	16.8043	183.582692	0.000720	7.195456	2.437887	0.000288
 424	4.2089e+01	16.8412	183.893551	0.000780	7.803523	2.643905	0.000312
 425	4.2188e+01	16.8765	184.119631	0.000568	5.675289	1.922840	0.000227
 426	4.2288e+01	16.9247	184.426453	0.000770	7.702178	2.609569	0.000308
 427	4.2387e+01	16.9712	184.696941	0.000679	6.790078	2.300541	0.000272
 428	4.2486e+01	17.0001	185.027987	0.000831	8.310245	2.815587	0.000333
 429	4.2586e+01	17.0466	185.350957	0.000811	8.107556	2.746914	0.000325
 430	4.2685e+01	17.0867	185.633557	0.000709	7.094112	2.403550	0.000284
 431	4.2785e+01	17.1220	185.936342	0.000760	7.600834	2.575232	0.000304
 432	4.2885e+01	17.1717	186.206830	0.000679	6.790078	2.300541	0.000272
 433	4.2984e+01	17.2006	186.505578	0.000750	7.499489	2.540896	0.000300
 434	4.3084e+01	17.2471	186.772029	0.000669	6.688734	2.266204	0.000268
 435	4.3183e+01	17.2840	187.022332	0.000628	6.283356	2.128859	0.000252
 436	4.3282e+01	17.3225	187.337228	0.000790	7.904867	2.678242	0.000316
 437	4.3382e+01	17.3706	187.623865	0.000720	7.195456	2.437887	0.000288
 438	4.3481e+01	17.4139	187.910501	0.000720	7.195456	2.437887	0.000288
 439	4.3581e+01	17.4541	188.193101	0.000709	7.094112	2.403550	0.000284
 440	4.3681e+01	17.4813	188.536258	0.000861	8.614278	2.918597	0.000345
 441	4.3780e+01	17.5214	188.794634	0.000649	6.486045	2.197532	0.000260
 442	4.3880e+01	17.5680	189.101457	0.000770	7.702178	2.609569	0.000308
 443	4.3979e+01	17.6081	189.416353	0.000790	7.904867	2.678242	0.000316
 444	4.4078e+01	17.6401	189.707027	0.000730	7.296801	2.472223	0.000292
 445	4.4178e+01	17.6915	190.046146	0.000851	8.512934	2.884260	0.000341
 446	4.4278e+01	17.7284	190.328746	0.000709	7.094112	2.403550	0.000284
 447	4.4377e+01	17.7749	190.688051	0.000902	9.019656	3.055942	0.000361
 448	4.4477e+01	17.8038	191.035245	0.000872	8.715623	2.952933	0.000349
 449	4.4576e+01	17.8423	191.317844	0.000709	7.094112	2.403550	0.000284
 450	4.4675e+01	17.8776	191.624666	0.000770	7.702178	2.609569	0.000308
 451	4.4775e+01	17.9241	191.947637	0.000811	8.107556	2.746914	0.000325
 452	4.4874e+01	17.9722	192.290794	0.000861	8.614278	2.918597	0.000345
 453	4.4974e+01	18.0043	192.573393	0.000709	7.094112	2.403550	0.000284
 454	4.5074e+01	18.0396	192.864067	0.000730	7.296801	2.472223	0.000292
 455	4.5173e+01	18.0893	193.174926	0.000780	7.803523	2.643905	0.000312
 456	4.5273e+01	18.1166	193.514046	0.000851	8.512934	2.884260	0.000341
 457	4.5372e+01	18.1663	193.820868	0.000770	7.702178	2.609569	0.000308
 458	4.5471e+01	18.1952	194.127691	0.000770	7.702178	2.609569	0.000308
 459	4.5571e+01	18.2417	194.478921	0.000882	8.816967	2.987269	0.000353
 460	4.5670e+01	18.2770	194.789781	0.000780	7.803523	2.643905	0.000312
 461	4.5770e+01	18.3268	195.169272	0.000953	9.526378	3.227624	0.000381
 462	4.5870e+01	18.3669	195.504354	0.000841	8.411589	2.849924	0.000337
 463	4.5969e+01	18.3973	195.811176	0.000770	7.702178	2.609569	0.000308
 464	4.6069e+01	18.4423	196.170481	0.000902	9.019656	3.055942	0.000361
 465	4.6168e+01	18.4776	196.537861	0.000922	9.222345	3.124615	0.000369
 466	4.6267e+01	18.5209	196.860831	0.000811	8.107556	2.746914	0.000325
 467	4.6367e+01	18.5610	197.208025	0.000872	8.715623	2.952933	0.000349
 468	4.6467e+01	18.5963	197.563293	0.000892	8.918312	3.021606	0.000357
 469	4.6566e+01	18.6348	197.894338	0.000831	8.310245	2.815587	0.000333
 470	4.6666e+01	18.6845	198.225383	0.000831	8.310245	2.815587	0.000333
 471	4.6765e+01	18.7246	198.580651	0.000892	8.918312	3.021606	0.000357
 472	4.6864e+01	18.7663	198.891511	0.000780	7.803523	2.643905	0.000312
 473	4.6964e+01	18.7984	199.234667	0.000861	8.614278	2.918597	0.000345
 474	4.7063e+01	18.8337	199.573787	0.000851	8.512934	2.884260	0.000341
 475	4.7163e+01	18.8786	199.933092	0.000902	9.019656	3.055942	0.000361
 476	4.7263e+01	18.9283	200.292397	0.000902	9.019656	3.055942	0.000361
 477	4.7362e+01	18.9588	200.631516	0.000851	8.512934	2.884260	0.000341
 478	4.7462e+01	19.0086	200.982747	0.000882	8.816967	2.987269	0.000353
 479	4.7561e+01	19.0342	201.386461	0.001013	10.134445	3.433643	0.000406
 480	4.7660e+01	19.0888	201.745766	0.000902	9.019656	3.055942	0.000361
 481	4.7760e+01	19.1225	202.161591	0.001044	10.438479	3.536652	0.000418
 482	4.7859e+01	19.1561	202.528970	0.000922	9.222345	3.124615	0.000369
 483	4.7959e+01	19.1979	202.940758	0.001034	10.337134	3.502316	0.000414
 484	4.8059e+01	19.2412	203.296026	0.000892	8.918312	3.021606	0.000357
 485	4.8158e+01	19.2893	203.651294	0.000892	8.918312	3.021606	0.000357
 486	4.8258e+01	19.3069	204.030784	0.000953	9.526378	3.227624	0.000381
 487	4.8357e+01	19.3551	204.414312	0.000963	9.627723	3.261961	0.000385
 488	4.8456e+01	19.3968	204.805915	0.000983	9.830412	3.330634	0.000394
 489	4.8556e+01	19.4385	205.165220	0.000902	9.019656	3.055942	0.000361
 490	4.8656e+01	19.4834	205.540673	0.000943	9.425034	3.193288	0.000377
 491	4.8755e+01	19.5155	205.899978	0.000902	9.019656	3.055942	0.000361
 492	4.8855e+01	19.5604	206.307729	0.001024	10.235790	3.467979	0.000410
 493	4.8954e+01	19.5925	206.695294	0.000973	9.729067	3.296297	0.000390
 494	4.9053e+01	19.6294	207.078822	0.000963	9.627723	3.261961	0.000385
 495	4.9153e+01	19.6743	207.510796	0.001084	10.843856	3.673998	0.000434
 496	4.9252e+01	19.7224	207.890286	0.000953	9.526378	3.227624	0.000381
 497	4.9352e+01	19.7577	208.302074	0.001034	10.337134	3.502316	0.000414
 498	4.9452e+01	19.7898	208.750196	0.001125	11.249234	3.811344	0.000450
 499	4.9551e+01	19.8363	209.174095	0.001064	10.641167	3.605325	0.000426
 500	4.9651e+01	19.8797	209.606069	0.001084	10.843856	3.673998	0.000434
 501	4.9750e+01	19.9149	210.013820	0.001024	10.235790	3.467979	0.000410
 502	4.9849e+01	19.9551	210.433682	0.001054	10.539823	3.570989	0.000422
 503	4.9949e+01	19.9952	210.849507	0.001044	10.438479	3.536652	0.000418
 504	5.0048e+01	19.9599	210.922175	-0.000182	-1.824200	-0.618056	0.000073
 505	5.0148e+01	19.9182	211.035215	-0.000284	-2.837645	-0.961420	0.000114
 506	5.0248e+01	19.8684	211.091735	-0.000142	-1.418822	-0.480710	0.000057
 507	5.0347e+01	19.8444	211.119995	-0.000071	-0.709411	-0.240355	0.000028
 508	5.0447e+01	19.7946	211.136143	-0.000041	-0.405378	-0.137346	0.000016
 509	5.0546e+01	19.7497	211.111921	0.000061	0.608067	0.206019	-0.000024
 510	5.0645e+01	19.7160	211.107883	0.000010	0.101344	0.034336	-0.000004
 511	5.0745e+01	19.6791	211.111921	-0.000010	-0.101344	-0.034336	0.000004
 512	5.0844e+01	19.6198	211.111921	-0.000000	-0.000000	-0.000000	0.000000
 513	5.0944e+01	19.5973	211.091735	0.000051	0.506722	0.171682	-0.000020
 514	5.1044e+01	19.5556	211.047326	0.000111	1.114789	0.377701	-0.000045
 515	5.1143e+01	19.5107	211.023104	0.000061	0.608067	0.206019	-0.000024
 516	5.1242e+01	19.4754	211.035215	-0.000030	-0.304033	-0.103009	0.000012
 517	5.1342e+01	19.4289	210.994844	0.000101	1.013445	0.343364	-0.000041
 518	5.1441e+01	19.3872	210.946398	0.000122	1.216133	0.412037	-0.000049
 519	5.1541e+01	19.3503	210.922175	0.000061	0.608067	0.206019	-0.000024
 520	5.1641e+01	19.3118	210.861618	0.000152	1.520167	0.515046	-0.000061
 521	5.1740e+01	19.2829	210.748578	0.000284	2.837645	0.961420	-0.000114
 522	5.1840e+01	19.2331	210.679947	0.000172	1.722856	0.583719	-0.000069
 523	5.1939e+01	19.1995	210.639576	0.000101	1.013445	0.343364	-0.000041
 524	5.2038e+01	19.1690	210.554796	0.000213	2.128233	0.721065	-0.000085
 525	5.2138e+01	19.1257	210.478090	0.000193	1.925545	0.652392	-0.000077
 526	5.2237e+01	19.0840	210.361013	0.000294	2.938989	0.995756	-0.000118
 527	5.2337e+01	19.0374	210.223751	0.000345	3.445711	1.167439	-0.000138
 528	5.2437e+01	18.9957	210.122822	0.000253	2.533611	0.858411	-0.000101
 529	5.2536e+01	18.9572	210.082451	0.000101	1.013445	0.343364	-0.000041
 530	5.2636e+01	18.9155	209.989597	0.000233	2.330922	0.789738	-0.000093
 531	5.2735e+01	18.8802	209.868483	0.000304	3.040334	1.030093	-0.000122
 532	5.2834e+01	18.8401	209.771592	0.000243	2.432267	0.824074	-0.000097
 533	5.2934e+01	18.7904	209.650477	0.000304	3.040334	1.030093	-0.000122
 534	5.3033e+01	18.7599	209.577809	0.000182	1.824200	0.618056	-0.000073
 535	5.3133e+01	18.7198	209.493029	0.000213	2.128233	0.721065	-0.000085
 536	5.3233e+01	18.6813	209.412286	0.000203	2.026889	0.686729	-0.000081
 537	5.3332e+01	18.6348	209.335581	0.000193	1.925545	0.652392	-0.000077
 538	5.3431e+01	18.6043	209.194281	0.000355	3.547056	1.201775	-0.000142
 539	5.3531e+01	18.5642	209.061056	0.000334	3.344367	1.133102	-0.000134
 540	5.3630e+01	18.5257	208.972239	0.000223	2.229578	0.755401	-0.000089
 541	5.3730e+01	18.4840	208.847087	0.000314	3.141678	1.064429	-0.000126
 542	5.3830e+01	18.4391	208.713862	0.000334	3.344367	1.133102	-0.000134
 543	5.3929e+01	18.4038	208.604859	0.000274	2.736300	0.927084	-0.000110
 544	5.4029e+01	18.3572	208.435300	0.000426	4.256467	1.442130	-0.000170
 545	5.4128e+01	18.3171	208.310148	0.000314	3.141678	1.064429	-0.000126
 546	5.4227e+01	18.2754	208.189034	0.000304	3.040334	1.030093	-0.000122
 547	5.4327e+01	18.2449	208.027549	0.000405	4.053778	1.373457	-0.000162
 548	5.4426e+01	18.2000	207.918546	0.000274	2.736300	0.927084	-0.000110
 549	5.4526e+01	18.1631	207.781284	0.000345	3.445711	1.167439	-0.000138
 550	5.4626e+01	18.1214	207.656132	0.000314	3.141678	1.064429	-0.000126
 551	5.4725e+01	18.0749	207.551167	0.000263	2.634956	0.892747	-0.000105
 552	5.4825e+01	18.0508	207.401793	0.000375	3.749745	1.270448	-0.000150
 553	5.4924e+01	18.0059	207.329124	0.000182	1.824200	0.618056	-0.000073
 554	5.5023e+01	17.9578	207.191862	0.000345	3.445711	1.167439	-0.000138
 555	5.5123e+01	17.9177	207.026339	0.000416	4.155123	1.407794	-0.000166
 556	5.5222e+01	17.8824	206.897151	0.000324	3.243022	1.098766	-0.000130
 557	5.5322e+01	17.8439	206.776037	0.000304	3.040334	1.030093	-0.000122
 558	5.5422e+01	17.8006	206.598403	0.000446	4.459156	1.510803	-0.000179
 559	5.5521e+01	17.7669	206.485363	0.000284	2.837645	0.961420	-0.000114
 560	5.5620e+01	17.7252	206.360212	0.000314	3.141678	1.064429	-0.000126
 561	5.5720e+01	17.6770	206.247172	0.000284	2.837645	0.961420	-0.000114
 562	5.5819e+01	17.6482	206.029167	0.000547	5.472600	1.854167	-0.000219
 563	5.5919e+01	17.6016	205.891904	0.000345	3.445711	1.167439	-0.000138
 564	5.6019e+01	17.5663	205.718307	0.000436	4.357811	1.476466	-0.000174
 565	5.6118e+01	17.5166	205.601230	0.000294	2.938989	0.995756	-0.000118
 566	5.6218e+01	17.4829	205.435708	0.000416	4.155123	1.407794	-0.000166
 567	5.6317e+01	17.4428	205.286334	0.000375	3.749745	1.270448	-0.000150
 568	5.6416e+01	17.4059	205.136960	0.000375	3.749745	1.270448	-0.000150
 569	5.6516e+01	17.3658	205.019883	0.000294	2.938989	0.995756	-0.000118
 570	5.6615e+01	17.3225	204.914917	0.000263	2.634956	0.892747	-0.000105
 571	5.6715e+01	17.2760	204.761506	0.000385	3.851089	1.304784	-0.000154
 572	5.6815e+01	17.2407	204.587909	0.000436	4.357811	1.476466	-0.000174
 573	5.6914e+01	17.2038	204.438535	0.000375	3.749745	1.270448	-0.000150
 574	5.7014e+01	17.1765	204.309347	0.000324	3.243022	1.098766	-0.000130
 575	5.7113e+01	17.1236	204.127676	0.000456	4.560500	1.545139	-0.000183
 576	5.7212e+01	17.0963	204.002525	0.000314	3.141678	1.064429	-0.000126
 577	5.7312e+01	17.0546	203.828928	0.000436	4.357811	1.476466	-0.000174
 578	5.7411e+01	17.0081	203.667442	0.000405	4.053778	1.373457	-0.000162
 579	5.7511e+01	16.9632	203.522105	0.000365	3.648400	1.236111	-0.000146
 580	5.7611e+01	16.9407	203.344471	0.000446	4.459156	1.510803	-0.000179
 581	5.7710e+01	16.8829	203.162800	0.000456	4.560500	1.545139	-0.000183
 582	5.7809e+01	16.8412	203.017463	0.000365	3.648400	1.236111	-0.000146
 583	5.7909e+01	16.8075	202.831755	0.000466	4.661845	1.579476	-0.000187
 584	5.8008e+01	16.7658	202.710641	0.000304	3.040334	1.030093	-0.000122
 585	5.8108e+01	16.7241	202.520896	0.000476	4.763189	1.613812	-0.000191
 586	5.8208e+01	16.6920	202.367485	0.000385	3.851089	1.304784	-0.000154
 587	5.8307e+01	16.6487	202.246371	0.000304	3.040334	1.030093	-0.000122
 588	5.8407e+01	16.6006	202.145442	0.000253	2.533611	0.858411	-0.000101
 589	5.8506e+01	16.5605	201.923400	0.000557	5.573945	1.888504	-0.000223
 590	5.8605e+01	16.5284	201.729617	0.000486	4.864534	1.648149	-0.000195
 591	5.8705e+01	16.4819	201.608503	0.000304	3.040334	1.030093	-0.000122
 592	5.8804e+01	16.4530	201.515649	0.000233	2.330922	0.789738	-0.000093
 593	5.8904e+01	16.4161	201.301681	0.000537	5.371256	1.819831	-0.000215
 594	5.9004e+01	16.3760	201.140195	0.000405	4.053778	1.373457	-0.000162
 595	5.9103e+01	16.3070	200.974673	0.000416	4.155123	1.407794	-0.000166
 596	5.9203e+01	16.2894	200.857596	0.000294	2.938989	0.995756	-0.000118
 597	5.9302e+01	16.2525	200.655739	0.000507	5.067223	1.716821	-0.000203
 598	5.9401e+01	16.2028	200.461957	0.000486	4.864534	1.648149	-0.000195
 599	5.9501e+01	16.1723	200.292397	0.000426	4.256467	1.442130	-0.000170
 600	5.9600e+01	16.1306	200.102651	0.000476	4.763189	1.613812	-0.000191
 601	5.9700e+01	16.0905	199.957315	0.000365	3.648400	1.236111	-0.000146
 602	5.9800e+01	16.0423	199.795829	0.000405	4.053778	1.373457	-0.000162
 603	5.9899e+01	16.0086	199.670678	0.000314	3.141678	1.064429	-0.000126
 604	5.9998e+01	15.9605	199.476895	0.000486	4.864534	1.648149	-0.000195
 605	6.0098e+01	15.9300	199.375967	0.000253	2.533611	0.858411	-0.000101
 606	6.0197e+01	15.8915	199.214482	0.000405	4.053778	1.373457	-0.000162
 607	6.0297e+01	15.8482	199.044922	0.000426	4.256467	1.442130	-0.000170
 608	6.0397e+01	15.8065	198.851139	0.000486	4.864534	1.648149	-0.000195
 609	6.0496e+01	15.7696	198.734062	0.000294	2.938989	0.995756	-0.000118
 610	6.0596e+01	15.7215	198.552391	0.000456	4.560500	1.545139	-0.000183
 611	6.0695e+01	15.6926	198.455500	0.000243	2.432267	0.824074	-0.000097
 612	6.0794e+01	15.6621	198.205198	0.000628	6.283356	2.128859	-0.000252
 613	6.0894e+01	15.6236	198.051786	0.000385	3.851089	1.304784	-0.000154
 614	6.0993e+01	15.5803	197.886264	0.000416	4.155123	1.407794	-0.000166
 615	6.1093e+01	15.5354	197.716704	0.000426	4.256467	1.442130	-0.000170
 616	6.1193e+01	15.4969	197.530996	0.000466	4.661845	1.579476	-0.000187
 617	6.1292e+01	15.4536	197.317028	0.000537	5.371256	1.819831	-0.000215
 618	6.1392e+01	15.4247	197.179765	0.000345	3.445711	1.167439	-0.000138
 619	6.1491e+01	15.3766	197.018280	0.000405	4.053778	1.373457	-0.000162
 620	6.1590e+01	15.3365	196.868906	0.000375	3.749745	1.270448	-0.000150
 621	6.1690e+01	15.2915	196.654938	0.000537	5.371256	1.819831	-0.000215
 622	6.1789e+01	15.2546	196.497489	0.000395	3.952434	1.339121	-0.000158
 623	6.1889e+01	15.2145	196.364264	0.000334	3.344367	1.133102	-0.000134
 624	6.1989e+01	15.1696	196.231038	0.000334	3.344367	1.133102	-0.000134
 625	6.2088e+01	15.1375	196.029181	0.000507	5.067223	1.716821	-0.000203
 626	6.2188e+01	15.0942	195.867696	0.000405	4.053778	1.373457	-0.000162
 627	6.2287e+01	15.0477	195.669876	0.000497	4.965878	1.682485	-0.000199
 628	6.2386e+01	15.0124	195.548762	0.000304	3.040334	1.030093	-0.000122
 629	6.2486e+01	14.9739	195.354980	0.000486	4.864534	1.648149	-0.000195
 630	6.2586e+01	14.9322	195.185420	0.000426	4.256467	1.442130	-0.000170
 631	6.2685e+01	14.8905	195.015860	0.000426	4.256467	1.442130	-0.000170
 632	6.2785e+01	14.8504	194.830152	0.000466	4.661845	1.579476	-0.000187
 633	6.2884e+01	14.8087	194.668667	0.000405	4.053778	1.373457	-0.000162
 634	6.2983e+01	14.7814	194.503144	0.000416	4.155123	1.407794	-0.000166
 635	6.3083e+01	14.7333	194.285139	0.000547	5.472600	1.854167	-0.000219
 636	6.3182e+01	14.6964	194.095393	0.000476	4.763189	1.613812	-0.000191
 637	6.3282e+01	14.6643	193.946019	0.000375	3.749745	1.270448	-0.000150
 638	6.3382e+01	14.6226	193.760311	0.000466	4.661845	1.579476	-0.000187
 639	6.3481e+01	14.5761	193.574603	0.000466	4.661845	1.579476	-0.000187
 640	6.3581e+01	14.5392	193.445415	0.000324	3.243022	1.098766	-0.000130
 641	6.3680e+01	14.4926	193.279892	0.000416	4.155123	1.407794	-0.000166
 642	6.3779e+01	14.4557	193.142629	0.000345	3.445711	1.167439	-0.000138
 643	6.3879e+01	14.4204	192.936735	0.000517	5.168567	1.751158	-0.000207
 644	6.3978e+01	14.3771	192.767176	0.000426	4.256467	1.442130	-0.000170
 645	6.4078e+01	14.3322	192.613765	0.000385	3.851089	1.304784	-0.000154
 646	6.4177e+01	14.2937	192.415945	0.000497	4.965878	1.682485	-0.000199
 647	6.4277e+01	14.2552	192.210051	0.000517	5.168567	1.751158	-0.000207
 648	6.4376e+01	14.2183	192.109123	0.000253	2.533611	0.858411	-0.000101
 649	6.4476e+01	14.1686	191.927452	0.000456	4.560500	1.545139	-0.000183
 650	6.4576e+01	14.1397	191.709446	0.000547	5.472600	1.854167	-0.000219
 651	6.4675e+01	14.0980	191.535849	0.000436	4.357811	1.476466	-0.000174
 652	6.4775e+01	14.0659	191.325918	0.000527	5.269911	1.785494	-0.000211
 653	6.4874e+01	14.0322	191.164433	0.000405	4.053778	1.373457	-0.000162
 654	6.4974e+01	13.9793	190.962576	0.000507	5.067223	1.716821	-0.000203
 655	6.5073e+01	13.9328	190.797054	0.000416	4.155123	1.407794	-0.000166
 656	6.5172e+01	13.8991	190.587122	0.000527	5.269911	1.785494	-0.000211
 657	6.5272e+01	13.8606	190.401414	0.000466	4.661845	1.579476	-0.000187
 658	6.5371e+01	13.8108	190.252040	0.000375	3.749745	1.270448	-0.000150
 659	6.5471e+01	13.7707	190.130926	0.000304	3.040334	1.030093	-0.000122
 660	6.5570e+01	13.7435	189.965404	0.000416	4.155123	1.407794	-0.000166
 661	6.5670e+01	13.7001	189.795844	0.000426	4.256467	1.442130	-0.000170
 662	6.5769e+01	13.6568	189.610136	0.000466	4.661845	1.579476	-0.000187
 663	6.5869e+01	13.6231	189.432502	0.000446	4.459156	1.510803	-0.000179
 664	6.5969e+01	13.5814	189.266979	0.000416	4.155123	1.407794	-0.000166
 665	6.6068e+01	13.5381	189.048974	0.000547	5.472600	1.854167	-0.000219
 666	6.6168e+01	13.4996	188.919785	0.000324	3.243022	1.098766	-0.000130
 667	6.6267e+01	13.4643	188.677557	0.000608	6.080667	2.060186	-0.000243
 668	6.6367e+01	13.4162	188.540295	0.000345	3.445711	1.167439	-0.000138
 669	6.6466e+01	13.3777	188.318252	0.000557	5.573945	1.888504	-0.000223
 670	6.6566e+01	13.3472	188.152730	0.000416	4.155123	1.407794	-0.000166
 671	6.6665e+01	13.2943	187.922613	0.000578	5.776634	1.957176	-0.000231
 672	6.6764e+01	13.2494	187.753053	0.000426	4.256467	1.442130	-0.000170
 673	6.6864e+01	13.2173	187.531011	0.000557	5.573945	1.888504	-0.000223
 674	6.6963e+01	13.1788	187.357414	0.000436	4.357811	1.476466	-0.000174
 675	6.7063e+01	13.1339	187.204003	0.000385	3.851089	1.304784	-0.000154
 676	6.7162e+01	13.1050	186.994072	0.000527	5.269911	1.785494	-0.000211
 677	6.7262e+01	13.0569	186.844698	0.000375	3.749745	1.270448	-0.000150
 678	6.7362e+01	13.0216	186.699361	0.000365	3.648400	1.236111	-0.000146
 679	6.7461e+01	12.9718	186.473281	0.000568	5.675289	1.922840	-0.000227
 680	6.7561e+01	12.9462	186.315833	0.000395	3.952434	1.339121	-0.000158
 681	6.7660e+01	12.9044	186.126087	0.000476	4.763189	1.613812	-0.000191
 682	6.7760e+01	12.8627	185.948454	0.000446	4.459156	1.510803	-0.000179
 683	6.7859e+01	12.8242	185.734485	0.000537	5.371256	1.819831	-0.000215
 684	6.7959e+01	12.7889	185.605297	0.000324	3.243022	1.098766	-0.000130
 685	6.8058e+01	12.7488	185.395366	0.000527	5.269911	1.785494	-0.000211
 686	6.8157e+01	12.7103	185.229843	0.000416	4.155123	1.407794	-0.000166
 687	6.8257e+01	12.6638	185.007801	0.000557	5.573945	1.888504	-0.000223
 688	6.8356e+01	12.6237	184.805944	0.000507	5.067223	1.716821	-0.000203
 689	6.8456e+01	12.5868	184.632347	0.000436	4.357811	1.476466	-0.000174
 690	6.8555e+01	12.5483	184.386082	0.000618	6.182012	2.094522	-0.000248
 691	6.8655e+01	12.5066	184.176151	0.000527	5.269911	1.785494	-0.000211
 692	6.8754e+01	12.4697	183.978331	0.000497	4.965878	1.682485	-0.000199
 693	6.8854e+01	12.4152	183.824920	0.000385	3.851089	1.304784	-0.000154
 694	6.8954e+01	12.3831	183.667472	0.000395	3.952434	1.339121	-0.000158
 695	6.9053e+01	12.3478	183.445429	0.000557	5.573945	1.888504	-0.000223
 696	6.9153e+01	12.3029	183.255684	0.000476	4.763189	1.613812	-0.000191
 697	6.9252e+01	12.2660	183.122459	0.000334	3.344367	1.133102	-0.000134
 698	6.9352e+01	12.2291	182.872156	0.000628	6.283356	2.128859	-0.000252
 699	6.9451e+01	12.1825	182.690485	0.000456	4.560500	1.545139	-0.000183
 700	6.9550e+01	12.1489	182.488628	0.000507	5.067223	1.716821	-0.000203
 701	6.9650e+01	12.1039	182.302920	0.000466	4.661845	1.579476	-0.000187
 702	6.9749e+01	12.0686	182.149509	0.000385	3.851089	1.304784	-0.000154
 703	6.9849e+01	12.0301	181.947652	0.000507	5.067223	1.716821	-0.000203
 704	6.9948e+01	11.9820	181.733684	0.000537	5.371256	1.819831	-0.000215
 705	7.0048e+01	11.9387	181.539901	0.000486	4.864534	1.648149	-0.000195
 706	7.0147e+01	11.9162	181.354193	0.000466	4.661845	1.579476	-0.000187
 707	7.0247e+01	11.8729	181.168485	0.000466	4.661845	1.579476	-0.000187
 708	7.0347e+01	11.8376	180.962591	0.000517	5.168567	1.751158	-0.000207
 709	7.0446e+01	11.7863	180.704214	0.000649	6.486045	2.197532	-0.000260
 710	7.0546e+01	11.7446	180.502357	0.000507	5.067223	1.716821	-0.000203
 711	7.0645e+01	11.7077	180.292426	0.000527	5.269911	1.785494	-0.000211
 712	7.0745e+01	11.6660	180.110755	0.000456	4.560500	1.545139	-0.000183
 713	7.0844e+01	11.6339	179.937158	0.000436	4.357811	1.476466	-0.000174
 714	7.0944e+01	11.5890	179.755487	0.000456	4.560500	1.545139	-0.000183
 715	7.1043e+01	11.5505	179.577853	0.000446	4.459156	1.510803	-0.000179
 716	7.1142e+01	11.5023	179.351774	0.000568	5.675289	1.922840	-0.000227
 717	7.1242e+01	11.4719	179.170103	0.000456	4.560500	1.545139	-0.000183
 718	7.1341e+01	11.4286	178.980357	0.000476	4.763189	1.613812	-0.000191
 719	7.1441e+01	11.3884	178.786575	0.000486	4.864534	1.648149	-0.000195
 720	7.1540e+01	11.3516	178.568569	0.000547	5.472600	1.854167	-0.000219
 721	7.1640e+01	11.3130	178.386898	0.000456	4.560500	1.545139	-0.000183
 722	7.1740e+01	11.2681	178.176967	0.000527	5.269911	1.785494	-0.000211
 723	7.1839e+01	11.2232	177.942813	0.000588	5.877978	1.991513	-0.000235
 724	7.1939e+01	11.1815	177.777291	0.000416	4.155123	1.407794	-0.000166
 725	7.2038e+01	11.1574	177.567360	0.000527	5.269911	1.785494	-0.000211
 726	7.2138e+01	11.1189	177.357429	0.000527	5.269911	1.785494	-0.000211
 727	7.2237e+01	11.0756	177.135386	0.000557	5.573945	1.888504	-0.000223
 728	7.2337e+01	11.0371	176.921418	0.000537	5.371256	1.819831	-0.000215
 729	7.2436e+01	10.9874	176.727636	0.000486	4.864534	1.648149	-0.000195
 730	7.2535e+01	10.9409	176.566150	0.000405	4.053778	1.373457	-0.000162
 731	7.2635e+01	10.9104	176.344108	0.000557	5.573945	1.888504	-0.000223
 732	7.2734e+01	10.8751	176.162436	0.000456	4.560500	1.545139	-0.000183
 733	7.2834e+01	10.8350	175.964617	0.000497	4.965878	1.682485	-0.000199
 734	7.2933e+01	10.7917	175.746612	0.000547	5.472600	1.854167	-0.000219
 735	7.3033e+01	10.7452	175.548792	0.000497	4.965878	1.682485	-0.000199
 736	7.3132e+01	10.7131	175.363084	0.000466	4.661845	1.579476	-0.000187
 737	7.3232e+01	10.6698	175.108744	0.000638	6.384700	2.163195	-0.000256
 738	7.3332e+01	10.6329	174.947259	0.000405	4.053778	1.373457	-0.000162
 739	7.3431e+01	10.5911	174.709068	0.000598	5.979323	2.025849	-0.000239
 740	7.3531e+01	10.5559	174.487025	0.000557	5.573945	1.888504	-0.000223
 741	7.3630e+01	10.5077	174.333614	0.000385	3.851089	1.304784	-0.000154
 742	7.3730e+01	10.4724	174.091386	0.000608	6.080667	2.060186	-0.000243
 743	7.3829e+01	10.4307	173.905678	0.000466	4.661845	1.579476	-0.000187
 744	7.3928e+01	10.3970	173.671524	0.000588	5.877978	1.991513	-0.000235
 745	7.4028e+01	10.3569	173.473704	0.000497	4.965878	1.682485	-0.000199
 746	7.4127e+01	10.3200	173.211290	0.000659	6.587389	2.231868	-0.000264
 747	7.4227e+01	10.2719	173.001359	0.000527	5.269911	1.785494	-0.000211
 748	7.4326e+01	10.2270	172.803540	0.000497	4.965878	1.682485	-0.000199
 749	7.4426e+01	10.1917	172.605720	0.000497	4.965878	1.682485	-0.000199
 750	7.4525e+01	10.1500	172.428086	0.000446	4.459156	1.510803	-0.000179
 751	7.4625e+01	10.1147	172.254489	0.000436	4.357811	1.476466	-0.000174
 752	7.4725e+01	10.0762	171.996112	0.000649	6.486045	2.197532	-0.000260
 753	7.4824e+01	10.0281	171.778107	0.000547	5.472600	1.854167	-0.000219
 754	7.4924e+01	10.0008	171.576250	0.000507	5.067223	1.716821	-0.000203
 755	7.5023e+01	9.9559	171.402653	0.000436	4.357811	1.476466	-0.000174
 756	7.5123e+01	9.9126	171.152351	0.000628	6.283356	2.128859	-0.000252
 757	7.5222e+01	9.8757	170.958569	0.000486	4.864534	1.648149	-0.000195
 758	7.5322e+01	9.8275	170.780935	0.000446	4.459156	1.510803	-0.000179
 759	7.5421e+01	9.7970	170.522558	0.000649	6.486045	2.197532	-0.000260
 760	7.5520e+01	9.7393	170.316664	0.000517	5.168567	1.751158	-0.000207
 761	7.5620e+01	9.7217	170.122881	0.000486	4.864534	1.648149	-0.000195
 762	7.5719e+01	9.6783	169.888728	0.000588	5.877978	1.991513	-0.000235
 763	7.5819e+01	9.6334	169.630351	0.000649	6.486045	2.197532	-0.000260
 764	7.5918e+01	9.5949	169.416383	0.000537	5.371256	1.819831	-0.000215
 765	7.6018e+01	9.5516	169.218563	0.000497	4.965878	1.682485	-0.000199
 766	7.6118e+01	9.5243	169.065152	0.000385	3.851089	1.304784	-0.000154
 767	7.6217e+01	9.4890	168.814849	0.000628	6.283356	2.128859	-0.000252
 768	7.6317e+01	9.4329	168.629141	0.000466	4.661845	1.579476	-0.000187
 769	7.6416e+01	9.3944	168.419210	0.000527	5.269911	1.785494	-0.000211
 770	7.6516e+01	9.3575	168.225428	0.000486	4.864534	1.648149	-0.000195
 771	7.6615e+01	9.3126	168.007422	0.000547	5.472600	1.854167	-0.000219
 772	7.6715e+01	9.2773	167.801528	0.000517	5.168567	1.751158	-0.000207
 773	7.6814e+01	9.2372	167.527003	0.000689	6.891423	2.334877	-0.000276
 774	7.6913e+01	9.2003	167.365518	0.000405	4.053778	1.373457	-0.000162
 775	7.7013e+01	9.1554	167.115215	0.000628	6.283356	2.128859	-0.000252
 776	7.7112e+01	9.1169	166.905284	0.000527	5.269911	1.785494	-0.000211
 777	7.7212e+01	9.0735	166.715539	0.000476	4.763189	1.613812	-0.000191
 778	7.7311e+01	9.0334	166.525793	0.000476	4.763189	1.613812	-0.000191
 779	7.7411e+01	8.9981	166.311825	0.000537	5.371256	1.819831	-0.000215
 780	7.7510e+01	8.9741	166.069597	0.000608	6.080667	2.060186	-0.000243
 781	7.7610e+01	8.9115	165.835443	0.000588	5.877978	1.991513	-0.000235
 782	7.7710e+01	8.8794	165.625512	0.000527	5.269911	1.785494	-0.000211
 783	7.7809e+01	8.8506	165.451915	0.000436	4.357811	1.476466	-0.000174
 784	7.7909e+01	8.8040	165.193539	0.000649	6.486045	2.197532	-0.000260
 785	7.8008e+01	8.7527	164.995719	0.000497	4.965878	1.682485	-0.000199
 786	7.8108e+01	8.7206	164.781751	0.000537	5.371256	1.819831	-0.000215
 787	7.8207e+01	8.6805	164.600080	0.000456	4.560500	1.545139	-0.000183
 788	7.8306e+01	8.6388	164.341703	0.000649	6.486045	2.197532	-0.000260
 789	7.8406e+01	8.6035	164.160032	0.000456	4.560500	1.545139	-0.000183
 790	7.8505e+01	8.5650	163.954138	0.000517	5.168567	1.751158	-0.000207
 791	7.8605e+01	8.5265	163.744207	0.000527	5.269911	1.785494	-0.000211
 792	7.8704e+01	8.4752	163.477756	0.000669	6.688734	2.266204	-0.000268
 793	7.8804e+01	8.4447	163.255714	0.000557	5.573945	1.888504	-0.000223
 794	7.8903e+01	8.4014	163.074042	0.000456	4.560500	1.545139	-0.000183
 795	7.9003e+01	8.3661	162.831814	0.000608	6.080667	2.060186	-0.000243
 796	7.9103e+01	8.3260	162.593623	0.000598	5.979323	2.025849	-0.000239
 797	7.9202e+01	8.2794	162.395804	0.000497	4.965878	1.682485	-0.000199
 798	7.9302e+01	8.2345	162.113204	0.000709	7.094112	2.403550	-0.000284
 799	7.9401e+01	8.2073	161.919422	0.000486	4.864534	1.648149	-0.000195
 800	7.9501e+01	8.1607	161.673156	0.000618	6.182012	2.094522	-0.000248
 801	7.9600e+01	8.1254	161.471300	0.000507	5.067223	1.716821	-0.000203
 802	7.9700e+01	8.0853	161.273480	0.000497	4.965878	1.682485	-0.000199
 803	7.9799e+01	8.0324	161.095846	0.000446	4.459156	1.510803	-0.000179
 804	7.9898e+01	8.0035	160.841506	0.000638	6.384700	2.163195	-0.000256
 805	7.9998e+01	7.9586	160.643687	0.000497	4.965878	1.682485	-0.000199
 806	8.0097e+01	7.9233	160.441830	0.000507	5.067223	1.716821	-0.000203
 807	8.0197e+01	7.8832	160.187490	0.000638	6.384700	2.163195	-0.000256
 808	8.0296e+01	7.8351	160.013894	0.000436	4.357811	1.476466	-0.000174
 809	8.0396e+01	7.8030	159.755517	0.000649	6.486045	2.197532	-0.000260
 810	8.0496e+01	7.7581	159.521363	0.000588	5.877978	1.991513	-0.000235
 811	8.0595e+01	7.7228	159.331618	0.000476	4.763189	1.613812	-0.000191
 812	8.0695e+01	7.6859	159.049018	0.000709	7.094112	2.403550	-0.000284
 813	8.0794e+01	7.6410	158.855236	0.000486	4.864534	1.648149	-0.000195
 814	8.0894e+01	7.6057	158.637230	0.000547	5.472600	1.854167	-0.000219
 815	8.0993e+01	7.5720	158.399039	0.000598	5.979323	2.025849	-0.000239
 816	8.1093e+01	7.5094	158.132588	0.000669	6.688734	2.266204	-0.000268
 817	8.1192e+01	7.4725	157.958991	0.000436	4.357811	1.476466	-0.000174
 818	8.1291e+01	7.4420	157.700615	0.000649	6.486045	2.197532	-0.000260
 819	8.1391e+01	7.4083	157.506832	0.000486	4.864534	1.648149	-0.000195
 820	8.1490e+01	7.3538	157.296901	0.000527	5.269911	1.785494	-0.000211
 821	8.1590e+01	7.3217	157.103119	0.000486	4.864534	1.648149	-0.000195
 822	8.1689e+01	7.2784	156.889150	0.000537	5.371256	1.819831	-0.000215
 823	8.1789e+01	7.2495	156.646922	0.000608	6.080667	2.060186	-0.000243
 824	8.1888e+01	7.2014	156.404694	0.000608	6.080667	2.060186	-0.000243
 825	8.1988e+01	7.1629	156.166503	0.000598	5.979323	2.025849	-0.000239
 826	8.2088e+01	7.1308	155.952535	0.000537	5.371256	1.819831	-0.000215
 827	8.2187e+01	7.0795	155.734530	0.000547	5.472600	1.854167	-0.000219
 828	8.2287e+01	7.0458	155.500376	0.000588	5.877978	1.991513	-0.000235
 829	8.2386e+01	7.0073	155.338890	0.000405	4.053778	1.373457	-0.000162
 830	8.2486e+01	6.9656	155.096662	0.000608	6.080667	2.060186	-0.000243
 831	8.2585e+01	6.9303	154.838286	0.000649	6.486045	2.197532	-0.000260
 832	8.2684e+01	6.8902	154.600095	0.000598	5.979323	2.025849	-0.000239
 833	8.2784e+01	6.8469	154.321532	0.000699	6.992767	2.369214	-0.000280
 834	8.2883e+01	6.8036	154.115638	0.000517	5.168567	1.751158	-0.000207
 835	8.2983e+01	6.7683	153.893596	0.000557	5.573945	1.888504	-0.000223
 836	8.3082e+01	6.7346	153.651368	0.000608	6.080667	2.060186	-0.000243
 837	8.3182e+01	6.6897	153.441437	0.000527	5.269911	1.785494	-0.000211
 838	8.3281e+01	6.6463	153.243617	0.000497	4.965878	1.682485	-0.000199
 839	8.3381e+01	6.6094	152.993314	0.000628	6.283356	2.128859	-0.000252
 840	8.3481e+01	6.5661	152.791458	0.000507	5.067223	1.716821	-0.000203
 841	8.3580e+01	6.5340	152.569415	0.000557	5.573945	1.888504	-0.000223
 842	8.3680e+01	6.4891	152.311039	0.000649	6.486045	2.197532	-0.000260
 843	8.3779e+01	6.4378	152.105145	0.000517	5.168567	1.751158	-0.000207
 844	8.3879e+01	6.4121	151.875028	0.000578	5.776634	1.957176	-0.000231
 845	8.3978e+01	6.3624	151.657023	0.000547	5.472600	1.854167	-0.000219
 846	8.4078e+01	6.3271	151.434980	0.000557	5.573945	1.888504	-0.000223
 847	8.4177e+01	6.2982	151.168529	0.000669	6.688734	2.266204	-0.000268
 848	8.4276e+01	6.2597	150.942450	0.000568	5.675289	1.922840	-0.000227
 849	8.4376e+01	6.2116	150.671961	0.000679	6.790078	2.300541	-0.000272
 850	8.4475e+01	6.1651	150.441845	0.000578	5.776634	1.957176	-0.000231
 851	8.4575e+01	6.1346	150.175394	0.000669	6.688734	2.266204	-0.000268
 852	8.4674e+01	6.0945	149.957388	0.000547	5.472600	1.854167	-0.000219
 853	8.4774e+01	6.0431	149.690937	0.000669	6.688734	2.266204	-0.000268
 854	8.4874e+01	6.0095	149.468895	0.000557	5.573945	1.888504	-0.000223
 855	8.4973e+01	5.9758	149.258964	0.000527	5.269911	1.785494	-0.000211
 856	8.5073e+01	5.9357	149.040959	0.000547	5.472600	1.854167	-0.000219
 857	8.5172e+01	5.8956	148.798730	0.000608	6.080667	2.060186	-0.000243
 858	8.5272e+01	5.8554	148.576688	0.000557	5.573945	1.888504	-0.000223
 859	8.5371e+01	5.8137	148.338497	0.000598	5.979323	2.025849	-0.000239
 860	8.5471e+01	5.7640	148.072046	0.000669	6.688734	2.266204	-0.000268
 861	8.5570e+01	5.7335	147.858078	0.000537	5.371256	1.819831	-0.000215
 862	8.5669e+01	5.6982	147.603738	0.000638	6.384700	2.163195	-0.000256
 863	8.5769e+01	5.6517	147.381696	0.000557	5.573945	1.888504	-0.000223
 864	8.5868e+01	5.6084	147.139468	0.000608	6.080667	2.060186	-0.000243
 865	8.5968e+01	5.5843	146.917425	0.000557	5.573945	1.888504	-0.000223
 866	8.6067e+01	5.5378	146.655011	0.000659	6.587389	2.231868	-0.000264
 867	8.6167e+01	5.4961	146.368375	0.000720	7.195456	2.437887	-0.000288
 868	8.6266e+01	5.4464	146.126147	0.000608	6.080667	2.060186	-0.000243
 869	8.6366e+01	5.4079	145.863733	0.000659	6.587389	2.231868	-0.000264
 870	8.6466e+01	5.3726	145.621505	0.000608	6.080667	2.060186	-0.000243
 871	8.6565e+01	5.3309	145.435796	0.000466	4.661845	1.579476	-0.000187
 872	8.6665e+01	5.2892	145.181457	0.000638	6.384700	2.163195	-0.000256
 873	8.6764e+01	5.2523	144.935192	0.000618	6.182012	2.094522	-0.000248
 874	8.6864e+01	5.2202	144.688926	0.000618	6.182012	2.094522	-0.000248
 875	8.6963e+01	5.1704	144.430550	0.000649	6.486045	2.197532	-0.000260
 876	8.7063e+01	5.1400	144.216581	0.000537	5.371256	1.819831	-0.000215
 877	8.7162e+01	5.0902	143.925908	0.000730	7.296801	2.472223	-0.000292
 878	8.7261e+01	5.0598	143.675605	0.000628	6.283356	2.128859	-0.000252
 879	8.7361e+01	5.0148	143.477786	0.000497	4.965878	1.682485	-0.000199
 880	8.7460e+01	4.9795	143.243632	0.000588	5.877978	1.991513	-0.000235
 881	8.7560e+01	4.9330	142.993329	0.000628	6.283356	2.128859	-0.000252
 882	8.7659e+01	4.8993	142.738990	0.000638	6.384700	2.163195	-0.000256
 883	8.7759e+01	4.8624	142.476576	0.000659	6.587389	2.231868	-0.000264
 884	8.7859e+01	4.8239	142.214162	0.000659	6.587389	2.231868	-0.000264
 885	8.7958e+01	4.7742	141.939637	0.000689	6.891423	2.334877	-0.000276
 886	8.8058e+01	4.7389	141.673186	0.000669	6.688734	2.266204	-0.000268
 887	8.8157e+01	4.7004	141.430958	0.000608	6.080667	2.060186	-0.000243
 888	8.8257e+01	4.6603	141.192767	0.000598	5.979323	2.025849	-0.000239
 889	8.8356e+01	4.6218	140.978799	0.000537	5.371256	1.819831	-0.000215
 890	8.8456e+01	4.5817	140.732533	0.000618	6.182012	2.094522	-0.000248
 891	8.8555e+01	4.5352	140.470119	0.000659	6.587389	2.231868	-0.000264
 892	8.8654e+01	4.4886	140.244040	0.000568	5.675289	1.922840	-0.000227
 893	8.8754e+01	4.4534	139.993737	0.000628	6.283356	2.128859	-0.000252
 894	8.8853e+01	4.4148	139.763621	0.000578	5.776634	1.957176	-0.000231
 895	8.8953e+01	4.3715	139.448724	0.000790	7.904867	2.678242	-0.000316
 896	8.9052e+01	4.3411	139.234756	0.000537	5.371256	1.819831	-0.000215
 897	8.9152e+01	4.2881	139.008676	0.000568	5.675289	1.922840	-0.000227
 898	8.9251e+01	4.2673	138.718003	0.000730	7.296801	2.472223	-0.000292
 899	8.9351e+01	4.2175	138.471737	0.000618	6.182012	2.094522	-0.000248
 900	8.9451e+01	4.1758	138.213361	0.000649	6.486045	2.197532	-0.000260
 901	8.9550e+01	4.1421	137.918650	0.000740	7.398145	2.506559	-0.000296
 902	8.9650e+01	4.1004	137.627976	0.000730	7.296801	2.472223	-0.000292
 903	8.9749e+01	4.0571	137.401896	0.000568	5.675289	1.922840	-0.000227
 904	8.9849e+01	4.0218	137.155631	0.000618	6.182012	2.094522	-0.000248
 905	8.9948e+01	3.9769	136.897254	0.000649	6.486045	2.197532	-0.000260
 906	9.0047e+01	3.9432	136.667138	0.000578	5.776634	1.957176	-0.000231
 907	9.0147e+01	3.8999	136.428947	0.000598	5.979323	2.025849	-0.000239
 908	9.0246e+01	3.8566	136.174607	0.000638	6.384700	2.163195	-0.000256
 909	9.0346e+01	3.8229	135.924305	0.000628	6.283356	2.128859	-0.000252
 910	9.0445e+01	3.7764	135.641705	0.000709	7.094112	2.403550	-0.000284
 911	9.0545e+01	3.7347	135.395440	0.000618	6.182012	2.094522	-0.000248
 912	9.0644e+01	3.6962	135.088617	0.000770	7.702178	2.609569	-0.000308
 913	9.0744e+01	3.6657	134.906946	0.000456	4.560500	1.545139	-0.000183
 914	9.0844e+01	3.6208	134.608198	0.000750	7.499489	2.540896	-0.000300
 915	9.0943e+01	3.5726	134.370007	0.000598	5.979323	2.025849	-0.000239
 916	9.1043e+01	3.5486	134.059148	0.000780	7.803523	2.643905	-0.000312
 917	9.1142e+01	3.5020	133.800771	0.000649	6.486045	2.197532	-0.000260
 918	9.1242e+01	3.4748	133.534320	0.000669	6.688734	2.266204	-0.000268
 919	9.1341e+01	3.4298	133.227498	0.000770	7.702178	2.609569	-0.000308
 920	9.1441e+01	3.3865	132.989307	0.000598	5.979323	2.025849	-0.000239
 921	9.1540e+01	3.3416	132.734967	0.000638	6.384700	2.163195	-0.000256
 922	9.1639e+01	3.3015	132.432182	0.000760	7.600834	2.575232	-0.000304
 923	9.1739e+01	3.2598	132.234363	0.000497	4.965878	1.682485	-0.000199
 924	9.1838e+01	3.2261	131.984060	0.000628	6.283356	2.128859	-0.000252
 925	9.1938e+01	3.1764	131.701461	0.000709	7.094112	2.403550	-0.000284
 926	9.2037e+01	3.1507	131.467307	0.000588	5.877978	1.991513	-0.000235
 927	9.2137e+01	3.0978	131.196819	0.000679	6.790078	2.300541	-0.000272
 928	9.2237e+01	3.0625	130.950553	0.000618	6.182012	2.094522	-0.000248
 929	9.2336e+01	3.0240	130.651805	0.000750	7.499489	2.540896	-0.000300
 930	9.2436e+01	2.9823	130.421689	0.000578	5.776634	1.957176	-0.000231
 931	9.2535e+01	2.9422	130.131015	0.000730	7.296801	2.472223	-0.000292
 932	9.2635e+01	2.9037	129.917047	0.000537	5.371256	1.819831	-0.000215
 933	9.2734e+01	2.8603	129.610224	0.000770	7.702178	2.609569	-0.000308
 934	9.2834e+01	2.8251	129.351848	0.000649	6.486045	2.197532	-0.000260
 935	9.2933e+01	2.7801	129.032914	0.000801	8.006212	2.712578	-0.000321
 936	9.3032e+01	2.7464	128.758389	0.000689	6.891423	2.334877	-0.000276
 937	9.3132e+01	2.7095	128.495975	0.000659	6.587389	2.231868	-0.000264
 938	9.3231e+01	2.6630	128.201264	0.000740	7.398145	2.506559	-0.000296
 939	9.3331e+01	2.6277	127.983259	0.000547	5.472600	1.854167	-0.000219
 940	9.3430e+01	2.5860	127.728919	0.000638	6.384700	2.163195	-0.000256
 941	9.3530e+01	2.5459	127.414022	0.000790	7.904867	2.678242	-0.000316
 942	9.3629e+01	2.5058	127.187943	0.000568	5.675289	1.922840	-0.000227
 943	9.3729e+01	2.4609	126.897269	0.000730	7.296801	2.472223	-0.000292
 944	9.3829e+01	2.4288	126.663115	0.000588	5.877978	1.991513	-0.000235
 945	9.3928e+01	2.3839	126.424924	0.000598	5.979323	2.025849	-0.000239
 946	9.4028e+01	2.3470	126.162510	0.000659	6.587389	2.231868	-0.000264
 947	9.4127e+01	2.3133	125.863762	0.000750	7.499489	2.540896	-0.000300
 948	9.4227e+01	2.2700	125.597311	0.000669	6.688734	2.266204	-0.000268
 949	9.4326e+01	2.2235	125.363158	0.000588	5.877978	1.991513	-0.000235
 950	9.4425e+01	2.1930	125.068447	0.000740	7.398145	2.506559	-0.000296
 951	9.4525e+01	2.1497	124.765661	0.000760	7.600834	2.575232	-0.000304
 952	9.4624e+01	2.1048	124.450765	0.000790	7.904867	2.678242	-0.000316
 953	9.4724e+01	2.0663	124.164128	0.000720	7.195456	2.437887	-0.000288
 954	9.4823e+01	2.0342	123.913826	0.000628	6.283356	2.128859	-0.000252
 955	9.4923e+01	1.9957	123.651412	0.000659	6.587389	2.231868	-0.000264
 956	9.5022e+01	1.9524	123.352664	0.000750	7.499489	2.540896	-0.000300
 957	9.5122e+01	1.9090	123.114473	0.000598	5.979323	2.025849	-0.000239
 958	9.5222e+01	1.8673	122.835911	0.000699	6.992767	2.369214	-0.000280
 959	9.5321e+01	1.8288	122.561385	0.000689	6.891423	2.334877	-0.000276
 960	9.5421e+01	1.7839	122.294934	0.000669	6.688734	2.266204	-0.000268
 961	9.5520e+01	1.7566	122.012335	0.000709	7.094112	2.403550	-0.000284
 962	9.5620e+01	1.7053	121.757995	0.000638	6.384700	2.163195	-0.000256
 963	9.5719e+01	1.6700	121.511730	0.000618	6.182012	2.094522	-0.000248
 964	9.5819e+01	1.6219	121.225093	0.000720	7.195456	2.437887	-0.000288
 965	9.5918e+01	1.5834	120.954605	0.000679	6.790078	2.300541	-0.000272
 966	9.6017e+01	1.5417	120.684117	0.000679	6.790078	2.300541	-0.000272
 967	9.6117e+01	1.4935	120.409592	0.000689	6.891423	2.334877	-0.000276
 968	9.6216e+01	1.4695	120.094695	0.000790	7.904867	2.678242	-0.000316
 969	9.6316e+01	1.4230	119.767687	0.000821	8.208901	2.781251	-0.000329
 970	9.6415e+01	1.3796	119.553719	0.000537	5.371256	1.819831	-0.000215
 971	9.6515e+01	1.3524	119.246897	0.000770	7.702178	2.609569	-0.000308
 972	9.6615e+01	1.3058	118.948149	0.000750	7.499489	2.540896	-0.000300
 973	9.6714e+01	1.2706	118.705921	0.000608	6.080667	2.060186	-0.000243
 974	9.6814e+01	1.2256	118.391024	0.000790	7.904867	2.678242	-0.000316
 975	9.6913e+01	1.1855	118.108425	0.000709	7.094112	2.403550	-0.000284
 976	9.7013e+01	1.1502	117.882345	0.000568	5.675289	1.922840	-0.000227
 977	9.7112e+01	1.1133	117.571486	0.000780	7.803523	2.643905	-0.000312
 978	9.7212e+01	1.0732	117.264663	0.000770	7.702178	2.609569	-0.000308
 979	9.7311e+01	1.0251	117.026472	0.000598	5.979323	2.025849	-0.000239
 980	9.7410e+01	0.9978	116.772133	0.000638	6.384700	2.163195	-0.000256
 981	9.7510e+01	0.9529	116.477422	0.000740	7.398145	2.506559	-0.000296
 982	9.7609e+01	0.9064	116.206934	0.000679	6.790078	2.300541	-0.000272
 983	9.7709e+01	0.8615	115.976817	0.000578	5.776634	1.957176	-0.000231
 984	9.7808e+01	0.8374	115.625586	0.000882	8.816967	2.987269	-0.000353
 985	9.7908e+01	0.7925	115.286467	0.000851	8.512934	2.884260	-0.000341
 986	9.8007e+01	0.7492	114.983682	0.000760	7.600834	2.575232	-0.000304
 987	9.8107e+01	0.7059	114.713193	0.000679	6.790078	2.300541	-0.000272
 988	9.8207e+01	0.6706	114.442705	0.000679	6.790078	2.300541	-0.000272
 989	9.8306e+01	0.6385	114.220663	0.000557	5.573945	1.888504	-0.000223
 990	9.8406e+01	0.5871	113.909803	0.000780	7.803523	2.643905	-0.000312
 991	9.8505e+01	0.5567	113.627204	0.000709	7.094112	2.403550	-0.000284
 992	9.8605e+01	0.5198	113.336530	0.000730	7.296801	2.472223	-0.000292
 993	9.8704e+01	0.4652	113.082191	0.000638	6.384700	2.163195	-0.000256
 994	9.8803e+01	0.4380	112.779405	0.000760	7.600834	2.575232	-0.000304
 995	9.8903e+01	0.3834	112.476620	0.000760	7.600834	2.575232	-0.000304
 996	9.9002e+01	0.3513	112.206132	0.000679	6.790078	2.300541	-0.000272
 997	9.9102e+01	0.3080	111.959867	0.000618	6.182012	2.094522	-0.000248
 998	9.9201e+01	0.2775	111.636896	0.000811	8.107556	2.746914	-0.000325
 999	9.9301e+01	0.2342	111.370445	0.000669	6.688734	2.266204	-0.000268
1000	9.9400e+01	0.1973	111.120143	0.000628	6.283356	2.128859	-0.000252
1001	9.9500e+01	0.1556	110.825432	0.000740	7.398145	2.506559	-0.000296
1002	9.9600e+01	0.1091	110.494387	0.000831	8.310245	2.815587	-0.000333
1003	9.9699e+01	0.0818	110.219861	0.000689	6.891423	2.334877	-0.000276
1004	9.9799e+01	0.0465	109.917076	0.000760	7.600834	2.575232	-0.000304
1005	9.9898e+01	0.0048	109.699071	0.000547	5.472600	1.854167	-0.000219
1006	9.9998e+01	-0.0449	109.424546	0.000689	6.891423	2.334877	-0.000276
1007	1.0010e+02	-0.0786	109.133872	0.000730	7.296801	2.472223	-0.000292
1008	1.0020e+02	-0.1107	108.823012	0.000780	7.803523	2.643905	-0.000312
1009	1.0030e+02	-0.1620	108.532339	0.000730	7.296801	2.472223	-0.000292
1010	1.0040e+02	-0.2005	108.245702	0.000720	7.195456	2.437887	-0.000288
1011	1.0050e+02	-0.2438	108.011548	0.000588	5.877978	1.991513	-0.000235
1012	1.0059e+02	-0.2807	107.708763	0.000760	7.600834	2.575232	-0.000304
1013	1.0069e+02	-0.3176	107.410015	0.000750	7.499489	2.540896	-0.000300
1014	1.0079e+02	-0.3658	107.111267	0.000750	7.499489	2.540896	-0.000300
1015	1.0089e+02	-0.3995	106.816556	0.000740	7.398145	2.506559	-0.000296
1016	1.0099e+02	-0.4315	106.582402	0.000588	5.877978	1.991513	-0.000235
1017	1.0109e+02	-0.4765	106.307877	0.000689	6.891423	2.334877	-0.000276
1018	1.0119e+02	-0.5182	105.972795	0.000841	8.411589	2.849924	-0.000337
1019	1.0129e+02	-0.5631	105.686158	0.000720	7.195456	2.437887	-0.000288
1020	1.0139e+02	-0.5871	105.375298	0.000780	7.803523	2.643905	-0.000312
1021	1.0149e+02	-0.6369	105.096736	0.000699	6.992767	2.369214	-0.000280
1022	1.0159e+02	-0.6738	104.785877	0.000780	7.803523	2.643905	-0.000312
1023	1.0169e+02	-0.7155	104.479054	0.000770	7.702178	2.609569	-0.000308
1024	1.0179e+02	-0.7524	104.200492	0.000699	6.992767	2.369214	-0.000280
1025	1.0189e+02	-0.7909	103.913855	0.000720	7.195456	2.437887	-0.000288
1026	1.0199e+02	-0.8390	103.611070	0.000760	7.600834	2.575232	-0.000304
1027	1.0209e+02	-0.8711	103.364805	0.000618	6.182012	2.094522	-0.000248
1028	1.0219e+02	-0.9224	103.062020	0.000760	7.600834	2.575232	-0.000304
1029	1.0229e+02	-0.9481	102.755197	0.000770	7.702178	2.609569	-0.000308
1030	1.0239e+02	-0.9962	102.492784	0.000659	6.587389	2.231868	-0.000264
1031	1.0248e+02	-1.0411	102.125404	0.000922	9.222345	3.124615	-0.000369
1032	1.0258e+02	-1.0748	101.862990	0.000659	6.587389	2.231868	-0.000264
1033	1.0268e+02	-1.1117	101.620762	0.000608	6.080667	2.060186	-0.000243
1034	1.0278e+02	-1.1534	101.334126	0.000720	7.195456	2.437887	-0.000288
1035	1.0288e+02	-1.1984	100.978858	0.000892	8.918312	3.021606	-0.000357
1036	1.0298e+02	-1.2256	100.716444	0.000659	6.587389	2.231868	-0.000264
1037	1.0308e+02	-1.2738	100.458067	0.000649	6.486045	2.197532	-0.000260
1038	1.0318e+02	-1.3123	100.118948	0.000851	8.512934	2.884260	-0.000341
1039	1.0328e+02	-1.3572	99.832311	0.000720	7.195456	2.437887	-0.000288
1040	1.0338e+02	-1.3973	99.533563	0.000750	7.499489	2.540896	-0.000300
1041	1.0348e+02	-1.4374	99.263075	0.000679	6.790078	2.300541	-0.000272
1042	1.0358e+02	-1.4711	98.976438	0.000720	7.195456	2.437887	-0.000288
1043	1.0368e+02	-1.5192	98.641356	0.000841	8.411589	2.849924	-0.000337
1044	1.0378e+02	-1.5513	98.407202	0.000588	5.877978	1.991513	-0.000235
1045	1.0388e+02	-1.5930	98.104417	0.000760	7.600834	2.575232	-0.000304
1046	1.0398e+02	-1.6315	97.753186	0.000882	8.816967	2.987269	-0.000353
1047	1.0408e+02	-1.6732	97.498847	0.000638	6.384700	2.163195	-0.000256
1048	1.0418e+02	-1.7133	97.228359	0.000679	6.790078	2.300541	-0.000272
1049	1.0428e+02	-1.7502	96.929611	0.000750	7.499489	2.540896	-0.000300
1050	1.0438e+02	-1.7935	96.647011	0.000709	7.094112	2.403550	-0.000284
1051	1.0447e+02	-1.8401	96.336152	0.000780	7.803523	2.643905	-0.000312
1052	1.0457e+02	-1.8641	96.097961	0.000598	5.979323	2.025849	-0.000239
1053	1.0467e+02	-1.9058	95.770953	0.000821	8.208901	2.781251	-0.000329
1054	1.0477e+02	-1.9540	95.464130	0.000770	7.702178	2.609569	-0.000308
1055	1.0487e+02	-1.9860	95.201716	0.000659	6.587389	2.231868	-0.000264
1056	1.0497e+02	-2.0229	94.866634	0.000841	8.411589	2.849924	-0.000337
1057	1.0507e+02	-2.0711	94.600183	0.000669	6.688734	2.266204	-0.000268
1058	1.0517e+02	-2.1096	94.309509	0.000730	7.296801	2.472223	-0.000292
1059	1.0527e+02	-2.1529	94.018836	0.000730	7.296801	2.472223	-0.000292
1060	1.0537e+02	-2.1882	93.716050	0.000760	7.600834	2.575232	-0.000304
1061	1.0547e+02	-2.2283	93.437488	0.000699	6.992767	2.369214	-0.000280
1062	1.0557e+02	-2.2668	93.154889	0.000709	7.094112	2.403550	-0.000284
1063	1.0567e+02	-2.3117	92.872289	0.000709	7.094112	2.403550	-0.000284
1064	1.0577e+02	-2.3550	92.605838	0.000669	6.688734	2.266204	-0.000268
1065	1.0587e+02	-2.3983	92.286904	0.000801	8.006212	2.712578	-0.000321
1066	1.0597e+02	-2.4224	92.028528	0.000649	6.486045	2.197532	-0.000260
1067	1.0607e+02	-2.4641	91.709594	0.000801	8.006212	2.712578	-0.000321
1068	1.0617e+02	-2.5106	91.414883	0.000740	7.398145	2.506559	-0.000296
1069	1.0627e+02	-2.5459	91.140358	0.000689	6.891423	2.334877	-0.000276
1070	1.0637e+02	-2.5844	90.861795	0.000699	6.992767	2.369214	-0.000280
1071	1.0647e+02	-2.6309	90.554973	0.000770	7.702178	2.609569	-0.000308
1072	1.0656e+02	-2.6646	90.264299	0.000730	7.296801	2.472223	-0.000292
1073	1.0666e+02	-2.7063	89.993811	0.000679	6.790078	2.300541	-0.000272
1074	1.0676e+02	-2.7432	89.707175	0.000720	7.195456	2.437887	-0.000288
1075	1.0686e+02	-2.7898	89.376130	0.000831	8.310245	2.815587	-0.000333
1076	1.0696e+02	-2.8218	89.097567	0.000699	6.992767	2.369214	-0.000280
1077	1.0706e+02	-2.8652	88.855339	0.000608	6.080667	2.060186	-0.000243
1078	1.0716e+02	-2.9101	88.540442	0.000790	7.904867	2.678242	-0.000316
1079	1.0726e+02	-2.9550	88.269954	0.000679	6.790078	2.300541	-0.000272
1080	1.0736e+02	-2.9887	87.922761	0.000872	8.715623	2.952933	-0.000349
1081	1.0746e+02	-3.0304	87.684570	0.000598	5.979323	2.025849	-0.000239
1082	1.0756e+02	-3.0689	87.365636	0.000801	8.006212	2.712578	-0.000321
1083	1.0766e+02	-3.1074	87.066888	0.000750	7.499489	2.540896	-0.000300
1084	1.0776e+02	-3.1539	86.792363	0.000689	6.891423	2.334877	-0.000276
1085	1.0786e+02	-3.1908	86.505726	0.000720	7.195456	2.437887	-0.000288
1086	1.0796e+02	-3.2261	86.263498	0.000608	6.080667	2.060186	-0.000243
1087	1.0806e+02	-3.2742	85.928416	0.000841	8.411589	2.849924	-0.000337
1088	1.0816e+02	-3.3031	85.633705	0.000740	7.398145	2.506559	-0.000296
1089	1.0826e+02	-3.3512	85.379365	0.000638	6.384700	2.163195	-0.000256
1090	1.0836e+02	-3.3865	85.092729	0.000720	7.195456	2.437887	-0.000288
1091	1.0845e+02	-3.4266	84.761683	0.000831	8.310245	2.815587	-0.000333
1092	1.0855e+02	-3.4603	84.519455	0.000608	6.080667	2.060186	-0.000243
1093	1.0865e+02	-3.5020	84.228781	0.000730	7.296801	2.472223	-0.000292
1094	1.0875e+02	-3.5502	83.954256	0.000689	6.891423	2.334877	-0.000276
1095	1.0885e+02	-3.5903	83.651471	0.000760	7.600834	2.575232	-0.000304
1096	1.0895e+02	-3.6256	83.364834	0.000720	7.195456	2.437887	-0.000288
1097	1.0905e+02	-3.6689	83.086272	0.000699	6.992767	2.369214	-0.000280
1098	1.0915e+02	-3.7026	82.835970	0.000628	6.283356	2.128859	-0.000252
1099	1.0925e+02	-3.7347	82.529147	0.000770	7.702178	2.609569	-0.000308
1100	1.0935e+02	-3.7892	82.222325	0.000770	7.702178	2.609569	-0.000308
1101	1.0945e+02	-3.8229	81.955874	0.000669	6.688734	2.266204	-0.000268
1102	1.0955e+02	-3.8614	81.661163	0.000740	7.398145	2.506559	-0.000296
1103	1.0965e+02	-3.8999	81.362415	0.000750	7.499489	2.540896	-0.000300
1104	1.0975e+02	-3.9416	81.100001	0.000659	6.587389	2.231868	-0.000264
1105	1.0985e+02	-3.9849	80.813365	0.000720	7.195456	2.437887	-0.000288
1106	1.0995e+02	-4.0266	80.554988	0.000649	6.486045	2.197532	-0.000260
1107	1.1005e+02	-4.0619	80.296611	0.000649	6.486045	2.197532	-0.000260
1108	1.1015e+02	-4.0972	79.989789	0.000770	7.702178	2.609569	-0.000308
1109	1.1025e+02	-4.1437	79.662781	0.000821	8.208901	2.781251	-0.000329
1110	1.1035e+02	-4.1774	79.428627	0.000588	5.877978	1.991513	-0.000235
1111	1.1044e+02	-4.2239	79.125842	0.000760	7.600834	2.575232	-0.000304
1112	1.1054e+02	-4.2641	78.839205	0.000720	7.195456	2.437887	-0.000288
1113	1.1064e+02	-4.2993	78.556606	0.000709	7.094112	2.403550	-0.000284
1114	1.1074e+02	-4.3523	78.241709	0.000790	7.904867	2.678242	-0.000316
1115	1.1084e+02	-4.3876	78.011592	0.000578	5.776634	1.957176	-0.000231
1116	1.1094e+02	-4.4293	77.720919	0.000730	7.296801	2.472223	-0.000292
1117	1.1104e+02	-4.4598	77.438319	0.000709	7.094112	2.403550	-0.000284
1118	1.1114e+02	-4.5095	77.135534	0.000760	7.600834	2.575232	-0.000304
1119	1.1124e+02	-4.5448	76.840823	0.000740	7.398145	2.506559	-0.000296
1120	1.1134e+02	-4.5849	76.525926	0.000790	7.904867	2.678242	-0.000316
1121	1.1144e+02	-4.6122	76.311958	0.000537	5.371256	1.819831	-0.000215
1122	1.1154e+02	-4.6603	75.968802	0.000861	8.614278	2.918597	-0.000345
1123	1.1164e+02	-4.7084	75.722536	0.000618	6.182012	2.094522	-0.000248
1124	1.1174e+02	-4.7437	75.508568	0.000537	5.371256	1.819831	-0.000215
1125	1.1184e+02	-4.7742	75.193672	0.000790	7.904867	2.678242	-0.000316
1126	1.1194e+02	-4.8111	74.919146	0.000689	6.891423	2.334877	-0.000276
1127	1.1204e+02	-4.8656	74.624436	0.000740	7.398145	2.506559	-0.000296
1128	1.1214e+02	-4.9025	74.337799	0.000720	7.195456	2.437887	-0.000288
1129	1.1224e+02	-4.9426	74.067311	0.000679	6.790078	2.300541	-0.000272
1130	1.1234e+02	-4.9811	73.768563	0.000750	7.499489	2.540896	-0.000300
1131	1.1244e+02	-5.0196	73.481926	0.000720	7.195456	2.437887	-0.000288
1132	1.1253e+02	-5.0598	73.146844	0.000841	8.411589	2.849924	-0.000337
1133	1.1263e+02	-5.0950	72.900579	0.000618	6.182012	2.094522	-0.000248
1134	1.1273e+02	-5.1432	72.662388	0.000598	5.979323	2.025849	-0.000239
1135	1.1283e+02	-5.1817	72.351528	0.000780	7.803523	2.643905	-0.000312
1136	1.1293e+02	-5.2186	72.036632	0.000790	7.904867	2.678242	-0.000316
1137	1.1303e+02	-5.2539	71.770181	0.000669	6.688734	2.266204	-0.000268
1138	1.1313e+02	-5.2859	71.479507	0.000730	7.296801	2.472223	-0.000292
1139	1.1323e+02	-5.3405	71.204982	0.000689	6.891423	2.334877	-0.000276
1140	1.1333e+02	-5.3822	70.934493	0.000679	6.790078	2.300541	-0.000272
1141	1.1343e+02	-5.4127	70.647857	0.000720	7.195456	2.437887	-0.000288
1142	1.1353e+02	-5.4480	70.373332	0.000689	6.891423	2.334877	-0.000276
1143	1.1363e+02	-5.4913	70.070546	0.000760	7.600834	2.575232	-0.000304
1144	1.1373e+02	-5.5362	69.816207	0.000638	6.384700	2.163195	-0.000256
1145	1.1383e+02	-5.5779	69.509385	0.000770	7.702178	2.609569	-0.000308
1146	1.1393e+02	-5.6100	69.226785	0.000709	7.094112	2.403550	-0.000284
1147	1.1403e+02	-5.6597	68.936111	0.000730	7.296801	2.472223	-0.000292
1148	1.1413e+02	-5.7047	68.657549	0.000699	6.992767	2.369214	-0.000280
1149	1.1423e+02	-5.7415	68.354764	0.000760	7.600834	2.575232	-0.000304
1150	1.1433e+02	-5.7833	68.056016	0.000750	7.499489	2.540896	-0.000300
1151	1.1442e+02	-5.8266	67.789565	0.000669	6.688734	2.266204	-0.000268
1152	1.1452e+02	-5.8571	67.506965	0.000709	7.094112	2.403550	-0.000284
1153	1.1462e+02	-5.8988	67.167846	0.000851	8.512934	2.884260	-0.000341
1154	1.1472e+02	-5.9357	66.852949	0.000790	7.904867	2.678242	-0.000316
1155	1.1482e+02	-5.9726	66.582461	0.000679	6.790078	2.300541	-0.000272
1156	1.1492e+02	-6.0175	66.324084	0.000649	6.486045	2.197532	-0.000260
1157	1.1502e+02	-6.0592	66.073782	0.000628	6.283356	2.128859	-0.000252
1158	1.1512e+02	-6.0961	65.795220	0.000699	6.992767	2.369214	-0.000280
1159	1.1522e+02	-6.1378	65.508583	0.000720	7.195456	2.437887	-0.000288
1160	1.1532e+02	-6.1779	65.189649	0.000801	8.006212	2.712578	-0.000321
1161	1.1542e+02	-6.2116	64.939347	0.000628	6.283356	2.128859	-0.000252
1162	1.1552e+02	-6.2629	64.624450	0.000790	7.904867	2.678242	-0.000316
1163	1.1562e+02	-6.2934	64.345888	0.000699	6.992767	2.369214	-0.000280
1164	1.1572e+02	-6.3335	64.039066	0.000770	7.702178	2.609569	-0.000308
1165	1.1582e+02	-6.3704	63.764540	0.000689	6.891423	2.334877	-0.000276
1166	1.1592e+02	-6.4153	63.481941	0.000709	7.094112	2.403550	-0.000284
1167	1.1602e+02	-6.4522	63.215490	0.000669	6.688734	2.266204	-0.000268
1168	1.1612e+02	-6.4843	62.900593	0.000790	7.904867	2.678242	-0.000316
1169	1.1622e+02	-6.5276	62.658365	0.000608	6.080667	2.060186	-0.000243
1170	1.1632e+02	-6.5613	62.339431	0.000801	8.006212	2.712578	-0.000321
1171	1.1642e+02	-6.6094	62.040683	0.000750	7.499489	2.540896	-0.000300
1172	1.1651e+02	-6.6560	61.725787	0.000790	7.904867	2.678242	-0.000316
1173	1.1661e+02	-6.6864	61.447225	0.000699	6.992767	2.369214	-0.000280
1174	1.1671e+02	-6.7217	61.209033	0.000598	5.979323	2.025849	-0.000239
1175	1.1681e+02	-6.7763	60.914323	0.000740	7.398145	2.506559	-0.000296
1176	1.1691e+02	-6.8084	60.575203	0.000851	8.512934	2.884260	-0.000341
1177	1.1701e+02	-6.8517	60.361235	0.000537	5.371256	1.819831	-0.000215
1178	1.1711e+02	-6.8966	60.050376	0.000780	7.803523	2.643905	-0.000312
1179	1.1721e+02	-6.9367	59.731442	0.000801	8.006212	2.712578	-0.000321
1180	1.1731e+02	-6.9720	59.432694	0.000750	7.499489	2.540896	-0.000300
1181	1.1741e+02	-7.0073	59.154131	0.000699	6.992767	2.369214	-0.000280
1182	1.1751e+02	-7.0522	58.819049	0.000841	8.411589	2.849924	-0.000337
1183	1.1761e+02	-7.0875	58.588932	0.000578	5.776634	1.957176	-0.000231
1184	1.1771e+02	-7.1308	58.249813	0.000851	8.512934	2.884260	-0.000341
1185	1.1781e+02	-7.1822	57.938954	0.000780	7.803523	2.643905	-0.000312
1186	1.1791e+02	-7.2142	57.684614	0.000638	6.384700	2.163195	-0.000256
1187	1.1801e+02	-7.2592	57.341457	0.000861	8.614278	2.918597	-0.000345
1188	1.1811e+02	-7.2848	57.038672	0.000760	7.600834	2.575232	-0.000304
1189	1.1821e+02	-7.3281	56.735887	0.000760	7.600834	2.575232	-0.000304
1190	1.1831e+02	-7.3666	56.416953	0.000801	8.006212	2.712578	-0.000321
1191	1.1841e+02	-7.4051	56.190874	0.000568	5.675289	1.922840	-0.000227
1192	1.1850e+02	-7.4436	55.859829	0.000831	8.310245	2.815587	-0.000333
1193	1.1860e+02	-7.4837	55.565118	0.000740	7.398145	2.506559	-0.000296
1194	1.1870e+02	-7.5287	55.298667	0.000669	6.688734	2.266204	-0.000268
1195	1.1880e+02	-7.5752	54.975696	0.000811	8.107556	2.746914	-0.000325
1196	1.1890e+02	-7.6105	54.697134	0.000699	6.992767	2.369214	-0.000280
1197	1.1900e+02	-7.6570	54.398386	0.000750	7.499489	2.540896	-0.000300
1198	1.1910e+02	-7.6939	54.063303	0.000841	8.411589	2.849924	-0.000337
1199	1.1920e+02	-7.7356	53.788778	0.000689	6.891423	2.334877	-0.000276
1200	1.1930e+02	-7.7581	53.514253	0.000689	6.891423	2.334877	-0.000276
1201	1.1940e+02	-7.8174	53.134762	0.000953	9.526378	3.227624	-0.000381
1202	1.1950e+02	-7.8527	52.848125	0.000720	7.195456	2.437887	-0.000288
1203	1.1960e+02	-7.8912	52.597823	0.000628	6.283356	2.128859	-0.000252
1204	1.1970e+02	-7.9217	52.262741	0.000841	8.411589	2.849924	-0.000337
1205	1.1980e+02	-7.9602	51.951881	0.000780	7.803523	2.643905	-0.000312
1206	1.1990e+02	-8.0051	51.608725	0.000861	8.614278	2.918597	-0.000345
1207	1.2000e+02	-8.0468	51.314014	0.000740	7.398145	2.506559	-0.000296
1208	1.2010e+02	-8.0885	50.999117	0.000790	7.904867	2.678242	-0.000316
1209	1.2020e+02	-8.1270	50.672109	0.000821	8.208901	2.781251	-0.000329
1210	1.2030e+02	-8.1591	50.401621	0.000679	6.790078	2.300541	-0.000272
1211	1.2039e+02	-8.2057	50.110947	0.000730	7.296801	2.472223	-0.000292
1212	1.2049e+02	-8.2458	49.800088	0.000780	7.803523	2.643905	-0.000312
1213	1.2059e+02	-8.2843	49.537674	0.000659	6.587389	2.231868	-0.000264
1214	1.2069e+02	-8.3356	49.178369	0.000902	9.019656	3.055942	-0.000361
1215	1.2079e+02	-8.3629	48.871547	0.000770	7.702178	2.609569	-0.000308
1216	1.2089e+02	-8.4174	48.572799	0.000750	7.499489	2.540896	-0.000300
1217	1.2099e+02	-8.4383	48.265976	0.000770	7.702178	2.609569	-0.000308
1218	1.2109e+02	-8.4816	47.914746	0.000882	8.816967	2.987269	-0.000353
1219	1.2119e+02	-8.5201	47.583700	0.000831	8.310245	2.815587	-0.000333
1220	1.2129e+02	-8.5602	47.272841	0.000780	7.803523	2.643905	-0.000312
1221	1.2139e+02	-8.6019	46.949870	0.000811	8.107556	2.746914	-0.000325
1222	1.2149e+02	-8.6436	46.610751	0.000851	8.512934	2.884260	-0.000341
1223	1.2159e+02	-8.6837	46.283743	0.000821	8.208901	2.781251	-0.000329
1224	1.2169e+02	-8.7254	46.001143	0.000709	7.094112	2.403550	-0.000284
1225	1.2179e+02	-8.7623	45.690284	0.000780	7.803523	2.643905	-0.000312
1226	1.2189e+02	-8.7992	45.407684	0.000709	7.094112	2.403550	-0.000284
1227	1.2199e+02	-8.8441	45.112973	0.000740	7.398145	2.506559	-0.000296
1228	1.2209e+02	-8.8874	44.794040	0.000801	8.006212	2.712578	-0.000321
1229	1.2219e+02	-8.9276	44.454920	0.000851	8.512934	2.884260	-0.000341
1230	1.2229e+02	-8.9580	44.152135	0.000760	7.600834	2.575232	-0.000304
1231	1.2239e+02	-9.0030	43.857424	0.000740	7.398145	2.506559	-0.000296
1232	1.2248e+02	-9.0431	43.530416	0.000821	8.208901	2.781251	-0.000329
1233	1.2258e+02	-9.0816	43.175148	0.000892	8.918312	3.021606	-0.000357
1234	1.2268e+02	-9.1249	42.884474	0.000730	7.296801	2.472223	-0.000292
1235	1.2278e+02	-9.1586	42.525169	0.000902	9.019656	3.055942	-0.000361
1236	1.2288e+02	-9.1955	42.230458	0.000740	7.398145	2.506559	-0.000296
1237	1.2298e+02	-9.2340	41.859042	0.000932	9.323690	3.158952	-0.000373
1238	1.2308e+02	-9.2837	41.519922	0.000851	8.512934	2.884260	-0.000341
1239	1.2318e+02	-9.3206	41.188877	0.000831	8.310245	2.815587	-0.000333
1240	1.2328e+02	-9.3607	40.857832	0.000831	8.310245	2.815587	-0.000333
1241	1.2338e+02	-9.4088	40.526787	0.000831	8.310245	2.815587	-0.000333
1242	1.2348e+02	-9.4345	40.211891	0.000790	7.904867	2.678242	-0.000316
1243	1.2358e+02	-9.4762	39.896994	0.000790	7.904867	2.678242	-0.000316
1244	1.2368e+02	-9.5227	39.565949	0.000831	8.310245	2.815587	-0.000333
1245	1.2378e+02	-9.5612	39.210681	0.000892	8.918312	3.021606	-0.000357
1246	1.2388e+02	-9.6013	38.903859	0.000770	7.702178	2.609569	-0.000308
1247	1.2398e+02	-9.6398	38.564739	0.000851	8.512934	2.884260	-0.000341
1248	1.2408e+02	-9.6767	38.233694	0.000831	8.310245	2.815587	-0.000333
1249	1.2418e+02	-9.7120	37.943020	0.000730	7.296801	2.472223	-0.000292
1250	1.2428e+02	-9.7618	37.579678	0.000912	9.121001	3.090279	-0.000365
1251	1.2438e+02	-9.8019	37.240559	0.000851	8.512934	2.884260	-0.000341
1252	1.2447e+02	-9.8484	36.913551	0.000821	8.208901	2.781251	-0.000329
1253	1.2457e+02	-9.8789	36.566357	0.000872	8.715623	2.952933	-0.000349
1254	1.2467e+02	-9.9142	36.211089	0.000892	8.918312	3.021606	-0.000357
1255	1.2477e+02	-9.9543	35.859858	0.000882	8.816967	2.987269	-0.000353
1256	1.2487e+02	-10.0008	35.500553	0.000902	9.019656	3.055942	-0.000361
1257	1.2497e+02	-10.0297	35.165471	0.000841	8.411589	2.849924	-0.000337
1258	1.2507e+02	-10.0762	34.822314	0.000861	8.614278	2.918597	-0.000345
1259	1.2517e+02	-10.1179	34.463009	0.000902	9.019656	3.055942	-0.000361
1260	1.2527e+02	-10.1612	34.152150	0.000780	7.803523	2.643905	-0.000312
1261	1.2537e+02	-10.1949	33.825142	0.000821	8.208901	2.781251	-0.000329
1262	1.2547e+02	-10.2398	33.494097	0.000831	8.310245	2.815587	-0.000333
1263	1.2557e+02	-10.2783	33.118643	0.000943	9.425034	3.193288	-0.000377
1264	1.2567e+02	-10.3264	32.803746	0.000790	7.904867	2.678242	-0.000316
1265	1.2577e+02	-10.3617	32.432330	0.000932	9.323690	3.158952	-0.000373
1266	1.2587e+02	-10.3922	32.101285	0.000831	8.310245	2.815587	-0.000333
1267	1.2597e+02	-10.4307	31.754091	0.000872	8.715623	2.952933	-0.000349
1268	1.2607e+02	-10.4805	31.362489	0.000983	9.830412	3.330634	-0.000394
1269	1.2617e+02	-10.5093	31.035481	0.000821	8.208901	2.781251	-0.000329
1270	1.2627e+02	-10.5494	30.672139	0.000912	9.121001	3.090279	-0.000365
1271	1.2636e+02	-10.5927	30.328982	0.000861	8.614278	2.918597	-0.000345
1272	1.2646e+02	-10.6377	29.933343	0.000993	9.931756	3.364970	-0.000398
1273	1.2656e+02	-10.6762	29.553852	0.000953	9.526378	3.227624	-0.000381
1274	1.2666e+02	-10.7243	29.230881	0.000811	8.107556	2.746914	-0.000325
1275	1.2676e+02	-10.7516	28.871576	0.000902	9.019656	3.055942	-0.000361
1276	1.2686e+02	-10.8013	28.496123	0.000943	9.425034	3.193288	-0.000377
1277	1.2696e+02	-10.8366	28.173152	0.000811	8.107556	2.746914	-0.000325
1278	1.2706e+02	-10.8703	27.842107	0.000831	8.310245	2.815587	-0.000333
1279	1.2716e+02	-10.9216	27.494913	0.000872	8.715623	2.952933	-0.000349
1280	1.2726e+02	-10.9617	27.131571	0.000912	9.121001	3.090279	-0.000365
1281	1.2736e+02	-10.9922	26.804563	0.000821	8.208901	2.781251	-0.000329
1282	1.2746e+02	-11.0435	26.388738	0.001044	10.438479	3.536652	-0.000418
1283	1.2756e+02	-11.0788	26.013284	0.000943	9.425034	3.193288	-0.000377
1284	1.2766e+02	-11.1125	25.653979	0.000902	9.019656	3.055942	-0.000361
1285	1.2776e+02	-11.1526	25.278525	0.000943	9.425034	3.193288	-0.000377
1286	1.2786e+02	-11.1943	24.939406	0.000851	8.512934	2.884260	-0.000341
1287	1.2796e+02	-11.2312	24.539730	0.001003	10.033101	3.399307	-0.000402
1288	1.2806e+02	-11.2713	24.196573	0.000861	8.614278	2.918597	-0.000345
1289	1.2816e+02	-11.3211	23.780748	0.001044	10.438479	3.536652	-0.000418
1290	1.2826e+02	-11.3564	23.437592	0.000861	8.614278	2.918597	-0.000345
1291	1.2835e+02	-11.3933	23.029841	0.001024	10.235790	3.467979	-0.000410
1292	1.2845e+02	-11.4286	22.702833	0.000821	8.208901	2.781251	-0.000329
1293	1.2855e+02	-11.4735	22.295082	0.001024	10.235790	3.467979	-0.000410
1294	1.2865e+02	-11.5120	21.919628	0.000943	9.425034	3.193288	-0.000377
1295	1.2875e+02	-11.5537	21.584546	0.000841	8.411589	2.849924	-0.000337
1296	1.2885e+02	-11.5922	21.213130	0.000932	9.323690	3.158952	-0.000373
1297	1.2895e+02	-11.6307	20.865936	0.000872	8.715623	2.952933	-0.000349
1298	1.2905e+02	-11.6692	20.510668	0.000892	8.918312	3.021606	-0.000357
1299	1.2915e+02	-11.7189	20.102917	0.001024	10.235790	3.467979	-0.000410
1300	1.2925e+02	-11.7478	19.687092	0.001044	10.438479	3.536652	-0.000418
1301	1.2935e+02	-11.7863	19.335862	0.000882	8.816967	2.987269	-0.000353
1302	1.2945e+02	-11.8328	18.976557	0.000902	9.019656	3.055942	-0.000361
1303	1.2955e+02	-11.8697	18.564769	0.001034	10.337134	3.502316	-0.000414
1304	1.2965e+02	-11.9066	18.177204	0.000973	9.729067	3.296297	-0.000390
1305	1.2975e+02	-11.9547	17.781564	0.000993	9.931756	3.364970	-0.000398
1306	1.2985e+02	-11.9868	17.357665	0.001064	10.641167	3.605325	-0.000426
1307	1.2995e+02	-12.0285	16.986249	0.000932	9.323690	3.158952	-0.000373
1308	1.3005e+02	-12.0654	16.594646	0.000983	9.830412	3.330634	-0.000394
1309	1.3015e+02	-12.1120	16.239379	0.000892	8.918312	3.021606	-0.000357
1310	1.3025e+02	-12.1569	15.771071	0.001176	11.755956	3.983026	-0.000471
1311	1.3034e+02	-12.1825	15.419840	0.000882	8.816967	2.987269	-0.000353
1312	1.3044e+02	-12.2291	15.036312	0.000963	9.627723	3.261961	-0.000385
1313	1.3054e+02	-12.2692	14.681044	0.000892	8.918312	3.021606	-0.000357
1314	1.3064e+02	-12.3109	14.269256	0.001034	10.337134	3.502316	-0.000414
1315	1.3074e+02	-12.3478	13.857468	0.001034	10.337134	3.502316	-0.000414
1316	1.3084e+02	-12.3911	13.473941	0.000963	9.627723	3.261961	-0.000385
1317	1.3094e+02	-12.4392	13.033893	0.001105	11.046545	3.742671	-0.000442
1318	1.3104e+02	-12.4633	12.662476	0.000932	9.323690	3.158952	-0.000373
1319	1.3114e+02	-12.5050	12.278948	0.000963	9.627723	3.261961	-0.000385
1320	1.3124e+02	-12.5435	11.879272	0.001003	10.033101	3.399307	-0.000402
1321	1.3134e+02	-12.5916	11.479595	0.001003	10.033101	3.399307	-0.000402
1322	1.3144e+02	-12.6365	11.019362	0.001155	11.553267	3.914353	-0.000463
1323	1.3154e+02	-12.6558	10.635834	0.000963	9.627723	3.261961	-0.000385
1324	1.3164e+02	-12.7007	10.163489	0.001186	11.857301	4.017362	-0.000475
1325	1.3174e+02	-12.7440	9.779961	0.000963	9.627723	3.261961	-0.000385
1326	1.3184e+02	-12.7841	9.331839	0.001125	11.249234	3.811344	-0.000450
1327	1.3194e+02	-12.8290	8.936200	0.000993	9.931756	3.364970	-0.000398
1328	1.3204e+02	-12.8676	8.524412	0.001034	10.337134	3.502316	-0.000414
1329	1.3214e+02	-12.9061	8.152996	0.000932	9.323690	3.158952	-0.000373
1330	1.3224e+02	-12.9430	7.721022	0.001084	10.843856	3.673998	-0.000434
1331	1.3234e+02	-12.9863	7.365754	0.000892	8.918312	3.021606	-0.000357
1332	1.3243e+02	-13.0232	6.877261	0.001226	12.262679	4.154708	-0.000491
1333	1.3253e+02	-13.0697	6.481621	0.000993	9.931756	3.364970	-0.000398
1334	1.3263e+02	-13.0970	6.065796	0.001044	10.438479	3.536652	-0.000418
1335	1.3273e+02	-13.1499	5.621712	0.001115	11.147890	3.777007	-0.000446
1336	1.3283e+02	-13.1836	5.197812	0.001064	10.641167	3.605325	-0.000426
1337	1.3293e+02	-13.2221	4.749690	0.001125	11.249234	3.811344	-0.000450
1338	1.3303e+02	-13.2750	4.317717	0.001084	10.843856	3.673998	-0.000434
1339	1.3313e+02	-13.2975	3.865557	0.001135	11.350579	3.845680	-0.000454
1340	1.3323e+02	-13.3408	3.421473	0.001115	11.147890	3.777007	-0.000446
1341	1.3333e+02	-13.3809	2.989499	0.001084	10.843856	3.673998	-0.000434
1342	1.3343e+02	-13.4226	2.501006	0.001226	12.262679	4.154708	-0.000491
1343	1.3353e+02	-13.4756	2.064995	0.001095	10.945201	3.708334	-0.000438
1344	1.3363e+02	-13.4964	1.673393	0.000983	9.830412	3.330634	-0.000394
1345	1.3373e+02	-13.5494	1.180862	0.001236	12.364023	4.189044	-0.000495
1346	1.3383e+02	-13.5879	0.748889	0.001084	10.843856	3.673998	-0.000434
1347	1.3393e+02	-13.6231	0.312878	0.001095	10.945201	3.708334	-0.000438
1348	1.3403e+02	-13.6600	-0.147355	0.001155	11.553267	3.914353	-0.000463
1349	1.3413e+02	-13.7018	-0.603552	0.001145	11.451923	3.880017	-0.000458
1350	1.3423e+02	-13.7451	-1.051674	0.001125	11.249234	3.811344	-0.000450
1351	1.3432e+02	-13.7916	-1.499796	0.001125	11.249234	3.811344	-0.000450
1352	1.3442e+02	-13.8269	-1.972141	0.001186	11.857301	4.017362	-0.000475
1353	1.3452e+02	-13.8702	-2.452560	0.001206	12.059990	4.086035	-0.000483
1354	1.3462e+02	-13.9087	-2.868385	0.001044	10.438479	3.536652	-0.000418
1355	1.3472e+02	-13.9376	-3.368990	0.001257	12.566712	4.257717	-0.000503
1356	1.3482e+02	-13.9825	-3.881706	0.001287	12.870745	4.360727	-0.000515
1357	1.3492e+02	-14.0258	-4.378274	0.001247	12.465368	4.223381	-0.000499
1358	1.3502e+02	-14.0563	-4.818322	0.001105	11.046545	3.742671	-0.000442
1359	1.3512e+02	-14.0996	-5.302778	0.001216	12.161334	4.120372	-0.000487
1360	1.3522e+02	-14.1413	-5.811457	0.001277	12.769401	4.326390	-0.000511
1361	1.3532e+02	-14.1862	-6.271690	0.001155	11.553267	3.914353	-0.000463
1362	1.3542e+02	-14.2231	-6.752110	0.001206	12.059990	4.086035	-0.000483
1363	1.3552e+02	-14.2664	-7.248677	0.001247	12.465368	4.223381	-0.000499
1364	1.3562e+02	-14.3017	-7.716985	0.001176	11.755956	3.983026	-0.000471
1365	1.3572e+02	-14.3450	-8.161070	0.001115	11.147890	3.777007	-0.000446
1366	1.3582e+02	-14.3836	-8.685898	0.001317	13.174779	4.463736	-0.000527
1367	1.3592e+02	-14.4253	-9.190540	0.001267	12.668056	4.292054	-0.000507
1368	1.3602e+02	-14.4525	-9.679033	0.001226	12.262679	4.154708	-0.000491
1369	1.3612e+02	-14.4991	-10.163489	0.001216	12.161334	4.120372	-0.000487
1370	1.3622e+02	-14.5488	-10.724651	0.001409	14.086879	4.772764	-0.000564
1371	1.3631e+02	-14.5841	-11.213145	0.001226	12.262679	4.154708	-0.000491
1372	1.3641e+02	-14.6194	-11.705675	0.001236	12.364023	4.189044	-0.000495
1373	1.3651e+02	-14.6579	-12.238577	0.001338	13.377468	4.532409	-0.000536
1374	1.3661e+02	-14.7028	-12.803776	0.001419	14.188223	4.807100	-0.000568
1375	1.3671e+02	-14.7381	-13.276121	0.001186	11.857301	4.017362	-0.000475
1376	1.3681e+02	-14.7798	-13.804986	0.001328	13.276123	4.498072	-0.000532
1377	1.3691e+02	-14.8215	-14.345962	0.001358	13.580157	4.601082	-0.000544
1378	1.3701e+02	-14.8632	-14.903087	0.001399	13.985534	4.738427	-0.000560
1379	1.3711e+02	-14.9017	-15.383506	0.001206	12.059990	4.086035	-0.000483
1380	1.3721e+02	-14.9226	-15.932556	0.001378	13.782845	4.669754	-0.000552
1381	1.3731e+02	-14.9819	-16.469495	0.001348	13.478812	4.566745	-0.000540
1382	1.3741e+02	-15.0220	-17.010471	0.001358	13.580157	4.601082	-0.000544
1383	1.3751e+02	-15.0766	-17.498965	0.001226	12.262679	4.154708	-0.000491
1384	1.3761e+02	-15.1022	-18.076275	0.001449	14.492257	4.910109	-0.000580
1385	1.3771e+02	-15.1407	-18.673771	0.001500	14.998979	5.081792	-0.000600
1386	1.3781e+02	-15.1776	-19.174376	0.001257	12.566712	4.257717	-0.000503
1387	1.3791e+02	-15.2210	-19.727464	0.001388	13.884190	4.704091	-0.000556
1388	1.3801e+02	-15.2530	-20.252291	0.001317	13.174779	4.463736	-0.000527
1389	1.3811e+02	-15.2980	-20.874010	0.001561	15.607046	5.287810	-0.000625
1390	1.3821e+02	-15.3349	-21.463432	0.001480	14.796290	5.013119	-0.000592
1391	1.3831e+02	-15.3718	-22.024594	0.001409	14.086879	4.772764	-0.000564
1392	1.3840e+02	-15.4167	-22.533273	0.001277	12.769401	4.326390	-0.000511
1393	1.3850e+02	-15.4600	-23.134806	0.001510	15.100323	5.116128	-0.000605
1394	1.3860e+02	-15.5001	-23.704042	0.001429	14.289568	4.841437	-0.000572
1395	1.3870e+02	-15.5322	-24.309613	0.001520	15.201668	5.150464	-0.000609
1396	1.3880e+02	-15.5771	-24.874812	0.001419	14.188223	4.807100	-0.000568
1397	1.3890e+02	-15.6124	-25.504605	0.001581	15.809734	5.356483	-0.000633
1398	1.3900e+02	-15.6525	-26.061730	0.001399	13.985534	4.738427	-0.000560
1399	1.3910e+02	-15.6878	-26.643077	0.001459	14.593601	4.944446	-0.000584
1400	1.3920e+02	-15.7343	-27.228462	0.001469	14.694945	4.978782	-0.000588
1401	1.3930e+02	-15.7824	-27.773475	0.001368	13.681501	4.635418	-0.000548
1402	1.3940e+02	-15.8258	-28.362897	0.001480	14.796290	5.013119	-0.000592
1403	1.3950e+02	-15.8450	-28.936170	0.001439	14.390912	4.875773	-0.000576
1404	1.3960e+02	-15.8931	-29.586149	0.001632	16.316457	5.528165	-0.000653
1405	1.3970e+02	-15.9348	-30.219980	0.001591	15.911079	5.390819	-0.000637
1406	1.3980e+02	-15.9685	-30.878033	0.001652	16.519146	5.596838	-0.000661
1407	1.3990e+02	-16.0118	-31.435157	0.001399	13.985534	4.738427	-0.000560
1408	1.4000e+02	-16.0503	-32.077062	0.001611	16.113768	5.459492	-0.000645
1409	1.4010e+02	-16.0905	-32.694744	0.001551	15.505701	5.253474	-0.000621
1410	1.4020e+02	-16.1306	-33.340685	0.001622	16.215112	5.493829	-0.000649
1411	1.4029e+02	-16.1723	-33.978553	0.001601	16.012423	5.425156	-0.000641
1412	1.4039e+02	-16.2076	-34.572012	0.001490	14.897634	5.047455	-0.000596
1413	1.4049e+02	-16.2541	-35.230065	0.001652	16.519146	5.596838	-0.000661
1414	1.4059e+02	-16.2958	-35.896192	0.001672	16.721835	5.665511	-0.000669
1415	1.4069e+02	-16.3375	-36.505800	0.001530	15.303012	5.184801	-0.000613
1416	1.4079e+02	-16.3696	-37.208262	0.001763	17.633935	5.974539	-0.000706
1417	1.4089e+02	-16.4129	-37.801720	0.001490	14.897634	5.047455	-0.000596
1418	1.4099e+02	-16.4594	-38.431514	0.001581	15.809734	5.356483	-0.000633
1419	1.4109e+02	-16.4963	-39.097641	0.001672	16.721835	5.665511	-0.000669
1420	1.4119e+02	-16.5284	-39.755694	0.001652	16.519146	5.596838	-0.000661
1421	1.4129e+02	-16.5781	-40.437970	0.001713	17.127212	5.802857	-0.000686
1422	1.4139e+02	-16.6102	-41.104098	0.001672	16.721835	5.665511	-0.000669
1423	1.4149e+02	-16.6487	-41.778299	0.001692	16.924523	5.734184	-0.000678
1424	1.4159e+02	-16.6808	-42.472687	0.001743	17.431246	5.905866	-0.000698
1425	1.4169e+02	-16.7241	-43.175148	0.001763	17.633935	5.974539	-0.000706
1426	1.4179e+02	-16.7771	-43.885684	0.001784	17.836623	6.043212	-0.000714
1427	1.4189e+02	-16.8092	-44.567960	0.001713	17.127212	5.802857	-0.000686
1428	1.4199e+02	-16.8541	-45.258310	0.001733	17.329901	5.871529	-0.000694
1429	1.4209e+02	-16.8942	-45.956735	0.001753	17.532590	5.940202	-0.000702
1430	1.4219e+02	-16.9375	-46.671308	0.001794	17.937968	6.077548	-0.000718
1431	1.4228e+02	-16.9696	-47.422215	0.001885	18.850068	6.386576	-0.000755
1432	1.4238e+02	-17.0129	-48.152937	0.001834	18.343346	6.214894	-0.000734
1433	1.4248e+02	-17.0498	-48.815027	0.001662	16.620490	5.631174	-0.000665
1434	1.4258e+02	-17.0899	-49.586120	0.001936	19.356790	6.558258	-0.000775
1435	1.4268e+02	-17.1380	-50.280507	0.001743	17.431246	5.905866	-0.000698
1436	1.4278e+02	-17.1781	-51.035451	0.001895	18.951412	6.420912	-0.000759
1437	1.4288e+02	-17.2134	-51.786359	0.001885	18.850068	6.386576	-0.000755
1438	1.4298e+02	-17.2455	-52.569563	0.001966	19.660824	6.661267	-0.000787
1439	1.4308e+02	-17.2936	-53.336619	0.001926	19.255446	6.523922	-0.000771
1440	1.4318e+02	-17.3289	-54.087526	0.001885	18.850068	6.386576	-0.000755
1441	1.4328e+02	-17.3658	-54.846508	0.001905	19.052757	6.455249	-0.000763
1442	1.4338e+02	-17.4027	-55.613563	0.001926	19.255446	6.523922	-0.000771
1443	1.4348e+02	-17.4412	-56.384656	0.001936	19.356790	6.558258	-0.000775
1444	1.4358e+02	-17.4877	-57.147675	0.001915	19.154101	6.489585	-0.000767
1445	1.4368e+02	-17.5295	-57.971251	0.002067	20.674268	7.004632	-0.000828
1446	1.4378e+02	-17.5744	-58.742344	0.001936	19.356790	6.558258	-0.000775
1447	1.4388e+02	-17.6097	-59.549771	0.002027	20.268890	6.867286	-0.000811
1448	1.4398e+02	-17.6514	-60.373346	0.002067	20.674268	7.004632	-0.000828
1449	1.4408e+02	-17.6979	-61.132328	0.001905	19.052757	6.455249	-0.000763
1450	1.4418e+02	-17.7364	-61.947829	0.002047	20.471579	6.935959	-0.000820
1451	1.4428e+02	-17.7717	-62.763331	0.002047	20.471579	6.935959	-0.000820
1452	1.4437e+02	-17.7974	-63.599018	0.002098	20.978302	7.107641	-0.000840
1453	1.4447e+02	-17.8535	-64.418556	0.002057	20.572924	6.970295	-0.000824
1454	1.4457e+02	-17.8888	-65.213872	0.001996	19.964857	6.764277	-0.000799
1455	1.4467e+02	-17.9177	-66.093968	0.002209	22.093090	7.485342	-0.000885
1456	1.4477e+02	-17.9674	-66.929655	0.002098	20.978302	7.107641	-0.000840
1457	1.4487e+02	-17.9995	-67.785528	0.002149	21.485024	7.279323	-0.000860
1458	1.4497e+02	-18.0412	-68.673697	0.002230	22.295779	7.554015	-0.000893
1459	1.4507e+02	-18.0877	-69.489199	0.002047	20.471579	6.935959	-0.000820
1460	1.4517e+02	-18.1214	-70.336997	0.002128	21.282335	7.210650	-0.000852
1461	1.4527e+02	-18.1567	-71.245353	0.002280	22.802502	7.725697	-0.000913
1462	1.4537e+02	-18.2048	-72.173894	0.002331	23.309224	7.897379	-0.000933
1463	1.4547e+02	-18.2514	-73.045915	0.002189	21.890402	7.416669	-0.000876
1464	1.4557e+02	-18.2899	-73.966382	0.002311	23.106535	7.828706	-0.000925
1465	1.4567e+02	-18.3171	-74.874738	0.002280	22.802502	7.725697	-0.000913
1466	1.4577e+02	-18.3733	-75.799242	0.002321	23.207879	7.863042	-0.000929
1467	1.4587e+02	-18.4118	-76.699523	0.002260	22.599813	7.657024	-0.000905
1468	1.4597e+02	-18.4407	-77.583656	0.002219	22.194435	7.519678	-0.000889
1469	1.4607e+02	-18.4824	-78.516234	0.002341	23.410568	7.931715	-0.000937
1470	1.4617e+02	-18.5401	-79.448813	0.002341	23.410568	7.931715	-0.000937
1471	1.4626e+02	-18.5594	-80.336983	0.002230	22.295779	7.554015	-0.000893
1472	1.4636e+02	-18.6027	-81.269561	0.002341	23.410568	7.931715	-0.000937
1473	1.4646e+02	-18.6380	-82.157731	0.002230	22.295779	7.554015	-0.000893
1474	1.4656e+02	-18.6829	-83.122606	0.002422	24.221324	8.206407	-0.000970
1475	1.4666e+02	-18.7262	-84.083445	0.002412	24.119980	8.172070	-0.000966
1476	1.4676e+02	-18.7679	-85.032171	0.002382	23.815946	8.069061	-0.000953
1477	1.4686e+02	-18.8096	-85.940527	0.002280	22.802502	7.725697	-0.000913
1478	1.4696e+02	-18.8385	-86.957885	0.002554	25.538802	8.652780	-0.001022
1479	1.4706e+02	-18.8834	-87.902575	0.002371	23.714602	8.034725	-0.000949
1480	1.4716e+02	-18.9316	-88.887636	0.002473	24.728046	8.378089	-0.000990
1481	1.4726e+02	-18.9684	-89.800029	0.002290	22.903846	7.760033	-0.000917
1482	1.4736e+02	-19.0086	-90.797201	0.002503	25.032080	8.481098	-0.001002
1483	1.4746e+02	-19.0438	-91.762077	0.002422	24.221324	8.206407	-0.000970
1484	1.4756e+02	-19.0823	-92.694655	0.002341	23.410568	7.931715	-0.000937
1485	1.4766e+02	-19.1176	-93.627233	0.002341	23.410568	7.931715	-0.000937
1486	1.4776e+02	-19.1626	-94.672852	0.002625	26.248213	8.893135	-0.001051
1487	1.4786e+02	-19.2011	-95.702321	0.002584	25.842835	8.755790	-0.001035
1488	1.4796e+02	-19.2396	-96.695457	0.002493	24.930735	8.446762	-0.000998
1489	1.4806e+02	-19.2781	-97.708778	0.002544	25.437457	8.618444	-0.001018
1490	1.4816e+02	-19.3230	-98.742284	0.002594	25.944180	8.790126	-0.001039
1491	1.4825e+02	-19.3599	-99.840385	0.002757	27.565691	9.339509	-0.001104
1492	1.4835e+02	-19.3936	-100.942523	0.002767	27.667035	9.373845	-0.001108
1493	1.4845e+02	-19.4481	-101.976030	0.002594	25.944180	8.790126	-0.001039
1494	1.4855e+02	-19.4834	-103.070094	0.002746	27.464346	9.305172	-0.001100
1495	1.4865e+02	-19.5299	-104.127824	0.002655	26.552246	8.996145	-0.001063
1496	1.4875e+02	-19.5540	-105.213813	0.002726	27.261658	9.236500	-0.001091
1497	1.4885e+02	-19.6005	-106.388620	0.002949	29.491235	9.991901	-0.001181
1498	1.4895e+02	-19.6454	-107.434238	0.002625	26.248213	8.893135	-0.001051
1499	1.4905e+02	-19.6855	-108.536376	0.002767	27.667035	9.373845	-0.001108
1500	1.4915e+02	-19.7224	-109.670811	0.002848	28.477791	9.648537	-0.001140
1501	1.4925e+02	-19.7593	-110.821395	0.002888	28.883169	9.785882	-0.001156
1502	1.4935e+02	-19.7962	-111.943718	0.002817	28.173758	9.545527	-0.001128
1503	1.4945e+02	-19.8331	-113.114488	0.002939	29.389891	9.957565	-0.001177
1504	1.4955e+02	-19.8716	-114.337740	0.003071	30.707369	10.403938	-0.001229
1505	1.4965e+02	-19.9166	-115.540806	0.003020	30.200647	10.232256	-0.001209
1506	1.4975e+02	-19.9567	-116.731761	0.002990	29.896613	10.129247	-0.001197
1507	1.4985e+02	-20.0016	-117.870234	0.002858	28.579135	9.682873	-0.001144
1508	1.4995e+02	-19.9567	-118.738218	-0.002179	-21.789057	-7.382332	-0.000872
1509	1.5005e+02	-19.9182	-119.569868	-0.002088	-20.876957	-7.073305	-0.000836
1510	1.5015e+02	-19.8764	-120.417666	-0.002128	-21.282335	-7.210650	-0.000852
1511	1.5025e+02	-19.8428	-121.297762	-0.002209	-22.093090	-7.485342	-0.000885
1512	1.5034e+02	-19.7946	-122.097115	-0.002007	-20.066201	-6.798613	-0.000803
1513	1.5044e+02	-19.7593	-122.936839	-0.002108	-21.079646	-7.141977	-0.000844
1514	1.5054e+02	-19.7240	-123.776563	-0.002108	-21.079646	-7.141977	-0.000844
1515	1.5064e+02	-19.6871	-124.563805	-0.001976	-19.762168	-6.695604	-0.000791
1516	1.5074e+02	-19.6358	-125.435826	-0.002189	-21.890402	-7.416669	-0.000876
1517	1.5084e+02	-19.6037	-126.251327	-0.002047	-20.471579	-6.935959	-0.000820
1518	1.5094e+02	-19.5556	-127.058755	-0.002027	-20.268890	-6.867286	-0.000811
1519	1.5104e+02	-19.5107	-127.829847	-0.001936	-19.356790	-6.558258	-0.000775
1520	1.5114e+02	-19.4802	-128.677646	-0.002128	-21.282335	-7.210650	-0.000852
1521	1.5124e+02	-19.4337	-129.485073	-0.002027	-20.268890	-6.867286	-0.000811
1522	1.5134e+02	-19.4016	-130.264240	-0.001956	-19.559479	-6.626931	-0.000783
1523	1.5144e+02	-19.3519	-131.043407	-0.001956	-19.559479	-6.626931	-0.000783
1524	1.5154e+02	-19.3166	-131.790278	-0.001875	-18.748724	-6.352240	-0.000751
1525	1.5164e+02	-19.2765	-132.597705	-0.002027	-20.268890	-6.867286	-0.000811
1526	1.5174e+02	-19.2476	-133.328426	-0.001834	-18.343346	-6.214894	-0.000734
1527	1.5184e+02	-19.2027	-134.115668	-0.001976	-19.762168	-6.695604	-0.000791
1528	1.5194e+02	-19.1594	-134.915021	-0.002007	-20.066201	-6.798613	-0.000803
1529	1.5204e+02	-19.1257	-135.645742	-0.001834	-18.343346	-6.214894	-0.000734
1530	1.5214e+02	-19.0888	-136.424909	-0.001956	-19.559479	-6.626931	-0.000783
1531	1.5224e+02	-19.0471	-137.139482	-0.001794	-17.937968	-6.077548	-0.000718
1532	1.5233e+02	-19.0070	-137.890390	-0.001885	-18.850068	-6.386576	-0.000755
1533	1.5243e+02	-18.9588	-138.653408	-0.001915	-19.154101	-6.489585	-0.000767
1534	1.5253e+02	-18.9316	-139.432576	-0.001956	-19.559479	-6.626931	-0.000783
1535	1.5263e+02	-18.8818	-140.187520	-0.001895	-18.951412	-6.420912	-0.000759
1536	1.5273e+02	-18.8529	-140.934390	-0.001875	-18.748724	-6.352240	-0.000751
1537	1.5283e+02	-18.7904	-141.669149	-0.001844	-18.444690	-6.249230	-0.000738
1538	1.5293e+02	-18.7615	-142.464464	-0.001996	-19.964857	-6.764277	-0.000799
1539	1.5303e+02	-18.7182	-143.203260	-0.001855	-18.546035	-6.283567	-0.000743
1540	1.5313e+02	-18.6845	-143.982428	-0.001956	-19.559479	-6.626931	-0.000783
1541	1.5323e+02	-18.6412	-144.757558	-0.001946	-19.458135	-6.592595	-0.000779
1542	1.5333e+02	-18.6107	-145.460019	-0.001763	-17.633935	-5.974539	-0.000706
1543	1.5343e+02	-18.5626	-146.239186	-0.001956	-19.559479	-6.626931	-0.000783
1544	1.5353e+02	-18.5241	-146.949722	-0.001784	-17.836623	-6.043212	-0.000714
1545	1.5363e+02	-18.4824	-147.692555	-0.001865	-18.647379	-6.317903	-0.000747
1546	1.5373e+02	-18.4471	-148.346571	-0.001642	-16.417801	-5.562502	-0.000657
1547	1.5383e+02	-18.4086	-149.069219	-0.001814	-18.140657	-6.146221	-0.000726
1548	1.5393e+02	-18.3653	-149.808014	-0.001855	-18.546035	-6.283567	-0.000743
1549	1.5403e+02	-18.3268	-150.554885	-0.001875	-18.748724	-6.352240	-0.000751
1550	1.5413e+02	-18.2931	-151.249272	-0.001743	-17.431246	-5.905866	-0.000698
1551	1.5422e+02	-18.2465	-151.971919	-0.001814	-18.140657	-6.146221	-0.000726
1552	1.5432e+02	-18.2096	-152.718789	-0.001875	-18.748724	-6.352240	-0.000751
1553	1.5442e+02	-18.1679	-153.453548	-0.001844	-18.444690	-6.249230	-0.000738
1554	1.5452e+02	-18.1262	-154.184270	-0.001834	-18.343346	-6.214894	-0.000734
1555	1.5462e+02	-18.0893	-154.878657	-0.001743	-17.431246	-5.905866	-0.000698
1556	1.5472e+02	-18.0444	-155.617453	-0.001855	-18.546035	-6.283567	-0.000743
1557	1.5482e+02	-18.0123	-156.287617	-0.001682	-16.823179	-5.699847	-0.000674
1558	1.5492e+02	-17.9562	-156.949708	-0.001662	-16.620490	-5.631174	-0.000665
1559	1.5502e+02	-17.9289	-157.660243	-0.001784	-17.836623	-6.043212	-0.000714
1560	1.5512e+02	-17.8920	-158.298111	-0.001601	-16.012423	-5.425156	-0.000641
1561	1.5522e+02	-17.8519	-158.976350	-0.001703	-17.025868	-5.768520	-0.000682
1562	1.5532e+02	-17.8038	-159.658626	-0.001713	-17.127212	-5.802857	-0.000686
1563	1.5542e+02	-17.7669	-160.264196	-0.001520	-15.201668	-5.150464	-0.000609
1564	1.5552e+02	-17.7300	-160.930323	-0.001672	-16.721835	-5.665511	-0.000669
1565	1.5562e+02	-17.6883	-161.604525	-0.001692	-16.924523	-5.734184	-0.000678
1566	1.5572e+02	-17.6530	-162.226244	-0.001561	-15.607046	-5.287810	-0.000625
1567	1.5582e+02	-17.6016	-162.872186	-0.001622	-16.215112	-5.493829	-0.000649
1568	1.5592e+02	-17.5712	-163.441422	-0.001429	-14.289568	-4.841437	-0.000572
1569	1.5602e+02	-17.5262	-164.127735	-0.001723	-17.228557	-5.837193	-0.000690
1570	1.5612e+02	-17.4926	-164.729268	-0.001510	-15.100323	-5.116128	-0.000605
1571	1.5622e+02	-17.4460	-165.350987	-0.001561	-15.607046	-5.287810	-0.000625
1572	1.5631e+02	-17.4059	-166.013077	-0.001662	-16.620490	-5.631174	-0.000665
1573	1.5641e+02	-17.3722	-166.594425	-0.001459	-14.593601	-4.944446	-0.000584
1574	1.5651e+02	-17.3257	-167.147512	-0.001388	-13.884190	-4.704091	-0.000556
1575	1.5661e+02	-17.2936	-167.785380	-0.001601	-16.012423	-5.425156	-0.000641
1576	1.5671e+02	-17.2519	-168.346542	-0.001409	-14.086879	-4.772764	-0.000564
1577	1.5681e+02	-17.2118	-168.911741	-0.001419	-14.188223	-4.807100	-0.000568
1578	1.5691e+02	-17.1717	-169.472903	-0.001409	-14.086879	-4.772764	-0.000564
1579	1.5701e+02	-17.1284	-170.058287	-0.001469	-14.694945	-4.978782	-0.000588
1580	1.5711e+02	-17.0835	-170.603301	-0.001368	-13.681501	-4.635418	-0.000548
1581	1.5721e+02	-17.0450	-171.160425	-0.001399	-13.985534	-4.738427	-0.000560
1582	1.5731e+02	-17.0113	-171.713513	-0.001388	-13.884190	-4.704091	-0.000556
1583	1.5741e+02	-16.9664	-172.278712	-0.001419	-14.188223	-4.807100	-0.000568
1584	1.5751e+02	-16.9279	-172.835837	-0.001399	-13.985534	-4.738427	-0.000560
1585	1.5761e+02	-16.8910	-173.372776	-0.001348	-13.478812	-4.566745	-0.000540
1586	1.5771e+02	-16.8557	-173.901640	-0.001328	-13.276123	-4.498072	-0.000532
1587	1.5781e+02	-16.8092	-174.450691	-0.001378	-13.782845	-4.669754	-0.000552
1588	1.5791e+02	-16.7723	-174.971481	-0.001307	-13.073434	-4.429399	-0.000523
1589	1.5801e+02	-16.7418	-175.492272	-0.001307	-13.073434	-4.429399	-0.000523
1590	1.5811e+02	-16.6888	-176.009025	-0.001297	-12.972090	-4.395063	-0.000519
1591	1.5821e+02	-16.6503	-176.570187	-0.001409	-14.086879	-4.772764	-0.000564
1592	1.5830e+02	-16.6070	-177.078866	-0.001277	-12.769401	-4.326390	-0.000511
1593	1.5840e+02	-16.5733	-177.539100	-0.001155	-11.553267	-3.914353	-0.000463
1594	1.5850e+02	-16.5396	-177.971073	-0.001084	-10.843856	-3.673998	-0.000434
1595	1.5860e+02	-16.5027	-178.524161	-0.001388	-13.884190	-4.704091	-0.000556
1596	1.5870e+02	-16.4578	-178.972283	-0.001125	-11.249234	-3.811344	-0.000450
1597	1.5880e+02	-16.4145	-179.432516	-0.001155	-11.553267	-3.914353	-0.000463
1598	1.5890e+02	-16.3840	-179.860453	-0.001074	-10.742512	-3.639662	-0.000430
1599	1.5900e+02	-16.3311	-180.324723	-0.001165	-11.654612	-3.948689	-0.000467
1600	1.5910e+02	-16.3134	-180.797068	-0.001186	-11.857301	-4.017362	-0.000475
1601	1.5920e+02	-16.2461	-181.241153	-0.001115	-11.147890	-3.777007	-0.000446
1602	1.5930e+02	-16.2108	-181.673127	-0.001084	-10.843856	-3.673998	-0.000434
1603	1.5940e+02	-16.1707	-182.181806	-0.001277	-12.769401	-4.326390	-0.000511
1604	1.5950e+02	-16.1338	-182.658188	-0.001196	-11.958645	-4.051699	-0.000479
1605	1.5960e+02	-16.0969	-183.154756	-0.001247	-12.465368	-4.223381	-0.000499
1606	1.5970e+02	-16.0503	-183.594803	-0.001105	-11.046545	-3.742671	-0.000442
1607	1.5980e+02	-16.0118	-183.998517	-0.001013	-10.134445	-3.433643	-0.000406
1608	1.5990e+02	-15.9830	-184.487010	-0.001226	-12.262679	-4.154708	-0.000491
1609	1.6000e+02	-15.9429	-184.890724	-0.001013	-10.134445	-3.433643	-0.000406
1610	1.6010e+02	-15.8899	-185.290400	-0.001003	-10.033101	-3.399307	-0.000402
1611	1.6019e+02	-15.8627	-185.702188	-0.001034	-10.337134	-3.502316	-0.000414
1612	1.6029e+02	-15.8145	-186.081679	-0.000953	-9.526378	-3.227624	-0.000381
1613	1.6039e+02	-15.7840	-186.493467	-0.001034	-10.337134	-3.502316	-0.000414
1614	1.6049e+02	-15.7327	-186.893143	-0.001003	-10.033101	-3.399307	-0.000402
1615	1.6059e+02	-15.6974	-187.280708	-0.000973	-9.729067	-3.296297	-0.000390
1616	1.6069e+02	-15.6589	-187.704608	-0.001064	-10.641167	-3.605325	-0.000426
1617	1.6079e+02	-15.6204	-188.039690	-0.000841	-8.411589	-2.849924	-0.000337
1618	1.6089e+02	-15.5803	-188.415143	-0.000943	-9.425034	-3.193288	-0.000377
1619	1.6099e+02	-15.5418	-188.847117	-0.001084	-10.843856	-3.673998	-0.000434
1620	1.6109e+02	-15.4937	-189.214496	-0.000922	-9.222345	-3.124615	-0.000369
1621	1.6119e+02	-15.4584	-189.618210	-0.001013	-10.134445	-3.433643	-0.000406
1622	1.6129e+02	-15.4071	-189.969441	-0.000882	-8.816967	-2.987269	-0.000353
1623	1.6139e+02	-15.3798	-190.320672	-0.000882	-8.816967	-2.987269	-0.000353
1624	1.6149e+02	-15.3317	-190.684014	-0.000912	-9.121001	-3.090279	-0.000365
1625	1.6159e+02	-15.3012	-191.051393	-0.000922	-9.222345	-3.124615	-0.000369
1626	1.6169e+02	-15.2579	-191.402624	-0.000882	-8.816967	-2.987269	-0.000353
1627	1.6179e+02	-15.2178	-191.798263	-0.000993	-9.931756	-3.364970	-0.000398
1628	1.6189e+02	-15.1760	-192.117197	-0.000801	-8.006212	-2.712578	-0.000321
1629	1.6199e+02	-15.1375	-192.436131	-0.000801	-8.006212	-2.712578	-0.000321
1630	1.6209e+02	-15.0990	-192.795436	-0.000902	-9.019656	-3.055942	-0.000361
1631	1.6219e+02	-15.0637	-193.138592	-0.000861	-8.614278	-2.918597	-0.000345
1632	1.6228e+02	-15.0236	-193.461563	-0.000811	-8.107556	-2.746914	-0.000325
1633	1.6238e+02	-14.9851	-193.808757	-0.000872	-8.715623	-2.952933	-0.000349
1634	1.6248e+02	-14.9386	-194.139802	-0.000831	-8.310245	-2.815587	-0.000333
1635	1.6258e+02	-14.8953	-194.422401	-0.000709	-7.094112	-2.403550	-0.000284
1636	1.6268e+02	-14.8504	-194.793818	-0.000932	-9.323690	-3.158952	-0.000373
1637	1.6278e+02	-14.8167	-195.112752	-0.000801	-8.006212	-2.712578	-0.000321
1638	1.6288e+02	-14.7702	-195.427648	-0.000790	-7.904867	-2.678242	-0.000316
1639	1.6298e+02	-14.7333	-195.754656	-0.000821	-8.208901	-2.781251	-0.000329
1640	1.6308e+02	-14.7044	-196.105887	-0.000882	-8.816967	-2.987269	-0.000353
1641	1.6318e+02	-14.6595	-196.356189	-0.000628	-6.283356	-2.128859	-0.000252
1642	1.6328e+02	-14.6242	-196.667049	-0.000780	-7.803523	-2.643905	-0.000312
1643	1.6338e+02	-14.5777	-197.026354	-0.000902	-9.019656	-3.055942	-0.000361
1644	1.6348e+02	-14.5424	-197.385659	-0.000902	-9.019656	-3.055942	-0.000361
1645	1.6358e+02	-14.5039	-197.631924	-0.000618	-6.182012	-2.094522	-0.000248
1646	1.6368e+02	-14.4573	-197.922598	-0.000730	-7.296801	-2.472223	-0.000292
1647	1.6378e+02	-14.4269	-198.237495	-0.000790	-7.904867	-2.678242	-0.000316
1648	1.6388e+02	-14.3836	-198.524131	-0.000720	-7.195456	-2.437887	-0.000288
1649	1.6398e+02	-14.3402	-198.774434	-0.000628	-6.283356	-2.128859	-0.000252
1650	1.6408e+02	-14.3017	-199.113553	-0.000851	-8.512934	-2.884260	-0.000341
1651	1.6418e+02	-14.2616	-199.384041	-0.000679	-6.790078	-2.300541	-0.000272
1652	1.6427e+02	-14.2215	-199.727198	-0.000861	-8.614278	-2.918597	-0.000345
1653	1.6437e+02	-14.1846	-199.973463	-0.000618	-6.182012	-2.094522	-0.000248
1654	1.6447e+02	-14.1445	-200.308545	-0.000841	-8.411589	-2.849924	-0.000337
1655	1.6457e+02	-14.0996	-200.566922	-0.000649	-6.486045	-2.197532	-0.000260
1656	1.6467e+02	-14.0643	-200.784927	-0.000547	-5.472600	-1.854167	-0.000219
1657	1.6477e+02	-14.0290	-201.051378	-0.000669	-6.688734	-2.266204	-0.000268
1658	1.6487e+02	-13.9777	-201.301681	-0.000628	-6.283356	-2.128859	-0.000252
1659	1.6497e+02	-13.9424	-201.543909	-0.000608	-6.080667	-2.060186	-0.000243
1660	1.6507e+02	-13.8975	-201.761914	-0.000547	-5.472600	-1.854167	-0.000219
1661	1.6517e+02	-13.8734	-202.020291	-0.000649	-6.486045	-2.197532	-0.000260
1662	1.6527e+02	-13.8205	-202.226185	-0.000517	-5.168567	-1.751158	-0.000207
1663	1.6537e+02	-13.7836	-202.432079	-0.000517	-5.168567	-1.751158	-0.000207
1664	1.6547e+02	-13.7451	-202.650084	-0.000547	-5.472600	-1.854167	-0.000219
1665	1.6557e+02	-13.7050	-202.839829	-0.000476	-4.763189	-1.613812	-0.000191
1666	1.6567e+02	-13.6665	-203.065909	-0.000568	-5.675289	-1.922840	-0.000227
1667	1.6577e+02	-13.6151	-203.227394	-0.000405	-4.053778	-1.373457	-0.000162
1668	1.6587e+02	-13.5846	-203.481734	-0.000638	-6.384700	-2.163195	-0.000256
1669	1.6597e+02	-13.5445	-203.663405	-0.000456	-4.560500	-1.545139	-0.000183
1670	1.6607e+02	-13.5012	-203.837002	-0.000436	-4.357811	-1.476466	-0.000174
1671	1.6616e+02	-13.4643	-204.083267	-0.000618	-6.182012	-2.094522	-0.000248
1672	1.6626e+02	-13.4258	-204.277050	-0.000486	-4.864534	-1.648149	-0.000195
1673	1.6636e+02	-13.3873	-204.482944	-0.000517	-5.168567	-1.751158	-0.000207
1674	1.6646e+02	-13.3424	-204.656541	-0.000436	-4.357811	-1.476466	-0.000174
1675	1.6656e+02	-13.3071	-204.866472	-0.000527	-5.269911	-1.785494	-0.000211
1676	1.6666e+02	-13.2654	-205.052180	-0.000466	-4.661845	-1.579476	-0.000187
1677	1.6676e+02	-13.2317	-205.258074	-0.000517	-5.168567	-1.751158	-0.000207
1678	1.6686e+02	-13.1868	-205.411485	-0.000385	-3.851089	-1.304784	-0.000154
1679	1.6696e+02	-13.1483	-205.552785	-0.000355	-3.547056	-1.201775	-0.000142
1680	1.6706e+02	-13.1130	-205.722344	-0.000426	-4.256467	-1.442130	-0.000170
1681	1.6716e+02	-13.0729	-205.875756	-0.000385	-3.851089	-1.304784	-0.000154
1682	1.6726e+02	-13.0296	-206.008981	-0.000334	-3.344367	-1.133102	-0.000134
1683	1.6736e+02	-12.9815	-206.190652	-0.000456	-4.560500	-1.545139	-0.000183
1684	1.6746e+02	-12.9478	-206.364249	-0.000436	-4.357811	-1.476466	-0.000174
1685	1.6756e+02	-12.9044	-206.525734	-0.000405	-4.053778	-1.373457	-0.000162
1686	1.6766e+02	-12.8595	-206.699331	-0.000436	-4.357811	-1.476466	-0.000174
1687	1.6776e+02	-12.8242	-206.848705	-0.000375	-3.749745	-1.270448	-0.000150
1688	1.6786e+02	-12.7841	-206.965782	-0.000294	-2.938989	-0.995756	-0.000118
1689	1.6796e+02	-12.7537	-207.179750	-0.000537	-5.371256	-1.819831	-0.000215
1690	1.6806e+02	-12.7039	-207.260493	-0.000203	-2.026889	-0.686729	-0.000081
1691	1.6816e+02	-12.6718	-207.434090	-0.000436	-4.357811	-1.476466	-0.000174
1692	1.6825e+02	-12.6317	-207.551167	-0.000294	-2.938989	-0.995756	-0.000118
1693	1.6835e+02	-12.5868	-207.688429	-0.000345	-3.445711	-1.167439	-0.000138
1694	1.6845e+02	-12.5515	-207.845878	-0.000395	-3.952434	-1.339121	-0.000158
1695	1.6855e+02	-12.5018	-207.983140	-0.000345	-3.445711	-1.167439	-0.000138
1696	1.6865e+02	-12.4745	-208.080032	-0.000243	-2.432267	-0.824074	-0.000097
1697	1.6875e+02	-12.4312	-208.229406	-0.000375	-3.749745	-1.270448	-0.000150
1698	1.6885e+02	-12.3991	-208.318223	-0.000223	-2.229578	-0.755401	-0.000089
1699	1.6895e+02	-12.3478	-208.386854	-0.000172	-1.722856	-0.583719	-0.000069
1700	1.6905e+02	-12.3077	-208.536228	-0.000375	-3.749745	-1.270448	-0.000150
1701	1.6915e+02	-12.2676	-208.637156	-0.000253	-2.533611	-0.858411	-0.000101
1702	1.6925e+02	-12.2259	-208.782493	-0.000365	-3.648400	-1.236111	-0.000146
1703	1.6935e+02	-12.1922	-208.883422	-0.000253	-2.533611	-0.858411	-0.000101
1704	1.6945e+02	-12.1553	-208.972239	-0.000223	-2.229578	-0.755401	-0.000089
1705	1.6955e+02	-12.1023	-209.032796	-0.000152	-1.520167	-0.515046	-0.000061
1706	1.6965e+02	-12.0702	-209.137761	-0.000263	-2.634956	-0.892747	-0.000105
1707	1.6975e+02	-12.0317	-209.250801	-0.000284	-2.837645	-0.961420	-0.000114
1708	1.6985e+02	-11.9916	-209.351729	-0.000253	-2.533611	-0.858411	-0.000101
1709	1.6995e+02	-11.9387	-209.416324	-0.000162	-1.621511	-0.549383	-0.000065
1710	1.7005e+02	-11.9034	-209.464769	-0.000122	-1.216133	-0.412037	-0.000049
1711	1.7015e+02	-11.8697	-209.638366	-0.000436	-4.357811	-1.476466	-0.000174
1712	1.7024e+02	-11.8424	-209.662589	-0.000061	-0.608067	-0.206019	-0.000024
1713	1.7034e+02	-11.7959	-209.767554	-0.000263	-2.634956	-0.892747	-0.000105
1714	1.7044e+02	-11.7526	-209.816000	-0.000122	-1.216133	-0.412037	-0.000049
1715	1.7054e+02	-11.7045	-209.957300	-0.000355	-3.547056	-1.201775	-0.000142
1716	1.7064e+02	-11.6692	-209.937114	0.000051	0.506722	0.171682	0.000020
1717	1.7074e+02	-11.6323	-210.062265	-0.000314	-3.141678	-1.064429	-0.000126
1718	1.7084e+02	-11.5906	-210.143008	-0.000203	-2.026889	-0.686729	-0.000081
1719	1.7094e+02	-11.5441	-210.239899	-0.000243	-2.432267	-0.824074	-0.000097
1720	1.7104e+02	-11.5088	-210.268159	-0.000071	-0.709411	-0.240355	-0.000028
1721	1.7114e+02	-11.4751	-210.264122	0.000010	0.101344	0.034336	0.000004
1722	1.7124e+02	-11.4270	-210.373125	-0.000274	-2.736300	-0.927084	-0.000110
1723	1.7134e+02	-11.4013	-210.425608	-0.000132	-1.317478	-0.446374	-0.000053
1724	1.7144e+02	-11.3628	-210.470016	-0.000111	-1.114789	-0.377701	-0.000045
1725	1.7154e+02	-11.3114	-210.522499	-0.000132	-1.317478	-0.446374	-0.000053
1726	1.7164e+02	-11.2681	-210.538647	-0.000041	-0.405378	-0.137346	-0.000016
1727	1.7174e+02	-11.2360	-210.635539	-0.000243	-2.432267	-0.824074	-0.000097
1728	1.7184e+02	-11.1847	-210.647650	-0.000030	-0.304033	-0.103009	-0.000012
1729	1.7194e+02	-11.1494	-210.675910	-0.000071	-0.709411	-0.240355	-0.000028
1730	1.7204e+02	-11.1173	-210.732430	-0.000142	-1.418822	-0.480710	-0.000057
1731	1.7213e+02	-11.0756	-210.772801	-0.000101	-1.013445	-0.343364	-0.000041
1732	1.7223e+02	-11.0403	-210.833358	-0.000152	-1.520167	-0.515046	-0.000061
1733	1.7233e+02	-10.9938	-210.861618	-0.000071	-0.709411	-0.240355	-0.000028
1734	1.7243e+02	-10.9537	-210.825284	0.000091	0.912100	0.309028	0.000037
1735	1.7253e+02	-10.9152	-210.893915	-0.000172	-1.722856	-0.583719	-0.000069
1736	1.7263e+02	-10.8751	-210.877767	0.000041	0.405378	0.137346	0.000016
1737	1.7273e+02	-10.8414	-210.962547	-0.000213	-2.128233	-0.721065	-0.000085
1738	1.7283e+02	-10.7933	-210.970621	-0.000020	-0.202689	-0.068673	-0.000008
1739	1.7293e+02	-10.7500	-210.982732	-0.000030	-0.304033	-0.103009	-0.000012
1740	1.7303e+02	-10.7163	-211.027141	-0.000111	-1.114789	-0.377701	-0.000045
1741	1.7313e+02	-10.6794	-211.027141	0.000000	0.000000	0.000000	0.000000
1742	1.7323e+02	-10.6473	-211.035215	-0.000020	-0.202689	-0.068673	-0.000008
1743	1.7333e+02	-10.5992	-211.063475	-0.000071	-0.709411	-0.240355	-0.000028
1744	1.7343e+02	-10.5607	-211.039252	0.000061	0.608067	0.206019	0.000024
1745	1.7353e+02	-10.5109	-211.091735	-0.000132	-1.317478	-0.446374	-0.000053
1746	1.7363e+02	-10.4837	-211.099809	-0.000020	-0.202689	-0.068673	-0.000008
1747	1.7373e+02	-10.4403	-211.119995	-0.000051	-0.506722	-0.171682	-0.000020
1748	1.7383e+02	-10.3922	-211.107883	0.000030	0.304033	0.103009	0.000012
1749	1.7393e+02	-10.3601	-211.128069	-0.000051	-0.506722	-0.171682	-0.000020
1750	1.7403e+02	-10.3200	-211.136143	-0.000020	-0.202689	-0.068673	-0.000008
1751	1.7413e+02	-10.2719	-211.128069	0.000020	0.202689	0.068673	0.000008
1752	1.7422e+02	-10.2398	-211.115958	0.000030	0.304033	0.103009	0.000012
1753	1.7432e+02	-10.1965	-211.095772	0.000051	0.506722	0.171682	0.000020
1754	1.7442e+02	-10.1564	-211.091735	0.000010	0.101344	0.034336	0.000004
1755	1.7452e+02	-10.1275	-211.067512	0.000061	0.608067	0.206019	0.000024
1756	1.7462e+02	-10.0842	-211.083661	-0.000041	-0.405378	-0.137346	-0.000016
1757	1.7472e+02	-10.0409	-211.039252	0.000111	1.114789	0.377701	0.000045
1758	1.7482e+02	-9.9960	-210.994844	0.000111	1.114789	0.377701	0.000045
1759	1.7492e+02	-9.9639	-210.982732	0.000030	0.304033	0.103009	0.000012
1760	1.7502e+02	-9.9126	-210.926212	0.000142	1.418822	0.480710	0.000057
1761	1.7512e+02	-9.8724	-210.901990	0.000061	0.608067	0.206019	0.000024
1762	1.7522e+02	-9.8468	-210.918138	-0.000041	-0.405378	-0.137346	-0.000016
1763	1.7532e+02	-9.7970	-210.889878	0.000071	0.709411	0.240355	0.000028
1764	1.7542e+02	-9.7473	-210.906027	-0.000041	-0.405378	-0.137346	-0.000016
1765	1.7552e+02	-9.7040	-210.893915	0.000030	0.304033	0.103009	0.000012
1766	1.7562e+02	-9.6735	-210.853544	0.000101	1.013445	0.343364	0.000041
1767	1.7572e+02	-9.6350	-210.821247	0.000081	0.810756	0.274691	0.000032
1768	1.7582e+02	-9.5965	-210.797024	0.000061	0.608067	0.206019	0.000024
1769	1.7592e+02	-9.5596	-210.708207	0.000223	2.229578	0.755401	0.000089
1770	1.7602e+02	-9.5195	-210.671873	0.000091	0.912100	0.309028	0.000037
1771	1.7612e+02	-9.4826	-210.627464	0.000111	1.114789	0.377701	0.000045
1772	1.7621e+02	-9.4425	-210.603241	0.000061	0.608067	0.206019	0.000024
1773	1.7631e+02	-9.4040	-210.534610	0.000172	1.722856	0.583719	0.000069
1774	1.7641e+02	-9.3559	-210.486165	0.000122	1.216133	0.412037	0.000049
1775	1.7651e+02	-9.3190	-210.425608	0.000152	1.520167	0.515046	0.000061
1776	1.7661e+02	-9.2741	-210.393310	0.000081	0.810756	0.274691	0.000032
1777	1.7671e+02	-9.2404	-210.320642	0.000182	1.824200	0.618056	0.000073
1778	1.7681e+02	-9.1987	-210.264122	0.000142	1.418822	0.480710	0.000057
1779	1.7691e+02	-9.1714	-210.199528	0.000162	1.621511	0.549383	0.000065
1780	1.7701e+02	-9.1185	-210.138971	0.000152	1.520167	0.515046	0.000061
1781	1.7711e+02	-9.0848	-210.126859	0.000030	0.304033	0.103009	0.000012
1782	1.7721e+02	-9.0431	-210.054191	0.000182	1.824200	0.618056	0.000073
1783	1.7731e+02	-9.0030	-210.042080	0.000030	0.304033	0.103009	0.000012
1784	1.7741e+02	-8.9580	-209.949225	0.000233	2.330922	0.789738	0.000093
1785	1.7751e+02	-8.9131	-209.892706	0.000142	1.418822	0.480710	0.000057
1786	1.7761e+02	-8.8891	-209.803889	0.000223	2.229578	0.755401	0.000089
1787	1.7771e+02	-8.8297	-209.715072	0.000223	2.229578	0.755401	0.000089
1788	1.7781e+02	-8.7976	-209.626255	0.000223	2.229578	0.755401	0.000089
1789	1.7791e+02	-8.7575	-209.533401	0.000233	2.330922	0.789738	0.000093
1790	1.7801e+02	-8.7238	-209.448621	0.000213	2.128233	0.721065	0.000085
1791	1.7810e+02	-8.6805	-209.359804	0.000223	2.229578	0.755401	0.000089
1792	1.7820e+02	-8.6420	-209.283098	0.000193	1.925545	0.652392	0.000077
1793	1.7830e+02	-8.6051	-209.210430	0.000182	1.824200	0.618056	0.000073
1794	1.7840e+02	-8.5714	-209.109501	0.000253	2.533611	0.858411	0.000101
1795	1.7850e+02	-8.5249	-209.024721	0.000213	2.128233	0.721065	0.000085
1796	1.7860e+02	-8.4768	-208.988387	0.000091	0.912100	0.309028	0.000037
1797	1.7870e+02	-8.4431	-208.826902	0.000405	4.053778	1.373457	0.000162
1798	1.7880e+02	-8.4014	-208.742122	0.000213	2.128233	0.721065	0.000085
1799	1.7890e+02	-8.3613	-208.669453	0.000182	1.824200	0.618056	0.000073
1800	1.7900e+02	-8.3196	-208.572562	0.000243	2.432267	0.824074	0.000097
1801	1.7910e+02	-8.2843	-208.495857	0.000193	1.925545	0.652392	0.000077
1802	1.7920e+02	-8.2442	-208.386854	0.000274	2.736300	0.927084	0.000110
1803	1.7930e+02	-8.2008	-208.269777	0.000294	2.938989	0.995756	0.000118
1804	1.7940e+02	-8.1607	-208.176923	0.000233	2.330922	0.789738	0.000093
1805	1.7950e+02	-8.1270	-208.055809	0.000304	3.040334	1.030093	0.000122
1806	1.7960e+02	-8.0805	-207.902398	0.000385	3.851089	1.304784	0.000154
1807	1.7970e+02	-8.0372	-207.817618	0.000213	2.128233	0.721065	0.000085
1808	1.7980e+02	-8.0131	-207.656132	0.000405	4.053778	1.373457	0.000162
1809	1.7990e+02	-7.9634	-207.567315	0.000223	2.229578	0.755401	0.000089
1810	1.8000e+02	-7.9329	-207.470424	0.000243	2.432267	0.824074	0.000097
1811	1.8009e+02	-7.8992	-207.369496	0.000253	2.533611	0.858411	0.000101
1812	1.8019e+02	-7.8479	-207.244345	0.000314	3.141678	1.064429	0.000126
1813	1.8029e+02	-7.8062	-207.107082	0.000345	3.445711	1.167439	0.000138
1814	1.8039e+02	-7.7661	-207.002116	0.000263	2.634956	0.892747	0.000105
1815	1.8049e+02	-7.7276	-206.889077	0.000284	2.837645	0.961420	0.000114
1816	1.8059e+02	-7.6923	-206.852742	0.000091	0.912100	0.309028	0.000037
1817	1.8069e+02	-7.6474	-206.707405	0.000365	3.648400	1.236111	0.000146
1818	1.8079e+02	-7.6137	-206.566106	0.000355	3.547056	1.201775	0.000142
1819	1.8089e+02	-7.5688	-206.473252	0.000233	2.330922	0.789738	0.000093
1820	1.8099e+02	-7.5319	-206.340026	0.000334	3.344367	1.133102	0.000134
1821	1.8109e+02	-7.4902	-206.190652	0.000375	3.749745	1.270448	0.000150
1822	1.8119e+02	-7.4372	-206.053390	0.000345	3.445711	1.167439	0.000138
1823	1.8129e+02	-7.4019	-205.891904	0.000405	4.053778	1.373457	0.000162
1824	1.8139e+02	-7.3634	-205.742530	0.000375	3.749745	1.270448	0.000150
1825	1.8149e+02	-7.3329	-205.649676	0.000233	2.330922	0.789738	0.000093
1826	1.8159e+02	-7.2896	-205.488190	0.000405	4.053778	1.373457	0.000162
1827	1.8169e+02	-7.2447	-205.318631	0.000426	4.256467	1.442130	0.000170
1828	1.8179e+02	-7.2078	-205.185405	0.000334	3.344367	1.133102	0.000134
1829	1.8189e+02	-7.1693	-205.100625	0.000213	2.128233	0.721065	0.000085
1830	1.8199e+02	-7.1356	-204.914917	0.000466	4.661845	1.579476	0.000187
1831	1.8209e+02	-7.0843	-204.749395	0.000416	4.155123	1.407794	0.000166
1832	1.8218e+02	-7.0442	-204.612132	0.000345	3.445711	1.167439	0.000138
1833	1.8228e+02	-7.0057	-204.563686	0.000122	1.216133	0.412037	0.000049
1834	1.8238e+02	-6.9656	-204.406238	0.000395	3.952434	1.339121	0.000158
1835	1.8248e+02	-6.9239	-204.192270	0.000537	5.371256	1.819831	0.000215
1836	1.8258e+02	-6.8870	-204.067119	0.000314	3.141678	1.064429	0.000126
1837	1.8268e+02	-6.8501	-203.929856	0.000345	3.445711	1.167439	0.000138
1838	1.8278e+02	-6.8116	-203.792593	0.000345	3.445711	1.167439	0.000138
1839	1.8288e+02	-6.7650	-203.606885	0.000466	4.661845	1.579476	0.000187
1840	1.8298e+02	-6.7346	-203.441363	0.000416	4.155123	1.407794	0.000166
1841	1.8308e+02	-6.6897	-203.300063	0.000355	3.547056	1.201775	0.000142
1842	1.8318e+02	-6.6447	-203.110318	0.000476	4.763189	1.613812	0.000191
1843	1.8328e+02	-6.6030	-202.973055	0.000345	3.445711	1.167439	0.000138
1844	1.8338e+02	-6.5741	-202.787347	0.000466	4.661845	1.579476	0.000187
1845	1.8348e+02	-6.5292	-202.646047	0.000355	3.547056	1.201775	0.000142
1846	1.8358e+02	-6.4923	-202.460339	0.000466	4.661845	1.579476	0.000187
1847	1.8368e+02	-6.4538	-202.302890	0.000395	3.952434	1.339121	0.000158
1848	1.8378e+02	-6.4217	-202.157554	0.000365	3.648400	1.236111	0.000146
1849	1.8388e+02	-6.3800	-201.987994	0.000426	4.256467	1.442130	0.000170
1850	1.8398e+02	-6.3255	-201.870917	0.000294	2.938989	0.995756	0.000118
1851	1.8407e+02	-6.2950	-201.693283	0.000446	4.459156	1.510803	0.000179
1852	1.8417e+02	-6.2533	-201.503538	0.000476	4.763189	1.613812	0.000191
1853	1.8427e+02	-6.2132	-201.378386	0.000314	3.141678	1.064429	0.000126
1854	1.8437e+02	-6.1795	-201.208827	0.000426	4.256467	1.442130	0.000170
1855	1.8447e+02	-6.1362	-201.031193	0.000446	4.459156	1.510803	0.000179
1856	1.8457e+02	-6.1009	-200.853559	0.000446	4.459156	1.510803	0.000179
1857	1.8467e+02	-6.0656	-200.696110	0.000395	3.952434	1.339121	0.000158
1858	1.8477e+02	-6.0159	-200.506365	0.000476	4.763189	1.613812	0.000191
1859	1.8487e+02	-5.9726	-200.308545	0.000497	4.965878	1.682485	0.000199
1860	1.8497e+02	-5.9341	-200.106689	0.000507	5.067223	1.716821	0.000203
1861	1.8507e+02	-5.8972	-199.916943	0.000476	4.763189	1.613812	0.000191
1862	1.8517e+02	-5.8490	-199.735272	0.000456	4.560500	1.545139	0.000183
1863	1.8527e+02	-5.8186	-199.553601	0.000456	4.560500	1.545139	0.000183
1864	1.8537e+02	-5.7736	-199.367893	0.000466	4.661845	1.579476	0.000187
1865	1.8547e+02	-5.7432	-199.210444	0.000395	3.952434	1.339121	0.000158
1866	1.8557e+02	-5.6902	-199.036848	0.000436	4.357811	1.476466	0.000174
1867	1.8567e+02	-5.6501	-198.903622	0.000334	3.344367	1.133102	0.000134
1868	1.8577e+02	-5.6180	-198.677543	0.000568	5.675289	1.922840	0.000227
1869	1.8587e+02	-5.5811	-198.536243	0.000355	3.547056	1.201775	0.000142
1870	1.8597e+02	-5.5314	-198.322275	0.000537	5.371256	1.819831	0.000215
1871	1.8606e+02	-5.4977	-198.140603	0.000456	4.560500	1.545139	0.000183
1872	1.8616e+02	-5.4576	-197.950858	0.000476	4.763189	1.613812	0.000191
1873	1.8626e+02	-5.4239	-197.740927	0.000527	5.269911	1.785494	0.000211
1874	1.8636e+02	-5.3838	-197.575404	0.000416	4.155123	1.407794	0.000166
1875	1.8646e+02	-5.3421	-197.365473	0.000527	5.269911	1.785494	0.000211
1876	1.8656e+02	-5.3020	-197.135357	0.000578	5.776634	1.957176	0.000231
1877	1.8666e+02	-5.2651	-196.937537	0.000497	4.965878	1.682485	0.000199
1878	1.8676e+02	-5.2218	-196.695309	0.000608	6.080667	2.060186	0.000243
1879	1.8686e+02	-5.1881	-196.525749	0.000426	4.256467	1.442130	0.000170
1880	1.8696e+02	-5.1368	-196.303707	0.000557	5.573945	1.888504	0.000223
1881	1.8706e+02	-5.1063	-196.130110	0.000436	4.357811	1.476466	0.000174
1882	1.8716e+02	-5.0598	-195.944402	0.000466	4.661845	1.579476	0.000187
1883	1.8726e+02	-5.0132	-195.718322	0.000568	5.675289	1.922840	0.000227
1884	1.8736e+02	-4.9779	-195.548762	0.000426	4.256467	1.442130	0.000170
1885	1.8746e+02	-4.9426	-195.338831	0.000527	5.269911	1.785494	0.000211
1886	1.8756e+02	-4.8913	-195.124863	0.000537	5.371256	1.819831	0.000215
1887	1.8766e+02	-4.8576	-194.910895	0.000537	5.371256	1.819831	0.000215
1888	1.8776e+02	-4.8127	-194.709038	0.000507	5.067223	1.716821	0.000203
1889	1.8786e+02	-4.7790	-194.515256	0.000486	4.864534	1.648149	0.000195
1890	1.8796e+02	-4.7389	-194.309362	0.000517	5.168567	1.751158	0.000207
1891	1.8806e+02	-4.7052	-194.119616	0.000476	4.763189	1.613812	0.000191
1892	1.8815e+02	-4.6603	-193.901611	0.000547	5.472600	1.854167	0.000219
1893	1.8825e+02	-4.6202	-193.715903	0.000466	4.661845	1.579476	0.000187
1894	1.8835e+02	-4.5753	-193.501934	0.000537	5.371256	1.819831	0.000215
1895	1.8845e+02	-4.5352	-193.255669	0.000618	6.182012	2.094522	0.000248
1896	1.8855e+02	-4.4983	-192.985181	0.000679	6.790078	2.300541	0.000272
1897	1.8865e+02	-4.4614	-192.759102	0.000568	5.675289	1.922840	0.000227
1898	1.8875e+02	-4.4229	-192.524948	0.000588	5.877978	1.991513	0.000235
1899	1.8885e+02	-4.3860	-192.286757	0.000598	5.979323	2.025849	0.000239
1900	1.8895e+02	-4.3443	-192.129308	0.000395	3.952434	1.339121	0.000158
1901	1.8905e+02	-4.2993	-191.866895	0.000659	6.587389	2.231868	0.000264
1902	1.8915e+02	-4.2608	-191.665038	0.000507	5.067223	1.716821	0.000203
1903	1.8925e+02	-4.2095	-191.475292	0.000476	4.763189	1.613812	0.000191
1904	1.8935e+02	-4.1806	-191.220953	0.000638	6.384700	2.163195	0.000256
1905	1.8945e+02	-4.1453	-191.039282	0.000456	4.560500	1.545139	0.000183
1906	1.8955e+02	-4.1068	-190.793016	0.000618	6.182012	2.094522	0.000248
1907	1.8965e+02	-4.0651	-190.595197	0.000497	4.965878	1.682485	0.000199
1908	1.8975e+02	-4.0202	-190.361043	0.000588	5.877978	1.991513	0.000235
1909	1.8985e+02	-3.9865	-190.147075	0.000537	5.371256	1.819831	0.000215
1910	1.8995e+02	-3.9368	-189.876587	0.000679	6.790078	2.300541	0.000272
1911	1.9004e+02	-3.9015	-189.662618	0.000537	5.371256	1.819831	0.000215
1912	1.9014e+02	-3.8598	-189.363870	0.000750	7.499489	2.540896	0.000300
1913	1.9024e+02	-3.8277	-189.137791	0.000568	5.675289	1.922840	0.000227
1914	1.9034e+02	-3.7860	-188.915748	0.000557	5.573945	1.888504	0.000223
1915	1.9044e+02	-3.7443	-188.661409	0.000638	6.384700	2.163195	0.000256
1916	1.9054e+02	-3.7042	-188.427255	0.000588	5.877978	1.991513	0.000235
1917	1.9064e+02	-3.6705	-188.229435	0.000497	4.965878	1.682485	0.000199
1918	1.9074e+02	-3.6288	-187.954910	0.000689	6.891423	2.334877	0.000276
1919	1.9084e+02	-3.5887	-187.724793	0.000578	5.776634	1.957176	0.000231
1920	1.9094e+02	-3.5357	-187.490639	0.000588	5.877978	1.991513	0.000235
1921	1.9104e+02	-3.5020	-187.292820	0.000497	4.965878	1.682485	0.000199
1922	1.9114e+02	-3.4587	-187.058666	0.000588	5.877978	1.991513	0.000235
1923	1.9124e+02	-3.4138	-186.804326	0.000638	6.384700	2.163195	0.000256
1924	1.9134e+02	-3.3769	-186.545950	0.000649	6.486045	2.197532	0.000260
1925	1.9144e+02	-3.3528	-186.336019	0.000527	5.269911	1.785494	0.000211
1926	1.9154e+02	-3.3015	-186.077642	0.000649	6.486045	2.197532	0.000260
1927	1.9164e+02	-3.2550	-185.823302	0.000638	6.384700	2.163195	0.000256
1928	1.9174e+02	-3.2213	-185.597223	0.000568	5.675289	1.922840	0.000227
1929	1.9184e+02	-3.1796	-185.286363	0.000780	7.803523	2.643905	0.000312
1930	1.9194e+02	-3.1491	-185.076432	0.000527	5.269911	1.785494	0.000211
1931	1.9203e+02	-3.1138	-184.749424	0.000821	8.208901	2.781251	0.000329
1932	1.9213e+02	-3.0657	-184.543530	0.000517	5.168567	1.751158	0.000207
1933	1.9223e+02	-3.0288	-184.264968	0.000699	6.992767	2.369214	0.000280
1934	1.9233e+02	-2.9903	-184.018703	0.000618	6.182012	2.094522	0.000248
1935	1.9243e+02	-2.9502	-183.784549	0.000588	5.877978	1.991513	0.000235
1936	1.9253e+02	-2.9197	-183.461578	0.000811	8.107556	2.746914	0.000325
1937	1.9263e+02	-2.8620	-183.219350	0.000608	6.080667	2.060186	0.000243
1938	1.9273e+02	-2.8315	-182.985196	0.000588	5.877978	1.991513	0.000235
1939	1.9283e+02	-2.7833	-182.730856	0.000638	6.384700	2.163195	0.000256
1940	1.9293e+02	-2.7497	-182.508814	0.000557	5.573945	1.888504	0.000223
1941	1.9303e+02	-2.7144	-182.266586	0.000608	6.080667	2.060186	0.000243
1942	1.9313e+02	-2.6694	-182.004172	0.000659	6.587389	2.231868	0.000264
1943	1.9323e+02	-2.6277	-181.705424	0.000750	7.499489	2.540896	0.000300
1944	1.9333e+02	-2.5908	-181.438973	0.000669	6.688734	2.266204	0.000268
1945	1.9343e+02	-2.5539	-181.212893	0.000568	5.675289	1.922840	0.000227
1946	1.9353e+02	-2.5090	-180.893960	0.000801	8.006212	2.712578	0.000321
1947	1.9363e+02	-2.4721	-180.566952	0.000821	8.208901	2.781251	0.000329
1948	1.9373e+02	-2.4304	-180.344909	0.000557	5.573945	1.888504	0.000223
1949	1.9383e+02	-2.3935	-180.062310	0.000709	7.094112	2.403550	0.000284
1950	1.9393e+02	-2.3438	-179.783747	0.000699	6.992767	2.369214	0.000280
1951	1.9403e+02	-2.3181	-179.517296	0.000669	6.688734	2.266204	0.000268
1952	1.9412e+02	-2.2812	-179.214511	0.000760	7.600834	2.575232	0.000304
1953	1.9422e+02	-2.2315	-178.980357	0.000588	5.877978	1.991513	0.000235
1954	1.9432e+02	-2.1994	-178.738129	0.000608	6.080667	2.060186	0.000243
1955	1.9442e+02	-2.1433	-178.419195	0.000801	8.006212	2.712578	0.000321
1956	1.9452e+02	-2.1144	-178.217339	0.000507	5.067223	1.716821	0.000203
1957	1.9462e+02	-2.0679	-177.914553	0.000760	7.600834	2.575232	0.000304
1958	1.9472e+02	-2.0294	-177.644065	0.000679	6.790078	2.300541	0.000272
1959	1.9482e+02	-1.9909	-177.413949	0.000578	5.776634	1.957176	0.000231
1960	1.9492e+02	-1.9475	-177.107126	0.000770	7.702178	2.609569	0.000308
1961	1.9502e+02	-1.9058	-176.820490	0.000720	7.195456	2.437887	0.000288
1962	1.9512e+02	-1.8641	-176.554039	0.000669	6.688734	2.266204	0.000268
1963	1.9522e+02	-1.8272	-176.271439	0.000709	7.094112	2.403550	0.000284
1964	1.9532e+02	-1.7887	-175.964617	0.000770	7.702178	2.609569	0.000308
1965	1.9542e+02	-1.7550	-175.625497	0.000851	8.512934	2.884260	0.000341
1966	1.9552e+02	-1.7197	-175.419604	0.000517	5.168567	1.751158	0.000207
1967	1.9562e+02	-1.6716	-175.104707	0.000790	7.904867	2.678242	0.000316
1968	1.9572e+02	-1.6299	-174.830182	0.000689	6.891423	2.334877	0.000276
1969	1.9582e+02	-1.5866	-174.555656	0.000689	6.891423	2.334877	0.000276
1970	1.9592e+02	-1.5529	-174.269020	0.000720	7.195456	2.437887	0.000288
1971	1.9601e+02	-1.5128	-173.994495	0.000689	6.891423	2.334877	0.000276
1972	1.9611e+02	-1.4663	-173.732081	0.000659	6.587389	2.231868	0.000264
1973	1.9621e+02	-1.4406	-173.461593	0.000679	6.790078	2.300541	0.000272
1974	1.9631e+02	-1.3796	-173.239550	0.000557	5.573945	1.888504	0.000223
1975	1.9641e+02	-1.3524	-172.960988	0.000699	6.992767	2.369214	0.000280
1976	1.9651e+02	-1.3235	-172.642054	0.000801	8.006212	2.712578	0.000321
1977	1.9661e+02	-1.2770	-172.387715	0.000638	6.384700	2.163195	0.000256
1978	1.9671e+02	-1.2288	-172.093004	0.000740	7.398145	2.506559	0.000296
1979	1.9681e+02	-1.2000	-171.798293	0.000740	7.398145	2.506559	0.000296
1980	1.9691e+02	-1.1390	-171.483396	0.000790	7.904867	2.678242	0.000316
1981	1.9701e+02	-1.1198	-171.212908	0.000679	6.790078	2.300541	0.000272
1982	1.9711e+02	-1.0764	-170.889937	0.000811	8.107556	2.746914	0.000325
1983	1.9721e+02	-1.0331	-170.627523	0.000659	6.587389	2.231868	0.000264
1984	1.9731e+02	-0.9898	-170.320701	0.000770	7.702178	2.609569	0.000308
1985	1.9741e+02	-0.9593	-170.042139	0.000699	6.992767	2.369214	0.000280
1986	1.9751e+02	-0.9128	-169.767613	0.000689	6.891423	2.334877	0.000276
1987	1.9761e+02	-0.8759	-169.464828	0.000760	7.600834	2.575232	0.000304
1988	1.9771e+02	-0.8358	-169.202414	0.000659	6.587389	2.231868	0.000264
1989	1.9781e+02	-0.7989	-168.895592	0.000770	7.702178	2.609569	0.000308
1990	1.9791e+02	-0.7556	-168.657401	0.000598	5.979323	2.025849	0.000239
1991	1.9800e+02	-0.7171	-168.362690	0.000740	7.398145	2.506559	0.000296
1992	1.9810e+02	-0.6882	-168.084128	0.000699	6.992767	2.369214	0.000280
1993	1.9820e+02	-0.6289	-167.785380	0.000750	7.499489	2.540896	0.000300
1994	1.9830e+02	-0.6016	-167.498743	0.000720	7.195456	2.437887	0.000288
1995	1.9840e+02	-0.5454	-167.236329	0.000659	6.587389	2.231868	0.000264
1996	1.9850e+02	-0.5150	-166.961804	0.000689	6.891423	2.334877	0.000276
1997	1.9860e+02	-0.4749	-166.642870	0.000801	8.006212	2.712578	0.000321
1998	1.9870e+02	-0.4396	-166.287602	0.000892	8.918312	3.021606	0.000357
1999	1.9880e+02	-0.3978	-166.037300	0.000628	6.283356	2.128859	0.000252
2000	1.9890e+02	-0.3545	-165.738552	0.000750	7.499489	2.540896	0.000300
2001	1.9900e+02	-0.3208	-165.451915	0.000720	7.195456	2.437887	0.000288
2002	1.9910e+02	-0.2727	-165.173353	0.000699	6.992767	2.369214	0.000280
2003	1.9920e+02	-0.2406	-164.834234	0.000851	8.512934	2.884260	0.000341
2004	1.9930e+02	-0.2086	-164.531448	0.000760	7.600834	2.575232	0.000304
2005	1.9940e+02	-0.1540	-164.236738	0.000740	7.398145	2.506559	0.000296
2006	1.9950e+02	-0.1187	-164.018732	0.000547	5.472600	1.854167	0.000219
2007	1.9960e+02	-0.0770	-163.732096	0.000720	7.195456	2.437887	0.000288
2008	1.9970e+02	-0.0385	-163.425273	0.000770	7.702178	2.609569	0.000308
2009	1.9980e+02	0.0000	-163.191119	0.000770	7.702178	2.609569	0.000235

Center data before PMax,+/-Pr and +/-Vc Calc.

PMax (uC/cm2):	2.11e+02
Pr (uC/cm2):	1.10e+02
-Pr (uC/cm2):	-1.63e+02
PLoss (uC/cm2):	-2.43e+02
-Vc:	-1.36e+01
C (Max-Eff) (nF):	1.05e+00
K (Eff):	3.57e+03
Vert. (+/-Pr) Shift (uC/cm2):	-2.68e+01
Offset (uC/cm2):	-8.02e+01

A (Loop Area - uC/cm2·Volts):	-4.34e+00



Hysteresis Version: 5.48.1 - Radiant Technologies, Inc., 1999 - 9/12/24

