»»»»»»»»»»»»»»»»»»»»»»»»»»»»»»»»»»»» Hysteresis ««««««««««««««««««««««««««««««««««««
»»»  Executed Version:	5.48.1
»»»  Vision Version:	5.48.4 (R)
»»»  Vision Compiled:	9/18/24
»»»  Driver Version:	5.47.0
»»»  Windows Version:	Windows 8 or 8.1
»»»  Processor Information:	x86 (AMD or Intel) - 32 Processors
»»»  Tester Name:	PMF21124-494 (100V)
»»»  Tester S/N:	PMF21124-494
»»»  Internal Amp Type:	100V RevK 270k
»»»  Internal Amp S/N:	iAB2-596/K     
»»»  Execution Count:	1
»»»»»»»»»»»»»»»»»»»»»»»»»»»»»»»»»»»»»»»»»»««««««««««««««««««««««««««««««««««««««««««

Stored:	6/5/2025 - 11:59:33
Configured:	06/05/25 10:43:40 AM
Executed:	06/05/25 11:58:15 AM

»»»»»»»»»»»»»»»»»»»»»»»»»»»»»»»»»»» Sample Info ««««««««««««««««««««««««««««««««««««
Sample Name:	
Lot Name:	
Wafer Name:	
Die Row/Column:	0/0
Capacitor Number:	0
Sample Area (cm2):	1.00e-04
Sample Thickness (microns):	3.00e-01

Amplifier:	Internal

»»»»»»»»»»»»»»»»»»»»»»»»»»»»»»»»»»» Tester Info «««««««««««««««««««««««««««««««««««
Tester Name:	PMF21124-494 (100V)
Tester Serial Number:	PMF21124-494
Return Signal Amp. Level:	0.19 [Index: 3]

»»»»»»»»»»»»»»»»»»»»»»»»»»»»»»»» Hysteresis Info ««««««««««««««««««««««««««««««««««
Task Name:	Hyst-187
Volts:	20.00
Field:	666.67 (kV/cm)
DCBias:	0.00
DCField:	0.00 (kV/cm)
Hysteresis Period (ms):	1.00e+00
Preset:	Enabled
Preset Delay (ms):	1.00e+03
Profile:	Standard Bipolar

»»»»»»»»»»»»»»»»»»»»»»»»»»»»»»»»»»»»»» Data «««««««««««««««««««««««««««««««««««««««
Points:	2001

Valid Data

Point	Time (ms)	Drive Voltage	Measured Polarization (uC/cm2)	Capacitance (uF)	Normalized Capacitance (uF/cm2)	Dielectric Constant	Instantaneous Current (mA)
   1	0.0000e+00	0.0112	-2.034698	0.001182	11.819822	4.004664	0.094375
   2	5.0000e-04	0.0241	-1.562826	0.001182	11.819822	4.004664	0.094375
   3	1.0000e-03	0.0529	-1.615256	-0.000131	-1.313314	-0.444963	-0.010486
   4	1.5000e-03	0.0914	-1.655587	-0.000101	-1.010241	-0.342279	-0.008066
   5	2.0000e-03	0.1315	-1.304707	0.000879	8.789099	2.977827	0.070176
   6	2.5000e-03	0.1684	-1.018357	0.000717	7.172713	2.430181	0.057270
   7	3.0000e-03	0.2021	-0.881232	0.000343	3.434820	1.163749	0.027425
   8	3.5000e-03	0.2438	-0.574717	0.000768	7.677833	2.601320	0.061303
   9	4.0000e-03	0.2839	-0.397260	0.000445	4.445061	1.506028	0.035491
  10	4.5000e-03	0.3241	-0.042348	0.000889	8.890123	3.012055	0.070983
  11	5.0000e-03	0.3529	0.102844	0.000364	3.636868	1.232204	0.029038
  12	5.5000e-03	0.4027	0.522286	0.001051	10.506509	3.559701	0.083888
  13	6.0000e-03	0.4460	0.832835	0.000778	7.778857	2.635548	0.062110
  14	6.5000e-03	0.4877	1.018357	0.000465	4.647110	1.574483	0.037105
  15	7.0000e-03	0.5182	1.240178	0.000556	5.556327	1.882534	0.044364
  16	7.5000e-03	0.5695	1.409568	0.000424	4.243013	1.437572	0.033878
  17	8.0000e-03	0.6064	1.708017	0.000748	7.475785	2.532865	0.059690
  18	8.5000e-03	0.6513	2.066963	0.000899	8.991147	3.046283	0.071789
  19	9.0000e-03	0.6834	2.296850	0.000576	5.758375	1.950990	0.045977
  20	9.5000e-03	0.7363	2.514637	0.000546	5.455303	1.848307	0.043557
  21	1.0000e-02	0.7572	2.825186	0.000778	7.778857	2.635548	0.062110
  22	1.0500e-02	0.8021	3.284959	0.001152	11.516750	3.901980	0.091955
  23	1.1000e-02	0.8535	3.462415	0.000445	4.445061	1.506028	0.035491
  24	1.1500e-02	0.8807	3.720533	0.000647	6.465544	2.190586	0.051624
  25	1.2000e-02	0.9240	3.893957	0.000434	4.344037	1.471800	0.034685
  26	1.2500e-02	0.9657	4.212571	0.000798	7.980906	2.704004	0.063723
  27	1.3000e-02	1.0026	4.385995	0.000434	4.344037	1.471800	0.034685
  28	1.3500e-02	1.0379	4.506988	0.000303	3.030724	1.026837	0.024199
  29	1.4000e-02	1.0829	4.946595	0.001101	11.011629	3.730841	0.087922
  30	1.4500e-02	1.1198	4.978860	0.000081	0.808193	0.273823	0.006453
  31	1.5000e-02	1.1599	5.325707	0.000869	8.688074	2.943599	0.069369
  32	1.5500e-02	1.2048	5.450733	0.000313	3.131748	1.061065	0.025005
  33	1.6000e-02	1.2561	5.781447	0.000828	8.283978	2.806688	0.066143
  34	1.6500e-02	1.2770	6.285584	0.001263	12.628015	4.278487	0.100827
  35	1.7000e-02	1.3139	6.600166	0.000788	7.879881	2.669776	0.062916
  36	1.7500e-02	1.3636	6.672762	0.000182	1.818434	0.616102	0.014519
  37	1.8000e-02	1.3941	7.023641	0.000879	8.789099	2.977827	0.070176
  38	1.8500e-02	1.4374	7.443083	0.001051	10.506509	3.559701	0.083888
  39	1.9000e-02	1.4871	7.612474	0.000424	4.243013	1.437572	0.033878
  40	1.9500e-02	1.5304	7.729433	0.000293	2.929700	0.992609	0.023392
  41	2.0000e-02	1.5657	8.096445	0.000919	9.193195	3.114739	0.073402
  42	2.0500e-02	1.6042	8.572351	0.001192	11.920846	4.038892	0.095181
  43	2.1000e-02	1.6524	8.737708	0.000414	4.141989	1.403344	0.033071
  44	2.1500e-02	1.6796	8.991793	0.000636	6.364520	2.156358	0.050817
  45	2.2000e-02	1.7262	9.334607	0.000859	8.587050	2.909371	0.068563
  46	2.2500e-02	1.7711	9.532229	0.000495	4.950182	1.677167	0.039524
  47	2.3000e-02	1.8048	9.774214	0.000606	6.061447	2.053674	0.048397
  48	2.3500e-02	1.8481	10.000068	0.000566	5.657351	1.916762	0.045171
  49	2.4000e-02	1.8930	10.217855	0.000546	5.455303	1.848307	0.043557
  50	2.4500e-02	1.9235	10.689728	0.001182	11.819822	4.004664	0.094375
  51	2.5000e-02	1.9684	11.020442	0.000828	8.283978	2.806688	0.066143
  52	2.5500e-02	2.0053	11.262428	0.000606	6.061447	2.053674	0.048397
  53	2.6000e-02	2.0502	11.322924	0.000152	1.515362	0.513418	0.012099
  54	2.6500e-02	2.0887	11.484248	0.000404	4.040965	1.369116	0.032265
  55	2.7000e-02	2.1288	11.693969	0.000525	5.253254	1.779851	0.041944
  56	2.7500e-02	2.1673	12.230372	0.001344	13.436208	4.552311	0.107280
  57	2.8000e-02	2.2138	12.448159	0.000546	5.455303	1.848307	0.043557
  58	2.8500e-02	2.2411	12.718376	0.000677	6.768616	2.293269	0.054044
  59	2.9000e-02	2.2892	12.932131	0.000535	5.354278	1.814079	0.042751
  60	2.9500e-02	2.3245	13.395937	0.001162	11.617774	3.936208	0.092761
  61	3.0000e-02	2.3582	13.674221	0.000697	6.970664	2.361725	0.055657
  62	3.0500e-02	2.4080	13.779081	0.000263	2.626627	0.889925	0.020972
  63	3.1000e-02	2.4513	14.093663	0.000788	7.879881	2.669776	0.062916
  64	3.1500e-02	2.4785	14.424377	0.000828	8.283978	2.806688	0.066143
  65	3.2000e-02	2.5202	14.492940	0.000172	1.717410	0.581874	0.013713
  66	3.2500e-02	2.5652	14.742992	0.000626	6.263496	2.122130	0.050010
  67	3.3000e-02	2.6021	15.178567	0.001091	10.910605	3.696613	0.087115
  68	3.3500e-02	2.6390	15.384255	0.000515	5.152230	1.745623	0.041138
  69	3.4000e-02	2.6823	15.743200	0.000899	8.991147	3.046283	0.071789
  70	3.4500e-02	2.7240	15.948888	0.000515	5.152230	1.745623	0.041138
  71	3.5000e-02	2.7625	16.307834	0.000899	8.991147	3.046283	0.071789
  72	3.5500e-02	2.8010	16.457059	0.000374	3.737892	1.266432	0.029845
  73	3.6000e-02	2.8427	16.699045	0.000606	6.061447	2.053674	0.048397
  74	3.6500e-02	2.8796	17.005560	0.000768	7.677833	2.601320	0.061303
  75	3.7000e-02	2.9213	17.445168	0.001101	11.011629	3.730841	0.087922
  76	3.7500e-02	2.9582	17.699253	0.000636	6.364520	2.156358	0.050817
  77	3.8000e-02	3.0063	17.751683	0.000131	1.313314	0.444963	0.010486
  78	3.8500e-02	3.0496	17.993669	0.000606	6.061447	2.053674	0.048397
  79	3.9000e-02	3.0865	18.336483	0.000859	8.587050	2.909371	0.068563
  80	3.9500e-02	3.1218	18.590568	0.000636	6.364520	2.156358	0.050817
  81	4.0000e-02	3.1587	18.820455	0.000576	5.758375	1.950990	0.045977
  82	4.0500e-02	3.2069	19.429453	0.001525	15.254642	5.168413	0.121800
  83	4.1000e-02	3.2438	19.469784	0.000101	1.010241	0.342279	0.008066
  84	4.1500e-02	3.2871	19.598843	0.000323	3.232772	1.095293	0.025812
  85	4.2000e-02	3.3272	19.945689	0.000869	8.688074	2.943599	0.069369
  86	4.2500e-02	3.3753	20.268337	0.000808	8.081930	2.738232	0.064530
  87	4.3000e-02	3.4074	20.550654	0.000707	7.071688	2.395953	0.056463
  88	4.3500e-02	3.4411	20.788607	0.000596	5.960423	2.019446	0.047591
  89	4.4000e-02	3.4892	20.909600	0.000303	3.030724	1.026837	0.024199
  90	4.4500e-02	3.5277	21.385505	0.001192	11.920846	4.038892	0.095181
  91	4.5000e-02	3.5582	21.712186	0.000818	8.182954	2.772460	0.065336
  92	4.5500e-02	3.5983	22.095331	0.000960	9.597291	3.251650	0.076629
  93	4.6000e-02	3.6400	22.296986	0.000505	5.051206	1.711395	0.040331
  94	4.6500e-02	3.6801	22.692229	0.000990	9.900364	3.354334	0.079049
  95	4.7000e-02	3.7282	22.744660	0.000131	1.313314	0.444963	0.010486
  96	4.7500e-02	3.7619	22.978579	0.000586	5.859399	1.985218	0.046784
  97	4.8000e-02	3.8084	23.164102	0.000465	4.647110	1.574483	0.037105
  98	4.8500e-02	3.8437	23.627908	0.001162	11.617774	3.936208	0.092761
  99	4.9000e-02	3.8887	23.938457	0.000778	7.778857	2.635548	0.062110
 100	4.9500e-02	3.9240	24.128012	0.000475	4.748134	1.608711	0.037911
 101	5.0000e-02	3.9592	24.507124	0.000950	9.496267	3.217422	0.075822
 102	5.0500e-02	4.0074	24.765242	0.000647	6.465544	2.190586	0.051624
 103	5.1000e-02	4.0427	25.059658	0.000737	7.374761	2.498637	0.058883
 104	5.1500e-02	4.0860	25.329876	0.000677	6.768616	2.293269	0.054044
 105	5.2000e-02	4.1325	25.475067	0.000364	3.636868	1.232204	0.029038
 106	5.2500e-02	4.1710	25.620259	0.000364	3.636868	1.232204	0.029038
 107	5.3000e-02	4.1999	25.789649	0.000424	4.243013	1.437572	0.033878
 108	5.3500e-02	4.2400	26.172793	0.000960	9.597291	3.251650	0.076629
 109	5.4000e-02	4.2881	26.479309	0.000768	7.677833	2.601320	0.061303
 110	5.4500e-02	4.3250	26.693063	0.000535	5.354278	1.814079	0.042751
 111	5.5000e-02	4.3731	26.999579	0.000768	7.677833	2.601320	0.061303
 112	5.5500e-02	4.3988	27.346425	0.000869	8.688074	2.943599	0.069369
 113	5.6000e-02	4.4485	27.588411	0.000606	6.061447	2.053674	0.048397
 114	5.6500e-02	4.4919	27.790066	0.000505	5.051206	1.711395	0.040331
 115	5.7000e-02	4.5287	27.878794	0.000222	2.222531	0.753014	0.017746
 116	5.7500e-02	4.5640	28.499891	0.001556	15.557715	5.271096	0.124219
 117	5.8000e-02	4.6074	28.713645	0.000535	5.354278	1.814079	0.042751
 118	5.8500e-02	4.6426	28.999995	0.000717	7.172713	2.430181	0.057270
 119	5.9000e-02	4.6908	29.459769	0.001152	11.516750	3.901980	0.091955
 120	5.9500e-02	4.7309	29.721920	0.000657	6.566568	2.224813	0.052430
 121	6.0000e-02	4.7694	29.762251	0.000101	1.010241	0.342279	0.008066
 122	6.0500e-02	4.8047	29.988105	0.000566	5.657351	1.916762	0.045171
 123	6.1000e-02	4.8368	30.153462	0.000414	4.141989	1.403344	0.033071
 124	6.1500e-02	4.8737	30.480143	0.000818	8.182954	2.772460	0.065336
 125	6.2000e-02	4.9170	30.867320	0.000970	9.698316	3.285878	0.077435
 126	6.2500e-02	4.9699	30.972181	0.000263	2.626627	0.889925	0.020972
 127	6.3000e-02	5.0068	31.214167	0.000606	6.061447	2.053674	0.048397
 128	6.3500e-02	5.0469	31.839297	0.001566	15.658739	5.305324	0.125026
 129	6.4000e-02	5.0854	31.984488	0.000364	3.636868	1.232204	0.029038
 130	6.4500e-02	5.1191	32.246640	0.000657	6.566568	2.224813	0.052430
 131	6.5000e-02	5.1704	32.516857	0.000677	6.768616	2.293269	0.054044
 132	6.5500e-02	5.2009	32.718512	0.000505	5.051206	1.711395	0.040331
 133	6.6000e-02	5.2474	33.016962	0.000748	7.475785	2.532865	0.059690
 134	6.6500e-02	5.2859	33.367841	0.000879	8.789099	2.977827	0.070176
 135	6.7000e-02	5.3180	33.646125	0.000697	6.970664	2.361725	0.055657
 136	6.7500e-02	5.3710	33.839714	0.000485	4.849158	1.642939	0.038718
 137	6.8000e-02	5.4159	34.033303	0.000485	4.849158	1.642939	0.038718
 138	6.8500e-02	5.4512	34.319653	0.000717	7.172713	2.430181	0.057270
 139	6.9000e-02	5.4801	34.650367	0.000828	8.283978	2.806688	0.066143
 140	6.9500e-02	5.5362	35.065776	0.001041	10.405484	3.525474	0.083082
 141	7.0000e-02	5.5667	35.219034	0.000384	3.838917	1.300660	0.030652
 142	7.0500e-02	5.6084	35.533615	0.000788	7.879881	2.669776	0.062916
 143	7.1000e-02	5.6485	35.779634	0.000616	6.162471	2.087902	0.049204
 144	7.1500e-02	5.6838	36.150679	0.000929	9.294219	3.148967	0.074209
 145	7.2000e-02	5.7271	36.449129	0.000748	7.475785	2.532865	0.059690
 146	7.2500e-02	5.7656	36.699181	0.000626	6.263496	2.122130	0.050010
 147	7.3000e-02	5.7993	36.812107	0.000283	2.828675	0.958381	0.022585
 148	7.3500e-02	5.8538	37.046027	0.000586	5.859399	1.985218	0.046784
 149	7.4000e-02	5.8859	37.404973	0.000899	8.991147	3.046283	0.071789
 150	7.4500e-02	5.9373	37.808283	0.001010	10.102412	3.422790	0.080662
 151	7.5000e-02	5.9694	38.114798	0.000768	7.677833	2.601320	0.061303
 152	7.5500e-02	6.0127	37.973640	-0.000354	-3.535844	-1.197976	-0.028232
 153	7.6000e-02	6.0480	38.255957	0.000707	7.071688	2.395953	0.056463
 154	7.6500e-02	6.0881	38.594737	0.000849	8.486026	2.875143	0.067756
 155	7.7000e-02	6.1121	39.078709	0.001212	12.122895	4.107348	0.096794
 156	7.7500e-02	6.1570	39.336827	0.000647	6.465544	2.190586	0.051624
 157	7.8000e-02	6.2052	39.623177	0.000717	7.172713	2.430181	0.057270
 158	7.8500e-02	6.2437	39.857097	0.000586	5.859399	1.985218	0.046784
 159	7.9000e-02	6.2870	40.143447	0.000717	7.172713	2.430181	0.057270
 160	7.9500e-02	6.3207	40.345102	0.000505	5.051206	1.711395	0.040331
 161	8.0000e-02	6.3704	40.691948	0.000869	8.688074	2.943599	0.069369
 162	8.0500e-02	6.4137	41.046861	0.000889	8.890123	3.012055	0.070983
 163	8.1000e-02	6.4506	41.434038	0.000970	9.698316	3.285878	0.077435
 164	8.1500e-02	6.4891	41.542932	0.000273	2.727651	0.924153	0.021779
 165	8.2000e-02	6.5292	41.639727	0.000242	2.424579	0.821470	0.019359
 166	8.2500e-02	6.5629	41.788951	0.000374	3.737892	1.266432	0.029845
 167	8.3000e-02	6.6143	42.220493	0.001081	10.809581	3.662385	0.086308
 168	8.3500e-02	6.6431	42.442313	0.000556	5.556327	1.882534	0.044364
 169	8.4000e-02	6.6848	42.813358	0.000929	9.294219	3.148967	0.074209
 170	8.4500e-02	6.7185	43.015013	0.000505	5.051206	1.711395	0.040331
 171	8.5000e-02	6.7699	43.426389	0.001030	10.304460	3.491246	0.082275
 172	8.5500e-02	6.8148	43.563515	0.000343	3.434820	1.163749	0.027425
 173	8.6000e-02	6.8437	43.773236	0.000525	5.253254	1.779851	0.041944
 174	8.6500e-02	6.8806	44.237042	0.001162	11.617774	3.936208	0.092761
 175	8.7000e-02	6.9255	44.495160	0.000647	6.465544	2.190586	0.051624
 176	8.7500e-02	6.9656	44.725047	0.000576	5.758375	1.950990	0.045977
 177	8.8000e-02	6.9993	45.063827	0.000849	8.486026	2.875143	0.067756
 178	8.8500e-02	7.0506	45.063827	0.000000	0.000000	0.000000	0.000000
 179	8.9000e-02	7.0827	45.245317	0.000455	4.546085	1.540255	0.036298
 180	8.9500e-02	7.1196	45.713156	0.001172	11.718798	3.970436	0.093568
 181	9.0000e-02	7.1613	46.076135	0.000909	9.092171	3.080511	0.072596
 182	9.0500e-02	7.2046	46.350386	0.000687	6.869640	2.327497	0.054850
 183	9.1000e-02	7.2431	46.515743	0.000414	4.141989	1.403344	0.033071
 184	9.1500e-02	7.2752	47.027946	0.001283	12.830063	4.346943	0.102441
 185	9.2000e-02	7.3313	46.838391	-0.000475	-4.748134	-1.608711	-0.037911
 186	9.2500e-02	7.3698	47.152972	0.000788	7.879881	2.669776	0.062916
 187	9.3000e-02	7.4035	47.677275	0.001313	13.133136	4.449627	0.104861
 188	9.3500e-02	7.4372	47.838599	0.000404	4.040965	1.369116	0.032265
 189	9.4000e-02	7.4902	48.104784	0.000667	6.667592	2.259041	0.053237
 190	9.4500e-02	7.5222	48.169313	0.000162	1.616386	0.547646	0.012906
 191	9.5000e-02	7.5688	48.479862	0.000778	7.778857	2.635548	0.062110
 192	9.5500e-02	7.6057	48.830741	0.000879	8.789099	2.977827	0.070176
 193	9.6000e-02	7.6554	49.088860	0.000647	6.465544	2.190586	0.051624
 194	9.6500e-02	7.6843	49.371177	0.000707	7.071688	2.395953	0.056463
 195	9.7000e-02	7.7292	49.653493	0.000707	7.071688	2.395953	0.056463
 196	9.7500e-02	7.7773	49.927744	0.000687	6.869640	2.327497	0.054850
 197	9.8000e-02	7.8094	49.911612	-0.000040	-0.404096	-0.136912	-0.003226
 198	9.8500e-02	7.8527	50.310889	0.001000	10.001388	3.388562	0.079855
 199	9.9000e-02	7.8928	50.540775	0.000576	5.758375	1.950990	0.045977
 200	9.9500e-02	7.9217	50.972317	0.001081	10.809581	3.662385	0.086308
 201	1.0000e-01	7.9634	51.290931	0.000798	7.980906	2.704004	0.063723
 202	1.0050e-01	8.0083	51.399825	0.000273	2.727651	0.924153	0.021779
 203	1.0100e-01	8.0404	51.920095	0.001303	13.032112	4.415399	0.104054
 204	1.0150e-01	8.0853	52.024955	0.000263	2.626627	0.889925	0.020972
 205	1.0200e-01	8.1286	52.250809	0.000566	5.657351	1.916762	0.045171
 206	1.0250e-01	8.1720	52.670251	0.001051	10.506509	3.559701	0.083888
 207	1.0300e-01	8.2121	52.871906	0.000505	5.051206	1.711395	0.040331
 208	1.0350e-01	8.2506	53.105826	0.000586	5.859399	1.985218	0.046784
 209	1.0400e-01	8.2891	53.416374	0.000778	7.778857	2.635548	0.062110
 210	1.0450e-01	8.3324	53.416374	0.000000	0.000000	0.000000	0.000000
 211	1.0500e-01	8.3741	53.751122	0.000839	8.385002	2.840916	0.066949
 212	1.0550e-01	8.4062	53.920512	0.000424	4.243013	1.437572	0.033878
 213	1.0600e-01	8.4495	54.239127	0.000798	7.980906	2.704004	0.063723
 214	1.0650e-01	8.4816	54.464980	0.000566	5.657351	1.916762	0.045171
 215	1.0700e-01	8.5281	54.759396	0.000737	7.374761	2.498637	0.058883
 216	1.0750e-01	8.5618	55.178839	0.001051	10.506509	3.559701	0.083888
 217	1.0800e-01	8.6051	55.424858	0.000616	6.162471	2.087902	0.049204
 218	1.0850e-01	8.6436	55.578115	0.000384	3.838917	1.300660	0.030652
 219	1.0900e-01	8.6885	55.872531	0.000737	7.374761	2.498637	0.058883
 220	1.0950e-01	8.7206	56.247610	0.000940	9.395243	3.183195	0.075016
 221	1.1000e-01	8.7703	56.437165	0.000475	4.748134	1.608711	0.037911
 222	1.1050e-01	8.8056	56.715449	0.000697	6.970664	2.361725	0.055657
 223	1.1100e-01	8.8457	56.917104	0.000505	5.051206	1.711395	0.040331
 224	1.1150e-01	8.8842	57.215553	0.000748	7.475785	2.532865	0.059690
 225	1.1200e-01	8.9211	57.550301	0.000839	8.385002	2.840916	0.066949
 226	1.1250e-01	8.9628	57.800353	0.000626	6.263496	2.122130	0.050010
 227	1.1300e-01	9.0046	57.969743	0.000424	4.243013	1.437572	0.033878
 228	1.1350e-01	9.0463	58.183497	0.000535	5.354278	1.814079	0.042751
 229	1.1400e-01	9.0896	58.344821	0.000404	4.040965	1.369116	0.032265
 230	1.1450e-01	9.1297	58.558575	0.000535	5.354278	1.814079	0.042751
 231	1.1500e-01	9.1618	58.715866	0.000394	3.939941	1.334888	0.031458
 232	1.1550e-01	9.2067	59.123209	0.001020	10.203436	3.457018	0.081469
 233	1.1600e-01	9.2516	59.276467	0.000384	3.838917	1.300660	0.030652
 234	1.1650e-01	9.2949	59.461989	0.000465	4.647110	1.574483	0.037105
 235	1.1700e-01	9.3238	59.962093	0.001253	12.526991	4.244259	0.100021
 236	1.1750e-01	9.3591	60.220212	0.000647	6.465544	2.190586	0.051624
 237	1.1800e-01	9.4088	60.345238	0.000313	3.131748	1.061065	0.025005
 238	1.1850e-01	9.4505	60.542860	0.000495	4.950182	1.677167	0.039524
 239	1.1900e-01	9.4890	60.986501	0.001111	11.112653	3.765069	0.088728
 240	1.1950e-01	9.5356	60.869541	-0.000293	-2.929700	-0.992609	-0.023392
 241	1.2000e-01	9.5660	61.442241	0.001435	14.345425	4.860362	0.114540
 242	1.2050e-01	9.6078	61.768922	0.000818	8.182954	2.772460	0.065336
 243	1.2100e-01	9.6463	62.002841	0.000586	5.859399	1.985218	0.046784
 244	1.2150e-01	9.6912	62.410184	0.001020	10.203436	3.457018	0.081469
 245	1.2200e-01	9.7136	62.595707	0.000465	4.647110	1.574483	0.037105
 246	1.2250e-01	9.7569	62.829627	0.000586	5.859399	1.985218	0.046784
 247	1.2300e-01	9.8115	63.003050	0.000434	4.344037	1.471800	0.034685
 248	1.2350e-01	9.8436	62.902222	-0.000253	-2.525603	-0.855697	-0.020165
 249	1.2400e-01	9.8933	63.382161	0.001202	12.021870	4.073120	0.095988
 250	1.2450e-01	9.9254	63.688677	0.000768	7.677833	2.601320	0.061303
 251	1.2500e-01	9.9655	63.837901	0.000374	3.737892	1.266432	0.029845
 252	1.2550e-01	10.0152	64.108119	0.000677	6.768616	2.293269	0.054044
 253	1.2600e-01	10.0489	64.640488	0.001334	13.335184	4.518083	0.106474
 254	1.2650e-01	10.0906	64.866341	0.000566	5.657351	1.916762	0.045171
 255	1.2700e-01	10.1307	64.906672	0.000101	1.010241	0.342279	0.008066
 256	1.2750e-01	10.1692	65.193022	0.000717	7.172713	2.430181	0.057270
 257	1.2800e-01	10.2109	65.426942	0.000586	5.859399	1.985218	0.046784
 258	1.2850e-01	10.2494	65.737491	0.000778	7.778857	2.635548	0.062110
 259	1.2900e-01	10.2928	65.850417	0.000283	2.828675	0.958381	0.022585
 260	1.2950e-01	10.3264	65.842351	-0.000020	-0.202048	-0.068456	-0.001613
 261	1.3000e-01	10.3633	66.394886	0.001384	13.840305	4.689222	0.110507
 262	1.3050e-01	10.4067	66.640905	0.000616	6.162471	2.087902	0.049204
 263	1.3100e-01	10.4484	67.080513	0.001101	11.011629	3.730841	0.087922
 264	1.3150e-01	10.4885	67.253936	0.000434	4.344037	1.471800	0.034685
 265	1.3200e-01	10.5286	67.330565	0.000192	1.919458	0.650330	0.015326
 266	1.3250e-01	10.5655	67.685477	0.000889	8.890123	3.012055	0.070983
 267	1.3300e-01	10.6056	68.141217	0.001142	11.415726	3.867753	0.091148
 268	1.3350e-01	10.6569	68.274310	0.000333	3.333796	1.129521	0.026618
 269	1.3400e-01	10.6938	68.258177	-0.000040	-0.404096	-0.136912	-0.003226
 270	1.3450e-01	10.7227	68.512263	0.000636	6.364520	2.156358	0.050817
 271	1.3500e-01	10.7676	68.782480	0.000677	6.768616	2.293269	0.054044
 272	1.3550e-01	10.8173	69.052698	0.000677	6.768616	2.293269	0.054044
 273	1.3600e-01	10.8462	69.367279	0.000788	7.879881	2.669776	0.062916
 274	1.3650e-01	10.8847	69.500372	0.000333	3.333796	1.129521	0.026618
 275	1.3700e-01	10.9264	69.778655	0.000697	6.970664	2.361725	0.055657
 276	1.3750e-01	10.9746	70.000476	0.000556	5.556327	1.882534	0.044364
 277	1.3800e-01	10.9986	70.407819	0.001020	10.203436	3.457018	0.081469
 278	1.3850e-01	11.0419	70.653838	0.000616	6.162471	2.087902	0.049204
 279	1.3900e-01	11.0869	70.915989	0.000657	6.566568	2.224813	0.052430
 280	1.3950e-01	11.1334	71.008751	0.000232	2.323555	0.787242	0.018552
 281	1.4000e-01	11.1655	71.214439	0.000515	5.152230	1.745623	0.041138
 282	1.4050e-01	11.2152	71.537086	0.000808	8.081930	2.738232	0.064530
 283	1.4100e-01	11.2457	71.980727	0.001111	11.112653	3.765069	0.088728
 284	1.4150e-01	11.2874	72.222713	0.000606	6.061447	2.053674	0.048397
 285	1.4200e-01	11.3387	72.480832	0.000647	6.465544	2.190586	0.051624
 286	1.4250e-01	11.3740	72.371938	-0.000273	-2.727651	-0.924153	-0.021779
 287	1.4300e-01	11.4157	72.706685	0.000839	8.385002	2.840916	0.066949
 288	1.4350e-01	11.4462	72.916406	0.000525	5.253254	1.779851	0.041944
 289	1.4400e-01	11.4895	73.178558	0.000657	6.566568	2.224813	0.052430
 290	1.4450e-01	11.5296	73.226955	0.000121	1.212289	0.410735	0.009679
 291	1.4500e-01	11.5585	73.585901	0.000899	8.991147	3.046283	0.071789
 292	1.4550e-01	11.6146	74.041641	0.001142	11.415726	3.867753	0.091148
 293	1.4600e-01	11.6515	73.993244	-0.000121	-1.212289	-0.410735	-0.009679
 294	1.4650e-01	11.6900	74.227163	0.000586	5.859399	1.985218	0.046784
 295	1.4700e-01	11.7285	74.630473	0.001010	10.102412	3.422790	0.080662
 296	1.4750e-01	11.7751	74.739367	0.000273	2.727651	0.924153	0.021779
 297	1.4800e-01	11.8152	74.997485	0.000647	6.465544	2.190586	0.051624
 298	1.4850e-01	11.8553	75.170908	0.000434	4.344037	1.471800	0.034685
 299	1.4900e-01	11.9002	75.521788	0.000879	8.789099	2.977827	0.070176
 300	1.4950e-01	11.9355	75.896866	0.000940	9.395243	3.183195	0.075016
 301	1.5000e-01	11.9724	76.126753	0.000576	5.758375	1.950990	0.045977
 302	1.5050e-01	12.0157	76.316308	0.000475	4.748134	1.608711	0.037911
 303	1.5100e-01	12.0494	76.477632	0.000404	4.040965	1.369116	0.032265
 304	1.5150e-01	12.0831	76.784148	0.000768	7.677833	2.601320	0.061303
 305	1.5200e-01	12.1264	77.094696	0.000778	7.778857	2.635548	0.062110
 306	1.5250e-01	12.1729	77.054365	-0.000101	-1.010241	-0.342279	-0.008066
 307	1.5300e-01	12.2034	77.163259	0.000273	2.727651	0.924153	0.021779
 308	1.5350e-01	12.2499	77.606900	0.001111	11.112653	3.765069	0.088728
 309	1.5400e-01	12.2804	77.933581	0.000818	8.182954	2.772460	0.065336
 310	1.5450e-01	12.3285	78.369155	0.001091	10.910605	3.696613	0.087115
 311	1.5500e-01	12.3734	78.538546	0.000424	4.243013	1.437572	0.033878
 312	1.5550e-01	12.4216	78.615175	0.000192	1.919458	0.650330	0.015326
 313	1.5600e-01	12.4553	78.889425	0.000687	6.869640	2.327497	0.054850
 314	1.5650e-01	12.4970	79.139477	0.000626	6.263496	2.122130	0.050010
 315	1.5700e-01	12.5323	79.187875	0.000121	1.212289	0.410735	0.009679
 316	1.5750e-01	12.5836	79.454059	0.000667	6.667592	2.259041	0.053237
 317	1.5800e-01	12.6045	79.861402	0.001020	10.203436	3.457018	0.081469
 318	1.5850e-01	12.6446	80.018693	0.000394	3.939941	1.334888	0.031458
 319	1.5900e-01	12.6783	80.369572	0.000879	8.789099	2.977827	0.070176
 320	1.5950e-01	12.7296	80.643823	0.000687	6.869640	2.327497	0.054850
 321	1.6000e-01	12.7665	80.889842	0.000616	6.162471	2.087902	0.049204
 322	1.6050e-01	12.8114	81.022934	0.000333	3.333796	1.129521	0.026618
 323	1.6100e-01	12.8419	81.026967	0.000010	0.101024	0.034228	0.000807
 324	1.6150e-01	12.8900	81.599667	0.001435	14.345425	4.860362	0.114540
 325	1.6200e-01	12.9301	81.760991	0.000404	4.040965	1.369116	0.032265
 326	1.6250e-01	12.9686	81.910216	0.000374	3.737892	1.266432	0.029845
 327	1.6300e-01	13.0071	82.071540	0.000404	4.040965	1.369116	0.032265
 328	1.6350e-01	13.0440	82.369989	0.000748	7.475785	2.532865	0.059690
 329	1.6400e-01	13.0889	82.567611	0.000495	4.950182	1.677167	0.039524
 330	1.6450e-01	13.1210	82.781365	0.000535	5.354278	1.814079	0.042751
 331	1.6500e-01	13.1708	82.741034	-0.000101	-1.010241	-0.342279	-0.008066
 332	1.6550e-01	13.2028	83.063682	0.000808	8.081930	2.738232	0.064530
 333	1.6600e-01	13.2429	83.430694	0.000919	9.193195	3.114739	0.073402
 334	1.6650e-01	13.2830	83.676713	0.000616	6.162471	2.087902	0.049204
 335	1.6700e-01	13.3264	83.821905	0.000364	3.636868	1.232204	0.029038
 336	1.6750e-01	13.3633	83.999361	0.000445	4.445061	1.506028	0.035491
 337	1.6800e-01	13.4082	84.245380	0.000616	6.162471	2.087902	0.049204
 338	1.6850e-01	13.4435	84.451068	0.000515	5.152230	1.745623	0.041138
 339	1.6900e-01	13.4884	84.850345	0.001000	10.001388	3.388562	0.079855
 340	1.6950e-01	13.5253	85.076198	0.000566	5.657351	1.916762	0.045171
 341	1.7000e-01	13.5750	85.156860	0.000202	2.020482	0.684558	0.016132
 342	1.7050e-01	13.5975	85.382714	0.000566	5.657351	1.916762	0.045171
 343	1.7100e-01	13.6456	85.802156	0.001051	10.506509	3.559701	0.083888
 344	1.7150e-01	13.6889	85.939282	0.000343	3.434820	1.163749	0.027425
 345	1.7200e-01	13.7274	86.181267	0.000606	6.061447	2.053674	0.048397
 346	1.7250e-01	13.7739	86.286128	0.000263	2.626627	0.889925	0.020972
 347	1.7300e-01	13.8076	86.620875	0.000839	8.385002	2.840916	0.066949
 348	1.7350e-01	13.8461	86.899159	0.000697	6.970664	2.361725	0.055657
 349	1.7400e-01	13.8862	86.991920	0.000232	2.323555	0.787242	0.018552
 350	1.7450e-01	13.9215	87.278270	0.000717	7.172713	2.430181	0.057270
 351	1.7500e-01	13.9632	87.500091	0.000556	5.556327	1.882534	0.044364
 352	1.7550e-01	14.0098	87.669481	0.000424	4.243013	1.437572	0.033878
 353	1.7600e-01	14.0451	87.806606	0.000343	3.434820	1.163749	0.027425
 354	1.7650e-01	14.0916	88.226048	0.001051	10.506509	3.559701	0.083888
 355	1.7700e-01	14.1269	88.230082	0.000010	0.101024	0.034228	0.000807
 356	1.7750e-01	14.1638	88.601127	0.000929	9.294219	3.148967	0.074209
 357	1.7800e-01	14.2135	88.754384	0.000384	3.838917	1.300660	0.030652
 358	1.7850e-01	14.2520	88.782616	0.000071	0.707169	0.239595	0.005646
 359	1.7900e-01	14.2841	89.077032	0.000737	7.374761	2.498637	0.058883
 360	1.7950e-01	14.3194	89.383548	0.000768	7.677833	2.601320	0.061303
 361	1.8000e-01	14.3627	89.766692	0.000960	9.597291	3.251650	0.076629
 362	1.8050e-01	14.4044	89.786858	0.000051	0.505121	0.171139	0.004033
 363	1.8100e-01	14.4429	90.121605	0.000839	8.385002	2.840916	0.066949
 364	1.8150e-01	14.4926	90.407955	0.000717	7.172713	2.430181	0.057270
 365	1.8200e-01	14.5247	90.545080	0.000343	3.434820	1.163749	0.027425
 366	1.8250e-01	14.5632	90.645908	0.000253	2.525603	0.855697	0.020165
 367	1.8300e-01	14.6065	90.863695	0.000546	5.455303	1.848307	0.043557
 368	1.8350e-01	14.6386	91.113747	0.000626	6.263496	2.122130	0.050010
 369	1.8400e-01	14.6916	91.428329	0.000788	7.879881	2.669776	0.062916
 370	1.8450e-01	14.7301	91.698546	0.000677	6.768616	2.293269	0.054044
 371	1.8500e-01	14.7670	91.855837	0.000394	3.939941	1.334888	0.031458
 372	1.8550e-01	14.8119	92.138154	0.000707	7.071688	2.395953	0.056463
 373	1.8600e-01	14.8408	92.424504	0.000717	7.172713	2.430181	0.057270
 374	1.8650e-01	14.8873	92.682622	0.000647	6.465544	2.190586	0.051624
 375	1.8700e-01	14.9226	92.916542	0.000586	5.859399	1.985218	0.046784
 376	1.8750e-01	14.9707	93.005270	0.000222	2.222531	0.753014	0.017746
 377	1.8800e-01	15.0028	93.178694	0.000434	4.344037	1.471800	0.034685
 378	1.8850e-01	15.0413	93.541672	0.000909	9.092171	3.080511	0.072596
 379	1.8900e-01	15.0670	93.702996	0.000404	4.040965	1.369116	0.032265
 380	1.8950e-01	15.1295	93.795758	0.000232	2.323555	0.787242	0.018552
 381	1.9000e-01	15.1680	94.013545	0.000546	5.455303	1.848307	0.043557
 382	1.9050e-01	15.2033	94.146637	0.000333	3.333796	1.129521	0.026618
 383	1.9100e-01	15.2450	94.263597	0.000293	2.929700	0.992609	0.023392
 384	1.9150e-01	15.2899	94.558013	0.000737	7.374761	2.498637	0.058883
 385	1.9200e-01	15.3284	94.876628	0.000798	7.980906	2.704004	0.063723
 386	1.9250e-01	15.3653	95.033919	0.000394	3.939941	1.334888	0.031458
 387	1.9300e-01	15.4151	95.167011	0.000333	3.333796	1.129521	0.026618
 388	1.9350e-01	15.4520	95.473527	0.000768	7.677833	2.601320	0.061303
 389	1.9400e-01	15.4841	95.784075	0.000778	7.778857	2.635548	0.062110
 390	1.9450e-01	15.5242	95.933300	0.000374	3.737892	1.266432	0.029845
 391	1.9500e-01	15.5643	96.102690	0.000424	4.243013	1.437572	0.033878
 392	1.9550e-01	15.6124	96.449537	0.000869	8.688074	2.943599	0.069369
 393	1.9600e-01	15.6445	96.469702	0.000051	0.505121	0.171139	0.004033
 394	1.9650e-01	15.6958	96.723787	0.000636	6.364520	2.156358	0.050817
 395	1.9700e-01	15.7263	97.066601	0.000859	8.587050	2.909371	0.068563
 396	1.9750e-01	15.7664	97.356984	0.000727	7.273737	2.464409	0.058077
 397	1.9800e-01	15.8065	97.659466	0.000758	7.576809	2.567092	0.060496
 398	1.9850e-01	15.8450	97.804658	0.000364	3.636868	1.232204	0.029038
 399	1.9900e-01	15.8915	97.865154	0.000152	1.515362	0.513418	0.012099
 400	1.9950e-01	15.9252	98.091008	0.000566	5.657351	1.916762	0.045171
 401	2.0000e-01	15.9621	98.252332	0.000404	4.040965	1.369116	0.032265
 402	2.0050e-01	16.0118	98.587079	0.000839	8.385002	2.840916	0.066949
 403	2.0100e-01	16.0423	98.687906	0.000253	2.525603	0.855697	0.020165
 404	2.0150e-01	16.0792	98.941991	0.000636	6.364520	2.156358	0.050817
 405	2.0200e-01	16.1209	99.228341	0.000717	7.172713	2.430181	0.057270
 406	2.0250e-01	16.1659	99.341268	0.000283	2.828675	0.958381	0.022585
 407	2.0300e-01	16.2076	99.506625	0.000414	4.141989	1.403344	0.033071
 408	2.0350e-01	16.2429	99.865571	0.000899	8.991147	3.046283	0.071789
 409	2.0400e-01	16.2846	100.030928	0.000414	4.141989	1.403344	0.033071
 410	2.0450e-01	16.3263	100.276947	0.000616	6.162471	2.087902	0.049204
 411	2.0500e-01	16.3600	100.289046	0.000030	0.303072	0.102684	0.002420
 412	2.0550e-01	16.4033	100.559264	0.000677	6.768616	2.293269	0.054044
 413	2.0600e-01	16.4514	100.926276	0.000919	9.193195	3.114739	0.073402
 414	2.0650e-01	16.4787	100.865779	-0.000152	-1.515362	-0.513418	-0.012099
 415	2.0700e-01	16.5300	101.555439	0.001728	17.275125	5.852971	0.137932
 416	2.0750e-01	16.5701	101.273122	-0.000707	-7.071688	-2.395953	-0.056463
 417	2.0800e-01	16.6070	101.664333	0.000980	9.799340	3.320106	0.078242
 418	2.0850e-01	16.6503	101.857922	0.000485	4.849158	1.642939	0.038718
 419	2.0900e-01	16.6888	102.043444	0.000465	4.647110	1.574483	0.037105
 420	2.0950e-01	16.7305	102.140239	0.000242	2.424579	0.821470	0.019359
 421	2.1000e-01	16.7610	102.499184	0.000899	8.991147	3.046283	0.071789
 422	2.1050e-01	16.8027	102.676641	0.000445	4.445061	1.506028	0.035491
 423	2.1100e-01	16.8380	102.926693	0.000626	6.263496	2.122130	0.050010
 424	2.1150e-01	16.8846	103.079951	0.000384	3.838917	1.300660	0.030652
 425	2.1200e-01	16.9247	103.209010	0.000323	3.232772	1.095293	0.025812
 426	2.1250e-01	16.9696	103.354201	0.000364	3.636868	1.232204	0.029038
 427	2.1300e-01	17.0033	103.717180	0.000909	9.092171	3.080511	0.072596
 428	2.1350e-01	17.0498	103.910769	0.000485	4.849158	1.642939	0.038718
 429	2.1400e-01	17.0771	104.120490	0.000525	5.253254	1.779851	0.041944
 430	2.1450e-01	17.1252	104.334244	0.000535	5.354278	1.814079	0.042751
 431	2.1500e-01	17.1701	104.390708	0.000141	1.414338	0.479191	0.011293
 432	2.1550e-01	17.2134	104.620594	0.000576	5.758375	1.950990	0.045977
 433	2.1600e-01	17.2343	104.870646	0.000626	6.263496	2.122130	0.050010
 434	2.1650e-01	17.2840	104.983573	0.000283	2.828675	0.958381	0.022585
 435	2.1700e-01	17.3321	105.148930	0.000414	4.141989	1.403344	0.033071
 436	2.1750e-01	17.3770	105.334453	0.000465	4.647110	1.574483	0.037105
 437	2.1800e-01	17.4139	105.588538	0.000636	6.364520	2.156358	0.050817
 438	2.1850e-01	17.4444	105.737763	0.000374	3.737892	1.266432	0.029845
 439	2.1900e-01	17.4877	105.987815	0.000626	6.263496	2.122130	0.050010
 440	2.1950e-01	17.5246	106.282231	0.000737	7.374761	2.498637	0.058883
 441	2.2000e-01	17.5696	106.621011	0.000849	8.486026	2.875143	0.067756
 442	2.2050e-01	17.6113	106.782335	0.000404	4.040965	1.369116	0.032265
 443	2.2100e-01	17.6450	106.911394	0.000323	3.232772	1.095293	0.025812
 444	2.2150e-01	17.6770	107.088851	0.000445	4.445061	1.506028	0.035491
 445	2.2200e-01	17.7268	107.383267	0.000737	7.374761	2.498637	0.058883
 446	2.2250e-01	17.7637	107.330837	-0.000131	-1.313314	-0.444963	-0.010486
 447	2.2300e-01	17.8006	107.693815	0.000909	9.092171	3.080511	0.072596
 448	2.2350e-01	17.8455	108.068894	0.000940	9.395243	3.183195	0.075016
 449	2.2400e-01	17.8872	108.193920	0.000313	3.131748	1.061065	0.025005
 450	2.2450e-01	17.9369	108.524634	0.000828	8.283978	2.806688	0.066143
 451	2.2500e-01	17.9674	108.589163	0.000162	1.616386	0.547646	0.012906
 452	2.2550e-01	18.0123	108.734355	0.000364	3.636868	1.232204	0.029038
 453	2.2600e-01	18.0396	109.057003	0.000808	8.081930	2.738232	0.064530
 454	2.2650e-01	18.0877	109.101367	0.000111	1.111265	0.376507	0.008873
 455	2.2700e-01	18.1278	109.339320	0.000596	5.960423	2.019446	0.047591
 456	2.2750e-01	18.1615	109.774894	0.001091	10.910605	3.696613	0.087115
 457	2.2800e-01	18.2016	109.867656	0.000232	2.323555	0.787242	0.018552
 458	2.2850e-01	18.2449	109.976549	0.000273	2.727651	0.924153	0.021779
 459	2.2900e-01	18.2931	110.190303	0.000535	5.354278	1.814079	0.042751
 460	2.2950e-01	18.3219	110.504885	0.000788	7.879881	2.669776	0.062916
 461	2.3000e-01	18.3733	110.500852	-0.000010	-0.101024	-0.034228	-0.000807
 462	2.3050e-01	18.4102	110.706540	0.000515	5.152230	1.745623	0.041138
 463	2.3100e-01	18.4487	111.061453	0.000889	8.890123	3.012055	0.070983
 464	2.3150e-01	18.4888	111.271174	0.000525	5.253254	1.779851	0.041944
 465	2.3200e-01	18.5321	111.372001	0.000253	2.525603	0.855697	0.020165
 466	2.3250e-01	18.5690	111.501061	0.000323	3.232772	1.095293	0.025812
 467	2.3300e-01	18.5979	112.073761	0.001435	14.345425	4.860362	0.114540
 468	2.3350e-01	18.6492	112.222985	0.000374	3.737892	1.266432	0.029845
 469	2.3400e-01	18.6861	112.210886	-0.000030	-0.303072	-0.102684	-0.002420
 470	2.3450e-01	18.7246	112.126191	-0.000212	-2.121507	-0.718786	-0.016939
 471	2.3500e-01	18.7775	112.477070	0.000879	8.789099	2.977827	0.070176
 472	2.3550e-01	18.8112	112.860215	0.000960	9.597291	3.251650	0.076629
 473	2.3600e-01	18.8465	112.912645	0.000131	1.313314	0.444963	0.010486
 474	2.3650e-01	18.8850	113.086068	0.000434	4.344037	1.471800	0.034685
 475	2.3700e-01	18.9316	113.400650	0.000788	7.879881	2.669776	0.062916
 476	2.3750e-01	18.9652	113.541808	0.000354	3.535844	1.197976	0.028232
 477	2.3800e-01	19.0086	113.812026	0.000677	6.768616	2.293269	0.054044
 478	2.3850e-01	19.0487	113.892688	0.000202	2.020482	0.684558	0.016132
 479	2.3900e-01	19.0888	114.062078	0.000424	4.243013	1.437572	0.033878
 480	2.3950e-01	19.1321	114.179038	0.000293	2.929700	0.992609	0.023392
 481	2.4000e-01	19.1674	114.509752	0.000828	8.283978	2.806688	0.066143
 482	2.4050e-01	19.2059	114.654944	0.000364	3.636868	1.232204	0.029038
 483	2.4100e-01	19.2444	114.961459	0.000768	7.677833	2.601320	0.061303
 484	2.4150e-01	19.2957	115.070353	0.000273	2.727651	0.924153	0.021779
 485	2.4200e-01	19.3246	115.251842	0.000455	4.546085	1.540255	0.036298
 486	2.4250e-01	19.3647	115.792277	0.001354	13.537232	4.586538	0.108087
 487	2.4300e-01	19.4144	115.840675	0.000121	1.212289	0.410735	0.009679
 488	2.4350e-01	19.4465	115.913270	0.000182	1.818434	0.616102	0.014519
 489	2.4400e-01	19.4834	116.183488	0.000677	6.768616	2.293269	0.054044
 490	2.4450e-01	19.5251	116.369011	0.000465	4.647110	1.574483	0.037105
 491	2.4500e-01	19.5636	116.461772	0.000232	2.323555	0.787242	0.018552
 492	2.4550e-01	19.6037	116.820718	0.000899	8.991147	3.046283	0.071789
 493	2.4600e-01	19.6551	116.776353	-0.000111	-1.111265	-0.376507	-0.008873
 494	2.4650e-01	19.6855	116.873148	0.000242	2.424579	0.821470	0.019359
 495	2.4700e-01	19.7224	117.224027	0.000879	8.789099	2.977827	0.070176
 496	2.4750e-01	19.7674	117.413583	0.000475	4.748134	1.608711	0.037911
 497	2.4800e-01	19.8107	117.683801	0.000677	6.768616	2.293269	0.054044
 498	2.4850e-01	19.8476	117.736231	0.000131	1.313314	0.444963	0.010486
 499	2.4900e-01	19.8829	117.986283	0.000626	6.263496	2.122130	0.050010
 500	2.4950e-01	19.9294	118.325063	0.000849	8.486026	2.875143	0.067756
 501	2.5000e-01	19.9663	118.409758	0.000212	2.121507	0.718786	0.016939
 502	2.5050e-01	19.9695	118.542851	0.000333	3.333796	1.129521	0.026618
 503	2.5100e-01	19.9454	118.159706	0.000960	9.597291	3.251650	-0.076629
 504	2.5150e-01	19.9117	117.994349	0.000414	4.141989	1.403344	-0.033071
 505	2.5200e-01	19.8748	117.986283	0.000020	0.202048	0.068456	-0.001613
 506	2.5250e-01	19.8347	117.905621	0.000202	2.020482	0.684558	-0.016132
 507	2.5300e-01	19.8026	117.635403	0.000677	6.768616	2.293269	-0.054044
 508	2.5350e-01	19.7513	117.425682	0.000525	5.253254	1.779851	-0.041944
 509	2.5400e-01	19.7096	117.252259	0.000434	4.344037	1.471800	-0.034685
 510	2.5450e-01	19.6775	117.107068	0.000364	3.636868	1.232204	-0.029038
 511	2.5500e-01	19.6326	117.086902	0.000051	0.505121	0.171139	-0.004033
 512	2.5550e-01	19.5877	116.986075	0.000253	2.525603	0.855697	-0.020165
 513	2.5600e-01	19.5588	116.703758	0.000707	7.071688	2.395953	-0.056463
 514	2.5650e-01	19.5155	116.711824	-0.000020	-0.202048	-0.068456	0.001613
 515	2.5700e-01	19.4738	116.284315	0.001071	10.708557	3.628157	-0.085502
 516	2.5750e-01	19.4289	116.268183	0.000040	0.404096	0.136912	-0.003226
 517	2.5800e-01	19.3936	115.784211	0.001212	12.122895	4.107348	-0.096794
 518	2.5850e-01	19.3503	115.989899	-0.000515	-5.152230	-1.745623	0.041138
 519	2.5900e-01	19.3198	115.848741	0.000354	3.535844	1.197976	-0.028232
 520	2.5950e-01	19.2733	115.655152	0.000485	4.849158	1.642939	-0.038718
 521	2.6000e-01	19.2331	115.481729	0.000434	4.344037	1.471800	-0.034685
 522	2.6050e-01	19.1979	115.469630	0.000030	0.303072	0.102684	-0.002420
 523	2.6100e-01	19.1545	115.050187	0.001051	10.506509	3.559701	-0.083888
 524	2.6150e-01	19.1128	114.816268	0.000586	5.859399	1.985218	-0.046784
 525	2.6200e-01	19.0807	114.683175	0.000333	3.333796	1.129521	-0.026618
 526	2.6250e-01	19.0374	114.509752	0.000434	4.344037	1.471800	-0.034685
 527	2.6300e-01	18.9941	114.461355	0.000121	1.212289	0.410735	-0.009679
 528	2.6350e-01	18.9508	114.316163	0.000364	3.636868	1.232204	-0.029038
 529	2.6400e-01	18.9059	114.070144	0.000616	6.162471	2.087902	-0.049204
 530	2.6450e-01	18.8850	114.134674	-0.000162	-1.616386	-0.547646	0.012906
 531	2.6500e-01	18.8337	113.997549	0.000343	3.434820	1.163749	-0.027425
 532	2.6550e-01	18.7936	113.678934	0.000798	7.980906	2.704004	-0.063723
 533	2.6600e-01	18.7455	113.606338	0.000182	1.818434	0.616102	-0.014519
 534	2.6650e-01	18.7134	113.400650	0.000515	5.152230	1.745623	-0.041138
 535	2.6700e-01	18.6717	113.219161	0.000455	4.546085	1.540255	-0.036298
 536	2.6750e-01	18.6348	113.057837	0.000404	4.040965	1.369116	-0.032265
 537	2.6800e-01	18.5898	112.892480	0.000414	4.141989	1.403344	-0.033071
 538	2.6850e-01	18.5610	112.589997	0.000758	7.576809	2.567092	-0.060496
 539	2.6900e-01	18.5128	112.513368	0.000192	1.919458	0.650330	-0.015326
 540	2.6950e-01	18.4679	112.372210	0.000354	3.535844	1.197976	-0.028232
 541	2.7000e-01	18.4391	112.267349	0.000263	2.626627	0.889925	-0.020972
 542	2.7050e-01	18.3973	112.081827	0.000465	4.647110	1.574483	-0.037105
 543	2.7100e-01	18.3540	111.686583	0.000990	9.900364	3.354334	-0.079049
 544	2.7150e-01	18.3091	111.593822	0.000232	2.323555	0.787242	-0.018552
 545	2.7200e-01	18.2658	111.408299	0.000465	4.647110	1.574483	-0.037105
 546	2.7250e-01	18.2465	111.061453	0.000869	8.688074	2.943599	-0.069369
 547	2.7300e-01	18.2048	110.992890	0.000172	1.717410	0.581874	-0.013713
 548	2.7350e-01	18.1519	110.956592	0.000091	0.909217	0.308051	-0.007260
 549	2.7400e-01	18.1134	110.722672	0.000586	5.859399	1.985218	-0.046784
 550	2.7450e-01	18.0797	110.637977	0.000212	2.121507	0.718786	-0.016939
 551	2.7500e-01	18.0268	110.391958	0.000616	6.162471	2.087902	-0.049204
 552	2.7550e-01	17.9963	110.190303	0.000505	5.051206	1.711395	-0.040331
 553	2.7600e-01	17.9546	109.920086	0.000677	6.768616	2.293269	-0.054044
 554	2.7650e-01	17.9097	109.871689	0.000121	1.212289	0.410735	-0.009679
 555	2.7700e-01	17.8744	109.738596	0.000333	3.333796	1.129521	-0.026618
 556	2.7750e-01	17.8343	109.690199	0.000121	1.212289	0.410735	-0.009679
 557	2.7800e-01	17.7942	109.311088	0.000950	9.496267	3.217422	-0.075822
 558	2.7850e-01	17.7621	109.089268	0.000556	5.556327	1.882534	-0.044364
 559	2.7900e-01	17.7107	108.948109	0.000354	3.535844	1.197976	-0.028232
 560	2.7950e-01	17.6738	108.730322	0.000546	5.455303	1.848307	-0.043557
 561	2.8000e-01	17.6353	108.532700	0.000495	4.950182	1.677167	-0.039524
 562	2.8050e-01	17.5840	108.597230	-0.000162	-1.616386	-0.547646	0.012906
 563	2.8100e-01	17.5455	108.262482	0.000839	8.385002	2.840916	-0.066949
 564	2.8150e-01	17.5182	108.085026	0.000445	4.445061	1.506028	-0.035491
 565	2.8200e-01	17.4749	108.060827	0.000061	0.606145	0.205367	-0.004840
 566	2.8250e-01	17.4364	107.754312	0.000768	7.677833	2.601320	-0.061303
 567	2.8300e-01	17.3931	107.641385	0.000283	2.828675	0.958381	-0.022585
 568	2.8350e-01	17.3562	107.496194	0.000364	3.636868	1.232204	-0.029038
 569	2.8400e-01	17.3081	107.149347	0.000869	8.688074	2.943599	-0.069369
 570	2.8450e-01	17.2824	106.963825	0.000465	4.647110	1.574483	-0.037105
 571	2.8500e-01	17.2375	106.770236	0.000485	4.849158	1.642939	-0.038718
 572	2.8550e-01	17.1894	106.750070	0.000051	0.505121	0.171139	-0.004033
 573	2.8600e-01	17.1621	106.568581	0.000455	4.546085	1.540255	-0.036298
 574	2.8650e-01	17.1124	106.237867	0.000828	8.283978	2.806688	-0.066143
 575	2.8700e-01	17.0706	106.137039	0.000253	2.525603	0.855697	-0.020165
 576	2.8750e-01	17.0305	106.064444	0.000182	1.818434	0.616102	-0.014519
 577	2.8800e-01	16.9952	105.693399	0.000929	9.294219	3.148967	-0.074209
 578	2.8850e-01	16.9599	105.407049	0.000717	7.172713	2.430181	-0.057270
 579	2.8900e-01	16.9102	105.350585	0.000141	1.414338	0.479191	-0.011293
 580	2.8950e-01	16.8765	105.144897	0.000515	5.152230	1.745623	-0.041138
 581	2.9000e-01	16.8348	105.052136	0.000232	2.323555	0.787242	-0.018552
 582	2.9050e-01	16.7931	104.999706	0.000131	1.313314	0.444963	-0.010486
 583	2.9100e-01	16.7434	104.830315	0.000424	4.243013	1.437572	-0.033878
 584	2.9150e-01	16.7145	104.431039	0.001000	10.001388	3.388562	-0.079855
 585	2.9200e-01	16.6776	104.193086	0.000596	5.960423	2.019446	-0.047591
 586	2.9250e-01	16.6295	104.080159	0.000283	2.828675	0.958381	-0.022585
 587	2.9300e-01	16.5990	103.930934	0.000374	3.737892	1.266432	-0.029845
 588	2.9350e-01	16.5573	103.777677	0.000384	3.838917	1.300660	-0.030652
 589	2.9400e-01	16.5092	103.636518	0.000354	3.535844	1.197976	-0.028232
 590	2.9450e-01	16.4691	103.507459	0.000323	3.232772	1.095293	-0.025812
 591	2.9500e-01	16.4322	103.172712	0.000839	8.385002	2.840916	-0.066949
 592	2.9550e-01	16.3888	103.039620	0.000333	3.333796	1.129521	-0.026618
 593	2.9600e-01	16.3471	102.817799	0.000556	5.556327	1.882534	-0.044364
 594	2.9650e-01	16.3134	102.757303	0.000152	1.515362	0.513418	-0.012099
 595	2.9700e-01	16.2653	102.539515	0.000546	5.455303	1.848307	-0.043557
 596	2.9750e-01	16.2300	102.430622	0.000273	2.727651	0.924153	-0.021779
 597	2.9800e-01	16.1931	102.103941	0.000818	8.182954	2.772460	-0.065336
 598	2.9850e-01	16.1530	101.962782	0.000354	3.535844	1.197976	-0.028232
 599	2.9900e-01	16.1081	101.861955	0.000253	2.525603	0.855697	-0.020165
 600	2.9950e-01	16.0728	101.636101	0.000566	5.657351	1.916762	-0.045171
 601	3.0000e-01	16.0359	101.373950	0.000657	6.566568	2.224813	-0.052430
 602	3.0050e-01	15.9894	101.220692	0.000384	3.838917	1.300660	-0.030652
 603	3.0100e-01	15.9445	100.994839	0.000566	5.657351	1.916762	-0.045171
 604	3.0150e-01	15.9156	100.656058	0.000849	8.486026	2.875143	-0.067756
 605	3.0200e-01	15.8787	100.555231	0.000253	2.525603	0.855697	-0.020165
 606	3.0250e-01	15.8242	100.603628	-0.000121	-1.212289	-0.410735	0.009679
 607	3.0300e-01	15.7921	100.337444	0.000667	6.667592	2.259041	-0.053237
 608	3.0350e-01	15.7520	99.893803	0.001111	11.112653	3.765069	-0.088728
 609	3.0400e-01	15.7119	99.712313	0.000455	4.546085	1.540255	-0.036298
 610	3.0450e-01	15.6734	99.599387	0.000283	2.828675	0.958381	-0.022585
 611	3.0500e-01	15.6236	99.720379	-0.000303	-3.030724	-1.026837	0.024199
 612	3.0550e-01	15.5980	99.329169	0.000980	9.799340	3.320106	-0.078242
 613	3.0600e-01	15.5514	98.946025	0.000960	9.597291	3.251650	-0.076629
 614	3.0650e-01	15.5097	98.829065	0.000293	2.929700	0.992609	-0.023392
 615	3.0700e-01	15.4664	98.764535	0.000162	1.616386	0.547646	-0.012906
 616	3.0750e-01	15.4375	98.587079	0.000445	4.445061	1.506028	-0.035491
 617	3.0800e-01	15.3958	98.300729	0.000717	7.172713	2.430181	-0.057270
 618	3.0850e-01	15.3493	97.941783	0.000899	8.991147	3.046283	-0.071789
 619	3.0900e-01	15.3108	97.736095	0.000515	5.152230	1.745623	-0.041138
 620	3.0950e-01	15.2755	97.635268	0.000253	2.525603	0.855697	-0.020165
 621	3.1000e-01	15.2338	97.482010	0.000384	3.838917	1.300660	-0.030652
 622	3.1050e-01	15.1873	97.308587	0.000434	4.344037	1.471800	-0.034685
 623	3.1100e-01	15.1472	97.042402	0.000667	6.667592	2.259041	-0.053237
 624	3.1150e-01	15.1151	96.977872	0.000162	1.616386	0.547646	-0.012906
 625	3.1200e-01	15.0686	96.784284	0.000485	4.849158	1.642939	-0.038718
 626	3.1250e-01	15.0268	96.570529	0.000535	5.354278	1.814079	-0.042751
 627	3.1300e-01	15.0028	96.324510	0.000616	6.162471	2.087902	-0.049204
 628	3.1350e-01	14.9579	96.086558	0.000596	5.960423	2.019446	-0.047591
 629	3.1400e-01	14.9033	95.981697	0.000263	2.626627	0.889925	-0.020972
 630	3.1450e-01	14.8777	95.796175	0.000465	4.647110	1.574483	-0.037105
 631	3.1500e-01	14.8343	95.570321	0.000566	5.657351	1.916762	-0.045171
 632	3.1550e-01	14.7958	95.687281	-0.000293	-2.929700	-0.992609	0.023392
 633	3.1600e-01	14.7509	95.376732	0.000778	7.778857	2.635548	-0.062110
 634	3.1650e-01	14.7124	94.989555	0.000970	9.698316	3.285878	-0.077435
 635	3.1700e-01	14.6723	94.703205	0.000717	7.172713	2.430181	-0.057270
 636	3.1750e-01	14.6290	94.666907	0.000091	0.909217	0.308051	-0.007260
 637	3.1800e-01	14.5969	94.449120	0.000546	5.455303	1.848307	-0.043557
 638	3.1850e-01	14.5456	94.146637	0.000758	7.576809	2.567092	-0.060496
 639	3.1900e-01	14.5119	94.033710	0.000283	2.828675	0.958381	-0.022585
 640	3.1950e-01	14.4814	93.811890	0.000556	5.556327	1.882534	-0.044364
 641	3.2000e-01	14.4333	93.525540	0.000717	7.172713	2.430181	-0.057270
 642	3.2050e-01	14.3932	93.392448	0.000333	3.333796	1.129521	-0.026618
 643	3.2100e-01	14.3579	93.158528	0.000586	5.859399	1.985218	-0.046784
 644	3.2150e-01	14.3130	93.202892	-0.000111	-1.111265	-0.376507	0.008873
 645	3.2200e-01	14.2777	92.948807	0.000636	6.364520	2.156358	-0.050817
 646	3.2250e-01	14.2279	92.642291	0.000768	7.677833	2.601320	-0.061303
 647	3.2300e-01	14.1878	92.517265	0.000313	3.131748	1.061065	-0.025005
 648	3.2350e-01	14.1541	92.335776	0.000455	4.546085	1.540255	-0.036298
 649	3.2400e-01	14.1140	91.964731	0.000929	9.294219	3.148967	-0.074209
 650	3.2450e-01	14.0723	91.900201	0.000162	1.616386	0.547646	-0.012906
 651	3.2500e-01	14.0338	91.670315	0.000576	5.758375	1.950990	-0.045977
 652	3.2550e-01	13.9953	91.351700	0.000798	7.980906	2.704004	-0.063723
 653	3.2600e-01	13.9504	91.174244	0.000445	4.445061	1.506028	-0.035491
 654	3.2650e-01	13.9119	90.944357	0.000576	5.758375	1.950990	-0.045977
 655	3.2700e-01	13.8718	90.766901	0.000445	4.445061	1.506028	-0.035491
 656	3.2750e-01	13.8333	90.649941	0.000293	2.929700	0.992609	-0.023392
 657	3.2800e-01	13.7884	90.674139	-0.000061	-0.606145	-0.205367	0.004840
 658	3.2850e-01	13.7515	90.436187	0.000596	5.960423	2.019446	-0.047591
 659	3.2900e-01	13.7194	90.153870	0.000707	7.071688	2.395953	-0.056463
 660	3.2950e-01	13.6745	90.000612	0.000384	3.838917	1.300660	-0.030652
 661	3.3000e-01	13.6328	89.597302	0.001010	10.102412	3.422790	-0.080662
 662	3.3050e-01	13.5862	89.532772	0.000162	1.616386	0.547646	-0.012906
 663	3.3100e-01	13.5510	89.141562	0.000980	9.799340	3.320106	-0.078242
 664	3.3150e-01	13.5157	88.895543	0.000616	6.162471	2.087902	-0.049204
 665	3.3200e-01	13.4643	88.899576	-0.000010	-0.101024	-0.034228	0.000807
 666	3.3250e-01	13.4322	88.794715	0.000263	2.626627	0.889925	-0.020972
 667	3.3300e-01	13.3873	88.492233	0.000758	7.576809	2.567092	-0.060496
 668	3.3350e-01	13.3488	88.242181	0.000626	6.263496	2.122130	-0.050010
 669	3.3400e-01	13.3071	87.927599	0.000788	7.879881	2.669776	-0.062916
 670	3.3450e-01	13.2654	87.939698	-0.000030	-0.303072	-0.102684	0.002420
 671	3.3500e-01	13.2253	87.512190	0.001071	10.708557	3.628157	-0.085502
 672	3.3550e-01	13.1852	87.411363	0.000253	2.525603	0.855697	-0.020165
 673	3.3600e-01	13.1611	87.447660	-0.000091	-0.909217	-0.308051	0.007260
 674	3.3650e-01	13.1114	86.903192	0.001364	13.638256	4.620766	-0.108894
 675	3.3700e-01	13.0729	86.826563	0.000192	1.919458	0.650330	-0.015326
 676	3.3750e-01	13.0312	86.794298	0.000081	0.808193	0.273823	-0.006453
 677	3.3800e-01	12.9815	86.431320	0.000909	9.092171	3.080511	-0.072596
 678	3.3850e-01	12.9590	86.015910	0.001041	10.405484	3.525474	-0.083082
 679	3.3900e-01	12.9173	85.572270	0.001111	11.112653	3.765069	-0.088728
 680	3.3950e-01	12.8724	85.640832	-0.000172	-1.717410	-0.581874	0.013713
 681	3.4000e-01	12.8339	85.660998	-0.000051	-0.505121	-0.171139	0.004033
 682	3.4050e-01	12.7825	85.669064	-0.000020	-0.202048	-0.068456	0.001613
 683	3.4100e-01	12.7585	85.306085	0.000909	9.092171	3.080511	-0.072596
 684	3.4150e-01	12.7103	85.148794	0.000394	3.939941	1.334888	-0.031458
 685	3.4200e-01	12.6766	84.935040	0.000535	5.354278	1.814079	-0.042751
 686	3.4250e-01	12.6446	84.394605	0.001354	13.537232	4.586538	-0.108087
 687	3.4300e-01	12.6029	84.196983	0.000495	4.950182	1.677167	-0.039524
 688	3.4350e-01	12.5531	84.233281	-0.000091	-0.909217	-0.308051	0.007260
 689	3.4400e-01	12.5066	84.160685	0.000182	1.818434	0.616102	-0.014519
 690	3.4450e-01	12.4793	83.878368	0.000707	7.071688	2.395953	-0.056463
 691	3.4500e-01	12.4328	83.551687	0.000818	8.182954	2.772460	-0.065336
 692	3.4550e-01	12.4023	83.269370	0.000707	7.071688	2.395953	-0.056463
 693	3.4600e-01	12.3510	83.144344	0.000313	3.131748	1.061065	-0.025005
 694	3.4650e-01	12.3173	82.857994	0.000717	7.172713	2.430181	-0.057270
 695	3.4700e-01	12.2740	82.724902	0.000333	3.333796	1.129521	-0.026618
 696	3.4750e-01	12.2339	82.466784	0.000647	6.465544	2.190586	-0.051624
 697	3.4800e-01	12.1906	82.406287	0.000152	1.515362	0.513418	-0.012099
 698	3.4850e-01	12.1521	82.107838	0.000748	7.475785	2.532865	-0.059690
 699	3.4900e-01	12.1232	81.785190	0.000808	8.081930	2.738232	-0.064530
 700	3.4950e-01	12.0879	81.498840	0.000717	7.172713	2.430181	-0.057270
 701	3.5000e-01	12.0334	81.341549	0.000394	3.939941	1.334888	-0.031458
 702	3.5050e-01	11.9900	81.248788	0.000232	2.323555	0.787242	-0.018552
 703	3.5100e-01	11.9515	81.051166	0.000495	4.950182	1.677167	-0.039524
 704	3.5150e-01	11.9098	80.805147	0.000616	6.162471	2.087902	-0.049204
 705	3.5200e-01	11.8713	80.700286	0.000263	2.626627	0.889925	-0.020972
 706	3.5250e-01	11.8424	80.256646	0.001111	11.112653	3.765069	-0.088728
 707	3.5300e-01	11.7943	80.095322	0.000404	4.040965	1.369116	-0.032265
 708	3.5350e-01	11.7542	79.865435	0.000576	5.758375	1.950990	-0.045977
 709	3.5400e-01	11.7093	79.849303	0.000040	0.404096	0.136912	-0.003226
 710	3.5450e-01	11.6740	79.571019	0.000697	6.970664	2.361725	-0.055657
 711	3.5500e-01	11.6275	79.337099	0.000586	5.859399	1.985218	-0.046784
 712	3.5550e-01	11.5858	78.861194	0.001192	11.920846	4.038892	-0.095181
 713	3.5600e-01	11.5521	78.768432	0.000232	2.323555	0.787242	-0.018552
 714	3.5650e-01	11.5120	78.740201	0.000071	0.707169	0.239595	-0.005646
 715	3.5700e-01	11.4767	78.542579	0.000495	4.950182	1.677167	-0.039524
 716	3.5750e-01	11.4350	78.336891	0.000515	5.152230	1.745623	-0.041138
 717	3.5800e-01	11.3965	77.973912	0.000909	9.092171	3.080511	-0.072596
 718	3.5850e-01	11.3467	77.756125	0.000546	5.455303	1.848307	-0.043557
 719	3.5900e-01	11.3082	77.614966	0.000354	3.535844	1.197976	-0.028232
 720	3.5950e-01	11.2697	77.397179	0.000546	5.455303	1.848307	-0.043557
 721	3.6000e-01	11.2248	77.304417	0.000232	2.323555	0.787242	-0.018552
 722	3.6050e-01	11.1911	76.941439	0.000909	9.092171	3.080511	-0.072596
 723	3.6100e-01	11.1430	76.457467	0.001212	12.122895	4.107348	-0.096794
 724	3.6150e-01	11.1141	76.308242	0.000374	3.737892	1.266432	-0.029845
 725	3.6200e-01	11.0740	76.118686	0.000475	4.748134	1.608711	-0.037911
 726	3.6250e-01	11.0259	76.050124	0.000172	1.717410	0.581874	-0.013713
 727	3.6300e-01	10.9922	75.820237	0.000576	5.758375	1.950990	-0.045977
 728	3.6350e-01	10.9569	75.638748	0.000455	4.546085	1.540255	-0.036298
 729	3.6400e-01	10.9168	75.247537	0.000980	9.799340	3.320106	-0.078242
 730	3.6450e-01	10.8655	75.114445	0.000333	3.333796	1.129521	-0.026618
 731	3.6500e-01	10.8350	74.985386	0.000323	3.232772	1.095293	-0.025812
 732	3.6550e-01	10.7917	74.703069	0.000707	7.071688	2.395953	-0.056463
 733	3.6600e-01	10.7532	74.553844	0.000374	3.737892	1.266432	-0.029845
 734	3.6650e-01	10.7147	74.202965	0.000879	8.789099	2.977827	-0.070176
 735	3.6700e-01	10.6794	74.086005	0.000293	2.929700	0.992609	-0.023392
 736	3.6750e-01	10.6280	73.860151	0.000566	5.657351	1.916762	-0.045171
 737	3.6800e-01	10.5944	73.545570	0.000788	7.879881	2.669776	-0.062916
 738	3.6850e-01	10.5478	73.295517	0.000626	6.263496	2.122130	-0.050010
 739	3.6900e-01	10.5093	73.162425	0.000333	3.333796	1.129521	-0.026618
 740	3.6950e-01	10.4724	72.730884	0.001081	10.809581	3.662385	-0.086308
 741	3.7000e-01	10.4355	72.617957	0.000283	2.828675	0.958381	-0.022585
 742	3.7050e-01	10.3986	72.593758	0.000061	0.606145	0.205367	-0.004840
 743	3.7100e-01	10.3505	72.174316	0.001051	10.506509	3.559701	-0.083888
 744	3.7150e-01	10.3152	72.025091	0.000374	3.737892	1.266432	-0.029845
 745	3.7200e-01	10.2751	71.678245	0.000869	8.688074	2.943599	-0.069369
 746	3.7250e-01	10.2318	71.529020	0.000374	3.737892	1.266432	-0.029845
 747	3.7300e-01	10.1933	71.355597	0.000434	4.344037	1.471800	-0.034685
 748	3.7350e-01	10.1500	70.988585	0.000919	9.193195	3.114739	-0.073402
 749	3.7400e-01	10.1115	70.625606	0.000909	9.092171	3.080511	-0.072596
 750	3.7450e-01	10.0778	70.472348	0.000384	3.838917	1.300660	-0.030652
 751	3.7500e-01	10.0361	70.230363	0.000606	6.061447	2.053674	-0.048397
 752	3.7550e-01	9.9912	70.044840	0.000465	4.647110	1.574483	-0.037105
 753	3.7600e-01	9.9527	69.907715	0.000343	3.434820	1.163749	-0.027425
 754	3.7650e-01	9.9110	69.605232	0.000758	7.576809	2.567092	-0.060496
 755	3.7700e-01	9.8724	69.492305	0.000283	2.828675	0.958381	-0.022585
 756	3.7750e-01	9.8291	69.286617	0.000515	5.152230	1.745623	-0.041138
 757	3.7800e-01	9.8035	69.113194	0.000434	4.344037	1.471800	-0.034685
 758	3.7850e-01	9.7425	68.717951	0.000990	9.900364	3.354334	-0.079049
 759	3.7900e-01	9.7104	68.330773	0.000970	9.698316	3.285878	-0.077435
 760	3.7950e-01	9.6655	68.290442	0.000101	1.010241	0.342279	-0.008066
 761	3.8000e-01	9.6286	68.193648	0.000242	2.424579	0.821470	-0.019359
 762	3.8050e-01	9.6045	67.907298	0.000717	7.172713	2.430181	-0.057270
 763	3.8100e-01	9.5532	67.564484	0.000859	8.587050	2.909371	-0.068563
 764	3.8150e-01	9.5179	67.274101	0.000727	7.273737	2.464409	-0.058077
 765	3.8200e-01	9.4794	67.024049	0.000626	6.263496	2.122130	-0.050010
 766	3.8250e-01	9.4313	66.701401	0.000808	8.081930	2.738232	-0.064530
 767	3.8300e-01	9.3880	66.709467	-0.000020	-0.202048	-0.068456	0.001613
 768	3.8350e-01	9.3495	66.455382	0.000636	6.364520	2.156358	-0.050817
 769	3.8400e-01	9.3078	66.249694	0.000515	5.152230	1.745623	-0.041138
 770	3.8450e-01	9.2709	66.076271	0.000434	4.344037	1.471800	-0.034685
 771	3.8500e-01	9.2404	65.951245	0.000313	3.131748	1.061065	-0.025005
 772	3.8550e-01	9.1987	65.632630	0.000798	7.980906	2.704004	-0.063723
 773	3.8600e-01	9.1505	65.241420	0.000980	9.799340	3.320106	-0.078242
 774	3.8650e-01	9.1072	64.967169	0.000687	6.869640	2.327497	-0.054850
 775	3.8700e-01	9.0671	64.793746	0.000434	4.344037	1.471800	-0.034685
 776	3.8750e-01	9.0318	64.608223	0.000465	4.647110	1.574483	-0.037105
 777	3.8800e-01	8.9901	64.225079	0.000960	9.597291	3.251650	-0.076629
 778	3.8850e-01	8.9548	64.071821	0.000384	3.838917	1.300660	-0.030652
 779	3.8900e-01	8.9163	64.003258	0.000172	1.717410	0.581874	-0.013713
 780	3.8950e-01	8.8698	63.789504	0.000535	5.354278	1.814079	-0.042751
 781	3.9000e-01	8.8297	63.487022	0.000758	7.576809	2.567092	-0.060496
 782	3.9050e-01	8.7960	63.136142	0.000879	8.789099	2.977827	-0.070176
 783	3.9100e-01	8.7527	62.821560	0.000788	7.879881	2.669776	-0.062916
 784	3.9150e-01	8.7094	62.757031	0.000162	1.616386	0.547646	-0.012906
 785	3.9200e-01	8.6773	62.648137	0.000273	2.727651	0.924153	-0.021779
 786	3.9250e-01	8.6260	62.220629	0.001071	10.708557	3.628157	-0.085502
 787	3.9300e-01	8.5907	62.043172	0.000445	4.445061	1.506028	-0.035491
 788	3.9350e-01	8.5522	61.821352	0.000556	5.556327	1.882534	-0.044364
 789	3.9400e-01	8.5105	61.567267	0.000636	6.364520	2.156358	-0.050817
 790	3.9450e-01	8.4736	61.418042	0.000374	3.737892	1.266432	-0.029845
 791	3.9500e-01	8.4367	61.103460	0.000788	7.879881	2.669776	-0.062916
 792	3.9550e-01	8.3901	60.905839	0.000495	4.950182	1.677167	-0.039524
 793	3.9600e-01	8.3484	60.510595	0.000990	9.900364	3.354334	-0.079049
 794	3.9650e-01	8.3083	60.405734	0.000263	2.626627	0.889925	-0.020972
 795	3.9700e-01	8.2730	59.978226	0.001071	10.708557	3.628157	-0.085502
 796	3.9750e-01	8.2329	59.857233	0.000303	3.030724	1.026837	-0.024199
 797	3.9800e-01	8.2008	59.595081	0.000657	6.566568	2.224813	-0.052430
 798	3.9850e-01	8.1575	59.260334	0.000839	8.385002	2.840916	-0.066949
 799	3.9900e-01	8.1190	59.312765	-0.000131	-1.313314	-0.444963	0.010486
 800	3.9950e-01	8.0773	58.800561	0.001283	12.830063	4.346943	-0.102441
 801	4.0000e-01	8.0292	58.687634	0.000283	2.828675	0.958381	-0.022585
 802	4.0050e-01	7.9891	58.421450	0.000667	6.667592	2.259041	-0.053237
 803	4.0100e-01	7.9554	58.102835	0.000798	7.980906	2.704004	-0.063723
 804	4.0150e-01	7.9041	58.010074	0.000232	2.323555	0.787242	-0.018552
 805	4.0200e-01	7.8752	57.667260	0.000859	8.587050	2.909371	-0.068563
 806	4.0250e-01	7.8271	57.457539	0.000525	5.253254	1.779851	-0.041944
 807	4.0300e-01	7.7902	57.247818	0.000525	5.253254	1.779851	-0.041944
 808	4.0350e-01	7.7468	56.961468	0.000717	7.172713	2.430181	-0.057270
 809	4.0400e-01	7.7132	56.747714	0.000535	5.354278	1.814079	-0.042751
 810	4.0450e-01	7.6698	56.489596	0.000647	6.465544	2.190586	-0.051624
 811	4.0500e-01	7.6249	56.251643	0.000596	5.960423	2.019446	-0.047591
 812	4.0550e-01	7.5976	56.102418	0.000374	3.737892	1.266432	-0.029845
 813	4.0600e-01	7.5495	55.880598	0.000556	5.556327	1.882534	-0.044364
 814	4.0650e-01	7.5239	55.630546	0.000626	6.263496	2.122130	-0.050010
 815	4.0700e-01	7.4725	55.146574	0.001212	12.122895	4.107348	-0.096794
 816	4.0750e-01	7.4308	55.122375	0.000061	0.606145	0.205367	-0.004840
 817	4.0800e-01	7.3875	54.771496	0.000879	8.789099	2.977827	-0.070176
 818	4.0850e-01	7.3506	54.573874	0.000495	4.950182	1.677167	-0.039524
 819	4.0900e-01	7.3153	54.561774	0.000030	0.303072	0.102684	-0.002420
 820	4.0950e-01	7.2688	53.876148	0.001717	17.174101	5.818743	-0.137125
 821	4.1000e-01	7.2367	53.734989	0.000354	3.535844	1.197976	-0.028232
 822	4.1050e-01	7.1934	53.363944	0.000929	9.294219	3.148967	-0.074209
 823	4.1100e-01	7.1485	53.178422	0.000465	4.647110	1.574483	-0.037105
 824	4.1150e-01	7.1116	52.920303	0.000647	6.465544	2.190586	-0.051624
 825	4.1200e-01	7.0715	52.815443	0.000263	2.626627	0.889925	-0.020972
 826	4.1250e-01	7.0233	52.363736	0.001131	11.314702	3.833525	-0.090341
 827	4.1300e-01	6.9896	52.266941	0.000242	2.424579	0.821470	-0.019359
 828	4.1350e-01	6.9463	51.899929	0.000919	9.193195	3.114739	-0.073402
 829	4.1400e-01	6.9062	51.867665	0.000081	0.808193	0.273823	-0.006453
 830	4.1450e-01	6.8725	51.484520	0.000960	9.597291	3.251650	-0.076629
 831	4.1500e-01	6.8324	51.298998	0.000465	4.647110	1.574483	-0.037105
 832	4.1550e-01	6.7891	51.004581	0.000737	7.374761	2.498637	-0.058883
 833	4.1600e-01	6.7522	50.919886	0.000212	2.121507	0.718786	-0.016939
 834	4.1650e-01	6.7153	50.726298	0.000485	4.849158	1.642939	-0.038718
 835	4.1700e-01	6.6736	50.484312	0.000606	6.061447	2.053674	-0.048397
 836	4.1750e-01	6.6319	50.117300	0.000919	9.193195	3.114739	-0.073402
 837	4.1800e-01	6.5950	49.830950	0.000717	7.172713	2.430181	-0.057270
 838	4.1850e-01	6.5549	49.730122	0.000253	2.525603	0.855697	-0.020165
 839	4.1900e-01	6.5020	49.302614	0.001071	10.708557	3.628157	-0.085502
 840	4.1950e-01	6.4731	48.939635	0.000909	9.092171	3.080511	-0.072596
 841	4.2000e-01	6.4346	48.608921	0.000828	8.283978	2.806688	-0.066143
 842	4.2050e-01	6.3977	48.447597	0.000404	4.040965	1.369116	-0.032265
 843	4.2100e-01	6.3544	48.028155	0.001051	10.506509	3.559701	-0.083888
 844	4.2150e-01	6.3143	48.145115	-0.000293	-2.929700	-0.992609	0.023392
 845	4.2200e-01	6.2661	47.882963	0.000657	6.566568	2.224813	-0.052430
 846	4.2250e-01	6.2389	47.451422	0.001081	10.809581	3.662385	-0.086308
 847	4.2300e-01	6.1923	47.419157	0.000081	0.808193	0.273823	-0.006453
 848	4.2350e-01	6.1490	47.136840	0.000707	7.071688	2.395953	-0.056463
 849	4.2400e-01	6.1169	46.842424	0.000737	7.374761	2.498637	-0.058883
 850	4.2450e-01	6.0752	46.519776	0.000808	8.081930	2.738232	-0.064530
 851	4.2500e-01	6.0367	46.176962	0.000859	8.587050	2.909371	-0.068563
 852	4.2550e-01	5.9950	45.838182	0.000849	8.486026	2.875143	-0.067756
 853	4.2600e-01	5.9533	45.749454	0.000222	2.222531	0.753014	-0.017746
 854	4.2650e-01	5.9148	45.584097	0.000414	4.141989	1.403344	-0.033071
 855	4.2700e-01	5.8779	45.225151	0.000899	8.991147	3.046283	-0.071789
 856	4.2750e-01	5.8362	44.987198	0.000596	5.960423	2.019446	-0.047591
 857	4.2800e-01	5.8009	44.737146	0.000626	6.263496	2.122130	-0.050010
 858	4.2850e-01	5.7608	44.277373	0.001152	11.516750	3.901980	-0.091955
 859	4.2900e-01	5.7159	44.374167	-0.000242	-2.424579	-0.821470	0.019359
 860	4.2950e-01	5.6790	43.946659	0.001071	10.708557	3.628157	-0.085502
 861	4.3000e-01	5.6325	43.801467	0.000364	3.636868	1.232204	-0.029038
 862	4.3050e-01	5.5956	43.547382	0.000636	6.364520	2.156358	-0.050817
 863	4.3100e-01	5.5571	43.168271	0.000950	9.496267	3.217422	-0.075822
 864	4.3150e-01	5.5137	42.833524	0.000839	8.385002	2.840916	-0.066949
 865	4.3200e-01	5.4688	42.656067	0.000445	4.445061	1.506028	-0.035491
 866	4.3250e-01	5.4271	42.357618	0.000748	7.475785	2.532865	-0.059690
 867	4.3300e-01	5.3998	42.248724	0.000273	2.727651	0.924153	-0.021779
 868	4.3350e-01	5.3597	41.776852	0.001182	11.819822	4.004664	-0.094375
 869	4.3400e-01	5.3212	41.421939	0.000889	8.890123	3.012055	-0.070983
 870	4.3450e-01	5.2731	41.381608	0.000101	1.010241	0.342279	-0.008066
 871	4.3500e-01	5.2266	41.196086	0.000465	4.647110	1.574483	-0.037105
 872	4.3550e-01	5.1993	40.889570	0.000768	7.677833	2.601320	-0.061303
 873	4.3600e-01	5.1528	40.679849	0.000525	5.253254	1.779851	-0.041944
 874	4.3650e-01	5.1047	40.377367	0.000758	7.576809	2.567092	-0.060496
 875	4.3700e-01	5.0806	40.111182	0.000667	6.667592	2.259041	-0.053237
 876	4.3750e-01	5.0357	39.913560	0.000495	4.950182	1.677167	-0.039524
 877	4.3800e-01	4.9940	39.598979	0.000788	7.879881	2.669776	-0.062916
 878	4.3850e-01	4.9555	39.240033	0.000899	8.991147	3.046283	-0.071789
 879	4.3900e-01	4.9106	38.929484	0.000778	7.778857	2.635548	-0.062110
 880	4.3950e-01	4.8737	38.695565	0.000586	5.859399	1.985218	-0.046784
 881	4.4000e-01	4.8368	38.578605	0.000293	2.929700	0.992609	-0.023392
 882	4.4050e-01	4.7886	38.126898	0.001131	11.314702	3.833525	-0.090341
 883	4.4100e-01	4.7549	38.038169	0.000222	2.222531	0.753014	-0.017746
 884	4.4150e-01	4.7229	37.812316	0.000566	5.657351	1.916762	-0.045171
 885	4.4200e-01	4.6699	37.384807	0.001071	10.708557	3.628157	-0.085502
 886	4.4250e-01	4.6346	37.187186	0.000495	4.950182	1.677167	-0.039524
 887	4.4300e-01	4.5881	36.896803	0.000727	7.273737	2.464409	-0.058077
 888	4.4350e-01	4.5480	36.529791	0.000919	9.193195	3.114739	-0.073402
 889	4.4400e-01	4.5095	36.412831	0.000293	2.929700	0.992609	-0.023392
 890	4.4450e-01	4.4614	36.086150	0.000818	8.182954	2.772460	-0.065336
 891	4.4500e-01	4.4341	35.836098	0.000626	6.263496	2.122130	-0.050010
 892	4.4550e-01	4.3972	35.747369	0.000222	2.222531	0.753014	-0.017746
 893	4.4600e-01	4.3507	35.275497	0.001182	11.819822	4.004664	-0.094375
 894	4.4650e-01	4.3042	35.045610	0.000576	5.758375	1.950990	-0.045977
 895	4.4700e-01	4.2833	34.759260	0.000717	7.172713	2.430181	-0.057270
 896	4.4750e-01	4.2336	34.412414	0.000869	8.688074	2.943599	-0.069369
 897	4.4800e-01	4.1903	34.291421	0.000303	3.030724	1.026837	-0.024199
 898	4.4850e-01	4.1518	33.932475	0.000899	8.991147	3.046283	-0.071789
 899	4.4900e-01	4.1068	33.726787	0.000515	5.152230	1.745623	-0.041138
 900	4.4950e-01	4.0683	33.383974	0.000859	8.587050	2.909371	-0.068563
 901	4.5000e-01	4.0346	32.976631	0.001020	10.203436	3.457018	-0.081469
 902	4.5050e-01	3.9945	32.779009	0.000495	4.950182	1.677167	-0.039524
 903	4.5100e-01	3.9448	32.484593	0.000737	7.374761	2.498637	-0.058883
 904	4.5150e-01	3.9159	32.295037	0.000475	4.748134	1.608711	-0.037911
 905	4.5200e-01	3.8774	31.960290	0.000839	8.385002	2.840916	-0.066949
 906	4.5250e-01	3.8261	31.738469	0.000556	5.556327	1.882534	-0.044364
 907	4.5300e-01	3.7972	31.532781	0.000515	5.152230	1.745623	-0.041138
 908	4.5350e-01	3.7507	31.181902	0.000879	8.789099	2.977827	-0.070176
 909	4.5400e-01	3.7106	31.004446	0.000445	4.445061	1.506028	-0.035491
 910	4.5450e-01	3.6785	30.681798	0.000808	8.081930	2.738232	-0.064530
 911	4.5500e-01	3.6384	30.468043	0.000535	5.354278	1.814079	-0.042751
 912	4.5550e-01	3.5919	30.181693	0.000717	7.172713	2.430181	-0.057270
 913	4.5600e-01	3.5550	29.927608	0.000636	6.364520	2.156358	-0.050817
 914	4.5650e-01	3.5165	29.431537	0.001243	12.425967	4.210032	-0.099214
 915	4.5700e-01	3.4732	29.290379	0.000354	3.535844	1.197976	-0.028232
 916	4.5750e-01	3.4331	29.020161	0.000677	6.768616	2.293269	-0.054044
 917	4.5800e-01	3.3946	28.588619	0.001081	10.809581	3.662385	-0.086308
 918	4.5850e-01	3.3496	28.600719	-0.000030	-0.303072	-0.102684	0.002420
 919	4.5900e-01	3.3111	28.229674	0.000929	9.294219	3.148967	-0.074209
 920	4.5950e-01	3.2758	28.108681	0.000303	3.030724	1.026837	-0.024199
 921	4.6000e-01	3.2277	27.689238	0.001051	10.506509	3.559701	-0.083888
 922	4.6050e-01	3.1940	27.386756	0.000758	7.576809	2.567092	-0.060496
 923	4.6100e-01	3.1523	27.112505	0.000687	6.869640	2.327497	-0.054850
 924	4.6150e-01	3.1122	26.878586	0.000586	5.859399	1.985218	-0.046784
 925	4.6200e-01	3.0737	26.559971	0.000798	7.980906	2.704004	-0.063723
 926	4.6250e-01	3.0352	26.374448	0.000465	4.647110	1.574483	-0.037105
 927	4.6300e-01	2.9983	25.987271	0.000970	9.698316	3.285878	-0.077435
 928	4.6350e-01	2.9502	25.745285	0.000606	6.061447	2.053674	-0.048397
 929	4.6400e-01	2.9101	25.519431	0.000566	5.657351	1.916762	-0.045171
 930	4.6450e-01	2.8780	25.273412	0.000616	6.162471	2.087902	-0.049204
 931	4.6500e-01	2.8267	25.120155	0.000384	3.838917	1.300660	-0.030652
 932	4.6550e-01	2.7898	24.801540	0.000798	7.980906	2.704004	-0.063723
 933	4.6600e-01	2.7497	24.374031	0.001071	10.708557	3.628157	-0.085502
 934	4.6650e-01	2.7063	24.301436	0.000182	1.818434	0.616102	-0.014519
 935	4.6700e-01	2.6710	23.958622	0.000859	8.587050	2.909371	-0.068563
 936	4.6750e-01	2.6293	23.539180	0.001051	10.506509	3.559701	-0.083888
 937	4.6800e-01	2.5956	23.313326	0.000566	5.657351	1.916762	-0.045171
 938	4.6850e-01	2.5523	23.180234	0.000333	3.333796	1.129521	-0.026618
 939	4.6900e-01	2.5042	22.772891	0.001020	10.203436	3.457018	-0.081469
 940	4.6950e-01	2.4657	22.450243	0.000808	8.081930	2.738232	-0.064530
 941	4.7000e-01	2.4416	22.264721	0.000465	4.647110	1.574483	-0.037105
 942	4.7050e-01	2.3951	21.950139	0.000788	7.879881	2.669776	-0.062916
 943	4.7100e-01	2.3422	21.562962	0.000970	9.698316	3.285878	-0.077435
 944	4.7150e-01	2.3165	21.159652	0.001010	10.102412	3.422790	-0.080662
 945	4.7200e-01	2.2684	21.151586	0.000020	0.202048	0.068456	-0.001613
 946	4.7250e-01	2.2267	20.841037	0.000778	7.778857	2.635548	-0.062110
 947	4.7300e-01	2.1930	20.546621	0.000737	7.374761	2.498637	-0.058883
 948	4.7350e-01	2.1481	20.332867	0.000535	5.354278	1.814079	-0.042751
 949	4.7400e-01	2.1176	19.699670	0.001586	15.860787	5.373780	-0.126639
 950	4.7450e-01	2.0695	19.566578	0.000333	3.333796	1.129521	-0.026618
 951	4.7500e-01	2.0326	19.356857	0.000525	5.253254	1.779851	-0.041944
 952	4.7550e-01	1.9780	19.001944	0.000889	8.890123	3.012055	-0.070983
 953	4.7600e-01	1.9491	18.667197	0.000839	8.385002	2.840916	-0.066949
 954	4.7650e-01	1.9171	18.433277	0.000586	5.859399	1.985218	-0.046784
 955	4.7700e-01	1.8689	18.223556	0.000525	5.253254	1.779851	-0.041944
 956	4.7750e-01	1.8272	17.787981	0.001091	10.910605	3.696613	-0.087115
 957	4.7800e-01	1.7887	17.675055	0.000283	2.828675	0.958381	-0.022585
 958	4.7850e-01	1.7518	17.215281	0.001152	11.516750	3.901980	-0.091955
 959	4.7900e-01	1.7053	17.094288	0.000303	3.030724	1.026837	-0.024199
 960	4.7950e-01	1.6668	16.932964	0.000404	4.040965	1.369116	-0.032265
 961	4.8000e-01	1.6347	16.461092	0.001182	11.819822	4.004664	-0.094375
 962	4.8050e-01	1.5898	16.251371	0.000525	5.253254	1.779851	-0.041944
 963	4.8100e-01	1.5529	15.811763	0.001101	11.011629	3.730841	-0.087922
 964	4.8150e-01	1.5048	15.626241	0.000465	4.647110	1.574483	-0.037105
 965	4.8200e-01	1.4775	15.416519	0.000525	5.253254	1.779851	-0.041944
 966	4.8250e-01	1.4246	15.114037	0.000758	7.576809	2.567092	-0.060496
 967	4.8300e-01	1.3925	14.876084	0.000596	5.960423	2.019446	-0.047591
 968	4.8350e-01	1.3508	14.456642	0.001051	10.506509	3.559701	-0.083888
 969	4.8400e-01	1.3074	14.085597	0.000929	9.294219	3.148967	-0.074209
 970	4.8450e-01	1.2657	14.049299	0.000091	0.909217	0.308051	-0.007260
 971	4.8500e-01	1.2385	13.730684	0.000798	7.980906	2.704004	-0.063723
 972	4.8550e-01	1.1919	13.387871	0.000859	8.587050	2.909371	-0.068563
 973	4.8600e-01	1.1567	13.105554	0.000707	7.071688	2.395953	-0.056463
 974	4.8650e-01	1.1165	12.750641	0.000889	8.890123	3.012055	-0.070983
 975	4.8700e-01	1.0764	12.548986	0.000505	5.051206	1.711395	-0.040331
 976	4.8750e-01	1.0363	12.222305	0.000818	8.182954	2.772460	-0.065336
 977	4.8800e-01	0.9914	11.831095	0.000980	9.799340	3.320106	-0.078242
 978	4.8850e-01	0.9561	11.629440	0.000505	5.051206	1.711395	-0.040331
 979	4.8900e-01	0.9048	11.419719	0.000525	5.253254	1.779851	-0.041944
 980	4.8950e-01	0.8679	11.113203	0.000768	7.677833	2.601320	-0.061303
 981	4.9000e-01	0.8294	10.738125	0.000940	9.395243	3.183195	-0.075016
 982	4.9050e-01	0.7893	10.475974	0.000657	6.566568	2.224813	-0.052430
 983	4.9100e-01	0.7620	10.125094	0.000879	8.789099	2.977827	-0.070176
 984	4.9150e-01	0.7123	9.858910	0.000667	6.667592	2.259041	-0.053237
 985	4.9200e-01	0.6722	9.596758	0.000657	6.566568	2.224813	-0.052430
 986	4.9250e-01	0.6305	9.274110	0.000808	8.081930	2.738232	-0.064530
 987	4.9300e-01	0.5920	9.161183	0.000283	2.828675	0.958381	-0.022585
 988	4.9350e-01	0.5535	8.786105	0.000940	9.395243	3.183195	-0.075016
 989	4.9400e-01	0.5085	8.632848	0.000384	3.838917	1.300660	-0.030652
 990	4.9450e-01	0.4636	8.144843	0.001222	12.223919	4.141576	-0.097601
 991	4.9500e-01	0.4283	7.842360	0.000758	7.576809	2.567092	-0.060496
 992	4.9550e-01	0.3962	7.382587	0.001152	11.516750	3.901980	-0.091955
 993	4.9600e-01	0.3513	7.305958	0.000192	1.919458	0.650330	-0.015326
 994	4.9650e-01	0.3096	7.108336	0.000495	4.950182	1.677167	-0.039524
 995	4.9700e-01	0.2695	6.495305	0.001536	15.355666	5.202641	-0.122606
 996	4.9750e-01	0.2182	6.426743	0.000172	1.717410	0.581874	-0.013713
 997	4.9800e-01	0.1957	6.108128	0.000798	7.980906	2.704004	-0.063723
 998	4.9850e-01	0.1524	5.809679	0.000748	7.475785	2.532865	-0.059690
 999	4.9900e-01	0.1075	5.688686	0.000303	3.030724	1.026837	-0.024199
1000	4.9950e-01	0.0658	5.309574	0.000950	9.496267	3.217422	-0.075822
1001	5.0000e-01	0.0241	4.720742	0.001475	14.749522	4.997273	-0.117766
1002	5.0050e-01	-0.0048	4.547319	0.000434	4.344037	1.471800	-0.034685
1003	5.0100e-01	-0.0353	4.462624	0.000212	2.121507	0.718786	-0.016939
1004	5.0150e-01	-0.0786	3.990751	0.001182	11.819822	4.004664	-0.094375
1005	5.0200e-01	-0.1235	3.893957	0.000242	2.424579	0.821470	-0.019359
1006	5.0250e-01	-0.1588	3.635838	0.000647	6.465544	2.190586	-0.051624
1007	5.0300e-01	-0.2021	3.256727	0.000950	9.496267	3.217422	-0.075822
1008	5.0350e-01	-0.2471	2.966344	0.000727	7.273737	2.464409	-0.058077
1009	5.0400e-01	-0.2856	2.667895	0.000748	7.475785	2.532865	-0.059690
1010	5.0450e-01	-0.3176	2.425909	0.000606	6.061447	2.053674	-0.048397
1011	5.0500e-01	-0.3593	2.212155	0.000535	5.354278	1.814079	-0.042751
1012	5.0550e-01	-0.4043	1.712050	0.001253	12.526991	4.244259	-0.100021
1013	5.0600e-01	-0.4428	1.506362	0.000515	5.152230	1.745623	-0.041138
1014	5.0650e-01	-0.4781	1.272443	0.000586	5.859399	1.985218	-0.046784
1015	5.0700e-01	-0.5214	0.873166	0.001000	10.001388	3.388562	-0.079855
1016	5.0750e-01	-0.5535	0.602948	0.000677	6.768616	2.293269	-0.054044
1017	5.0800e-01	-0.5952	0.292400	0.000778	7.778857	2.635548	-0.062110
1018	5.0850e-01	-0.6433	-0.082679	0.000940	9.395243	3.183195	-0.075016
1019	5.0900e-01	-0.6850	-0.405326	0.000808	8.081930	2.738232	-0.064530
1020	5.0950e-01	-0.7283	-0.510187	0.000263	2.626627	0.889925	-0.020972
1021	5.1000e-01	-0.7636	-0.828802	0.000798	7.980906	2.704004	-0.063723
1022	5.1050e-01	-0.8085	-1.058688	0.000576	5.758375	1.950990	-0.045977
1023	5.1100e-01	-0.8406	-1.240178	0.000455	4.546085	1.540255	-0.036298
1024	5.1150e-01	-0.8903	-1.639455	0.001000	10.001388	3.388562	-0.079855
1025	5.1200e-01	-0.9272	-1.937904	0.000748	7.475785	2.532865	-0.059690
1026	5.1250e-01	-0.9657	-2.337181	0.001000	10.001388	3.388562	-0.079855
1027	5.1300e-01	-1.0026	-2.720325	0.000960	9.597291	3.251650	-0.076629
1028	5.1350e-01	-1.0315	-2.921980	0.000505	5.051206	1.711395	-0.040331
1029	5.1400e-01	-1.0845	-3.317224	0.000990	9.900364	3.354334	-0.079049
1030	5.1450e-01	-1.1246	-3.543077	0.000566	5.657351	1.916762	-0.045171
1031	5.1500e-01	-1.1663	-3.922188	0.000950	9.496267	3.217422	-0.075822
1032	5.1550e-01	-1.2032	-4.188373	0.000667	6.667592	2.259041	-0.053237
1033	5.1600e-01	-1.2417	-4.349697	0.000404	4.040965	1.369116	-0.032265
1034	5.1650e-01	-1.2818	-4.636047	0.000717	7.172713	2.430181	-0.057270
1035	5.1700e-01	-1.3315	-4.898198	0.000657	6.566568	2.224813	-0.052430
1036	5.1750e-01	-1.3604	-4.986926	0.000222	2.222531	0.753014	-0.017746
1037	5.1800e-01	-1.3989	-5.660454	0.001687	16.871028	5.716059	-0.134705
1038	5.1850e-01	-1.4454	-5.934705	0.000687	6.869640	2.327497	-0.054850
1039	5.1900e-01	-1.4807	-6.237187	0.000758	7.576809	2.567092	-0.060496
1040	5.1950e-01	-1.5288	-6.575967	0.000849	8.486026	2.875143	-0.067756
1041	5.2000e-01	-1.5593	-6.862317	0.000717	7.172713	2.430181	-0.057270
1042	5.2050e-01	-1.6058	-7.233362	0.000929	9.294219	3.148967	-0.074209
1043	5.2100e-01	-1.6492	-7.277726	0.000111	1.111265	0.376507	-0.008873
1044	5.2150e-01	-1.6748	-7.693136	0.001041	10.405484	3.525474	-0.083082
1045	5.2200e-01	-1.7246	-8.084346	0.000980	9.799340	3.320106	-0.078242
1046	5.2250e-01	-1.7598	-8.302133	0.000546	5.455303	1.848307	-0.043557
1047	5.2300e-01	-1.8048	-8.515888	0.000535	5.354278	1.814079	-0.042751
1048	5.2350e-01	-1.8481	-8.822403	0.000768	7.677833	2.601320	-0.061303
1049	5.2400e-01	-1.8850	-8.903065	0.000202	2.020482	0.684558	-0.016132
1050	5.2450e-01	-1.9203	-9.387037	0.001212	12.122895	4.107348	-0.096794
1051	5.2500e-01	-1.9556	-9.758082	0.000929	9.294219	3.148967	-0.074209
1052	5.2550e-01	-2.0037	-10.044432	0.000717	7.172713	2.430181	-0.057270
1053	5.2600e-01	-2.0486	-10.407411	0.000909	9.092171	3.080511	-0.072596
1054	5.2650e-01	-2.0807	-10.556636	0.000374	3.737892	1.266432	-0.029845
1055	5.2700e-01	-2.1240	-10.665529	0.000273	2.727651	0.924153	-0.021779
1056	5.2750e-01	-2.1657	-11.113203	0.001121	11.213677	3.799297	-0.089535
1057	5.2800e-01	-2.2010	-11.322924	0.000525	5.253254	1.779851	-0.041944
1058	5.2850e-01	-2.2395	-11.766565	0.001111	11.112653	3.765069	-0.088728
1059	5.2900e-01	-2.2844	-11.931922	0.000414	4.141989	1.403344	-0.033071
1060	5.2950e-01	-2.3229	-12.177941	0.000616	6.162471	2.087902	-0.049204
1061	5.3000e-01	-2.3646	-12.561086	0.000960	9.597291	3.251650	-0.076629
1062	5.3050e-01	-2.3967	-12.911965	0.000879	8.789099	2.977827	-0.070176
1063	5.3100e-01	-2.4449	-13.170083	0.000647	6.465544	2.190586	-0.051624
1064	5.3150e-01	-2.4801	-13.444334	0.000687	6.869640	2.327497	-0.054850
1065	5.3200e-01	-2.5235	-13.670188	0.000566	5.657351	1.916762	-0.045171
1066	5.3250e-01	-2.5668	-14.202557	0.001334	13.335184	4.518083	-0.106474
1067	5.3300e-01	-2.5989	-14.343715	0.000354	3.535844	1.197976	-0.028232
1068	5.3350e-01	-2.6486	-14.601833	0.000647	6.465544	2.190586	-0.051624
1069	5.3400e-01	-2.6823	-14.738959	0.000343	3.434820	1.163749	-0.027425
1070	5.3450e-01	-2.7240	-15.033375	0.000737	7.374761	2.498637	-0.058883
1071	5.3500e-01	-2.7641	-15.343924	0.000778	7.778857	2.635548	-0.062110
1072	5.3550e-01	-2.7994	-15.799664	0.001142	11.415726	3.867753	-0.091148
1073	5.3600e-01	-2.8491	-16.267503	0.001172	11.718798	3.970436	-0.093568
1074	5.3650e-01	-2.8892	-16.489324	0.000556	5.556327	1.882534	-0.044364
1075	5.3700e-01	-2.9229	-16.763574	0.000687	6.869640	2.327497	-0.054850
1076	5.3750e-01	-2.9582	-17.090255	0.000818	8.182954	2.772460	-0.065336
1077	5.3800e-01	-3.0015	-17.259645	0.000424	4.243013	1.437572	-0.033878
1078	5.3850e-01	-3.0416	-17.594393	0.000839	8.385002	2.840916	-0.066949
1079	5.3900e-01	-3.0849	-17.699253	0.000263	2.626627	0.889925	-0.020972
1080	5.3950e-01	-3.1218	-18.086431	0.000970	9.698316	3.285878	-0.077435
1081	5.4000e-01	-3.1652	-18.388913	0.000758	7.576809	2.567092	-0.060496
1082	5.4050e-01	-3.2053	-18.735760	0.000869	8.688074	2.943599	-0.069369
1083	5.4100e-01	-3.2502	-18.909183	0.000434	4.344037	1.471800	-0.034685
1084	5.4150e-01	-3.2887	-19.332658	0.001061	10.607533	3.593929	-0.084695
1085	5.4200e-01	-3.3240	-19.409287	0.000192	1.919458	0.650330	-0.015326
1086	5.4250e-01	-3.3625	-19.740001	0.000828	8.283978	2.806688	-0.066143
1087	5.4300e-01	-3.4026	-20.163476	0.001061	10.607533	3.593929	-0.084695
1088	5.4350e-01	-3.4491	-20.373198	0.000525	5.253254	1.779851	-0.041944
1089	5.4400e-01	-3.4892	-20.478058	0.000263	2.626627	0.889925	-0.020972
1090	5.4450e-01	-3.5213	-20.824905	0.000869	8.688074	2.943599	-0.069369
1091	5.4500e-01	-3.5646	-21.208049	0.000960	9.597291	3.251650	-0.076629
1092	5.4550e-01	-3.6031	-21.510531	0.000758	7.576809	2.567092	-0.060496
1093	5.4600e-01	-3.6416	-21.808981	0.000748	7.475785	2.532865	-0.059690
1094	5.4650e-01	-3.6913	-22.026768	0.000546	5.455303	1.848307	-0.043557
1095	5.4700e-01	-3.7266	-22.301019	0.000687	6.869640	2.327497	-0.054850
1096	5.4750e-01	-3.7635	-22.454276	0.000384	3.838917	1.300660	-0.030652
1097	5.4800e-01	-3.8004	-22.845487	0.000980	9.799340	3.320106	-0.078242
1098	5.4850e-01	-3.8373	-23.071341	0.000566	5.657351	1.916762	-0.045171
1099	5.4900e-01	-3.8742	-23.373823	0.000758	7.576809	2.567092	-0.060496
1100	5.4950e-01	-3.9223	-23.720669	0.000869	8.688074	2.943599	-0.069369
1101	5.5000e-01	-3.9609	-23.954589	0.000586	5.859399	1.985218	-0.046784
1102	5.5050e-01	-3.9977	-24.305469	0.000879	8.789099	2.977827	-0.070176
1103	5.5100e-01	-4.0443	-24.503091	0.000495	4.950182	1.677167	-0.039524
1104	5.5150e-01	-4.0876	-24.704745	0.000505	5.051206	1.711395	-0.040331
1105	5.5200e-01	-4.1245	-24.995129	0.000727	7.273737	2.464409	-0.058077
1106	5.5250e-01	-4.1582	-25.305677	0.000778	7.778857	2.635548	-0.062110
1107	5.5300e-01	-4.2047	-25.406505	0.000253	2.525603	0.855697	-0.020165
1108	5.5350e-01	-4.2496	-25.753351	0.000869	8.688074	2.943599	-0.069369
1109	5.5400e-01	-4.2881	-26.124396	0.000929	9.294219	3.148967	-0.074209
1110	5.5450e-01	-4.3282	-26.326051	0.000505	5.051206	1.711395	-0.040331
1111	5.5500e-01	-4.3523	-26.640633	0.000788	7.879881	2.669776	-0.062916
1112	5.5550e-01	-4.4004	-27.152836	0.001283	12.830063	4.346943	-0.102441
1113	5.5600e-01	-4.4421	-27.374657	0.000556	5.556327	1.882534	-0.044364
1114	5.5650e-01	-4.4790	-27.523881	0.000374	3.737892	1.266432	-0.029845
1115	5.5700e-01	-4.5223	-27.858629	0.000839	8.385002	2.840916	-0.066949
1116	5.5750e-01	-4.5608	-28.165144	0.000768	7.677833	2.601320	-0.061303
1117	5.5800e-01	-4.6074	-28.693480	0.001323	13.234160	4.483855	-0.105667
1118	5.5850e-01	-4.6443	-28.717679	0.000061	0.606145	0.205367	-0.004840
1119	5.5900e-01	-4.6892	-28.887069	0.000424	4.243013	1.437572	-0.033878
1120	5.5950e-01	-4.7197	-29.233915	0.000869	8.688074	2.943599	-0.069369
1121	5.6000e-01	-4.7678	-29.403305	0.000424	4.243013	1.437572	-0.033878
1122	5.6050e-01	-4.7967	-29.633192	0.000576	5.758375	1.950990	-0.045977
1123	5.6100e-01	-4.8464	-29.879211	0.000616	6.162471	2.087902	-0.049204
1124	5.6150e-01	-4.8801	-30.201859	0.000808	8.081930	2.738232	-0.064530
1125	5.6200e-01	-4.9250	-30.556772	0.000889	8.890123	3.012055	-0.070983
1126	5.6250e-01	-4.9587	-30.831022	0.000687	6.869640	2.327497	-0.054850
1127	5.6300e-01	-5.0100	-30.935883	0.000263	2.626627	0.889925	-0.020972
1128	5.6350e-01	-5.0421	-31.363391	0.001071	10.708557	3.628157	-0.085502
1129	5.6400e-01	-5.0870	-31.516649	0.000384	3.838917	1.300660	-0.030652
1130	5.6450e-01	-5.1239	-31.960290	0.001111	11.112653	3.765069	-0.088728
1131	5.6500e-01	-5.1688	-32.178077	0.000546	5.455303	1.848307	-0.043557
1132	5.6550e-01	-5.2057	-32.371666	0.000485	4.849158	1.642939	-0.038718
1133	5.6600e-01	-5.2442	-32.581387	0.000525	5.253254	1.779851	-0.041944
1134	5.6650e-01	-5.2747	-33.081491	0.001253	12.526991	4.244259	-0.100021
1135	5.6700e-01	-5.3244	-33.509000	0.001071	10.708557	3.628157	-0.085502
1136	5.6750e-01	-5.3533	-33.529165	0.000051	0.505121	0.171139	-0.004033
1137	5.6800e-01	-5.3966	-33.678390	0.000374	3.737892	1.266432	-0.029845
1138	5.6850e-01	-5.4448	-33.876012	0.000495	4.950182	1.677167	-0.039524
1139	5.6900e-01	-5.4769	-34.222858	0.000869	8.688074	2.943599	-0.069369
1140	5.6950e-01	-5.5170	-34.662466	0.001101	11.011629	3.730841	-0.087922
1141	5.7000e-01	-5.5683	-34.795558	0.000333	3.333796	1.129521	-0.026618
1142	5.7050e-01	-5.6084	-35.098041	0.000758	7.576809	2.567092	-0.060496
1143	5.7100e-01	-5.6389	-35.331960	0.000586	5.859399	1.985218	-0.046784
1144	5.7150e-01	-5.6886	-35.521516	0.000475	4.748134	1.608711	-0.037911
1145	5.7200e-01	-5.7351	-35.803833	0.000707	7.071688	2.395953	-0.056463
1146	5.7250e-01	-5.7720	-36.065984	0.000657	6.566568	2.224813	-0.052430
1147	5.7300e-01	-5.8009	-36.283772	0.000546	5.455303	1.848307	-0.043557
1148	5.7350e-01	-5.8474	-36.449129	0.000414	4.141989	1.403344	-0.033071
1149	5.7400e-01	-5.8827	-36.836306	0.000970	9.698316	3.285878	-0.077435
1150	5.7450e-01	-5.9180	-37.110557	0.000687	6.869640	2.327497	-0.054850
1151	5.7500e-01	-5.9613	-37.465469	0.000889	8.890123	3.012055	-0.070983
1152	5.7550e-01	-6.0046	-37.598562	0.000333	3.333796	1.129521	-0.026618
1153	5.7600e-01	-6.0496	-37.872812	0.000687	6.869640	2.327497	-0.054850
1154	5.7650e-01	-6.0816	-38.102699	0.000576	5.758375	1.950990	-0.045977
1155	5.7700e-01	-6.1250	-38.506009	0.001010	10.102412	3.422790	-0.080662
1156	5.7750e-01	-6.1619	-38.651200	0.000364	3.636868	1.232204	-0.029038
1157	5.7800e-01	-6.2052	-38.840756	0.000475	4.748134	1.608711	-0.037911
1158	5.7850e-01	-6.2437	-39.090808	0.000626	6.263496	2.122130	-0.050010
1159	5.7900e-01	-6.2822	-39.598979	0.001273	12.729039	4.312715	-0.101634
1160	5.7950e-01	-6.3127	-39.768369	0.000424	4.243013	1.437572	-0.033878
1161	5.8000e-01	-6.3672	-39.764336	-0.000010	-0.101024	-0.034228	0.000807
1162	5.8050e-01	-6.4041	-40.183778	0.001051	10.506509	3.559701	-0.083888
1163	5.8100e-01	-6.4506	-40.768577	0.001465	14.648498	4.963045	-0.116960
1164	5.8150e-01	-6.4891	-40.708081	-0.000152	-1.515362	-0.513418	0.012099
1165	5.8200e-01	-6.5180	-40.998464	0.000727	7.273737	2.464409	-0.058077
1166	5.8250e-01	-6.5501	-41.365476	0.000919	9.193195	3.114739	-0.073402
1167	5.8300e-01	-6.6014	-41.458237	0.000232	2.323555	0.787242	-0.018552
1168	5.8350e-01	-6.6431	-41.744587	0.000717	7.172713	2.430181	-0.057270
1169	5.8400e-01	-6.6768	-41.869613	0.000313	3.131748	1.061065	-0.025005
1170	5.8450e-01	-6.7105	-42.385850	0.001293	12.931087	4.381171	-0.103247
1171	5.8500e-01	-6.7634	-42.680266	0.000737	7.374761	2.498637	-0.058883
1172	5.8550e-01	-6.8003	-42.990815	0.000778	7.778857	2.635548	-0.062110
1173	5.8600e-01	-6.8469	-43.188436	0.000495	4.950182	1.677167	-0.039524
1174	5.8650e-01	-6.8854	-43.349760	0.000404	4.040965	1.369116	-0.032265
1175	5.8700e-01	-6.9191	-43.507051	0.000394	3.939941	1.334888	-0.031458
1176	5.8750e-01	-6.9656	-43.841798	0.000839	8.385002	2.840916	-0.066949
1177	5.8800e-01	-7.0009	-44.015222	0.000434	4.344037	1.471800	-0.034685
1178	5.8850e-01	-7.0265	-44.358035	0.000859	8.587050	2.909371	-0.068563
1179	5.8900e-01	-7.0699	-44.507260	0.000374	3.737892	1.266432	-0.029845
1180	5.8950e-01	-7.1196	-44.813775	0.000768	7.677833	2.601320	-0.061303
1181	5.9000e-01	-7.1629	-45.079960	0.000667	6.667592	2.259041	-0.053237
1182	5.9050e-01	-7.2030	-45.229184	0.000374	3.737892	1.266432	-0.029845
1183	5.9100e-01	-7.2415	-45.531667	0.000758	7.576809	2.567092	-0.060496
1184	5.9150e-01	-7.2880	-45.826083	0.000737	7.374761	2.498637	-0.058883
1185	5.9200e-01	-7.3153	-45.930943	0.000263	2.626627	0.889925	-0.020972
1186	5.9250e-01	-7.3554	-46.116466	0.000465	4.647110	1.574483	-0.037105
1187	5.9300e-01	-7.3971	-46.475412	0.000899	8.991147	3.046283	-0.071789
1188	5.9350e-01	-7.4404	-46.713365	0.000596	5.960423	2.019446	-0.047591
1189	5.9400e-01	-7.4821	-46.830324	0.000293	2.929700	0.992609	-0.023392
1190	5.9450e-01	-7.5206	-47.157005	0.000818	8.182954	2.772460	-0.065336
1191	5.9500e-01	-7.5559	-47.524017	0.000919	9.193195	3.114739	-0.073402
1192	5.9550e-01	-7.6009	-47.895062	0.000929	9.294219	3.148967	-0.074209
1193	5.9600e-01	-7.6458	-47.987824	0.000232	2.323555	0.787242	-0.018552
1194	5.9650e-01	-7.6843	-48.286273	0.000748	7.475785	2.532865	-0.059690
1195	5.9700e-01	-7.7308	-48.379034	0.000232	2.323555	0.787242	-0.018552
1196	5.9750e-01	-7.7565	-48.568590	0.000475	4.748134	1.608711	-0.037911
1197	5.9800e-01	-7.7982	-48.919469	0.000879	8.789099	2.977827	-0.070176
1198	5.9850e-01	-7.8447	-49.322779	0.001010	10.102412	3.422790	-0.080662
1199	5.9900e-01	-7.8800	-49.556699	0.000586	5.859399	1.985218	-0.046784
1200	5.9950e-01	-7.9217	-49.887413	0.000828	8.283978	2.806688	-0.066143
1201	6.0000e-01	-7.9618	-49.915645	0.000071	0.707169	0.239595	-0.005646
1202	6.0050e-01	-8.0067	-50.177796	0.000657	6.566568	2.224813	-0.052430
1203	6.0100e-01	-8.0468	-50.351220	0.000434	4.344037	1.471800	-0.034685
1204	6.0150e-01	-8.0837	-50.718231	0.000919	9.193195	3.114739	-0.073402
1205	6.0200e-01	-8.1254	-50.875522	0.000394	3.939941	1.334888	-0.031458
1206	6.0250e-01	-8.1639	-51.057012	0.000455	4.546085	1.540255	-0.036298
1207	6.0300e-01	-8.2024	-51.383693	0.000818	8.182954	2.772460	-0.065336
1208	6.0350e-01	-8.2409	-51.782970	0.001000	10.001388	3.388562	-0.079855
1209	6.0400e-01	-8.2714	-52.041088	0.000647	6.465544	2.190586	-0.051624
1210	6.0450e-01	-8.3308	-52.242743	0.000505	5.051206	1.711395	-0.040331
1211	6.0500e-01	-8.3597	-52.440365	0.000495	4.950182	1.677167	-0.039524
1212	6.0550e-01	-8.3998	-52.621854	0.000455	4.546085	1.540255	-0.036298
1213	6.0600e-01	-8.4431	-52.738814	0.000293	2.929700	0.992609	-0.023392
1214	6.0650e-01	-8.4880	-53.154223	0.001041	10.405484	3.525474	-0.083082
1215	6.0700e-01	-8.5249	-53.436540	0.000707	7.071688	2.395953	-0.056463
1216	6.0750e-01	-8.5634	-53.589798	0.000384	3.838917	1.300660	-0.030652
1217	6.0800e-01	-8.6051	-53.924545	0.000839	8.385002	2.840916	-0.066949
1218	6.0850e-01	-8.6436	-54.154431	0.000576	5.758375	1.950990	-0.045977
1219	6.0900e-01	-8.6821	-54.372219	0.000546	5.455303	1.848307	-0.043557
1220	6.0950e-01	-8.7174	-54.525477	0.000384	3.838917	1.300660	-0.030652
1221	6.1000e-01	-8.7543	-54.634370	0.000273	2.727651	0.924153	-0.021779
1222	6.1050e-01	-8.7992	-54.880389	0.000616	6.162471	2.087902	-0.049204
1223	6.1100e-01	-8.8441	-55.396626	0.001293	12.931087	4.381171	-0.103247
1224	6.1150e-01	-8.8746	-55.481321	0.000212	2.121507	0.718786	-0.016939
1225	6.1200e-01	-8.9308	-55.719274	0.000596	5.960423	2.019446	-0.047591
1226	6.1250e-01	-8.9612	-56.033855	0.000788	7.879881	2.669776	-0.062916
1227	6.1300e-01	-8.9981	-56.166948	0.000333	3.333796	1.129521	-0.026618
1228	6.1350e-01	-9.0447	-56.392801	0.000566	5.657351	1.916762	-0.045171
1229	6.1400e-01	-9.0880	-56.679151	0.000717	7.172713	2.430181	-0.057270
1230	6.1450e-01	-9.1185	-56.860641	0.000455	4.546085	1.540255	-0.036298
1231	6.1500e-01	-9.1618	-56.981634	0.000303	3.030724	1.026837	-0.024199
1232	6.1550e-01	-9.2003	-57.421241	0.001101	11.011629	3.730841	-0.087922
1233	6.1600e-01	-9.2516	-57.639029	0.000546	5.455303	1.848307	-0.043557
1234	6.1650e-01	-9.2901	-57.647095	0.000020	0.202048	0.068456	-0.001613
1235	6.1700e-01	-9.3238	-57.961677	0.000788	7.879881	2.669776	-0.062916
1236	6.1750e-01	-9.3671	-58.332722	0.000929	9.294219	3.148967	-0.074209
1237	6.1800e-01	-9.4056	-58.635204	0.000758	7.576809	2.567092	-0.060496
1238	6.1850e-01	-9.4377	-58.824760	0.000475	4.748134	1.608711	-0.037911
1239	6.1900e-01	-9.4858	-58.990117	0.000414	4.141989	1.403344	-0.033071
1240	6.1950e-01	-9.5195	-59.381327	0.000980	9.799340	3.320106	-0.078242
1241	6.2000e-01	-9.5692	-59.437791	0.000141	1.414338	0.479191	-0.011293
1242	6.2050e-01	-9.6029	-59.708008	0.000677	6.768616	2.293269	-0.054044
1243	6.2100e-01	-9.6463	-60.179881	0.001182	11.819822	4.004664	-0.094375
1244	6.2150e-01	-9.6799	-60.208112	0.000071	0.707169	0.239595	-0.005646
1245	6.2200e-01	-9.7249	-60.458165	0.000626	6.263496	2.122130	-0.050010
1246	6.2250e-01	-9.7569	-60.607389	0.000374	3.737892	1.266432	-0.029845
1247	6.2300e-01	-9.8099	-60.712250	0.000263	2.626627	0.889925	-0.020972
1248	6.2350e-01	-9.8436	-61.107493	0.000990	9.900364	3.354334	-0.079049
1249	6.2400e-01	-9.8837	-61.236553	0.000323	3.232772	1.095293	-0.025812
1250	6.2450e-01	-9.9270	-61.619697	0.000960	9.597291	3.251650	-0.076629
1251	6.2500e-01	-9.9655	-61.720524	0.000253	2.525603	0.855697	-0.020165
1252	6.2550e-01	-10.0040	-61.877815	0.000394	3.939941	1.334888	-0.031458
1253	6.2600e-01	-10.0441	-62.373886	0.001243	12.425967	4.210032	-0.099214
1254	6.2650e-01	-10.0730	-62.724766	0.000879	8.789099	2.977827	-0.070176
1255	6.2700e-01	-10.1291	-62.684435	-0.000101	-1.010241	-0.342279	0.008066
1256	6.2750e-01	-10.1596	-62.986917	0.000758	7.576809	2.567092	-0.060496
1257	6.2800e-01	-10.2045	-63.333764	0.000869	8.688074	2.943599	-0.069369
1258	6.2850e-01	-10.2334	-63.636246	0.000758	7.576809	2.567092	-0.060496
1259	6.2900e-01	-10.2815	-63.668511	0.000081	0.808193	0.273823	-0.006453
1260	6.2950e-01	-10.3184	-63.942762	0.000687	6.869640	2.327497	-0.054850
1261	6.3000e-01	-10.3649	-64.317840	0.000940	9.395243	3.183195	-0.075016
1262	6.3050e-01	-10.3954	-64.503362	0.000465	4.647110	1.574483	-0.037105
1263	6.3100e-01	-10.4371	-64.692918	0.000475	4.748134	1.608711	-0.037911
1264	6.3150e-01	-10.4837	-64.934904	0.000606	6.061447	2.053674	-0.048397
1265	6.3200e-01	-10.5238	-65.084129	0.000374	3.737892	1.266432	-0.029845
1266	6.3250e-01	-10.5575	-65.273684	0.000475	4.748134	1.608711	-0.037911
1267	6.3300e-01	-10.6024	-65.398710	0.000313	3.131748	1.061065	-0.025005
1268	6.3350e-01	-10.6441	-65.624564	0.000566	5.657351	1.916762	-0.045171
1269	6.3400e-01	-10.6714	-65.862517	0.000596	5.960423	2.019446	-0.047591
1270	6.3450e-01	-10.7179	-66.257760	0.000990	9.900364	3.354334	-0.079049
1271	6.3500e-01	-10.7692	-66.302124	0.000111	1.111265	0.376507	-0.008873
1272	6.3550e-01	-10.7997	-66.725600	0.001061	10.607533	3.593929	-0.084695
1273	6.3600e-01	-10.8350	-66.866758	0.000354	3.535844	1.197976	-0.028232
1274	6.3650e-01	-10.8767	-67.084546	0.000546	5.455303	1.848307	-0.043557
1275	6.3700e-01	-10.9296	-67.451558	0.000919	9.193195	3.114739	-0.073402
1276	6.3750e-01	-10.9585	-67.479789	0.000071	0.707169	0.239595	-0.005646
1277	6.3800e-01	-11.0018	-67.798404	0.000798	7.980906	2.704004	-0.063723
1278	6.3850e-01	-11.0419	-68.016191	0.000546	5.455303	1.848307	-0.043557
1279	6.3900e-01	-11.0740	-68.100886	0.000212	2.121507	0.718786	-0.016939
1280	6.3950e-01	-11.1189	-68.455799	0.000889	8.890123	3.012055	-0.070983
1281	6.4000e-01	-11.1574	-68.697785	0.000606	6.061447	2.053674	-0.048397
1282	6.4050e-01	-11.1991	-69.093029	0.000990	9.900364	3.354334	-0.079049
1283	6.4100e-01	-11.2441	-69.117227	0.000061	0.606145	0.205367	-0.004840
1284	6.4150e-01	-11.2890	-69.480206	0.000909	9.092171	3.080511	-0.072596
1285	6.4200e-01	-11.3227	-69.383412	-0.000242	-2.424579	-0.821470	0.019359
1286	6.4250e-01	-11.3708	-69.681861	0.000748	7.475785	2.532865	-0.059690
1287	6.4300e-01	-11.3981	-69.931913	0.000626	6.263496	2.122130	-0.050010
1288	6.4350e-01	-11.4382	-70.294892	0.000909	9.092171	3.080511	-0.072596
1289	6.4400e-01	-11.4895	-70.302958	0.000020	0.202048	0.068456	-0.001613
1290	6.4450e-01	-11.5344	-70.734500	0.001081	10.809581	3.662385	-0.086308
1291	6.4500e-01	-11.5585	-70.843393	0.000273	2.727651	0.924153	-0.021779
1292	6.4550e-01	-11.6098	-71.101512	0.000647	6.465544	2.190586	-0.051624
1293	6.4600e-01	-11.6451	-71.335432	0.000586	5.859399	1.985218	-0.046784
1294	6.4650e-01	-11.6724	-71.617748	0.000707	7.071688	2.395953	-0.056463
1295	6.4700e-01	-11.7221	-71.815370	0.000495	4.950182	1.677167	-0.039524
1296	6.4750e-01	-11.7622	-71.847635	0.000081	0.808193	0.273823	-0.006453
1297	6.4800e-01	-11.7991	-72.214647	0.000919	9.193195	3.114739	-0.073402
1298	6.4850e-01	-11.8441	-72.388070	0.000434	4.344037	1.471800	-0.034685
1299	6.4900e-01	-11.8858	-72.892208	0.001263	12.628015	4.278487	-0.100827
1300	6.4950e-01	-11.9162	-73.001101	0.000273	2.727651	0.924153	-0.021779
1301	6.5000e-01	-11.9644	-73.154359	0.000384	3.838917	1.300660	-0.030652
1302	6.5050e-01	-12.0013	-73.315683	0.000404	4.040965	1.369116	-0.032265
1303	6.5100e-01	-12.0430	-73.408444	0.000232	2.323555	0.787242	-0.018552
1304	6.5150e-01	-12.0783	-73.775456	0.000919	9.193195	3.114739	-0.073402
1305	6.5200e-01	-12.1328	-73.912582	0.000343	3.434820	1.163749	-0.027425
1306	6.5250e-01	-12.1585	-74.384454	0.001182	11.819822	4.004664	-0.094375
1307	6.5300e-01	-12.1970	-74.598208	0.000535	5.354278	1.814079	-0.042751
1308	6.5350e-01	-12.2403	-74.703069	0.000263	2.626627	0.889925	-0.020972
1309	6.5400e-01	-12.2836	-74.912790	0.000525	5.253254	1.779851	-0.041944
1310	6.5450e-01	-12.3221	-75.191074	0.000697	6.970664	2.361725	-0.055657
1311	6.5500e-01	-12.3670	-75.251570	0.000152	1.515362	0.513418	-0.012099
1312	6.5550e-01	-12.4007	-75.533887	0.000707	7.071688	2.395953	-0.056463
1313	6.5600e-01	-12.4440	-75.771840	0.000596	5.960423	2.019446	-0.047591
1314	6.5650e-01	-12.4890	-75.912998	0.000354	3.535844	1.197976	-0.028232
1315	6.5700e-01	-12.5226	-76.017859	0.000263	2.626627	0.889925	-0.020972
1316	6.5750e-01	-12.5660	-76.255812	0.000596	5.960423	2.019446	-0.047591
1317	6.5800e-01	-12.6012	-76.659122	0.001010	10.102412	3.422790	-0.080662
1318	6.5850e-01	-12.6462	-76.763982	0.000263	2.626627	0.889925	-0.020972
1319	6.5900e-01	-12.6863	-76.913207	0.000374	3.737892	1.266432	-0.029845
1320	6.5950e-01	-12.7264	-77.102763	0.000475	4.748134	1.608711	-0.037911
1321	6.6000e-01	-12.7665	-77.590767	0.001222	12.223919	4.141576	-0.097601
1322	6.6050e-01	-12.7970	-77.844853	0.000636	6.364520	2.156358	-0.050817
1323	6.6100e-01	-12.8355	-77.869051	0.000061	0.606145	0.205367	-0.004840
1324	6.6150e-01	-12.8916	-78.437718	0.001424	14.244401	4.826134	-0.113733
1325	6.6200e-01	-12.9237	-78.461917	0.000061	0.606145	0.205367	-0.004840
1326	6.6250e-01	-12.9622	-78.538546	0.000192	1.919458	0.650330	-0.015326
1327	6.6300e-01	-13.0055	-78.635340	0.000242	2.424579	0.821470	-0.019359
1328	6.6350e-01	-13.0376	-78.716002	0.000202	2.020482	0.684558	-0.016132
1329	6.6400e-01	-13.0857	-79.050749	0.000839	8.385002	2.840916	-0.066949
1330	6.6450e-01	-13.1194	-79.349198	0.000748	7.475785	2.532865	-0.059690
1331	6.6500e-01	-13.1595	-79.562953	0.000535	5.354278	1.814079	-0.042751
1332	6.6550e-01	-13.1900	-79.744442	0.000455	4.546085	1.540255	-0.036298
1333	6.6600e-01	-13.2397	-79.925932	0.000455	4.546085	1.540255	-0.036298
1334	6.6650e-01	-13.2782	-80.272778	0.000869	8.688074	2.943599	-0.069369
1335	6.6700e-01	-13.3167	-80.478466	0.000515	5.152230	1.745623	-0.041138
1336	6.6750e-01	-13.3584	-80.474433	-0.000010	-0.101024	-0.034228	0.000807
1337	6.6800e-01	-13.4018	-80.772882	0.000748	7.475785	2.532865	-0.059690
1338	6.6850e-01	-13.4467	-81.079398	0.000768	7.677833	2.601320	-0.061303
1339	6.6900e-01	-13.4788	-81.301218	0.000556	5.556327	1.882534	-0.044364
1340	6.6950e-01	-13.5205	-81.563370	0.000657	6.566568	2.224813	-0.052430
1341	6.7000e-01	-13.5590	-81.898117	0.000839	8.385002	2.840916	-0.066949
1342	6.7050e-01	-13.6039	-81.910216	0.000030	0.303072	0.102684	-0.002420
1343	6.7100e-01	-13.6424	-82.164301	0.000636	6.364520	2.156358	-0.050817
1344	6.7150e-01	-13.6841	-82.430486	0.000667	6.667592	2.259041	-0.053237
1345	6.7200e-01	-13.7242	-82.398221	-0.000081	-0.808193	-0.273823	0.006453
1346	6.7250e-01	-13.7611	-82.805564	0.001020	10.203436	3.457018	-0.081469
1347	6.7300e-01	-13.8044	-83.019318	0.000535	5.354278	1.814079	-0.042751
1348	6.7350e-01	-13.8333	-83.099980	0.000202	2.020482	0.684558	-0.016132
1349	6.7400e-01	-13.8862	-83.535555	0.001091	10.910605	3.696613	-0.087115
1350	6.7450e-01	-13.9167	-83.717044	0.000455	4.546085	1.540255	-0.036298
1351	6.7500e-01	-13.9600	-83.963063	0.000616	6.162471	2.087902	-0.049204
1352	6.7550e-01	-14.0033	-84.237314	0.000687	6.869640	2.327497	-0.054850
1353	6.7600e-01	-14.0483	-84.515598	0.000697	6.970664	2.361725	-0.055657
1354	6.7650e-01	-14.0900	-84.616425	0.000253	2.525603	0.855697	-0.020165
1355	6.7700e-01	-14.1285	-84.818080	0.000505	5.051206	1.711395	-0.040331
1356	6.7750e-01	-14.1654	-85.088298	0.000677	6.768616	2.293269	-0.054044
1357	6.7800e-01	-14.2039	-85.201225	0.000283	2.828675	0.958381	-0.022585
1358	6.7850e-01	-14.2408	-85.374648	0.000434	4.344037	1.471800	-0.034685
1359	6.7900e-01	-14.2809	-85.721494	0.000869	8.688074	2.943599	-0.069369
1360	6.7950e-01	-14.3226	-85.826355	0.000263	2.626627	0.889925	-0.020972
1361	6.8000e-01	-14.3611	-86.096572	0.000677	6.768616	2.293269	-0.054044
1362	6.8050e-01	-14.3964	-86.205466	0.000273	2.727651	0.924153	-0.021779
1363	6.8100e-01	-14.4429	-86.378889	0.000434	4.344037	1.471800	-0.034685
1364	6.8150e-01	-14.4846	-86.689438	0.000778	7.778857	2.635548	-0.062110
1365	6.8200e-01	-14.5215	-86.907225	0.000546	5.455303	1.848307	-0.043557
1366	6.8250e-01	-14.5584	-87.016119	0.000273	2.727651	0.924153	-0.021779
1367	6.8300e-01	-14.5969	-87.145178	0.000323	3.232772	1.095293	-0.025812
1368	6.8350e-01	-14.6418	-87.463793	0.000798	7.980906	2.704004	-0.063723
1369	6.8400e-01	-14.6900	-87.814672	0.000879	8.789099	2.977827	-0.070176
1370	6.8450e-01	-14.7333	-87.947765	0.000333	3.333796	1.129521	-0.026618
1371	6.8500e-01	-14.7638	-88.185717	0.000596	5.960423	2.019446	-0.047591
1372	6.8550e-01	-14.8023	-88.355108	0.000424	4.243013	1.437572	-0.033878
1373	6.8600e-01	-14.8392	-88.576928	0.000556	5.556327	1.882534	-0.044364
1374	6.8650e-01	-14.8728	-88.689855	0.000283	2.828675	0.958381	-0.022585
1375	6.8700e-01	-14.9210	-89.060900	0.000929	9.294219	3.148967	-0.074209
1376	6.8750e-01	-14.9611	-89.274654	0.000535	5.354278	1.814079	-0.042751
1377	6.8800e-01	-14.9980	-89.617467	0.000859	8.587050	2.909371	-0.068563
1378	6.8850e-01	-15.0477	-89.669898	0.000131	1.313314	0.444963	-0.010486
1379	6.8900e-01	-15.0910	-89.859453	0.000475	4.748134	1.608711	-0.037911
1380	6.8950e-01	-15.1311	-90.286962	0.001071	10.708557	3.628157	-0.085502
1381	6.9000e-01	-15.1680	-90.258730	-0.000071	-0.707169	-0.239595	0.005646
1382	6.9050e-01	-15.1969	-90.573312	0.000788	7.879881	2.669776	-0.062916
1383	6.9100e-01	-15.2482	-90.690272	0.000293	2.929700	0.992609	-0.023392
1384	6.9150e-01	-15.2867	-90.908059	0.000546	5.455303	1.848307	-0.043557
1385	6.9200e-01	-15.3268	-91.121813	0.000535	5.354278	1.814079	-0.042751
1386	6.9250e-01	-15.3573	-91.525123	0.001010	10.102412	3.422790	-0.080662
1387	6.9300e-01	-15.4103	-91.666282	0.000354	3.535844	1.197976	-0.028232
1388	6.9350e-01	-15.4472	-91.839705	0.000434	4.344037	1.471800	-0.034685
1389	6.9400e-01	-15.4825	-92.109922	0.000677	6.768616	2.293269	-0.054044
1390	6.9450e-01	-15.5145	-92.271246	0.000404	4.040965	1.369116	-0.032265
1391	6.9500e-01	-15.5595	-92.517265	0.000616	6.162471	2.087902	-0.049204
1392	6.9550e-01	-15.6076	-93.106098	0.001475	14.749522	4.997273	-0.117766
1393	6.9600e-01	-15.6461	-92.856046	-0.000626	-6.263496	-2.122130	0.050010
1394	6.9650e-01	-15.6926	-93.170627	0.000788	7.879881	2.669776	-0.062916
1395	6.9700e-01	-15.7311	-93.565871	0.000990	9.900364	3.354334	-0.079049
1396	6.9750e-01	-15.7632	-93.707029	0.000354	3.535844	1.197976	-0.028232
1397	6.9800e-01	-15.8065	-93.904651	0.000495	4.950182	1.677167	-0.039524
1398	6.9850e-01	-15.8402	-94.102273	0.000495	4.950182	1.677167	-0.039524
1399	6.9900e-01	-15.8851	-94.259564	0.000394	3.939941	1.334888	-0.031458
1400	6.9950e-01	-15.9220	-94.553980	0.000737	7.374761	2.498637	-0.058883
1401	7.0000e-01	-15.9637	-94.747569	0.000485	4.849158	1.642939	-0.038718
1402	7.0050e-01	-16.0006	-94.929058	0.000455	4.546085	1.540255	-0.036298
1403	7.0100e-01	-16.0439	-95.041985	0.000283	2.828675	0.958381	-0.022585
1404	7.0150e-01	-16.0856	-95.578387	0.001344	13.436208	4.552311	-0.107280
1405	7.0200e-01	-16.1274	-95.981697	0.001010	10.102412	3.422790	-0.080662
1406	7.0250e-01	-16.1626	-95.957498	-0.000061	-0.606145	-0.205367	0.004840
1407	7.0300e-01	-16.2172	-95.997829	0.000101	1.010241	0.342279	-0.008066
1408	7.0350e-01	-16.2445	-96.324510	0.000818	8.182954	2.772460	-0.065336
1409	7.0400e-01	-16.2878	-96.324510	-0.000000	-0.000000	-0.000000	0.000000
1410	7.0450e-01	-16.3167	-96.647158	0.000808	8.081930	2.738232	-0.064530
1411	7.0500e-01	-16.3632	-96.957707	0.000778	7.778857	2.635548	-0.062110
1412	7.0550e-01	-16.4065	-97.167428	0.000525	5.253254	1.779851	-0.041944
1413	7.0600e-01	-16.4466	-97.417480	0.000626	6.263496	2.122130	-0.050010
1414	7.0650e-01	-16.4771	-97.651400	0.000586	5.859399	1.985218	-0.046784
1415	7.0700e-01	-16.5204	-97.788525	0.000343	3.434820	1.163749	-0.027425
1416	7.0750e-01	-16.5605	-98.143438	0.000889	8.890123	3.012055	-0.070983
1417	7.0800e-01	-16.6070	-98.308795	0.000414	4.141989	1.403344	-0.033071
1418	7.0850e-01	-16.6391	-98.675807	0.000919	9.193195	3.114739	-0.073402
1419	7.0900e-01	-16.6824	-98.780668	0.000263	2.626627	0.889925	-0.020972
1420	7.0950e-01	-16.7209	-99.050885	0.000677	6.768616	2.293269	-0.054044
1421	7.1000e-01	-16.7546	-99.095249	0.000111	1.111265	0.376507	-0.008873
1422	7.1050e-01	-16.7995	-99.434029	0.000849	8.486026	2.875143	-0.067756
1423	7.1100e-01	-16.8428	-99.611486	0.000445	4.445061	1.506028	-0.035491
1424	7.1150e-01	-16.8829	-99.817174	0.000515	5.152230	1.745623	-0.041138
1425	7.1200e-01	-16.9182	-100.252749	0.001091	10.910605	3.696613	-0.087115
1426	7.1250e-01	-16.9551	-100.494734	0.000606	6.061447	2.053674	-0.048397
1427	7.1300e-01	-17.0001	-100.575396	0.000202	2.020482	0.684558	-0.016132
1428	7.1350e-01	-17.0337	-100.672191	0.000242	2.424579	0.821470	-0.019359
1429	7.1400e-01	-17.0851	-100.994839	0.000808	8.081930	2.738232	-0.064530
1430	7.1450e-01	-17.1172	-101.184394	0.000475	4.748134	1.608711	-0.037911
1431	7.1500e-01	-17.1685	-101.515108	0.000828	8.283978	2.806688	-0.066143
1432	7.1550e-01	-17.1974	-101.648201	0.000333	3.333796	1.129521	-0.026618
1433	7.1600e-01	-17.2327	-102.035378	0.000970	9.698316	3.285878	-0.077435
1434	7.1650e-01	-17.2808	-102.374158	0.000849	8.486026	2.875143	-0.067756
1435	7.1700e-01	-17.3097	-102.547582	0.000434	4.344037	1.471800	-0.034685
1436	7.1750e-01	-17.3594	-102.829899	0.000707	7.071688	2.395953	-0.056463
1437	7.1800e-01	-17.4059	-103.003322	0.000434	4.344037	1.471800	-0.034685
1438	7.1850e-01	-17.4380	-102.821832	-0.000455	-4.546085	-1.540255	0.036298
1439	7.1900e-01	-17.4893	-103.289672	0.001172	11.718798	3.970436	-0.093568
1440	7.1950e-01	-17.5262	-103.592154	0.000758	7.576809	2.567092	-0.060496
1441	7.2000e-01	-17.5663	-103.797842	0.000515	5.152230	1.745623	-0.041138
1442	7.2050e-01	-17.6113	-103.930934	0.000333	3.333796	1.129521	-0.026618
1443	7.2100e-01	-17.6482	-104.289880	0.000899	8.991147	3.046283	-0.071789
1444	7.2150e-01	-17.6802	-104.620594	0.000828	8.283978	2.806688	-0.066143
1445	7.2200e-01	-17.7236	-104.834349	0.000535	5.354278	1.814079	-0.042751
1446	7.2250e-01	-17.7540	-104.999706	0.000414	4.141989	1.403344	-0.033071
1447	7.2300e-01	-17.7990	-105.201360	0.000505	5.051206	1.711395	-0.040331
1448	7.2350e-01	-17.8455	-105.471578	0.000677	6.768616	2.293269	-0.054044
1449	7.2400e-01	-17.8840	-105.774060	0.000758	7.576809	2.567092	-0.060496
1450	7.2450e-01	-17.9225	-105.963616	0.000475	4.748134	1.608711	-0.037911
1451	7.2500e-01	-17.9562	-106.197536	0.000586	5.859399	1.985218	-0.046784
1452	7.2550e-01	-17.9979	-106.439522	0.000606	6.061447	2.053674	-0.048397
1453	7.2600e-01	-18.0380	-106.572614	0.000333	3.333796	1.129521	-0.026618
1454	7.2650e-01	-18.0765	-106.834765	0.000657	6.566568	2.224813	-0.052430
1455	7.2700e-01	-18.1198	-107.173546	0.000849	8.486026	2.875143	-0.067756
1456	7.2750e-01	-18.1583	-107.266307	0.000232	2.323555	0.787242	-0.018552
1457	7.2800e-01	-18.2048	-107.629286	0.000909	9.092171	3.080511	-0.072596
1458	7.2850e-01	-18.2369	-107.738180	0.000273	2.727651	0.924153	-0.021779
1459	7.2900e-01	-18.2883	-108.222151	0.001212	12.122895	4.107348	-0.096794
1460	7.2950e-01	-18.3123	-108.201986	-0.000051	-0.505121	-0.171139	0.004033
1461	7.3000e-01	-18.3604	-108.581097	0.000950	9.496267	3.217422	-0.075822
1462	7.3050e-01	-18.4006	-108.823083	0.000606	6.061447	2.053674	-0.048397
1463	7.3100e-01	-18.4423	-108.875513	0.000131	1.313314	0.444963	-0.010486
1464	7.3150e-01	-18.4840	-109.177996	0.000758	7.576809	2.567092	-0.060496
1465	7.3200e-01	-18.5145	-109.512743	0.000839	8.385002	2.840916	-0.066949
1466	7.3250e-01	-18.5642	-109.839424	0.000818	8.182954	2.772460	-0.065336
1467	7.3300e-01	-18.5979	-110.226601	0.000970	9.698316	3.285878	-0.077435
1468	7.3350e-01	-18.6348	-110.170138	-0.000141	-1.414338	-0.479191	0.011293
1469	7.3400e-01	-18.6877	-110.512951	0.000859	8.587050	2.909371	-0.068563
1470	7.3450e-01	-18.7150	-110.678308	0.000414	4.141989	1.403344	-0.033071
1471	7.3500e-01	-18.7615	-111.025155	0.000869	8.688074	2.943599	-0.069369
1472	7.3550e-01	-18.7968	-111.194545	0.000424	4.243013	1.437572	-0.033878
1473	7.3600e-01	-18.8529	-111.581722	0.000970	9.698316	3.285878	-0.077435
1474	7.3650e-01	-18.8866	-111.759179	0.000445	4.445061	1.506028	-0.035491
1475	7.3700e-01	-18.9267	-112.017297	0.000647	6.465544	2.190586	-0.051624
1476	7.3750e-01	-18.9620	-112.210886	0.000485	4.849158	1.642939	-0.038718
1477	7.3800e-01	-19.0021	-112.335912	0.000313	3.131748	1.061065	-0.025005
1478	7.3850e-01	-19.0406	-112.436739	0.000253	2.525603	0.855697	-0.020165
1479	7.3900e-01	-19.0840	-112.827950	0.000980	9.799340	3.320106	-0.078242
1480	7.3950e-01	-19.1241	-113.130432	0.000758	7.576809	2.567092	-0.060496
1481	7.4000e-01	-19.1610	-113.275624	0.000364	3.636868	1.232204	-0.029038
1482	7.4050e-01	-19.2011	-113.634570	0.000899	8.991147	3.046283	-0.071789
1483	7.4100e-01	-19.2412	-113.791861	0.000394	3.939941	1.334888	-0.031458
1484	7.4150e-01	-19.2893	-114.114508	0.000808	8.081930	2.738232	-0.064530
1485	7.4200e-01	-19.3246	-114.404892	0.000727	7.273737	2.464409	-0.058077
1486	7.4250e-01	-19.3583	-114.461355	0.000141	1.414338	0.479191	-0.011293
1487	7.4300e-01	-19.4048	-114.804168	0.000859	8.587050	2.909371	-0.068563
1488	7.4350e-01	-19.4385	-115.005823	0.000505	5.051206	1.711395	-0.040331
1489	7.4400e-01	-19.4738	-115.469630	0.001162	11.617774	3.936208	-0.092761
1490	7.4450e-01	-19.5235	-115.695483	0.000566	5.657351	1.916762	-0.045171
1491	7.4500e-01	-19.5684	-115.864873	0.000424	4.243013	1.437572	-0.033878
1492	7.4550e-01	-19.5957	-116.155256	0.000727	7.273737	2.464409	-0.058077
1493	7.4600e-01	-19.6470	-116.276249	0.000303	3.030724	1.026837	-0.024199
1494	7.4650e-01	-19.6775	-116.635195	0.000899	8.991147	3.046283	-0.071789
1495	7.4700e-01	-19.7256	-116.796519	0.000404	4.040965	1.369116	-0.032265
1496	7.4750e-01	-19.7545	-117.199829	0.001010	10.102412	3.422790	-0.080662
1497	7.4800e-01	-19.8043	-117.437782	0.000596	5.960423	2.019446	-0.047591
1498	7.4850e-01	-19.8428	-117.736231	0.000748	7.475785	2.532865	-0.059690
1499	7.4900e-01	-19.8861	-117.800761	0.000162	1.616386	0.547646	-0.012906
1500	7.4950e-01	-19.9262	-118.070978	0.000677	6.768616	2.293269	-0.054044
1501	7.5000e-01	-19.9647	-118.248434	0.000445	4.445061	1.506028	-0.035491
1502	7.5050e-01	-19.9727	-118.296832	0.000121	1.212289	0.410735	-0.009679
1503	7.5100e-01	-19.9470	-118.542851	-0.000616	-6.162471	-2.087902	-0.049204
1504	7.5150e-01	-19.9053	-118.316997	0.000566	5.657351	1.916762	0.045171
1505	7.5200e-01	-19.8684	-118.236335	0.000202	2.020482	0.684558	0.016132
1506	7.5250e-01	-19.8251	-118.304898	-0.000172	-1.717410	-0.581874	-0.013713
1507	7.5300e-01	-19.7914	-118.264567	0.000101	1.010241	0.342279	0.008066
1508	7.5350e-01	-19.7561	-118.183905	0.000202	2.020482	0.684558	0.016132
1509	7.5400e-01	-19.7176	-118.127442	0.000141	1.414338	0.479191	0.011293
1510	7.5450e-01	-19.6583	-118.050813	0.000192	1.919458	0.650330	0.015326
1511	7.5500e-01	-19.6294	-117.816893	0.000586	5.859399	1.985218	0.046784
1512	7.5550e-01	-19.5909	-117.728165	0.000222	2.222531	0.753014	0.017746
1513	7.5600e-01	-19.5508	-117.699933	0.000071	0.707169	0.239595	0.005646
1514	7.5650e-01	-19.5059	-117.683801	0.000040	0.404096	0.136912	0.003226
1515	7.5700e-01	-19.4658	-117.389384	0.000737	7.374761	2.498637	0.058883
1516	7.5750e-01	-19.4257	-117.377285	0.000030	0.303072	0.102684	0.002420
1517	7.5800e-01	-19.4032	-117.111101	0.000667	6.667592	2.259041	0.053237
1518	7.5850e-01	-19.3487	-116.562599	0.001374	13.739280	4.654994	0.109700
1519	7.5900e-01	-19.3134	-116.780387	-0.000546	-5.455303	-1.848307	-0.043557
1520	7.5950e-01	-19.2716	-116.792486	-0.000030	-0.303072	-0.102684	-0.002420
1521	7.6000e-01	-19.2315	-116.727956	0.000162	1.616386	0.547646	0.012906
1522	7.6050e-01	-19.1818	-116.498070	0.000576	5.758375	1.950990	0.045977
1523	7.6100e-01	-19.1497	-116.364977	0.000333	3.333796	1.129521	0.026618
1524	7.6150e-01	-19.1080	-116.276249	0.000222	2.222531	0.753014	0.017746
1525	7.6200e-01	-19.0647	-116.183488	0.000232	2.323555	0.787242	0.018552
1526	7.6250e-01	-19.0342	-116.082661	0.000253	2.525603	0.855697	0.020165
1527	7.6300e-01	-18.9861	-115.997965	0.000212	2.121507	0.718786	0.016939
1528	7.6350e-01	-18.9476	-115.852774	0.000364	3.636868	1.232204	0.029038
1529	7.6400e-01	-18.9011	-115.602722	0.000626	6.263496	2.122130	0.050010
1530	7.6450e-01	-18.8674	-115.437365	0.000414	4.141989	1.403344	0.033071
1531	7.6500e-01	-18.8321	-115.360736	0.000192	1.919458	0.650330	0.015326
1532	7.6550e-01	-18.7808	-115.308306	0.000131	1.313314	0.444963	0.010486
1533	7.6600e-01	-18.7567	-114.961459	0.000869	8.688074	2.943599	0.069369
1534	7.6650e-01	-18.7021	-114.973558	-0.000030	-0.303072	-0.102684	-0.002420
1535	7.6700e-01	-18.6749	-114.808201	0.000414	4.141989	1.403344	0.033071
1536	7.6750e-01	-18.6396	-114.594447	0.000535	5.354278	1.814079	0.042751
1537	7.6800e-01	-18.6027	-114.396825	0.000495	4.950182	1.677167	0.039524
1538	7.6850e-01	-18.5546	-114.360527	0.000091	0.909217	0.308051	0.007260
1539	7.6900e-01	-18.5161	-113.985449	0.000940	9.395243	3.183195	0.075016
1540	7.6950e-01	-18.4647	-113.961251	0.000061	0.606145	0.205367	0.004840
1541	7.7000e-01	-18.4342	-113.735397	0.000566	5.657351	1.916762	0.045171
1542	7.7050e-01	-18.3893	-113.763629	-0.000071	-0.707169	-0.239595	-0.005646
1543	7.7100e-01	-18.3508	-113.537775	0.000566	5.657351	1.916762	0.045171
1544	7.7150e-01	-18.3043	-113.440981	0.000242	2.424579	0.821470	0.019359
1545	7.7200e-01	-18.2706	-113.348220	0.000232	2.323555	0.787242	0.018552
1546	7.7250e-01	-18.2321	-113.247392	0.000253	2.525603	0.855697	0.020165
1547	7.7300e-01	-18.1936	-113.065903	0.000455	4.546085	1.540255	0.036298
1548	7.7350e-01	-18.1503	-112.787619	0.000697	6.970664	2.361725	0.055657
1549	7.7400e-01	-18.1086	-112.412541	0.000940	9.395243	3.183195	0.075016
1550	7.7450e-01	-18.0701	-112.275415	0.000343	3.434820	1.163749	0.027425
1551	7.7500e-01	-18.0316	-112.311713	-0.000091	-0.909217	-0.308051	-0.007260
1552	7.7550e-01	-17.9883	-112.283482	0.000071	0.707169	0.239595	0.005646
1553	7.7600e-01	-17.9466	-112.303647	-0.000051	-0.505121	-0.171139	-0.004033
1554	7.7650e-01	-17.9113	-111.815642	0.001222	12.223919	4.141576	0.097601
1555	7.7700e-01	-17.8631	-111.827741	-0.000030	-0.303072	-0.102684	-0.002420
1556	7.7750e-01	-17.8294	-111.363935	0.001162	11.617774	3.936208	0.092761
1557	7.7800e-01	-17.7909	-111.396200	-0.000081	-0.808193	-0.273823	-0.006453
1558	7.7850e-01	-17.7492	-111.138082	0.000647	6.465544	2.190586	0.051624
1559	7.7900e-01	-17.7043	-111.263108	-0.000313	-3.131748	-1.061065	-0.025005
1560	7.7950e-01	-17.6674	-110.984824	0.000697	6.970664	2.361725	0.055657
1561	7.8000e-01	-17.6305	-110.952559	0.000081	0.808193	0.273823	0.006453
1562	7.8050e-01	-17.6016	-110.585547	0.000919	9.193195	3.114739	0.073402
1563	7.8100e-01	-17.5615	-110.424223	0.000404	4.040965	1.369116	0.032265
1564	7.8150e-01	-17.5006	-110.521018	-0.000242	-2.424579	-0.821470	-0.019359
1565	7.8200e-01	-17.4637	-110.379859	0.000354	3.535844	1.197976	0.028232
1566	7.8250e-01	-17.4252	-109.996715	0.000960	9.597291	3.251650	0.076629
1567	7.8300e-01	-17.3899	-109.641802	0.000889	8.890123	3.012055	0.070983
1568	7.8350e-01	-17.3562	-109.657934	-0.000040	-0.404096	-0.136912	-0.003226
1569	7.8400e-01	-17.3097	-109.452246	0.000515	5.152230	1.745623	0.041138
1570	7.8450e-01	-17.2776	-109.359485	0.000232	2.323555	0.787242	0.018552
1571	7.8500e-01	-17.2359	-109.222360	0.000343	3.434820	1.163749	0.027425
1572	7.8550e-01	-17.1974	-108.915844	0.000768	7.677833	2.601320	0.061303
1573	7.8600e-01	-17.1509	-108.637561	0.000697	6.970664	2.361725	0.055657
1574	7.8650e-01	-17.1107	-108.746454	-0.000273	-2.727651	-0.924153	-0.021779
1575	7.8700e-01	-17.0771	-108.702090	0.000111	1.111265	0.376507	0.008873
1576	7.8750e-01	-17.0241	-108.476237	0.000566	5.657351	1.916762	0.045171
1577	7.8800e-01	-16.9904	-108.161655	0.000788	7.879881	2.669776	0.062916
1578	7.8850e-01	-16.9519	-108.072927	0.000222	2.222531	0.753014	0.017746
1579	7.8900e-01	-16.9102	-107.798676	0.000687	6.869640	2.327497	0.054850
1580	7.8950e-01	-16.8701	-107.750279	0.000121	1.212289	0.410735	0.009679
1581	7.9000e-01	-16.8236	-107.536525	0.000535	5.354278	1.814079	0.042751
1582	7.9050e-01	-16.7931	-107.371168	0.000414	4.141989	1.403344	0.033071
1583	7.9100e-01	-16.7450	-107.294539	0.000192	1.919458	0.650330	0.015326
1584	7.9150e-01	-16.7049	-107.290506	0.000010	0.101024	0.034228	0.000807
1585	7.9200e-01	-16.6712	-106.955758	0.000839	8.385002	2.840916	0.066949
1586	7.9250e-01	-16.6327	-106.645210	0.000778	7.778857	2.635548	0.062110
1587	7.9300e-01	-16.5894	-106.471787	0.000434	4.344037	1.471800	0.034685
1588	7.9350e-01	-16.5573	-106.342727	0.000323	3.232772	1.095293	0.025812
1589	7.9400e-01	-16.5092	-106.427422	-0.000212	-2.121507	-0.718786	-0.016939
1590	7.9450e-01	-16.4674	-106.193503	0.000586	5.859399	1.985218	0.046784
1591	7.9500e-01	-16.4241	-105.854722	0.000849	8.486026	2.875143	0.067756
1592	7.9550e-01	-16.3921	-105.810358	0.000111	1.111265	0.376507	0.008873
1593	7.9600e-01	-16.3455	-105.552240	0.000647	6.465544	2.190586	0.051624
1594	7.9650e-01	-16.3118	-105.431247	0.000303	3.030724	1.026837	0.024199
1595	7.9700e-01	-16.2749	-105.213460	0.000546	5.455303	1.848307	0.043557
1596	7.9750e-01	-16.2300	-104.935176	0.000697	6.970664	2.361725	0.055657
1597	7.9800e-01	-16.1867	-105.003739	-0.000172	-1.717410	-0.581874	-0.013713
1598	7.9850e-01	-16.1530	-104.564131	0.001101	11.011629	3.730841	0.087922
1599	7.9900e-01	-16.1065	-104.479436	0.000212	2.121507	0.718786	0.016939
1600	7.9950e-01	-16.0776	-104.346344	0.000333	3.333796	1.129521	0.026618
1601	8.0000e-01	-16.0343	-104.160821	0.000465	4.647110	1.574483	0.037105
1602	8.0050e-01	-15.9830	-104.104358	0.000141	1.414338	0.479191	0.011293
1603	8.0100e-01	-15.9493	-103.975299	0.000323	3.232772	1.095293	0.025812
1604	8.0150e-01	-15.9076	-103.672816	0.000758	7.576809	2.567092	0.060496
1605	8.0200e-01	-15.8723	-103.640551	0.000081	0.808193	0.273823	0.006453
1606	8.0250e-01	-15.8242	-103.342102	0.000748	7.475785	2.532865	0.059690
1607	8.0300e-01	-15.7889	-103.249341	0.000232	2.323555	0.787242	0.018552
1608	8.0350e-01	-15.7520	-103.071884	0.000445	4.445061	1.506028	0.035491
1609	8.0400e-01	-15.7135	-102.846031	0.000566	5.657351	1.916762	0.045171
1610	8.0450e-01	-15.6701	-102.495151	0.000879	8.789099	2.977827	0.070176
1611	8.0500e-01	-15.6300	-102.325761	0.000424	4.243013	1.437572	0.033878
1612	8.0550e-01	-15.5899	-102.394324	-0.000172	-1.717410	-0.581874	-0.013713
1613	8.0600e-01	-15.5450	-102.313662	0.000202	2.020482	0.684558	0.016132
1614	8.0650e-01	-15.5161	-102.091841	0.000556	5.556327	1.882534	0.044364
1615	8.0700e-01	-15.4680	-101.934551	0.000394	3.939941	1.334888	0.031458
1616	8.0750e-01	-15.4343	-101.611903	0.000808	8.081930	2.738232	0.064530
1617	8.0800e-01	-15.3926	-101.382016	0.000576	5.758375	1.950990	0.045977
1618	8.0850e-01	-15.3509	-101.281189	0.000253	2.525603	0.855697	0.020165
1619	8.0900e-01	-15.3140	-101.252957	0.000071	0.707169	0.239595	0.005646
1620	8.0950e-01	-15.2643	-100.998872	0.000636	6.364520	2.156358	0.050817
1621	8.1000e-01	-15.2274	-100.934342	0.000162	1.616386	0.547646	0.012906
1622	8.1050e-01	-15.1937	-100.454403	0.001202	12.021870	4.073120	0.095988
1623	8.1100e-01	-15.1536	-100.293079	0.000404	4.040965	1.369116	0.032265
1624	8.1150e-01	-15.1151	-100.111590	0.000455	4.546085	1.540255	0.036298
1625	8.1200e-01	-15.0734	-100.184186	-0.000182	-1.818434	-0.616102	-0.014519
1626	8.1250e-01	-15.0349	-99.813141	0.000929	9.294219	3.148967	0.074209
1627	8.1300e-01	-14.9819	-99.619552	0.000485	4.849158	1.642939	0.038718
1628	8.1350e-01	-14.9595	-99.659883	-0.000101	-1.010241	-0.342279	-0.008066
1629	8.1400e-01	-14.9049	-99.474360	0.000465	4.647110	1.574483	0.037105
1630	8.1450e-01	-14.8632	-99.099282	0.000940	9.395243	3.183195	0.075016
1631	8.1500e-01	-14.8231	-98.970223	0.000323	3.232772	1.095293	0.025812
1632	8.1550e-01	-14.7910	-98.804866	0.000414	4.141989	1.403344	0.033071
1633	8.1600e-01	-14.7541	-98.663708	0.000354	3.535844	1.197976	0.028232
1634	8.1650e-01	-14.7076	-98.361225	0.000758	7.576809	2.567092	0.060496
1635	8.1700e-01	-14.6771	-98.171670	0.000475	4.748134	1.608711	0.037911
1636	8.1750e-01	-14.6322	-98.187802	-0.000040	-0.404096	-0.136912	-0.003226
1637	8.1800e-01	-14.5873	-97.986147	0.000505	5.051206	1.711395	0.040331
1638	8.1850e-01	-14.5504	-97.703830	0.000707	7.071688	2.395953	0.056463
1639	8.1900e-01	-14.5167	-97.550572	0.000384	3.838917	1.300660	0.030652
1640	8.1950e-01	-14.4702	-97.433613	0.000293	2.929700	0.992609	0.023392
1641	8.2000e-01	-14.4301	-97.272289	0.000404	4.040965	1.369116	0.032265
1642	8.2050e-01	-14.3852	-97.042402	0.000576	5.758375	1.950990	0.045977
1643	8.2100e-01	-14.3467	-96.885111	0.000394	3.939941	1.334888	0.031458
1644	8.2150e-01	-14.3065	-96.788317	0.000242	2.424579	0.821470	0.019359
1645	8.2200e-01	-14.2745	-96.586662	0.000505	5.051206	1.711395	0.040331
1646	8.2250e-01	-14.2199	-96.368875	0.000546	5.455303	1.848307	0.043557
1647	8.2300e-01	-14.1830	-96.247882	0.000303	3.030724	1.026837	0.024199
1648	8.2350e-01	-14.1461	-96.114789	0.000333	3.333796	1.129521	0.026618
1649	8.2400e-01	-14.1076	-95.771976	0.000859	8.587050	2.909371	0.068563
1650	8.2450e-01	-14.0595	-95.457394	0.000788	7.879881	2.669776	0.062916
1651	8.2500e-01	-14.0354	-95.288004	0.000424	4.243013	1.437572	0.033878
1652	8.2550e-01	-13.9889	-95.179110	0.000273	2.727651	0.924153	0.021779
1653	8.2600e-01	-13.9456	-95.106515	0.000182	1.818434	0.616102	0.014519
1654	8.2650e-01	-13.9071	-94.860496	0.000616	6.162471	2.087902	0.049204
1655	8.2700e-01	-13.8718	-94.618510	0.000606	6.061447	2.053674	0.048397
1656	8.2750e-01	-13.8285	-94.465252	0.000384	3.838917	1.300660	0.030652
1657	8.2800e-01	-13.7964	-94.380557	0.000212	2.121507	0.718786	0.016939
1658	8.2850e-01	-13.7451	-94.070008	0.000778	7.778857	2.635548	0.062110
1659	8.2900e-01	-13.7082	-94.037744	0.000081	0.808193	0.273823	0.006453
1660	8.2950e-01	-13.6729	-93.795758	0.000606	6.061447	2.053674	0.048397
1661	8.3000e-01	-13.6296	-93.537639	0.000647	6.465544	2.190586	0.051624
1662	8.3050e-01	-13.5862	-93.331951	0.000515	5.152230	1.745623	0.041138
1663	8.3100e-01	-13.5494	-93.158528	0.000434	4.344037	1.471800	0.034685
1664	8.3150e-01	-13.5157	-92.940741	0.000546	5.455303	1.848307	0.043557
1665	8.3200e-01	-13.4740	-92.900410	0.000101	1.010241	0.342279	0.008066
1666	8.3250e-01	-13.4258	-92.799582	0.000253	2.525603	0.855697	0.020165
1667	8.3300e-01	-13.3841	-92.376107	0.001061	10.607533	3.593929	0.084695
1668	8.3350e-01	-13.3440	-92.243015	0.000333	3.333796	1.129521	0.026618
1669	8.3400e-01	-13.3023	-92.113956	0.000323	3.232772	1.095293	0.025812
1670	8.3450e-01	-13.2766	-91.924400	0.000475	4.748134	1.608711	0.037911
1671	8.3500e-01	-13.2317	-91.621917	0.000758	7.576809	2.567092	0.060496
1672	8.3550e-01	-13.1868	-91.387998	0.000586	5.859399	1.985218	0.046784
1673	8.3600e-01	-13.1499	-91.307336	0.000202	2.020482	0.684558	0.016132
1674	8.3650e-01	-13.1098	-91.085515	0.000556	5.556327	1.882534	0.044364
1675	8.3700e-01	-13.0697	-91.029052	0.000141	1.414338	0.479191	0.011293
1676	8.3750e-01	-13.0183	-90.819331	0.000525	5.253254	1.779851	0.041944
1677	8.3800e-01	-12.9831	-90.569279	0.000626	6.263496	2.122130	0.050010
1678	8.3850e-01	-12.9349	-90.262763	0.000768	7.677833	2.601320	0.061303
1679	8.3900e-01	-12.9093	-89.952215	0.000778	7.778857	2.635548	0.062110
1680	8.3950e-01	-12.8643	-89.875586	0.000192	1.919458	0.650330	0.015326
1681	8.4000e-01	-12.8258	-89.754593	0.000303	3.030724	1.026837	0.024199
1682	8.4050e-01	-12.7857	-89.456144	0.000748	7.475785	2.532865	0.059690
1683	8.4100e-01	-12.7472	-89.359349	0.000242	2.424579	0.821470	0.019359
1684	8.4150e-01	-12.7023	-89.391614	-0.000081	-0.808193	-0.273823	-0.006453
1685	8.4200e-01	-12.6783	-89.314985	0.000192	1.919458	0.650330	0.015326
1686	8.4250e-01	-12.6285	-89.093165	0.000556	5.556327	1.882534	0.044364
1687	8.4300e-01	-12.5820	-88.794715	0.000748	7.475785	2.532865	0.059690
1688	8.4350e-01	-12.5515	-88.403505	0.000980	9.799340	3.320106	0.078242
1689	8.4400e-01	-12.5114	-88.286545	0.000293	2.929700	0.992609	0.023392
1690	8.4450e-01	-12.4697	-88.068758	0.000546	5.455303	1.848307	0.043557
1691	8.4500e-01	-12.4312	-87.855003	0.000535	5.354278	1.814079	0.042751
1692	8.4550e-01	-12.3927	-87.641249	0.000535	5.354278	1.814079	0.042751
1693	8.4600e-01	-12.3462	-87.504124	0.000343	3.434820	1.163749	0.027425
1694	8.4650e-01	-12.3029	-87.411363	0.000232	2.323555	0.787242	0.018552
1695	8.4700e-01	-12.2788	-87.040317	0.000929	9.294219	3.148967	0.074209
1696	8.4750e-01	-12.2275	-86.955622	0.000212	2.121507	0.718786	0.016939
1697	8.4800e-01	-12.1793	-86.705570	0.000626	6.263496	2.122130	0.050010
1698	8.4850e-01	-12.1537	-86.612809	0.000232	2.323555	0.787242	0.018552
1699	8.4900e-01	-12.1055	-86.253863	0.000899	8.991147	3.046283	0.071789
1700	8.4950e-01	-12.0670	-86.144970	0.000273	2.727651	0.924153	0.021779
1701	8.5000e-01	-12.0253	-86.019944	0.000313	3.131748	1.061065	0.025005
1702	8.5050e-01	-11.9900	-85.648898	0.000929	9.294219	3.148967	0.074209
1703	8.5100e-01	-11.9547	-85.632766	0.000040	0.404096	0.136912	0.003226
1704	8.5150e-01	-11.9002	-85.507740	0.000313	3.131748	1.061065	0.025005
1705	8.5200e-01	-11.8681	-85.273820	0.000586	5.859399	1.985218	0.046784
1706	8.5250e-01	-11.8360	-84.955206	0.000798	7.980906	2.704004	0.063723
1707	8.5300e-01	-11.7847	-84.741451	0.000535	5.354278	1.814079	0.042751
1708	8.5350e-01	-11.7510	-84.495432	0.000616	6.162471	2.087902	0.049204
1709	8.5400e-01	-11.7077	-84.176817	0.000798	7.980906	2.704004	0.063723
1710	8.5450e-01	-11.6628	-84.144553	0.000081	0.808193	0.273823	0.006453
1711	8.5500e-01	-11.6419	-83.834004	0.000778	7.778857	2.635548	0.062110
1712	8.5550e-01	-11.5858	-83.817872	0.000040	0.404096	0.136912	0.003226
1713	8.5600e-01	-11.5489	-83.745276	0.000182	1.818434	0.616102	0.014519
1714	8.5650e-01	-11.5120	-83.370198	0.000940	9.395243	3.183195	0.075016
1715	8.5700e-01	-11.4703	-83.281470	0.000222	2.222531	0.753014	0.017746
1716	8.5750e-01	-11.4221	-83.099980	0.000455	4.546085	1.540255	0.036298
1717	8.5800e-01	-11.3917	-82.974954	0.000313	3.131748	1.061065	0.025005
1718	8.5850e-01	-11.3596	-82.567611	0.001020	10.203436	3.457018	0.081469
1719	8.5900e-01	-11.3114	-82.474850	0.000232	2.323555	0.787242	0.018552
1720	8.5950e-01	-11.2713	-82.212698	0.000657	6.566568	2.224813	0.052430
1721	8.6000e-01	-11.2248	-81.982812	0.000576	5.758375	1.950990	0.045977
1722	8.6050e-01	-11.1927	-81.825521	0.000394	3.939941	1.334888	0.031458
1723	8.6100e-01	-11.1542	-81.514972	0.000778	7.778857	2.635548	0.062110
1724	8.6150e-01	-11.1109	-81.176192	0.000849	8.486026	2.875143	0.067756
1725	8.6200e-01	-11.0628	-81.212490	-0.000091	-0.909217	-0.308051	-0.007260
1726	8.6250e-01	-11.0243	-81.123762	0.000222	2.222531	0.753014	0.017746
1727	8.6300e-01	-10.9890	-80.885809	0.000596	5.960423	2.019446	0.047591
1728	8.6350e-01	-10.9537	-80.547029	0.000849	8.486026	2.875143	0.067756
1729	8.6400e-01	-10.9104	-80.248579	0.000748	7.475785	2.532865	0.059690
1730	8.6450e-01	-10.8655	-80.260679	-0.000030	-0.303072	-0.102684	-0.002420
1731	8.6500e-01	-10.8334	-79.990461	0.000677	6.768616	2.293269	0.054044
1732	8.6550e-01	-10.7837	-79.817038	0.000434	4.344037	1.471800	0.034685
1733	8.6600e-01	-10.7532	-79.575052	0.000606	6.061447	2.053674	0.048397
1734	8.6650e-01	-10.7163	-79.353232	0.000556	5.556327	1.882534	0.044364
1735	8.6700e-01	-10.6681	-79.066882	0.000717	7.172713	2.430181	0.057270
1736	8.6750e-01	-10.6232	-79.115279	-0.000121	-1.212289	-0.410735	-0.009679
1737	8.6800e-01	-10.5911	-78.808763	0.000768	7.677833	2.601320	0.061303
1738	8.6850e-01	-10.5542	-78.562744	0.000616	6.162471	2.087902	0.049204
1739	8.6900e-01	-10.5109	-78.340924	0.000556	5.556327	1.882534	0.044364
1740	8.6950e-01	-10.4628	-78.135236	0.000515	5.152230	1.745623	0.041138
1741	8.7000e-01	-10.4275	-77.913415	0.000556	5.556327	1.882534	0.044364
1742	8.7050e-01	-10.3826	-77.735959	0.000445	4.445061	1.506028	0.035491
1743	8.7100e-01	-10.3473	-77.820654	-0.000212	-2.121507	-0.718786	-0.016939
1744	8.7150e-01	-10.3104	-77.441543	0.000950	9.496267	3.217422	0.075822
1745	8.7200e-01	-10.2719	-77.034200	0.001020	10.203436	3.457018	0.081469
1746	8.7250e-01	-10.2238	-76.917240	0.000293	2.929700	0.992609	0.023392
1747	8.7300e-01	-10.1853	-76.614758	0.000758	7.576809	2.567092	0.060496
1748	8.7350e-01	-10.1484	-76.481665	0.000333	3.333796	1.129521	0.026618
1749	8.7400e-01	-10.1083	-76.263878	0.000546	5.455303	1.848307	0.043557
1750	8.7450e-01	-10.0666	-76.090455	0.000434	4.344037	1.471800	0.034685
1751	8.7500e-01	-10.0200	-75.876701	0.000535	5.354278	1.814079	0.042751
1752	8.7550e-01	-9.9880	-75.630682	0.000616	6.162471	2.087902	0.049204
1753	8.7600e-01	-9.9462	-75.328199	0.000758	7.576809	2.567092	0.060496
1754	8.7650e-01	-9.9158	-75.287868	0.000101	1.010241	0.342279	0.008066
1755	8.7700e-01	-9.8660	-75.267703	0.000051	0.505121	0.171139	0.004033
1756	8.7750e-01	-9.8259	-75.029750	0.000596	5.960423	2.019446	0.047591
1757	8.7800e-01	-9.7858	-74.844227	0.000465	4.647110	1.574483	0.037105
1758	8.7850e-01	-9.7473	-74.529646	0.000788	7.879881	2.669776	0.062916
1759	8.7900e-01	-9.7088	-74.356222	0.000434	4.344037	1.471800	0.034685
1760	8.7950e-01	-9.6703	-73.912582	0.001111	11.112653	3.765069	0.088728
1761	8.8000e-01	-9.6206	-73.900482	0.000030	0.303072	0.102684	0.002420
1762	8.8050e-01	-9.5885	-73.622198	0.000697	6.970664	2.361725	0.055657
1763	8.8100e-01	-9.5468	-73.368113	0.000636	6.364520	2.156358	0.050817
1764	8.8150e-01	-9.5051	-73.005134	0.000909	9.092171	3.080511	0.072596
1765	8.8200e-01	-9.4682	-73.013201	-0.000020	-0.202048	-0.068456	-0.001613
1766	8.8250e-01	-9.4249	-72.698619	0.000788	7.879881	2.669776	0.062916
1767	8.8300e-01	-9.3912	-72.513096	0.000465	4.647110	1.574483	0.037105
1768	8.8350e-01	-9.3495	-72.259011	0.000636	6.364520	2.156358	0.050817
1769	8.8400e-01	-9.3110	-72.069455	0.000475	4.748134	1.608711	0.037911
1770	8.8450e-01	-9.2596	-71.827470	0.000606	6.061447	2.053674	0.048397
1771	8.8500e-01	-9.2356	-71.702444	0.000313	3.131748	1.061065	0.025005
1772	8.8550e-01	-9.1939	-71.529020	0.000434	4.344037	1.471800	0.034685
1773	8.8600e-01	-9.1602	-71.299134	0.000576	5.758375	1.950990	0.045977
1774	8.8650e-01	-9.1169	-71.121677	0.000445	4.445061	1.506028	0.035491
1775	8.8700e-01	-9.0751	-70.754665	0.000919	9.193195	3.114739	0.073402
1776	8.8750e-01	-9.0366	-70.899857	-0.000364	-3.636868	-1.232204	-0.029038
1777	8.8800e-01	-8.9901	-70.649805	0.000626	6.263496	2.122130	0.050010
1778	8.8850e-01	-8.9500	-70.101303	0.001374	13.739280	4.654994	0.109700
1779	8.8900e-01	-8.9211	-69.766556	0.000839	8.385002	2.840916	0.066949
1780	8.8950e-01	-8.8714	-69.746391	0.000051	0.505121	0.171139	0.004033
1781	8.9000e-01	-8.8233	-69.706060	0.000101	1.010241	0.342279	0.008066
1782	8.9050e-01	-8.7864	-69.339048	0.000919	9.193195	3.114739	0.073402
1783	8.9100e-01	-8.7447	-69.129327	0.000525	5.253254	1.779851	0.041944
1784	8.9150e-01	-8.7174	-68.774414	0.000889	8.890123	3.012055	0.070983
1785	8.9200e-01	-8.6629	-68.617123	0.000394	3.939941	1.334888	0.031458
1786	8.9250e-01	-8.6324	-68.520329	0.000242	2.424579	0.821470	0.019359
1787	8.9300e-01	-8.5875	-68.250111	0.000677	6.768616	2.293269	0.054044
1788	8.9350e-01	-8.5490	-67.883099	0.000919	9.193195	3.114739	0.073402
1789	8.9400e-01	-8.5008	-67.758073	0.000313	3.131748	1.061065	0.025005
1790	8.9450e-01	-8.4720	-67.604815	0.000384	3.838917	1.300660	0.030652
1791	8.9500e-01	-8.4270	-67.540286	0.000162	1.616386	0.547646	0.012906
1792	8.9550e-01	-8.3837	-67.282167	0.000647	6.465544	2.190586	0.051624
1793	8.9600e-01	-8.3404	-67.048248	0.000586	5.859399	1.985218	0.046784
1794	8.9650e-01	-8.3003	-66.822394	0.000566	5.657351	1.916762	0.045171
1795	8.9700e-01	-8.2602	-66.556210	0.000667	6.667592	2.259041	0.053237
1796	8.9750e-01	-8.2265	-66.415051	0.000354	3.535844	1.197976	0.028232
1797	8.9800e-01	-8.1928	-66.023841	0.000980	9.799340	3.320106	0.078242
1798	8.9850e-01	-8.1479	-65.975443	0.000121	1.212289	0.410735	0.009679
1799	8.9900e-01	-8.1046	-65.608432	0.000919	9.193195	3.114739	0.073402
1800	8.9950e-01	-8.0581	-65.402743	0.000515	5.152230	1.745623	0.041138
1801	9.0000e-01	-8.0228	-65.205122	0.000495	4.950182	1.677167	0.039524
1802	9.0050e-01	-7.9843	-64.967169	0.000596	5.960423	2.019446	0.047591
1803	9.0100e-01	-7.9426	-64.930871	0.000091	0.909217	0.308051	0.007260
1804	9.0150e-01	-7.9153	-64.370270	0.001404	14.042353	4.757678	0.112120
1805	9.0200e-01	-7.8656	-64.257343	0.000283	2.828675	0.958381	0.022585
1806	9.0250e-01	-7.8335	-64.124251	0.000333	3.333796	1.129521	0.026618
1807	9.0300e-01	-7.7853	-63.898398	0.000566	5.657351	1.916762	0.045171
1808	9.0350e-01	-7.7452	-63.745140	0.000384	3.838917	1.300660	0.030652
1809	9.0400e-01	-7.7148	-63.382161	0.000909	9.092171	3.080511	0.072596
1810	9.0450e-01	-7.6650	-63.261168	0.000303	3.030724	1.026837	0.024199
1811	9.0500e-01	-7.6265	-62.906255	0.000889	8.890123	3.012055	0.070983
1812	9.0550e-01	-7.5816	-62.894156	0.000030	0.303072	0.102684	0.002420
1813	9.0600e-01	-7.5415	-62.656203	0.000596	5.960423	2.019446	0.047591
1814	9.0650e-01	-7.5014	-62.418251	0.000596	5.960423	2.019446	0.047591
1815	9.0700e-01	-7.4693	-62.148033	0.000677	6.768616	2.293269	0.054044
1816	9.0750e-01	-7.4308	-61.825385	0.000808	8.081930	2.738232	0.064530
1817	9.0800e-01	-7.3907	-61.607598	0.000546	5.455303	1.848307	0.043557
1818	9.0850e-01	-7.3458	-61.426108	0.000455	4.546085	1.540255	0.036298
1819	9.0900e-01	-7.3057	-61.176056	0.000626	6.263496	2.122130	0.050010
1820	9.0950e-01	-7.2624	-60.813077	0.000909	9.092171	3.080511	0.072596
1821	9.1000e-01	-7.2271	-60.692084	0.000303	3.030724	1.026837	0.024199
1822	9.1050e-01	-7.1838	-60.506562	0.000465	4.647110	1.574483	0.037105
1823	9.1100e-01	-7.1485	-60.196013	0.000778	7.778857	2.635548	0.062110
1824	9.1150e-01	-7.1148	-60.062921	0.000333	3.333796	1.129521	0.026618
1825	9.1200e-01	-7.0602	-60.062921	0.000000	0.000000	0.000000	0.000000
1826	9.1250e-01	-7.0217	-59.599115	0.001162	11.617774	3.936208	0.092761
1827	9.1300e-01	-6.9929	-59.332930	0.000667	6.667592	2.259041	0.053237
1828	9.1350e-01	-6.9479	-59.296632	0.000091	0.909217	0.308051	0.007260
1829	9.1400e-01	-6.9014	-58.998183	0.000748	7.475785	2.532865	0.059690
1830	9.1450e-01	-6.8629	-58.913488	0.000212	2.121507	0.718786	0.016939
1831	9.1500e-01	-6.8324	-58.518244	0.000990	9.900364	3.354334	0.079049
1832	9.1550e-01	-6.7907	-58.215762	0.000758	7.576809	2.567092	0.060496
1833	9.1600e-01	-6.7410	-57.989908	0.000566	5.657351	1.916762	0.045171
1834	9.1650e-01	-6.7009	-57.784220	0.000515	5.152230	1.745623	0.041138
1835	9.1700e-01	-6.6592	-57.687426	0.000242	2.424579	0.821470	0.019359
1836	9.1750e-01	-6.6303	-57.247818	0.001101	11.011629	3.730841	0.087922
1837	9.1800e-01	-6.5870	-57.001799	0.000616	6.162471	2.087902	0.049204
1838	9.1850e-01	-6.5613	-56.892905	0.000273	2.727651	0.924153	0.021779
1839	9.1900e-01	-6.5116	-56.622688	0.000677	6.768616	2.293269	0.054044
1840	9.1950e-01	-6.4715	-55.957227	0.001667	16.668980	5.647603	0.133092
1841	9.2000e-01	-6.4233	-55.832201	0.000313	3.131748	1.061065	0.025005
1842	9.2050e-01	-6.3848	-55.791870	0.000101	1.010241	0.342279	0.008066
1843	9.2100e-01	-6.3512	-55.836234	-0.000111	-1.111265	-0.376507	-0.008873
1844	9.2150e-01	-6.3159	-55.449056	0.000970	9.698316	3.285878	0.077435
1845	9.2200e-01	-6.2677	-55.182872	0.000667	6.667592	2.259041	0.053237
1846	9.2250e-01	-6.2324	-54.791661	0.000980	9.799340	3.320106	0.078242
1847	9.2300e-01	-6.1923	-54.537576	0.000636	6.364520	2.156358	0.050817
1848	9.2350e-01	-6.1506	-54.448848	0.000222	2.222531	0.753014	0.017746
1849	9.2400e-01	-6.1121	-54.307689	0.000354	3.535844	1.197976	0.028232
1850	9.2450e-01	-6.0704	-53.989074	0.000798	7.980906	2.704004	0.063723
1851	9.2500e-01	-6.0351	-53.650294	0.000849	8.486026	2.875143	0.067756
1852	9.2550e-01	-5.9742	-53.646261	0.000010	0.101024	0.034228	0.000807
1853	9.2600e-01	-5.9469	-53.497036	0.000374	3.737892	1.266432	0.029845
1854	9.2650e-01	-5.9180	-53.077594	0.001051	10.506509	3.559701	0.083888
1855	9.2700e-01	-5.8699	-52.884005	0.000485	4.849158	1.642939	0.038718
1856	9.2750e-01	-5.8298	-52.730748	0.000384	3.838917	1.300660	0.030652
1857	9.2800e-01	-5.7897	-52.355670	0.000940	9.395243	3.183195	0.075016
1858	9.2850e-01	-5.7496	-51.992691	0.000909	9.092171	3.080511	0.072596
1859	9.2900e-01	-5.7047	-51.992691	0.000000	0.000000	0.000000	0.000000
1860	9.2950e-01	-5.6694	-51.726506	0.000667	6.667592	2.259041	0.053237
1861	9.3000e-01	-5.6341	-51.419991	0.000768	7.677833	2.601320	0.061303
1862	9.3050e-01	-5.5891	-51.145740	0.000687	6.869640	2.327497	0.054850
1863	9.3100e-01	-5.5587	-50.875522	0.000677	6.768616	2.293269	0.054044
1864	9.3150e-01	-5.5089	-50.665801	0.000525	5.253254	1.779851	0.041944
1865	9.3200e-01	-5.4608	-50.395584	0.000677	6.768616	2.293269	0.054044
1866	9.3250e-01	-5.4223	-50.193929	0.000505	5.051206	1.711395	0.040331
1867	9.3300e-01	-5.3870	-50.000340	0.000485	4.849158	1.642939	0.038718
1868	9.3350e-01	-5.3549	-49.572831	0.001071	10.708557	3.628157	0.085502
1869	9.3400e-01	-5.3164	-49.306647	0.000667	6.667592	2.259041	0.053237
1870	9.3450e-01	-5.2683	-49.351011	-0.000111	-1.111265	-0.376507	-0.008873
1871	9.3500e-01	-5.2282	-49.129191	0.000556	5.556327	1.882534	0.044364
1872	9.3550e-01	-5.1865	-48.798477	0.000828	8.283978	2.806688	0.066143
1873	9.3600e-01	-5.1496	-48.548424	0.000626	6.263496	2.122130	0.050010
1874	9.3650e-01	-5.1127	-48.266108	0.000707	7.071688	2.395953	0.056463
1875	9.3700e-01	-5.0646	-48.112850	0.000384	3.838917	1.300660	0.030652
1876	9.3750e-01	-5.0245	-47.862798	0.000626	6.263496	2.122130	0.050010
1877	9.3800e-01	-4.9988	-47.624845	0.000596	5.960423	2.019446	0.047591
1878	9.3850e-01	-4.9523	-47.439322	0.000465	4.647110	1.574483	0.037105
1879	9.3900e-01	-4.9041	-47.161039	0.000697	6.970664	2.361725	0.055657
1880	9.3950e-01	-4.8624	-46.874689	0.000717	7.172713	2.430181	0.057270
1881	9.4000e-01	-4.8239	-46.507677	0.000919	9.193195	3.114739	0.073402
1882	9.4050e-01	-4.7886	-46.120499	0.000970	9.698316	3.285878	0.077435
1883	9.4100e-01	-4.7517	-45.959175	0.000404	4.040965	1.369116	0.032265
1884	9.4150e-01	-4.7084	-45.971274	-0.000030	-0.303072	-0.102684	-0.002420
1885	9.4200e-01	-4.6763	-45.785752	0.000465	4.647110	1.574483	0.037105
1886	9.4250e-01	-4.6250	-45.410674	0.000940	9.395243	3.183195	0.075016
1887	9.4300e-01	-4.5945	-45.213052	0.000495	4.950182	1.677167	0.039524
1888	9.4350e-01	-4.5496	-44.938801	0.000687	6.869640	2.327497	0.054850
1889	9.4400e-01	-4.5079	-44.575822	0.000909	9.092171	3.080511	0.072596
1890	9.4450e-01	-4.4710	-44.277373	0.000748	7.475785	2.532865	0.059690
1891	9.4500e-01	-4.4261	-43.934560	0.000859	8.587050	2.909371	0.068563
1892	9.4550e-01	-4.3828	-43.793401	0.000354	3.535844	1.197976	0.028232
1893	9.4600e-01	-4.3539	-43.704673	0.000222	2.222531	0.753014	0.017746
1894	9.4650e-01	-4.3170	-43.248933	0.001142	11.415726	3.867753	0.091148
1895	9.4700e-01	-4.2689	-42.954517	0.000737	7.374761	2.498637	0.058883
1896	9.4750e-01	-4.2400	-42.748829	0.000515	5.152230	1.745623	0.041138
1897	9.4800e-01	-4.1951	-42.482644	0.000667	6.667592	2.259041	0.053237
1898	9.4850e-01	-4.1534	-42.276956	0.000515	5.152230	1.745623	0.041138
1899	9.4900e-01	-4.1133	-42.071268	0.000515	5.152230	1.745623	0.041138
1900	9.4950e-01	-4.0699	-41.897845	0.000434	4.344037	1.471800	0.034685
1901	9.5000e-01	-4.0250	-41.486469	0.001030	10.304460	3.491246	0.082275
1902	9.5050e-01	-3.9849	-41.280781	0.000515	5.152230	1.745623	0.041138
1903	9.5100e-01	-3.9592	-40.929901	0.000879	8.789099	2.977827	0.070176
1904	9.5150e-01	-3.9095	-40.562889	0.000919	9.193195	3.114739	0.073402
1905	9.5200e-01	-3.8726	-40.381400	0.000455	4.546085	1.540255	0.036298
1906	9.5250e-01	-3.8309	-40.337036	0.000111	1.111265	0.376507	0.008873
1907	9.5300e-01	-3.7940	-40.046653	0.000727	7.273737	2.464409	0.058077
1908	9.5350e-01	-3.7427	-39.853064	0.000485	4.849158	1.642939	0.038718
1909	9.5400e-01	-3.7042	-39.554615	0.000748	7.475785	2.532865	0.059690
1910	9.5450e-01	-3.6705	-39.413456	0.000354	3.535844	1.197976	0.028232
1911	9.5500e-01	-3.6288	-39.082742	0.000828	8.283978	2.806688	0.066143
1912	9.5550e-01	-3.5903	-38.864955	0.000546	5.455303	1.848307	0.043557
1913	9.5600e-01	-3.5550	-38.380983	0.001212	12.122895	4.107348	0.096794
1914	9.5650e-01	-3.5085	-38.147063	0.000586	5.859399	1.985218	0.046784
1915	9.5700e-01	-3.4796	-37.961541	0.000465	4.647110	1.574483	0.037105
1916	9.5750e-01	-3.4282	-37.578396	0.000960	9.597291	3.251650	0.076629
1917	9.5800e-01	-3.3946	-37.320278	0.000647	6.465544	2.190586	0.051624
1918	9.5850e-01	-3.3464	-37.384807	-0.000162	-1.616386	-0.547646	-0.012906
1919	9.5900e-01	-3.3143	-37.009729	0.000940	9.395243	3.183195	0.075016
1920	9.5950e-01	-3.2726	-36.594320	0.001041	10.405484	3.525474	0.083082
1921	9.6000e-01	-3.2261	-36.562055	0.000081	0.808193	0.273823	0.006453
1922	9.6050e-01	-3.1844	-36.356367	0.000515	5.152230	1.745623	0.041138
1923	9.6100e-01	-3.1523	-36.037753	0.000798	7.980906	2.704004	0.063723
1924	9.6150e-01	-3.1090	-35.771568	0.000667	6.667592	2.259041	0.053237
1925	9.6200e-01	-3.0705	-35.436821	0.000839	8.385002	2.840916	0.066949
1926	9.6250e-01	-3.0288	-35.291629	0.000364	3.636868	1.232204	0.029038
1927	9.6300e-01	-2.9935	-35.182736	0.000273	2.727651	0.924153	0.021779
1928	9.6350e-01	-2.9438	-34.799591	0.000960	9.597291	3.251650	0.076629
1929	9.6400e-01	-2.9053	-34.384182	0.001041	10.405484	3.525474	0.083082
1930	9.6450e-01	-2.8716	-33.984905	0.001000	10.001388	3.388562	0.079855
1931	9.6500e-01	-2.8315	-33.674357	0.000778	7.778857	2.635548	0.062110
1932	9.6550e-01	-2.7866	-33.517066	0.000394	3.939941	1.334888	0.031458
1933	9.6600e-01	-2.7497	-33.198451	0.000798	7.980906	2.704004	0.063723
1934	9.6650e-01	-2.7095	-32.924200	0.000687	6.869640	2.327497	0.054850
1935	9.6700e-01	-2.6694	-32.831439	0.000232	2.323555	0.787242	0.018552
1936	9.6750e-01	-2.6358	-32.480560	0.000879	8.789099	2.977827	0.070176
1937	9.6800e-01	-2.5876	-32.165978	0.000788	7.879881	2.669776	0.062916
1938	9.6850e-01	-2.5411	-32.016753	0.000374	3.737892	1.266432	0.029845
1939	9.6900e-01	-2.5122	-31.867529	0.000374	3.737892	1.266432	0.029845
1940	9.6950e-01	-2.4721	-31.528748	0.000849	8.486026	2.875143	0.067756
1941	9.7000e-01	-2.4320	-31.250465	0.000697	6.970664	2.361725	0.055657
1942	9.7050e-01	-2.3903	-30.871353	0.000950	9.496267	3.217422	0.075822
1943	9.7100e-01	-2.3454	-30.496275	0.000940	9.395243	3.183195	0.075016
1944	9.7150e-01	-2.3101	-30.338984	0.000394	3.939941	1.334888	0.031458
1945	9.7200e-01	-2.2732	-30.096998	0.000606	6.061447	2.053674	0.048397
1946	9.7250e-01	-2.2187	-29.818715	0.000697	6.970664	2.361725	0.055657
1947	9.7300e-01	-2.1882	-29.604960	0.000535	5.354278	1.814079	0.042751
1948	9.7350e-01	-2.1529	-29.262147	0.000859	8.587050	2.909371	0.068563
1949	9.7400e-01	-2.1096	-29.024194	0.000596	5.960423	2.019446	0.047591
1950	9.7450e-01	-2.0614	-28.729778	0.000737	7.374761	2.498637	0.058883
1951	9.7500e-01	-2.0245	-28.403097	0.000818	8.182954	2.772460	0.065336
1952	9.7550e-01	-1.9860	-28.270005	0.000333	3.333796	1.129521	0.026618
1953	9.7600e-01	-1.9491	-28.015919	0.000636	6.364520	2.156358	0.050817
1954	9.7650e-01	-1.9155	-27.850562	0.000414	4.141989	1.403344	0.033071
1955	9.7700e-01	-1.8721	-27.499683	0.000879	8.789099	2.977827	0.070176
1956	9.7750e-01	-1.8320	-27.076207	0.001061	10.607533	3.593929	0.084695
1957	9.7800e-01	-1.7935	-26.846321	0.000576	5.758375	1.950990	0.045977
1958	9.7850e-01	-1.7486	-26.709195	0.000343	3.434820	1.163749	0.027425
1959	9.7900e-01	-1.7101	-26.386548	0.000808	8.081930	2.738232	0.064530
1960	9.7950e-01	-1.6700	-26.164727	0.000556	5.556327	1.882534	0.044364
1961	9.8000e-01	-1.6315	-25.793682	0.000929	9.294219	3.148967	0.074209
1962	9.8050e-01	-1.5818	-25.543630	0.000626	6.263496	2.122130	0.050010
1963	9.8100e-01	-1.5529	-25.192750	0.000879	8.789099	2.977827	0.070176
1964	9.8150e-01	-1.5096	-24.950765	0.000606	6.061447	2.053674	0.048397
1965	9.8200e-01	-1.4711	-24.676514	0.000687	6.869640	2.327497	0.054850
1966	9.8250e-01	-1.4294	-24.438561	0.000596	5.960423	2.019446	0.047591
1967	9.8300e-01	-1.3909	-24.111880	0.000818	8.182954	2.772460	0.065336
1968	9.8350e-01	-1.3508	-23.886026	0.000566	5.657351	1.916762	0.045171
1969	9.8400e-01	-1.3155	-23.631941	0.000636	6.364520	2.156358	0.050817
1970	9.8450e-01	-1.2722	-23.204433	0.001071	10.708557	3.628157	0.085502
1971	9.8500e-01	-1.2321	-23.071341	0.000333	3.333796	1.129521	0.026618
1972	9.8550e-01	-1.1871	-22.720461	0.000879	8.789099	2.977827	0.070176
1973	9.8600e-01	-1.1422	-22.526872	0.000485	4.849158	1.642939	0.038718
1974	9.8650e-01	-1.1117	-22.333284	0.000485	4.849158	1.642939	0.038718
1975	9.8700e-01	-1.0732	-21.921907	0.001030	10.304460	3.491246	0.082275
1976	9.8750e-01	-1.0331	-21.534730	0.000970	9.698316	3.285878	0.077435
1977	9.8800e-01	-0.9882	-21.171751	0.000909	9.092171	3.080511	0.072596
1978	9.8850e-01	-0.9433	-21.026560	0.000364	3.636868	1.232204	0.029038
1979	9.8900e-01	-0.9064	-20.740210	0.000717	7.172713	2.430181	0.057270
1980	9.8950e-01	-0.8695	-20.691812	0.000121	1.212289	0.410735	0.009679
1981	9.9000e-01	-0.8182	-20.316734	0.000940	9.395243	3.183195	0.075016
1982	9.9050e-01	-0.7861	-19.949722	0.000919	9.193195	3.114739	0.073402
1983	9.9100e-01	-0.7460	-19.744034	0.000515	5.152230	1.745623	0.041138
1984	9.9150e-01	-0.7123	-19.296360	0.001121	11.213677	3.799297	0.089535
1985	9.9200e-01	-0.6593	-18.925315	0.000929	9.294219	3.148967	0.074209
1986	9.9250e-01	-0.6289	-18.864819	0.000152	1.515362	0.513418	0.012099
1987	9.9300e-01	-0.5920	-18.570403	0.000737	7.374761	2.498637	0.058883
1988	9.9350e-01	-0.5470	-18.384880	0.000465	4.647110	1.574483	0.037105
1989	9.9400e-01	-0.5085	-17.985603	0.001000	10.001388	3.388562	0.079855
1990	9.9450e-01	-0.4781	-17.727485	0.000647	6.465544	2.190586	0.051624
1991	9.9500e-01	-0.4171	-17.404837	0.000808	8.081930	2.738232	0.064530
1992	9.9550e-01	-0.3914	-16.973295	0.001081	10.809581	3.662385	0.086308
1993	9.9600e-01	-0.3433	-16.751475	0.000556	5.556327	1.882534	0.044364
1994	9.9650e-01	-0.3096	-16.509489	0.000606	6.061447	2.053674	0.048397
1995	9.9700e-01	-0.2695	-16.344132	0.000414	4.141989	1.403344	0.033071
1996	9.9750e-01	-0.2294	-16.013418	0.000828	8.283978	2.806688	0.066143
1997	9.9800e-01	-0.1925	-15.674638	0.000849	8.486026	2.875143	0.067756
1998	9.9850e-01	-0.1476	-15.513314	0.000404	4.040965	1.369116	0.032265
1999	9.9900e-01	-0.1107	-15.073706	0.001101	11.011629	3.730841	0.087922
2000	9.9950e-01	-0.0706	-14.751058	0.000808	8.081930	2.738232	0.064530
2001	1.0000e+00	-0.0289	-14.565536	0.000808	8.081930	2.738232	0.037105

Center data before PMax,+/-Pr and +/-Vc Calc.

PMax (uC/cm2):	1.19e+02
Pr (uC/cm2):	4.58e+00
-Pr (uC/cm2):	-1.46e+01
PLoss (uC/cm2):	-1.25e+01
Vc:	3.32e-01
-Vc:	-6.33e-01
C (Max-Eff) (nF):	5.94e-01
K (Eff):	2.01e+03
Vert. (+/-Pr) Shift (uC/cm2):	-4.99e+00
Horiz. Shift (+/-Vc):	-1.50e-01
Offset (uC/cm2):	2.00e+00

A (Loop Area - uC/cm2·Volts):	-2.00e-01



Hysteresis Version: 5.48.1 - Radiant Technologies, Inc., 1999 - 9/12/24

