»»»»»»»»»»»»»»»»»»»»»»»»»»»»»»»»»»»» Hysteresis ««««««««««««««««««««««««««««««««««««
»»»  Executed Version:	5.48.1
»»»  Vision Version:	5.48.4 (R)
»»»  Vision Compiled:	9/18/24
»»»  Driver Version:	5.47.0
»»»  Windows Version:	Windows 8 or 8.1
»»»  Processor Information:	x86 (AMD or Intel) - 32 Processors
»»»  Tester Name:	PMF21124-494 (100V)
»»»  Tester S/N:	PMF21124-494
»»»  Internal Amp Type:	100V RevK 270k
»»»  Internal Amp S/N:	iAB2-596/K     
»»»  Execution Count:	1
»»»»»»»»»»»»»»»»»»»»»»»»»»»»»»»»»»»»»»»»»»««««««««««««««««««««««««««««««««««««««««««

Stored:	6/5/2025 - 12:12:32
Configured:	06/05/25 10:43:40 AM
Executed:	06/05/25 12:11:54 PM

»»»»»»»»»»»»»»»»»»»»»»»»»»»»»»»»»»» Sample Info ««««««««««««««««««««««««««««««««««««
Sample Name:	
Lot Name:	
Wafer Name:	
Die Row/Column:	0/0
Capacitor Number:	0
Sample Area (cm2):	1.00e-04
Sample Thickness (microns):	3.00e-01

Amplifier:	Internal

»»»»»»»»»»»»»»»»»»»»»»»»»»»»»»»»»»» Tester Info «««««««««««««««««««««««««««««««««««
Tester Name:	PMF21124-494 (100V)
Tester Serial Number:	PMF21124-494
Return Signal Amp. Level:	0.19 [Index: 3]

»»»»»»»»»»»»»»»»»»»»»»»»»»»»»»»» Hysteresis Info ««««««««««««««««««««««««««««««««««
Task Name:	Hyst-187
Volts:	20.00
Field:	666.67 (kV/cm)
DCBias:	0.00
DCField:	0.00 (kV/cm)
Hysteresis Period (ms):	2.00e+02
Preset:	Enabled
Preset Delay (ms):	1.00e+03
Profile:	Standard Bipolar

»»»»»»»»»»»»»»»»»»»»»»»»»»»»»»»»»»»»»» Data «««««««««««««««««««««««««««««««««««««««
Points:	2009

Valid Data

Point	Time (ms)	Drive Voltage	Measured Polarization (uC/cm2)	Capacitance (uF)	Normalized Capacitance (uF/cm2)	Dielectric Constant	Instantaneous Current (mA)
   1	0.0000e+00	0.0032	-3.514327	0.000527	5.271074	1.785888	0.000211
   2	9.9500e-02	0.0225	-3.304396	0.000527	5.271074	1.785888	0.000211
   3	1.9900e-01	0.0706	-3.021796	0.000710	7.095677	2.404080	0.000284
   4	2.9850e-01	0.1123	-2.751308	0.000679	6.791577	2.301048	0.000272
   5	3.9800e-01	0.1476	-2.509080	0.000608	6.082009	2.060640	0.000243
   6	4.9750e-01	0.1861	-2.222443	0.000720	7.197044	2.438424	0.000288
   7	5.9700e-01	0.2278	-1.964067	0.000649	6.487476	2.198016	0.000260
   8	6.9650e-01	0.2679	-1.669356	0.000740	7.399777	2.507112	0.000296
   9	7.9600e-01	0.3064	-1.382719	0.000720	7.197044	2.438424	0.000288
  10	8.9550e-01	0.3513	-1.116268	0.000669	6.690210	2.266704	0.000268
  11	9.9500e-01	0.3882	-0.865966	0.000628	6.284742	2.129328	0.000252
  12	1.0945e+00	0.4299	-0.555106	0.000781	7.805245	2.644488	0.000312
  13	1.1940e+00	0.4620	-0.288655	0.000669	6.690210	2.266704	0.000268
  14	1.2935e+00	0.5101	-0.006056	0.000710	7.095677	2.404080	0.000284
  15	1.3930e+00	0.5406	0.244247	0.000628	6.284742	2.129328	0.000252
  16	1.4925e+00	0.5871	0.603552	0.000902	9.021646	3.056617	0.000361
  17	1.5920e+00	0.6337	0.865966	0.000659	6.588843	2.232360	0.000264
  18	1.6915e+00	0.6642	1.132417	0.000669	6.690210	2.266704	0.000268
  19	1.7910e+00	0.6962	1.406942	0.000689	6.892943	2.335392	0.000276
  20	1.8905e+00	0.7444	1.709727	0.000760	7.602511	2.575800	0.000304
  21	1.9900e+00	0.7829	1.992326	0.000710	7.095677	2.404080	0.000284
  22	2.0895e+00	0.8262	2.270889	0.000699	6.994310	2.369736	0.000280
  23	2.1890e+00	0.8679	2.545414	0.000689	6.892943	2.335392	0.000276
  24	2.2885e+00	0.8984	2.840125	0.000740	7.399777	2.507112	0.000296
  25	2.3880e+00	0.9385	3.138873	0.000750	7.501144	2.541456	0.000300
  26	2.4875e+00	0.9930	3.425510	0.000720	7.197044	2.438424	0.000288
  27	2.5870e+00	1.0171	3.724258	0.000750	7.501144	2.541456	0.000300
  28	2.6865e+00	1.0668	3.986672	0.000659	6.588843	2.232360	0.000264
  29	2.7860e+00	1.0893	4.309642	0.000811	8.109345	2.747521	0.000325
  30	2.8855e+00	1.1358	4.531685	0.000558	5.575175	1.888920	0.000223
  31	2.9850e+00	1.1839	4.850619	0.000801	8.007978	2.713177	0.000321
  32	3.0845e+00	1.2224	5.149367	0.000750	7.501144	2.541456	0.000300
  33	3.1840e+00	1.2497	5.444078	0.000740	7.399777	2.507112	0.000296
  34	3.2835e+00	1.3091	5.702454	0.000649	6.487476	2.198016	0.000260
  35	3.3830e+00	1.3460	6.013314	0.000781	7.805245	2.644488	0.000312
  36	3.4825e+00	1.3861	6.299950	0.000720	7.197044	2.438424	0.000288
  37	3.5820e+00	1.4262	6.586587	0.000720	7.197044	2.438424	0.000288
  38	3.6815e+00	1.4550	6.869186	0.000710	7.095677	2.404080	0.000284
  39	3.7810e+00	1.5064	7.123526	0.000639	6.386109	2.163672	0.000256
  40	3.8805e+00	1.5497	7.402088	0.000699	6.994310	2.369736	0.000280
  41	3.9800e+00	1.5786	7.721022	0.000801	8.007978	2.713177	0.000321
  42	4.0795e+00	1.6203	8.023807	0.000760	7.602511	2.575800	0.000304
  43	4.1790e+00	1.6716	8.282184	0.000649	6.487476	2.198016	0.000260
  44	4.2785e+00	1.7021	8.584969	0.000760	7.602511	2.575800	0.000304
  45	4.3780e+00	1.7326	8.899866	0.000791	7.906612	2.678832	0.000316
  46	4.4775e+00	1.7807	9.162280	0.000659	6.588843	2.232360	0.000264
  47	4.5770e+00	1.8256	9.456990	0.000740	7.399777	2.507112	0.000296
  48	4.6765e+00	1.8577	9.747664	0.000730	7.298411	2.472768	0.000292
  49	4.7760e+00	1.9122	10.018152	0.000679	6.791577	2.301048	0.000272
  50	4.8755e+00	1.9395	10.276529	0.000649	6.487476	2.198016	0.000260
  51	4.9750e+00	1.9828	10.591426	0.000791	7.906612	2.678832	0.000316
  52	5.0745e+00	2.0261	10.914396	0.000811	8.109345	2.747521	0.000325
  53	5.1740e+00	2.0598	11.209107	0.000740	7.399777	2.507112	0.000296
  54	5.2735e+00	2.0967	11.459410	0.000628	6.284742	2.129328	0.000252
  55	5.3730e+00	2.1400	11.766232	0.000770	7.703878	2.610144	0.000308
  56	5.4725e+00	2.1818	12.060943	0.000740	7.399777	2.507112	0.000296
  57	5.5720e+00	2.2026	12.363728	0.000760	7.602511	2.575800	0.000304
  58	5.6715e+00	2.2604	12.642291	0.000699	6.994310	2.369736	0.000280
  59	5.7710e+00	2.2989	12.908742	0.000669	6.690210	2.266704	0.000268
  60	5.8705e+00	2.3342	13.219601	0.000781	7.805245	2.644488	0.000312
  61	5.9700e+00	2.3871	13.445681	0.000568	5.676542	1.923264	0.000227
  62	6.0695e+00	2.4176	13.764614	0.000801	8.007978	2.713177	0.000321
  63	6.1690e+00	2.4641	14.079511	0.000791	7.906612	2.678832	0.000316
  64	6.2685e+00	2.4978	14.349999	0.000679	6.791577	2.301048	0.000272
  65	6.3680e+00	2.5299	14.620487	0.000679	6.791577	2.301048	0.000272
  66	6.4675e+00	2.5812	14.919235	0.000750	7.501144	2.541456	0.000300
  67	6.5670e+00	2.6197	15.234132	0.000791	7.906612	2.678832	0.000316
  68	6.6665e+00	2.6486	15.500583	0.000669	6.690210	2.266704	0.000268
  69	6.7660e+00	2.6983	15.762996	0.000659	6.588843	2.232360	0.000264
  70	6.8655e+00	2.7400	16.090004	0.000821	8.210712	2.781865	0.000329
  71	6.9650e+00	2.7866	16.388753	0.000750	7.501144	2.541456	0.000300
  72	7.0645e+00	2.8090	16.651166	0.000659	6.588843	2.232360	0.000264
  73	7.1640e+00	2.8684	16.933766	0.000710	7.095677	2.404080	0.000284
  74	7.2635e+00	2.8860	17.256737	0.000811	8.109345	2.747521	0.000325
  75	7.3630e+00	2.9341	17.519151	0.000659	6.588843	2.232360	0.000264
  76	7.4625e+00	2.9678	17.805787	0.000720	7.197044	2.438424	0.000288
  77	7.5620e+00	3.0127	18.092424	0.000720	7.197044	2.438424	0.000288
  78	7.6615e+00	3.0561	18.431543	0.000851	8.514812	2.884897	0.000341
  79	7.7610e+00	3.0962	18.689920	0.000649	6.487476	2.198016	0.000260
  80	7.8605e+00	3.1443	19.012891	0.000811	8.109345	2.747521	0.000325
  81	7.9600e+00	3.1764	19.263193	0.000628	6.284742	2.129328	0.000252
  82	8.0595e+00	3.2261	19.578090	0.000791	7.906612	2.678832	0.000316
  83	8.1590e+00	3.2518	19.864726	0.000720	7.197044	2.438424	0.000288
  84	8.2585e+00	3.2919	20.123103	0.000649	6.487476	2.198016	0.000260
  85	8.3580e+00	3.3304	20.433963	0.000781	7.805245	2.644488	0.000312
  86	8.4575e+00	3.3721	20.692339	0.000649	6.487476	2.198016	0.000260
  87	8.5570e+00	3.4186	21.015310	0.000811	8.109345	2.747521	0.000325
  88	8.6565e+00	3.4539	21.301947	0.000720	7.197044	2.438424	0.000288
  89	8.7560e+00	3.4972	21.620880	0.000801	8.007978	2.713177	0.000321
  90	8.8555e+00	3.5309	21.895406	0.000689	6.892943	2.335392	0.000276
  91	8.9550e+00	3.5758	22.141671	0.000618	6.183376	2.094984	0.000248
  92	9.0545e+00	3.6079	22.468679	0.000821	8.210712	2.781865	0.000329
  93	9.1540e+00	3.6448	22.743204	0.000689	6.892943	2.335392	0.000276
  94	9.2535e+00	3.6929	23.033878	0.000730	7.298411	2.472768	0.000292
  95	9.3530e+00	3.7266	23.304366	0.000679	6.791577	2.301048	0.000272
  96	9.4525e+00	3.7796	23.591003	0.000720	7.197044	2.438424	0.000288
  97	9.5520e+00	3.8149	23.873602	0.000710	7.095677	2.404080	0.000284
  98	9.6515e+00	3.8405	24.184462	0.000781	7.805245	2.644488	0.000312
  99	9.7510e+00	3.8967	24.487247	0.000760	7.602511	2.575800	0.000304
 100	9.8505e+00	3.9368	24.729475	0.000608	6.082009	2.060640	0.000243
 101	9.9500e+00	3.9817	24.995926	0.000669	6.690210	2.266704	0.000268
 102	1.0050e+01	4.0138	25.314860	0.000801	8.007978	2.713177	0.000321
 103	1.0149e+01	4.0411	25.577273	0.000659	6.588843	2.232360	0.000264
 104	1.0248e+01	4.0924	25.888133	0.000781	7.805245	2.644488	0.000312
 105	1.0348e+01	4.1245	26.198992	0.000781	7.805245	2.644488	0.000312
 106	1.0447e+01	4.1806	26.469480	0.000679	6.791577	2.301048	0.000272
 107	1.0547e+01	4.2223	26.727857	0.000649	6.487476	2.198016	0.000260
 108	1.0646e+01	4.2480	27.042754	0.000791	7.906612	2.678832	0.000316
 109	1.0746e+01	4.2897	27.349576	0.000770	7.703878	2.610144	0.000308
 110	1.0845e+01	4.3298	27.616027	0.000669	6.690210	2.266704	0.000268
 111	1.0945e+01	4.3715	27.898627	0.000710	7.095677	2.404080	0.000284
 112	1.1044e+01	4.4116	28.201412	0.000760	7.602511	2.575800	0.000304
 113	1.1144e+01	4.4534	28.467863	0.000669	6.690210	2.266704	0.000268
 114	1.1243e+01	4.4951	28.774685	0.000770	7.703878	2.610144	0.000308
 115	1.1343e+01	4.5271	29.024987	0.000628	6.284742	2.129328	0.000252
 116	1.1443e+01	4.5785	29.360070	0.000841	8.413446	2.850553	0.000337
 117	1.1542e+01	4.6122	29.618446	0.000649	6.487476	2.198016	0.000260
 118	1.1642e+01	4.6603	29.957566	0.000851	8.514812	2.884897	0.000341
 119	1.1741e+01	4.6860	30.203831	0.000618	6.183376	2.094984	0.000248
 120	1.1841e+01	4.7164	30.454133	0.000628	6.284742	2.129328	0.000252
 121	1.1940e+01	4.7694	30.777104	0.000811	8.109345	2.747521	0.000325
 122	1.2040e+01	4.8063	31.059704	0.000710	7.095677	2.404080	0.000284
 123	1.2139e+01	4.8528	31.322118	0.000659	6.588843	2.232360	0.000264
 124	1.2239e+01	4.8865	31.604717	0.000710	7.095677	2.404080	0.000284
 125	1.2338e+01	4.9218	31.895391	0.000730	7.298411	2.472768	0.000292
 126	1.2438e+01	4.9699	32.210287	0.000791	7.906612	2.678832	0.000316
 127	1.2537e+01	5.0068	32.452516	0.000608	6.082009	2.060640	0.000243
 128	1.2636e+01	5.0501	32.763375	0.000781	7.805245	2.644488	0.000312
 129	1.2736e+01	5.0886	33.005603	0.000608	6.082009	2.060640	0.000243
 130	1.2835e+01	5.1287	33.348760	0.000862	8.616179	2.919241	0.000345
 131	1.2935e+01	5.1720	33.619248	0.000679	6.791577	2.301048	0.000272
 132	1.3034e+01	5.2089	33.901847	0.000710	7.095677	2.404080	0.000284
 133	1.3134e+01	5.2426	34.168298	0.000669	6.690210	2.266704	0.000268
 134	1.3233e+01	5.2892	34.446861	0.000699	6.994310	2.369736	0.000280
 135	1.3333e+01	5.3309	34.765794	0.000801	8.007978	2.713177	0.000321
 136	1.3432e+01	5.3662	35.008023	0.000608	6.082009	2.060640	0.000243
 137	1.3532e+01	5.4175	35.326956	0.000801	8.007978	2.713177	0.000321
 138	1.3632e+01	5.4496	35.625704	0.000750	7.501144	2.541456	0.000300
 139	1.3731e+01	5.4785	35.900230	0.000689	6.892943	2.335392	0.000276
 140	1.3831e+01	5.5330	36.162643	0.000659	6.588843	2.232360	0.000264
 141	1.3930e+01	5.5667	36.473503	0.000781	7.805245	2.644488	0.000312
 142	1.4030e+01	5.6020	36.719768	0.000618	6.183376	2.094984	0.000248
 143	1.4129e+01	5.6421	37.046776	0.000821	8.210712	2.781865	0.000329
 144	1.4229e+01	5.6806	37.317264	0.000679	6.791577	2.301048	0.000272
 145	1.4328e+01	5.7367	37.632161	0.000791	7.906612	2.678832	0.000316
 146	1.4428e+01	5.7640	37.934946	0.000760	7.602511	2.575800	0.000304
 147	1.4527e+01	5.7961	38.169100	0.000588	5.879275	1.991952	0.000235
 148	1.4627e+01	5.8571	38.496108	0.000821	8.210712	2.781865	0.000329
 149	1.4726e+01	5.8779	38.754485	0.000649	6.487476	2.198016	0.000260
 150	1.4825e+01	5.9196	39.016898	0.000659	6.588843	2.232360	0.000264
 151	1.4925e+01	5.9597	39.303535	0.000720	7.197044	2.438424	0.000288
 152	1.5024e+01	6.0046	39.574023	0.000679	6.791577	2.301048	0.000272
 153	1.5124e+01	6.0480	39.860660	0.000720	7.197044	2.438424	0.000288
 154	1.5223e+01	6.0752	40.159408	0.000750	7.501144	2.541456	0.000300
 155	1.5323e+01	6.1218	40.417784	0.000649	6.487476	2.198016	0.000260
 156	1.5422e+01	6.1667	40.684235	0.000669	6.690210	2.266704	0.000268
 157	1.5522e+01	6.2052	41.015281	0.000831	8.312079	2.816209	0.000333
 158	1.5621e+01	6.2421	41.289806	0.000689	6.892943	2.335392	0.000276
 159	1.5721e+01	6.2838	41.544145	0.000639	6.386109	2.163672	0.000256
 160	1.5820e+01	6.3319	41.850968	0.000770	7.703878	2.610144	0.000308
 161	1.5920e+01	6.3592	42.081084	0.000578	5.777908	1.957608	0.000231
 162	1.6020e+01	6.4025	42.379832	0.000750	7.501144	2.541456	0.000300
 163	1.6119e+01	6.4458	42.618023	0.000598	5.980642	2.026296	0.000239
 164	1.6218e+01	6.4859	42.936957	0.000801	8.007978	2.713177	0.000321
 165	1.6318e+01	6.5228	43.191297	0.000639	6.386109	2.163672	0.000256
 166	1.6418e+01	6.5645	43.481970	0.000730	7.298411	2.472768	0.000292
 167	1.6517e+01	6.6030	43.744384	0.000659	6.588843	2.232360	0.000264
 168	1.6616e+01	6.6447	44.055244	0.000781	7.805245	2.644488	0.000312
 169	1.6716e+01	6.6800	44.273249	0.000547	5.473808	1.854576	0.000219
 170	1.6816e+01	6.7217	44.608331	0.000841	8.413446	2.850553	0.000337
 171	1.6915e+01	6.7586	44.838448	0.000578	5.777908	1.957608	0.000231
 172	1.7015e+01	6.8003	45.125085	0.000720	7.197044	2.438424	0.000288
 173	1.7114e+01	6.8421	45.375387	0.000628	6.284742	2.129328	0.000252
 174	1.7213e+01	6.8773	45.657987	0.000710	7.095677	2.404080	0.000284
 175	1.7313e+01	6.9223	45.968846	0.000781	7.805245	2.644488	0.000312
 176	1.7413e+01	6.9624	46.223186	0.000639	6.386109	2.163672	0.000256
 177	1.7512e+01	7.0025	46.457340	0.000588	5.879275	1.991952	0.000235
 178	1.7611e+01	7.0378	46.768199	0.000781	7.805245	2.644488	0.000312
 179	1.7711e+01	7.0747	47.058873	0.000730	7.298411	2.472768	0.000292
 180	1.7811e+01	7.1196	47.297064	0.000598	5.980642	2.026296	0.000239
 181	1.7910e+01	7.1581	47.595812	0.000750	7.501144	2.541456	0.000300
 182	1.8009e+01	7.2014	47.850151	0.000639	6.386109	2.163672	0.000256
 183	1.8109e+01	7.2383	48.116602	0.000669	6.690210	2.266704	0.000268
 184	1.8209e+01	7.2784	48.423425	0.000770	7.703878	2.610144	0.000308
 185	1.8308e+01	7.3217	48.649504	0.000568	5.676542	1.923264	0.000227
 186	1.8407e+01	7.3554	48.948252	0.000750	7.501144	2.541456	0.000300
 187	1.8507e+01	7.4019	49.222777	0.000689	6.892943	2.335392	0.000276
 188	1.8607e+01	7.4404	49.440783	0.000547	5.473808	1.854576	0.000219
 189	1.8706e+01	7.4805	49.771828	0.000831	8.312079	2.816209	0.000333
 190	1.8805e+01	7.5206	50.022130	0.000628	6.284742	2.129328	0.000252
 191	1.8905e+01	7.5656	50.300693	0.000699	6.994310	2.369736	0.000280
 192	1.9005e+01	7.5960	50.563107	0.000659	6.588843	2.232360	0.000264
 193	1.9104e+01	7.6361	50.849743	0.000720	7.197044	2.438424	0.000288
 194	1.9203e+01	7.6827	51.120231	0.000679	6.791577	2.301048	0.000272
 195	1.9303e+01	7.7164	51.378608	0.000649	6.487476	2.198016	0.000260
 196	1.9402e+01	7.7581	51.641022	0.000659	6.588843	2.232360	0.000264
 197	1.9502e+01	7.8046	51.899398	0.000649	6.487476	2.198016	0.000260
 198	1.9602e+01	7.8447	52.157775	0.000649	6.487476	2.198016	0.000260
 199	1.9701e+01	7.8784	52.444412	0.000720	7.197044	2.438424	0.000288
 200	1.9800e+01	7.9169	52.706826	0.000659	6.588843	2.232360	0.000264
 201	1.9900e+01	7.9618	52.973277	0.000669	6.690210	2.266704	0.000268
 202	2.0000e+01	7.9971	53.211468	0.000598	5.980642	2.026296	0.000239
 203	2.0099e+01	8.0404	53.481956	0.000679	6.791577	2.301048	0.000272
 204	2.0198e+01	8.0757	53.703998	0.000558	5.575175	1.888920	0.000223
 205	2.0298e+01	8.1110	54.002746	0.000750	7.501144	2.541456	0.000300
 206	2.0398e+01	8.1479	54.297457	0.000740	7.399777	2.507112	0.000296
 207	2.0497e+01	8.2024	54.523537	0.000568	5.676542	1.923264	0.000227
 208	2.0596e+01	8.2281	54.806136	0.000710	7.095677	2.404080	0.000284
 209	2.0696e+01	8.2730	55.084699	0.000699	6.994310	2.369736	0.000280
 210	2.0796e+01	8.3212	55.359224	0.000689	6.892943	2.335392	0.000276
 211	2.0895e+01	8.3548	55.581266	0.000558	5.575175	1.888920	0.000223
 212	2.0994e+01	8.3982	55.831569	0.000628	6.284742	2.129328	0.000252
 213	2.1094e+01	8.4238	56.114168	0.000710	7.095677	2.404080	0.000284
 214	2.1194e+01	8.4752	56.388693	0.000689	6.892943	2.335392	0.000276
 215	2.1293e+01	8.5105	56.647070	0.000649	6.487476	2.198016	0.000260
 216	2.1392e+01	8.5506	56.869113	0.000558	5.575175	1.888920	0.000223
 217	2.1492e+01	8.5907	57.143638	0.000689	6.892943	2.335392	0.000276
 218	2.1591e+01	8.6356	57.418163	0.000689	6.892943	2.335392	0.000276
 219	2.1691e+01	8.6773	57.660391	0.000608	6.082009	2.060640	0.000243
 220	2.1791e+01	8.7126	57.938954	0.000699	6.994310	2.369736	0.000280
 221	2.1890e+01	8.7607	58.193293	0.000639	6.386109	2.163672	0.000256
 222	2.1989e+01	8.7816	58.447633	0.000639	6.386109	2.163672	0.000256
 223	2.2089e+01	8.8361	58.673712	0.000568	5.676542	1.923264	0.000227
 224	2.2189e+01	8.8730	58.952275	0.000699	6.994310	2.369736	0.000280
 225	2.2288e+01	8.9131	59.198540	0.000618	6.183376	2.094984	0.000248
 226	2.2387e+01	8.9500	59.448842	0.000628	6.284742	2.129328	0.000252
 227	2.2487e+01	8.9901	59.707219	0.000649	6.487476	2.198016	0.000260
 228	2.2587e+01	9.0447	59.961559	0.000639	6.386109	2.163672	0.000256
 229	2.2686e+01	9.0751	60.203787	0.000608	6.082009	2.060640	0.000243
 230	2.2785e+01	9.1169	60.450052	0.000618	6.183376	2.094984	0.000248
 231	2.2885e+01	9.1441	60.752837	0.000760	7.602511	2.575800	0.000304
 232	2.2985e+01	9.1923	60.974880	0.000558	5.575175	1.888920	0.000223
 233	2.3084e+01	9.2340	61.209033	0.000588	5.879275	1.991952	0.000235
 234	2.3183e+01	9.2660	61.471447	0.000659	6.588843	2.232360	0.000264
 235	2.3283e+01	9.3174	61.745973	0.000689	6.892943	2.335392	0.000276
 236	2.3383e+01	9.3511	61.968015	0.000558	5.575175	1.888920	0.000223
 237	2.3482e+01	9.3944	62.202169	0.000588	5.879275	1.991952	0.000235
 238	2.3581e+01	9.4297	62.492843	0.000730	7.298411	2.472768	0.000292
 239	2.3681e+01	9.4778	62.739108	0.000618	6.183376	2.094984	0.000248
 240	2.3780e+01	9.5099	63.021707	0.000710	7.095677	2.404080	0.000284
 241	2.3880e+01	9.5452	63.243750	0.000558	5.575175	1.888920	0.000223
 242	2.3980e+01	9.5837	63.485978	0.000608	6.082009	2.060640	0.000243
 243	2.4079e+01	9.6286	63.736280	0.000628	6.284742	2.129328	0.000252
 244	2.4178e+01	9.6719	63.998694	0.000659	6.588843	2.232360	0.000264
 245	2.4278e+01	9.7152	64.273220	0.000689	6.892943	2.335392	0.000276
 246	2.4378e+01	9.7585	64.511411	0.000598	5.980642	2.026296	0.000239
 247	2.4477e+01	9.7874	64.749602	0.000598	5.980642	2.026296	0.000239
 248	2.4576e+01	9.8291	65.003941	0.000639	6.386109	2.163672	0.000256
 249	2.4676e+01	9.8676	65.258281	0.000639	6.386109	2.163672	0.000256
 250	2.4776e+01	9.9093	65.492435	0.000588	5.879275	1.991952	0.000235
 251	2.4875e+01	9.9527	65.803294	0.000781	7.805245	2.644488	0.000312
 252	2.4974e+01	9.9928	65.968817	0.000416	4.156039	1.408104	0.000166
 253	2.5074e+01	10.0281	66.247379	0.000699	6.994310	2.369736	0.000280
 254	2.5174e+01	10.0682	66.501718	0.000639	6.386109	2.163672	0.000256
 255	2.5273e+01	10.1083	66.739909	0.000598	5.980642	2.026296	0.000239
 256	2.5372e+01	10.1468	67.018472	0.000699	6.994310	2.369736	0.000280
 257	2.5472e+01	10.1917	67.244551	0.000568	5.676542	1.923264	0.000227
 258	2.5572e+01	10.2254	67.478705	0.000588	5.879275	1.991952	0.000235
 259	2.5671e+01	10.2671	67.769379	0.000730	7.298411	2.472768	0.000292
 260	2.5770e+01	10.3152	68.027756	0.000649	6.487476	2.198016	0.000260
 261	2.5870e+01	10.3425	68.205390	0.000446	4.460140	1.511136	0.000179
 262	2.5970e+01	10.3890	68.471841	0.000669	6.690210	2.266704	0.000268
 263	2.6069e+01	10.4259	68.742329	0.000679	6.791577	2.301048	0.000272
 264	2.6169e+01	10.4676	69.008780	0.000669	6.690210	2.266704	0.000268
 265	2.6268e+01	10.5077	69.222748	0.000537	5.372441	1.820232	0.000215
 266	2.6367e+01	10.5526	69.428642	0.000517	5.169708	1.751544	0.000207
 267	2.6467e+01	10.5863	69.707204	0.000699	6.994310	2.369736	0.000280
 268	2.6567e+01	10.6313	69.929247	0.000558	5.575175	1.888920	0.000223
 269	2.6666e+01	10.6617	70.191661	0.000659	6.588843	2.232360	0.000264
 270	2.6765e+01	10.7050	70.437926	0.000618	6.183376	2.094984	0.000248
 271	2.6865e+01	10.7484	70.664005	0.000568	5.676542	1.923264	0.000227
 272	2.6965e+01	10.7837	70.938531	0.000689	6.892943	2.335392	0.000276
 273	2.7064e+01	10.8173	71.144425	0.000517	5.169708	1.751544	0.000207
 274	2.7163e+01	10.8655	71.427024	0.000710	7.095677	2.404080	0.000284
 275	2.7263e+01	10.9088	71.620807	0.000487	4.865607	1.648512	0.000195
 276	2.7363e+01	10.9457	71.850923	0.000578	5.777908	1.957608	0.000231
 277	2.7462e+01	10.9970	72.169857	0.000801	8.007978	2.713177	0.000321
 278	2.7561e+01	11.0291	72.371714	0.000507	5.068341	1.717200	0.000203
 279	2.7661e+01	11.0580	72.642202	0.000679	6.791577	2.301048	0.000272
 280	2.7761e+01	11.1093	72.900579	0.000649	6.487476	2.198016	0.000260
 281	2.7860e+01	11.1398	73.094361	0.000487	4.865607	1.648512	0.000195
 282	2.7959e+01	11.1847	73.368886	0.000689	6.892943	2.335392	0.000276
 283	2.8059e+01	11.2216	73.562669	0.000487	4.865607	1.648512	0.000195
 284	2.8159e+01	11.2713	73.825083	0.000659	6.588843	2.232360	0.000264
 285	2.8258e+01	11.3130	74.091534	0.000669	6.690210	2.266704	0.000268
 286	2.8358e+01	11.3516	74.293390	0.000507	5.068341	1.717200	0.000203
 287	2.8457e+01	11.3836	74.588101	0.000740	7.399777	2.507112	0.000296
 288	2.8556e+01	11.4253	74.846478	0.000649	6.487476	2.198016	0.000260
 289	2.8656e+01	11.4558	75.068520	0.000558	5.575175	1.888920	0.000223
 290	2.8756e+01	11.5007	75.262303	0.000487	4.865607	1.648512	0.000195
 291	2.8855e+01	11.5425	75.532791	0.000679	6.791577	2.301048	0.000272
 292	2.8954e+01	11.5826	75.775019	0.000608	6.082009	2.060640	0.000243
 293	2.9054e+01	11.6227	76.029359	0.000639	6.386109	2.163672	0.000256
 294	2.9154e+01	11.6596	76.259476	0.000578	5.777908	1.957608	0.000231
 295	2.9253e+01	11.7029	76.493629	0.000588	5.879275	1.991952	0.000235
 296	2.9352e+01	11.7526	76.699523	0.000517	5.169708	1.751544	0.000207
 297	2.9452e+01	11.7831	76.945789	0.000618	6.183376	2.094984	0.000248
 298	2.9552e+01	11.8200	77.200128	0.000639	6.386109	2.163672	0.000256
 299	2.9651e+01	11.8633	77.438319	0.000598	5.980642	2.026296	0.000239
 300	2.9750e+01	11.8970	77.688622	0.000628	6.284742	2.129328	0.000252
 301	2.9850e+01	11.9451	77.930850	0.000608	6.082009	2.060640	0.000243
 302	2.9950e+01	11.9788	78.181152	0.000628	6.284742	2.129328	0.000252
 303	3.0049e+01	12.0205	78.407232	0.000568	5.676542	1.923264	0.000227
 304	3.0148e+01	12.0558	78.641386	0.000588	5.879275	1.991952	0.000235
 305	3.0248e+01	12.0975	78.855354	0.000537	5.372441	1.820232	0.000215
 306	3.0348e+01	12.1408	79.141990	0.000720	7.197044	2.438424	0.000288
 307	3.0447e+01	12.1858	79.359996	0.000547	5.473808	1.854576	0.000219
 308	3.0547e+01	12.2243	79.594150	0.000588	5.879275	1.991952	0.000235
 309	3.0646e+01	12.2612	79.848489	0.000639	6.386109	2.163672	0.000256
 310	3.0745e+01	12.3125	80.086680	0.000598	5.980642	2.026296	0.000239
 311	3.0845e+01	12.3414	80.320834	0.000588	5.879275	1.991952	0.000235
 312	3.0945e+01	12.3815	80.575174	0.000639	6.386109	2.163672	0.000256
 313	3.1044e+01	12.4200	80.785105	0.000527	5.271074	1.785888	0.000211
 314	3.1143e+01	12.4681	81.047519	0.000659	6.588843	2.232360	0.000264
 315	3.1243e+01	12.4970	81.281672	0.000588	5.879275	1.991952	0.000235
 316	3.1343e+01	12.5451	81.511789	0.000578	5.777908	1.957608	0.000231
 317	3.1442e+01	12.5724	81.745943	0.000588	5.879275	1.991952	0.000235
 318	3.1541e+01	12.6221	81.963948	0.000547	5.473808	1.854576	0.000219
 319	3.1641e+01	12.6670	82.218288	0.000639	6.386109	2.163672	0.000256
 320	3.1741e+01	12.7007	82.460516	0.000608	6.082009	2.060640	0.000243
 321	3.1840e+01	12.7440	82.694670	0.000588	5.879275	1.991952	0.000235
 322	3.1939e+01	12.7761	82.944972	0.000628	6.284742	2.129328	0.000252
 323	3.2039e+01	12.8114	83.142792	0.000497	4.966974	1.682856	0.000199
 324	3.2139e+01	12.8515	83.413280	0.000679	6.791577	2.301048	0.000272
 325	3.2238e+01	12.8996	83.627248	0.000537	5.372441	1.820232	0.000215
 326	3.2337e+01	12.9365	83.833142	0.000517	5.169708	1.751544	0.000207
 327	3.2437e+01	12.9686	84.079407	0.000618	6.183376	2.094984	0.000248
 328	3.2536e+01	13.0103	84.289339	0.000527	5.271074	1.785888	0.000211
 329	3.2636e+01	13.0424	84.515418	0.000568	5.676542	1.923264	0.000227
 330	3.2736e+01	13.0970	84.745535	0.000578	5.777908	1.957608	0.000231
 331	3.2835e+01	13.1258	84.987763	0.000608	6.082009	2.060640	0.000243
 332	3.2934e+01	13.1724	85.242103	0.000639	6.386109	2.163672	0.000256
 333	3.3034e+01	13.2125	85.460108	0.000547	5.473808	1.854576	0.000219
 334	3.3133e+01	13.2510	85.698299	0.000598	5.980642	2.026296	0.000239
 335	3.3233e+01	13.3007	85.912267	0.000537	5.372441	1.820232	0.000215
 336	3.3333e+01	13.3344	86.150458	0.000598	5.980642	2.026296	0.000239
 337	3.3432e+01	13.3777	86.396723	0.000618	6.183376	2.094984	0.000248
 338	3.3532e+01	13.4274	86.638952	0.000608	6.082009	2.060640	0.000243
 339	3.3631e+01	13.4531	86.852920	0.000537	5.372441	1.820232	0.000215
 340	3.3730e+01	13.4980	87.078999	0.000568	5.676542	1.923264	0.000227
 341	3.3830e+01	13.5413	87.317190	0.000598	5.980642	2.026296	0.000239
 342	3.3929e+01	13.5814	87.515010	0.000497	4.966974	1.682856	0.000199
 343	3.4029e+01	13.6167	87.765312	0.000628	6.284742	2.129328	0.000252
 344	3.4129e+01	13.6649	87.987355	0.000558	5.575175	1.888920	0.000223
 345	3.4228e+01	13.6937	88.237657	0.000628	6.284742	2.129328	0.000252
 346	3.4328e+01	13.7370	88.443551	0.000517	5.169708	1.751544	0.000207
 347	3.4427e+01	13.7772	88.669631	0.000568	5.676542	1.923264	0.000227
 348	3.4526e+01	13.8076	88.887636	0.000547	5.473808	1.854576	0.000219
 349	3.4626e+01	13.8574	89.109679	0.000558	5.575175	1.888920	0.000223
 350	3.4725e+01	13.8846	89.376130	0.000669	6.690210	2.266704	0.000268
 351	3.4825e+01	13.9263	89.569912	0.000487	4.865607	1.648512	0.000195
 352	3.4925e+01	13.9713	89.836363	0.000669	6.690210	2.266704	0.000268
 353	3.5024e+01	14.0162	90.050331	0.000537	5.372441	1.820232	0.000215
 354	3.5123e+01	14.0483	90.312745	0.000659	6.588843	2.232360	0.000264
 355	3.5223e+01	14.0948	90.506528	0.000487	4.865607	1.648512	0.000195
 356	3.5322e+01	14.1365	90.760867	0.000639	6.386109	2.163672	0.000256
 357	3.5422e+01	14.1686	90.946575	0.000466	4.662873	1.579824	0.000187
 358	3.5522e+01	14.2167	91.188803	0.000608	6.082009	2.060640	0.000243
 359	3.5621e+01	14.2584	91.431032	0.000608	6.082009	2.060640	0.000243
 360	3.5721e+01	14.2969	91.632888	0.000507	5.068341	1.717200	0.000203
 361	3.5820e+01	14.3354	91.883191	0.000628	6.284742	2.129328	0.000252
 362	3.5919e+01	14.3707	92.121382	0.000598	5.980642	2.026296	0.000239
 363	3.6019e+01	14.4044	92.335350	0.000537	5.372441	1.820232	0.000215
 364	3.6118e+01	14.4525	92.541244	0.000517	5.169708	1.751544	0.000207
 365	3.6218e+01	14.4958	92.783472	0.000608	6.082009	2.060640	0.000243
 366	3.6318e+01	14.5295	93.025700	0.000608	6.082009	2.060640	0.000243
 367	3.6417e+01	14.5664	93.219483	0.000487	4.865607	1.648512	0.000195
 368	3.6517e+01	14.6210	93.445562	0.000568	5.676542	1.923264	0.000227
 369	3.6616e+01	14.6466	93.643382	0.000497	4.966974	1.682856	0.000199
 370	3.6715e+01	14.6916	93.925982	0.000710	7.095677	2.404080	0.000284
 371	3.6815e+01	14.7333	94.152061	0.000568	5.676542	1.923264	0.000227
 372	3.6914e+01	14.7734	94.341806	0.000476	4.764240	1.614168	0.000191
 373	3.7014e+01	14.8119	94.547700	0.000517	5.169708	1.751544	0.000207
 374	3.7114e+01	14.8456	94.777817	0.000578	5.777908	1.957608	0.000231
 375	3.7213e+01	14.9001	94.987748	0.000527	5.271074	1.785888	0.000211
 376	3.7313e+01	14.9322	95.234013	0.000618	6.183376	2.094984	0.000248
 377	3.7412e+01	14.9595	95.419722	0.000466	4.662873	1.579824	0.000187
 378	3.7511e+01	15.0092	95.633690	0.000537	5.372441	1.820232	0.000215
 379	3.7611e+01	15.0413	95.875918	0.000608	6.082009	2.060640	0.000243
 380	3.7711e+01	15.0862	96.077775	0.000507	5.068341	1.717200	0.000203
 381	3.7810e+01	15.1327	96.311929	0.000588	5.879275	1.991952	0.000235
 382	3.7910e+01	15.1648	96.533971	0.000558	5.575175	1.888920	0.000223
 383	3.8009e+01	15.2065	96.743902	0.000527	5.271074	1.785888	0.000211
 384	3.8108e+01	15.2370	96.969982	0.000568	5.676542	1.923264	0.000227
 385	3.8208e+01	15.2851	97.204136	0.000588	5.879275	1.991952	0.000235
 386	3.8307e+01	15.3300	97.393881	0.000476	4.764240	1.614168	0.000191
 387	3.8407e+01	15.3621	97.656295	0.000659	6.588843	2.232360	0.000264
 388	3.8507e+01	15.4071	97.821818	0.000416	4.156039	1.408104	0.000166
 389	3.8606e+01	15.4439	98.064046	0.000608	6.082009	2.060640	0.000243
 390	3.8706e+01	15.5001	98.265902	0.000507	5.068341	1.717200	0.000203
 391	3.8805e+01	15.5290	98.487945	0.000558	5.575175	1.888920	0.000223
 392	3.8904e+01	15.5643	98.701913	0.000537	5.372441	1.820232	0.000215
 393	3.9004e+01	15.6124	98.923956	0.000558	5.575175	1.888920	0.000223
 394	3.9103e+01	15.6413	99.141961	0.000547	5.473808	1.854576	0.000219
 395	3.9203e+01	15.6830	99.359966	0.000547	5.473808	1.854576	0.000219
 396	3.9303e+01	15.7279	99.577972	0.000547	5.473808	1.854576	0.000219
 397	3.9402e+01	15.7680	99.816163	0.000598	5.980642	2.026296	0.000239
 398	3.9502e+01	15.8129	100.005908	0.000476	4.764240	1.614168	0.000191
 399	3.9601e+01	15.8434	100.163356	0.000395	3.953306	1.339416	0.000158
 400	3.9700e+01	15.8899	100.441919	0.000699	6.994310	2.369736	0.000280
 401	3.9800e+01	15.9348	100.635701	0.000487	4.865607	1.648512	0.000195
 402	3.9900e+01	15.9557	100.849669	0.000537	5.372441	1.820232	0.000215
 403	3.9999e+01	16.0102	101.087860	0.000598	5.980642	2.026296	0.000239
 404	4.0099e+01	16.0471	101.289717	0.000507	5.068341	1.717200	0.000203
 405	4.0198e+01	16.0889	101.479462	0.000476	4.764240	1.614168	0.000191
 406	4.0297e+01	16.1193	101.709579	0.000578	5.777908	1.957608	0.000231
 407	4.0397e+01	16.1578	101.923547	0.000537	5.372441	1.820232	0.000215
 408	4.0496e+01	16.1947	102.101181	0.000446	4.460140	1.511136	0.000179
 409	4.0596e+01	16.2493	102.347447	0.000618	6.183376	2.094984	0.000248
 410	4.0696e+01	16.2782	102.577563	0.000578	5.777908	1.957608	0.000231
 411	4.0795e+01	16.3231	102.779420	0.000507	5.068341	1.717200	0.000203
 412	4.0895e+01	16.3616	102.989351	0.000527	5.271074	1.785888	0.000211
 413	4.0994e+01	16.4001	103.191208	0.000507	5.068341	1.717200	0.000203
 414	4.1093e+01	16.4418	103.477845	0.000720	7.197044	2.438424	0.000288
 415	4.1193e+01	16.4851	103.623182	0.000365	3.649205	1.236384	0.000146
 416	4.1292e+01	16.5236	103.865410	0.000608	6.082009	2.060640	0.000243
 417	4.1392e+01	16.5637	104.083415	0.000547	5.473808	1.854576	0.000219
 418	4.1492e+01	16.6006	104.293346	0.000527	5.271074	1.785888	0.000211
 419	4.1591e+01	16.6391	104.523463	0.000578	5.777908	1.957608	0.000231
 420	4.1691e+01	16.6792	104.709171	0.000466	4.662873	1.579824	0.000187
 421	4.1790e+01	16.7225	104.923139	0.000537	5.372441	1.820232	0.000215
 422	4.1889e+01	16.7594	105.153256	0.000578	5.777908	1.957608	0.000231
 423	4.1989e+01	16.8043	105.403558	0.000628	6.284742	2.129328	0.000252
 424	4.2089e+01	16.8396	105.577155	0.000436	4.358773	1.476792	0.000174
 425	4.2188e+01	16.8797	105.795161	0.000547	5.473808	1.854576	0.000219
 426	4.2288e+01	16.9214	106.033352	0.000598	5.980642	2.026296	0.000239
 427	4.2387e+01	16.9616	106.219060	0.000466	4.662873	1.579824	0.000187
 428	4.2486e+01	17.0081	106.437065	0.000547	5.473808	1.854576	0.000219
 429	4.2586e+01	17.0418	106.655070	0.000547	5.473808	1.854576	0.000219
 430	4.2685e+01	17.0867	106.877113	0.000558	5.575175	1.888920	0.000223
 431	4.2785e+01	17.1204	107.087044	0.000527	5.271074	1.785888	0.000211
 432	4.2885e+01	17.1653	107.309086	0.000558	5.575175	1.888920	0.000223
 433	4.2984e+01	17.2006	107.502869	0.000487	4.865607	1.648512	0.000195
 434	4.3084e+01	17.2439	107.728949	0.000568	5.676542	1.923264	0.000227
 435	4.3183e+01	17.2792	107.930805	0.000507	5.068341	1.717200	0.000203
 436	4.3282e+01	17.3225	108.152848	0.000558	5.575175	1.888920	0.000223
 437	4.3382e+01	17.3530	108.342593	0.000476	4.764240	1.614168	0.000191
 438	4.3481e+01	17.4027	108.580784	0.000598	5.980642	2.026296	0.000239
 439	4.3581e+01	17.4428	108.770530	0.000476	4.764240	1.614168	0.000191
 440	4.3681e+01	17.4829	108.988535	0.000547	5.473808	1.854576	0.000219
 441	4.3780e+01	17.5262	109.182317	0.000487	4.865607	1.648512	0.000195
 442	4.3880e+01	17.5583	109.412434	0.000578	5.777908	1.957608	0.000231
 443	4.3979e+01	17.5968	109.614291	0.000507	5.068341	1.717200	0.000203
 444	4.4078e+01	17.6450	109.812111	0.000497	4.966974	1.682856	0.000199
 445	4.4178e+01	17.6899	110.013967	0.000507	5.068341	1.717200	0.000203
 446	4.4278e+01	17.7107	110.252158	0.000598	5.980642	2.026296	0.000239
 447	4.4377e+01	17.7653	110.429792	0.000446	4.460140	1.511136	0.000179
 448	4.4477e+01	17.8006	110.676058	0.000618	6.183376	2.094984	0.000248
 449	4.4576e+01	17.8375	110.894063	0.000547	5.473808	1.854576	0.000219
 450	4.4675e+01	17.8776	111.091883	0.000497	4.966974	1.682856	0.000199
 451	4.4775e+01	17.9161	111.334111	0.000608	6.082009	2.060640	0.000243
 452	4.4874e+01	17.9562	111.523856	0.000476	4.764240	1.614168	0.000191
 453	4.4974e+01	18.0091	111.745899	0.000558	5.575175	1.888920	0.000223
 454	4.5074e+01	18.0364	111.967941	0.000558	5.575175	1.888920	0.000223
 455	4.5173e+01	18.0829	112.194021	0.000568	5.676542	1.923264	0.000227
 456	4.5273e+01	18.1262	112.375692	0.000456	4.561507	1.545480	0.000183
 457	4.5372e+01	18.1663	112.589660	0.000537	5.372441	1.820232	0.000215
 458	4.5471e+01	18.1936	112.835925	0.000618	6.183376	2.094984	0.000248
 459	4.5571e+01	18.2337	113.021634	0.000466	4.662873	1.579824	0.000187
 460	4.5670e+01	18.2738	113.239639	0.000547	5.473808	1.854576	0.000219
 461	4.5770e+01	18.3139	113.445533	0.000517	5.169708	1.751544	0.000207
 462	4.5870e+01	18.3588	113.671612	0.000568	5.676542	1.923264	0.000227
 463	4.5969e+01	18.4006	113.893655	0.000558	5.575175	1.888920	0.000223
 464	4.6069e+01	18.4374	114.075326	0.000456	4.561507	1.545480	0.000183
 465	4.6168e+01	18.4727	114.325628	0.000628	6.284742	2.129328	0.000252
 466	4.6267e+01	18.5225	114.539597	0.000537	5.372441	1.820232	0.000215
 467	4.6367e+01	18.5497	114.761639	0.000558	5.575175	1.888920	0.000223
 468	4.6467e+01	18.5931	114.959459	0.000497	4.966974	1.682856	0.000199
 469	4.6566e+01	18.6364	115.153241	0.000487	4.865607	1.648512	0.000195
 470	4.6666e+01	18.6797	115.387395	0.000588	5.879275	1.991952	0.000235
 471	4.6765e+01	18.7182	115.621549	0.000588	5.879275	1.991952	0.000235
 472	4.6864e+01	18.7503	115.827443	0.000517	5.169708	1.751544	0.000207
 473	4.6964e+01	18.7952	116.037374	0.000527	5.271074	1.785888	0.000211
 474	4.7063e+01	18.8289	116.263454	0.000568	5.676542	1.923264	0.000227
 475	4.7163e+01	18.8658	116.493570	0.000578	5.777908	1.957608	0.000231
 476	4.7263e+01	18.9235	116.723687	0.000578	5.777908	1.957608	0.000231
 477	4.7362e+01	18.9540	116.913432	0.000476	4.764240	1.614168	0.000191
 478	4.7462e+01	18.9989	117.155661	0.000608	6.082009	2.060640	0.000243
 479	4.7561e+01	19.0310	117.357517	0.000507	5.068341	1.717200	0.000203
 480	4.7660e+01	19.0743	117.567448	0.000527	5.271074	1.785888	0.000211
 481	4.7760e+01	19.1144	117.777379	0.000527	5.271074	1.785888	0.000211
 482	4.7859e+01	19.1545	117.991348	0.000537	5.372441	1.820232	0.000215
 483	4.7959e+01	19.1898	118.225502	0.000588	5.879275	1.991952	0.000235
 484	4.8059e+01	19.2348	118.463693	0.000598	5.980642	2.026296	0.000239
 485	4.8158e+01	19.2765	118.657475	0.000487	4.865607	1.648512	0.000195
 486	4.8258e+01	19.3069	118.867406	0.000527	5.271074	1.785888	0.000211
 487	4.8357e+01	19.3519	119.117709	0.000628	6.284742	2.129328	0.000252
 488	4.8456e+01	19.3952	119.295342	0.000446	4.460140	1.511136	0.000179
 489	4.8556e+01	19.4337	119.561793	0.000669	6.690210	2.266704	0.000268
 490	4.8656e+01	19.4738	119.767687	0.000517	5.169708	1.751544	0.000207
 491	4.8755e+01	19.5107	120.001841	0.000588	5.879275	1.991952	0.000235
 492	4.8855e+01	19.5572	120.183512	0.000456	4.561507	1.545480	0.000183
 493	4.8954e+01	19.5973	120.409592	0.000568	5.676542	1.923264	0.000227
 494	4.9053e+01	19.6262	120.587226	0.000446	4.460140	1.511136	0.000179
 495	4.9153e+01	19.6695	120.857714	0.000679	6.791577	2.301048	0.000272
 496	4.9252e+01	19.7144	121.083794	0.000568	5.676542	1.923264	0.000227
 497	4.9352e+01	19.7465	121.293725	0.000527	5.271074	1.785888	0.000211
 498	4.9452e+01	19.7962	121.475396	0.000456	4.561507	1.545480	0.000183
 499	4.9551e+01	19.8315	121.717624	0.000608	6.082009	2.060640	0.000243
 500	4.9651e+01	19.8700	121.899295	0.000456	4.561507	1.545480	0.000183
 501	4.9750e+01	19.9069	122.145560	0.000618	6.183376	2.094984	0.000248
 502	4.9849e+01	19.9518	122.347417	0.000507	5.068341	1.717200	0.000203
 503	4.9949e+01	19.9823	122.581571	0.000588	5.879275	1.991952	0.000235
 504	5.0048e+01	19.9518	122.460457	0.000304	3.041004	1.030320	-0.000122
 505	5.0148e+01	19.9149	122.403937	0.000142	1.419135	0.480816	-0.000057
 506	5.0248e+01	19.8748	122.238414	0.000416	4.156039	1.408104	-0.000166
 507	5.0347e+01	19.8379	122.149597	0.000223	2.230070	0.755568	-0.000089
 508	5.0447e+01	19.7818	122.028483	0.000304	3.041004	1.030320	-0.000122
 509	5.0546e+01	19.7529	121.891221	0.000345	3.446472	1.167696	-0.000138
 510	5.0645e+01	19.7192	121.770107	0.000304	3.041004	1.030320	-0.000122
 511	5.0745e+01	19.6679	121.628807	0.000355	3.547838	1.202040	-0.000142
 512	5.0844e+01	19.6262	121.519804	0.000274	2.736904	0.927288	-0.000110
 513	5.0944e+01	19.5925	121.418876	0.000253	2.534170	0.858600	-0.000101
 514	5.1044e+01	19.5476	121.297762	0.000304	3.041004	1.030320	-0.000122
 515	5.1143e+01	19.5107	121.164536	0.000335	3.345105	1.133352	-0.000134
 516	5.1242e+01	19.4706	121.047459	0.000294	2.939638	0.995976	-0.000118
 517	5.1342e+01	19.4337	120.890011	0.000395	3.953306	1.339416	-0.000158
 518	5.1441e+01	19.3904	120.772934	0.000294	2.939638	0.995976	-0.000118
 519	5.1541e+01	19.3535	120.655857	0.000294	2.939638	0.995976	-0.000118
 520	5.1641e+01	19.3150	120.506483	0.000375	3.750572	1.270728	-0.000150
 521	5.1740e+01	19.2620	120.393443	0.000284	2.838271	0.961632	-0.000114
 522	5.1840e+01	19.2348	120.260218	0.000335	3.345105	1.133352	-0.000134
 523	5.1939e+01	19.1914	120.086621	0.000436	4.358773	1.476792	-0.000174
 524	5.2038e+01	19.1497	119.965507	0.000304	3.041004	1.030320	-0.000122
 525	5.2138e+01	19.1112	119.816133	0.000375	3.750572	1.270728	-0.000150
 526	5.2237e+01	19.0791	119.690982	0.000314	3.142371	1.064664	-0.000126
 527	5.2337e+01	19.0374	119.557756	0.000335	3.345105	1.133352	-0.000134
 528	5.2437e+01	18.9861	119.420494	0.000345	3.446472	1.167696	-0.000138
 529	5.2536e+01	18.9556	119.238823	0.000456	4.561507	1.545480	-0.000183
 530	5.2636e+01	18.9267	119.117709	0.000304	3.041004	1.030320	-0.000122
 531	5.2735e+01	18.8754	119.000632	0.000294	2.939638	0.995976	-0.000118
 532	5.2834e+01	18.8337	118.827035	0.000436	4.358773	1.476792	-0.000174
 533	5.2934e+01	18.7888	118.701884	0.000314	3.142371	1.064664	-0.000126
 534	5.3033e+01	18.7487	118.536361	0.000416	4.156039	1.408104	-0.000166
 535	5.3133e+01	18.7214	118.391024	0.000365	3.649205	1.236384	-0.000146
 536	5.3233e+01	18.6717	118.229539	0.000405	4.054673	1.373760	-0.000162
 537	5.3332e+01	18.6332	118.088239	0.000355	3.547838	1.202040	-0.000142
 538	5.3431e+01	18.5979	117.955013	0.000335	3.345105	1.133352	-0.000134
 539	5.3531e+01	18.5546	117.777379	0.000446	4.460140	1.511136	-0.000179
 540	5.3630e+01	18.5257	117.644154	0.000335	3.345105	1.133352	-0.000134
 541	5.3730e+01	18.4808	117.482669	0.000405	4.054673	1.373760	-0.000162
 542	5.3830e+01	18.4278	117.345406	0.000345	3.446472	1.167696	-0.000138
 543	5.3929e+01	18.3925	117.236403	0.000274	2.736904	0.927288	-0.000110
 544	5.4029e+01	18.3572	117.034546	0.000507	5.068341	1.717200	-0.000203
 545	5.4128e+01	18.3171	116.881135	0.000385	3.851939	1.305072	-0.000154
 546	5.4227e+01	18.2738	116.691390	0.000476	4.764240	1.614168	-0.000191
 547	5.4327e+01	18.2353	116.574313	0.000294	2.939638	0.995976	-0.000118
 548	5.4426e+01	18.1936	116.433013	0.000355	3.547838	1.202040	-0.000142
 549	5.4526e+01	18.1615	116.235194	0.000497	4.966974	1.682856	-0.000199
 550	5.4626e+01	18.1150	116.118117	0.000294	2.939638	0.995976	-0.000118
 551	5.4725e+01	18.0733	115.960668	0.000395	3.953306	1.339416	-0.000158
 552	5.4825e+01	18.0348	115.770923	0.000476	4.764240	1.614168	-0.000191
 553	5.4924e+01	17.9867	115.621549	0.000375	3.750572	1.270728	-0.000150
 554	5.5023e+01	17.9546	115.460064	0.000405	4.054673	1.373760	-0.000162
 555	5.5123e+01	17.9129	115.318764	0.000355	3.547838	1.202040	-0.000142
 556	5.5222e+01	17.8760	115.129018	0.000476	4.764240	1.614168	-0.000191
 557	5.5322e+01	17.8343	114.995793	0.000335	3.345105	1.133352	-0.000134
 558	5.5422e+01	17.8038	114.850456	0.000365	3.649205	1.236384	-0.000146
 559	5.5521e+01	17.7556	114.672822	0.000446	4.460140	1.511136	-0.000179
 560	5.5620e+01	17.7171	114.503262	0.000426	4.257406	1.442448	-0.000170
 561	5.5720e+01	17.6786	114.337740	0.000416	4.156039	1.408104	-0.000166
 562	5.5819e+01	17.6498	114.184329	0.000385	3.851939	1.305072	-0.000154
 563	5.5919e+01	17.6032	114.018806	0.000416	4.156039	1.408104	-0.000166
 564	5.6019e+01	17.5631	113.808875	0.000527	5.271074	1.785888	-0.000211
 565	5.6118e+01	17.5295	113.691798	0.000294	2.939638	0.995976	-0.000118
 566	5.6218e+01	17.4781	113.510127	0.000456	4.561507	1.545480	-0.000183
 567	5.6317e+01	17.4380	113.364790	0.000365	3.649205	1.236384	-0.000146
 568	5.6416e+01	17.3915	113.158896	0.000517	5.169708	1.751544	-0.000207
 569	5.6516e+01	17.3530	113.013559	0.000365	3.649205	1.236384	-0.000146
 570	5.6615e+01	17.3209	112.856111	0.000395	3.953306	1.339416	-0.000158
 571	5.6715e+01	17.2776	112.634069	0.000558	5.575175	1.888920	-0.000223
 572	5.6815e+01	17.2391	112.492769	0.000355	3.547838	1.202040	-0.000142
 573	5.6914e+01	17.1910	112.307061	0.000466	4.662873	1.579824	-0.000187
 574	5.7014e+01	17.1541	112.149612	0.000395	3.953306	1.339416	-0.000158
 575	5.7113e+01	17.1252	111.996201	0.000385	3.851939	1.305072	-0.000154
 576	5.7212e+01	17.0787	111.814530	0.000456	4.561507	1.545480	-0.000183
 577	5.7312e+01	17.0370	111.636896	0.000446	4.460140	1.511136	-0.000179
 578	5.7411e+01	17.0065	111.491559	0.000365	3.649205	1.236384	-0.000146
 579	5.7511e+01	16.9599	111.309888	0.000456	4.561507	1.545480	-0.000183
 580	5.7611e+01	16.9118	111.144365	0.000416	4.156039	1.408104	-0.000166
 581	5.7710e+01	16.8813	110.970769	0.000436	4.358773	1.476792	-0.000174
 582	5.7809e+01	16.8412	110.789097	0.000456	4.561507	1.545480	-0.000183
 583	5.7909e+01	16.8011	110.623575	0.000416	4.156039	1.408104	-0.000166
 584	5.8008e+01	16.7578	110.454015	0.000426	4.257406	1.442448	-0.000170
 585	5.8108e+01	16.7273	110.284456	0.000426	4.257406	1.442448	-0.000170
 586	5.8208e+01	16.6888	110.122970	0.000405	4.054673	1.373760	-0.000162
 587	5.8307e+01	16.6407	109.937262	0.000466	4.662873	1.579824	-0.000187
 588	5.8407e+01	16.6006	109.799999	0.000345	3.446472	1.167696	-0.000138
 589	5.8506e+01	16.5621	109.594105	0.000517	5.169708	1.751544	-0.000207
 590	5.8605e+01	16.5204	109.412434	0.000456	4.561507	1.545480	-0.000183
 591	5.8705e+01	16.4803	109.250949	0.000405	4.054673	1.373760	-0.000162
 592	5.8804e+01	16.4466	109.073315	0.000446	4.460140	1.511136	-0.000179
 593	5.8904e+01	16.3953	108.923941	0.000375	3.750572	1.270728	-0.000150
 594	5.9004e+01	16.3664	108.722084	0.000507	5.068341	1.717200	-0.000203
 595	5.9103e+01	16.3263	108.556561	0.000416	4.156039	1.408104	-0.000166
 596	5.9203e+01	16.2814	108.366816	0.000476	4.764240	1.614168	-0.000191
 597	5.9302e+01	16.2477	108.197256	0.000426	4.257406	1.442448	-0.000170
 598	5.9401e+01	16.2028	107.987325	0.000527	5.271074	1.785888	-0.000211
 599	5.9501e+01	16.1626	107.866211	0.000304	3.041004	1.030320	-0.000122
 600	5.9600e+01	16.1306	107.656280	0.000527	5.271074	1.785888	-0.000211
 601	5.9700e+01	16.0921	107.498832	0.000395	3.953306	1.339416	-0.000158
 602	5.9800e+01	16.0423	107.313124	0.000466	4.662873	1.579824	-0.000187
 603	5.9899e+01	16.0070	107.095118	0.000547	5.473808	1.854576	-0.000219
 604	5.9998e+01	15.9621	106.945744	0.000375	3.750572	1.270728	-0.000150
 605	6.0098e+01	15.9300	106.776185	0.000426	4.257406	1.442448	-0.000170
 606	6.0197e+01	15.8931	106.594513	0.000456	4.561507	1.545480	-0.000183
 607	6.0297e+01	15.8514	106.412842	0.000456	4.561507	1.545480	-0.000183
 608	6.0397e+01	15.7985	106.243283	0.000426	4.257406	1.442448	-0.000170
 609	6.0496e+01	15.7664	106.041426	0.000507	5.068341	1.717200	-0.000203
 610	6.0596e+01	15.7231	105.859755	0.000456	4.561507	1.545480	-0.000183
 611	6.0695e+01	15.6910	105.674047	0.000466	4.662873	1.579824	-0.000187
 612	6.0794e+01	15.6525	105.484301	0.000476	4.764240	1.614168	-0.000191
 613	6.0894e+01	15.6060	105.298593	0.000466	4.662873	1.579824	-0.000187
 614	6.0993e+01	15.5675	105.129033	0.000426	4.257406	1.442448	-0.000170
 615	6.1093e+01	15.5226	104.975622	0.000385	3.851939	1.305072	-0.000154
 616	6.1193e+01	15.4937	104.773765	0.000507	5.068341	1.717200	-0.000203
 617	6.1292e+01	15.4472	104.588057	0.000466	4.662873	1.579824	-0.000187
 618	6.1392e+01	15.4119	104.430609	0.000395	3.953306	1.339416	-0.000158
 619	6.1491e+01	15.3637	104.232789	0.000497	4.966974	1.682856	-0.000199
 620	6.1590e+01	15.3252	104.055155	0.000446	4.460140	1.511136	-0.000179
 621	6.1690e+01	15.2883	103.861373	0.000487	4.865607	1.648512	-0.000195
 622	6.1789e+01	15.2514	103.683739	0.000446	4.460140	1.511136	-0.000179
 623	6.1889e+01	15.2049	103.485919	0.000497	4.966974	1.682856	-0.000199
 624	6.1989e+01	15.1584	103.308285	0.000446	4.460140	1.511136	-0.000179
 625	6.2088e+01	15.1279	103.142762	0.000416	4.156039	1.408104	-0.000166
 626	6.2188e+01	15.0798	102.953017	0.000476	4.764240	1.614168	-0.000191
 627	6.2287e+01	15.0541	102.795569	0.000395	3.953306	1.339416	-0.000158
 628	6.2386e+01	15.0060	102.609860	0.000466	4.662873	1.579824	-0.000187
 629	6.2486e+01	14.9691	102.391855	0.000547	5.473808	1.854576	-0.000219
 630	6.2586e+01	14.9258	102.230370	0.000405	4.054673	1.373760	-0.000162
 631	6.2685e+01	14.8841	102.024476	0.000517	5.169708	1.751544	-0.000207
 632	6.2785e+01	14.8488	101.858953	0.000416	4.156039	1.408104	-0.000166
 633	6.2884e+01	14.7974	101.657096	0.000507	5.068341	1.717200	-0.000203
 634	6.2983e+01	14.7686	101.467351	0.000476	4.764240	1.614168	-0.000191
 635	6.3083e+01	14.7204	101.281643	0.000466	4.662873	1.579824	-0.000187
 636	6.3182e+01	14.6996	101.116120	0.000416	4.156039	1.408104	-0.000166
 637	6.3282e+01	14.6466	100.918301	0.000497	4.966974	1.682856	-0.000199
 638	6.3382e+01	14.6178	100.748741	0.000426	4.257406	1.442448	-0.000170
 639	6.3481e+01	14.5793	100.542847	0.000517	5.169708	1.751544	-0.000207
 640	6.3581e+01	14.5360	100.357139	0.000466	4.662873	1.579824	-0.000187
 641	6.3680e+01	14.4846	100.183542	0.000436	4.358773	1.476792	-0.000174
 642	6.3779e+01	14.4541	100.009945	0.000436	4.358773	1.476792	-0.000174
 643	6.3879e+01	14.4060	99.808088	0.000507	5.068341	1.717200	-0.000203
 644	6.3978e+01	14.3627	99.602194	0.000517	5.169708	1.751544	-0.000207
 645	6.4078e+01	14.3290	99.424560	0.000446	4.460140	1.511136	-0.000179
 646	6.4177e+01	14.2937	99.255001	0.000426	4.257406	1.442448	-0.000170
 647	6.4277e+01	14.2520	99.065255	0.000476	4.764240	1.614168	-0.000191
 648	6.4376e+01	14.2087	98.871473	0.000487	4.865607	1.648512	-0.000195
 649	6.4476e+01	14.1638	98.685765	0.000466	4.662873	1.579824	-0.000187
 650	6.4576e+01	14.1349	98.471796	0.000537	5.372441	1.820232	-0.000215
 651	6.4675e+01	14.0916	98.273977	0.000497	4.966974	1.682856	-0.000199
 652	6.4775e+01	14.0515	98.096343	0.000446	4.460140	1.511136	-0.000179
 653	6.4874e+01	14.0162	97.946969	0.000375	3.750572	1.270728	-0.000150
 654	6.4974e+01	13.9777	97.708778	0.000598	5.980642	2.026296	-0.000239
 655	6.5073e+01	13.9312	97.559404	0.000375	3.750572	1.270728	-0.000150
 656	6.5172e+01	13.8894	97.353510	0.000517	5.169708	1.751544	-0.000207
 657	6.5272e+01	13.8590	97.183950	0.000426	4.257406	1.442448	-0.000170
 658	6.5371e+01	13.8140	96.974019	0.000527	5.271074	1.785888	-0.000211
 659	6.5471e+01	13.7804	96.768125	0.000517	5.169708	1.751544	-0.000207
 660	6.5570e+01	13.7322	96.578380	0.000476	4.764240	1.614168	-0.000191
 661	6.5670e+01	13.6969	96.424969	0.000385	3.851939	1.305072	-0.000154
 662	6.5769e+01	13.6600	96.219075	0.000517	5.169708	1.751544	-0.000207
 663	6.5869e+01	13.6167	96.001069	0.000547	5.473808	1.854576	-0.000219
 664	6.5969e+01	13.5766	95.791138	0.000527	5.271074	1.785888	-0.000211
 665	6.6068e+01	13.5301	95.621579	0.000426	4.257406	1.442448	-0.000170
 666	6.6168e+01	13.4868	95.431833	0.000476	4.764240	1.614168	-0.000191
 667	6.6267e+01	13.4547	95.225939	0.000517	5.169708	1.751544	-0.000207
 668	6.6367e+01	13.4162	95.040231	0.000466	4.662873	1.579824	-0.000187
 669	6.6466e+01	13.3841	94.850486	0.000476	4.764240	1.614168	-0.000191
 670	6.6566e+01	13.3376	94.600183	0.000628	6.284742	2.129328	-0.000252
 671	6.6665e+01	13.2959	94.430623	0.000426	4.257406	1.442448	-0.000170
 672	6.6764e+01	13.2526	94.236841	0.000487	4.865607	1.648512	-0.000195
 673	6.6864e+01	13.2173	94.071318	0.000416	4.156039	1.408104	-0.000166
 674	6.6963e+01	13.1691	93.861387	0.000527	5.271074	1.785888	-0.000211
 675	6.7063e+01	13.1355	93.679716	0.000456	4.561507	1.545480	-0.000183
 676	6.7162e+01	13.1018	93.473822	0.000517	5.169708	1.751544	-0.000207
 677	6.7262e+01	13.0601	93.251780	0.000558	5.575175	1.888920	-0.000223
 678	6.7362e+01	13.0087	93.082220	0.000426	4.257406	1.442448	-0.000170
 679	6.7461e+01	12.9798	92.872289	0.000527	5.271074	1.785888	-0.000211
 680	6.7561e+01	12.9397	92.690618	0.000456	4.561507	1.545480	-0.000183
 681	6.7660e+01	12.8932	92.480687	0.000527	5.271074	1.785888	-0.000211
 682	6.7760e+01	12.8627	92.311127	0.000426	4.257406	1.442448	-0.000170
 683	6.7859e+01	12.8178	92.085048	0.000568	5.676542	1.923264	-0.000227
 684	6.7959e+01	12.7761	91.875117	0.000527	5.271074	1.785888	-0.000211
 685	6.8058e+01	12.7408	91.725743	0.000375	3.750572	1.270728	-0.000150
 686	6.8157e+01	12.7007	91.467366	0.000649	6.487476	2.198016	-0.000260
 687	6.8257e+01	12.6622	91.285695	0.000456	4.561507	1.545480	-0.000183
 688	6.8356e+01	12.6141	91.112098	0.000436	4.358773	1.476792	-0.000174
 689	6.8456e+01	12.5852	90.898130	0.000537	5.372441	1.820232	-0.000215
 690	6.8555e+01	12.5403	90.704347	0.000487	4.865607	1.648512	-0.000195
 691	6.8655e+01	12.5002	90.486342	0.000547	5.473808	1.854576	-0.000219
 692	6.8754e+01	12.4553	90.320819	0.000416	4.156039	1.408104	-0.000166
 693	6.8854e+01	12.4264	90.074554	0.000618	6.183376	2.094984	-0.000248
 694	6.8954e+01	12.3799	89.892883	0.000456	4.561507	1.545480	-0.000183
 695	6.9053e+01	12.3382	89.691026	0.000507	5.068341	1.717200	-0.000203
 696	6.9153e+01	12.3013	89.444761	0.000618	6.183376	2.094984	-0.000248
 697	6.9252e+01	12.2563	89.287313	0.000395	3.953306	1.339416	-0.000158
 698	6.9352e+01	12.2210	89.113716	0.000436	4.358773	1.476792	-0.000174
 699	6.9451e+01	12.1922	88.875525	0.000598	5.980642	2.026296	-0.000239
 700	6.9550e+01	12.1408	88.685779	0.000476	4.764240	1.614168	-0.000191
 701	6.9650e+01	12.1023	88.455663	0.000578	5.777908	1.957608	-0.000231
 702	6.9749e+01	12.0606	88.253806	0.000507	5.068341	1.717200	-0.000203
 703	6.9849e+01	12.0253	88.072135	0.000456	4.561507	1.545480	-0.000183
 704	6.9948e+01	11.9836	87.825869	0.000618	6.183376	2.094984	-0.000248
 705	7.0048e+01	11.9467	87.652273	0.000436	4.358773	1.476792	-0.000174
 706	7.0147e+01	11.9018	87.446379	0.000517	5.169708	1.751544	-0.000207
 707	7.0247e+01	11.8633	87.240485	0.000517	5.169708	1.751544	-0.000207
 708	7.0347e+01	11.8200	86.978071	0.000659	6.588843	2.232360	-0.000264
 709	7.0446e+01	11.7767	86.812548	0.000416	4.156039	1.408104	-0.000166
 710	7.0546e+01	11.7366	86.594543	0.000547	5.473808	1.854576	-0.000219
 711	7.0645e+01	11.7045	86.384612	0.000527	5.271074	1.785888	-0.000211
 712	7.0745e+01	11.6580	86.186792	0.000497	4.966974	1.682856	-0.000199
 713	7.0844e+01	11.6098	85.948601	0.000598	5.980642	2.026296	-0.000239
 714	7.0944e+01	11.5858	85.750782	0.000497	4.966974	1.682856	-0.000199
 715	7.1043e+01	11.5409	85.540851	0.000527	5.271074	1.785888	-0.000211
 716	7.1142e+01	11.5056	85.338994	0.000507	5.068341	1.717200	-0.000203
 717	7.1242e+01	11.4622	85.080617	0.000649	6.487476	2.198016	-0.000260
 718	7.1341e+01	11.4286	84.898946	0.000456	4.561507	1.545480	-0.000183
 719	7.1441e+01	11.3884	84.680941	0.000547	5.473808	1.854576	-0.000219
 720	7.1540e+01	11.3419	84.471010	0.000527	5.271074	1.785888	-0.000211
 721	7.1640e+01	11.3066	84.273190	0.000497	4.966974	1.682856	-0.000199
 722	7.1740e+01	11.2697	84.059222	0.000537	5.372441	1.820232	-0.000215
 723	7.1839e+01	11.2248	83.845254	0.000537	5.372441	1.820232	-0.000215
 724	7.1939e+01	11.1847	83.627248	0.000547	5.473808	1.854576	-0.000219
 725	7.2038e+01	11.1446	83.393094	0.000588	5.879275	1.991952	-0.000235
 726	7.2138e+01	11.1157	83.158940	0.000588	5.879275	1.991952	-0.000235
 727	7.2237e+01	11.0580	82.961121	0.000497	4.966974	1.682856	-0.000199
 728	7.2337e+01	11.0195	82.731004	0.000578	5.777908	1.957608	-0.000231
 729	7.2436e+01	10.9874	82.537222	0.000487	4.865607	1.648512	-0.000195
 730	7.2535e+01	10.9473	82.311142	0.000568	5.676542	1.923264	-0.000227
 731	7.2635e+01	10.9040	82.097174	0.000537	5.372441	1.820232	-0.000215
 732	7.2734e+01	10.8655	81.867057	0.000578	5.777908	1.957608	-0.000231
 733	7.2834e+01	10.8189	81.677312	0.000476	4.764240	1.614168	-0.000191
 734	7.2933e+01	10.7788	81.422972	0.000639	6.386109	2.163672	-0.000256
 735	7.3033e+01	10.7403	81.192855	0.000578	5.777908	1.957608	-0.000231
 736	7.3132e+01	10.7083	80.970813	0.000558	5.575175	1.888920	-0.000223
 737	7.3232e+01	10.6746	80.801253	0.000426	4.257406	1.442448	-0.000170
 738	7.3332e+01	10.6216	80.530765	0.000679	6.791577	2.301048	-0.000272
 739	7.3431e+01	10.5847	80.324871	0.000517	5.169708	1.751544	-0.000207
 740	7.3531e+01	10.5366	80.147237	0.000446	4.460140	1.511136	-0.000179
 741	7.3630e+01	10.5109	79.888861	0.000649	6.487476	2.198016	-0.000260
 742	7.3730e+01	10.4612	79.642595	0.000618	6.183376	2.094984	-0.000248
 743	7.3829e+01	10.4243	79.420553	0.000558	5.575175	1.888920	-0.000223
 744	7.3928e+01	10.3858	79.198510	0.000558	5.575175	1.888920	-0.000223
 745	7.4028e+01	10.3441	79.008765	0.000476	4.764240	1.614168	-0.000191
 746	7.4127e+01	10.3136	78.774611	0.000588	5.879275	1.991952	-0.000235
 747	7.4227e+01	10.2703	78.564680	0.000527	5.271074	1.785888	-0.000211
 748	7.4326e+01	10.2222	78.310340	0.000639	6.386109	2.163672	-0.000256
 749	7.4426e+01	10.1949	78.084261	0.000568	5.676542	1.923264	-0.000227
 750	7.4525e+01	10.1484	77.898553	0.000466	4.662873	1.579824	-0.000187
 751	7.4625e+01	10.1179	77.664399	0.000588	5.879275	1.991952	-0.000235
 752	7.4725e+01	10.0634	77.446393	0.000547	5.473808	1.854576	-0.000219
 753	7.4824e+01	10.0313	77.208202	0.000598	5.980642	2.026296	-0.000239
 754	7.4924e+01	9.9944	76.945789	0.000659	6.588843	2.232360	-0.000264
 755	7.5023e+01	9.9462	76.792377	0.000385	3.851939	1.305072	-0.000154
 756	7.5123e+01	9.9126	76.521889	0.000679	6.791577	2.301048	-0.000272
 757	7.5222e+01	9.8676	76.348293	0.000436	4.358773	1.476792	-0.000174
 758	7.5322e+01	9.8275	76.077804	0.000679	6.791577	2.301048	-0.000272
 759	7.5421e+01	9.7842	75.879985	0.000497	4.966974	1.682856	-0.000199
 760	7.5520e+01	9.7521	75.645831	0.000588	5.879275	1.991952	-0.000235
 761	7.5620e+01	9.7072	75.411677	0.000588	5.879275	1.991952	-0.000235
 762	7.5719e+01	9.6655	75.197709	0.000537	5.372441	1.820232	-0.000215
 763	7.5819e+01	9.6334	74.983741	0.000537	5.372441	1.820232	-0.000215
 764	7.5918e+01	9.5869	74.721327	0.000659	6.588843	2.232360	-0.000264
 765	7.6018e+01	9.5532	74.523507	0.000497	4.966974	1.682856	-0.000199
 766	7.6118e+01	9.5083	74.281279	0.000608	6.082009	2.060640	-0.000243
 767	7.6217e+01	9.4634	74.026939	0.000639	6.386109	2.163672	-0.000256
 768	7.6317e+01	9.4297	73.817008	0.000527	5.271074	1.785888	-0.000211
 769	7.6416e+01	9.3864	73.611114	0.000517	5.169708	1.751544	-0.000207
 770	7.6516e+01	9.3543	73.364849	0.000618	6.183376	2.094984	-0.000248
 771	7.6615e+01	9.3174	73.118584	0.000618	6.183376	2.094984	-0.000248
 772	7.6715e+01	9.2757	72.940950	0.000446	4.460140	1.511136	-0.000179
 773	7.6814e+01	9.2308	72.674499	0.000669	6.690210	2.266704	-0.000268
 774	7.6913e+01	9.1939	72.464568	0.000527	5.271074	1.785888	-0.000211
 775	7.7013e+01	9.1554	72.222340	0.000608	6.082009	2.060640	-0.000243
 776	7.7112e+01	9.1153	71.980112	0.000608	6.082009	2.060640	-0.000243
 777	7.7212e+01	9.0671	71.717698	0.000659	6.588843	2.232360	-0.000264
 778	7.7311e+01	9.0286	71.515841	0.000507	5.068341	1.717200	-0.000203
 779	7.7411e+01	8.9981	71.269576	0.000618	6.183376	2.094984	-0.000248
 780	7.7510e+01	8.9436	71.055608	0.000537	5.372441	1.820232	-0.000215
 781	7.7610e+01	8.9051	70.789157	0.000669	6.690210	2.266704	-0.000268
 782	7.7710e+01	8.8810	70.583263	0.000517	5.169708	1.751544	-0.000207
 783	7.7809e+01	8.8297	70.385443	0.000497	4.966974	1.682856	-0.000199
 784	7.7909e+01	8.7912	70.086695	0.000750	7.501144	2.541456	-0.000300
 785	7.8008e+01	8.7527	69.868690	0.000547	5.473808	1.854576	-0.000219
 786	7.8108e+01	8.7158	69.662796	0.000517	5.169708	1.751544	-0.000207
 787	7.8207e+01	8.6677	69.420568	0.000608	6.082009	2.060640	-0.000243
 788	7.8306e+01	8.6228	69.190451	0.000578	5.777908	1.957608	-0.000231
 789	7.8406e+01	8.6003	68.948223	0.000608	6.082009	2.060640	-0.000243
 790	7.8505e+01	8.5538	68.714069	0.000588	5.879275	1.991952	-0.000235
 791	7.8605e+01	8.5105	68.483952	0.000578	5.777908	1.957608	-0.000231
 792	7.8704e+01	8.4703	68.229613	0.000639	6.386109	2.163672	-0.000256
 793	7.8804e+01	8.4351	68.015644	0.000537	5.372441	1.820232	-0.000215
 794	7.8903e+01	8.4046	67.773416	0.000608	6.082009	2.060640	-0.000243
 795	7.9003e+01	8.3613	67.547337	0.000568	5.676542	1.923264	-0.000227
 796	7.9103e+01	8.3163	67.349517	0.000497	4.966974	1.682856	-0.000199
 797	7.9202e+01	8.2714	67.058843	0.000730	7.298411	2.472768	-0.000292
 798	7.9302e+01	8.2361	66.824689	0.000588	5.879275	1.991952	-0.000235
 799	7.9401e+01	8.2040	66.602647	0.000558	5.575175	1.888920	-0.000223
 800	7.9501e+01	8.1559	66.368493	0.000588	5.879275	1.991952	-0.000235
 801	7.9600e+01	8.1142	66.126265	0.000608	6.082009	2.060640	-0.000243
 802	7.9700e+01	8.0757	65.843665	0.000710	7.095677	2.404080	-0.000284
 803	7.9799e+01	8.0404	65.649883	0.000487	4.865607	1.648512	-0.000195
 804	7.9898e+01	8.0067	65.407655	0.000608	6.082009	2.060640	-0.000243
 805	7.9998e+01	7.9554	65.173501	0.000588	5.879275	1.991952	-0.000235
 806	8.0097e+01	7.9169	64.923198	0.000628	6.284742	2.129328	-0.000252
 807	8.0197e+01	7.8800	64.689044	0.000588	5.879275	1.991952	-0.000235
 808	8.0296e+01	7.8335	64.471039	0.000547	5.473808	1.854576	-0.000219
 809	8.0396e+01	7.7982	64.196514	0.000689	6.892943	2.335392	-0.000276
 810	8.0496e+01	7.7549	63.990620	0.000517	5.169708	1.751544	-0.000207
 811	8.0595e+01	7.7244	63.744355	0.000618	6.183376	2.094984	-0.000248
 812	8.0695e+01	7.6859	63.514238	0.000578	5.777908	1.957608	-0.000231
 813	8.0794e+01	7.6313	63.251824	0.000659	6.588843	2.232360	-0.000264
 814	8.0894e+01	7.6009	63.009596	0.000608	6.082009	2.060640	-0.000243
 815	8.0993e+01	7.5607	62.779479	0.000578	5.777908	1.957608	-0.000231
 816	8.1093e+01	7.5190	62.533214	0.000618	6.183376	2.094984	-0.000248
 817	8.1192e+01	7.4886	62.299060	0.000588	5.879275	1.991952	-0.000235
 818	8.1291e+01	7.4324	62.036646	0.000659	6.588843	2.232360	-0.000264
 819	8.1391e+01	7.4051	61.834790	0.000507	5.068341	1.717200	-0.000203
 820	8.1490e+01	7.3602	61.568339	0.000669	6.690210	2.266704	-0.000268
 821	8.1590e+01	7.3073	61.338222	0.000578	5.777908	1.957608	-0.000231
 822	8.1689e+01	7.2800	61.095994	0.000608	6.082009	2.060640	-0.000243
 823	8.1789e+01	7.2495	60.841654	0.000639	6.386109	2.163672	-0.000256
 824	8.1888e+01	7.1982	60.607500	0.000588	5.879275	1.991952	-0.000235
 825	8.1988e+01	7.1661	60.341049	0.000669	6.690210	2.266704	-0.000268
 826	8.2088e+01	7.1196	60.110933	0.000578	5.777908	1.957608	-0.000231
 827	8.2187e+01	7.0715	59.876779	0.000588	5.879275	1.991952	-0.000235
 828	8.2287e+01	7.0394	59.642625	0.000588	5.879275	1.991952	-0.000235
 829	8.2386e+01	7.0073	59.380211	0.000659	6.588843	2.232360	-0.000264
 830	8.2486e+01	6.9543	59.154131	0.000568	5.676542	1.923264	-0.000227
 831	8.2585e+01	6.9303	58.919978	0.000588	5.879275	1.991952	-0.000235
 832	8.2684e+01	6.8806	58.645452	0.000689	6.892943	2.335392	-0.000276
 833	8.2784e+01	6.8469	58.374964	0.000679	6.791577	2.301048	-0.000272
 834	8.2883e+01	6.8003	58.136773	0.000598	5.980642	2.026296	-0.000239
 835	8.2983e+01	6.7634	57.898582	0.000598	5.980642	2.026296	-0.000239
 836	8.3082e+01	6.7233	57.620020	0.000699	6.994310	2.369736	-0.000280
 837	8.3182e+01	6.6736	57.385866	0.000588	5.879275	1.991952	-0.000235
 838	8.3281e+01	6.6463	57.139601	0.000618	6.183376	2.094984	-0.000248
 839	8.3381e+01	6.5982	56.897373	0.000608	6.082009	2.060640	-0.000243
 840	8.3481e+01	6.5613	56.663219	0.000588	5.879275	1.991952	-0.000235
 841	8.3580e+01	6.5164	56.404842	0.000649	6.487476	2.198016	-0.000260
 842	8.3680e+01	6.4907	56.134354	0.000679	6.791577	2.301048	-0.000272
 843	8.3779e+01	6.4442	55.896163	0.000598	5.980642	2.026296	-0.000239
 844	8.3879e+01	6.4041	55.629712	0.000669	6.690210	2.266704	-0.000268
 845	8.3978e+01	6.3656	55.395558	0.000588	5.879275	1.991952	-0.000235
 846	8.4078e+01	6.3143	55.157367	0.000598	5.980642	2.026296	-0.000239
 847	8.4177e+01	6.2854	54.874768	0.000710	7.095677	2.404080	-0.000284
 848	8.4276e+01	6.2453	54.660799	0.000537	5.372441	1.820232	-0.000215
 849	8.4376e+01	6.2068	54.374163	0.000720	7.197044	2.438424	-0.000288
 850	8.4475e+01	6.1651	54.099637	0.000689	6.892943	2.335392	-0.000276
 851	8.4575e+01	6.1330	53.889706	0.000527	5.271074	1.785888	-0.000211
 852	8.4674e+01	6.0833	53.635367	0.000639	6.386109	2.163672	-0.000256
 853	8.4774e+01	6.0528	53.401213	0.000588	5.879275	1.991952	-0.000235
 854	8.4874e+01	6.0014	53.118613	0.000710	7.095677	2.404080	-0.000284
 855	8.4973e+01	5.9581	52.860237	0.000649	6.487476	2.198016	-0.000260
 856	8.5073e+01	5.9196	52.609934	0.000628	6.284742	2.129328	-0.000252
 857	8.5172e+01	5.8795	52.375780	0.000588	5.879275	1.991952	-0.000235
 858	8.5272e+01	5.8426	52.085107	0.000730	7.298411	2.472768	-0.000292
 859	8.5371e+01	5.8105	51.850953	0.000588	5.879275	1.991952	-0.000235
 860	8.5471e+01	5.7704	51.600650	0.000628	6.284742	2.129328	-0.000252
 861	8.5570e+01	5.7303	51.330162	0.000679	6.791577	2.301048	-0.000272
 862	8.5669e+01	5.6838	51.083897	0.000618	6.183376	2.094984	-0.000248
 863	8.5769e+01	5.6581	50.805335	0.000699	6.994310	2.369736	-0.000280
 864	8.5868e+01	5.5988	50.579255	0.000568	5.676542	1.923264	-0.000227
 865	8.5968e+01	5.5667	50.296656	0.000710	7.095677	2.404080	-0.000284
 866	8.6067e+01	5.5250	50.098836	0.000497	4.966974	1.682856	-0.000199
 867	8.6167e+01	5.4865	49.787976	0.000781	7.805245	2.644488	-0.000312
 868	8.6266e+01	5.4464	49.505377	0.000710	7.095677	2.404080	-0.000284
 869	8.6366e+01	5.4127	49.267186	0.000598	5.980642	2.026296	-0.000239
 870	8.6466e+01	5.3646	49.000735	0.000669	6.690210	2.266704	-0.000268
 871	8.6565e+01	5.3261	48.722173	0.000699	6.994310	2.369736	-0.000280
 872	8.6665e+01	5.2876	48.467833	0.000639	6.386109	2.163672	-0.000256
 873	8.6764e+01	5.2555	48.193308	0.000689	6.892943	2.335392	-0.000276
 874	8.6864e+01	5.2057	47.930894	0.000659	6.588843	2.232360	-0.000264
 875	8.6963e+01	5.1672	47.656369	0.000689	6.892943	2.335392	-0.000276
 876	8.7063e+01	5.1287	47.373769	0.000710	7.095677	2.404080	-0.000284
 877	8.7162e+01	5.0854	47.135578	0.000598	5.980642	2.026296	-0.000239
 878	8.7261e+01	5.0549	46.877202	0.000649	6.487476	2.198016	-0.000260
 879	8.7361e+01	5.0116	46.574416	0.000760	7.602511	2.575800	-0.000304
 880	8.7460e+01	4.9683	46.372560	0.000507	5.068341	1.717200	-0.000203
 881	8.7560e+01	4.9186	46.089960	0.000710	7.095677	2.404080	-0.000284
 882	8.7659e+01	4.8945	45.795249	0.000740	7.399777	2.507112	-0.000296
 883	8.7759e+01	4.8496	45.561095	0.000588	5.879275	1.991952	-0.000235
 884	8.7859e+01	4.8095	45.270422	0.000730	7.298411	2.472768	-0.000292
 885	8.7958e+01	4.7726	45.044342	0.000568	5.676542	1.923264	-0.000227
 886	8.8058e+01	4.7309	44.741557	0.000760	7.602511	2.575800	-0.000304
 887	8.8157e+01	4.6972	44.507403	0.000588	5.879275	1.991952	-0.000235
 888	8.8257e+01	4.6571	44.212692	0.000740	7.399777	2.507112	-0.000296
 889	8.8356e+01	4.6122	43.950278	0.000659	6.588843	2.232360	-0.000264
 890	8.8456e+01	4.5689	43.691902	0.000649	6.487476	2.198016	-0.000260
 891	8.8555e+01	4.5304	43.425451	0.000669	6.690210	2.266704	-0.000268
 892	8.8654e+01	4.4838	43.154962	0.000679	6.791577	2.301048	-0.000272
 893	8.8754e+01	4.4534	42.848140	0.000770	7.703878	2.610144	-0.000308
 894	8.8853e+01	4.4132	42.609949	0.000598	5.980642	2.026296	-0.000239
 895	8.8953e+01	4.3747	42.331387	0.000699	6.994310	2.369736	-0.000280
 896	8.9052e+01	4.3314	42.052824	0.000699	6.994310	2.369736	-0.000280
 897	8.9152e+01	4.2961	41.762151	0.000730	7.298411	2.472768	-0.000292
 898	8.9251e+01	4.2544	41.503774	0.000649	6.487476	2.198016	-0.000260
 899	8.9351e+01	4.2079	41.209063	0.000740	7.399777	2.507112	-0.000296
 900	8.9451e+01	4.1662	40.934538	0.000689	6.892943	2.335392	-0.000276
 901	8.9550e+01	4.1357	40.684235	0.000628	6.284742	2.129328	-0.000252
 902	8.9650e+01	4.0972	40.393562	0.000730	7.298411	2.472768	-0.000292
 903	8.9749e+01	4.0459	40.135185	0.000649	6.487476	2.198016	-0.000260
 904	8.9849e+01	4.0106	39.852585	0.000710	7.095677	2.404080	-0.000284
 905	8.9948e+01	3.9657	39.561912	0.000730	7.298411	2.472768	-0.000292
 906	9.0047e+01	3.9288	39.267201	0.000740	7.399777	2.507112	-0.000296
 907	9.0147e+01	3.8855	38.988638	0.000699	6.994310	2.369736	-0.000280
 908	9.0246e+01	3.8598	38.750447	0.000598	5.980642	2.026296	-0.000239
 909	9.0346e+01	3.8213	38.471885	0.000699	6.994310	2.369736	-0.000280
 910	9.0445e+01	3.7699	38.189286	0.000710	7.095677	2.404080	-0.000284
 911	9.0545e+01	3.7250	37.906686	0.000710	7.095677	2.404080	-0.000284
 912	9.0644e+01	3.6945	37.640235	0.000669	6.690210	2.266704	-0.000268
 913	9.0744e+01	3.6528	37.369747	0.000679	6.791577	2.301048	-0.000272
 914	9.0844e+01	3.6208	37.075036	0.000740	7.399777	2.507112	-0.000296
 915	9.0943e+01	3.5758	36.792437	0.000710	7.095677	2.404080	-0.000284
 916	9.1043e+01	3.5245	36.489651	0.000760	7.602511	2.575800	-0.000304
 917	9.1142e+01	3.4892	36.247423	0.000608	6.082009	2.060640	-0.000243
 918	9.1242e+01	3.4523	35.985009	0.000659	6.588843	2.232360	-0.000264
 919	9.1341e+01	3.4170	35.682224	0.000760	7.602511	2.575800	-0.000304
 920	9.1441e+01	3.3689	35.419810	0.000659	6.588843	2.232360	-0.000264
 921	9.1540e+01	3.3384	35.108951	0.000781	7.805245	2.644488	-0.000312
 922	9.1639e+01	3.2903	34.858649	0.000628	6.284742	2.129328	-0.000252
 923	9.1739e+01	3.2518	34.584123	0.000689	6.892943	2.335392	-0.000276
 924	9.1838e+01	3.2213	34.305561	0.000699	6.994310	2.369736	-0.000280
 925	9.1938e+01	3.1700	34.031036	0.000689	6.892943	2.335392	-0.000276
 926	9.2037e+01	3.1379	33.736325	0.000740	7.399777	2.507112	-0.000296
 927	9.2137e+01	3.0946	33.453725	0.000710	7.095677	2.404080	-0.000284
 928	9.2237e+01	3.0609	33.191311	0.000659	6.588843	2.232360	-0.000264
 929	9.2336e+01	3.0127	32.868341	0.000811	8.109345	2.747521	-0.000325
 930	9.2436e+01	2.9775	32.609964	0.000649	6.487476	2.198016	-0.000260
 931	9.2535e+01	2.9357	32.331402	0.000699	6.994310	2.369736	-0.000280
 932	9.2635e+01	2.8972	32.068988	0.000659	6.588843	2.232360	-0.000264
 933	9.2734e+01	2.8459	31.774277	0.000740	7.399777	2.507112	-0.000296
 934	9.2834e+01	2.8154	31.475529	0.000750	7.501144	2.541456	-0.000300
 935	9.2933e+01	2.7817	31.221189	0.000639	6.386109	2.163672	-0.000256
 936	9.3032e+01	2.7432	30.910330	0.000781	7.805245	2.644488	-0.000312
 937	9.3132e+01	2.6999	30.615619	0.000740	7.399777	2.507112	-0.000296
 938	9.3231e+01	2.6566	30.324945	0.000730	7.298411	2.472768	-0.000292
 939	9.3331e+01	2.6229	30.050420	0.000689	6.892943	2.335392	-0.000276
 940	9.3430e+01	2.5764	29.759746	0.000730	7.298411	2.472768	-0.000292
 941	9.3530e+01	2.5331	29.481184	0.000699	6.994310	2.369736	-0.000280
 942	9.3629e+01	2.4962	29.174361	0.000770	7.703878	2.610144	-0.000308
 943	9.3729e+01	2.4561	28.899836	0.000689	6.892943	2.335392	-0.000276
 944	9.3829e+01	2.4192	28.609162	0.000730	7.298411	2.472768	-0.000292
 945	9.3928e+01	2.3662	28.310414	0.000750	7.501144	2.541456	-0.000300
 946	9.4028e+01	2.3422	28.031852	0.000699	6.994310	2.369736	-0.000280
 947	9.4127e+01	2.2989	27.753290	0.000699	6.994310	2.369736	-0.000280
 948	9.4227e+01	2.2668	27.470690	0.000710	7.095677	2.404080	-0.000284
 949	9.4326e+01	2.2122	27.175979	0.000740	7.399777	2.507112	-0.000296
 950	9.4425e+01	2.1818	26.848971	0.000821	8.210712	2.781865	-0.000329
 951	9.4525e+01	2.1433	26.558297	0.000730	7.298411	2.472768	-0.000292
 952	9.4624e+01	2.1015	26.275698	0.000710	7.095677	2.404080	-0.000284
 953	9.4724e+01	2.0534	26.017321	0.000649	6.487476	2.198016	-0.000260
 954	9.4823e+01	2.0278	25.758945	0.000649	6.487476	2.198016	-0.000260
 955	9.4923e+01	1.9828	25.452122	0.000770	7.703878	2.610144	-0.000308
 956	9.5022e+01	1.9459	25.145300	0.000770	7.703878	2.610144	-0.000308
 957	9.5122e+01	1.9058	24.890960	0.000639	6.386109	2.163672	-0.000256
 958	9.5222e+01	1.8609	24.584138	0.000770	7.703878	2.610144	-0.000308
 959	9.5321e+01	1.8128	24.301539	0.000710	7.095677	2.404080	-0.000284
 960	9.5421e+01	1.7823	23.966456	0.000841	8.413446	2.850553	-0.000337
 961	9.5520e+01	1.7406	23.683857	0.000710	7.095677	2.404080	-0.000284
 962	9.5620e+01	1.7101	23.425480	0.000649	6.487476	2.198016	-0.000260
 963	9.5719e+01	1.6716	23.146918	0.000699	6.994310	2.369736	-0.000280
 964	9.5819e+01	1.6187	22.823947	0.000811	8.109345	2.747521	-0.000325
 965	9.5918e+01	1.5850	22.553459	0.000679	6.791577	2.301048	-0.000272
 966	9.6017e+01	1.5353	22.287008	0.000669	6.690210	2.266704	-0.000268
 967	9.6117e+01	1.4967	21.980186	0.000770	7.703878	2.610144	-0.000308
 968	9.6216e+01	1.4566	21.620880	0.000902	9.021646	3.056617	-0.000361
 969	9.6316e+01	1.4165	21.394801	0.000568	5.676542	1.923264	-0.000227
 970	9.6415e+01	1.3845	21.096053	0.000750	7.501144	2.541456	-0.000300
 971	9.6515e+01	1.3427	20.760971	0.000841	8.413446	2.850553	-0.000337
 972	9.6615e+01	1.3026	20.498557	0.000659	6.588843	2.232360	-0.000264
 973	9.6714e+01	1.2625	20.232106	0.000669	6.690210	2.266704	-0.000268
 974	9.6814e+01	1.2208	19.913172	0.000801	8.007978	2.713177	-0.000321
 975	9.6913e+01	1.1887	19.634610	0.000699	6.994310	2.369736	-0.000280
 976	9.7013e+01	1.1422	19.327787	0.000770	7.703878	2.610144	-0.000308
 977	9.7112e+01	1.0989	19.053262	0.000689	6.892943	2.335392	-0.000276
 978	9.7212e+01	1.0652	18.750477	0.000760	7.602511	2.575800	-0.000304
 979	9.7311e+01	1.0187	18.459803	0.000730	7.298411	2.472768	-0.000292
 980	9.7410e+01	0.9850	18.116647	0.000862	8.616179	2.919241	-0.000345
 981	9.7510e+01	0.9465	17.886530	0.000578	5.777908	1.957608	-0.000231
 982	9.7609e+01	0.8936	17.583745	0.000760	7.602511	2.575800	-0.000304
 983	9.7709e+01	0.8615	17.276922	0.000770	7.703878	2.610144	-0.000308
 984	9.7808e+01	0.8198	16.990286	0.000720	7.197044	2.438424	-0.000288
 985	9.7908e+01	0.7829	16.687501	0.000760	7.602511	2.575800	-0.000304
 986	9.8007e+01	0.7476	16.404901	0.000710	7.095677	2.404080	-0.000284
 987	9.8107e+01	0.6962	16.110190	0.000740	7.399777	2.507112	-0.000296
 988	9.8207e+01	0.6625	15.819516	0.000730	7.298411	2.472768	-0.000292
 989	9.8306e+01	0.6289	15.496546	0.000811	8.109345	2.747521	-0.000325
 990	9.8406e+01	0.5775	15.217983	0.000699	6.994310	2.369736	-0.000280
 991	9.8505e+01	0.5390	14.878864	0.000851	8.514812	2.884897	-0.000341
 992	9.8605e+01	0.5069	14.592227	0.000720	7.197044	2.438424	-0.000288
 993	9.8704e+01	0.4668	14.317702	0.000689	6.892943	2.335392	-0.000276
 994	9.8803e+01	0.4219	13.994731	0.000811	8.109345	2.747521	-0.000325
 995	9.8903e+01	0.3802	13.683872	0.000781	7.805245	2.644488	-0.000312
 996	9.9002e+01	0.3481	13.401272	0.000710	7.095677	2.404080	-0.000284
 997	9.9102e+01	0.3128	13.114635	0.000720	7.197044	2.438424	-0.000288
 998	9.9201e+01	0.2743	12.836073	0.000699	6.994310	2.369736	-0.000280
 999	9.9301e+01	0.2278	12.496954	0.000851	8.514812	2.884897	-0.000341
1000	9.9400e+01	0.1845	12.165909	0.000831	8.312079	2.816209	-0.000333
1001	9.9500e+01	0.1460	11.875235	0.000730	7.298411	2.472768	-0.000292
1002	9.9600e+01	0.1107	11.633007	0.000608	6.082009	2.060640	-0.000243
1003	9.9699e+01	0.0658	11.338296	0.000740	7.399777	2.507112	-0.000296
1004	9.9799e+01	0.0289	11.015325	0.000811	8.109345	2.747521	-0.000325
1005	9.9898e+01	0.0032	10.732725	0.000710	7.095677	2.404080	-0.000284
1006	9.9998e+01	-0.0433	10.466274	0.000669	6.690210	2.266704	-0.000268
1007	1.0010e+02	-0.0866	10.163489	0.000760	7.602511	2.575800	-0.000304
1008	1.0020e+02	-0.1267	9.820333	0.000862	8.616179	2.919241	-0.000345
1009	1.0030e+02	-0.1588	9.545807	0.000689	6.892943	2.335392	-0.000276
1010	1.0040e+02	-0.2069	9.230911	0.000791	7.906612	2.678832	-0.000316
1011	1.0050e+02	-0.2438	8.944274	0.000720	7.197044	2.438424	-0.000288
1012	1.0059e+02	-0.2856	8.609192	0.000841	8.413446	2.850553	-0.000337
1013	1.0069e+02	-0.3289	8.274110	0.000841	8.413446	2.850553	-0.000337
1014	1.0079e+02	-0.3658	7.991510	0.000710	7.095677	2.404080	-0.000284
1015	1.0089e+02	-0.4011	7.721022	0.000679	6.791577	2.301048	-0.000272
1016	1.0099e+02	-0.4380	7.430348	0.000730	7.298411	2.472768	-0.000292
1017	1.0109e+02	-0.4861	7.107377	0.000811	8.109345	2.747521	-0.000325
1018	1.0119e+02	-0.5166	6.776332	0.000831	8.312079	2.816209	-0.000333
1019	1.0129e+02	-0.5647	6.505844	0.000679	6.791577	2.301048	-0.000272
1020	1.0139e+02	-0.6032	6.166725	0.000851	8.514812	2.884897	-0.000341
1021	1.0149e+02	-0.6417	5.863940	0.000760	7.602511	2.575800	-0.000304
1022	1.0159e+02	-0.6834	5.577303	0.000720	7.197044	2.438424	-0.000288
1023	1.0169e+02	-0.7235	5.278555	0.000750	7.501144	2.541456	-0.000300
1024	1.0179e+02	-0.7668	4.987881	0.000730	7.298411	2.472768	-0.000292
1025	1.0189e+02	-0.8005	4.668947	0.000801	8.007978	2.713177	-0.000321
1026	1.0199e+02	-0.8374	4.333865	0.000841	8.413446	2.850553	-0.000337
1027	1.0209e+02	-0.8920	4.059340	0.000689	6.892943	2.335392	-0.000276
1028	1.0219e+02	-0.9208	3.720221	0.000851	8.514812	2.884897	-0.000341
1029	1.0229e+02	-0.9690	3.421473	0.000750	7.501144	2.541456	-0.000300
1030	1.0239e+02	-0.9994	3.102539	0.000801	8.007978	2.713177	-0.000321
1031	1.0248e+02	-1.0428	2.811865	0.000730	7.298411	2.472768	-0.000292
1032	1.0258e+02	-1.0925	2.488894	0.000811	8.109345	2.747521	-0.000325
1033	1.0268e+02	-1.1198	2.194183	0.000740	7.399777	2.507112	-0.000296
1034	1.0278e+02	-1.1615	1.895435	0.000750	7.501144	2.541456	-0.000300
1035	1.0288e+02	-1.1919	1.556316	0.000851	8.514812	2.884897	-0.000341
1036	1.0298e+02	-1.2417	1.297939	0.000649	6.487476	2.198016	-0.000260
1037	1.0308e+02	-1.2786	0.991117	0.000770	7.703878	2.610144	-0.000308
1038	1.0318e+02	-1.3203	0.635849	0.000892	8.920280	3.022273	-0.000357
1039	1.0328e+02	-1.3572	0.349212	0.000720	7.197044	2.438424	-0.000288
1040	1.0338e+02	-1.4021	0.034316	0.000791	7.906612	2.678832	-0.000316
1041	1.0348e+02	-1.4374	-0.300767	0.000841	8.413446	2.850553	-0.000337
1042	1.0358e+02	-1.4855	-0.571255	0.000679	6.791577	2.301048	-0.000272
1043	1.0368e+02	-1.5240	-0.914411	0.000862	8.616179	2.919241	-0.000345
1044	1.0378e+02	-1.5577	-1.213159	0.000750	7.501144	2.541456	-0.000300
1045	1.0388e+02	-1.6090	-1.507870	0.000740	7.399777	2.507112	-0.000296
1046	1.0398e+02	-1.6475	-1.830841	0.000811	8.109345	2.747521	-0.000325
1047	1.0408e+02	-1.6764	-2.125552	0.000740	7.399777	2.507112	-0.000296
1048	1.0418e+02	-1.7133	-2.396040	0.000679	6.791577	2.301048	-0.000272
1049	1.0428e+02	-1.7518	-2.771494	0.000943	9.427114	3.193993	-0.000377
1050	1.0438e+02	-1.7967	-3.041982	0.000679	6.791577	2.301048	-0.000272
1051	1.0447e+02	-1.8449	-3.393213	0.000882	8.818913	2.987929	-0.000353
1052	1.0457e+02	-1.8802	-3.663701	0.000679	6.791577	2.301048	-0.000272
1053	1.0467e+02	-1.9219	-4.002820	0.000851	8.514812	2.884897	-0.000341
1054	1.0477e+02	-1.9588	-4.285420	0.000710	7.095677	2.404080	-0.000284
1055	1.0487e+02	-1.9973	-4.600316	0.000791	7.906612	2.678832	-0.000316
1056	1.0497e+02	-2.0358	-4.919250	0.000801	8.007978	2.713177	-0.000321
1057	1.0507e+02	-2.0871	-5.266444	0.000872	8.717546	2.953585	-0.000349
1058	1.0517e+02	-2.1256	-5.549043	0.000710	7.095677	2.404080	-0.000284
1059	1.0527e+02	-2.1561	-5.803383	0.000639	6.386109	2.163672	-0.000256
1060	1.0537e+02	-2.1866	-6.190948	0.000973	9.731214	3.297025	-0.000390
1061	1.0547e+02	-2.2379	-6.445287	0.000639	6.386109	2.163672	-0.000256
1062	1.0557e+02	-2.2796	-6.768258	0.000811	8.109345	2.747521	-0.000325
1063	1.0567e+02	-2.3053	-7.075080	0.000770	7.703878	2.610144	-0.000308
1064	1.0577e+02	-2.3550	-7.398051	0.000811	8.109345	2.747521	-0.000325
1065	1.0587e+02	-2.3935	-7.721022	0.000811	8.109345	2.747521	-0.000325
1066	1.0597e+02	-2.4432	-8.023807	0.000760	7.602511	2.575800	-0.000304
1067	1.0607e+02	-2.4769	-8.306407	0.000710	7.095677	2.404080	-0.000284
1068	1.0617e+02	-2.5235	-8.609192	0.000760	7.602511	2.575800	-0.000304
1069	1.0627e+02	-2.5571	-8.920051	0.000781	7.805245	2.644488	-0.000312
1070	1.0637e+02	-2.6053	-9.259171	0.000851	8.514812	2.884897	-0.000341
1071	1.0647e+02	-2.6342	-9.545807	0.000720	7.197044	2.438424	-0.000288
1072	1.0656e+02	-2.6855	-9.860704	0.000791	7.906612	2.678832	-0.000316
1073	1.0666e+02	-2.7144	-10.115044	0.000639	6.386109	2.163672	-0.000256
1074	1.0676e+02	-2.7545	-10.462237	0.000872	8.717546	2.953585	-0.000349
1075	1.0686e+02	-2.7962	-10.765022	0.000760	7.602511	2.575800	-0.000304
1076	1.0696e+02	-2.8395	-11.071845	0.000770	7.703878	2.610144	-0.000308
1077	1.0706e+02	-2.8764	-11.358481	0.000720	7.197044	2.438424	-0.000288
1078	1.0716e+02	-2.9245	-11.653192	0.000740	7.399777	2.507112	-0.000296
1079	1.0726e+02	-2.9630	-11.960015	0.000770	7.703878	2.610144	-0.000308
1080	1.0736e+02	-2.9791	-12.262800	0.000760	7.602511	2.575800	-0.000304
1081	1.0746e+02	-3.0304	-12.569622	0.000770	7.703878	2.610144	-0.000308
1082	1.0756e+02	-3.0657	-12.892593	0.000811	8.109345	2.747521	-0.000325
1083	1.0766e+02	-3.1106	-13.191341	0.000750	7.501144	2.541456	-0.000300
1084	1.0776e+02	-3.1587	-13.494126	0.000760	7.602511	2.575800	-0.000304
1085	1.0786e+02	-3.1940	-13.764614	0.000679	6.791577	2.301048	-0.000272
1086	1.0796e+02	-3.2357	-14.059325	0.000740	7.399777	2.507112	-0.000296
1087	1.0806e+02	-3.2694	-14.345962	0.000720	7.197044	2.438424	-0.000288
1088	1.0816e+02	-3.3143	-14.656821	0.000781	7.805245	2.644488	-0.000312
1089	1.0826e+02	-3.3400	-14.935384	0.000699	6.994310	2.369736	-0.000280
1090	1.0836e+02	-3.3978	-15.213946	0.000699	6.994310	2.369736	-0.000280
1091	1.0845e+02	-3.4298	-15.524805	0.000781	7.805245	2.644488	-0.000312
1092	1.0855e+02	-3.4684	-15.839702	0.000791	7.906612	2.678832	-0.000316
1093	1.0865e+02	-3.5133	-16.130376	0.000730	7.298411	2.472768	-0.000292
1094	1.0875e+02	-3.5518	-16.408938	0.000699	6.994310	2.369736	-0.000280
1095	1.0885e+02	-3.5983	-16.719798	0.000781	7.805245	2.644488	-0.000312
1096	1.0895e+02	-3.6272	-16.982211	0.000659	6.588843	2.232360	-0.000264
1097	1.0905e+02	-3.6769	-17.289034	0.000770	7.703878	2.610144	-0.000308
1098	1.0915e+02	-3.7170	-17.587782	0.000750	7.501144	2.541456	-0.000300
1099	1.0925e+02	-3.7539	-17.943050	0.000892	8.920280	3.022273	-0.000357
1100	1.0935e+02	-3.7988	-18.152981	0.000527	5.271074	1.785888	-0.000211
1101	1.0945e+02	-3.8373	-18.463840	0.000781	7.805245	2.644488	-0.000312
1102	1.0955e+02	-3.8646	-18.742403	0.000699	6.994310	2.369736	-0.000280
1103	1.0965e+02	-3.9159	-19.081522	0.000851	8.514812	2.884897	-0.000341
1104	1.0975e+02	-3.9576	-19.384307	0.000760	7.602511	2.575800	-0.000304
1105	1.0985e+02	-3.9945	-19.634610	0.000628	6.284742	2.129328	-0.000252
1106	1.0995e+02	-4.0314	-19.925283	0.000730	7.298411	2.472768	-0.000292
1107	1.1005e+02	-4.0699	-20.224031	0.000750	7.501144	2.541456	-0.000300
1108	1.1015e+02	-4.1116	-20.526817	0.000760	7.602511	2.575800	-0.000304
1109	1.1025e+02	-4.1469	-20.777119	0.000628	6.284742	2.129328	-0.000252
1110	1.1035e+02	-4.1983	-21.071830	0.000740	7.399777	2.507112	-0.000296
1111	1.1044e+02	-4.2272	-21.366541	0.000740	7.399777	2.507112	-0.000296
1112	1.1054e+02	-4.2641	-21.620880	0.000639	6.386109	2.163672	-0.000256
1113	1.1064e+02	-4.3122	-21.960000	0.000851	8.514812	2.884897	-0.000341
1114	1.1074e+02	-4.3475	-22.254711	0.000740	7.399777	2.507112	-0.000296
1115	1.1084e+02	-4.3908	-22.492902	0.000598	5.980642	2.026296	-0.000239
1116	1.1094e+02	-4.4245	-22.803761	0.000781	7.805245	2.644488	-0.000312
1117	1.1104e+02	-4.4630	-23.078286	0.000689	6.892943	2.335392	-0.000276
1118	1.1114e+02	-4.5143	-23.344737	0.000669	6.690210	2.266704	-0.000268
1119	1.1124e+02	-4.5416	-23.667708	0.000811	8.109345	2.747521	-0.000325
1120	1.1134e+02	-4.5849	-23.954345	0.000720	7.197044	2.438424	-0.000288
1121	1.1144e+02	-4.6346	-24.200610	0.000618	6.183376	2.094984	-0.000248
1122	1.1154e+02	-4.6667	-24.491284	0.000730	7.298411	2.472768	-0.000292
1123	1.1164e+02	-4.7116	-24.785995	0.000740	7.399777	2.507112	-0.000296
1124	1.1174e+02	-4.7549	-25.056483	0.000679	6.791577	2.301048	-0.000272
1125	1.1184e+02	-4.7838	-25.310823	0.000639	6.386109	2.163672	-0.000256
1126	1.1194e+02	-4.8368	-25.629756	0.000801	8.007978	2.713177	-0.000321
1127	1.1204e+02	-4.8640	-25.908319	0.000699	6.994310	2.369736	-0.000280
1128	1.1214e+02	-4.9073	-26.162658	0.000639	6.386109	2.163672	-0.000256
1129	1.1224e+02	-4.9491	-26.457369	0.000740	7.399777	2.507112	-0.000296
1130	1.1234e+02	-4.9876	-26.695560	0.000598	5.980642	2.026296	-0.000239
1131	1.1244e+02	-5.0293	-27.026605	0.000831	8.312079	2.816209	-0.000333
1132	1.1253e+02	-5.0565	-27.272870	0.000618	6.183376	2.094984	-0.000248
1133	1.1263e+02	-5.1015	-27.563544	0.000730	7.298411	2.472768	-0.000292
1134	1.1273e+02	-5.1544	-27.846144	0.000710	7.095677	2.404080	-0.000284
1135	1.1283e+02	-5.1817	-28.080298	0.000588	5.879275	1.991952	-0.000235
1136	1.1293e+02	-5.2138	-28.366934	0.000720	7.197044	2.438424	-0.000288
1137	1.1303e+02	-5.2587	-28.657608	0.000730	7.298411	2.472768	-0.000292
1138	1.1313e+02	-5.3068	-28.915985	0.000649	6.487476	2.198016	-0.000260
1139	1.1323e+02	-5.3533	-29.202621	0.000720	7.197044	2.438424	-0.000288
1140	1.1333e+02	-5.3998	-29.469072	0.000669	6.690210	2.266704	-0.000268
1141	1.1343e+02	-5.4239	-29.731486	0.000659	6.588843	2.232360	-0.000264
1142	1.1353e+02	-5.4672	-29.981789	0.000628	6.284742	2.129328	-0.000252
1143	1.1363e+02	-5.5041	-30.284574	0.000760	7.602511	2.575800	-0.000304
1144	1.1373e+02	-5.5362	-30.514690	0.000578	5.777908	1.957608	-0.000231
1145	1.1383e+02	-5.5891	-30.825550	0.000781	7.805245	2.644488	-0.000312
1146	1.1393e+02	-5.6244	-31.027407	0.000507	5.068341	1.717200	-0.000203
1147	1.1403e+02	-5.6629	-31.318080	0.000730	7.298411	2.472768	-0.000292
1148	1.1413e+02	-5.7095	-31.580494	0.000659	6.588843	2.232360	-0.000264
1149	1.1423e+02	-5.7496	-31.838871	0.000649	6.487476	2.198016	-0.000260
1150	1.1433e+02	-5.7817	-32.117433	0.000699	6.994310	2.369736	-0.000280
1151	1.1442e+02	-5.8266	-32.420219	0.000760	7.602511	2.575800	-0.000304
1152	1.1452e+02	-5.8683	-32.630150	0.000527	5.271074	1.785888	-0.000211
1153	1.1462e+02	-5.9036	-32.896601	0.000669	6.690210	2.266704	-0.000268
1154	1.1472e+02	-5.9485	-33.195349	0.000750	7.501144	2.541456	-0.000300
1155	1.1482e+02	-5.9854	-33.433540	0.000598	5.980642	2.026296	-0.000239
1156	1.1492e+02	-6.0287	-33.740362	0.000770	7.703878	2.610144	-0.000308
1157	1.1502e+02	-6.0656	-33.970479	0.000578	5.777908	1.957608	-0.000231
1158	1.1512e+02	-6.1121	-34.257115	0.000720	7.197044	2.438424	-0.000288
1159	1.1522e+02	-6.1410	-34.483195	0.000568	5.676542	1.923264	-0.000227
1160	1.1532e+02	-6.1763	-34.773869	0.000730	7.298411	2.472768	-0.000292
1161	1.1542e+02	-6.2180	-34.991874	0.000547	5.473808	1.854576	-0.000219
1162	1.1552e+02	-6.2661	-35.314845	0.000811	8.109345	2.747521	-0.000325
1163	1.1562e+02	-6.3078	-35.516702	0.000507	5.068341	1.717200	-0.000203
1164	1.1572e+02	-6.3367	-35.839673	0.000811	8.109345	2.747521	-0.000325
1165	1.1582e+02	-6.3768	-36.061715	0.000558	5.575175	1.888920	-0.000223
1166	1.1592e+02	-6.4201	-36.400834	0.000851	8.514812	2.884897	-0.000341
1167	1.1602e+02	-6.4586	-36.602691	0.000507	5.068341	1.717200	-0.000203
1168	1.1612e+02	-6.5020	-36.796474	0.000487	4.865607	1.648512	-0.000195
1169	1.1622e+02	-6.5356	-37.103296	0.000770	7.703878	2.610144	-0.000308
1170	1.1632e+02	-6.5822	-37.369747	0.000669	6.690210	2.266704	-0.000268
1171	1.1642e+02	-6.6126	-37.620049	0.000628	6.284742	2.129328	-0.000252
1172	1.1651e+02	-6.6544	-37.902649	0.000710	7.095677	2.404080	-0.000284
1173	1.1661e+02	-6.7025	-38.161026	0.000649	6.487476	2.198016	-0.000260
1174	1.1671e+02	-6.7442	-38.427477	0.000669	6.690210	2.266704	-0.000268
1175	1.1681e+02	-6.7715	-38.673742	0.000618	6.183376	2.094984	-0.000248
1176	1.1691e+02	-6.8084	-38.899821	0.000568	5.676542	1.923264	-0.000227
1177	1.1701e+02	-6.8549	-39.170309	0.000679	6.791577	2.301048	-0.000272
1178	1.1711e+02	-6.8966	-39.408501	0.000598	5.980642	2.026296	-0.000239
1179	1.1721e+02	-6.9319	-39.683026	0.000689	6.892943	2.335392	-0.000276
1180	1.1731e+02	-6.9752	-39.941402	0.000649	6.487476	2.198016	-0.000260
1181	1.1741e+02	-7.0217	-40.175556	0.000588	5.879275	1.991952	-0.000235
1182	1.1751e+02	-7.0458	-40.462193	0.000720	7.197044	2.438424	-0.000288
1183	1.1761e+02	-7.0987	-40.704421	0.000608	6.082009	2.060640	-0.000243
1184	1.1771e+02	-7.1404	-40.982983	0.000699	6.994310	2.369736	-0.000280
1185	1.1781e+02	-7.1741	-41.229249	0.000618	6.183376	2.094984	-0.000248
1186	1.1791e+02	-7.2190	-41.483588	0.000639	6.386109	2.163672	-0.000256
1187	1.1801e+02	-7.2592	-41.717742	0.000588	5.879275	1.991952	-0.000235
1188	1.1811e+02	-7.2977	-41.972082	0.000639	6.386109	2.163672	-0.000256
1189	1.1821e+02	-7.3458	-42.214310	0.000608	6.082009	2.060640	-0.000243
1190	1.1831e+02	-7.3747	-42.480761	0.000669	6.690210	2.266704	-0.000268
1191	1.1841e+02	-7.4100	-42.747212	0.000669	6.690210	2.266704	-0.000268
1192	1.1850e+02	-7.4517	-42.969254	0.000558	5.575175	1.888920	-0.000223
1193	1.1860e+02	-7.4934	-43.263965	0.000740	7.399777	2.507112	-0.000296
1194	1.1870e+02	-7.5367	-43.514268	0.000628	6.284742	2.129328	-0.000252
1195	1.1880e+02	-7.5720	-43.724199	0.000527	5.271074	1.785888	-0.000211
1196	1.1890e+02	-7.6105	-43.986612	0.000659	6.588843	2.232360	-0.000264
1197	1.1900e+02	-7.6634	-44.285360	0.000750	7.501144	2.541456	-0.000300
1198	1.1910e+02	-7.6955	-44.511440	0.000568	5.676542	1.923264	-0.000227
1199	1.1920e+02	-7.7372	-44.769817	0.000649	6.487476	2.198016	-0.000260
1200	1.1930e+02	-7.7789	-45.012045	0.000608	6.082009	2.060640	-0.000243
1201	1.1940e+02	-7.8222	-45.310793	0.000750	7.501144	2.541456	-0.000300
1202	1.1950e+02	-7.8431	-45.496501	0.000466	4.662873	1.579824	-0.000187
1203	1.1960e+02	-7.8848	-45.766989	0.000679	6.791577	2.301048	-0.000272
1204	1.1970e+02	-7.9377	-46.009217	0.000608	6.082009	2.060640	-0.000243
1205	1.1980e+02	-7.9746	-46.271631	0.000659	6.588843	2.232360	-0.000264
1206	1.1990e+02	-8.0164	-46.525971	0.000639	6.386109	2.163672	-0.000256
1207	1.2000e+02	-8.0468	-46.776273	0.000628	6.284742	2.129328	-0.000252
1208	1.2010e+02	-8.0934	-47.026576	0.000628	6.284742	2.129328	-0.000252
1209	1.2020e+02	-8.1303	-47.256692	0.000578	5.777908	1.957608	-0.000231
1210	1.2030e+02	-8.1832	-47.519106	0.000659	6.588843	2.232360	-0.000264
1211	1.2039e+02	-8.2217	-47.769409	0.000628	6.284742	2.129328	-0.000252
1212	1.2049e+02	-8.2474	-48.015674	0.000618	6.183376	2.094984	-0.000248
1213	1.2059e+02	-8.2907	-48.245791	0.000578	5.777908	1.957608	-0.000231
1214	1.2069e+02	-8.3276	-48.524353	0.000699	6.994310	2.369736	-0.000280
1215	1.2079e+02	-8.3757	-48.774655	0.000628	6.284742	2.129328	-0.000252
1216	1.2089e+02	-8.4142	-49.016884	0.000608	6.082009	2.060640	-0.000243
1217	1.2099e+02	-8.4415	-49.242963	0.000568	5.676542	1.923264	-0.000227
1218	1.2109e+02	-8.4976	-49.517488	0.000689	6.892943	2.335392	-0.000276
1219	1.2119e+02	-8.5425	-49.751642	0.000588	5.879275	1.991952	-0.000235
1220	1.2129e+02	-8.5714	-50.005982	0.000639	6.386109	2.163672	-0.000256
1221	1.2139e+02	-8.6083	-50.232061	0.000568	5.676542	1.923264	-0.000227
1222	1.2149e+02	-8.6516	-50.518698	0.000720	7.197044	2.438424	-0.000288
1223	1.2159e+02	-8.6965	-50.732666	0.000537	5.372441	1.820232	-0.000215
1224	1.2169e+02	-8.7302	-50.987006	0.000639	6.386109	2.163672	-0.000256
1225	1.2179e+02	-8.7719	-51.200974	0.000537	5.372441	1.820232	-0.000215
1226	1.2189e+02	-8.8153	-51.495685	0.000740	7.399777	2.507112	-0.000296
1227	1.2199e+02	-8.8506	-51.737913	0.000608	6.082009	2.060640	-0.000243
1228	1.2209e+02	-8.8987	-51.980141	0.000608	6.082009	2.060640	-0.000243
1229	1.2219e+02	-8.9227	-52.234481	0.000639	6.386109	2.163672	-0.000256
1230	1.2229e+02	-8.9757	-52.444412	0.000527	5.271074	1.785888	-0.000211
1231	1.2239e+02	-9.0158	-52.706826	0.000659	6.588843	2.232360	-0.000264
1232	1.2248e+02	-9.0415	-52.973277	0.000669	6.690210	2.266704	-0.000268
1233	1.2258e+02	-9.0976	-53.243765	0.000679	6.791577	2.301048	-0.000272
1234	1.2268e+02	-9.1169	-53.449659	0.000517	5.169708	1.751544	-0.000207
1235	1.2278e+02	-9.1714	-53.703998	0.000639	6.386109	2.163672	-0.000256
1236	1.2288e+02	-9.2147	-53.942189	0.000598	5.980642	2.026296	-0.000239
1237	1.2298e+02	-9.2548	-54.168269	0.000568	5.676542	1.923264	-0.000227
1238	1.2308e+02	-9.2869	-54.442794	0.000689	6.892943	2.335392	-0.000276
1239	1.2318e+02	-9.3334	-54.656762	0.000537	5.372441	1.820232	-0.000215
1240	1.2328e+02	-9.3703	-54.935325	0.000699	6.994310	2.369736	-0.000280
1241	1.2338e+02	-9.3992	-55.149293	0.000537	5.372441	1.820232	-0.000215
1242	1.2348e+02	-9.4473	-55.419781	0.000679	6.791577	2.301048	-0.000272
1243	1.2358e+02	-9.4810	-55.637786	0.000547	5.473808	1.854576	-0.000219
1244	1.2368e+02	-9.5227	-55.908274	0.000679	6.791577	2.301048	-0.000272
1245	1.2378e+02	-9.5757	-56.102057	0.000487	4.865607	1.648512	-0.000195
1246	1.2388e+02	-9.6029	-56.376582	0.000689	6.892943	2.335392	-0.000276
1247	1.2398e+02	-9.6414	-56.630922	0.000639	6.386109	2.163672	-0.000256
1248	1.2408e+02	-9.6848	-56.861038	0.000578	5.777908	1.957608	-0.000231
1249	1.2418e+02	-9.7265	-57.070969	0.000527	5.271074	1.785888	-0.000211
1250	1.2428e+02	-9.7650	-57.349532	0.000699	6.994310	2.369736	-0.000280
1251	1.2438e+02	-9.8035	-57.555426	0.000517	5.169708	1.751544	-0.000207
1252	1.2447e+02	-9.8388	-57.821877	0.000669	6.690210	2.266704	-0.000268
1253	1.2457e+02	-9.8869	-58.056030	0.000588	5.879275	1.991952	-0.000235
1254	1.2467e+02	-9.9254	-58.294221	0.000598	5.980642	2.026296	-0.000239
1255	1.2477e+02	-9.9751	-58.536450	0.000608	6.082009	2.060640	-0.000243
1256	1.2487e+02	-10.0104	-58.714084	0.000446	4.460140	1.511136	-0.000179
1257	1.2497e+02	-10.0505	-58.972460	0.000649	6.487476	2.198016	-0.000260
1258	1.2507e+02	-10.0922	-59.267171	0.000740	7.399777	2.507112	-0.000296
1259	1.2517e+02	-10.1259	-59.464991	0.000497	4.966974	1.682856	-0.000199
1260	1.2527e+02	-10.1660	-59.703182	0.000598	5.980642	2.026296	-0.000239
1261	1.2537e+02	-10.2061	-59.913113	0.000527	5.271074	1.785888	-0.000211
1262	1.2547e+02	-10.2510	-60.147267	0.000588	5.879275	1.991952	-0.000235
1263	1.2557e+02	-10.2895	-60.385458	0.000598	5.980642	2.026296	-0.000239
1264	1.2567e+02	-10.3313	-60.684206	0.000750	7.501144	2.541456	-0.000300
1265	1.2577e+02	-10.3585	-60.914323	0.000578	5.777908	1.957608	-0.000231
1266	1.2587e+02	-10.4034	-61.108105	0.000487	4.865607	1.648512	-0.000195
1267	1.2597e+02	-10.4420	-61.402816	0.000740	7.399777	2.507112	-0.000296
1268	1.2607e+02	-10.4788	-61.612747	0.000527	5.271074	1.785888	-0.000211
1269	1.2617e+02	-10.5222	-61.850938	0.000598	5.980642	2.026296	-0.000239
1270	1.2627e+02	-10.5607	-62.085092	0.000588	5.879275	1.991952	-0.000235
1271	1.2636e+02	-10.6024	-62.327320	0.000608	6.082009	2.060640	-0.000243
1272	1.2646e+02	-10.6425	-62.549363	0.000558	5.575175	1.888920	-0.000223
1273	1.2656e+02	-10.6730	-62.747182	0.000497	4.966974	1.682856	-0.000199
1274	1.2666e+02	-10.7195	-62.985373	0.000598	5.980642	2.026296	-0.000239
1275	1.2676e+02	-10.7580	-63.272010	0.000720	7.197044	2.438424	-0.000288
1276	1.2686e+02	-10.8077	-63.445607	0.000436	4.358773	1.476792	-0.000174
1277	1.2696e+02	-10.8334	-63.708021	0.000659	6.588843	2.232360	-0.000264
1278	1.2706e+02	-10.8767	-63.982546	0.000689	6.892943	2.335392	-0.000276
1279	1.2716e+02	-10.9280	-64.176328	0.000487	4.865607	1.648512	-0.000195
1280	1.2726e+02	-10.9505	-64.414519	0.000598	5.980642	2.026296	-0.000239
1281	1.2736e+02	-11.0002	-64.640599	0.000568	5.676542	1.923264	-0.000227
1282	1.2746e+02	-11.0484	-64.854567	0.000537	5.372441	1.820232	-0.000215
1283	1.2756e+02	-11.0836	-65.100832	0.000618	6.183376	2.094984	-0.000248
1284	1.2766e+02	-11.1286	-65.375358	0.000689	6.892943	2.335392	-0.000276
1285	1.2776e+02	-11.1671	-65.577214	0.000507	5.068341	1.717200	-0.000203
1286	1.2786e+02	-11.1927	-65.811368	0.000588	5.879275	1.991952	-0.000235
1287	1.2796e+02	-11.2473	-66.033411	0.000558	5.575175	1.888920	-0.000223
1288	1.2806e+02	-11.2745	-66.251416	0.000547	5.473808	1.854576	-0.000219
1289	1.2816e+02	-11.3163	-66.481533	0.000578	5.777908	1.957608	-0.000231
1290	1.2826e+02	-11.3660	-66.743947	0.000659	6.588843	2.232360	-0.000264
1291	1.2835e+02	-11.3997	-66.965989	0.000558	5.575175	1.888920	-0.000223
1292	1.2845e+02	-11.4446	-67.236477	0.000679	6.791577	2.301048	-0.000272
1293	1.2855e+02	-11.4863	-67.385851	0.000375	3.750572	1.270728	-0.000150
1294	1.2865e+02	-11.5104	-67.628079	0.000608	6.082009	2.060640	-0.000243
1295	1.2875e+02	-11.5569	-67.870307	0.000608	6.082009	2.060640	-0.000243
1296	1.2885e+02	-11.5954	-68.104461	0.000588	5.879275	1.991952	-0.000235
1297	1.2895e+02	-11.6387	-68.326504	0.000558	5.575175	1.888920	-0.000223
1298	1.2905e+02	-11.6804	-68.512212	0.000466	4.662873	1.579824	-0.000187
1299	1.2915e+02	-11.7189	-68.778663	0.000669	6.690210	2.266704	-0.000268
1300	1.2925e+02	-11.7606	-68.956297	0.000446	4.460140	1.511136	-0.000179
1301	1.2935e+02	-11.7911	-69.182377	0.000568	5.676542	1.923264	-0.000227
1302	1.2945e+02	-11.8408	-69.432679	0.000628	6.284742	2.129328	-0.000252
1303	1.2955e+02	-11.8809	-69.687019	0.000639	6.386109	2.163672	-0.000256
1304	1.2965e+02	-11.9178	-69.892912	0.000517	5.169708	1.751544	-0.000207
1305	1.2975e+02	-11.9563	-70.139178	0.000618	6.183376	2.094984	-0.000248
1306	1.2985e+02	-12.0045	-70.336997	0.000497	4.966974	1.682856	-0.000199
1307	1.2995e+02	-12.0366	-70.611523	0.000689	6.892943	2.335392	-0.000276
1308	1.3005e+02	-12.0799	-70.821454	0.000527	5.271074	1.785888	-0.000211
1309	1.3015e+02	-12.1136	-71.035422	0.000537	5.372441	1.820232	-0.000215
1310	1.3025e+02	-12.1601	-71.257464	0.000558	5.575175	1.888920	-0.000223
1311	1.3034e+02	-12.1922	-71.447210	0.000476	4.764240	1.614168	-0.000191
1312	1.3044e+02	-12.2339	-71.697512	0.000628	6.284742	2.129328	-0.000252
1313	1.3054e+02	-12.2772	-71.919555	0.000558	5.575175	1.888920	-0.000223
1314	1.3064e+02	-12.3205	-72.169857	0.000628	6.284742	2.129328	-0.000252
1315	1.3074e+02	-12.3526	-72.371714	0.000507	5.068341	1.717200	-0.000203
1316	1.3084e+02	-12.4023	-72.553385	0.000456	4.561507	1.545480	-0.000183
1317	1.3094e+02	-12.4360	-72.840022	0.000720	7.197044	2.438424	-0.000288
1318	1.3104e+02	-12.4761	-73.066101	0.000568	5.676542	1.923264	-0.000227
1319	1.3114e+02	-12.5066	-73.247772	0.000456	4.561507	1.545480	-0.000183
1320	1.3124e+02	-12.5563	-73.473852	0.000568	5.676542	1.923264	-0.000227
1321	1.3134e+02	-12.5964	-73.703969	0.000578	5.777908	1.957608	-0.000231
1322	1.3144e+02	-12.6365	-73.917937	0.000537	5.372441	1.820232	-0.000215
1323	1.3154e+02	-12.6734	-74.148054	0.000578	5.777908	1.957608	-0.000231
1324	1.3164e+02	-12.7119	-74.366059	0.000547	5.473808	1.854576	-0.000219
1325	1.3174e+02	-12.7585	-74.588101	0.000558	5.575175	1.888920	-0.000223
1326	1.3184e+02	-12.7986	-74.822255	0.000588	5.879275	1.991952	-0.000235
1327	1.3194e+02	-12.8339	-75.012001	0.000476	4.764240	1.614168	-0.000191
1328	1.3204e+02	-12.8756	-75.250192	0.000598	5.980642	2.026296	-0.000239
1329	1.3214e+02	-12.9109	-75.460123	0.000527	5.271074	1.785888	-0.000211
1330	1.3224e+02	-12.9510	-75.666017	0.000517	5.169708	1.751544	-0.000207
1331	1.3234e+02	-12.9847	-75.920356	0.000639	6.386109	2.163672	-0.000256
1332	1.3243e+02	-13.0392	-76.122213	0.000507	5.068341	1.717200	-0.000203
1333	1.3253e+02	-13.0713	-76.348293	0.000568	5.676542	1.923264	-0.000227
1334	1.3263e+02	-13.1178	-76.529964	0.000456	4.561507	1.545480	-0.000183
1335	1.3273e+02	-13.1499	-76.768155	0.000598	5.980642	2.026296	-0.000239
1336	1.3283e+02	-13.1948	-77.038643	0.000679	6.791577	2.301048	-0.000272
1337	1.3293e+02	-13.2365	-77.248574	0.000527	5.271074	1.785888	-0.000211
1338	1.3303e+02	-13.2718	-77.482728	0.000588	5.879275	1.991952	-0.000235
1339	1.3313e+02	-13.3151	-77.688622	0.000517	5.169708	1.751544	-0.000207
1340	1.3323e+02	-13.3456	-77.910664	0.000558	5.575175	1.888920	-0.000223
1341	1.3333e+02	-13.4002	-78.144818	0.000588	5.879275	1.991952	-0.000235
1342	1.3343e+02	-13.4354	-78.374935	0.000578	5.777908	1.957608	-0.000231
1343	1.3353e+02	-13.4772	-78.605051	0.000578	5.777908	1.957608	-0.000231
1344	1.3363e+02	-13.5125	-78.790760	0.000466	4.662873	1.579824	-0.000187
1345	1.3373e+02	-13.5574	-79.045099	0.000639	6.386109	2.163672	-0.000256
1346	1.3383e+02	-13.5927	-79.250993	0.000517	5.169708	1.751544	-0.000207
1347	1.3393e+02	-13.6215	-79.525518	0.000689	6.892943	2.335392	-0.000276
1348	1.3403e+02	-13.6697	-79.715264	0.000476	4.764240	1.614168	-0.000191
1349	1.3413e+02	-13.7130	-79.913083	0.000497	4.966974	1.682856	-0.000199
1350	1.3423e+02	-13.7435	-80.163386	0.000628	6.284742	2.129328	-0.000252
1351	1.3432e+02	-13.7932	-80.421762	0.000649	6.487476	2.198016	-0.000260
1352	1.3442e+02	-13.8285	-80.587285	0.000416	4.156039	1.408104	-0.000166
1353	1.3452e+02	-13.8718	-80.813365	0.000568	5.676542	1.923264	-0.000227
1354	1.3462e+02	-13.9103	-81.063667	0.000628	6.284742	2.129328	-0.000252
1355	1.3472e+02	-13.9552	-81.253412	0.000476	4.764240	1.614168	-0.000191
1356	1.3482e+02	-13.9969	-81.503715	0.000628	6.284742	2.129328	-0.000252
1357	1.3492e+02	-14.0338	-81.705572	0.000507	5.068341	1.717200	-0.000203
1358	1.3502e+02	-14.0739	-81.935688	0.000578	5.777908	1.957608	-0.000231
1359	1.3512e+02	-14.1156	-82.181954	0.000618	6.183376	2.094984	-0.000248
1360	1.3522e+02	-14.1525	-82.367662	0.000466	4.662873	1.579824	-0.000187
1361	1.3532e+02	-14.1894	-82.597779	0.000578	5.777908	1.957608	-0.000231
1362	1.3542e+02	-14.2263	-82.864230	0.000669	6.690210	2.266704	-0.000268
1363	1.3552e+02	-14.2761	-83.102421	0.000598	5.980642	2.026296	-0.000239
1364	1.3562e+02	-14.3098	-83.320426	0.000547	5.473808	1.854576	-0.000219
1365	1.3572e+02	-14.3418	-83.554580	0.000588	5.879275	1.991952	-0.000235
1366	1.3582e+02	-14.3916	-83.780659	0.000568	5.676542	1.923264	-0.000227
1367	1.3592e+02	-14.4237	-84.014813	0.000588	5.879275	1.991952	-0.000235
1368	1.3602e+02	-14.4686	-84.212633	0.000497	4.966974	1.682856	-0.000199
1369	1.3612e+02	-14.5135	-84.422564	0.000527	5.271074	1.785888	-0.000211
1370	1.3622e+02	-14.5456	-84.664792	0.000608	6.082009	2.060640	-0.000243
1371	1.3631e+02	-14.5761	-84.923169	0.000649	6.487476	2.198016	-0.000260
1372	1.3641e+02	-14.6242	-85.153286	0.000578	5.777908	1.957608	-0.000231
1373	1.3651e+02	-14.6675	-85.391477	0.000598	5.980642	2.026296	-0.000239
1374	1.3661e+02	-14.7188	-85.544888	0.000385	3.851939	1.305072	-0.000154
1375	1.3671e+02	-14.7429	-85.807302	0.000659	6.588843	2.232360	-0.000264
1376	1.3681e+02	-14.7878	-86.057604	0.000628	6.284742	2.129328	-0.000252
1377	1.3691e+02	-14.8295	-86.259461	0.000507	5.068341	1.717200	-0.000203
1378	1.3701e+02	-14.8600	-86.513800	0.000639	6.386109	2.163672	-0.000256
1379	1.3711e+02	-14.9033	-86.727768	0.000537	5.372441	1.820232	-0.000215
1380	1.3721e+02	-14.9402	-87.006331	0.000699	6.994310	2.369736	-0.000280
1381	1.3731e+02	-14.9867	-87.208188	0.000507	5.068341	1.717200	-0.000203
1382	1.3741e+02	-15.0268	-87.474639	0.000669	6.690210	2.266704	-0.000268
1383	1.3751e+02	-15.0734	-87.704755	0.000578	5.777908	1.957608	-0.000231
1384	1.3761e+02	-15.1071	-87.926798	0.000558	5.575175	1.888920	-0.000223
1385	1.3771e+02	-15.1456	-88.181137	0.000639	6.386109	2.163672	-0.000256
1386	1.3781e+02	-15.1857	-88.419328	0.000598	5.980642	2.026296	-0.000239
1387	1.3791e+02	-15.2322	-88.653482	0.000588	5.879275	1.991952	-0.000235
1388	1.3801e+02	-15.2579	-88.879562	0.000568	5.676542	1.923264	-0.000227
1389	1.3811e+02	-15.3092	-89.150050	0.000679	6.791577	2.301048	-0.000272
1390	1.3821e+02	-15.3493	-89.331721	0.000456	4.561507	1.545480	-0.000183
1391	1.3831e+02	-15.3814	-89.598172	0.000669	6.690210	2.266704	-0.000268
1392	1.3840e+02	-15.4279	-89.832326	0.000588	5.879275	1.991952	-0.000235
1393	1.3850e+02	-15.4680	-90.050331	0.000547	5.473808	1.854576	-0.000219
1394	1.3860e+02	-15.5033	-90.320819	0.000679	6.791577	2.301048	-0.000272
1395	1.3870e+02	-15.5530	-90.538825	0.000547	5.473808	1.854576	-0.000219
1396	1.3880e+02	-15.5883	-90.797201	0.000649	6.487476	2.198016	-0.000260
1397	1.3890e+02	-15.6172	-91.039429	0.000608	6.082009	2.060640	-0.000243
1398	1.3900e+02	-15.6637	-91.285695	0.000618	6.183376	2.094984	-0.000248
1399	1.3910e+02	-15.7038	-91.499663	0.000537	5.372441	1.820232	-0.000215
1400	1.3920e+02	-15.7375	-91.782262	0.000710	7.095677	2.404080	-0.000284
1401	1.3930e+02	-15.7905	-91.988156	0.000517	5.169708	1.751544	-0.000207
1402	1.3940e+02	-15.8177	-92.262682	0.000689	6.892943	2.335392	-0.000276
1403	1.3950e+02	-15.8675	-92.569504	0.000770	7.703878	2.610144	-0.000308
1404	1.3960e+02	-15.9060	-92.771361	0.000507	5.068341	1.717200	-0.000203
1405	1.3970e+02	-15.9445	-93.001477	0.000578	5.777908	1.957608	-0.000231
1406	1.3980e+02	-15.9750	-93.280040	0.000699	6.994310	2.369736	-0.000280
1407	1.3990e+02	-16.0167	-93.489971	0.000527	5.271074	1.785888	-0.000211
1408	1.4000e+02	-16.0744	-93.732199	0.000608	6.082009	2.060640	-0.000243
1409	1.4010e+02	-16.1065	-94.006724	0.000689	6.892943	2.335392	-0.000276
1410	1.4020e+02	-16.1386	-94.240878	0.000588	5.879275	1.991952	-0.000235
1411	1.4029e+02	-16.1739	-94.466958	0.000568	5.676542	1.923264	-0.000227
1412	1.4039e+02	-16.2204	-94.713223	0.000618	6.183376	2.094984	-0.000248
1413	1.4049e+02	-16.2637	-94.991785	0.000699	6.994310	2.369736	-0.000280
1414	1.4059e+02	-16.3102	-95.234013	0.000608	6.082009	2.060640	-0.000243
1415	1.4069e+02	-16.3439	-95.500464	0.000669	6.690210	2.266704	-0.000268
1416	1.4079e+02	-16.3856	-95.754804	0.000639	6.386109	2.163672	-0.000256
1417	1.4089e+02	-16.4177	-96.033366	0.000699	6.994310	2.369736	-0.000280
1418	1.4099e+02	-16.4610	-96.311929	0.000699	6.994310	2.369736	-0.000280
1419	1.4109e+02	-16.5011	-96.449191	0.000345	3.446472	1.167696	-0.000138
1420	1.4119e+02	-16.5428	-96.760051	0.000781	7.805245	2.644488	-0.000312
1421	1.4129e+02	-16.5701	-96.978056	0.000547	5.473808	1.854576	-0.000219
1422	1.4139e+02	-16.6199	-97.256618	0.000699	6.994310	2.369736	-0.000280
1423	1.4149e+02	-16.6600	-97.506921	0.000628	6.284742	2.129328	-0.000252
1424	1.4159e+02	-16.7017	-97.801632	0.000740	7.399777	2.507112	-0.000296
1425	1.4169e+02	-16.7354	-98.023674	0.000558	5.575175	1.888920	-0.000223
1426	1.4179e+02	-16.7803	-98.286088	0.000659	6.588843	2.232360	-0.000264
1427	1.4189e+02	-16.8172	-98.560613	0.000689	6.892943	2.335392	-0.000276
1428	1.4199e+02	-16.8621	-98.778619	0.000547	5.473808	1.854576	-0.000219
1429	1.4209e+02	-16.9054	-99.041032	0.000659	6.588843	2.232360	-0.000264
1430	1.4219e+02	-16.9279	-99.331706	0.000730	7.298411	2.472768	-0.000292
1431	1.4228e+02	-16.9760	-99.614306	0.000710	7.095677	2.404080	-0.000284
1432	1.4238e+02	-17.0289	-99.868645	0.000639	6.386109	2.163672	-0.000256
1433	1.4248e+02	-17.0562	-100.139133	0.000679	6.791577	2.301048	-0.000272
1434	1.4258e+02	-17.0995	-100.361176	0.000558	5.575175	1.888920	-0.000223
1435	1.4268e+02	-17.1380	-100.627627	0.000669	6.690210	2.266704	-0.000268
1436	1.4278e+02	-17.1781	-100.910226	0.000710	7.095677	2.404080	-0.000284
1437	1.4288e+02	-17.2182	-101.192826	0.000710	7.095677	2.404080	-0.000284
1438	1.4298e+02	-17.2567	-101.439091	0.000618	6.183376	2.094984	-0.000248
1439	1.4308e+02	-17.3065	-101.685356	0.000618	6.183376	2.094984	-0.000248
1440	1.4318e+02	-17.3385	-102.032550	0.000872	8.717546	2.953585	-0.000349
1441	1.4328e+02	-17.3803	-102.230370	0.000497	4.966974	1.682856	-0.000199
1442	1.4338e+02	-17.4236	-102.549303	0.000801	8.007978	2.713177	-0.000321
1443	1.4348e+02	-17.4605	-102.811717	0.000659	6.588843	2.232360	-0.000264
1444	1.4358e+02	-17.5006	-103.074131	0.000659	6.588843	2.232360	-0.000264
1445	1.4368e+02	-17.5375	-103.316359	0.000608	6.082009	2.060640	-0.000243
1446	1.4378e+02	-17.5792	-103.602996	0.000720	7.197044	2.438424	-0.000288
1447	1.4388e+02	-17.6225	-103.913855	0.000781	7.805245	2.644488	-0.000312
1448	1.4398e+02	-17.6530	-104.200492	0.000720	7.197044	2.438424	-0.000288
1449	1.4408e+02	-17.6979	-104.466943	0.000669	6.690210	2.266704	-0.000268
1450	1.4418e+02	-17.7332	-104.717245	0.000628	6.284742	2.129328	-0.000252
1451	1.4428e+02	-17.7829	-105.007919	0.000730	7.298411	2.472768	-0.000292
1452	1.4437e+02	-17.8246	-105.302630	0.000740	7.399777	2.507112	-0.000296
1453	1.4447e+02	-17.8663	-105.520635	0.000547	5.473808	1.854576	-0.000219
1454	1.4457e+02	-17.9016	-105.835532	0.000791	7.906612	2.678832	-0.000316
1455	1.4467e+02	-17.9321	-106.114094	0.000699	6.994310	2.369736	-0.000280
1456	1.4477e+02	-17.9770	-106.437065	0.000811	8.109345	2.747521	-0.000325
1457	1.4487e+02	-18.0139	-106.711590	0.000689	6.892943	2.335392	-0.000276
1458	1.4497e+02	-18.0524	-106.990153	0.000699	6.994310	2.369736	-0.000280
1459	1.4507e+02	-18.0909	-107.321198	0.000831	8.312079	2.816209	-0.000333
1460	1.4517e+02	-18.1326	-107.510943	0.000476	4.764240	1.614168	-0.000191
1461	1.4527e+02	-18.1776	-107.850063	0.000851	8.514812	2.884897	-0.000341
1462	1.4537e+02	-18.2145	-108.144774	0.000740	7.399777	2.507112	-0.000296
1463	1.4547e+02	-18.2594	-108.403150	0.000649	6.487476	2.198016	-0.000260
1464	1.4557e+02	-18.2995	-108.693824	0.000730	7.298411	2.472768	-0.000292
1465	1.4567e+02	-18.3284	-109.032943	0.000851	8.514812	2.884897	-0.000341
1466	1.4577e+02	-18.3845	-109.303432	0.000679	6.791577	2.301048	-0.000272
1467	1.4587e+02	-18.4166	-109.606217	0.000760	7.602511	2.575800	-0.000304
1468	1.4597e+02	-18.4567	-109.945336	0.000851	8.514812	2.884897	-0.000341
1469	1.4607e+02	-18.4872	-110.219861	0.000689	6.892943	2.335392	-0.000276
1470	1.4617e+02	-18.5337	-110.478238	0.000649	6.487476	2.198016	-0.000260
1471	1.4626e+02	-18.5786	-110.797172	0.000801	8.007978	2.713177	-0.000321
1472	1.4636e+02	-18.6171	-111.091883	0.000740	7.399777	2.507112	-0.000296
1473	1.4646e+02	-18.6524	-111.402742	0.000781	7.805245	2.644488	-0.000312
1474	1.4656e+02	-18.6989	-111.701490	0.000750	7.501144	2.541456	-0.000300
1475	1.4666e+02	-18.7262	-112.000238	0.000750	7.501144	2.541456	-0.000300
1476	1.4676e+02	-18.7679	-112.303023	0.000760	7.602511	2.575800	-0.000304
1477	1.4686e+02	-18.8193	-112.621957	0.000801	8.007978	2.713177	-0.000321
1478	1.4696e+02	-18.8513	-112.876297	0.000639	6.386109	2.163672	-0.000256
1479	1.4706e+02	-18.8882	-113.231565	0.000892	8.920280	3.022273	-0.000357
1480	1.4716e+02	-18.9332	-113.506090	0.000689	6.892943	2.335392	-0.000276
1481	1.4726e+02	-18.9765	-113.849246	0.000862	8.616179	2.919241	-0.000345
1482	1.4736e+02	-19.0118	-114.164143	0.000791	7.906612	2.678832	-0.000316
1483	1.4746e+02	-19.0583	-114.479040	0.000791	7.906612	2.678832	-0.000316
1484	1.4756e+02	-19.0952	-114.781825	0.000760	7.602511	2.575800	-0.000304
1485	1.4766e+02	-19.1353	-115.104796	0.000811	8.109345	2.747521	-0.000325
1486	1.4776e+02	-19.1674	-115.447952	0.000862	8.616179	2.919241	-0.000345
1487	1.4786e+02	-19.2139	-115.730552	0.000710	7.095677	2.404080	-0.000284
1488	1.4796e+02	-19.2508	-116.089857	0.000902	9.021646	3.056617	-0.000361
1489	1.4806e+02	-19.2845	-116.388605	0.000750	7.501144	2.541456	-0.000300
1490	1.4816e+02	-19.3294	-116.691390	0.000760	7.602511	2.575800	-0.000304
1491	1.4825e+02	-19.3695	-117.022435	0.000831	8.312079	2.816209	-0.000333
1492	1.4835e+02	-19.4064	-117.385777	0.000912	9.123013	3.090961	-0.000365
1493	1.4845e+02	-19.4593	-117.644154	0.000649	6.487476	2.198016	-0.000260
1494	1.4855e+02	-19.4866	-118.015570	0.000933	9.325747	3.159649	-0.000373
1495	1.4865e+02	-19.5219	-118.338541	0.000811	8.109345	2.747521	-0.000325
1496	1.4875e+02	-19.5684	-118.665549	0.000821	8.210712	2.781865	-0.000329
1497	1.4885e+02	-19.6085	-119.016780	0.000882	8.818913	2.987929	-0.000353
1498	1.4895e+02	-19.6535	-119.343788	0.000821	8.210712	2.781865	-0.000329
1499	1.4905e+02	-19.6839	-119.670796	0.000821	8.210712	2.781865	-0.000329
1500	1.4915e+02	-19.7256	-120.017990	0.000872	8.717546	2.953585	-0.000349
1501	1.4925e+02	-19.7609	-120.357109	0.000851	8.514812	2.884897	-0.000341
1502	1.4935e+02	-19.8091	-120.700266	0.000862	8.616179	2.919241	-0.000345
1503	1.4945e+02	-19.8476	-121.039385	0.000851	8.514812	2.884897	-0.000341
1504	1.4955e+02	-19.8861	-121.418876	0.000953	9.528481	3.228337	-0.000381
1505	1.4965e+02	-19.9294	-121.749921	0.000831	8.312079	2.816209	-0.000333
1506	1.4975e+02	-19.9679	-122.105189	0.000892	8.920280	3.022273	-0.000357
1507	1.4985e+02	-20.0080	-122.452383	0.000872	8.717546	2.953585	-0.000349
1508	1.4995e+02	-19.9631	-122.472568	-0.000051	-0.506834	-0.171720	-0.000020
1509	1.5005e+02	-19.9358	-122.525051	-0.000132	-1.317769	-0.446472	-0.000053
1510	1.5015e+02	-19.8780	-122.512940	0.000030	0.304100	0.103032	0.000012
1511	1.5025e+02	-19.8331	-122.581571	-0.000172	-1.723236	-0.583848	-0.000069
1512	1.5034e+02	-19.8059	-122.516977	0.000162	1.621869	0.549504	0.000065
1513	1.5044e+02	-19.7641	-122.512940	0.000010	0.101367	0.034344	0.000004
1514	1.5054e+02	-19.7305	-122.460457	0.000132	1.317769	0.446472	0.000053
1515	1.5064e+02	-19.6936	-122.456420	0.000010	0.101367	0.034344	0.000004
1516	1.5074e+02	-19.6454	-122.420086	0.000091	0.912301	0.309096	0.000037
1517	1.5084e+02	-19.6134	-122.383751	0.000091	0.912301	0.309096	0.000037
1518	1.5094e+02	-19.5668	-122.331269	0.000132	1.317769	0.446472	0.000053
1519	1.5104e+02	-19.5267	-122.278786	0.000132	1.317769	0.446472	0.000053
1520	1.5114e+02	-19.4834	-122.218229	0.000152	1.520502	0.515160	0.000061
1521	1.5124e+02	-19.4465	-122.153635	0.000162	1.621869	0.549504	0.000065
1522	1.5134e+02	-19.4112	-122.060780	0.000233	2.331437	0.789912	0.000093
1523	1.5144e+02	-19.3647	-122.000223	0.000152	1.520502	0.515160	0.000061
1524	1.5154e+02	-19.3294	-121.911406	0.000223	2.230070	0.755568	0.000089
1525	1.5164e+02	-19.2973	-121.858924	0.000132	1.317769	0.446472	0.000053
1526	1.5174e+02	-19.2524	-121.774144	0.000213	2.128703	0.721224	0.000085
1527	1.5184e+02	-19.2171	-121.709550	0.000162	1.621869	0.549504	0.000065
1528	1.5194e+02	-19.1626	-121.584398	0.000314	3.142371	1.064664	0.000126
1529	1.5204e+02	-19.1273	-121.519804	0.000162	1.621869	0.549504	0.000065
1530	1.5214e+02	-19.0920	-121.414839	0.000264	2.635537	0.892944	0.000105
1531	1.5224e+02	-19.0535	-121.326022	0.000223	2.230070	0.755568	0.000089
1532	1.5233e+02	-19.0166	-121.225093	0.000253	2.534170	0.858600	0.000101
1533	1.5243e+02	-18.9829	-121.083794	0.000355	3.547838	1.202040	0.000142
1534	1.5253e+02	-18.9348	-121.007088	0.000193	1.925969	0.652536	0.000077
1535	1.5263e+02	-18.8850	-120.906160	0.000253	2.534170	0.858600	0.000101
1536	1.5273e+02	-18.8545	-120.740637	0.000416	4.156039	1.408104	0.000166
1537	1.5283e+02	-18.8112	-120.672006	0.000172	1.723236	0.583848	0.000069
1538	1.5293e+02	-18.7727	-120.542817	0.000324	3.243738	1.099008	0.000130
1539	1.5303e+02	-18.7374	-120.498409	0.000112	1.115035	0.377784	0.000045
1540	1.5313e+02	-18.6925	-120.369221	0.000324	3.243738	1.099008	0.000130
1541	1.5323e+02	-18.6556	-120.256181	0.000284	2.838271	0.961632	0.000114
1542	1.5333e+02	-18.6011	-120.114881	0.000355	3.547838	1.202040	0.000142
1543	1.5343e+02	-18.5754	-120.026064	0.000223	2.230070	0.755568	0.000089
1544	1.5353e+02	-18.5369	-119.868616	0.000395	3.953306	1.339416	0.000158
1545	1.5363e+02	-18.4872	-119.767687	0.000253	2.534170	0.858600	0.000101
1546	1.5373e+02	-18.4503	-119.618313	0.000375	3.750572	1.270728	0.000150
1547	1.5383e+02	-18.4150	-119.505274	0.000284	2.838271	0.961632	0.000114
1548	1.5393e+02	-18.3717	-119.408382	0.000243	2.432804	0.824256	0.000097
1549	1.5403e+02	-18.3316	-119.319565	0.000223	2.230070	0.755568	0.000089
1550	1.5413e+02	-18.3011	-119.162117	0.000395	3.953306	1.339416	0.000158
1551	1.5422e+02	-18.2465	-119.036966	0.000314	3.142371	1.064664	0.000126
1552	1.5432e+02	-18.2145	-118.887592	0.000375	3.750572	1.270728	0.000150
1553	1.5442e+02	-18.1744	-118.738218	0.000375	3.750572	1.270728	0.000150
1554	1.5452e+02	-18.1278	-118.685735	0.000132	1.317769	0.446472	0.000053
1555	1.5462e+02	-18.0941	-118.491952	0.000487	4.865607	1.648512	0.000195
1556	1.5472e+02	-18.0556	-118.358727	0.000335	3.345105	1.133352	0.000134
1557	1.5482e+02	-18.0091	-118.253761	0.000264	2.635537	0.892944	0.000105
1558	1.5492e+02	-17.9674	-118.116499	0.000345	3.446472	1.167696	0.000138
1559	1.5502e+02	-17.9401	-117.975199	0.000355	3.547838	1.202040	0.000142
1560	1.5512e+02	-17.9000	-117.793528	0.000456	4.561507	1.545480	0.000183
1561	1.5522e+02	-17.8615	-117.777379	0.000041	0.405467	0.137376	0.000016
1562	1.5532e+02	-17.8182	-117.567448	0.000527	5.271074	1.785888	0.000211
1563	1.5542e+02	-17.7797	-117.438260	0.000324	3.243738	1.099008	0.000130
1564	1.5552e+02	-17.7412	-117.349443	0.000223	2.230070	0.755568	0.000089
1565	1.5562e+02	-17.7027	-117.183921	0.000416	4.156039	1.408104	0.000166
1566	1.5572e+02	-17.6546	-117.042621	0.000355	3.547838	1.202040	0.000142
1567	1.5582e+02	-17.6193	-116.881135	0.000405	4.054673	1.373760	0.000162
1568	1.5592e+02	-17.5712	-116.808467	0.000182	1.824603	0.618192	0.000073
1569	1.5602e+02	-17.5391	-116.638907	0.000426	4.257406	1.442448	0.000170
1570	1.5612e+02	-17.4990	-116.513756	0.000314	3.142371	1.064664	0.000126
1571	1.5622e+02	-17.4573	-116.368419	0.000365	3.649205	1.236384	0.000146
1572	1.5631e+02	-17.4123	-116.206934	0.000405	4.054673	1.373760	0.000162
1573	1.5641e+02	-17.3787	-116.069671	0.000345	3.446472	1.167696	0.000138
1574	1.5651e+02	-17.3369	-115.960668	0.000274	2.736904	0.927288	0.000110
1575	1.5661e+02	-17.3033	-115.799183	0.000405	4.054673	1.373760	0.000162
1576	1.5671e+02	-17.2712	-115.633660	0.000416	4.156039	1.408104	0.000166
1577	1.5681e+02	-17.2246	-115.500435	0.000335	3.345105	1.133352	0.000134
1578	1.5691e+02	-17.1749	-115.379321	0.000304	3.041004	1.030320	0.000122
1579	1.5701e+02	-17.1444	-115.181501	0.000497	4.966974	1.682856	0.000199
1580	1.5711e+02	-17.1011	-115.108833	0.000182	1.824603	0.618192	0.000073
1581	1.5721e+02	-17.0626	-114.951384	0.000395	3.953306	1.339416	0.000158
1582	1.5731e+02	-17.0225	-114.765676	0.000466	4.662873	1.579824	0.000187
1583	1.5741e+02	-16.9792	-114.656674	0.000274	2.736904	0.927288	0.000110
1584	1.5751e+02	-16.9343	-114.434631	0.000558	5.575175	1.888920	0.000223
1585	1.5761e+02	-16.8990	-114.345814	0.000223	2.230070	0.755568	0.000089
1586	1.5771e+02	-16.8605	-114.164143	0.000456	4.561507	1.545480	0.000183
1587	1.5781e+02	-16.8236	-114.043029	0.000304	3.041004	1.030320	0.000122
1588	1.5791e+02	-16.7803	-113.861358	0.000456	4.561507	1.545480	0.000183
1589	1.5801e+02	-16.7354	-113.740244	0.000304	3.041004	1.030320	0.000122
1590	1.5811e+02	-16.6920	-113.554535	0.000466	4.662873	1.579824	0.000187
1591	1.5821e+02	-16.6567	-113.441496	0.000284	2.838271	0.961632	0.000114
1592	1.5830e+02	-16.6199	-113.271936	0.000426	4.257406	1.442448	0.000170
1593	1.5840e+02	-16.5765	-113.118525	0.000385	3.851939	1.305072	0.000154
1594	1.5850e+02	-16.5364	-112.973188	0.000365	3.649205	1.236384	0.000146
1595	1.5860e+02	-16.5060	-112.795554	0.000446	4.460140	1.511136	0.000179
1596	1.5870e+02	-16.4674	-112.650217	0.000365	3.649205	1.236384	0.000146
1597	1.5880e+02	-16.4177	-112.529103	0.000304	3.041004	1.030320	0.000122
1598	1.5890e+02	-16.3792	-112.351469	0.000446	4.460140	1.511136	0.000179
1599	1.5900e+02	-16.3343	-112.161724	0.000476	4.764240	1.614168	0.000191
1600	1.5910e+02	-16.2958	-111.992164	0.000426	4.257406	1.442448	0.000170
1601	1.5920e+02	-16.2621	-111.891236	0.000253	2.534170	0.858600	0.000101
1602	1.5930e+02	-16.2220	-111.729750	0.000405	4.054673	1.373760	0.000162
1603	1.5940e+02	-16.1787	-111.556153	0.000436	4.358773	1.476792	0.000174
1604	1.5950e+02	-16.1434	-111.394668	0.000405	4.054673	1.373760	0.000162
1605	1.5960e+02	-16.0985	-111.265480	0.000324	3.243738	1.099008	0.000130
1606	1.5970e+02	-16.0568	-111.095920	0.000426	4.257406	1.442448	0.000170
1607	1.5980e+02	-16.0231	-110.938472	0.000395	3.953306	1.339416	0.000158
1608	1.5990e+02	-15.9862	-110.781023	0.000395	3.953306	1.339416	0.000158
1609	1.6000e+02	-15.9413	-110.615501	0.000416	4.156039	1.408104	0.000166
1610	1.6010e+02	-15.9076	-110.466127	0.000375	3.750572	1.270728	0.000150
1611	1.6019e+02	-15.8643	-110.280418	0.000466	4.662873	1.579824	0.000187
1612	1.6029e+02	-15.8258	-110.135082	0.000365	3.649205	1.236384	0.000146
1613	1.6039e+02	-15.7824	-109.965522	0.000426	4.257406	1.442448	0.000170
1614	1.6049e+02	-15.7455	-109.787888	0.000446	4.460140	1.511136	0.000179
1615	1.6059e+02	-15.6958	-109.666774	0.000304	3.041004	1.030320	0.000122
1616	1.6069e+02	-15.6589	-109.481066	0.000466	4.662873	1.579824	0.000187
1617	1.6079e+02	-15.6236	-109.327654	0.000385	3.851939	1.305072	0.000154
1618	1.6089e+02	-15.5771	-109.150020	0.000446	4.460140	1.511136	0.000179
1619	1.6099e+02	-15.5402	-109.016795	0.000335	3.345105	1.133352	0.000134
1620	1.6109e+02	-15.4985	-108.859347	0.000395	3.953306	1.339416	0.000158
1621	1.6119e+02	-15.4616	-108.661527	0.000497	4.966974	1.682856	0.000199
1622	1.6129e+02	-15.4295	-108.528301	0.000335	3.345105	1.133352	0.000134
1623	1.6139e+02	-15.3894	-108.342593	0.000466	4.662873	1.579824	0.000187
1624	1.6149e+02	-15.3477	-108.185145	0.000395	3.953306	1.339416	0.000158
1625	1.6159e+02	-15.3108	-108.064031	0.000304	3.041004	1.030320	0.000122
1626	1.6169e+02	-15.2627	-107.866211	0.000497	4.966974	1.682856	0.000199
1627	1.6179e+02	-15.2226	-107.680503	0.000466	4.662873	1.579824	0.000187
1628	1.6189e+02	-15.1889	-107.514980	0.000416	4.156039	1.408104	0.000166
1629	1.6199e+02	-15.1440	-107.365606	0.000375	3.750572	1.270728	0.000150
1630	1.6209e+02	-15.1039	-107.175861	0.000476	4.764240	1.614168	0.000191
1631	1.6219e+02	-15.0621	-107.018413	0.000395	3.953306	1.339416	0.000158
1632	1.6228e+02	-15.0188	-106.848853	0.000426	4.257406	1.442448	0.000170
1633	1.6238e+02	-14.9867	-106.655070	0.000487	4.865607	1.648512	0.000195
1634	1.6248e+02	-14.9450	-106.574328	0.000203	2.027336	0.686880	0.000081
1635	1.6258e+02	-14.9049	-106.319988	0.000639	6.386109	2.163672	0.000256
1636	1.6268e+02	-14.8616	-106.178688	0.000355	3.547838	1.202040	0.000142
1637	1.6278e+02	-14.8295	-105.980869	0.000497	4.966974	1.682856	0.000199
1638	1.6288e+02	-14.7846	-105.831495	0.000375	3.750572	1.270728	0.000150
1639	1.6298e+02	-14.7413	-105.661935	0.000426	4.257406	1.442448	0.000170
1640	1.6308e+02	-14.7124	-105.504487	0.000395	3.953306	1.339416	0.000158
1641	1.6318e+02	-14.6563	-105.306667	0.000497	4.966974	1.682856	0.000199
1642	1.6328e+02	-14.6354	-105.189590	0.000294	2.939638	0.995976	0.000118
1643	1.6338e+02	-14.5825	-104.991771	0.000497	4.966974	1.682856	0.000199
1644	1.6348e+02	-14.5472	-104.797988	0.000487	4.865607	1.648512	0.000195
1645	1.6358e+02	-14.5119	-104.616317	0.000456	4.561507	1.545480	0.000183
1646	1.6368e+02	-14.4718	-104.414460	0.000507	5.068341	1.717200	0.000203
1647	1.6378e+02	-14.4397	-104.257012	0.000395	3.953306	1.339416	0.000158
1648	1.6388e+02	-14.3852	-104.083415	0.000436	4.358773	1.476792	0.000174
1649	1.6398e+02	-14.3563	-103.897707	0.000466	4.662873	1.579824	0.000187
1650	1.6408e+02	-14.3049	-103.691813	0.000517	5.169708	1.751544	0.000207
1651	1.6418e+02	-14.2729	-103.566662	0.000314	3.142371	1.064664	0.000126
1652	1.6427e+02	-14.2279	-103.368842	0.000497	4.966974	1.682856	0.000199
1653	1.6437e+02	-14.1846	-103.171022	0.000497	4.966974	1.682856	0.000199
1654	1.6447e+02	-14.1541	-103.037797	0.000335	3.345105	1.133352	0.000134
1655	1.6457e+02	-14.1124	-102.852089	0.000466	4.662873	1.579824	0.000187
1656	1.6467e+02	-14.0755	-102.686566	0.000416	4.156039	1.408104	0.000166
1657	1.6477e+02	-14.0242	-102.472598	0.000537	5.372441	1.820232	0.000215
1658	1.6487e+02	-13.9841	-102.307075	0.000416	4.156039	1.408104	0.000166
1659	1.6497e+02	-13.9520	-102.121367	0.000466	4.662873	1.579824	0.000187
1660	1.6507e+02	-13.9135	-101.907399	0.000537	5.372441	1.820232	0.000215
1661	1.6517e+02	-13.8718	-101.758025	0.000375	3.750572	1.270728	0.000150
1662	1.6527e+02	-13.8349	-101.596539	0.000405	4.054673	1.373760	0.000162
1663	1.6537e+02	-13.7852	-101.382571	0.000537	5.372441	1.820232	0.000215
1664	1.6547e+02	-13.7467	-101.225123	0.000395	3.953306	1.339416	0.000158
1665	1.6557e+02	-13.7082	-101.023266	0.000507	5.068341	1.717200	0.000203
1666	1.6567e+02	-13.6809	-100.849669	0.000436	4.358773	1.476792	0.000174
1667	1.6577e+02	-13.6280	-100.688184	0.000405	4.054673	1.373760	0.000162
1668	1.6587e+02	-13.5959	-100.458067	0.000578	5.777908	1.957608	0.000231
1669	1.6597e+02	-13.5558	-100.324842	0.000335	3.345105	1.133352	0.000134
1670	1.6607e+02	-13.5108	-100.151245	0.000436	4.358773	1.476792	0.000174
1671	1.6616e+02	-13.4740	-100.022056	0.000324	3.243738	1.099008	0.000130
1672	1.6626e+02	-13.4354	-99.759643	0.000659	6.588843	2.232360	0.000264
1673	1.6636e+02	-13.3937	-99.630454	0.000324	3.243738	1.099008	0.000130
1674	1.6646e+02	-13.3568	-99.428598	0.000507	5.068341	1.717200	0.000203
1675	1.6656e+02	-13.3215	-99.255001	0.000436	4.358773	1.476792	0.000174
1676	1.6666e+02	-13.2638	-99.069292	0.000466	4.662873	1.579824	0.000187
1677	1.6676e+02	-13.2317	-98.883584	0.000466	4.662873	1.579824	0.000187
1678	1.6686e+02	-13.1932	-98.649430	0.000588	5.879275	1.991952	0.000235
1679	1.6696e+02	-13.1579	-98.496019	0.000385	3.851939	1.305072	0.000154
1680	1.6706e+02	-13.1146	-98.346645	0.000375	3.750572	1.270728	0.000150
1681	1.6716e+02	-13.0697	-98.116528	0.000578	5.777908	1.957608	0.000231
1682	1.6726e+02	-13.0312	-97.967154	0.000375	3.750572	1.270728	0.000150
1683	1.6736e+02	-12.9991	-97.733001	0.000588	5.879275	1.991952	0.000235
1684	1.6746e+02	-12.9638	-97.555367	0.000446	4.460140	1.511136	0.000179
1685	1.6756e+02	-12.9093	-97.365621	0.000476	4.764240	1.614168	0.000191
1686	1.6766e+02	-12.8772	-97.179913	0.000466	4.662873	1.579824	0.000187
1687	1.6776e+02	-12.8274	-97.014390	0.000416	4.156039	1.408104	0.000166
1688	1.6786e+02	-12.7922	-96.860979	0.000385	3.851939	1.305072	0.000154
1689	1.6796e+02	-12.7569	-96.655085	0.000517	5.169708	1.751544	0.000207
1690	1.6806e+02	-12.7200	-96.465340	0.000476	4.764240	1.614168	0.000191
1691	1.6816e+02	-12.6783	-96.255409	0.000527	5.271074	1.785888	0.000211
1692	1.6825e+02	-12.6365	-96.057589	0.000497	4.966974	1.682856	0.000199
1693	1.6835e+02	-12.5964	-95.883992	0.000436	4.358773	1.476792	0.000174
1694	1.6845e+02	-12.5644	-95.714433	0.000426	4.257406	1.442448	0.000170
1695	1.6855e+02	-12.5130	-95.500464	0.000537	5.372441	1.820232	0.000215
1696	1.6865e+02	-12.4793	-95.310719	0.000476	4.764240	1.614168	0.000191
1697	1.6875e+02	-12.4376	-95.133085	0.000446	4.460140	1.511136	0.000179
1698	1.6885e+02	-12.3991	-94.939303	0.000487	4.865607	1.648512	0.000195
1699	1.6895e+02	-12.3622	-94.761669	0.000446	4.460140	1.511136	0.000179
1700	1.6905e+02	-12.3157	-94.523478	0.000598	5.980642	2.026296	0.000239
1701	1.6915e+02	-12.2788	-94.374104	0.000375	3.750572	1.270728	0.000150
1702	1.6925e+02	-12.2387	-94.180321	0.000487	4.865607	1.648512	0.000195
1703	1.6935e+02	-12.1954	-93.994613	0.000466	4.662873	1.579824	0.000187
1704	1.6945e+02	-12.1537	-93.776607	0.000547	5.473808	1.854576	0.000219
1705	1.6955e+02	-12.1152	-93.574751	0.000507	5.068341	1.717200	0.000203
1706	1.6965e+02	-12.0847	-93.417302	0.000395	3.953306	1.339416	0.000158
1707	1.6975e+02	-12.0301	-93.211408	0.000517	5.169708	1.751544	0.000207
1708	1.6985e+02	-11.9965	-93.021663	0.000476	4.764240	1.614168	0.000191
1709	1.6995e+02	-11.9628	-92.852103	0.000426	4.257406	1.442448	0.000170
1710	1.7005e+02	-11.9259	-92.630061	0.000558	5.575175	1.888920	0.000223
1711	1.7015e+02	-11.8874	-92.464538	0.000416	4.156039	1.408104	0.000166
1712	1.7024e+02	-11.8505	-92.278830	0.000466	4.662873	1.579824	0.000187
1713	1.7034e+02	-11.7991	-92.060825	0.000547	5.473808	1.854576	0.000219
1714	1.7044e+02	-11.7574	-91.895302	0.000416	4.156039	1.408104	0.000166
1715	1.7054e+02	-11.7253	-91.653074	0.000608	6.082009	2.060640	0.000243
1716	1.7064e+02	-11.6852	-91.463329	0.000476	4.764240	1.614168	0.000191
1717	1.7074e+02	-11.6371	-91.289732	0.000436	4.358773	1.476792	0.000174
1718	1.7084e+02	-11.5954	-91.108061	0.000456	4.561507	1.545480	0.000183
1719	1.7094e+02	-11.5553	-90.877944	0.000578	5.777908	1.957608	0.000231
1720	1.7104e+02	-11.5200	-90.708384	0.000426	4.257406	1.442448	0.000170
1721	1.7114e+02	-11.4767	-90.502490	0.000517	5.169708	1.751544	0.000207
1722	1.7124e+02	-11.4414	-90.312745	0.000476	4.764240	1.614168	0.000191
1723	1.7134e+02	-11.3965	-90.131074	0.000456	4.561507	1.545480	0.000183
1724	1.7144e+02	-11.3628	-89.929217	0.000507	5.068341	1.717200	0.000203
1725	1.7154e+02	-11.3275	-89.755620	0.000436	4.358773	1.476792	0.000174
1726	1.7164e+02	-11.2810	-89.549726	0.000517	5.169708	1.751544	0.000207
1727	1.7174e+02	-11.2473	-89.355944	0.000487	4.865607	1.648512	0.000195
1728	1.7184e+02	-11.2024	-89.178310	0.000446	4.460140	1.511136	0.000179
1729	1.7194e+02	-11.1687	-88.956267	0.000558	5.575175	1.888920	0.000223
1730	1.7204e+02	-11.1286	-88.734225	0.000558	5.575175	1.888920	0.000223
1731	1.7213e+02	-11.0836	-88.600999	0.000335	3.345105	1.133352	0.000134
1732	1.7223e+02	-11.0371	-88.382994	0.000547	5.473808	1.854576	0.000219
1733	1.7233e+02	-11.0018	-88.205360	0.000446	4.460140	1.511136	0.000179
1734	1.7243e+02	-10.9617	-87.975243	0.000578	5.777908	1.957608	0.000231
1735	1.7253e+02	-10.9248	-87.793572	0.000456	4.561507	1.545480	0.000183
1736	1.7263e+02	-10.8799	-87.619975	0.000436	4.358773	1.476792	0.000174
1737	1.7273e+02	-10.8446	-87.406007	0.000537	5.372441	1.820232	0.000215
1738	1.7283e+02	-10.8029	-87.188002	0.000547	5.473808	1.854576	0.000219
1739	1.7293e+02	-10.7644	-87.006331	0.000456	4.561507	1.545480	0.000183
1740	1.7303e+02	-10.7275	-86.792363	0.000537	5.372441	1.820232	0.000215
1741	1.7313e+02	-10.6810	-86.630877	0.000405	4.054673	1.373760	0.000162
1742	1.7323e+02	-10.6441	-86.445169	0.000466	4.662873	1.579824	0.000187
1743	1.7333e+02	-10.6040	-86.215052	0.000578	5.777908	1.957608	0.000231
1744	1.7343e+02	-10.5687	-86.017233	0.000497	4.966974	1.682856	0.000199
1745	1.7353e+02	-10.5270	-85.819413	0.000497	4.966974	1.682856	0.000199
1746	1.7363e+02	-10.4885	-85.629668	0.000476	4.764240	1.614168	0.000191
1747	1.7373e+02	-10.4420	-85.447996	0.000456	4.561507	1.545480	0.000183
1748	1.7383e+02	-10.4115	-85.193657	0.000639	6.386109	2.163672	0.000256
1749	1.7393e+02	-10.3666	-84.987763	0.000517	5.169708	1.751544	0.000207
1750	1.7403e+02	-10.3281	-84.810129	0.000446	4.460140	1.511136	0.000179
1751	1.7413e+02	-10.2863	-84.632495	0.000446	4.460140	1.511136	0.000179
1752	1.7422e+02	-10.2446	-84.362007	0.000679	6.791577	2.301048	0.000272
1753	1.7432e+02	-10.1997	-84.168224	0.000487	4.865607	1.648512	0.000195
1754	1.7442e+02	-10.1612	-84.026925	0.000355	3.547838	1.202040	0.000142
1755	1.7452e+02	-10.1355	-83.821031	0.000517	5.169708	1.751544	0.000207
1756	1.7462e+02	-10.0762	-83.546506	0.000689	6.892943	2.335392	0.000276
1757	1.7472e+02	-10.0441	-83.401169	0.000365	3.649205	1.236384	0.000146
1758	1.7482e+02	-10.0040	-83.191238	0.000527	5.271074	1.785888	0.000211
1759	1.7492e+02	-9.9623	-82.977269	0.000537	5.372441	1.820232	0.000215
1760	1.7502e+02	-9.9302	-82.771375	0.000517	5.169708	1.751544	0.000207
1761	1.7512e+02	-9.8837	-82.557407	0.000537	5.372441	1.820232	0.000215
1762	1.7522e+02	-9.8500	-82.331328	0.000568	5.676542	1.923264	0.000227
1763	1.7532e+02	-9.8051	-82.149657	0.000456	4.561507	1.545480	0.000183
1764	1.7542e+02	-9.7682	-81.939726	0.000527	5.271074	1.785888	0.000211
1765	1.7552e+02	-9.7265	-81.737869	0.000507	5.068341	1.717200	0.000203
1766	1.7562e+02	-9.6767	-81.511789	0.000568	5.676542	1.923264	0.000227
1767	1.7572e+02	-9.6559	-81.318007	0.000487	4.865607	1.648512	0.000195
1768	1.7582e+02	-9.6078	-81.083853	0.000588	5.879275	1.991952	0.000235
1769	1.7592e+02	-9.5660	-80.918330	0.000416	4.156039	1.408104	0.000166
1770	1.7602e+02	-9.5324	-80.688213	0.000578	5.777908	1.957608	0.000231
1771	1.7612e+02	-9.4955	-80.470208	0.000547	5.473808	1.854576	0.000219
1772	1.7621e+02	-9.4457	-80.308723	0.000405	4.054673	1.373760	0.000162
1773	1.7631e+02	-9.4056	-80.066495	0.000608	6.082009	2.060640	0.000243
1774	1.7641e+02	-9.3767	-79.860601	0.000517	5.169708	1.751544	0.000207
1775	1.7651e+02	-9.3286	-79.638558	0.000558	5.575175	1.888920	0.000223
1776	1.7661e+02	-9.2885	-79.428627	0.000527	5.271074	1.785888	0.000211
1777	1.7671e+02	-9.2596	-79.210622	0.000547	5.473808	1.854576	0.000219
1778	1.7681e+02	-9.2035	-78.968394	0.000608	6.082009	2.060640	0.000243
1779	1.7691e+02	-9.1650	-78.819020	0.000375	3.750572	1.270728	0.000150
1780	1.7701e+02	-9.1393	-78.609089	0.000527	5.271074	1.785888	0.000211
1781	1.7711e+02	-9.0944	-78.383009	0.000568	5.676542	1.923264	0.000227
1782	1.7721e+02	-9.0463	-78.144818	0.000598	5.980642	2.026296	0.000239
1783	1.7731e+02	-9.0142	-77.934887	0.000527	5.271074	1.785888	0.000211
1784	1.7741e+02	-8.9693	-77.737067	0.000497	4.966974	1.682856	0.000199
1785	1.7751e+02	-8.9163	-77.515025	0.000558	5.575175	1.888920	0.000223
1786	1.7761e+02	-8.8891	-77.288945	0.000568	5.676542	1.923264	0.000227
1787	1.7771e+02	-8.8570	-77.095163	0.000487	4.865607	1.648512	0.000195
1788	1.7781e+02	-8.8056	-76.865046	0.000578	5.777908	1.957608	0.000231
1789	1.7791e+02	-8.7752	-76.663189	0.000507	5.068341	1.717200	0.000203
1790	1.7801e+02	-8.7286	-76.412887	0.000628	6.284742	2.129328	0.000252
1791	1.7810e+02	-8.6949	-76.227178	0.000466	4.662873	1.579824	0.000187
1792	1.7820e+02	-8.6564	-76.041470	0.000466	4.662873	1.579824	0.000187
1793	1.7830e+02	-8.6131	-75.787131	0.000639	6.386109	2.163672	0.000256
1794	1.7840e+02	-8.5778	-75.528754	0.000649	6.487476	2.198016	0.000260
1795	1.7850e+02	-8.5313	-75.375343	0.000385	3.851939	1.305072	0.000154
1796	1.7860e+02	-8.4912	-75.121003	0.000639	6.386109	2.163672	0.000256
1797	1.7870e+02	-8.4415	-74.870701	0.000628	6.284742	2.129328	0.000252
1798	1.7880e+02	-8.4158	-74.676918	0.000487	4.865607	1.648512	0.000195
1799	1.7890e+02	-8.3693	-74.479099	0.000497	4.966974	1.682856	0.000199
1800	1.7900e+02	-8.3308	-74.220722	0.000649	6.487476	2.198016	0.000260
1801	1.7910e+02	-8.3019	-73.990605	0.000578	5.777908	1.957608	0.000231
1802	1.7920e+02	-8.2570	-73.825083	0.000416	4.156039	1.408104	0.000166
1803	1.7930e+02	-8.2153	-73.594966	0.000578	5.777908	1.957608	0.000231
1804	1.7940e+02	-8.1720	-73.393109	0.000507	5.068341	1.717200	0.000203
1805	1.7950e+02	-8.1351	-73.171067	0.000558	5.575175	1.888920	0.000223
1806	1.7960e+02	-8.0918	-72.928839	0.000608	6.082009	2.060640	0.000243
1807	1.7970e+02	-8.0549	-72.710833	0.000547	5.473808	1.854576	0.000219
1808	1.7980e+02	-8.0212	-72.440345	0.000679	6.791577	2.301048	0.000272
1809	1.7990e+02	-7.9746	-72.242525	0.000497	4.966974	1.682856	0.000199
1810	1.8000e+02	-7.9297	-72.032594	0.000527	5.271074	1.785888	0.000211
1811	1.8009e+02	-7.8960	-71.822663	0.000527	5.271074	1.785888	0.000211
1812	1.8019e+02	-7.8511	-71.548138	0.000689	6.892943	2.335392	0.000276
1813	1.8029e+02	-7.8222	-71.318021	0.000578	5.777908	1.957608	0.000231
1814	1.8039e+02	-7.7725	-71.079830	0.000598	5.980642	2.026296	0.000239
1815	1.8049e+02	-7.7276	-70.861825	0.000547	5.473808	1.854576	0.000219
1816	1.8059e+02	-7.7083	-70.635745	0.000568	5.676542	1.923264	0.000227
1817	1.8069e+02	-7.6570	-70.401592	0.000588	5.879275	1.991952	0.000235
1818	1.8079e+02	-7.6073	-70.199735	0.000507	5.068341	1.717200	0.000203
1819	1.8089e+02	-7.5752	-70.005952	0.000487	4.865607	1.648512	0.000195
1820	1.8099e+02	-7.5351	-69.739501	0.000669	6.690210	2.266704	0.000268
1821	1.8109e+02	-7.5030	-69.533607	0.000517	5.169708	1.751544	0.000207
1822	1.8119e+02	-7.4517	-69.255045	0.000699	6.994310	2.369736	0.000280
1823	1.8129e+02	-7.4067	-69.037040	0.000547	5.473808	1.854576	0.000219
1824	1.8139e+02	-7.3811	-68.798849	0.000598	5.980642	2.026296	0.000239
1825	1.8149e+02	-7.3410	-68.572769	0.000568	5.676542	1.923264	0.000227
1826	1.8159e+02	-7.2977	-68.322467	0.000628	6.284742	2.129328	0.000252
1827	1.8169e+02	-7.2543	-68.080239	0.000608	6.082009	2.060640	0.000243
1828	1.8179e+02	-7.2174	-67.838010	0.000608	6.082009	2.060640	0.000243
1829	1.8189e+02	-7.1805	-67.660376	0.000446	4.460140	1.511136	0.000179
1830	1.8199e+02	-7.1340	-67.365665	0.000740	7.399777	2.507112	0.000296
1831	1.8209e+02	-7.0971	-67.155734	0.000527	5.271074	1.785888	0.000211
1832	1.8218e+02	-7.0570	-66.917543	0.000598	5.980642	2.026296	0.000239
1833	1.8228e+02	-7.0137	-66.707612	0.000527	5.271074	1.785888	0.000211
1834	1.8238e+02	-6.9832	-66.453273	0.000639	6.386109	2.163672	0.000256
1835	1.8248e+02	-6.9495	-66.215082	0.000598	5.980642	2.026296	0.000239
1836	1.8258e+02	-6.8982	-65.980928	0.000588	5.879275	1.991952	0.000235
1837	1.8268e+02	-6.8533	-65.750811	0.000578	5.777908	1.957608	0.000231
1838	1.8278e+02	-6.8228	-65.524732	0.000568	5.676542	1.923264	0.000227
1839	1.8288e+02	-6.7699	-65.258281	0.000669	6.690210	2.266704	0.000268
1840	1.8298e+02	-6.7378	-65.060461	0.000497	4.966974	1.682856	0.000199
1841	1.8308e+02	-6.6929	-64.794010	0.000669	6.690210	2.266704	0.000268
1842	1.8318e+02	-6.6656	-64.571968	0.000558	5.575175	1.888920	0.000223
1843	1.8328e+02	-6.6175	-64.325702	0.000618	6.183376	2.094984	0.000248
1844	1.8338e+02	-6.5822	-64.103660	0.000558	5.575175	1.888920	0.000223
1845	1.8348e+02	-6.5389	-63.841246	0.000659	6.588843	2.232360	0.000264
1846	1.8358e+02	-6.5004	-63.615166	0.000568	5.676542	1.923264	0.000227
1847	1.8368e+02	-6.4667	-63.397161	0.000547	5.473808	1.854576	0.000219
1848	1.8378e+02	-6.4201	-63.179156	0.000547	5.473808	1.854576	0.000219
1849	1.8388e+02	-6.3800	-62.949039	0.000578	5.777908	1.957608	0.000231
1850	1.8398e+02	-6.3367	-62.726997	0.000558	5.575175	1.888920	0.000223
1851	1.8407e+02	-6.3014	-62.448434	0.000699	6.994310	2.369736	0.000280
1852	1.8417e+02	-6.2645	-62.262726	0.000466	4.662873	1.579824	0.000187
1853	1.8427e+02	-6.2260	-61.972052	0.000730	7.298411	2.472768	0.000292
1854	1.8437e+02	-6.1811	-61.762121	0.000527	5.271074	1.785888	0.000211
1855	1.8447e+02	-6.1426	-61.515856	0.000618	6.183376	2.094984	0.000248
1856	1.8457e+02	-6.1025	-61.301888	0.000537	5.372441	1.820232	0.000215
1857	1.8467e+02	-6.0640	-60.999102	0.000760	7.602511	2.575800	0.000304
1858	1.8477e+02	-6.0303	-60.781097	0.000547	5.473808	1.854576	0.000219
1859	1.8487e+02	-5.9854	-60.530795	0.000628	6.284742	2.129328	0.000252
1860	1.8497e+02	-5.9421	-60.272418	0.000649	6.487476	2.198016	0.000260
1861	1.8507e+02	-5.9052	-60.050376	0.000558	5.575175	1.888920	0.000223
1862	1.8517e+02	-5.8635	-59.804110	0.000618	6.183376	2.094984	0.000248
1863	1.8527e+02	-5.8314	-59.521511	0.000710	7.095677	2.404080	0.000284
1864	1.8537e+02	-5.7849	-59.299468	0.000558	5.575175	1.888920	0.000223
1865	1.8547e+02	-5.7432	-59.065314	0.000588	5.879275	1.991952	0.000235
1866	1.8557e+02	-5.6998	-58.815012	0.000628	6.284742	2.129328	0.000252
1867	1.8567e+02	-5.6662	-58.548561	0.000669	6.690210	2.266704	0.000268
1868	1.8577e+02	-5.6164	-58.265962	0.000710	7.095677	2.404080	0.000284
1869	1.8587e+02	-5.5908	-58.080253	0.000466	4.662873	1.579824	0.000187
1870	1.8597e+02	-5.5442	-57.789580	0.000730	7.298411	2.472768	0.000292
1871	1.8606e+02	-5.5089	-57.583686	0.000517	5.169708	1.751544	0.000207
1872	1.8616e+02	-5.4656	-57.321272	0.000659	6.588843	2.232360	0.000264
1873	1.8626e+02	-5.4223	-57.099229	0.000558	5.575175	1.888920	0.000223
1874	1.8636e+02	-5.3870	-56.836815	0.000659	6.588843	2.232360	0.000264
1875	1.8646e+02	-5.3405	-56.606699	0.000578	5.777908	1.957608	0.000231
1876	1.8656e+02	-5.3036	-56.303914	0.000760	7.602511	2.575800	0.000304
1877	1.8666e+02	-5.2731	-56.061685	0.000608	6.082009	2.060640	0.000243
1878	1.8676e+02	-5.2266	-55.811383	0.000628	6.284742	2.129328	0.000252
1879	1.8686e+02	-5.1977	-55.581266	0.000578	5.777908	1.957608	0.000231
1880	1.8696e+02	-5.1560	-55.347112	0.000588	5.879275	1.991952	0.000235
1881	1.8706e+02	-5.1047	-55.108921	0.000598	5.980642	2.026296	0.000239
1882	1.8716e+02	-5.0710	-54.846508	0.000659	6.588843	2.232360	0.000264
1883	1.8726e+02	-5.0293	-54.612354	0.000588	5.879275	1.991952	0.000235
1884	1.8736e+02	-4.9844	-54.313606	0.000750	7.501144	2.541456	0.000300
1885	1.8746e+02	-4.9491	-54.071378	0.000608	6.082009	2.060640	0.000243
1886	1.8756e+02	-4.9025	-53.841261	0.000578	5.777908	1.957608	0.000231
1887	1.8766e+02	-4.8656	-53.611144	0.000578	5.777908	1.957608	0.000231
1888	1.8776e+02	-4.8336	-53.340656	0.000679	6.791577	2.301048	0.000272
1889	1.8786e+02	-4.7822	-53.054019	0.000720	7.197044	2.438424	0.000288
1890	1.8796e+02	-4.7485	-52.840051	0.000537	5.372441	1.820232	0.000215
1891	1.8806e+02	-4.7197	-52.589749	0.000628	6.284742	2.129328	0.000252
1892	1.8815e+02	-4.6667	-52.291001	0.000750	7.501144	2.541456	0.000300
1893	1.8825e+02	-4.6266	-52.072995	0.000547	5.473808	1.854576	0.000219
1894	1.8835e+02	-4.5865	-51.790396	0.000710	7.095677	2.404080	0.000284
1895	1.8845e+02	-4.5400	-51.556242	0.000588	5.879275	1.991952	0.000235
1896	1.8855e+02	-4.5063	-51.293828	0.000659	6.588843	2.232360	0.000264
1897	1.8865e+02	-4.4678	-51.071786	0.000558	5.575175	1.888920	0.000223
1898	1.8875e+02	-4.4197	-50.793223	0.000699	6.994310	2.369736	0.000280
1899	1.8885e+02	-4.3860	-50.506587	0.000720	7.197044	2.438424	0.000288
1900	1.8895e+02	-4.3555	-50.264359	0.000608	6.082009	2.060640	0.000243
1901	1.8905e+02	-4.3026	-50.022130	0.000608	6.082009	2.060640	0.000243
1902	1.8915e+02	-4.2721	-49.763754	0.000649	6.487476	2.198016	0.000260
1903	1.8925e+02	-4.2255	-49.505377	0.000649	6.487476	2.198016	0.000260
1904	1.8935e+02	-4.2015	-49.279297	0.000568	5.676542	1.923264	0.000227
1905	1.8945e+02	-4.1566	-49.008809	0.000679	6.791577	2.301048	0.000272
1906	1.8955e+02	-4.1116	-48.714098	0.000740	7.399777	2.507112	0.000296
1907	1.8965e+02	-4.0667	-48.483982	0.000578	5.777908	1.957608	0.000231
1908	1.8975e+02	-4.0266	-48.209456	0.000689	6.892943	2.335392	0.000276
1909	1.8985e+02	-3.9897	-47.987414	0.000558	5.575175	1.888920	0.000223
1910	1.8995e+02	-3.9496	-47.737112	0.000628	6.284742	2.129328	0.000252
1911	1.9004e+02	-3.9111	-47.466623	0.000679	6.791577	2.301048	0.000272
1912	1.9014e+02	-3.8710	-47.139615	0.000821	8.210712	2.781865	0.000329
1913	1.9024e+02	-3.8373	-46.945833	0.000487	4.865607	1.648512	0.000195
1914	1.9034e+02	-3.8004	-46.667271	0.000699	6.994310	2.369736	0.000280
1915	1.9044e+02	-3.7555	-46.433117	0.000588	5.879275	1.991952	0.000235
1916	1.9054e+02	-3.7090	-46.142443	0.000730	7.298411	2.472768	0.000292
1917	1.9064e+02	-3.6721	-45.827546	0.000791	7.906612	2.678832	0.000316
1918	1.9074e+02	-3.6368	-45.629727	0.000497	4.966974	1.682856	0.000199
1919	1.9084e+02	-3.5919	-45.347127	0.000710	7.095677	2.404080	0.000284
1920	1.9094e+02	-3.5550	-45.056453	0.000730	7.298411	2.472768	0.000292
1921	1.9104e+02	-3.5117	-44.810188	0.000618	6.183376	2.094984	0.000248
1922	1.9114e+02	-3.4684	-44.543737	0.000669	6.690210	2.266704	0.000268
1923	1.9124e+02	-3.4250	-44.249026	0.000740	7.399777	2.507112	0.000296
1924	1.9134e+02	-3.3897	-43.986612	0.000659	6.588843	2.232360	0.000264
1925	1.9144e+02	-3.3528	-43.744384	0.000608	6.082009	2.060640	0.000243
1926	1.9154e+02	-3.3192	-43.445636	0.000750	7.501144	2.541456	0.000300
1927	1.9164e+02	-3.2774	-43.207445	0.000598	5.980642	2.026296	0.000239
1928	1.9174e+02	-3.2389	-42.904660	0.000760	7.602511	2.575800	0.000304
1929	1.9184e+02	-3.1892	-42.630135	0.000689	6.892943	2.335392	0.000276
1930	1.9194e+02	-3.1587	-42.395981	0.000588	5.879275	1.991952	0.000235
1931	1.9203e+02	-3.1138	-42.137604	0.000649	6.487476	2.198016	0.000260
1932	1.9213e+02	-3.0785	-41.806559	0.000831	8.312079	2.816209	0.000333
1933	1.9223e+02	-3.0288	-41.532034	0.000689	6.892943	2.335392	0.000276
1934	1.9233e+02	-2.9999	-41.281731	0.000628	6.284742	2.129328	0.000252
1935	1.9243e+02	-2.9582	-41.039503	0.000608	6.082009	2.060640	0.000243
1936	1.9253e+02	-2.9181	-40.708458	0.000831	8.312079	2.816209	0.000333
1937	1.9263e+02	-2.8732	-40.421822	0.000720	7.197044	2.438424	0.000288
1938	1.9273e+02	-2.8299	-40.163445	0.000649	6.487476	2.198016	0.000260
1939	1.9283e+02	-2.8010	-39.917180	0.000618	6.183376	2.094984	0.000248
1940	1.9293e+02	-2.7561	-39.630543	0.000720	7.197044	2.438424	0.000288
1941	1.9303e+02	-2.7176	-39.364092	0.000669	6.690210	2.266704	0.000268
1942	1.9313e+02	-2.6727	-39.105715	0.000649	6.487476	2.198016	0.000260
1943	1.9323e+02	-2.6390	-38.798893	0.000770	7.703878	2.610144	0.000308
1944	1.9333e+02	-2.5924	-38.516294	0.000710	7.095677	2.404080	0.000284
1945	1.9343e+02	-2.5652	-38.278103	0.000598	5.980642	2.026296	0.000239
1946	1.9353e+02	-2.5202	-37.959169	0.000801	8.007978	2.713177	0.000321
1947	1.9363e+02	-2.4705	-37.700792	0.000649	6.487476	2.198016	0.000260
1948	1.9373e+02	-2.4400	-37.446453	0.000639	6.386109	2.163672	0.000256
1949	1.9383e+02	-2.3967	-37.147704	0.000750	7.501144	2.541456	0.000300
1950	1.9393e+02	-2.3486	-36.840882	0.000770	7.703878	2.610144	0.000308
1951	1.9403e+02	-2.3181	-36.554246	0.000720	7.197044	2.438424	0.000288
1952	1.9412e+02	-2.2780	-36.295869	0.000649	6.487476	2.198016	0.000260
1953	1.9422e+02	-2.2283	-36.025381	0.000679	6.791577	2.301048	0.000272
1954	1.9432e+02	-2.1962	-35.726633	0.000750	7.501144	2.541456	0.000300
1955	1.9442e+02	-2.1513	-35.415773	0.000781	7.805245	2.644488	0.000312
1956	1.9452e+02	-2.1080	-35.117025	0.000750	7.501144	2.541456	0.000300
1957	1.9462e+02	-2.0791	-34.866723	0.000628	6.284742	2.129328	0.000252
1958	1.9472e+02	-2.0310	-34.588160	0.000699	6.994310	2.369736	0.000280
1959	1.9482e+02	-1.9925	-34.253078	0.000841	8.413446	2.850553	0.000337
1960	1.9492e+02	-1.9588	-33.994701	0.000649	6.487476	2.198016	0.000260
1961	1.9502e+02	-1.9155	-33.671731	0.000811	8.109345	2.747521	0.000325
1962	1.9512e+02	-1.8802	-33.381057	0.000730	7.298411	2.472768	0.000292
1963	1.9522e+02	-1.8368	-33.066160	0.000791	7.906612	2.678832	0.000316
1964	1.9532e+02	-1.7951	-32.852192	0.000537	5.372441	1.820232	0.000215
1965	1.9542e+02	-1.7647	-32.496924	0.000892	8.920280	3.022273	0.000357
1966	1.9552e+02	-1.7294	-32.230473	0.000669	6.690210	2.266704	0.000268
1967	1.9562e+02	-1.6796	-31.915577	0.000791	7.906612	2.678832	0.000316
1968	1.9572e+02	-1.6315	-31.645088	0.000679	6.791577	2.301048	0.000272
1969	1.9582e+02	-1.6042	-31.358452	0.000720	7.197044	2.438424	0.000288
1970	1.9592e+02	-1.5641	-31.059704	0.000750	7.501144	2.541456	0.000300
1971	1.9601e+02	-1.5224	-30.744807	0.000791	7.906612	2.678832	0.000316
1972	1.9611e+02	-1.4743	-30.462208	0.000710	7.095677	2.404080	0.000284
1973	1.9621e+02	-1.4422	-30.163460	0.000750	7.501144	2.541456	0.000300
1974	1.9631e+02	-1.4069	-29.872786	0.000730	7.298411	2.472768	0.000292
1975	1.9641e+02	-1.3604	-29.570001	0.000760	7.602511	2.575800	0.000304
1976	1.9651e+02	-1.3267	-29.267216	0.000760	7.602511	2.575800	0.000304
1977	1.9661e+02	-1.2754	-28.968467	0.000750	7.501144	2.541456	0.000300
1978	1.9671e+02	-1.2353	-28.681831	0.000720	7.197044	2.438424	0.000288
1979	1.9681e+02	-1.2016	-28.354823	0.000821	8.210712	2.781865	0.000329
1980	1.9691e+02	-1.1615	-28.031852	0.000811	8.109345	2.747521	0.000325
1981	1.9701e+02	-1.1165	-27.765401	0.000669	6.690210	2.266704	0.000268
1982	1.9711e+02	-1.0861	-27.450504	0.000791	7.906612	2.678832	0.000316
1983	1.9721e+02	-1.0476	-27.139645	0.000781	7.805245	2.644488	0.000312
1984	1.9731e+02	-1.0059	-26.820711	0.000801	8.007978	2.713177	0.000321
1985	1.9741e+02	-0.9609	-26.509852	0.000781	7.805245	2.644488	0.000312
1986	1.9751e+02	-0.9192	-26.219178	0.000730	7.298411	2.472768	0.000292
1987	1.9761e+02	-0.8695	-25.900244	0.000801	8.007978	2.713177	0.000321
1988	1.9771e+02	-0.8374	-25.617645	0.000710	7.095677	2.404080	0.000284
1989	1.9781e+02	-0.7973	-25.282563	0.000841	8.413446	2.850553	0.000337
1990	1.9791e+02	-0.7636	-24.995926	0.000720	7.197044	2.438424	0.000288
1991	1.9800e+02	-0.7075	-24.648732	0.000872	8.717546	2.953585	0.000349
1992	1.9810e+02	-0.6834	-24.390356	0.000649	6.487476	2.198016	0.000260
1993	1.9820e+02	-0.6513	-24.043162	0.000872	8.717546	2.953585	0.000349
1994	1.9830e+02	-0.5984	-23.728265	0.000791	7.906612	2.678832	0.000316
1995	1.9840e+02	-0.5583	-23.433554	0.000740	7.399777	2.507112	0.000296
1996	1.9850e+02	-0.5246	-23.138843	0.000740	7.399777	2.507112	0.000296
1997	1.9860e+02	-0.4909	-22.783576	0.000892	8.920280	3.022273	0.000357
1998	1.9870e+02	-0.4380	-22.472716	0.000781	7.805245	2.644488	0.000312
1999	1.9880e+02	-0.4011	-22.182042	0.000730	7.298411	2.472768	0.000292
2000	1.9890e+02	-0.3706	-21.871183	0.000781	7.805245	2.644488	0.000312
2001	1.9900e+02	-0.3289	-21.556286	0.000791	7.906612	2.678832	0.000316
2002	1.9910e+02	-0.2920	-21.249464	0.000770	7.703878	2.610144	0.000308
2003	1.9920e+02	-0.2519	-20.930530	0.000801	8.007978	2.713177	0.000321
2004	1.9930e+02	-0.2102	-20.635819	0.000740	7.399777	2.507112	0.000296
2005	1.9940e+02	-0.1668	-20.316886	0.000801	8.007978	2.713177	0.000321
2006	1.9950e+02	-0.1235	-20.001989	0.000791	7.906612	2.678832	0.000316
2007	1.9960e+02	-0.0770	-19.683055	0.000801	8.007978	2.713177	0.000321
2008	1.9970e+02	-0.0497	-19.376233	0.000770	7.703878	2.610144	0.000308
2009	1.9980e+02	-0.0048	-19.057299	0.000770	7.703878	2.610144	0.000321

Center data before PMax,+/-Pr and +/-Vc Calc.

PMax (uC/cm2):	1.23e+02
Pr (uC/cm2):	1.07e+01
-Pr (uC/cm2):	-1.91e+01
PLoss (uC/cm2):	-1.55e+01
Vc:	5.11e-01
-Vc:	-1.41e+00
C (Max-Eff) (nF):	6.13e-01
K (Eff):	2.08e+03
Vert. (+/-Pr) Shift (uC/cm2):	-4.17e+00
Horiz. Shift (+/-Vc):	-4.47e-01
Offset (uC/cm2):	3.50e+00

A (Loop Area - uC/cm2·Volts):	1.69e-01



Hysteresis Version: 5.48.1 - Radiant Technologies, Inc., 1999 - 9/12/24

