»»»»»»»»»»»»»»»»»»»»»»»»»»»»»»»»»»»» Hysteresis ««««««««««««««««««««««««««««««««««««
»»»  Executed Version:	5.48.1
»»»  Vision Version:	5.48.4 (R)
»»»  Vision Compiled:	9/18/24
»»»  Driver Version:	5.47.0
»»»  Windows Version:	Windows 8 or 8.1
»»»  Processor Information:	x86 (AMD or Intel) - 32 Processors
»»»  Tester Name:	PMF21124-494 (100V)
»»»  Tester S/N:	PMF21124-494
»»»  Internal Amp Type:	100V RevK 270k
»»»  Internal Amp S/N:	iAB2-596/K     
»»»  Execution Count:	1
»»»»»»»»»»»»»»»»»»»»»»»»»»»»»»»»»»»»»»»»»»««««««««««««««««««««««««««««««««««««««««««

Stored:	6/5/2025 - 12:37:8
Configured:	06/05/25 10:43:40 AM
Executed:	06/05/25 12:36:32 PM

»»»»»»»»»»»»»»»»»»»»»»»»»»»»»»»»»»» Sample Info ««««««««««««««««««««««««««««««««««««
Sample Name:	
Lot Name:	
Wafer Name:	
Die Row/Column:	0/0
Capacitor Number:	0
Sample Area (cm2):	1.00e-04
Sample Thickness (microns):	3.00e-01

Amplifier:	Internal

»»»»»»»»»»»»»»»»»»»»»»»»»»»»»»»»»»» Tester Info «««««««««««««««««««««««««««««««««««
Tester Name:	PMF21124-494 (100V)
Tester Serial Number:	PMF21124-494
Return Signal Amp. Level:	0.19 [Index: 3]

»»»»»»»»»»»»»»»»»»»»»»»»»»»»»»»» Hysteresis Info ««««««««««««««««««««««««««««««««««
Task Name:	Hyst-187
Volts:	20.00
Field:	666.67 (kV/cm)
DCBias:	0.00
DCField:	0.00 (kV/cm)
Hysteresis Period (ms):	2.00e+02
Preset:	Enabled
Preset Delay (ms):	1.00e+03
Profile:	Standard Bipolar

»»»»»»»»»»»»»»»»»»»»»»»»»»»»»»»»»»»»»» Data «««««««««««««««««««««««««««««««««««««««
Points:	2009

Valid Data

Point	Time (ms)	Drive Voltage	Measured Polarization (uC/cm2)	Capacitance (uF)	Normalized Capacitance (uF/cm2)	Dielectric Constant	Instantaneous Current (mA)
   1	0.0000e+00	-0.0032	-3.207504	0.000537	5.371795	1.820013	0.000215
   2	9.9500e-02	0.0225	-2.993536	0.000537	5.371795	1.820013	0.000215
   3	1.9900e-01	0.0610	-2.751308	0.000608	6.081277	2.060392	0.000243
   4	2.9850e-01	0.1123	-2.440449	0.000780	7.804305	2.644170	0.000312
   5	3.9800e-01	0.1508	-2.194183	0.000618	6.182632	2.094732	0.000248
   6	4.9750e-01	0.1845	-1.919658	0.000689	6.892114	2.335111	0.000276
   7	5.9700e-01	0.2278	-1.608799	0.000780	7.804305	2.644170	0.000312
   8	6.9650e-01	0.2711	-1.318125	0.000730	7.297532	2.472471	0.000292
   9	7.9600e-01	0.3112	-0.999191	0.000801	8.007015	2.712850	0.000321
  10	8.9550e-01	0.3465	-0.756963	0.000608	6.081277	2.060392	0.000243
  11	9.9500e-01	0.3850	-0.482438	0.000689	6.892114	2.335111	0.000276
  12	1.0945e+00	0.4364	-0.151393	0.000831	8.311078	2.815870	0.000333
  13	1.1940e+00	0.4684	0.135244	0.000720	7.196178	2.438131	0.000288
  14	1.2935e+00	0.4973	0.409769	0.000689	6.892114	2.335111	0.000276
  15	1.3930e+00	0.5470	0.728703	0.000801	8.007015	2.712850	0.000321
  16	1.4925e+00	0.5855	1.003228	0.000689	6.892114	2.335111	0.000276
  17	1.5920e+00	0.6321	1.281791	0.000699	6.993468	2.369451	0.000280
  18	1.6915e+00	0.6706	1.620910	0.000851	8.513788	2.884549	0.000341
  19	1.7910e+00	0.7043	1.879287	0.000649	6.486695	2.197752	0.000260
  20	1.8905e+00	0.7588	2.202258	0.000811	8.108369	2.747190	0.000325
  21	1.9900e+00	0.7941	2.476783	0.000689	6.892114	2.335111	0.000276
  22	2.0895e+00	0.8262	2.755345	0.000699	6.993468	2.369451	0.000280
  23	2.1890e+00	0.8711	3.054093	0.000750	7.500242	2.541151	0.000300
  24	2.2885e+00	0.8984	3.401287	0.000872	8.716497	2.953229	0.000349
  25	2.3880e+00	0.9449	3.639478	0.000598	5.979922	2.026053	0.000239
  26	2.4875e+00	0.9898	3.914003	0.000689	6.892114	2.335111	0.000276
  27	2.5870e+00	1.0283	4.236974	0.000811	8.108369	2.747190	0.000325
  28	2.6865e+00	1.0620	4.547833	0.000780	7.804305	2.644170	0.000312
  29	2.7860e+00	1.1069	4.826396	0.000699	6.993468	2.369451	0.000280
  30	2.8855e+00	1.1454	5.141292	0.000791	7.905660	2.678510	0.000316
  31	2.9850e+00	1.1679	5.468300	0.000821	8.209724	2.781530	0.000329
  32	3.0845e+00	1.2192	5.730714	0.000659	6.588050	2.232092	0.000264
  33	3.1840e+00	1.2657	6.073871	0.000862	8.615142	2.918889	0.000345
  34	3.2835e+00	1.2994	6.400879	0.000821	8.209724	2.781530	0.000329
  35	3.3830e+00	1.3460	6.671367	0.000679	6.790759	2.300772	0.000272
  36	3.4825e+00	1.3845	6.970115	0.000750	7.500242	2.541151	0.000300
  37	3.5820e+00	1.4214	7.285011	0.000791	7.905660	2.678510	0.000316
  38	3.6815e+00	1.4647	7.563574	0.000699	6.993468	2.369451	0.000280
  39	3.7810e+00	1.5080	7.821950	0.000649	6.486695	2.197752	0.000260
  40	3.8805e+00	1.5433	8.181256	0.000902	9.020561	3.056249	0.000361
  41	3.9800e+00	1.5802	8.480004	0.000750	7.500242	2.541151	0.000300
  42	4.0795e+00	1.6171	8.746455	0.000669	6.689405	2.266432	0.000268
  43	4.1790e+00	1.6732	9.105760	0.000902	9.020561	3.056249	0.000361
  44	4.2785e+00	1.7005	9.380285	0.000689	6.892114	2.335111	0.000276
  45	4.3780e+00	1.7422	9.691144	0.000780	7.804305	2.644170	0.000312
  46	4.4775e+00	1.7871	9.965670	0.000689	6.892114	2.335111	0.000276
  47	4.5770e+00	1.8272	10.280566	0.000791	7.905660	2.678510	0.000316
  48	4.6765e+00	1.8641	10.579314	0.000750	7.500242	2.541151	0.000300
  49	4.7760e+00	1.9058	10.934582	0.000892	8.919206	3.021909	0.000357
  50	4.8755e+00	1.9331	11.217182	0.000709	7.094823	2.403791	0.000284
  51	4.9750e+00	1.9812	11.524004	0.000770	7.702951	2.609830	0.000308
  52	5.0745e+00	2.0310	11.810641	0.000720	7.196178	2.438131	0.000288
  53	5.1740e+00	2.0646	12.141686	0.000831	8.311078	2.815870	0.000333
  54	5.2735e+00	2.1144	12.408137	0.000669	6.689405	2.266432	0.000268
  55	5.3730e+00	2.1288	12.718996	0.000780	7.804305	2.644170	0.000312
  56	5.4725e+00	2.1818	13.074264	0.000892	8.919206	3.021909	0.000357
  57	5.5720e+00	2.2235	13.356864	0.000709	7.094823	2.403791	0.000284
  58	5.6715e+00	2.2700	13.635426	0.000699	6.993468	2.369451	0.000280
  59	5.7710e+00	2.3005	13.978582	0.000862	8.615142	2.918889	0.000345
  60	5.8705e+00	2.3422	14.265219	0.000720	7.196178	2.438131	0.000288
  61	5.9700e+00	2.3807	14.531670	0.000669	6.689405	2.266432	0.000268
  62	6.0695e+00	2.4208	14.878864	0.000872	8.716497	2.953229	0.000349
  63	6.1690e+00	2.4625	15.165500	0.000720	7.196178	2.438131	0.000288
  64	6.2685e+00	2.5090	15.496546	0.000831	8.311078	2.815870	0.000333
  65	6.3680e+00	2.5347	15.779145	0.000709	7.094823	2.403791	0.000284
  66	6.4675e+00	2.5812	16.114227	0.000841	8.412433	2.850209	0.000337
  67	6.5670e+00	2.6197	16.388753	0.000689	6.892114	2.335111	0.000276
  68	6.6665e+00	2.6582	16.707686	0.000801	8.007015	2.712850	0.000321
  69	6.7660e+00	2.7031	17.018546	0.000780	7.804305	2.644170	0.000312
  70	6.8655e+00	2.7384	17.325368	0.000770	7.702951	2.609830	0.000308
  71	6.9650e+00	2.7817	17.640265	0.000791	7.905660	2.678510	0.000316
  72	7.0645e+00	2.8218	17.914790	0.000689	6.892114	2.335111	0.000276
  73	7.1640e+00	2.8523	18.253909	0.000851	8.513788	2.884549	0.000341
  74	7.2635e+00	2.9085	18.524397	0.000679	6.790759	2.300772	0.000272
  75	7.3630e+00	2.9357	18.867554	0.000862	8.615142	2.918889	0.000345
  76	7.4625e+00	2.9759	19.190525	0.000811	8.108369	2.747190	0.000325
  77	7.5620e+00	3.0208	19.477161	0.000720	7.196178	2.438131	0.000288
  78	7.6615e+00	3.0609	19.755724	0.000699	6.993468	2.369451	0.000280
  79	7.7610e+00	3.0994	20.050435	0.000740	7.398887	2.506811	0.000296
  80	7.8605e+00	3.1363	20.377443	0.000821	8.209724	2.781530	0.000329
  81	7.9600e+00	3.1796	20.680228	0.000760	7.601596	2.575490	0.000304
  82	8.0595e+00	3.2197	20.983013	0.000760	7.601596	2.575490	0.000304
  83	8.1590e+00	3.2566	21.233315	0.000628	6.283986	2.129072	0.000252
  84	8.2585e+00	3.3031	21.584546	0.000882	8.817852	2.987569	0.000353
  85	8.3580e+00	3.3368	21.859071	0.000689	6.892114	2.335111	0.000276
  86	8.4575e+00	3.3785	22.169931	0.000780	7.804305	2.644170	0.000312
  87	8.5570e+00	3.4186	22.513087	0.000862	8.615142	2.918889	0.000345
  88	8.6565e+00	3.4539	22.783576	0.000679	6.790759	2.300772	0.000272
  89	8.7560e+00	3.4988	23.171141	0.000973	9.730043	3.296628	0.000390
  90	8.8555e+00	3.5341	23.389146	0.000547	5.473149	1.854353	0.000219
  91	8.9550e+00	3.5758	23.724228	0.000841	8.412433	2.850209	0.000337
  92	9.0545e+00	3.6224	23.990679	0.000669	6.689405	2.266432	0.000268
  93	9.1540e+00	3.6609	24.301539	0.000780	7.804305	2.644170	0.000312
  94	9.2535e+00	3.6994	24.588175	0.000720	7.196178	2.438131	0.000288
  95	9.3530e+00	3.7379	24.894998	0.000770	7.702951	2.609830	0.000308
  96	9.4525e+00	3.7716	25.222006	0.000821	8.209724	2.781530	0.000329
  97	9.5520e+00	3.8149	25.496531	0.000689	6.892114	2.335111	0.000276
  98	9.6515e+00	3.8566	25.771056	0.000689	6.892114	2.335111	0.000276
  99	9.7510e+00	3.8935	26.098064	0.000821	8.209724	2.781530	0.000329
 100	9.8505e+00	3.9368	26.404886	0.000770	7.702951	2.609830	0.000308
 101	9.9500e+00	3.9785	26.703634	0.000750	7.500242	2.541151	0.000300
 102	1.0050e+01	4.0138	27.042754	0.000851	8.513788	2.884549	0.000341
 103	1.0149e+01	4.0475	27.325353	0.000709	7.094823	2.403791	0.000284
 104	1.0248e+01	4.1004	27.591804	0.000669	6.689405	2.266432	0.000268
 105	1.0348e+01	4.1293	27.922849	0.000831	8.311078	2.815870	0.000333
 106	1.0447e+01	4.1710	28.205449	0.000709	7.094823	2.403791	0.000284
 107	1.0547e+01	4.2127	28.488048	0.000709	7.094823	2.403791	0.000284
 108	1.0646e+01	4.2512	28.798908	0.000780	7.804305	2.644170	0.000312
 109	1.0746e+01	4.2913	29.081507	0.000709	7.094823	2.403791	0.000284
 110	1.0845e+01	4.3314	29.384292	0.000760	7.601596	2.575490	0.000304
 111	1.0945e+01	4.3715	29.695152	0.000780	7.804305	2.644170	0.000312
 112	1.1044e+01	4.4132	30.010049	0.000791	7.905660	2.678510	0.000316
 113	1.1144e+01	4.4614	30.296685	0.000720	7.196178	2.438131	0.000288
 114	1.1243e+01	4.4822	30.603507	0.000770	7.702951	2.609830	0.000308
 115	1.1343e+01	4.5384	30.861884	0.000649	6.486695	2.197752	0.000260
 116	1.1443e+01	4.5785	31.164669	0.000760	7.601596	2.575490	0.000304
 117	1.1542e+01	4.6138	31.459380	0.000740	7.398887	2.506811	0.000296
 118	1.1642e+01	4.6491	31.746017	0.000720	7.196178	2.438131	0.000288
 119	1.1741e+01	4.6972	32.032654	0.000720	7.196178	2.438131	0.000288
 120	1.1841e+01	4.7164	32.327364	0.000740	7.398887	2.506811	0.000296
 121	1.1940e+01	4.7806	32.654372	0.000821	8.209724	2.781530	0.000329
 122	1.2040e+01	4.8159	32.936972	0.000709	7.094823	2.403791	0.000284
 123	1.2139e+01	4.8544	33.243794	0.000770	7.702951	2.609830	0.000308
 124	1.2239e+01	4.8961	33.538505	0.000740	7.398887	2.506811	0.000296
 125	1.2338e+01	4.9282	33.792845	0.000639	6.385341	2.163412	0.000256
 126	1.2438e+01	4.9731	34.107741	0.000791	7.905660	2.678510	0.000316
 127	1.2537e+01	5.0068	34.374192	0.000669	6.689405	2.266432	0.000268
 128	1.2636e+01	5.0469	34.697163	0.000811	8.108369	2.747190	0.000325
 129	1.2736e+01	5.0950	34.983800	0.000720	7.196178	2.438131	0.000288
 130	1.2835e+01	5.1271	35.278511	0.000740	7.398887	2.506811	0.000296
 131	1.2935e+01	5.1737	35.544962	0.000669	6.689405	2.266432	0.000268
 132	1.3034e+01	5.2105	35.867932	0.000811	8.108369	2.747190	0.000325
 133	1.3134e+01	5.2490	36.174755	0.000770	7.702951	2.609830	0.000308
 134	1.3233e+01	5.2940	36.449280	0.000689	6.892114	2.335111	0.000276
 135	1.3333e+01	5.3277	36.743991	0.000740	7.398887	2.506811	0.000296
 136	1.3432e+01	5.3758	36.978145	0.000588	5.878568	1.991713	0.000235
 137	1.3532e+01	5.4111	37.284967	0.000770	7.702951	2.609830	0.000308
 138	1.3632e+01	5.4512	37.611975	0.000821	8.209724	2.781530	0.000329
 139	1.3731e+01	5.4897	37.886500	0.000689	6.892114	2.335111	0.000276
 140	1.3831e+01	5.5266	38.197360	0.000780	7.804305	2.644170	0.000312
 141	1.3930e+01	5.5747	38.475922	0.000699	6.993468	2.369451	0.000280
 142	1.4030e+01	5.6020	38.742373	0.000669	6.689405	2.266432	0.000268
 143	1.4129e+01	5.6517	39.061307	0.000801	8.007015	2.712850	0.000321
 144	1.4229e+01	5.6934	39.319684	0.000649	6.486695	2.197752	0.000260
 145	1.4328e+01	5.7271	39.606320	0.000720	7.196178	2.438131	0.000288
 146	1.4428e+01	5.7736	39.913142	0.000770	7.702951	2.609830	0.000308
 147	1.4527e+01	5.8105	40.167482	0.000639	6.385341	2.163412	0.000256
 148	1.4627e+01	5.8506	40.446044	0.000699	6.993468	2.369451	0.000280
 149	1.4726e+01	5.8859	40.781127	0.000841	8.412433	2.850209	0.000337
 150	1.4825e+01	5.9260	41.059689	0.000699	6.993468	2.369451	0.000280
 151	1.4925e+01	5.9677	41.358437	0.000750	7.500242	2.541151	0.000300
 152	1.5024e+01	6.0111	41.624888	0.000669	6.689405	2.266432	0.000268
 153	1.5124e+01	6.0496	41.911525	0.000720	7.196178	2.438131	0.000288
 154	1.5223e+01	6.0961	42.186050	0.000689	6.892114	2.335111	0.000276
 155	1.5323e+01	6.1298	42.480761	0.000740	7.398887	2.506811	0.000296
 156	1.5422e+01	6.1619	42.755286	0.000689	6.892114	2.335111	0.000276
 157	1.5522e+01	6.2068	43.033848	0.000699	6.993468	2.369451	0.000280
 158	1.5621e+01	6.2469	43.324522	0.000730	7.297532	2.472471	0.000292
 159	1.5721e+01	6.2870	43.595010	0.000679	6.790759	2.300772	0.000272
 160	1.5820e+01	6.3303	43.861461	0.000669	6.689405	2.266432	0.000268
 161	1.5920e+01	6.3560	44.144061	0.000709	7.094823	2.403791	0.000284
 162	1.6020e+01	6.4041	44.434735	0.000730	7.297532	2.472471	0.000292
 163	1.6119e+01	6.4458	44.741557	0.000770	7.702951	2.609830	0.000308
 164	1.6218e+01	6.4843	45.024156	0.000709	7.094823	2.403791	0.000284
 165	1.6318e+01	6.5244	45.278496	0.000639	6.385341	2.163412	0.000256
 166	1.6418e+01	6.5629	45.536873	0.000649	6.486695	2.197752	0.000260
 167	1.6517e+01	6.5998	45.847732	0.000780	7.804305	2.644170	0.000312
 168	1.6616e+01	6.6463	46.122257	0.000689	6.892114	2.335111	0.000276
 169	1.6716e+01	6.6832	46.364485	0.000608	6.081277	2.060392	0.000243
 170	1.6816e+01	6.7298	46.639011	0.000689	6.892114	2.335111	0.000276
 171	1.6915e+01	6.7667	46.933722	0.000740	7.398887	2.506811	0.000296
 172	1.7015e+01	6.8084	47.252655	0.000801	8.007015	2.712850	0.000321
 173	1.7114e+01	6.8421	47.506995	0.000639	6.385341	2.163412	0.000256
 174	1.7213e+01	6.8822	47.801706	0.000740	7.398887	2.506811	0.000296
 175	1.7313e+01	6.9239	48.080268	0.000699	6.993468	2.369451	0.000280
 176	1.7413e+01	6.9608	48.399202	0.000801	8.007015	2.712850	0.000321
 177	1.7512e+01	6.9993	48.629319	0.000578	5.777213	1.957373	0.000231
 178	1.7611e+01	7.0378	48.883658	0.000639	6.385341	2.163412	0.000256
 179	1.7711e+01	7.0891	49.186443	0.000760	7.601596	2.575490	0.000304
 180	1.7811e+01	7.1308	49.489228	0.000760	7.601596	2.575490	0.000304
 181	1.7910e+01	7.1549	49.723382	0.000588	5.878568	1.991713	0.000235
 182	1.8009e+01	7.2030	50.054427	0.000831	8.311078	2.815870	0.000333
 183	1.8109e+01	7.2463	50.268396	0.000537	5.371795	1.820013	0.000215
 184	1.8209e+01	7.2720	50.575218	0.000770	7.702951	2.609830	0.000308
 185	1.8308e+01	7.3249	50.825520	0.000628	6.283986	2.129072	0.000252
 186	1.8407e+01	7.3586	51.067749	0.000608	6.081277	2.060392	0.000243
 187	1.8507e+01	7.4083	51.410905	0.000862	8.615142	2.918889	0.000345
 188	1.8607e+01	7.4404	51.645059	0.000588	5.878568	1.991713	0.000235
 189	1.8706e+01	7.4805	51.895361	0.000628	6.283986	2.129072	0.000252
 190	1.8805e+01	7.5174	52.194109	0.000750	7.500242	2.541151	0.000300
 191	1.8905e+01	7.5575	52.468635	0.000689	6.892114	2.335111	0.000276
 192	1.9005e+01	7.6089	52.722974	0.000639	6.385341	2.163412	0.000256
 193	1.9104e+01	7.6426	53.013648	0.000730	7.297532	2.472471	0.000292
 194	1.9203e+01	7.6875	53.255876	0.000608	6.081277	2.060392	0.000243
 195	1.9303e+01	7.7244	53.550587	0.000740	7.398887	2.506811	0.000296
 196	1.9402e+01	7.7581	53.776667	0.000568	5.675858	1.923033	0.000227
 197	1.9502e+01	7.8014	54.095600	0.000801	8.007015	2.712850	0.000321
 198	1.9602e+01	7.8383	54.341866	0.000618	6.182632	2.094732	0.000248
 199	1.9701e+01	7.8928	54.640614	0.000750	7.500242	2.541151	0.000300
 200	1.9800e+01	7.9169	54.866693	0.000568	5.675858	1.923033	0.000227
 201	1.9900e+01	7.9666	55.169478	0.000760	7.601596	2.575490	0.000304
 202	2.0000e+01	7.9955	55.439967	0.000679	6.790759	2.300772	0.000272
 203	2.0099e+01	8.0452	55.645860	0.000517	5.169085	1.751334	0.000207
 204	2.0198e+01	8.0869	55.952683	0.000770	7.702951	2.609830	0.000308
 205	2.0298e+01	8.1174	56.251431	0.000750	7.500242	2.541151	0.000300
 206	2.0398e+01	8.1591	56.493659	0.000608	6.081277	2.060392	0.000243
 207	2.0497e+01	8.2024	56.780296	0.000720	7.196178	2.438131	0.000288
 208	2.0596e+01	8.2425	57.006375	0.000568	5.675858	1.923033	0.000227
 209	2.0696e+01	8.2762	57.252640	0.000618	6.182632	2.094732	0.000248
 210	2.0796e+01	8.3163	57.551389	0.000750	7.500242	2.541151	0.000300
 211	2.0895e+01	8.3677	57.797654	0.000618	6.182632	2.094732	0.000248
 212	2.0994e+01	8.3998	58.092365	0.000740	7.398887	2.506811	0.000296
 213	2.1094e+01	8.4415	58.346704	0.000639	6.385341	2.163412	0.000256
 214	2.1194e+01	8.4784	58.605081	0.000649	6.486695	2.197752	0.000260
 215	2.1293e+01	8.5169	58.867495	0.000659	6.588050	2.232092	0.000264
 216	2.1392e+01	8.5602	59.137983	0.000679	6.790759	2.300772	0.000272
 217	2.1492e+01	8.6115	59.412508	0.000689	6.892114	2.335111	0.000276
 218	2.1591e+01	8.6420	59.666848	0.000639	6.385341	2.163412	0.000256
 219	2.1691e+01	8.6757	59.921187	0.000639	6.385341	2.163412	0.000256
 220	2.1791e+01	8.7174	60.199750	0.000699	6.993468	2.369451	0.000280
 221	2.1890e+01	8.7623	60.450052	0.000628	6.283986	2.129072	0.000252
 222	2.1989e+01	8.7960	60.728614	0.000699	6.993468	2.369451	0.000280
 223	2.2089e+01	8.8281	60.995065	0.000669	6.689405	2.266432	0.000268
 224	2.2189e+01	8.8714	61.233256	0.000598	5.979922	2.026053	0.000239
 225	2.2288e+01	8.9227	61.507782	0.000689	6.892114	2.335111	0.000276
 226	2.2387e+01	8.9596	61.790381	0.000709	7.094823	2.403791	0.000284
 227	2.2487e+01	8.9981	62.036646	0.000618	6.182632	2.094732	0.000248
 228	2.2587e+01	9.0415	62.295023	0.000649	6.486695	2.197752	0.000260
 229	2.2686e+01	9.0767	62.513028	0.000547	5.473149	1.854353	0.000219
 230	2.2785e+01	9.1120	62.783516	0.000679	6.790759	2.300772	0.000272
 231	2.2885e+01	9.1489	63.070153	0.000720	7.196178	2.438131	0.000288
 232	2.2985e+01	9.1987	63.296233	0.000568	5.675858	1.923033	0.000227
 233	2.3084e+01	9.2292	63.582869	0.000720	7.196178	2.438131	0.000288
 234	2.3183e+01	9.2885	63.861432	0.000699	6.993468	2.369451	0.000280
 235	2.3283e+01	9.3126	64.091548	0.000578	5.777213	1.957373	0.000231
 236	2.3383e+01	9.3559	64.321665	0.000578	5.777213	1.957373	0.000231
 237	2.3482e+01	9.3976	64.612339	0.000730	7.297532	2.472471	0.000292
 238	2.3581e+01	9.4457	64.826307	0.000537	5.371795	1.820013	0.000215
 239	2.3681e+01	9.4666	65.108907	0.000709	7.094823	2.403791	0.000284
 240	2.3780e+01	9.5115	65.379395	0.000679	6.790759	2.300772	0.000272
 241	2.3880e+01	9.5564	65.625660	0.000618	6.182632	2.094732	0.000248
 242	2.3980e+01	9.5901	65.920371	0.000740	7.398887	2.506811	0.000296
 243	2.4079e+01	9.6382	66.170673	0.000628	6.283986	2.129072	0.000252
 244	2.4178e+01	9.6703	66.400790	0.000578	5.777213	1.957373	0.000231
 245	2.4278e+01	9.7136	66.667241	0.000669	6.689405	2.266432	0.000268
 246	2.4378e+01	9.7537	66.893321	0.000568	5.675858	1.923033	0.000227
 247	2.4477e+01	9.7938	67.139586	0.000618	6.182632	2.094732	0.000248
 248	2.4576e+01	9.8259	67.361628	0.000557	5.574504	1.888693	0.000223
 249	2.4676e+01	9.8741	67.668451	0.000770	7.702951	2.609830	0.000308
 250	2.4776e+01	9.9190	67.870307	0.000507	5.067731	1.716994	0.000203
 251	2.4875e+01	9.9543	68.169056	0.000750	7.500242	2.541151	0.000300
 252	2.4974e+01	9.9944	68.378987	0.000527	5.270440	1.785673	0.000211
 253	2.5074e+01	10.0281	68.649475	0.000679	6.790759	2.300772	0.000272
 254	2.5174e+01	10.0714	68.903814	0.000639	6.385341	2.163412	0.000256
 255	2.5273e+01	10.1115	69.174302	0.000679	6.790759	2.300772	0.000272
 256	2.5372e+01	10.1484	69.460939	0.000720	7.196178	2.438131	0.000288
 257	2.5472e+01	10.1885	69.695093	0.000588	5.878568	1.991713	0.000235
 258	2.5572e+01	10.2286	69.900987	0.000517	5.169085	1.751334	0.000207
 259	2.5671e+01	10.2655	70.183586	0.000709	7.094823	2.403791	0.000284
 260	2.5770e+01	10.3120	70.421777	0.000598	5.979922	2.026053	0.000239
 261	2.5870e+01	10.3473	70.651894	0.000578	5.777213	1.957373	0.000231
 262	2.5970e+01	10.3922	70.898159	0.000618	6.182632	2.094732	0.000248
 263	2.6069e+01	10.4259	71.164610	0.000669	6.689405	2.266432	0.000268
 264	2.6169e+01	10.4692	71.410876	0.000618	6.182632	2.094732	0.000248
 265	2.6268e+01	10.5125	71.681364	0.000679	6.790759	2.300772	0.000272
 266	2.6367e+01	10.5559	71.891295	0.000527	5.270440	1.785673	0.000211
 267	2.6467e+01	10.5815	72.149671	0.000649	6.486695	2.197752	0.000260
 268	2.6567e+01	10.6296	72.379788	0.000578	5.777213	1.957373	0.000231
 269	2.6666e+01	10.6698	72.617979	0.000598	5.979922	2.026053	0.000239
 270	2.6765e+01	10.7147	72.872319	0.000639	6.385341	2.163412	0.000256
 271	2.6865e+01	10.7516	73.126658	0.000639	6.385341	2.163412	0.000256
 272	2.6965e+01	10.7869	73.380998	0.000639	6.385341	2.163412	0.000256
 273	2.7064e+01	10.8286	73.631300	0.000628	6.283986	2.129072	0.000252
 274	2.7163e+01	10.8671	73.849305	0.000547	5.473149	1.854353	0.000219
 275	2.7263e+01	10.9168	74.079422	0.000578	5.777213	1.957373	0.000231
 276	2.7363e+01	10.9537	74.353947	0.000689	6.892114	2.335111	0.000276
 277	2.7462e+01	10.9970	74.588101	0.000588	5.878568	1.991713	0.000235
 278	2.7561e+01	11.0275	74.826292	0.000598	5.979922	2.026053	0.000239
 279	2.7661e+01	11.0708	75.068520	0.000608	6.081277	2.060392	0.000243
 280	2.7761e+01	11.1189	75.298637	0.000578	5.777213	1.957373	0.000231
 281	2.7860e+01	11.1430	75.557014	0.000649	6.486695	2.197752	0.000260
 282	2.7959e+01	11.1879	75.799242	0.000608	6.081277	2.060392	0.000243
 283	2.8059e+01	11.2200	76.025322	0.000568	5.675858	1.923033	0.000227
 284	2.8159e+01	11.2681	76.295810	0.000679	6.790759	2.300772	0.000272
 285	2.8258e+01	11.3082	76.554186	0.000649	6.486695	2.197752	0.000260
 286	2.8358e+01	11.3435	76.800452	0.000618	6.182632	2.094732	0.000248
 287	2.8457e+01	11.3884	77.038643	0.000598	5.979922	2.026053	0.000239
 288	2.8556e+01	11.4173	77.252611	0.000537	5.371795	1.820013	0.000215
 289	2.8656e+01	11.4590	77.527136	0.000689	6.892114	2.335111	0.000276
 290	2.8756e+01	11.5168	77.757253	0.000578	5.777213	1.957373	0.000231
 291	2.8855e+01	11.5473	78.015630	0.000649	6.486695	2.197752	0.000260
 292	2.8954e+01	11.5826	78.209412	0.000487	4.865022	1.648314	0.000195
 293	2.9054e+01	11.6259	78.463752	0.000639	6.385341	2.163412	0.000256
 294	2.9154e+01	11.6708	78.657534	0.000487	4.865022	1.648314	0.000195
 295	2.9253e+01	11.7125	78.891688	0.000588	5.878568	1.991713	0.000235
 296	2.9352e+01	11.7430	79.186399	0.000740	7.398887	2.506811	0.000296
 297	2.9452e+01	11.7911	79.428627	0.000608	6.081277	2.060392	0.000243
 298	2.9552e+01	11.8312	79.662781	0.000588	5.878568	1.991713	0.000235
 299	2.9651e+01	11.8681	79.913083	0.000628	6.283986	2.129072	0.000252
 300	2.9750e+01	11.9050	80.123014	0.000527	5.270440	1.785673	0.000211
 301	2.9850e+01	11.9547	80.373317	0.000628	6.283986	2.129072	0.000252
 302	2.9950e+01	11.9868	80.599396	0.000568	5.675858	1.923033	0.000227
 303	3.0049e+01	12.0125	80.833550	0.000588	5.878568	1.991713	0.000235
 304	3.0148e+01	12.0622	81.067704	0.000588	5.878568	1.991713	0.000235
 305	3.0248e+01	12.1039	81.338192	0.000679	6.790759	2.300772	0.000272
 306	3.0348e+01	12.1424	81.556198	0.000547	5.473149	1.854353	0.000219
 307	3.0447e+01	12.1825	81.806500	0.000628	6.283986	2.129072	0.000252
 308	3.0547e+01	12.2323	82.016431	0.000527	5.270440	1.785673	0.000211
 309	3.0646e+01	12.2644	82.294993	0.000699	6.993468	2.369451	0.000280
 310	3.0745e+01	12.3029	82.500887	0.000517	5.169085	1.751334	0.000207
 311	3.0845e+01	12.3446	82.735041	0.000588	5.878568	1.991713	0.000235
 312	3.0945e+01	12.3831	82.997455	0.000659	6.588050	2.232092	0.000264
 313	3.1044e+01	12.4280	83.207386	0.000527	5.270440	1.785673	0.000211
 314	3.1143e+01	12.4617	83.393094	0.000466	4.662312	1.579634	0.000187
 315	3.1243e+01	12.4938	83.659545	0.000669	6.689405	2.266432	0.000268
 316	3.1343e+01	12.5355	83.925996	0.000669	6.689405	2.266432	0.000268
 317	3.1442e+01	12.5820	84.111705	0.000466	4.662312	1.579634	0.000187
 318	3.1541e+01	12.6157	84.349896	0.000598	5.979922	2.026053	0.000239
 319	3.1641e+01	12.6542	84.600198	0.000628	6.283986	2.129072	0.000252
 320	3.1741e+01	12.7087	84.858575	0.000649	6.486695	2.197752	0.000260
 321	3.1840e+01	12.7392	85.068506	0.000527	5.270440	1.785673	0.000211
 322	3.1939e+01	12.7825	85.302660	0.000588	5.878568	1.991713	0.000235
 323	3.2039e+01	12.8162	85.520665	0.000547	5.473149	1.854353	0.000219
 324	3.2139e+01	12.8611	85.734633	0.000537	5.371795	1.820013	0.000215
 325	3.2238e+01	12.9028	85.960713	0.000568	5.675858	1.923033	0.000227
 326	3.2337e+01	12.9349	86.211015	0.000628	6.283986	2.129072	0.000252
 327	3.2437e+01	12.9766	86.424983	0.000537	5.371795	1.820013	0.000215
 328	3.2536e+01	13.0103	86.687397	0.000659	6.588050	2.232092	0.000264
 329	3.2636e+01	13.0585	86.873105	0.000466	4.662312	1.579634	0.000187
 330	3.2736e+01	13.0970	87.099185	0.000568	5.675858	1.923033	0.000227
 331	3.2835e+01	13.1339	87.325265	0.000568	5.675858	1.923033	0.000227
 332	3.2934e+01	13.1804	87.535196	0.000527	5.270440	1.785673	0.000211
 333	3.3034e+01	13.2221	87.773387	0.000598	5.979922	2.026053	0.000239
 334	3.3133e+01	13.2478	88.023689	0.000628	6.283986	2.129072	0.000252
 335	3.3233e+01	13.2959	88.257843	0.000588	5.878568	1.991713	0.000235
 336	3.3333e+01	13.3472	88.455663	0.000497	4.966376	1.682654	0.000199
 337	3.3432e+01	13.3745	88.693854	0.000598	5.979922	2.026053	0.000239
 338	3.3532e+01	13.4114	88.928007	0.000588	5.878568	1.991713	0.000235
 339	3.3631e+01	13.4691	89.162161	0.000588	5.878568	1.991713	0.000235
 340	3.3730e+01	13.4948	89.384204	0.000557	5.574504	1.888693	0.000223
 341	3.3830e+01	13.5333	89.598172	0.000537	5.371795	1.820013	0.000215
 342	3.3929e+01	13.5782	89.848474	0.000628	6.283986	2.129072	0.000252
 343	3.4029e+01	13.6167	90.078591	0.000578	5.777213	1.957373	0.000231
 344	3.4129e+01	13.6600	90.316782	0.000598	5.979922	2.026053	0.000239
 345	3.4228e+01	13.6889	90.510565	0.000487	4.865022	1.648314	0.000195
 346	3.4328e+01	13.7290	90.760867	0.000628	6.283986	2.129072	0.000252
 347	3.4427e+01	13.7772	90.958687	0.000497	4.966376	1.682654	0.000199
 348	3.4526e+01	13.8157	91.213026	0.000639	6.385341	2.163412	0.000256
 349	3.4626e+01	13.8526	91.455254	0.000608	6.081277	2.060392	0.000243
 350	3.4725e+01	13.8959	91.620777	0.000416	4.155539	1.407935	0.000166
 351	3.4825e+01	13.9360	91.875117	0.000639	6.385341	2.163412	0.000256
 352	3.4925e+01	13.9745	92.093122	0.000547	5.473149	1.854353	0.000219
 353	3.5024e+01	14.0210	92.335350	0.000608	6.081277	2.060392	0.000243
 354	3.5123e+01	14.0563	92.537207	0.000507	5.067731	1.716994	0.000203
 355	3.5223e+01	14.0932	92.807695	0.000679	6.790759	2.300772	0.000272
 356	3.5322e+01	14.1333	92.965143	0.000395	3.952830	1.339255	0.000158
 357	3.5422e+01	14.1782	93.211408	0.000618	6.182632	2.094732	0.000248
 358	3.5522e+01	14.2119	93.473822	0.000659	6.588050	2.232092	0.000264
 359	3.5621e+01	14.2504	93.687791	0.000537	5.371795	1.820013	0.000215
 360	3.5721e+01	14.2825	93.885610	0.000497	4.966376	1.682654	0.000199
 361	3.5820e+01	14.3322	94.079393	0.000487	4.865022	1.648314	0.000195
 362	3.5919e+01	14.3723	94.325658	0.000618	6.182632	2.094732	0.000248
 363	3.6019e+01	14.4108	94.567886	0.000608	6.081277	2.060392	0.000243
 364	3.6118e+01	14.4525	94.773780	0.000517	5.169085	1.751334	0.000207
 365	3.6218e+01	14.4878	95.024082	0.000628	6.283986	2.129072	0.000252
 366	3.6318e+01	14.5295	95.238051	0.000537	5.371795	1.820013	0.000215
 367	3.6417e+01	14.5793	95.431833	0.000487	4.865022	1.648314	0.000195
 368	3.6517e+01	14.6033	95.678098	0.000618	6.182632	2.094732	0.000248
 369	3.6616e+01	14.6595	95.912252	0.000588	5.878568	1.991713	0.000235
 370	3.6715e+01	14.6916	96.097961	0.000466	4.662312	1.579634	0.000187
 371	3.6815e+01	14.7220	96.311929	0.000537	5.371795	1.820013	0.000215
 372	3.6914e+01	14.7782	96.529934	0.000547	5.473149	1.854353	0.000219
 373	3.7014e+01	14.8215	96.751977	0.000557	5.574504	1.888693	0.000223
 374	3.7114e+01	14.8456	96.974019	0.000557	5.574504	1.888693	0.000223
 375	3.7213e+01	14.8921	97.204136	0.000578	5.777213	1.957373	0.000231
 376	3.7313e+01	14.9322	97.397918	0.000487	4.865022	1.648314	0.000195
 377	3.7412e+01	14.9675	97.668406	0.000679	6.790759	2.300772	0.000272
 378	3.7511e+01	15.0124	97.850077	0.000456	4.560958	1.545294	0.000183
 379	3.7611e+01	15.0525	98.096343	0.000618	6.182632	2.094732	0.000248
 380	3.7711e+01	15.0942	98.298200	0.000507	5.067731	1.716994	0.000203
 381	3.7810e+01	15.1327	98.516205	0.000547	5.473149	1.854353	0.000219
 382	3.7910e+01	15.1760	98.705950	0.000476	4.763667	1.613974	0.000191
 383	3.8009e+01	15.2210	98.948178	0.000608	6.081277	2.060392	0.000243
 384	3.8108e+01	15.2466	99.145998	0.000497	4.966376	1.682654	0.000199
 385	3.8208e+01	15.2915	99.339781	0.000487	4.865022	1.648314	0.000195
 386	3.8307e+01	15.3220	99.602194	0.000659	6.588050	2.232092	0.000264
 387	3.8407e+01	15.3702	99.779828	0.000446	4.459603	1.510954	0.000179
 388	3.8507e+01	15.3990	100.022056	0.000608	6.081277	2.060392	0.000243
 389	3.8606e+01	15.4520	100.219876	0.000497	4.966376	1.682654	0.000199
 390	3.8706e+01	15.4857	100.433844	0.000537	5.371795	1.820013	0.000215
 391	3.8805e+01	15.5258	100.676072	0.000608	6.081277	2.060392	0.000243
 392	3.8904e+01	15.5675	100.894078	0.000547	5.473149	1.854353	0.000219
 393	3.9004e+01	15.6140	101.067675	0.000436	4.358248	1.476615	0.000174
 394	3.9103e+01	15.6461	101.317977	0.000628	6.283986	2.129072	0.000252
 395	3.9203e+01	15.6926	101.531945	0.000537	5.371795	1.820013	0.000215
 396	3.9303e+01	15.7263	101.717653	0.000466	4.662312	1.579634	0.000187
 397	3.9402e+01	15.7664	101.947770	0.000578	5.777213	1.957373	0.000231
 398	3.9502e+01	15.8097	102.157701	0.000527	5.270440	1.785673	0.000211
 399	3.9601e+01	15.8482	102.375707	0.000547	5.473149	1.854353	0.000219
 400	3.9700e+01	15.8771	102.581601	0.000517	5.169085	1.751334	0.000207
 401	3.9800e+01	15.9268	102.775383	0.000487	4.865022	1.648314	0.000195
 402	3.9900e+01	15.9621	103.045871	0.000679	6.790759	2.300772	0.000272
 403	3.9999e+01	16.0054	103.227542	0.000456	4.560958	1.545294	0.000183
 404	4.0099e+01	16.0503	103.441510	0.000537	5.371795	1.820013	0.000215
 405	4.0198e+01	16.0889	103.651442	0.000527	5.270440	1.785673	0.000211
 406	4.0297e+01	16.1209	103.873484	0.000557	5.574504	1.888693	0.000223
 407	4.0397e+01	16.1626	104.103601	0.000578	5.777213	1.957373	0.000231
 408	4.0496e+01	16.2076	104.297383	0.000487	4.865022	1.648314	0.000195
 409	4.0596e+01	16.2477	104.507314	0.000527	5.270440	1.785673	0.000211
 410	4.0696e+01	16.2846	104.729357	0.000557	5.574504	1.888693	0.000223
 411	4.0795e+01	16.3231	104.963511	0.000588	5.878568	1.991713	0.000235
 412	4.0895e+01	16.3680	105.149219	0.000466	4.662312	1.579634	0.000187
 413	4.0994e+01	16.4049	105.338964	0.000476	4.763667	1.613974	0.000191
 414	4.1093e+01	16.4402	105.561007	0.000557	5.574504	1.888693	0.000223
 415	4.1193e+01	16.4819	105.742678	0.000456	4.560958	1.545294	0.000183
 416	4.1292e+01	16.5332	105.940497	0.000497	4.966376	1.682654	0.000199
 417	4.1392e+01	16.5605	106.198874	0.000649	6.486695	2.197752	0.000260
 418	4.1492e+01	16.6006	106.376508	0.000446	4.459603	1.510954	0.000179
 419	4.1591e+01	16.6439	106.610662	0.000588	5.878568	1.991713	0.000235
 420	4.1691e+01	16.6856	106.852890	0.000608	6.081277	2.060392	0.000243
 421	4.1790e+01	16.7289	107.030524	0.000446	4.459603	1.510954	0.000179
 422	4.1889e+01	16.7674	107.248529	0.000547	5.473149	1.854353	0.000219
 423	4.1989e+01	16.7995	107.430201	0.000456	4.560958	1.545294	0.000183
 424	4.2089e+01	16.8428	107.652243	0.000557	5.574504	1.888693	0.000223
 425	4.2188e+01	16.8813	107.866211	0.000537	5.371795	1.820013	0.000215
 426	4.2288e+01	16.9247	108.047882	0.000456	4.560958	1.545294	0.000183
 427	4.2387e+01	16.9680	108.282036	0.000588	5.878568	1.991713	0.000235
 428	4.2486e+01	17.0049	108.471782	0.000476	4.763667	1.613974	0.000191
 429	4.2586e+01	17.0450	108.697861	0.000568	5.675858	1.923033	0.000227
 430	4.2685e+01	17.0867	108.895681	0.000497	4.966376	1.682654	0.000199
 431	4.2785e+01	17.1220	109.101575	0.000517	5.169085	1.751334	0.000207
 432	4.2885e+01	17.1637	109.295357	0.000487	4.865022	1.648314	0.000195
 433	4.2984e+01	17.2038	109.505288	0.000527	5.270440	1.785673	0.000211
 434	4.3084e+01	17.2455	109.743479	0.000598	5.979922	2.026053	0.000239
 435	4.3183e+01	17.2824	109.921113	0.000446	4.459603	1.510954	0.000179
 436	4.3282e+01	17.3225	110.139119	0.000547	5.473149	1.854353	0.000219
 437	4.3382e+01	17.3562	110.353087	0.000537	5.371795	1.820013	0.000215
 438	4.3481e+01	17.4075	110.534758	0.000456	4.560958	1.545294	0.000183
 439	4.3581e+01	17.4428	110.732578	0.000497	4.966376	1.682654	0.000199
 440	4.3681e+01	17.4861	110.934434	0.000507	5.067731	1.716994	0.000203
 441	4.3780e+01	17.5118	111.176663	0.000608	6.081277	2.060392	0.000243
 442	4.3880e+01	17.5583	111.358334	0.000456	4.560958	1.545294	0.000183
 443	4.3979e+01	17.5984	111.572302	0.000537	5.371795	1.820013	0.000215
 444	4.4078e+01	17.6417	111.774159	0.000507	5.067731	1.716994	0.000203
 445	4.4178e+01	17.6819	111.980053	0.000517	5.169085	1.751334	0.000207
 446	4.4278e+01	17.7236	112.189984	0.000527	5.270440	1.785673	0.000211
 447	4.4377e+01	17.7701	112.420100	0.000578	5.777213	1.957373	0.000231
 448	4.4477e+01	17.8006	112.569474	0.000375	3.750121	1.270575	0.000150
 449	4.4576e+01	17.8439	112.803628	0.000588	5.878568	1.991713	0.000235
 450	4.4675e+01	17.8776	112.981262	0.000446	4.459603	1.510954	0.000179
 451	4.4775e+01	17.9177	113.191193	0.000527	5.270440	1.785673	0.000211
 452	4.4874e+01	17.9642	113.433421	0.000608	6.081277	2.060392	0.000243
 453	4.4974e+01	17.9915	113.639315	0.000517	5.169085	1.751334	0.000207
 454	4.5074e+01	18.0380	113.833098	0.000487	4.865022	1.648314	0.000195
 455	4.5173e+01	18.0765	114.002658	0.000426	4.256894	1.442275	0.000170
 456	4.5273e+01	18.1134	114.220663	0.000547	5.473149	1.854353	0.000219
 457	4.5372e+01	18.1631	114.414445	0.000487	4.865022	1.648314	0.000195
 458	4.5471e+01	18.1984	114.624376	0.000527	5.270440	1.785673	0.000211
 459	4.5571e+01	18.2369	114.862567	0.000598	5.979922	2.026053	0.000239
 460	4.5670e+01	18.2754	115.040201	0.000446	4.459603	1.510954	0.000179
 461	4.5770e+01	18.3187	115.246095	0.000517	5.169085	1.751334	0.000207
 462	4.5870e+01	18.3524	115.451989	0.000517	5.169085	1.751334	0.000207
 463	4.5969e+01	18.3941	115.625586	0.000436	4.358248	1.476615	0.000174
 464	4.6069e+01	18.4374	115.847629	0.000557	5.574504	1.888693	0.000223
 465	4.6168e+01	18.4759	116.037374	0.000476	4.763667	1.613974	0.000191
 466	4.6267e+01	18.5321	116.267491	0.000578	5.777213	1.957373	0.000231
 467	4.6367e+01	18.5562	116.433013	0.000416	4.155539	1.407935	0.000166
 468	4.6467e+01	18.6027	116.667167	0.000588	5.878568	1.991713	0.000235
 469	4.6566e+01	18.6332	116.824615	0.000395	3.952830	1.339255	0.000158
 470	4.6666e+01	18.6685	117.058769	0.000588	5.878568	1.991713	0.000235
 471	4.6765e+01	18.7182	117.280812	0.000557	5.574504	1.888693	0.000223
 472	4.6864e+01	18.7631	117.478631	0.000497	4.966376	1.682654	0.000199
 473	4.6964e+01	18.7952	117.668377	0.000476	4.763667	1.613974	0.000191
 474	4.7063e+01	18.8353	117.858122	0.000476	4.763667	1.613974	0.000191
 475	4.7163e+01	18.8786	118.051905	0.000487	4.865022	1.648314	0.000195
 476	4.7263e+01	18.9235	118.290096	0.000598	5.979922	2.026053	0.000239
 477	4.7362e+01	18.9556	118.439470	0.000375	3.750121	1.270575	0.000150
 478	4.7462e+01	18.9941	118.661512	0.000557	5.574504	1.888693	0.000223
 479	4.7561e+01	19.0406	118.875480	0.000537	5.371795	1.820013	0.000215
 480	4.7660e+01	19.0743	119.081374	0.000517	5.169085	1.751334	0.000207
 481	4.7760e+01	19.1160	119.234785	0.000385	3.851475	1.304915	0.000154
 482	4.7859e+01	19.1545	119.456828	0.000557	5.574504	1.888693	0.000223
 483	4.7959e+01	19.1914	119.650610	0.000487	4.865022	1.648314	0.000195
 484	4.8059e+01	19.2299	119.856504	0.000517	5.169085	1.751334	0.000207
 485	4.8158e+01	19.2700	120.054324	0.000497	4.966376	1.682654	0.000199
 486	4.8258e+01	19.3102	120.264255	0.000527	5.270440	1.785673	0.000211
 487	4.8357e+01	19.3583	120.474186	0.000527	5.270440	1.785673	0.000211
 488	4.8456e+01	19.3936	120.655857	0.000456	4.560958	1.545294	0.000183
 489	4.8556e+01	19.4337	120.817343	0.000405	4.054185	1.373595	0.000162
 490	4.8656e+01	19.4738	121.027274	0.000527	5.270440	1.785673	0.000211
 491	4.8755e+01	19.5171	121.241242	0.000537	5.371795	1.820013	0.000215
 492	4.8855e+01	19.5540	121.414839	0.000436	4.358248	1.476615	0.000174
 493	4.8954e+01	19.5989	121.657067	0.000608	6.081277	2.060392	0.000243
 494	4.9053e+01	19.6406	121.838738	0.000456	4.560958	1.545294	0.000183
 495	4.9153e+01	19.6743	122.020409	0.000456	4.560958	1.545294	0.000183
 496	4.9252e+01	19.7160	122.238414	0.000547	5.473149	1.854353	0.000219
 497	4.9352e+01	19.7481	122.444308	0.000517	5.169085	1.751334	0.000207
 498	4.9452e+01	19.7866	122.605794	0.000405	4.054185	1.373595	0.000162
 499	4.9551e+01	19.8267	122.815725	0.000527	5.270440	1.785673	0.000211
 500	4.9651e+01	19.8845	123.029693	0.000537	5.371795	1.820013	0.000215
 501	4.9750e+01	19.9149	123.199253	0.000426	4.256894	1.442275	0.000170
 502	4.9849e+01	19.9502	123.409184	0.000527	5.270440	1.785673	0.000211
 503	4.9949e+01	19.9871	123.615078	0.000517	5.169085	1.751334	0.000207
 504	5.0048e+01	19.9567	123.485889	0.000324	3.243348	1.098876	-0.000130
 505	5.0148e+01	19.9117	123.368812	0.000294	2.939284	0.995856	-0.000118
 506	5.0248e+01	19.8684	123.243661	0.000314	3.141993	1.064536	-0.000126
 507	5.0347e+01	19.8283	123.106399	0.000345	3.446057	1.167556	-0.000138
 508	5.0447e+01	19.7866	123.009507	0.000243	2.432511	0.824157	-0.000097
 509	5.0546e+01	19.7561	122.876282	0.000334	3.344702	1.133216	-0.000134
 510	5.0645e+01	19.7144	122.726908	0.000375	3.750121	1.270575	-0.000150
 511	5.0745e+01	19.6743	122.589645	0.000345	3.446057	1.167556	-0.000138
 512	5.0844e+01	19.6166	122.436234	0.000385	3.851475	1.304915	-0.000154
 513	5.0944e+01	19.5925	122.319157	0.000294	2.939284	0.995856	-0.000118
 514	5.1044e+01	19.5588	122.157672	0.000405	4.054185	1.373595	-0.000162
 515	5.1143e+01	19.5203	122.060780	0.000243	2.432511	0.824157	-0.000097
 516	5.1242e+01	19.4754	121.875072	0.000466	4.662312	1.579634	-0.000187
 517	5.1342e+01	19.4353	121.737810	0.000345	3.446057	1.167556	-0.000138
 518	5.1441e+01	19.3904	121.584398	0.000385	3.851475	1.304915	-0.000154
 519	5.1541e+01	19.3599	121.467322	0.000294	2.939284	0.995856	-0.000118
 520	5.1641e+01	19.3166	121.313910	0.000385	3.851475	1.304915	-0.000154
 521	5.1740e+01	19.2749	121.172611	0.000355	3.547412	1.201896	-0.000142
 522	5.1840e+01	19.2396	121.035348	0.000345	3.446057	1.167556	-0.000138
 523	5.1939e+01	19.1979	120.869825	0.000416	4.155539	1.407935	-0.000166
 524	5.2038e+01	19.1610	120.732563	0.000345	3.446057	1.167556	-0.000138
 525	5.2138e+01	19.1241	120.591263	0.000355	3.547412	1.201896	-0.000142
 526	5.2237e+01	19.0791	120.413629	0.000446	4.459603	1.510954	-0.000179
 527	5.2337e+01	19.0246	120.272329	0.000355	3.547412	1.201896	-0.000142
 528	5.2437e+01	18.9989	120.110844	0.000405	4.054185	1.373595	-0.000162
 529	5.2536e+01	18.9620	119.985693	0.000314	3.141993	1.064536	-0.000126
 530	5.2636e+01	18.9171	119.808059	0.000446	4.459603	1.510954	-0.000179
 531	5.2735e+01	18.8850	119.682908	0.000314	3.141993	1.064536	-0.000126
 532	5.2834e+01	18.8369	119.521422	0.000405	4.054185	1.373595	-0.000162
 533	5.2934e+01	18.7968	119.363974	0.000395	3.952830	1.339255	-0.000158
 534	5.3033e+01	18.7615	119.174228	0.000476	4.763667	1.613974	-0.000191
 535	5.3133e+01	18.7230	119.057151	0.000294	2.939284	0.995856	-0.000118
 536	5.3233e+01	18.6781	118.903740	0.000385	3.851475	1.304915	-0.000154
 537	5.3332e+01	18.6380	118.701884	0.000507	5.067731	1.716994	-0.000203
 538	5.3431e+01	18.5947	118.568658	0.000334	3.344702	1.133216	-0.000134
 539	5.3531e+01	18.5674	118.415247	0.000385	3.851475	1.304915	-0.000154
 540	5.3630e+01	18.5177	118.273947	0.000355	3.547412	1.201896	-0.000142
 541	5.3730e+01	18.4759	118.084202	0.000476	4.763667	1.613974	-0.000191
 542	5.3830e+01	18.4391	117.906568	0.000446	4.459603	1.510954	-0.000179
 543	5.3929e+01	18.3957	117.769305	0.000345	3.446057	1.167556	-0.000138
 544	5.4029e+01	18.3588	117.607820	0.000405	4.054185	1.373595	-0.000162
 545	5.4128e+01	18.3219	117.462483	0.000365	3.648766	1.236235	-0.000146
 546	5.4227e+01	18.2722	117.288886	0.000436	4.358248	1.476615	-0.000174
 547	5.4327e+01	18.2337	117.139512	0.000375	3.750121	1.270575	-0.000150
 548	5.4426e+01	18.1984	116.994175	0.000365	3.648766	1.236235	-0.000146
 549	5.4526e+01	18.1567	116.820578	0.000436	4.358248	1.476615	-0.000174
 550	5.4626e+01	18.1166	116.663130	0.000395	3.952830	1.339255	-0.000158
 551	5.4725e+01	18.0765	116.513756	0.000375	3.750121	1.270575	-0.000150
 552	5.4825e+01	18.0380	116.324011	0.000476	4.763667	1.613974	-0.000191
 553	5.4924e+01	18.0011	116.170599	0.000385	3.851475	1.304915	-0.000154
 554	5.5023e+01	17.9594	116.021225	0.000375	3.750121	1.270575	-0.000150
 555	5.5123e+01	17.9241	115.851666	0.000426	4.256894	1.442275	-0.000170
 556	5.5222e+01	17.8808	115.694217	0.000395	3.952830	1.339255	-0.000158
 557	5.5322e+01	17.8407	115.536769	0.000395	3.952830	1.339255	-0.000158
 558	5.5422e+01	17.7990	115.294541	0.000608	6.081277	2.060392	-0.000243
 559	5.5521e+01	17.7556	115.185538	0.000274	2.736575	0.927177	-0.000110
 560	5.5620e+01	17.7252	115.036164	0.000375	3.750121	1.270575	-0.000150
 561	5.5720e+01	17.6883	114.858530	0.000446	4.459603	1.510954	-0.000179
 562	5.5819e+01	17.6434	114.684933	0.000436	4.358248	1.476615	-0.000174
 563	5.5919e+01	17.6032	114.519411	0.000416	4.155539	1.407935	-0.000166
 564	5.6019e+01	17.5663	114.341777	0.000446	4.459603	1.510954	-0.000179
 565	5.6118e+01	17.5166	114.196440	0.000365	3.648766	1.236235	-0.000146
 566	5.6218e+01	17.4765	113.994583	0.000507	5.067731	1.716994	-0.000203
 567	5.6317e+01	17.4380	113.869432	0.000314	3.141993	1.064536	-0.000126
 568	5.6416e+01	17.4027	113.683724	0.000466	4.662312	1.579634	-0.000187
 569	5.6516e+01	17.3658	113.518201	0.000416	4.155539	1.407935	-0.000166
 570	5.6615e+01	17.3225	113.324419	0.000487	4.865022	1.648314	-0.000195
 571	5.6715e+01	17.2792	113.191193	0.000334	3.344702	1.133216	-0.000134
 572	5.6815e+01	17.2407	112.997411	0.000487	4.865022	1.648314	-0.000195
 573	5.6914e+01	17.2054	112.823814	0.000436	4.358248	1.476615	-0.000174
 574	5.7014e+01	17.1573	112.634069	0.000476	4.763667	1.613974	-0.000191
 575	5.7113e+01	17.1252	112.484695	0.000375	3.750121	1.270575	-0.000150
 576	5.7212e+01	17.0835	112.359543	0.000314	3.141993	1.064536	-0.000126
 577	5.7312e+01	17.0353	112.173835	0.000466	4.662312	1.579634	-0.000187
 578	5.7411e+01	17.0065	112.000238	0.000436	4.358248	1.476615	-0.000174
 579	5.7511e+01	16.9632	111.830679	0.000426	4.256894	1.442275	-0.000170
 580	5.7611e+01	16.9247	111.661119	0.000426	4.256894	1.442275	-0.000170
 581	5.7710e+01	16.8878	111.475411	0.000466	4.662312	1.579634	-0.000187
 582	5.7809e+01	16.8380	111.293739	0.000456	4.560958	1.545294	-0.000183
 583	5.7909e+01	16.8011	111.148403	0.000365	3.648766	1.236235	-0.000146
 584	5.8008e+01	16.7658	110.962694	0.000466	4.662312	1.579634	-0.000187
 585	5.8108e+01	16.7225	110.797172	0.000416	4.155539	1.407935	-0.000166
 586	5.8208e+01	16.6920	110.611464	0.000466	4.662312	1.579634	-0.000187
 587	5.8307e+01	16.6439	110.449978	0.000405	4.054185	1.373595	-0.000162
 588	5.8407e+01	16.6054	110.300604	0.000375	3.750121	1.270575	-0.000150
 589	5.8506e+01	16.5541	110.127007	0.000436	4.358248	1.476615	-0.000174
 590	5.8605e+01	16.5284	109.937262	0.000476	4.763667	1.613974	-0.000191
 591	5.8705e+01	16.4915	109.707145	0.000578	5.777213	1.957373	-0.000231
 592	5.8804e+01	16.4482	109.606217	0.000253	2.533865	0.858497	-0.000101
 593	5.8904e+01	16.4065	109.396286	0.000527	5.270440	1.785673	-0.000211
 594	5.9004e+01	16.3600	109.190392	0.000517	5.169085	1.751334	-0.000207
 595	5.9103e+01	16.3247	109.032943	0.000395	3.952830	1.339255	-0.000158
 596	5.9203e+01	16.2830	108.823012	0.000527	5.270440	1.785673	-0.000211
 597	5.9302e+01	16.2493	108.657490	0.000416	4.155539	1.407935	-0.000166
 598	5.9401e+01	16.2092	108.504079	0.000385	3.851475	1.304915	-0.000154
 599	5.9501e+01	16.1626	108.318370	0.000466	4.662312	1.579634	-0.000187
 600	5.9600e+01	16.1257	108.173034	0.000365	3.648766	1.236235	-0.000146
 601	5.9700e+01	16.0824	107.991362	0.000456	4.560958	1.545294	-0.000183
 602	5.9800e+01	16.0391	107.797580	0.000487	4.865022	1.648314	-0.000195
 603	5.9899e+01	16.0118	107.632057	0.000416	4.155539	1.407935	-0.000166
 604	5.9998e+01	15.9685	107.430201	0.000507	5.067731	1.716994	-0.000203
 605	6.0098e+01	15.9172	107.252567	0.000446	4.459603	1.510954	-0.000179
 606	6.0197e+01	15.8851	107.095118	0.000395	3.952830	1.339255	-0.000158
 607	6.0297e+01	15.8482	106.905373	0.000476	4.763667	1.613974	-0.000191
 608	6.0397e+01	15.8113	106.751962	0.000385	3.851475	1.304915	-0.000154
 609	6.0496e+01	15.7712	106.550105	0.000507	5.067731	1.716994	-0.000203
 610	6.0596e+01	15.7263	106.356322	0.000487	4.865022	1.648314	-0.000195
 611	6.0695e+01	15.6894	106.174651	0.000456	4.560958	1.545294	-0.000183
 612	6.0794e+01	15.6397	106.013166	0.000405	4.054185	1.373595	-0.000162
 613	6.0894e+01	15.6028	105.851680	0.000405	4.054185	1.373595	-0.000162
 614	6.0993e+01	15.5643	105.625601	0.000568	5.675858	1.923033	-0.000227
 615	6.1093e+01	15.5370	105.464115	0.000405	4.054185	1.373595	-0.000162
 616	6.1193e+01	15.4985	105.282444	0.000456	4.560958	1.545294	-0.000183
 617	6.1292e+01	15.4568	105.104810	0.000446	4.459603	1.510954	-0.000179
 618	6.1392e+01	15.4119	104.902954	0.000507	5.067731	1.716994	-0.000203
 619	6.1491e+01	15.3637	104.753580	0.000375	3.750121	1.270575	-0.000150
 620	6.1590e+01	15.3333	104.579983	0.000436	4.358248	1.476615	-0.000174
 621	6.1690e+01	15.2835	104.370052	0.000527	5.270440	1.785673	-0.000211
 622	6.1789e+01	15.2546	104.196455	0.000436	4.358248	1.476615	-0.000174
 623	6.1889e+01	15.2049	104.022858	0.000436	4.358248	1.476615	-0.000174
 624	6.1989e+01	15.1760	103.804853	0.000547	5.473149	1.854353	-0.000219
 625	6.2088e+01	15.1167	103.619144	0.000466	4.662312	1.579634	-0.000187
 626	6.2188e+01	15.0878	103.437473	0.000456	4.560958	1.545294	-0.000183
 627	6.2287e+01	15.0477	103.284062	0.000385	3.851475	1.304915	-0.000154
 628	6.2386e+01	15.0108	103.126614	0.000395	3.952830	1.339255	-0.000158
 629	6.2486e+01	14.9643	102.916683	0.000527	5.270440	1.785673	-0.000211
 630	6.2586e+01	14.9306	102.714826	0.000507	5.067731	1.716994	-0.000203
 631	6.2685e+01	14.8921	102.537192	0.000446	4.459603	1.510954	-0.000179
 632	6.2785e+01	14.8504	102.351484	0.000466	4.662312	1.579634	-0.000187
 633	6.2884e+01	14.8135	102.189998	0.000405	4.054185	1.373595	-0.000162
 634	6.2983e+01	14.7734	102.000253	0.000476	4.763667	1.613974	-0.000191
 635	6.3083e+01	14.7301	101.790322	0.000527	5.270440	1.785673	-0.000211
 636	6.3182e+01	14.6884	101.604614	0.000466	4.662312	1.579634	-0.000187
 637	6.3282e+01	14.6466	101.418905	0.000466	4.662312	1.579634	-0.000187
 638	6.3382e+01	14.6065	101.241271	0.000446	4.459603	1.510954	-0.000179
 639	6.3481e+01	14.5777	101.039415	0.000507	5.067731	1.716994	-0.000203
 640	6.3581e+01	14.5247	100.845632	0.000487	4.865022	1.648314	-0.000195
 641	6.3680e+01	14.4862	100.688184	0.000395	3.952830	1.339255	-0.000158
 642	6.3779e+01	14.4541	100.482290	0.000517	5.169085	1.751334	-0.000207
 643	6.3879e+01	14.4124	100.288507	0.000487	4.865022	1.648314	-0.000195
 644	6.3978e+01	14.3691	100.127022	0.000405	4.054185	1.373595	-0.000162
 645	6.4078e+01	14.3290	99.921128	0.000517	5.169085	1.751334	-0.000207
 646	6.4177e+01	14.2873	99.719271	0.000507	5.067731	1.716994	-0.000203
 647	6.4277e+01	14.2552	99.553749	0.000416	4.155539	1.407935	-0.000166
 648	6.4376e+01	14.2087	99.323632	0.000578	5.777213	1.957373	-0.000231
 649	6.4476e+01	14.1750	99.154072	0.000426	4.256894	1.442275	-0.000170
 650	6.4576e+01	14.1349	99.000661	0.000385	3.851475	1.304915	-0.000154
 651	6.4675e+01	14.0868	98.790730	0.000527	5.270440	1.785673	-0.000211
 652	6.4775e+01	14.0499	98.621170	0.000426	4.256894	1.442275	-0.000170
 653	6.4874e+01	14.0146	98.403165	0.000547	5.473149	1.854353	-0.000219
 654	6.4974e+01	13.9681	98.221494	0.000456	4.560958	1.545294	-0.000183
 655	6.5073e+01	13.9392	98.039823	0.000456	4.560958	1.545294	-0.000183
 656	6.5172e+01	13.8959	97.813743	0.000568	5.675858	1.923033	-0.000227
 657	6.5272e+01	13.8461	97.628035	0.000466	4.662312	1.579634	-0.000187
 658	6.5371e+01	13.8221	97.458475	0.000426	4.256894	1.442275	-0.000170
 659	6.5471e+01	13.7755	97.252581	0.000517	5.169085	1.751334	-0.000207
 660	6.5570e+01	13.7354	97.078985	0.000436	4.358248	1.476615	-0.000174
 661	6.5670e+01	13.6841	96.836756	0.000608	6.081277	2.060392	-0.000243
 662	6.5769e+01	13.6552	96.703531	0.000334	3.344702	1.133216	-0.000134
 663	6.5869e+01	13.6247	96.513786	0.000476	4.763667	1.613974	-0.000191
 664	6.5969e+01	13.5798	96.291743	0.000557	5.574504	1.888693	-0.000223
 665	6.6068e+01	13.5477	96.093923	0.000497	4.966376	1.682654	-0.000199
 666	6.6168e+01	13.4932	95.892067	0.000507	5.067731	1.716994	-0.000203
 667	6.6267e+01	13.4659	95.706358	0.000466	4.662312	1.579634	-0.000187
 668	6.6367e+01	13.4194	95.496427	0.000527	5.270440	1.785673	-0.000211
 669	6.6466e+01	13.3809	95.318793	0.000446	4.459603	1.510954	-0.000179
 670	6.6566e+01	13.3440	95.116937	0.000507	5.067731	1.716994	-0.000203
 671	6.6665e+01	13.2959	94.951414	0.000416	4.155539	1.407935	-0.000166
 672	6.6764e+01	13.2542	94.717260	0.000588	5.878568	1.991713	-0.000235
 673	6.6864e+01	13.2157	94.479069	0.000598	5.979922	2.026053	-0.000239
 674	6.6963e+01	13.1820	94.349881	0.000324	3.243348	1.098876	-0.000130
 675	6.7063e+01	13.1355	94.156098	0.000487	4.865022	1.648314	-0.000195
 676	6.7162e+01	13.0937	93.942130	0.000537	5.371795	1.820013	-0.000215
 677	6.7262e+01	13.0520	93.768533	0.000436	4.358248	1.476615	-0.000174
 678	6.7362e+01	13.0183	93.582825	0.000466	4.662312	1.579634	-0.000187
 679	6.7461e+01	12.9798	93.352708	0.000578	5.777213	1.957373	-0.000231
 680	6.7561e+01	12.9365	93.167000	0.000466	4.662312	1.579634	-0.000187
 681	6.7660e+01	12.8948	93.005515	0.000405	4.054185	1.373595	-0.000162
 682	6.7760e+01	12.8659	92.779435	0.000568	5.675858	1.923033	-0.000227
 683	6.7859e+01	12.8210	92.609875	0.000426	4.256894	1.442275	-0.000170
 684	6.7959e+01	12.7809	92.424167	0.000466	4.662312	1.579634	-0.000187
 685	6.8058e+01	12.7408	92.206162	0.000547	5.473149	1.854353	-0.000219
 686	6.8157e+01	12.7055	92.008342	0.000497	4.966376	1.682654	-0.000199
 687	6.8257e+01	12.6542	91.794374	0.000537	5.371795	1.820013	-0.000215
 688	6.8356e+01	12.6253	91.624814	0.000426	4.256894	1.442275	-0.000170
 689	6.8456e+01	12.5820	91.386623	0.000598	5.979922	2.026053	-0.000239
 690	6.8555e+01	12.5419	91.229175	0.000395	3.952830	1.339255	-0.000158
 691	6.8655e+01	12.4986	90.995021	0.000588	5.878568	1.991713	-0.000235
 692	6.8754e+01	12.4601	90.813350	0.000456	4.560958	1.545294	-0.000183
 693	6.8854e+01	12.4232	90.623604	0.000476	4.763667	1.613974	-0.000191
 694	6.8954e+01	12.3831	90.397525	0.000568	5.675858	1.923033	-0.000227
 695	6.9053e+01	12.3414	90.211817	0.000466	4.662312	1.579634	-0.000187
 696	6.9153e+01	12.3045	90.009960	0.000507	5.067731	1.716994	-0.000203
 697	6.9252e+01	12.2644	89.767732	0.000608	6.081277	2.060392	-0.000243
 698	6.9352e+01	12.2194	89.610283	0.000395	3.952830	1.339255	-0.000158
 699	6.9451e+01	12.1874	89.424575	0.000466	4.662312	1.579634	-0.000187
 700	6.9550e+01	12.1376	89.198496	0.000568	5.675858	1.923033	-0.000227
 701	6.9650e+01	12.1055	88.976453	0.000557	5.574504	1.888693	-0.000223
 702	6.9749e+01	12.0622	88.810931	0.000416	4.155539	1.407935	-0.000166
 703	6.9849e+01	12.0269	88.580814	0.000578	5.777213	1.957373	-0.000231
 704	6.9948e+01	11.9756	88.362808	0.000547	5.473149	1.854353	-0.000219
 705	7.0048e+01	11.9387	88.144803	0.000547	5.473149	1.854353	-0.000219
 706	7.0147e+01	11.9082	87.926798	0.000547	5.473149	1.854353	-0.000219
 707	7.0247e+01	11.8681	87.769350	0.000395	3.952830	1.339255	-0.000158
 708	7.0347e+01	11.8248	87.575567	0.000487	4.865022	1.648314	-0.000195
 709	7.0446e+01	11.7815	87.329302	0.000618	6.182632	2.094732	-0.000248
 710	7.0546e+01	11.7494	87.147631	0.000456	4.560958	1.545294	-0.000183
 711	7.0645e+01	11.7045	86.986145	0.000405	4.054185	1.373595	-0.000162
 712	7.0745e+01	11.6692	86.731806	0.000639	6.385341	2.163412	-0.000256
 713	7.0844e+01	11.6307	86.546097	0.000466	4.662312	1.579634	-0.000187
 714	7.0944e+01	11.5826	86.356352	0.000476	4.763667	1.613974	-0.000191
 715	7.1043e+01	11.5489	86.114124	0.000608	6.081277	2.060392	-0.000243
 716	7.1142e+01	11.5088	85.875933	0.000598	5.979922	2.026053	-0.000239
 717	7.1242e+01	11.4606	85.722522	0.000385	3.851475	1.304915	-0.000154
 718	7.1341e+01	11.4237	85.484331	0.000598	5.979922	2.026053	-0.000239
 719	7.1441e+01	11.3804	85.278437	0.000517	5.169085	1.751334	-0.000207
 720	7.1540e+01	11.3451	85.052357	0.000568	5.675858	1.923033	-0.000227
 721	7.1640e+01	11.3050	84.874723	0.000446	4.459603	1.510954	-0.000179
 722	7.1740e+01	11.2585	84.680941	0.000487	4.865022	1.648314	-0.000195
 723	7.1839e+01	11.2377	84.430638	0.000628	6.283986	2.129072	-0.000252
 724	7.1939e+01	11.1847	84.248967	0.000456	4.560958	1.545294	-0.000183
 725	7.2038e+01	11.1494	84.002702	0.000618	6.182632	2.094732	-0.000248
 726	7.2138e+01	11.1077	83.804882	0.000497	4.966376	1.682654	-0.000199
 727	7.2237e+01	11.0580	83.603025	0.000507	5.067731	1.716994	-0.000203
 728	7.2337e+01	11.0323	83.380983	0.000557	5.574504	1.888693	-0.000223
 729	7.2436e+01	10.9858	83.175089	0.000517	5.169085	1.751334	-0.000207
 730	7.2535e+01	10.9537	82.961121	0.000537	5.371795	1.820013	-0.000215
 731	7.2635e+01	10.9136	82.751190	0.000527	5.270440	1.785673	-0.000211
 732	7.2734e+01	10.8639	82.549333	0.000507	5.067731	1.716994	-0.000203
 733	7.2834e+01	10.8254	82.339402	0.000527	5.270440	1.785673	-0.000211
 734	7.2933e+01	10.7917	82.089100	0.000628	6.283986	2.129072	-0.000252
 735	7.3033e+01	10.7500	81.891280	0.000497	4.966376	1.682654	-0.000199
 736	7.3132e+01	10.7115	81.685386	0.000517	5.169085	1.751334	-0.000207
 737	7.3232e+01	10.6746	81.475455	0.000527	5.270440	1.785673	-0.000211
 738	7.3332e+01	10.6361	81.225152	0.000628	6.283986	2.129072	-0.000252
 739	7.3431e+01	10.5879	81.051556	0.000436	4.358248	1.476615	-0.000174
 740	7.3531e+01	10.5542	80.837587	0.000537	5.371795	1.820013	-0.000215
 741	7.3630e+01	10.5045	80.631694	0.000517	5.169085	1.751334	-0.000207
 742	7.3730e+01	10.4676	80.445985	0.000466	4.662312	1.579634	-0.000187
 743	7.3829e+01	10.4243	80.195683	0.000628	6.283986	2.129072	-0.000252
 744	7.3928e+01	10.3954	79.953455	0.000608	6.081277	2.060392	-0.000243
 745	7.4028e+01	10.3505	79.759672	0.000487	4.865022	1.648314	-0.000195
 746	7.4127e+01	10.3120	79.549741	0.000527	5.270440	1.785673	-0.000211
 747	7.4227e+01	10.2687	79.351921	0.000497	4.966376	1.682654	-0.000199
 748	7.4326e+01	10.2270	79.117768	0.000588	5.878568	1.991713	-0.000235
 749	7.4426e+01	10.1837	78.907837	0.000527	5.270440	1.785673	-0.000211
 750	7.4525e+01	10.1516	78.701943	0.000517	5.169085	1.751334	-0.000207
 751	7.4625e+01	10.1019	78.475863	0.000568	5.675858	1.923033	-0.000227
 752	7.4725e+01	10.0730	78.233635	0.000608	6.081277	2.060392	-0.000243
 753	7.4824e+01	10.0361	78.027741	0.000517	5.169085	1.751334	-0.000207
 754	7.4924e+01	9.9896	77.785513	0.000608	6.081277	2.060392	-0.000243
 755	7.5023e+01	9.9511	77.575582	0.000527	5.270440	1.785673	-0.000211
 756	7.5123e+01	9.9174	77.357576	0.000547	5.473149	1.854353	-0.000219
 757	7.5222e+01	9.8757	77.135534	0.000557	5.574504	1.888693	-0.000223
 758	7.5322e+01	9.8275	76.933677	0.000507	5.067731	1.716994	-0.000203
 759	7.5421e+01	9.7842	76.735858	0.000497	4.966376	1.682654	-0.000199
 760	7.5520e+01	9.7489	76.473444	0.000659	6.588050	2.232092	-0.000264
 761	7.5620e+01	9.7152	76.247364	0.000568	5.675858	1.923033	-0.000227
 762	7.5719e+01	9.6767	76.021285	0.000568	5.675858	1.923033	-0.000227
 763	7.5819e+01	9.6366	75.819428	0.000507	5.067731	1.716994	-0.000203
 764	7.5918e+01	9.5869	75.561051	0.000649	6.486695	2.197752	-0.000260
 765	7.6018e+01	9.5436	75.359194	0.000507	5.067731	1.716994	-0.000203
 766	7.6118e+01	9.5163	75.137152	0.000557	5.574504	1.888693	-0.000223
 767	7.6217e+01	9.4666	74.923184	0.000537	5.371795	1.820013	-0.000215
 768	7.6317e+01	9.4441	74.676918	0.000618	6.182632	2.094732	-0.000248
 769	7.6416e+01	9.3960	74.450839	0.000568	5.675858	1.923033	-0.000227
 770	7.6516e+01	9.3479	74.228796	0.000557	5.574504	1.888693	-0.000223
 771	7.6615e+01	9.3190	74.014828	0.000537	5.371795	1.820013	-0.000215
 772	7.6715e+01	9.2693	73.772600	0.000608	6.081277	2.060392	-0.000243
 773	7.6814e+01	9.2340	73.590929	0.000456	4.560958	1.545294	-0.000183
 774	7.6913e+01	9.1955	73.332552	0.000649	6.486695	2.197752	-0.000260
 775	7.7013e+01	9.1538	73.138770	0.000487	4.865022	1.648314	-0.000195
 776	7.7112e+01	9.1136	72.904616	0.000588	5.878568	1.991713	-0.000235
 777	7.7212e+01	9.0735	72.654313	0.000628	6.283986	2.129072	-0.000252
 778	7.7311e+01	9.0302	72.399974	0.000639	6.385341	2.163412	-0.000256
 779	7.7411e+01	8.9997	72.234451	0.000416	4.155539	1.407935	-0.000166
 780	7.7510e+01	8.9516	71.963963	0.000679	6.790759	2.300772	-0.000272
 781	7.7610e+01	8.9131	71.754032	0.000527	5.270440	1.785673	-0.000211
 782	7.7710e+01	8.8762	71.523915	0.000578	5.777213	1.957373	-0.000231
 783	7.7809e+01	8.8249	71.269576	0.000639	6.385341	2.163412	-0.000256
 784	7.7909e+01	8.7896	71.067719	0.000507	5.067731	1.716994	-0.000203
 785	7.8008e+01	8.7575	70.853751	0.000537	5.371795	1.820013	-0.000215
 786	7.8108e+01	8.7142	70.623634	0.000578	5.777213	1.957373	-0.000231
 787	7.8207e+01	8.6693	70.377369	0.000618	6.182632	2.094732	-0.000248
 788	7.8306e+01	8.6356	70.143215	0.000588	5.878568	1.991713	-0.000235
 789	7.8406e+01	8.5971	69.876764	0.000669	6.689405	2.266432	-0.000268
 790	7.8505e+01	8.5650	69.687019	0.000476	4.763667	1.613974	-0.000191
 791	7.8605e+01	8.5153	69.428642	0.000649	6.486695	2.197752	-0.000260
 792	7.8704e+01	8.4768	69.198525	0.000578	5.777213	1.957373	-0.000231
 793	7.8804e+01	8.4383	68.968408	0.000578	5.777213	1.957373	-0.000231
 794	7.8903e+01	8.4030	68.746366	0.000557	5.574504	1.888693	-0.000223
 795	7.9003e+01	8.3564	68.496063	0.000628	6.283986	2.129072	-0.000252
 796	7.9103e+01	8.3147	68.310355	0.000466	4.662312	1.579634	-0.000187
 797	7.9202e+01	8.2714	68.019681	0.000730	7.297532	2.472471	-0.000292
 798	7.9302e+01	8.2345	67.809750	0.000527	5.270440	1.785673	-0.000211
 799	7.9401e+01	8.1992	67.595782	0.000537	5.371795	1.820013	-0.000215
 800	7.9501e+01	8.1591	67.313183	0.000709	7.094823	2.403791	-0.000284
 801	7.9600e+01	8.1142	67.127474	0.000466	4.662312	1.579634	-0.000187
 802	7.9700e+01	8.0693	66.852949	0.000689	6.892114	2.335111	-0.000276
 803	7.9799e+01	8.0372	66.647055	0.000517	5.169085	1.751334	-0.000207
 804	7.9898e+01	7.9955	66.408864	0.000598	5.979922	2.026053	-0.000239
 805	7.9998e+01	7.9506	66.130302	0.000699	6.993468	2.369451	-0.000280
 806	8.0097e+01	7.9217	65.924408	0.000517	5.169085	1.751334	-0.000207
 807	8.0197e+01	7.8704	65.682180	0.000608	6.081277	2.060392	-0.000243
 808	8.0296e+01	7.8367	65.472249	0.000527	5.270440	1.785673	-0.000211
 809	8.0396e+01	7.7950	65.205798	0.000669	6.689405	2.266432	-0.000268
 810	8.0496e+01	7.7549	64.947421	0.000649	6.486695	2.197752	-0.000260
 811	8.0595e+01	7.7180	64.741527	0.000517	5.169085	1.751334	-0.000207
 812	8.0695e+01	7.6811	64.491225	0.000628	6.283986	2.129072	-0.000252
 813	8.0794e+01	7.6361	64.265145	0.000568	5.675858	1.923033	-0.000227
 814	8.0894e+01	7.5944	64.043103	0.000557	5.574504	1.888693	-0.000223
 815	8.0993e+01	7.5607	63.788763	0.000639	6.385341	2.163412	-0.000256
 816	8.1093e+01	7.5239	63.542498	0.000618	6.182632	2.094732	-0.000248
 817	8.1192e+01	7.4773	63.304307	0.000598	5.979922	2.026053	-0.000239
 818	8.1291e+01	7.4436	63.045930	0.000649	6.486695	2.197752	-0.000260
 819	8.1391e+01	7.4067	62.807739	0.000598	5.979922	2.026053	-0.000239
 820	8.1490e+01	7.3586	62.569548	0.000598	5.979922	2.026053	-0.000239
 821	8.1590e+01	7.3137	62.315209	0.000639	6.385341	2.163412	-0.000256
 822	8.1689e+01	7.2832	62.089129	0.000568	5.675858	1.923033	-0.000227
 823	8.1789e+01	7.2335	61.838827	0.000628	6.283986	2.129072	-0.000252
 824	8.1888e+01	7.1934	61.580450	0.000649	6.486695	2.197752	-0.000260
 825	8.1988e+01	7.1645	61.358408	0.000557	5.574504	1.888693	-0.000223
 826	8.2088e+01	7.1164	61.087919	0.000679	6.790759	2.300772	-0.000272
 827	8.2187e+01	7.0875	60.829543	0.000649	6.486695	2.197752	-0.000260
 828	8.2287e+01	7.0394	60.611537	0.000547	5.473149	1.854353	-0.000219
 829	8.2386e+01	7.0009	60.349124	0.000659	6.588050	2.232092	-0.000264
 830	8.2486e+01	6.9640	60.078635	0.000679	6.790759	2.300772	-0.000272
 831	8.2585e+01	6.9126	59.880816	0.000497	4.966376	1.682654	-0.000199
 832	8.2684e+01	6.8854	59.606291	0.000689	6.892114	2.335111	-0.000276
 833	8.2784e+01	6.8388	59.380211	0.000568	5.675858	1.923033	-0.000227
 834	8.2883e+01	6.8003	59.146057	0.000588	5.878568	1.991713	-0.000235
 835	8.2983e+01	6.7699	58.907866	0.000598	5.979922	2.026053	-0.000239
 836	8.3082e+01	6.7217	58.641415	0.000669	6.689405	2.266432	-0.000268
 837	8.3182e+01	6.6752	58.415336	0.000568	5.675858	1.923033	-0.000227
 838	8.3281e+01	6.6399	58.140810	0.000689	6.892114	2.335111	-0.000276
 839	8.3381e+01	6.6014	57.906656	0.000588	5.878568	1.991713	-0.000235
 840	8.3481e+01	6.5629	57.668465	0.000598	5.979922	2.026053	-0.000239
 841	8.3580e+01	6.5324	57.402014	0.000669	6.689405	2.266432	-0.000268
 842	8.3680e+01	6.4811	57.143638	0.000649	6.486695	2.197752	-0.000260
 843	8.3779e+01	6.4426	56.913521	0.000578	5.777213	1.957373	-0.000231
 844	8.3879e+01	6.4137	56.659182	0.000639	6.385341	2.163412	-0.000256
 845	8.3978e+01	6.3656	56.416953	0.000608	6.081277	2.060392	-0.000243
 846	8.4078e+01	6.3271	56.198948	0.000547	5.473149	1.854353	-0.000219
 847	8.4177e+01	6.2934	55.900200	0.000750	7.500242	2.541151	-0.000300
 848	8.4276e+01	6.2469	55.686232	0.000537	5.371795	1.820013	-0.000215
 849	8.4376e+01	6.2084	55.395558	0.000730	7.297532	2.472471	-0.000292
 850	8.4475e+01	6.1683	55.161404	0.000588	5.878568	1.991713	-0.000235
 851	8.4575e+01	6.1250	54.951473	0.000527	5.270440	1.785673	-0.000211
 852	8.4674e+01	6.0816	54.664836	0.000720	7.196178	2.438131	-0.000288
 853	8.4774e+01	6.0496	54.430683	0.000588	5.878568	1.991713	-0.000235
 854	8.4874e+01	6.0127	54.180380	0.000628	6.283986	2.129072	-0.000252
 855	8.4973e+01	5.9854	53.901818	0.000699	6.993468	2.369451	-0.000280
 856	8.5073e+01	5.9292	53.631330	0.000679	6.790759	2.300772	-0.000272
 857	8.5172e+01	5.8923	53.421399	0.000527	5.270440	1.785673	-0.000211
 858	8.5272e+01	5.8410	53.150911	0.000679	6.790759	2.300772	-0.000272
 859	8.5371e+01	5.8041	52.900608	0.000628	6.283986	2.129072	-0.000252
 860	8.5471e+01	5.7736	52.638194	0.000659	6.588050	2.232092	-0.000264
 861	8.5570e+01	5.7303	52.375780	0.000659	6.588050	2.232092	-0.000264
 862	8.5669e+01	5.6982	52.101255	0.000689	6.892114	2.335111	-0.000276
 863	8.5769e+01	5.6533	51.875176	0.000568	5.675858	1.923033	-0.000227
 864	8.5868e+01	5.6116	51.592576	0.000709	7.094823	2.403791	-0.000284
 865	8.5968e+01	5.5747	51.322088	0.000679	6.790759	2.300772	-0.000272
 866	8.6067e+01	5.5314	51.071786	0.000628	6.283986	2.129072	-0.000252
 867	8.6167e+01	5.4865	50.853780	0.000547	5.473149	1.854353	-0.000219
 868	8.6266e+01	5.4560	50.530809	0.000811	8.108369	2.747190	-0.000325
 869	8.6366e+01	5.4159	50.312804	0.000547	5.473149	1.854353	-0.000219
 870	8.6466e+01	5.3710	50.026167	0.000720	7.196178	2.438131	-0.000288
 871	8.6565e+01	5.3325	49.783939	0.000608	6.081277	2.060392	-0.000243
 872	8.6665e+01	5.2859	49.525563	0.000649	6.486695	2.197752	-0.000260
 873	8.6764e+01	5.2523	49.279297	0.000618	6.182632	2.094732	-0.000248
 874	8.6864e+01	5.2122	48.992661	0.000720	7.196178	2.438131	-0.000288
 875	8.6963e+01	5.1737	48.742358	0.000628	6.283986	2.129072	-0.000252
 876	8.7063e+01	5.1287	48.467833	0.000689	6.892114	2.335111	-0.000276
 877	8.7162e+01	5.0870	48.185234	0.000709	7.094823	2.403791	-0.000284
 878	8.7261e+01	5.0469	47.926857	0.000649	6.486695	2.197752	-0.000260
 879	8.7361e+01	5.0132	47.656369	0.000679	6.790759	2.300772	-0.000272
 880	8.7460e+01	4.9667	47.414141	0.000608	6.081277	2.060392	-0.000243
 881	8.7560e+01	4.9218	47.151727	0.000659	6.588050	2.232092	-0.000264
 882	8.7659e+01	4.8929	46.897387	0.000639	6.385341	2.163412	-0.000256
 883	8.7759e+01	4.8480	46.622862	0.000689	6.892114	2.335111	-0.000276
 884	8.7859e+01	4.8063	46.340263	0.000709	7.094823	2.403791	-0.000284
 885	8.7958e+01	4.7662	46.081886	0.000649	6.486695	2.197752	-0.000260
 886	8.8058e+01	4.7309	45.843695	0.000598	5.979922	2.026053	-0.000239
 887	8.8157e+01	4.6892	45.585318	0.000649	6.486695	2.197752	-0.000260
 888	8.8257e+01	4.6571	45.282533	0.000760	7.601596	2.575490	-0.000304
 889	8.8356e+01	4.6106	45.008008	0.000689	6.892114	2.335111	-0.000276
 890	8.8456e+01	4.5817	44.753668	0.000639	6.385341	2.163412	-0.000256
 891	8.8555e+01	4.5287	44.483180	0.000679	6.790759	2.300772	-0.000272
 892	8.8654e+01	4.4935	44.220766	0.000659	6.588050	2.232092	-0.000264
 893	8.8754e+01	4.4501	43.950278	0.000679	6.790759	2.300772	-0.000272
 894	8.8853e+01	4.4052	43.704013	0.000618	6.182632	2.094732	-0.000248
 895	8.8953e+01	4.3731	43.377005	0.000821	8.209724	2.781530	-0.000329
 896	8.9052e+01	4.3411	43.154962	0.000557	5.574504	1.888693	-0.000223
 897	8.9152e+01	4.2929	42.876400	0.000699	6.993468	2.369451	-0.000280
 898	8.9251e+01	4.2576	42.597838	0.000699	6.993468	2.369451	-0.000280
 899	8.9351e+01	4.2159	42.335424	0.000659	6.588050	2.232092	-0.000264
 900	8.9451e+01	4.1710	42.036676	0.000750	7.500242	2.541151	-0.000300
 901	8.9550e+01	4.1405	41.762151	0.000689	6.892114	2.335111	-0.000276
 902	8.9650e+01	4.0892	41.491663	0.000679	6.790759	2.300772	-0.000272
 903	8.9749e+01	4.0555	41.237323	0.000639	6.385341	2.163412	-0.000256
 904	8.9849e+01	4.0138	40.970872	0.000669	6.689405	2.266432	-0.000268
 905	8.9948e+01	3.9817	40.684235	0.000720	7.196178	2.438131	-0.000288
 906	9.0047e+01	3.9384	40.385487	0.000750	7.500242	2.541151	-0.000300
 907	9.0147e+01	3.8871	40.151333	0.000588	5.878568	1.991713	-0.000235
 908	9.0246e+01	3.8453	39.856623	0.000740	7.398887	2.506811	-0.000296
 909	9.0346e+01	3.8084	39.610357	0.000618	6.182632	2.094732	-0.000248
 910	9.0445e+01	3.7699	39.339869	0.000679	6.790759	2.300772	-0.000272
 911	9.0545e+01	3.7314	39.033047	0.000770	7.702951	2.609830	-0.000308
 912	9.0644e+01	3.6945	38.790819	0.000608	6.081277	2.060392	-0.000243
 913	9.0744e+01	3.6544	38.512256	0.000699	6.993468	2.369451	-0.000280
 914	9.0844e+01	3.6175	38.217545	0.000740	7.398887	2.506811	-0.000296
 915	9.0943e+01	3.5790	37.938983	0.000699	6.993468	2.369451	-0.000280
 916	9.1043e+01	3.5405	37.672532	0.000669	6.689405	2.266432	-0.000268
 917	9.1142e+01	3.4972	37.398007	0.000689	6.892114	2.335111	-0.000276
 918	9.1242e+01	3.4475	37.091185	0.000770	7.702951	2.609830	-0.000308
 919	9.1341e+01	3.4170	36.812622	0.000699	6.993468	2.369451	-0.000280
 920	9.1441e+01	3.3801	36.550208	0.000659	6.588050	2.232092	-0.000264
 921	9.1540e+01	3.3336	36.287795	0.000659	6.588050	2.232092	-0.000264
 922	9.1639e+01	3.2999	35.968861	0.000801	8.007015	2.712850	-0.000321
 923	9.1739e+01	3.2518	35.694336	0.000689	6.892114	2.335111	-0.000276
 924	9.1838e+01	3.2181	35.464219	0.000578	5.777213	1.957373	-0.000231
 925	9.1938e+01	3.1716	35.129137	0.000841	8.412433	2.850209	-0.000337
 926	9.2037e+01	3.1379	34.882871	0.000618	6.182632	2.094732	-0.000248
 927	9.2137e+01	3.0962	34.572012	0.000780	7.804305	2.644170	-0.000312
 928	9.2237e+01	3.0561	34.325747	0.000618	6.182632	2.094732	-0.000248
 929	9.2336e+01	3.0127	33.994701	0.000831	8.311078	2.815870	-0.000333
 930	9.2436e+01	2.9775	33.712102	0.000709	7.094823	2.403791	-0.000284
 931	9.2535e+01	2.9374	33.413354	0.000750	7.500242	2.541151	-0.000300
 932	9.2635e+01	2.8988	33.183237	0.000578	5.777213	1.957373	-0.000231
 933	9.2734e+01	2.8555	32.884489	0.000750	7.500242	2.541151	-0.000300
 934	9.2834e+01	2.8202	32.573630	0.000780	7.804305	2.644170	-0.000312
 935	9.2933e+01	2.7769	32.303142	0.000679	6.790759	2.300772	-0.000272
 936	9.3032e+01	2.7432	32.008431	0.000740	7.398887	2.506811	-0.000296
 937	9.3132e+01	2.6935	31.717757	0.000730	7.297532	2.472471	-0.000292
 938	9.3231e+01	2.6550	31.402860	0.000791	7.905660	2.678510	-0.000316
 939	9.3331e+01	2.6213	31.140447	0.000659	6.588050	2.232092	-0.000264
 940	9.3430e+01	2.5812	30.865921	0.000689	6.892114	2.335111	-0.000276
 941	9.3530e+01	2.5411	30.579285	0.000720	7.196178	2.438131	-0.000288
 942	9.3629e+01	2.4994	30.288611	0.000730	7.297532	2.472471	-0.000292
 943	9.3729e+01	2.4641	30.026197	0.000659	6.588050	2.232092	-0.000264
 944	9.3829e+01	2.4224	29.707263	0.000801	8.007015	2.712850	-0.000321
 945	9.3928e+01	2.3839	29.364107	0.000862	8.615142	2.918889	-0.000345
 946	9.4028e+01	2.3358	29.113804	0.000628	6.283986	2.129072	-0.000252
 947	9.4127e+01	2.2973	28.831205	0.000709	7.094823	2.403791	-0.000284
 948	9.4227e+01	2.2636	28.564754	0.000669	6.689405	2.266432	-0.000268
 949	9.4326e+01	2.2251	28.241783	0.000811	8.108369	2.747190	-0.000325
 950	9.4425e+01	2.1802	27.938998	0.000760	7.601596	2.575490	-0.000304
 951	9.4525e+01	2.1400	27.668510	0.000679	6.790759	2.300772	-0.000272
 952	9.4624e+01	2.0967	27.422245	0.000618	6.182632	2.094732	-0.000248
 953	9.4724e+01	2.0663	27.066977	0.000892	8.919206	3.021909	-0.000357
 954	9.4823e+01	2.0245	26.800526	0.000669	6.689405	2.266432	-0.000268
 955	9.4923e+01	1.9748	26.526000	0.000689	6.892114	2.335111	-0.000276
 956	9.5022e+01	1.9475	26.207067	0.000801	8.007015	2.712850	-0.000321
 957	9.5122e+01	1.9042	25.924467	0.000709	7.094823	2.403791	-0.000284
 958	9.5222e+01	1.8577	25.629756	0.000740	7.398887	2.506811	-0.000296
 959	9.5321e+01	1.8208	25.343120	0.000720	7.196178	2.438131	-0.000288
 960	9.5421e+01	1.7839	25.032260	0.000780	7.804305	2.644170	-0.000312
 961	9.5520e+01	1.7486	24.729475	0.000760	7.601596	2.575490	-0.000304
 962	9.5620e+01	1.7101	24.438801	0.000730	7.297532	2.472471	-0.000292
 963	9.5719e+01	1.6700	24.164276	0.000689	6.892114	2.335111	-0.000276
 964	9.5819e+01	1.6267	23.873602	0.000730	7.297532	2.472471	-0.000292
 965	9.5918e+01	1.5818	23.578891	0.000740	7.398887	2.506811	-0.000296
 966	9.6017e+01	1.5353	23.251883	0.000821	8.209724	2.781530	-0.000329
 967	9.6117e+01	1.5048	22.973321	0.000699	6.993468	2.369451	-0.000280
 968	9.6216e+01	1.4663	22.646313	0.000821	8.209724	2.781530	-0.000329
 969	9.6316e+01	1.4294	22.371788	0.000689	6.892114	2.335111	-0.000276
 970	9.6415e+01	1.3925	22.020557	0.000882	8.817852	2.987569	-0.000353
 971	9.6515e+01	1.3476	21.782366	0.000598	5.979922	2.026053	-0.000239
 972	9.6615e+01	1.3010	21.483618	0.000750	7.500242	2.541151	-0.000300
 973	9.6714e+01	1.2722	21.160647	0.000811	8.108369	2.747190	-0.000325
 974	9.6814e+01	1.2240	20.841713	0.000801	8.007015	2.712850	-0.000321
 975	9.6913e+01	1.1775	20.599485	0.000608	6.081277	2.060392	-0.000243
 976	9.7013e+01	1.1518	20.228069	0.000932	9.324625	3.159268	-0.000373
 977	9.7112e+01	1.1021	19.965655	0.000659	6.588050	2.232092	-0.000264
 978	9.7212e+01	1.0652	19.670944	0.000740	7.398887	2.506811	-0.000296
 979	9.7311e+01	1.0251	19.372196	0.000750	7.500242	2.541151	-0.000300
 980	9.7410e+01	0.9802	19.077485	0.000740	7.398887	2.506811	-0.000296
 981	9.7510e+01	0.9497	18.738366	0.000851	8.513788	2.884549	-0.000341
 982	9.7609e+01	0.9112	18.455766	0.000709	7.094823	2.403791	-0.000284
 983	9.7709e+01	0.8615	18.165092	0.000730	7.297532	2.472471	-0.000292
 984	9.7808e+01	0.8262	17.862307	0.000760	7.601596	2.575490	-0.000304
 985	9.7908e+01	0.7797	17.535299	0.000821	8.209724	2.781530	-0.000329
 986	9.8007e+01	0.7572	17.232514	0.000760	7.601596	2.575490	-0.000304
 987	9.8107e+01	0.7027	16.869172	0.000912	9.121915	3.090589	-0.000365
 988	9.8207e+01	0.6722	16.598684	0.000679	6.790759	2.300772	-0.000272
 989	9.8306e+01	0.6337	16.303973	0.000740	7.398887	2.506811	-0.000296
 990	9.8406e+01	0.5920	16.041559	0.000659	6.588050	2.232092	-0.000264
 991	9.8505e+01	0.5422	15.718588	0.000811	8.108369	2.747190	-0.000325
 992	9.8605e+01	0.5101	15.391580	0.000821	8.209724	2.781530	-0.000329
 993	9.8704e+01	0.4684	15.092832	0.000750	7.500242	2.541151	-0.000300
 994	9.8803e+01	0.4251	14.765824	0.000821	8.209724	2.781530	-0.000329
 995	9.8903e+01	0.3946	14.475150	0.000730	7.297532	2.472471	-0.000292
 996	9.9002e+01	0.3465	14.111808	0.000912	9.121915	3.090589	-0.000365
 997	9.9102e+01	0.3064	13.881691	0.000578	5.777213	1.957373	-0.000231
 998	9.9201e+01	0.2615	13.546609	0.000841	8.412433	2.850209	-0.000337
 999	9.9301e+01	0.2326	13.276121	0.000679	6.790759	2.300772	-0.000272
1000	9.9400e+01	0.1925	12.928927	0.000872	8.716497	2.953229	-0.000349
1001	9.9500e+01	0.1444	12.642291	0.000720	7.196178	2.438131	-0.000288
1002	9.9600e+01	0.1027	12.311245	0.000831	8.311078	2.815870	-0.000333
1003	9.9699e+01	0.0674	11.976163	0.000841	8.412433	2.850209	-0.000337
1004	9.9799e+01	0.0289	11.669341	0.000770	7.702951	2.609830	-0.000308
1005	9.9898e+01	-0.0032	11.455373	0.000537	5.371795	1.820013	-0.000215
1006	9.9998e+01	-0.0369	11.112216	0.000862	8.615142	2.918889	-0.000345
1007	1.0010e+02	-0.0882	10.817505	0.000740	7.398887	2.506811	-0.000296
1008	1.0020e+02	-0.1203	10.478386	0.000851	8.513788	2.884549	-0.000341
1009	1.0030e+02	-0.1572	10.175601	0.000760	7.601596	2.575490	-0.000304
1010	1.0040e+02	-0.2037	9.901075	0.000689	6.892114	2.335111	-0.000276
1011	1.0050e+02	-0.2390	9.578105	0.000811	8.108369	2.747190	-0.000325
1012	1.0059e+02	-0.2807	9.255134	0.000811	8.108369	2.747190	-0.000325
1013	1.0069e+02	-0.3176	8.928126	0.000821	8.209724	2.781530	-0.000329
1014	1.0079e+02	-0.3642	8.641489	0.000720	7.196178	2.438131	-0.000288
1015	1.0089e+02	-0.4027	8.330630	0.000780	7.804305	2.644170	-0.000312
1016	1.0099e+02	-0.4412	8.027844	0.000760	7.601596	2.575490	-0.000304
1017	1.0109e+02	-0.4829	7.696799	0.000831	8.311078	2.815870	-0.000333
1018	1.0119e+02	-0.5262	7.394014	0.000760	7.601596	2.575490	-0.000304
1019	1.0129e+02	-0.5551	7.067006	0.000821	8.209724	2.781530	-0.000329
1020	1.0139e+02	-0.5936	6.760184	0.000770	7.702951	2.609830	-0.000308
1021	1.0149e+02	-0.6337	6.417027	0.000862	8.615142	2.918889	-0.000345
1022	1.0159e+02	-0.6818	6.122316	0.000740	7.398887	2.506811	-0.000296
1023	1.0169e+02	-0.7299	5.819531	0.000760	7.601596	2.575490	-0.000304
1024	1.0179e+02	-0.7668	5.488486	0.000831	8.311078	2.815870	-0.000333
1025	1.0189e+02	-0.7989	5.185701	0.000760	7.601596	2.575490	-0.000304
1026	1.0199e+02	-0.8422	4.854656	0.000831	8.311078	2.815870	-0.000333
1027	1.0209e+02	-0.8791	4.555908	0.000750	7.500242	2.541151	-0.000300
1028	1.0219e+02	-0.9192	4.241011	0.000791	7.905660	2.678510	-0.000316
1029	1.0229e+02	-0.9577	3.901892	0.000851	8.513788	2.884549	-0.000341
1030	1.0239e+02	-1.0075	3.586995	0.000791	7.905660	2.678510	-0.000316
1031	1.0248e+02	-1.0411	3.255950	0.000831	8.311078	2.815870	-0.000333
1032	1.0258e+02	-1.0764	2.973350	0.000709	7.094823	2.403791	-0.000284
1033	1.0268e+02	-1.1310	2.646342	0.000821	8.209724	2.781530	-0.000329
1034	1.0278e+02	-1.1615	2.307223	0.000851	8.513788	2.884549	-0.000341
1035	1.0288e+02	-1.2000	1.980215	0.000821	8.209724	2.781530	-0.000329
1036	1.0298e+02	-1.2369	1.657244	0.000811	8.108369	2.747190	-0.000325
1037	1.0308e+02	-1.2866	1.382719	0.000689	6.892114	2.335111	-0.000276
1038	1.0318e+02	-1.3219	1.079934	0.000760	7.601596	2.575490	-0.000304
1039	1.0328e+02	-1.3540	0.740814	0.000851	8.513788	2.884549	-0.000341
1040	1.0338e+02	-1.3925	0.446103	0.000740	7.398887	2.506811	-0.000296
1041	1.0348e+02	-1.4422	0.115058	0.000831	8.311078	2.815870	-0.000333
1042	1.0358e+02	-1.4823	-0.203875	0.000801	8.007015	2.712850	-0.000321
1043	1.0368e+02	-1.5176	-0.538958	0.000841	8.412433	2.850209	-0.000337
1044	1.0378e+02	-1.5641	-0.821557	0.000709	7.094823	2.403791	-0.000284
1045	1.0388e+02	-1.5994	-1.176825	0.000892	8.919206	3.021909	-0.000357
1046	1.0398e+02	-1.6283	-1.463462	0.000720	7.196178	2.438131	-0.000288
1047	1.0408e+02	-1.6732	-1.786433	0.000811	8.108369	2.747190	-0.000325
1048	1.0418e+02	-1.7149	-2.077106	0.000730	7.297532	2.472471	-0.000292
1049	1.0428e+02	-1.7582	-2.424300	0.000872	8.716497	2.953229	-0.000349
1050	1.0438e+02	-1.7935	-2.727085	0.000760	7.601596	2.575490	-0.000304
1051	1.0447e+02	-1.8401	-3.078316	0.000882	8.817852	2.987569	-0.000353
1052	1.0457e+02	-1.8753	-3.393213	0.000791	7.905660	2.678510	-0.000316
1053	1.0467e+02	-1.9171	-3.695998	0.000760	7.601596	2.575490	-0.000304
1054	1.0477e+02	-1.9540	-3.994746	0.000750	7.500242	2.541151	-0.000300
1055	1.0487e+02	-2.0005	-4.333865	0.000851	8.513788	2.884549	-0.000341
1056	1.0497e+02	-2.0406	-4.652799	0.000801	8.007015	2.712850	-0.000321
1057	1.0507e+02	-2.0807	-4.983844	0.000831	8.311078	2.815870	-0.000333
1058	1.0517e+02	-2.1160	-5.286629	0.000760	7.601596	2.575490	-0.000304
1059	1.0527e+02	-2.1657	-5.557117	0.000679	6.790759	2.300772	-0.000272
1060	1.0537e+02	-2.1930	-5.892200	0.000841	8.412433	2.850209	-0.000337
1061	1.0547e+02	-2.2379	-6.223245	0.000831	8.311078	2.815870	-0.000333
1062	1.0557e+02	-2.2748	-6.562364	0.000851	8.513788	2.884549	-0.000341
1063	1.0567e+02	-2.3069	-6.861112	0.000750	7.500242	2.541151	-0.000300
1064	1.0577e+02	-2.3566	-7.159860	0.000750	7.500242	2.541151	-0.000300
1065	1.0587e+02	-2.3967	-7.450534	0.000730	7.297532	2.472471	-0.000292
1066	1.0597e+02	-2.4352	-7.765431	0.000791	7.905660	2.678510	-0.000316
1067	1.0607e+02	-2.4657	-8.080327	0.000791	7.905660	2.678510	-0.000316
1068	1.0617e+02	-2.5170	-8.358890	0.000699	6.993468	2.369451	-0.000280
1069	1.0627e+02	-2.5555	-8.718195	0.000902	9.020561	3.056249	-0.000361
1070	1.0637e+02	-2.5924	-9.077500	0.000902	9.020561	3.056249	-0.000361
1071	1.0647e+02	-2.6390	-9.335876	0.000649	6.486695	2.197752	-0.000260
1072	1.0656e+02	-2.6807	-9.602327	0.000669	6.689405	2.266432	-0.000268
1073	1.0666e+02	-2.7144	-9.925298	0.000811	8.108369	2.747190	-0.000325
1074	1.0676e+02	-2.7513	-10.260380	0.000841	8.412433	2.850209	-0.000337
1075	1.0686e+02	-2.8010	-10.542980	0.000709	7.094823	2.403791	-0.000284
1076	1.0696e+02	-2.8347	-10.882099	0.000851	8.513788	2.884549	-0.000341
1077	1.0706e+02	-2.8764	-11.196996	0.000791	7.905660	2.678510	-0.000316
1078	1.0716e+02	-2.9117	-11.491707	0.000740	7.398887	2.506811	-0.000296
1079	1.0726e+02	-2.9518	-11.818715	0.000821	8.209724	2.781530	-0.000329
1080	1.0736e+02	-2.9935	-12.113426	0.000740	7.398887	2.506811	-0.000296
1081	1.0746e+02	-3.0288	-12.416211	0.000760	7.601596	2.575490	-0.000304
1082	1.0756e+02	-3.0769	-12.710922	0.000740	7.398887	2.506811	-0.000296
1083	1.0766e+02	-3.1090	-13.041967	0.000831	8.311078	2.815870	-0.000333
1084	1.0776e+02	-3.1555	-13.320529	0.000699	6.993468	2.369451	-0.000280
1085	1.0786e+02	-3.2020	-13.643500	0.000811	8.108369	2.747190	-0.000325
1086	1.0796e+02	-3.2245	-13.962434	0.000801	8.007015	2.712850	-0.000321
1087	1.0806e+02	-3.2678	-14.265219	0.000760	7.601596	2.575490	-0.000304
1088	1.0816e+02	-3.3127	-14.535707	0.000679	6.790759	2.300772	-0.000272
1089	1.0826e+02	-3.3609	-14.862715	0.000821	8.209724	2.781530	-0.000329
1090	1.0836e+02	-3.3849	-15.145315	0.000709	7.094823	2.403791	-0.000284
1091	1.0845e+02	-3.4331	-15.484434	0.000851	8.513788	2.884549	-0.000341
1092	1.0855e+02	-3.4619	-15.762996	0.000699	6.993468	2.369451	-0.000280
1093	1.0865e+02	-3.5117	-16.073856	0.000780	7.804305	2.644170	-0.000312
1094	1.0875e+02	-3.5518	-16.324158	0.000628	6.283986	2.129072	-0.000252
1095	1.0885e+02	-3.5983	-16.630981	0.000770	7.702951	2.609830	-0.000308
1096	1.0895e+02	-3.6256	-16.990286	0.000902	9.020561	3.056249	-0.000361
1097	1.0905e+02	-3.6673	-17.301145	0.000780	7.804305	2.644170	-0.000312
1098	1.0915e+02	-3.7122	-17.555485	0.000639	6.385341	2.163412	-0.000256
1099	1.0925e+02	-3.7523	-17.894604	0.000851	8.513788	2.884549	-0.000341
1100	1.0935e+02	-3.7956	-18.201426	0.000770	7.702951	2.609830	-0.000308
1101	1.0945e+02	-3.8325	-18.455766	0.000639	6.385341	2.163412	-0.000256
1102	1.0955e+02	-3.8662	-18.794885	0.000851	8.513788	2.884549	-0.000341
1103	1.0965e+02	-3.9015	-19.105745	0.000780	7.804305	2.644170	-0.000312
1104	1.0975e+02	-3.9480	-19.364122	0.000649	6.486695	2.197752	-0.000260
1105	1.0985e+02	-3.9961	-19.670944	0.000770	7.702951	2.609830	-0.000308
1106	1.0995e+02	-4.0298	-19.961618	0.000730	7.297532	2.472471	-0.000292
1107	1.1005e+02	-4.0731	-20.240180	0.000699	6.993468	2.369451	-0.000280
1108	1.1015e+02	-4.1149	-20.534891	0.000740	7.398887	2.506811	-0.000296
1109	1.1025e+02	-4.1518	-20.825565	0.000730	7.297532	2.472471	-0.000292
1110	1.1035e+02	-4.1758	-21.156610	0.000831	8.311078	2.815870	-0.000333
1111	1.1044e+02	-4.2239	-21.439209	0.000709	7.094823	2.403791	-0.000284
1112	1.1054e+02	-4.2673	-21.725846	0.000720	7.196178	2.438131	-0.000288
1113	1.1064e+02	-4.2961	-22.024594	0.000750	7.500242	2.541151	-0.000300
1114	1.1074e+02	-4.3443	-22.291045	0.000669	6.689405	2.266432	-0.000268
1115	1.1084e+02	-4.3940	-22.577682	0.000720	7.196178	2.438131	-0.000288
1116	1.1094e+02	-4.4341	-22.900652	0.000811	8.108369	2.747190	-0.000325
1117	1.1104e+02	-4.4646	-23.167103	0.000669	6.689405	2.266432	-0.000268
1118	1.1114e+02	-4.4951	-23.498149	0.000831	8.311078	2.815870	-0.000333
1119	1.1124e+02	-4.5528	-23.740377	0.000608	6.081277	2.060392	-0.000243
1120	1.1134e+02	-4.5945	-23.998753	0.000649	6.486695	2.197752	-0.000260
1121	1.1144e+02	-4.6202	-24.349984	0.000882	8.817852	2.987569	-0.000353
1122	1.1154e+02	-4.6539	-24.616435	0.000669	6.689405	2.266432	-0.000268
1123	1.1164e+02	-4.7036	-24.878849	0.000659	6.588050	2.232092	-0.000264
1124	1.1174e+02	-4.7437	-25.173560	0.000740	7.398887	2.506811	-0.000296
1125	1.1184e+02	-4.7983	-25.480382	0.000770	7.702951	2.609830	-0.000308
1126	1.1194e+02	-4.8239	-25.767019	0.000720	7.196178	2.438131	-0.000288
1127	1.1204e+02	-4.8656	-25.985024	0.000547	5.473149	1.854353	-0.000219
1128	1.1214e+02	-4.9106	-26.324144	0.000851	8.513788	2.884549	-0.000341
1129	1.1224e+02	-4.9491	-26.586557	0.000659	6.588050	2.232092	-0.000264
1130	1.1234e+02	-4.9844	-26.897417	0.000780	7.804305	2.644170	-0.000312
1131	1.1244e+02	-5.0245	-27.163868	0.000669	6.689405	2.266432	-0.000268
1132	1.1253e+02	-5.0694	-27.438393	0.000689	6.892114	2.335111	-0.000276
1133	1.1263e+02	-5.1095	-27.708881	0.000679	6.790759	2.300772	-0.000272
1134	1.1273e+02	-5.1432	-27.967258	0.000649	6.486695	2.197752	-0.000260
1135	1.1283e+02	-5.1737	-28.298303	0.000831	8.311078	2.815870	-0.000333
1136	1.1293e+02	-5.2250	-28.512271	0.000537	5.371795	1.820013	-0.000215
1137	1.1303e+02	-5.2667	-28.843316	0.000831	8.311078	2.815870	-0.000333
1138	1.1313e+02	-5.3052	-29.146101	0.000760	7.601596	2.575490	-0.000304
1139	1.1323e+02	-5.3485	-29.424664	0.000699	6.993468	2.369451	-0.000280
1140	1.1333e+02	-5.3790	-29.691115	0.000669	6.689405	2.266432	-0.000268
1141	1.1343e+02	-5.4287	-30.014086	0.000811	8.108369	2.747190	-0.000325
1142	1.1353e+02	-5.4640	-30.252277	0.000598	5.979922	2.026053	-0.000239
1143	1.1363e+02	-5.5073	-30.514690	0.000659	6.588050	2.232092	-0.000264
1144	1.1373e+02	-5.5410	-30.764993	0.000628	6.283986	2.129072	-0.000252
1145	1.1383e+02	-5.5843	-31.104112	0.000851	8.513788	2.884549	-0.000341
1146	1.1393e+02	-5.6164	-31.322118	0.000547	5.473149	1.854353	-0.000219
1147	1.1403e+02	-5.6662	-31.637014	0.000791	7.905660	2.678510	-0.000316
1148	1.1413e+02	-5.7063	-31.895391	0.000649	6.486695	2.197752	-0.000260
1149	1.1423e+02	-5.7448	-32.153768	0.000649	6.486695	2.197752	-0.000260
1150	1.1433e+02	-5.7784	-32.456553	0.000760	7.601596	2.575490	-0.000304
1151	1.1442e+02	-5.8202	-32.710892	0.000639	6.385341	2.163412	-0.000256
1152	1.1452e+02	-5.8571	-32.985418	0.000689	6.892114	2.335111	-0.000276
1153	1.1462e+02	-5.8988	-33.263980	0.000699	6.993468	2.369451	-0.000280
1154	1.1472e+02	-5.9405	-33.554654	0.000730	7.297532	2.472471	-0.000292
1155	1.1482e+02	-5.9886	-33.780733	0.000568	5.675858	1.923033	-0.000227
1156	1.1492e+02	-6.0255	-34.091593	0.000780	7.804305	2.644170	-0.000312
1157	1.1502e+02	-6.0672	-34.386304	0.000740	7.398887	2.506811	-0.000296
1158	1.1512e+02	-6.1057	-34.612383	0.000568	5.675858	1.923033	-0.000227
1159	1.1522e+02	-6.1394	-34.899020	0.000720	7.196178	2.438131	-0.000288
1160	1.1532e+02	-6.1763	-35.193731	0.000740	7.398887	2.506811	-0.000296
1161	1.1542e+02	-6.2100	-35.456145	0.000659	6.588050	2.232092	-0.000264
1162	1.1552e+02	-6.2597	-35.718558	0.000659	6.588050	2.232092	-0.000264
1163	1.1562e+02	-6.3014	-35.997121	0.000699	6.993468	2.369451	-0.000280
1164	1.1572e+02	-6.3351	-36.243386	0.000618	6.182632	2.094732	-0.000248
1165	1.1582e+02	-6.3800	-36.501763	0.000649	6.486695	2.197752	-0.000260
1166	1.1592e+02	-6.4185	-36.788399	0.000720	7.196178	2.438131	-0.000288
1167	1.1602e+02	-6.4538	-37.018516	0.000578	5.777213	1.957373	-0.000231
1168	1.1612e+02	-6.5020	-37.301116	0.000709	7.094823	2.403791	-0.000284
1169	1.1622e+02	-6.5356	-37.567567	0.000669	6.689405	2.266432	-0.000268
1170	1.1632e+02	-6.5806	-37.842092	0.000689	6.892114	2.335111	-0.000276
1171	1.1642e+02	-6.6126	-38.092394	0.000628	6.283986	2.129072	-0.000252
1172	1.1651e+02	-6.6560	-38.374994	0.000709	7.094823	2.403791	-0.000284
1173	1.1661e+02	-6.6977	-38.597036	0.000557	5.574504	1.888693	-0.000223
1174	1.1671e+02	-6.7282	-38.899821	0.000760	7.601596	2.575490	-0.000304
1175	1.1681e+02	-6.7731	-39.105715	0.000517	5.169085	1.751334	-0.000207
1176	1.1691e+02	-6.8228	-39.372166	0.000669	6.689405	2.266432	-0.000268
1177	1.1701e+02	-6.8581	-39.678989	0.000770	7.702951	2.609830	-0.000308
1178	1.1711e+02	-6.8934	-39.937365	0.000649	6.486695	2.197752	-0.000260
1179	1.1721e+02	-6.9383	-40.195742	0.000649	6.486695	2.197752	-0.000260
1180	1.1731e+02	-6.9720	-40.486416	0.000730	7.297532	2.472471	-0.000292
1181	1.1741e+02	-7.0169	-40.724607	0.000598	5.979922	2.026053	-0.000239
1182	1.1751e+02	-7.0506	-40.978946	0.000639	6.385341	2.163412	-0.000256
1183	1.1761e+02	-7.0939	-41.245397	0.000669	6.689405	2.266432	-0.000268
1184	1.1771e+02	-7.1292	-41.523960	0.000699	6.993468	2.369451	-0.000280
1185	1.1781e+02	-7.1693	-41.741965	0.000547	5.473149	1.854353	-0.000219
1186	1.1791e+02	-7.2174	-42.012453	0.000679	6.790759	2.300772	-0.000272
1187	1.1801e+02	-7.2575	-42.282941	0.000679	6.790759	2.300772	-0.000272
1188	1.1811e+02	-7.2977	-42.593801	0.000780	7.804305	2.644170	-0.000312
1189	1.1821e+02	-7.3313	-42.807769	0.000537	5.371795	1.820013	-0.000215
1190	1.1831e+02	-7.3714	-43.058071	0.000628	6.283986	2.129072	-0.000252
1191	1.1841e+02	-7.4035	-43.316448	0.000649	6.486695	2.197752	-0.000260
1192	1.1850e+02	-7.4485	-43.586936	0.000679	6.790759	2.300772	-0.000272
1193	1.1860e+02	-7.4950	-43.833201	0.000618	6.182632	2.094732	-0.000248
1194	1.1870e+02	-7.5319	-44.067355	0.000588	5.878568	1.991713	-0.000235
1195	1.1880e+02	-7.5704	-44.349955	0.000709	7.094823	2.403791	-0.000284
1196	1.1890e+02	-7.6105	-44.604294	0.000639	6.385341	2.163412	-0.000256
1197	1.1900e+02	-7.6602	-44.850559	0.000618	6.182632	2.094732	-0.000248
1198	1.1910e+02	-7.6955	-45.104899	0.000639	6.385341	2.163412	-0.000256
1199	1.1920e+02	-7.7372	-45.379424	0.000689	6.892114	2.335111	-0.000276
1200	1.1930e+02	-7.7549	-45.589355	0.000527	5.270440	1.785673	-0.000211
1201	1.1940e+02	-7.8174	-45.900215	0.000780	7.804305	2.644170	-0.000312
1202	1.1950e+02	-7.8527	-46.162629	0.000659	6.588050	2.232092	-0.000264
1203	1.1960e+02	-7.8912	-46.388708	0.000568	5.675858	1.923033	-0.000227
1204	1.1970e+02	-7.9345	-46.651122	0.000659	6.588050	2.232092	-0.000264
1205	1.1980e+02	-7.9762	-46.909499	0.000649	6.486695	2.197752	-0.000260
1206	1.1990e+02	-8.0164	-47.167875	0.000649	6.486695	2.197752	-0.000260
1207	1.2000e+02	-8.0613	-47.426252	0.000649	6.486695	2.197752	-0.000260
1208	1.2010e+02	-8.0998	-47.648295	0.000557	5.574504	1.888693	-0.000223
1209	1.2020e+02	-8.1319	-47.934931	0.000720	7.196178	2.438131	-0.000288
1210	1.2030e+02	-8.1639	-48.144862	0.000527	5.270440	1.785673	-0.000211
1211	1.2039e+02	-8.2073	-48.399202	0.000639	6.385341	2.163412	-0.000256
1212	1.2049e+02	-8.2522	-48.706024	0.000770	7.702951	2.609830	-0.000308
1213	1.2059e+02	-8.2939	-48.952289	0.000618	6.182632	2.094732	-0.000248
1214	1.2069e+02	-8.3308	-49.178369	0.000568	5.675858	1.923033	-0.000227
1215	1.2079e+02	-8.3661	-49.412523	0.000588	5.878568	1.991713	-0.000235
1216	1.2089e+02	-8.4078	-49.683011	0.000679	6.790759	2.300772	-0.000272
1217	1.2099e+02	-8.4415	-49.905053	0.000557	5.574504	1.888693	-0.000223
1218	1.2109e+02	-8.4816	-50.187653	0.000709	7.094823	2.403791	-0.000284
1219	1.2119e+02	-8.5233	-50.433918	0.000618	6.182632	2.094732	-0.000248
1220	1.2129e+02	-8.5698	-50.708443	0.000689	6.892114	2.335111	-0.000276
1221	1.2139e+02	-8.6083	-50.926449	0.000547	5.473149	1.854353	-0.000219
1222	1.2149e+02	-8.6564	-51.192900	0.000669	6.689405	2.266432	-0.000268
1223	1.2159e+02	-8.6869	-51.431091	0.000598	5.979922	2.026053	-0.000239
1224	1.2169e+02	-8.7302	-51.685430	0.000639	6.385341	2.163412	-0.000256
1225	1.2179e+02	-8.7687	-51.951881	0.000669	6.689405	2.266432	-0.000268
1226	1.2189e+02	-8.8024	-52.161812	0.000527	5.270440	1.785673	-0.000211
1227	1.2199e+02	-8.8522	-52.460560	0.000750	7.500242	2.541151	-0.000300
1228	1.2209e+02	-8.8971	-52.714900	0.000639	6.385341	2.163412	-0.000256
1229	1.2219e+02	-8.9276	-52.916757	0.000507	5.067731	1.716994	-0.000203
1230	1.2229e+02	-8.9645	-53.154948	0.000598	5.979922	2.026053	-0.000239
1231	1.2239e+02	-9.0062	-53.445621	0.000730	7.297532	2.472471	-0.000292
1232	1.2248e+02	-9.0479	-53.683812	0.000598	5.979922	2.026053	-0.000239
1233	1.2258e+02	-9.0880	-53.901818	0.000547	5.473149	1.854353	-0.000219
1234	1.2268e+02	-9.1313	-54.172306	0.000679	6.790759	2.300772	-0.000272
1235	1.2278e+02	-9.1730	-54.410497	0.000598	5.979922	2.026053	-0.000239
1236	1.2288e+02	-9.2099	-54.628502	0.000547	5.473149	1.854353	-0.000219
1237	1.2298e+02	-9.2516	-54.931287	0.000760	7.601596	2.575490	-0.000304
1238	1.2308e+02	-9.2869	-55.197738	0.000669	6.689405	2.266432	-0.000268
1239	1.2318e+02	-9.3270	-55.411707	0.000537	5.371795	1.820013	-0.000215
1240	1.2328e+02	-9.3607	-55.649898	0.000598	5.979922	2.026053	-0.000239
1241	1.2338e+02	-9.4072	-55.859829	0.000527	5.270440	1.785673	-0.000211
1242	1.2348e+02	-9.4425	-56.142428	0.000709	7.094823	2.403791	-0.000284
1243	1.2358e+02	-9.4842	-56.344285	0.000507	5.067731	1.716994	-0.000203
1244	1.2368e+02	-9.5259	-56.594587	0.000628	6.283986	2.129072	-0.000252
1245	1.2378e+02	-9.5660	-56.832778	0.000598	5.979922	2.026053	-0.000239
1246	1.2388e+02	-9.6029	-57.107304	0.000689	6.892114	2.335111	-0.000276
1247	1.2398e+02	-9.6463	-57.361643	0.000639	6.385341	2.163412	-0.000256
1248	1.2408e+02	-9.6848	-57.575611	0.000537	5.371795	1.820013	-0.000215
1249	1.2418e+02	-9.7217	-57.870322	0.000740	7.398887	2.506811	-0.000296
1250	1.2428e+02	-9.7618	-58.027771	0.000395	3.952830	1.339255	-0.000158
1251	1.2438e+02	-9.7987	-58.354779	0.000821	8.209724	2.781530	-0.000329
1252	1.2447e+02	-9.8468	-58.560672	0.000517	5.169085	1.751334	-0.000207
1253	1.2457e+02	-9.8821	-58.790789	0.000578	5.777213	1.957373	-0.000231
1254	1.2467e+02	-9.9222	-59.065314	0.000689	6.892114	2.335111	-0.000276
1255	1.2477e+02	-9.9671	-59.271208	0.000517	5.169085	1.751334	-0.000207
1256	1.2487e+02	-10.0008	-59.481139	0.000527	5.270440	1.785673	-0.000211
1257	1.2497e+02	-10.0425	-59.739516	0.000649	6.486695	2.197752	-0.000260
1258	1.2507e+02	-10.0874	-60.005967	0.000669	6.689405	2.266432	-0.000268
1259	1.2517e+02	-10.1307	-60.260307	0.000639	6.385341	2.163412	-0.000256
1260	1.2527e+02	-10.1612	-60.530795	0.000679	6.790759	2.300772	-0.000272
1261	1.2537e+02	-10.1981	-60.732651	0.000507	5.067731	1.716994	-0.000203
1262	1.2547e+02	-10.2414	-60.962768	0.000578	5.777213	1.957373	-0.000231
1263	1.2557e+02	-10.2815	-61.204996	0.000608	6.081277	2.060392	-0.000243
1264	1.2567e+02	-10.3200	-61.463373	0.000649	6.486695	2.197752	-0.000260
1265	1.2577e+02	-10.3649	-61.685416	0.000557	5.574504	1.888693	-0.000223
1266	1.2587e+02	-10.4051	-61.915532	0.000578	5.777213	1.957373	-0.000231
1267	1.2597e+02	-10.4452	-62.214280	0.000750	7.500242	2.541151	-0.000300
1268	1.2607e+02	-10.4788	-62.424211	0.000527	5.270440	1.785673	-0.000211
1269	1.2617e+02	-10.5270	-62.654328	0.000578	5.777213	1.957373	-0.000231
1270	1.2627e+02	-10.5607	-62.900593	0.000618	6.182632	2.094732	-0.000248
1271	1.2636e+02	-10.6040	-63.142822	0.000608	6.081277	2.060392	-0.000243
1272	1.2646e+02	-10.6505	-63.340641	0.000497	4.966376	1.682654	-0.000199
1273	1.2656e+02	-10.6874	-63.635352	0.000740	7.398887	2.506811	-0.000296
1274	1.2666e+02	-10.7131	-63.821060	0.000466	4.662312	1.579634	-0.000187
1275	1.2676e+02	-10.7692	-64.079437	0.000649	6.486695	2.197752	-0.000260
1276	1.2686e+02	-10.8029	-64.357999	0.000699	6.993468	2.369451	-0.000280
1277	1.2696e+02	-10.8430	-64.551782	0.000487	4.865022	1.648314	-0.000195
1278	1.2706e+02	-10.8815	-64.781899	0.000578	5.777213	1.957373	-0.000231
1279	1.2716e+02	-10.9216	-64.999904	0.000547	5.473149	1.854353	-0.000219
1280	1.2726e+02	-10.9617	-65.302689	0.000760	7.601596	2.575490	-0.000304
1281	1.2736e+02	-11.0002	-65.536843	0.000588	5.878568	1.991713	-0.000235
1282	1.2746e+02	-11.0419	-65.738700	0.000507	5.067731	1.716994	-0.000203
1283	1.2756e+02	-11.0836	-65.984965	0.000618	6.182632	2.094732	-0.000248
1284	1.2766e+02	-11.1141	-66.194896	0.000527	5.270440	1.785673	-0.000211
1285	1.2776e+02	-11.1655	-66.497681	0.000760	7.601596	2.575490	-0.000304
1286	1.2786e+02	-11.1943	-66.703575	0.000517	5.169085	1.751334	-0.000207
1287	1.2796e+02	-11.2409	-66.925618	0.000557	5.574504	1.888693	-0.000223
1288	1.2806e+02	-11.2762	-67.179957	0.000639	6.385341	2.163412	-0.000256
1289	1.2816e+02	-11.3130	-67.426223	0.000618	6.182632	2.094732	-0.000248
1290	1.2826e+02	-11.3628	-67.624042	0.000497	4.966376	1.682654	-0.000199
1291	1.2835e+02	-11.3965	-67.874345	0.000628	6.283986	2.129072	-0.000252
1292	1.2845e+02	-11.4382	-68.100424	0.000568	5.675858	1.923033	-0.000227
1293	1.2855e+02	-11.4799	-68.310355	0.000527	5.270440	1.785673	-0.000211
1294	1.2865e+02	-11.5136	-68.552583	0.000608	6.081277	2.060392	-0.000243
1295	1.2875e+02	-11.5569	-68.782700	0.000578	5.777213	1.957373	-0.000231
1296	1.2885e+02	-11.5954	-69.045114	0.000659	6.588050	2.232092	-0.000264
1297	1.2895e+02	-11.6419	-69.323676	0.000699	6.993468	2.369451	-0.000280
1298	1.2905e+02	-11.6804	-69.529570	0.000517	5.169085	1.751334	-0.000207
1299	1.2915e+02	-11.7253	-69.751613	0.000557	5.574504	1.888693	-0.000223
1300	1.2925e+02	-11.7622	-70.001915	0.000628	6.283986	2.129072	-0.000252
1301	1.2935e+02	-11.7975	-70.187623	0.000466	4.662312	1.579634	-0.000187
1302	1.2945e+02	-11.8328	-70.425814	0.000598	5.979922	2.026053	-0.000239
1303	1.2955e+02	-11.8761	-70.676117	0.000628	6.283986	2.129072	-0.000252
1304	1.2965e+02	-11.9243	-70.934493	0.000649	6.486695	2.197752	-0.000260
1305	1.2975e+02	-11.9563	-71.172684	0.000598	5.979922	2.026053	-0.000239
1306	1.2985e+02	-11.9932	-71.378578	0.000517	5.169085	1.751334	-0.000207
1307	1.2995e+02	-12.0317	-71.628881	0.000628	6.283986	2.129072	-0.000252
1308	1.3005e+02	-12.0735	-71.826700	0.000497	4.966376	1.682654	-0.000199
1309	1.3015e+02	-12.1104	-72.068929	0.000608	6.081277	2.060392	-0.000243
1310	1.3025e+02	-12.1633	-72.242525	0.000436	4.358248	1.476615	-0.000174
1311	1.3034e+02	-12.1922	-72.545311	0.000760	7.601596	2.575490	-0.000304
1312	1.3044e+02	-12.2419	-72.779465	0.000588	5.878568	1.991713	-0.000235
1313	1.3054e+02	-12.2740	-73.029767	0.000628	6.283986	2.129072	-0.000252
1314	1.3064e+02	-12.3189	-73.231624	0.000507	5.067731	1.716994	-0.000203
1315	1.3074e+02	-12.3462	-73.429443	0.000497	4.966376	1.682654	-0.000199
1316	1.3084e+02	-12.3959	-73.695894	0.000669	6.689405	2.266432	-0.000268
1317	1.3094e+02	-12.4328	-73.917937	0.000557	5.574504	1.888693	-0.000223
1318	1.3104e+02	-12.4777	-74.156128	0.000598	5.979922	2.026053	-0.000239
1319	1.3114e+02	-12.5130	-74.374133	0.000547	5.473149	1.854353	-0.000219
1320	1.3124e+02	-12.5547	-74.628473	0.000639	6.385341	2.163412	-0.000256
1321	1.3134e+02	-12.5948	-74.850515	0.000557	5.574504	1.888693	-0.000223
1322	1.3144e+02	-12.6301	-75.052372	0.000507	5.067731	1.716994	-0.000203
1323	1.3154e+02	-12.6766	-75.306711	0.000639	6.385341	2.163412	-0.000256
1324	1.3164e+02	-12.7071	-75.548940	0.000608	6.081277	2.060392	-0.000243
1325	1.3174e+02	-12.7504	-75.787131	0.000598	5.979922	2.026053	-0.000239
1326	1.3184e+02	-12.7970	-76.005136	0.000547	5.473149	1.854353	-0.000219
1327	1.3194e+02	-12.8355	-76.235253	0.000578	5.777213	1.957373	-0.000231
1328	1.3204e+02	-12.8692	-76.481518	0.000618	6.182632	2.094732	-0.000248
1329	1.3214e+02	-12.9028	-76.687412	0.000517	5.169085	1.751334	-0.000207
1330	1.3224e+02	-12.9574	-76.953863	0.000669	6.689405	2.266432	-0.000268
1331	1.3234e+02	-12.9879	-77.131497	0.000446	4.459603	1.510954	-0.000179
1332	1.3243e+02	-13.0344	-77.410059	0.000699	6.993468	2.369451	-0.000280
1333	1.3253e+02	-13.0681	-77.611916	0.000507	5.067731	1.716994	-0.000203
1334	1.3263e+02	-13.1082	-77.846070	0.000588	5.878568	1.991713	-0.000235
1335	1.3273e+02	-13.1483	-78.096372	0.000628	6.283986	2.129072	-0.000252
1336	1.3283e+02	-13.1868	-78.306303	0.000527	5.270440	1.785673	-0.000211
1337	1.3293e+02	-13.2397	-78.556606	0.000628	6.283986	2.129072	-0.000252
1338	1.3303e+02	-13.2670	-78.750388	0.000487	4.865022	1.648314	-0.000195
1339	1.3313e+02	-13.3183	-79.028951	0.000699	6.993468	2.369451	-0.000280
1340	1.3323e+02	-13.3520	-79.250993	0.000557	5.574504	1.888693	-0.000223
1341	1.3333e+02	-13.3905	-79.444776	0.000487	4.865022	1.648314	-0.000195
1342	1.3343e+02	-13.4210	-79.695078	0.000628	6.283986	2.129072	-0.000252
1343	1.3353e+02	-13.4691	-79.896935	0.000507	5.067731	1.716994	-0.000203
1344	1.3363e+02	-13.5076	-80.151274	0.000639	6.385341	2.163412	-0.000256
1345	1.3373e+02	-13.5526	-80.389465	0.000598	5.979922	2.026053	-0.000239
1346	1.3383e+02	-13.5862	-80.591322	0.000507	5.067731	1.716994	-0.000203
1347	1.3393e+02	-13.6247	-80.837587	0.000618	6.182632	2.094732	-0.000248
1348	1.3403e+02	-13.6729	-81.059630	0.000557	5.574504	1.888693	-0.000223
1349	1.3413e+02	-13.7114	-81.257450	0.000497	4.966376	1.682654	-0.000199
1350	1.3423e+02	-13.7451	-81.536012	0.000699	6.993468	2.369451	-0.000280
1351	1.3432e+02	-13.7932	-81.725757	0.000476	4.763667	1.613974	-0.000191
1352	1.3442e+02	-13.8381	-81.972023	0.000618	6.182632	2.094732	-0.000248
1353	1.3452e+02	-13.8654	-82.194065	0.000557	5.574504	1.888693	-0.000223
1354	1.3462e+02	-13.9119	-82.416108	0.000557	5.574504	1.888693	-0.000223
1355	1.3472e+02	-13.9504	-82.650261	0.000588	5.878568	1.991713	-0.000235
1356	1.3482e+02	-13.9889	-82.848081	0.000497	4.966376	1.682654	-0.000199
1357	1.3492e+02	-14.0258	-83.130681	0.000709	7.094823	2.403791	-0.000284
1358	1.3502e+02	-14.0707	-83.348686	0.000547	5.473149	1.854353	-0.000219
1359	1.3512e+02	-14.1108	-83.570728	0.000557	5.574504	1.888693	-0.000223
1360	1.3522e+02	-14.1461	-83.841216	0.000679	6.790759	2.300772	-0.000272
1361	1.3532e+02	-14.1959	-84.039036	0.000497	4.966376	1.682654	-0.000199
1362	1.3542e+02	-14.2215	-84.309524	0.000679	6.790759	2.300772	-0.000272
1363	1.3552e+02	-14.2680	-84.487158	0.000446	4.459603	1.510954	-0.000179
1364	1.3562e+02	-14.3082	-84.721312	0.000588	5.878568	1.991713	-0.000235
1365	1.3572e+02	-14.3499	-84.955466	0.000588	5.878568	1.991713	-0.000235
1366	1.3582e+02	-14.3900	-85.213843	0.000649	6.486695	2.197752	-0.000260
1367	1.3592e+02	-14.4221	-85.427811	0.000537	5.371795	1.820013	-0.000215
1368	1.3602e+02	-14.4686	-85.674076	0.000618	6.182632	2.094732	-0.000248
1369	1.3612e+02	-14.4991	-85.879970	0.000517	5.169085	1.751334	-0.000207
1370	1.3622e+02	-14.5456	-86.118161	0.000598	5.979922	2.026053	-0.000239
1371	1.3631e+02	-14.5809	-86.344241	0.000568	5.675858	1.923033	-0.000227
1372	1.3641e+02	-14.6274	-86.550135	0.000517	5.169085	1.751334	-0.000207
1373	1.3651e+02	-14.6627	-86.784288	0.000588	5.878568	1.991713	-0.000235
1374	1.3661e+02	-14.6996	-87.078999	0.000740	7.398887	2.506811	-0.000296
1375	1.3671e+02	-14.7413	-87.272782	0.000487	4.865022	1.648314	-0.000195
1376	1.3681e+02	-14.7862	-87.510973	0.000598	5.979922	2.026053	-0.000239
1377	1.3691e+02	-14.8215	-87.716867	0.000517	5.169085	1.751334	-0.000207
1378	1.3701e+02	-14.8520	-87.999466	0.000709	7.094823	2.403791	-0.000284
1379	1.3711e+02	-14.9065	-88.209397	0.000527	5.270440	1.785673	-0.000211
1380	1.3721e+02	-14.9386	-88.427403	0.000547	5.473149	1.854353	-0.000219
1381	1.3731e+02	-14.9835	-88.669631	0.000608	6.081277	2.060392	-0.000243
1382	1.3741e+02	-15.0220	-88.863413	0.000487	4.865022	1.648314	-0.000195
1383	1.3751e+02	-15.0509	-89.150050	0.000720	7.196178	2.438131	-0.000288
1384	1.3761e+02	-15.0990	-89.347870	0.000497	4.966376	1.682654	-0.000199
1385	1.3771e+02	-15.1584	-89.614321	0.000669	6.689405	2.266432	-0.000268
1386	1.3781e+02	-15.1921	-89.832326	0.000547	5.473149	1.854353	-0.000219
1387	1.3791e+02	-15.2306	-90.106851	0.000689	6.892114	2.335111	-0.000276
1388	1.3801e+02	-15.2627	-90.296596	0.000476	4.763667	1.613974	-0.000191
1389	1.3811e+02	-15.3012	-90.567085	0.000679	6.790759	2.300772	-0.000272
1390	1.3821e+02	-15.3413	-90.760867	0.000487	4.865022	1.648314	-0.000195
1391	1.3831e+02	-15.3814	-90.995021	0.000588	5.878568	1.991713	-0.000235
1392	1.3840e+02	-15.4279	-91.241286	0.000618	6.182632	2.094732	-0.000248
1393	1.3850e+02	-15.4664	-91.463329	0.000557	5.574504	1.888693	-0.000223
1394	1.3860e+02	-15.5001	-91.709594	0.000618	6.182632	2.094732	-0.000248
1395	1.3870e+02	-15.5402	-92.004305	0.000740	7.398887	2.506811	-0.000296
1396	1.3880e+02	-15.5819	-92.222310	0.000547	5.473149	1.854353	-0.000219
1397	1.3890e+02	-15.6268	-92.460501	0.000598	5.979922	2.026053	-0.000239
1398	1.3900e+02	-15.6589	-92.698692	0.000598	5.979922	2.026053	-0.000239
1399	1.3910e+02	-15.6974	-92.916698	0.000547	5.473149	1.854353	-0.000219
1400	1.3920e+02	-15.7391	-93.130666	0.000537	5.371795	1.820013	-0.000215
1401	1.3930e+02	-15.7808	-93.393080	0.000659	6.588050	2.232092	-0.000264
1402	1.3940e+02	-15.8145	-93.594936	0.000507	5.067731	1.716994	-0.000203
1403	1.3950e+02	-15.8627	-93.897722	0.000760	7.601596	2.575490	-0.000304
1404	1.3960e+02	-15.8979	-94.119764	0.000557	5.574504	1.888693	-0.000223
1405	1.3970e+02	-15.9413	-94.361992	0.000608	6.081277	2.060392	-0.000243
1406	1.3980e+02	-15.9814	-94.620369	0.000649	6.486695	2.197752	-0.000260
1407	1.3990e+02	-16.0231	-94.854523	0.000588	5.878568	1.991713	-0.000235
1408	1.4000e+02	-16.0584	-95.104825	0.000628	6.283986	2.129072	-0.000252
1409	1.4010e+02	-16.1049	-95.347053	0.000608	6.081277	2.060392	-0.000243
1410	1.4020e+02	-16.1402	-95.613504	0.000669	6.689405	2.266432	-0.000268
1411	1.4029e+02	-16.1771	-95.815361	0.000507	5.067731	1.716994	-0.000203
1412	1.4039e+02	-16.2188	-96.069701	0.000639	6.385341	2.163412	-0.000256
1413	1.4049e+02	-16.2573	-96.295780	0.000568	5.675858	1.923033	-0.000227
1414	1.4059e+02	-16.3102	-96.562231	0.000669	6.689405	2.266432	-0.000268
1415	1.4069e+02	-16.3375	-96.812534	0.000628	6.283986	2.129072	-0.000252
1416	1.4079e+02	-16.3696	-97.046687	0.000588	5.878568	1.991713	-0.000235
1417	1.4089e+02	-16.4177	-97.292953	0.000618	6.182632	2.094732	-0.000248
1418	1.4099e+02	-16.4546	-97.559404	0.000669	6.689405	2.266432	-0.000268
1419	1.4109e+02	-16.4947	-97.757223	0.000497	4.966376	1.682654	-0.000199
1420	1.4119e+02	-16.5445	-98.060009	0.000760	7.601596	2.575490	-0.000304
1421	1.4129e+02	-16.5749	-98.314348	0.000639	6.385341	2.163412	-0.000256
1422	1.4139e+02	-16.6279	-98.532353	0.000547	5.473149	1.854353	-0.000219
1423	1.4149e+02	-16.6584	-98.774582	0.000608	6.081277	2.060392	-0.000243
1424	1.4159e+02	-16.7017	-99.024884	0.000628	6.283986	2.129072	-0.000252
1425	1.4169e+02	-16.7450	-99.283261	0.000649	6.486695	2.197752	-0.000260
1426	1.4179e+02	-16.7819	-99.517415	0.000588	5.878568	1.991713	-0.000235
1427	1.4189e+02	-16.8188	-99.771754	0.000639	6.385341	2.163412	-0.000256
1428	1.4199e+02	-16.8460	-100.086651	0.000791	7.905660	2.678510	-0.000316
1429	1.4209e+02	-16.8958	-100.324842	0.000598	5.979922	2.026053	-0.000239
1430	1.4219e+02	-16.9343	-100.567070	0.000608	6.081277	2.060392	-0.000243
1431	1.4228e+02	-16.9728	-100.853706	0.000720	7.196178	2.438131	-0.000288
1432	1.4238e+02	-17.0129	-101.099972	0.000618	6.182632	2.094732	-0.000248
1433	1.4248e+02	-17.0514	-101.366423	0.000669	6.689405	2.266432	-0.000268
1434	1.4258e+02	-17.0899	-101.572317	0.000517	5.169085	1.751334	-0.000207
1435	1.4268e+02	-17.1332	-101.871065	0.000750	7.500242	2.541151	-0.000300
1436	1.4278e+02	-17.1861	-102.157701	0.000720	7.196178	2.438131	-0.000288
1437	1.4288e+02	-17.2022	-102.403967	0.000618	6.182632	2.094732	-0.000248
1438	1.4298e+02	-17.2551	-102.702715	0.000750	7.500242	2.541151	-0.000300
1439	1.4308e+02	-17.2984	-102.936868	0.000588	5.878568	1.991713	-0.000235
1440	1.4318e+02	-17.3418	-103.179097	0.000608	6.081277	2.060392	-0.000243
1441	1.4328e+02	-17.3754	-103.510142	0.000831	8.311078	2.815870	-0.000333
1442	1.4338e+02	-17.4075	-103.720073	0.000527	5.270440	1.785673	-0.000211
1443	1.4348e+02	-17.4508	-104.022858	0.000760	7.601596	2.575490	-0.000304
1444	1.4358e+02	-17.4942	-104.317569	0.000740	7.398887	2.506811	-0.000296
1445	1.4368e+02	-17.5311	-104.483091	0.000416	4.155539	1.407935	-0.000166
1446	1.4378e+02	-17.5776	-104.826248	0.000862	8.615142	2.918889	-0.000345
1447	1.4388e+02	-17.6193	-105.092699	0.000669	6.689405	2.266432	-0.000268
1448	1.4398e+02	-17.6562	-105.359150	0.000669	6.689405	2.266432	-0.000268
1449	1.4408e+02	-17.6947	-105.613489	0.000639	6.385341	2.163412	-0.000256
1450	1.4418e+02	-17.7332	-105.908200	0.000740	7.398887	2.506811	-0.000296
1451	1.4428e+02	-17.7717	-106.170614	0.000659	6.588050	2.232092	-0.000264
1452	1.4437e+02	-17.8166	-106.461288	0.000730	7.297532	2.472471	-0.000292
1453	1.4447e+02	-17.8583	-106.739850	0.000699	6.993468	2.369451	-0.000280
1454	1.4457e+02	-17.8904	-107.014376	0.000689	6.892114	2.335111	-0.000276
1455	1.4467e+02	-17.9401	-107.280827	0.000669	6.689405	2.266432	-0.000268
1456	1.4477e+02	-17.9738	-107.519018	0.000598	5.979922	2.026053	-0.000239
1457	1.4487e+02	-18.0075	-107.886397	0.000922	9.223270	3.124928	-0.000369
1458	1.4497e+02	-18.0540	-108.144774	0.000649	6.486695	2.197752	-0.000260
1459	1.4507e+02	-18.0893	-108.427373	0.000709	7.094823	2.403791	-0.000284
1460	1.4517e+02	-18.1246	-108.734195	0.000770	7.702951	2.609830	-0.000308
1461	1.4527e+02	-18.1711	-108.964312	0.000578	5.777213	1.957373	-0.000231
1462	1.4537e+02	-18.2161	-109.271134	0.000770	7.702951	2.609830	-0.000308
1463	1.4547e+02	-18.2481	-109.565845	0.000740	7.398887	2.506811	-0.000296
1464	1.4557e+02	-18.2931	-109.820185	0.000639	6.385341	2.163412	-0.000256
1465	1.4567e+02	-18.3332	-110.122970	0.000760	7.601596	2.575490	-0.000304
1466	1.4577e+02	-18.3749	-110.433830	0.000780	7.804305	2.644170	-0.000312
1467	1.4587e+02	-18.4022	-110.696243	0.000659	6.588050	2.232092	-0.000264
1468	1.4597e+02	-18.4551	-111.027288	0.000831	8.311078	2.815870	-0.000333
1469	1.4607e+02	-18.4952	-111.305851	0.000699	6.993468	2.369451	-0.000280
1470	1.4617e+02	-18.5401	-111.604599	0.000750	7.500242	2.541151	-0.000300
1471	1.4626e+02	-18.5690	-111.899310	0.000740	7.398887	2.506811	-0.000296
1472	1.4636e+02	-18.6139	-112.210169	0.000780	7.804305	2.644170	-0.000312
1473	1.4646e+02	-18.6540	-112.488732	0.000699	6.993468	2.369451	-0.000280
1474	1.4656e+02	-18.6909	-112.827851	0.000851	8.513788	2.884549	-0.000341
1475	1.4666e+02	-18.7294	-113.106413	0.000699	6.993468	2.369451	-0.000280
1476	1.4676e+02	-18.7663	-113.401124	0.000740	7.398887	2.506811	-0.000296
1477	1.4686e+02	-18.8144	-113.716021	0.000791	7.905660	2.678510	-0.000316
1478	1.4696e+02	-18.8513	-114.010732	0.000740	7.398887	2.506811	-0.000296
1479	1.4706e+02	-18.8947	-114.321591	0.000780	7.804305	2.644170	-0.000312
1480	1.4716e+02	-18.9299	-114.628414	0.000770	7.702951	2.609830	-0.000308
1481	1.4726e+02	-18.9636	-114.898902	0.000679	6.790759	2.300772	-0.000272
1482	1.4736e+02	-19.0278	-115.217835	0.000801	8.007015	2.712850	-0.000321
1483	1.4746e+02	-19.0583	-115.581178	0.000912	9.121915	3.090589	-0.000365
1484	1.4756e+02	-19.0888	-115.900111	0.000801	8.007015	2.712850	-0.000321
1485	1.4766e+02	-19.1369	-116.146377	0.000618	6.182632	2.094732	-0.000248
1486	1.4776e+02	-19.1722	-116.505682	0.000902	9.020561	3.056249	-0.000361
1487	1.4786e+02	-19.2011	-116.840764	0.000841	8.412433	2.850209	-0.000337
1488	1.4796e+02	-19.2460	-117.139512	0.000750	7.500242	2.541151	-0.000300
1489	1.4806e+02	-19.2845	-117.438260	0.000750	7.500242	2.541151	-0.000300
1490	1.4816e+02	-19.3294	-117.797565	0.000902	9.020561	3.056249	-0.000361
1491	1.4825e+02	-19.3631	-118.112462	0.000791	7.905660	2.678510	-0.000316
1492	1.4835e+02	-19.4032	-118.423321	0.000780	7.804305	2.644170	-0.000312
1493	1.4845e+02	-19.4433	-118.754366	0.000831	8.311078	2.815870	-0.000333
1494	1.4855e+02	-19.4850	-119.097523	0.000862	8.615142	2.918889	-0.000345
1495	1.4865e+02	-19.5315	-119.452791	0.000892	8.919206	3.021909	-0.000357
1496	1.4875e+02	-19.5765	-119.751539	0.000750	7.500242	2.541151	-0.000300
1497	1.4885e+02	-19.6117	-120.118918	0.000922	9.223270	3.124928	-0.000369
1498	1.4895e+02	-19.6358	-120.429778	0.000780	7.804305	2.644170	-0.000312
1499	1.4905e+02	-19.6823	-120.781008	0.000882	8.817852	2.987569	-0.000353
1500	1.4915e+02	-19.7337	-121.095905	0.000791	7.905660	2.678510	-0.000316
1501	1.4925e+02	-19.7658	-121.455210	0.000902	9.020561	3.056249	-0.000361
1502	1.4935e+02	-19.8043	-121.757995	0.000760	7.601596	2.575490	-0.000304
1503	1.4945e+02	-19.8395	-122.072892	0.000791	7.905660	2.678510	-0.000316
1504	1.4955e+02	-19.8861	-122.460457	0.000973	9.730043	3.296628	-0.000390
1505	1.4965e+02	-19.9214	-122.819762	0.000902	9.020561	3.056249	-0.000361
1506	1.4975e+02	-19.9663	-123.146770	0.000821	8.209724	2.781530	-0.000329
1507	1.4985e+02	-20.0032	-123.534335	0.000973	9.730043	3.296628	-0.000390
1508	1.4995e+02	-19.9663	-123.566632	-0.000081	-0.810837	-0.274719	-0.000032
1509	1.5005e+02	-19.9262	-123.586818	-0.000051	-0.506773	-0.171699	-0.000020
1510	1.5015e+02	-19.8845	-123.578744	0.000020	0.202709	0.068680	0.000008
1511	1.5025e+02	-19.8540	-123.570669	0.000020	0.202709	0.068680	0.000008
1512	1.5034e+02	-19.7978	-123.602966	-0.000081	-0.810837	-0.274719	-0.000032
1513	1.5044e+02	-19.7690	-123.615078	-0.000030	-0.304064	-0.103020	-0.000012
1514	1.5054e+02	-19.7176	-123.586818	0.000071	0.709482	0.240379	0.000028
1515	1.5064e+02	-19.6807	-123.518186	0.000172	1.723028	0.583778	0.000069
1516	1.5074e+02	-19.6438	-123.473778	0.000111	1.114901	0.377739	0.000045
1517	1.5084e+02	-19.6069	-123.485889	-0.000030	-0.304064	-0.103020	-0.000012
1518	1.5094e+02	-19.5700	-123.401110	0.000213	2.128447	0.721137	0.000085
1519	1.5104e+02	-19.5235	-123.352664	0.000122	1.216255	0.412078	0.000049
1520	1.5114e+02	-19.4866	-123.267884	0.000213	2.128447	0.721137	0.000085
1521	1.5124e+02	-19.4497	-123.231550	0.000091	0.912192	0.309059	0.000037
1522	1.5134e+02	-19.4016	-123.191178	0.000101	1.013546	0.343399	0.000041
1523	1.5144e+02	-19.3663	-123.094287	0.000243	2.432511	0.824157	0.000097
1524	1.5154e+02	-19.3278	-123.025656	0.000172	1.723028	0.583778	0.000069
1525	1.5164e+02	-19.2909	-122.948950	0.000193	1.925738	0.652458	0.000077
1526	1.5174e+02	-19.2508	-122.912616	0.000091	0.912192	0.309059	0.000037
1527	1.5184e+02	-19.2027	-122.807651	0.000264	2.635220	0.892837	0.000105
1528	1.5194e+02	-19.1690	-122.706722	0.000253	2.533865	0.858497	0.000101
1529	1.5204e+02	-19.1305	-122.605794	0.000253	2.533865	0.858497	0.000101
1530	1.5214e+02	-19.0920	-122.565422	0.000101	1.013546	0.343399	0.000041
1531	1.5224e+02	-19.0503	-122.452383	0.000284	2.837929	0.961516	0.000114
1532	1.5233e+02	-19.0166	-122.347417	0.000264	2.635220	0.892837	0.000105
1533	1.5243e+02	-18.9636	-122.266674	0.000203	2.027092	0.686797	0.000081
1534	1.5253e+02	-18.9364	-122.161709	0.000264	2.635220	0.892837	0.000105
1535	1.5263e+02	-18.8963	-122.101152	0.000152	1.520319	0.515098	0.000061
1536	1.5273e+02	-18.8465	-121.955815	0.000365	3.648766	1.236235	0.000146
1537	1.5283e+02	-18.8064	-121.862961	0.000233	2.331156	0.789817	0.000093
1538	1.5293e+02	-18.7647	-121.778181	0.000213	2.128447	0.721137	0.000085
1539	1.5303e+02	-18.7294	-121.612658	0.000416	4.155539	1.407935	0.000166
1540	1.5313e+02	-18.6925	-121.483470	0.000324	3.243348	1.098876	0.000130
1541	1.5323e+02	-18.6540	-121.410802	0.000182	1.824383	0.618118	0.000073
1542	1.5333e+02	-18.6075	-121.293725	0.000294	2.939284	0.995856	0.000118
1543	1.5343e+02	-18.5754	-121.152425	0.000355	3.547412	1.201896	0.000142
1544	1.5353e+02	-18.5385	-121.055534	0.000243	2.432511	0.824157	0.000097
1545	1.5363e+02	-18.4952	-120.966717	0.000223	2.229802	0.755477	0.000089
1546	1.5373e+02	-18.4487	-120.841565	0.000314	3.141993	1.064536	0.000126
1547	1.5383e+02	-18.4182	-120.667969	0.000436	4.358248	1.476615	0.000174
1548	1.5393e+02	-18.3749	-120.595300	0.000182	1.824383	0.618118	0.000073
1549	1.5403e+02	-18.3268	-120.474186	0.000304	3.040638	1.030196	0.000122
1550	1.5413e+02	-18.2883	-120.340961	0.000334	3.344702	1.133216	0.000134
1551	1.5422e+02	-18.2481	-120.203698	0.000345	3.446057	1.167556	0.000138
1552	1.5432e+02	-18.2193	-120.090658	0.000284	2.837929	0.961516	0.000114
1553	1.5442e+02	-18.1679	-119.961470	0.000324	3.243348	1.098876	0.000130
1554	1.5452e+02	-18.1423	-119.824207	0.000345	3.446057	1.167556	0.000138
1555	1.5462e+02	-18.0909	-119.695019	0.000324	3.243348	1.098876	0.000130
1556	1.5472e+02	-18.0428	-119.590053	0.000264	2.635220	0.892837	0.000105
1557	1.5482e+02	-18.0123	-119.432605	0.000395	3.952830	1.339255	0.000158
1558	1.5492e+02	-17.9658	-119.307454	0.000314	3.141993	1.064536	0.000126
1559	1.5502e+02	-17.9321	-119.174228	0.000334	3.344702	1.133216	0.000134
1560	1.5512e+02	-17.8920	-119.036966	0.000345	3.446057	1.167556	0.000138
1561	1.5522e+02	-17.8551	-118.907777	0.000324	3.243348	1.098876	0.000130
1562	1.5532e+02	-17.8086	-118.770515	0.000345	3.446057	1.167556	0.000138
1563	1.5542e+02	-17.7765	-118.625178	0.000365	3.648766	1.236235	0.000146
1564	1.5552e+02	-17.7236	-118.479841	0.000365	3.648766	1.236235	0.000146
1565	1.5562e+02	-17.7043	-118.374876	0.000264	2.635220	0.892837	0.000105
1566	1.5572e+02	-17.6514	-118.249724	0.000314	3.141993	1.064536	0.000126
1567	1.5582e+02	-17.6209	-118.160907	0.000223	2.229802	0.755477	0.000089
1568	1.5592e+02	-17.5680	-117.963088	0.000497	4.966376	1.682654	0.000199
1569	1.5602e+02	-17.5439	-117.850048	0.000284	2.837929	0.961516	0.000114
1570	1.5612e+02	-17.5006	-117.692600	0.000395	3.952830	1.339255	0.000158
1571	1.5622e+02	-17.4541	-117.563411	0.000324	3.243348	1.098876	0.000130
1572	1.5631e+02	-17.4075	-117.381740	0.000456	4.560958	1.545294	0.000183
1573	1.5641e+02	-17.3787	-117.236403	0.000365	3.648766	1.236235	0.000146
1574	1.5651e+02	-17.3337	-117.103178	0.000334	3.344702	1.133216	0.000134
1575	1.5661e+02	-17.2984	-116.969952	0.000334	3.344702	1.133216	0.000134
1576	1.5671e+02	-17.2583	-116.856913	0.000284	2.837929	0.961516	0.000114
1577	1.5681e+02	-17.2118	-116.695427	0.000405	4.054185	1.373595	0.000162
1578	1.5691e+02	-17.1829	-116.602573	0.000233	2.331156	0.789817	0.000093
1579	1.5701e+02	-17.1460	-116.416865	0.000466	4.662312	1.579634	0.000187
1580	1.5711e+02	-17.1027	-116.251342	0.000416	4.155539	1.407935	0.000166
1581	1.5721e+02	-17.0594	-116.089857	0.000405	4.054185	1.373595	0.000162
1582	1.5731e+02	-17.0129	-115.924334	0.000416	4.155539	1.407935	0.000166
1583	1.5741e+02	-16.9792	-115.795146	0.000324	3.243348	1.098876	0.000130
1584	1.5751e+02	-16.9375	-115.649809	0.000365	3.648766	1.236235	0.000146
1585	1.5761e+02	-16.9022	-115.524658	0.000314	3.141993	1.064536	0.000126
1586	1.5771e+02	-16.8557	-115.399507	0.000314	3.141993	1.064536	0.000126
1587	1.5781e+02	-16.8108	-115.201687	0.000497	4.966376	1.682654	0.000199
1588	1.5791e+02	-16.7787	-115.080573	0.000304	3.040638	1.030196	0.000122
1589	1.5801e+02	-16.7418	-114.886790	0.000487	4.865022	1.648314	0.000195
1590	1.5811e+02	-16.6969	-114.810085	0.000193	1.925738	0.652458	0.000077
1591	1.5821e+02	-16.6535	-114.612265	0.000497	4.966376	1.682654	0.000199
1592	1.5830e+02	-16.6231	-114.475002	0.000345	3.446057	1.167556	0.000138
1593	1.5840e+02	-16.5814	-114.317554	0.000395	3.952830	1.339255	0.000158
1594	1.5850e+02	-16.5348	-114.160106	0.000395	3.952830	1.339255	0.000158
1595	1.5860e+02	-16.4867	-114.022843	0.000345	3.446057	1.167556	0.000138
1596	1.5870e+02	-16.4594	-113.829061	0.000487	4.865022	1.648314	0.000195
1597	1.5880e+02	-16.4241	-113.703909	0.000314	3.141993	1.064536	0.000126
1598	1.5890e+02	-16.3696	-113.546461	0.000395	3.952830	1.339255	0.000158
1599	1.5900e+02	-16.3343	-113.421310	0.000314	3.141993	1.064536	0.000126
1600	1.5910e+02	-16.2926	-113.235602	0.000466	4.662312	1.579634	0.000187
1601	1.5920e+02	-16.2621	-113.098339	0.000345	3.446057	1.167556	0.000138
1602	1.5930e+02	-16.2156	-112.932817	0.000416	4.155539	1.407935	0.000166
1603	1.5940e+02	-16.1867	-112.823814	0.000274	2.736575	0.927177	0.000110
1604	1.5950e+02	-16.1466	-112.638106	0.000466	4.662312	1.579634	0.000187
1605	1.5960e+02	-16.0953	-112.468546	0.000426	4.256894	1.442275	0.000170
1606	1.5970e+02	-16.0520	-112.327246	0.000355	3.547412	1.201896	0.000142
1607	1.5980e+02	-16.0247	-112.169798	0.000395	3.952830	1.339255	0.000158
1608	1.5990e+02	-15.9814	-112.020424	0.000375	3.750121	1.270575	0.000150
1609	1.6000e+02	-15.9509	-111.850864	0.000426	4.256894	1.442275	0.000170
1610	1.6010e+02	-15.9028	-111.685342	0.000416	4.155539	1.407935	0.000166
1611	1.6019e+02	-15.8659	-111.556153	0.000324	3.243348	1.098876	0.000130
1612	1.6029e+02	-15.8225	-111.382556	0.000436	4.358248	1.476615	0.000174
1613	1.6039e+02	-15.7776	-111.221071	0.000405	4.054185	1.373595	0.000162
1614	1.6049e+02	-15.7359	-111.063623	0.000395	3.952830	1.339255	0.000158
1615	1.6059e+02	-15.7038	-110.918286	0.000365	3.648766	1.236235	0.000146
1616	1.6069e+02	-15.6605	-110.720466	0.000497	4.966376	1.682654	0.000199
1617	1.6079e+02	-15.6268	-110.595315	0.000314	3.141993	1.064536	0.000126
1618	1.6089e+02	-15.5787	-110.454015	0.000355	3.547412	1.201896	0.000142
1619	1.6099e+02	-15.5434	-110.292530	0.000405	4.054185	1.373595	0.000162
1620	1.6109e+02	-15.5001	-110.106822	0.000466	4.662312	1.579634	0.000187
1621	1.6119e+02	-15.4648	-109.973596	0.000334	3.344702	1.133216	0.000134
1622	1.6129e+02	-15.4327	-109.799999	0.000436	4.358248	1.476615	0.000174
1623	1.6139e+02	-15.3878	-109.622365	0.000446	4.459603	1.510954	0.000179
1624	1.6149e+02	-15.3461	-109.408397	0.000537	5.371795	1.820013	0.000215
1625	1.6159e+02	-15.3012	-109.319580	0.000223	2.229802	0.755477	0.000089
1626	1.6169e+02	-15.2595	-109.150020	0.000426	4.256894	1.442275	0.000170
1627	1.6179e+02	-15.2274	-108.948164	0.000507	5.067731	1.716994	0.000203
1628	1.6189e+02	-15.1760	-108.802827	0.000365	3.648766	1.236235	0.000146
1629	1.6199e+02	-15.1520	-108.673638	0.000324	3.243348	1.098876	0.000130
1630	1.6209e+02	-15.0958	-108.487930	0.000466	4.662312	1.579634	0.000187
1631	1.6219e+02	-15.0654	-108.318370	0.000426	4.256894	1.442275	0.000170
1632	1.6228e+02	-15.0252	-108.104402	0.000537	5.371795	1.820013	0.000215
1633	1.6238e+02	-14.9835	-107.995400	0.000274	2.736575	0.927177	0.000110
1634	1.6248e+02	-14.9450	-107.858137	0.000345	3.446057	1.167556	0.000138
1635	1.6258e+02	-14.9129	-107.664354	0.000487	4.865022	1.648314	0.000195
1636	1.6268e+02	-14.8664	-107.486720	0.000446	4.459603	1.510954	0.000179
1637	1.6278e+02	-14.8183	-107.301012	0.000466	4.662312	1.579634	0.000187
1638	1.6288e+02	-14.7846	-107.155675	0.000365	3.648766	1.236235	0.000146
1639	1.6298e+02	-14.7381	-106.965930	0.000476	4.763667	1.613974	0.000191
1640	1.6308e+02	-14.7028	-106.780222	0.000466	4.662312	1.579634	0.000187
1641	1.6318e+02	-14.6627	-106.614699	0.000416	4.155539	1.407935	0.000166
1642	1.6328e+02	-14.6210	-106.477437	0.000345	3.446057	1.167556	0.000138
1643	1.6338e+02	-14.5841	-106.315951	0.000405	4.054185	1.373595	0.000162
1644	1.6348e+02	-14.5504	-106.158503	0.000395	3.952830	1.339255	0.000158
1645	1.6358e+02	-14.5071	-105.928386	0.000578	5.777213	1.957373	0.000231
1646	1.6368e+02	-14.4670	-105.795161	0.000334	3.344702	1.133216	0.000134
1647	1.6378e+02	-14.4204	-105.629638	0.000416	4.155539	1.407935	0.000166
1648	1.6388e+02	-14.3836	-105.460078	0.000426	4.256894	1.442275	0.000170
1649	1.6398e+02	-14.3434	-105.266296	0.000487	4.865022	1.648314	0.000195
1650	1.6408e+02	-14.3065	-105.129033	0.000345	3.446057	1.167556	0.000138
1651	1.6418e+02	-14.2680	-104.911028	0.000547	5.473149	1.854353	0.000219
1652	1.6427e+02	-14.2295	-104.757617	0.000385	3.851475	1.304915	0.000154
1653	1.6437e+02	-14.1830	-104.604206	0.000385	3.851475	1.304915	0.000154
1654	1.6447e+02	-14.1461	-104.426572	0.000446	4.459603	1.510954	0.000179
1655	1.6457e+02	-14.0964	-104.289309	0.000345	3.446057	1.167556	0.000138
1656	1.6467e+02	-14.0611	-104.047081	0.000608	6.081277	2.060392	0.000243
1657	1.6477e+02	-14.0194	-103.930004	0.000294	2.939284	0.995856	0.000118
1658	1.6487e+02	-13.9873	-103.764481	0.000416	4.155539	1.407935	0.000166
1659	1.6497e+02	-13.9456	-103.574736	0.000476	4.763667	1.613974	0.000191
1660	1.6507e+02	-13.9039	-103.425362	0.000375	3.750121	1.270575	0.000150
1661	1.6517e+02	-13.8702	-103.223505	0.000507	5.067731	1.716994	0.000203
1662	1.6527e+02	-13.8285	-103.037797	0.000466	4.662312	1.579634	0.000187
1663	1.6537e+02	-13.7916	-102.876311	0.000405	4.054185	1.373595	0.000162
1664	1.6547e+02	-13.7386	-102.638120	0.000598	5.979922	2.026053	0.000239
1665	1.6557e+02	-13.7098	-102.517006	0.000304	3.040638	1.030196	0.000122
1666	1.6567e+02	-13.6697	-102.343410	0.000436	4.358248	1.476615	0.000174
1667	1.6577e+02	-13.6328	-102.157701	0.000466	4.662312	1.579634	0.000187
1668	1.6587e+02	-13.5879	-102.008327	0.000375	3.750121	1.270575	0.000150
1669	1.6597e+02	-13.5606	-101.806470	0.000507	5.067731	1.716994	0.000203
1670	1.6607e+02	-13.5060	-101.632874	0.000436	4.358248	1.476615	0.000174
1671	1.6616e+02	-13.4740	-101.475425	0.000395	3.952830	1.339255	0.000158
1672	1.6626e+02	-13.4387	-101.281643	0.000487	4.865022	1.648314	0.000195
1673	1.6636e+02	-13.3873	-101.083823	0.000497	4.966376	1.682654	0.000199
1674	1.6646e+02	-13.3520	-100.914263	0.000426	4.256894	1.442275	0.000170
1675	1.6656e+02	-13.3103	-100.740667	0.000436	4.358248	1.476615	0.000174
1676	1.6666e+02	-13.2702	-100.575144	0.000416	4.155539	1.407935	0.000166
1677	1.6676e+02	-13.2349	-100.397510	0.000446	4.459603	1.510954	0.000179
1678	1.6686e+02	-13.1932	-100.183542	0.000537	5.371795	1.820013	0.000215
1679	1.6696e+02	-13.1579	-100.050316	0.000334	3.344702	1.133216	0.000134
1680	1.6706e+02	-13.1130	-99.876720	0.000436	4.358248	1.476615	0.000174
1681	1.6716e+02	-13.0601	-99.699086	0.000446	4.459603	1.510954	0.000179
1682	1.6726e+02	-13.0392	-99.497229	0.000507	5.067731	1.716994	0.000203
1683	1.6736e+02	-12.9911	-99.295372	0.000507	5.067731	1.716994	0.000203
1684	1.6746e+02	-12.9526	-99.089478	0.000517	5.169085	1.751334	0.000207
1685	1.6756e+02	-12.8996	-98.952216	0.000345	3.446057	1.167556	0.000138
1686	1.6766e+02	-12.8692	-98.802841	0.000375	3.750121	1.270575	0.000150
1687	1.6776e+02	-12.8274	-98.560613	0.000608	6.081277	2.060392	0.000243
1688	1.6786e+02	-12.7889	-98.391054	0.000426	4.256894	1.442275	0.000170
1689	1.6796e+02	-12.7537	-98.257828	0.000334	3.344702	1.133216	0.000134
1690	1.6806e+02	-12.7103	-98.064046	0.000487	4.865022	1.648314	0.000195
1691	1.6816e+02	-12.6718	-97.837966	0.000568	5.675858	1.923033	0.000227
1692	1.6825e+02	-12.6253	-97.680518	0.000395	3.952830	1.339255	0.000158
1693	1.6835e+02	-12.5948	-97.519032	0.000405	4.054185	1.373595	0.000162
1694	1.6845e+02	-12.5595	-97.268730	0.000628	6.283986	2.129072	0.000252
1695	1.6855e+02	-12.5114	-97.095133	0.000436	4.358248	1.476615	0.000174
1696	1.6865e+02	-12.4825	-96.929611	0.000416	4.155539	1.407935	0.000166
1697	1.6875e+02	-12.4344	-96.751977	0.000446	4.459603	1.510954	0.000179
1698	1.6885e+02	-12.4039	-96.554157	0.000497	4.966376	1.682654	0.000199
1699	1.6895e+02	-12.3510	-96.380560	0.000436	4.358248	1.476615	0.000174
1700	1.6905e+02	-12.3125	-96.206963	0.000436	4.358248	1.476615	0.000174
1701	1.6915e+02	-12.2740	-95.980884	0.000568	5.675858	1.923033	0.000227
1702	1.6925e+02	-12.2371	-95.867844	0.000284	2.837929	0.961516	0.000114
1703	1.6935e+02	-12.2050	-95.605430	0.000659	6.588050	2.232092	0.000264
1704	1.6945e+02	-12.1601	-95.427796	0.000446	4.459603	1.510954	0.000179
1705	1.6955e+02	-12.1168	-95.258236	0.000426	4.256894	1.442275	0.000170
1706	1.6965e+02	-12.0799	-95.092714	0.000416	4.155539	1.407935	0.000166
1707	1.6975e+02	-12.0382	-94.858560	0.000588	5.878568	1.991713	0.000235
1708	1.6985e+02	-12.0013	-94.701112	0.000395	3.952830	1.339255	0.000158
1709	1.6995e+02	-11.9547	-94.475032	0.000568	5.675858	1.923033	0.000227
1710	1.7005e+02	-11.9146	-94.297398	0.000446	4.459603	1.510954	0.000179
1711	1.7015e+02	-11.8826	-94.131875	0.000416	4.155539	1.407935	0.000166
1712	1.7024e+02	-11.8328	-93.925982	0.000517	5.169085	1.751334	0.000207
1713	1.7034e+02	-11.7975	-93.724125	0.000507	5.067731	1.716994	0.000203
1714	1.7044e+02	-11.7526	-93.554565	0.000426	4.256894	1.442275	0.000170
1715	1.7054e+02	-11.7189	-93.385005	0.000426	4.256894	1.442275	0.000170
1716	1.7064e+02	-11.6756	-93.183149	0.000507	5.067731	1.716994	0.000203
1717	1.7074e+02	-11.6339	-92.944958	0.000598	5.979922	2.026053	0.000239
1718	1.7084e+02	-11.5954	-92.747138	0.000497	4.966376	1.682654	0.000199
1719	1.7094e+02	-11.5585	-92.565467	0.000456	4.560958	1.545294	0.000183
1720	1.7104e+02	-11.5200	-92.424167	0.000355	3.547412	1.201896	0.000142
1721	1.7114e+02	-11.4847	-92.230385	0.000487	4.865022	1.648314	0.000195
1722	1.7124e+02	-11.4366	-92.032565	0.000497	4.966376	1.682654	0.000199
1723	1.7134e+02	-11.3949	-91.834745	0.000497	4.966376	1.682654	0.000199
1724	1.7144e+02	-11.3628	-91.628851	0.000517	5.169085	1.751334	0.000207
1725	1.7154e+02	-11.3227	-91.463329	0.000416	4.155539	1.407935	0.000166
1726	1.7164e+02	-11.2842	-91.233212	0.000578	5.777213	1.957373	0.000231
1727	1.7174e+02	-11.2360	-91.083838	0.000375	3.750121	1.270575	0.000150
1728	1.7184e+02	-11.2040	-90.886018	0.000497	4.966376	1.682654	0.000199
1729	1.7194e+02	-11.1590	-90.684162	0.000507	5.067731	1.716994	0.000203
1730	1.7204e+02	-11.1205	-90.474230	0.000527	5.270440	1.785673	0.000211
1731	1.7213e+02	-11.0804	-90.292559	0.000456	4.560958	1.545294	0.000183
1732	1.7223e+02	-11.0371	-90.086665	0.000517	5.169085	1.751334	0.000207
1733	1.7233e+02	-10.9986	-89.880772	0.000517	5.169085	1.751334	0.000207
1734	1.7243e+02	-10.9553	-89.678915	0.000507	5.067731	1.716994	0.000203
1735	1.7253e+02	-10.9168	-89.464947	0.000537	5.371795	1.820013	0.000215
1736	1.7263e+02	-10.8815	-89.307498	0.000395	3.952830	1.339255	0.000158
1737	1.7273e+02	-10.8286	-89.125827	0.000456	4.560958	1.545294	0.000183
1738	1.7283e+02	-10.8061	-88.871488	0.000639	6.385341	2.163412	0.000256
1739	1.7293e+02	-10.7628	-88.697891	0.000436	4.358248	1.476615	0.000174
1740	1.7303e+02	-10.7195	-88.491997	0.000517	5.169085	1.751334	0.000207
1741	1.7313e+02	-10.6810	-88.306289	0.000466	4.662312	1.579634	0.000187
1742	1.7323e+02	-10.6393	-88.128655	0.000446	4.459603	1.510954	0.000179
1743	1.7333e+02	-10.6008	-87.898538	0.000578	5.777213	1.957373	0.000231
1744	1.7343e+02	-10.5639	-87.712830	0.000466	4.662312	1.579634	0.000187
1745	1.7353e+02	-10.5190	-87.523084	0.000476	4.763667	1.613974	0.000191
1746	1.7363e+02	-10.4885	-87.313153	0.000527	5.270440	1.785673	0.000211
1747	1.7373e+02	-10.4387	-87.119371	0.000487	4.865022	1.648314	0.000195
1748	1.7383e+02	-10.4067	-86.860994	0.000649	6.486695	2.197752	0.000260
1749	1.7393e+02	-10.3617	-86.675286	0.000466	4.662312	1.579634	0.000187
1750	1.7403e+02	-10.3200	-86.469392	0.000517	5.169085	1.751334	0.000207
1751	1.7413e+02	-10.2831	-86.295795	0.000436	4.358248	1.476615	0.000174
1752	1.7422e+02	-10.2462	-86.053567	0.000608	6.081277	2.060392	0.000243
1753	1.7432e+02	-10.1997	-85.855747	0.000497	4.966376	1.682654	0.000199
1754	1.7442e+02	-10.1628	-85.702336	0.000385	3.851475	1.304915	0.000154
1755	1.7452e+02	-10.1179	-85.520665	0.000456	4.560958	1.545294	0.000183
1756	1.7462e+02	-10.0858	-85.290548	0.000578	5.777213	1.957373	0.000231
1757	1.7472e+02	-10.0537	-85.048320	0.000608	6.081277	2.060392	0.000243
1758	1.7482e+02	-10.0072	-84.898946	0.000375	3.750121	1.270575	0.000150
1759	1.7492e+02	-9.9591	-84.652681	0.000618	6.182632	2.094732	0.000248
1760	1.7502e+02	-9.9222	-84.438713	0.000537	5.371795	1.820013	0.000215
1761	1.7512e+02	-9.8885	-84.253004	0.000466	4.662312	1.579634	0.000187
1762	1.7522e+02	-9.8468	-84.071333	0.000456	4.560958	1.545294	0.000183
1763	1.7532e+02	-9.7938	-83.845254	0.000568	5.675858	1.923033	0.000227
1764	1.7542e+02	-9.7666	-83.683768	0.000405	4.054185	1.373595	0.000162
1765	1.7552e+02	-9.7265	-83.457689	0.000568	5.675858	1.923033	0.000227
1766	1.7562e+02	-9.6735	-83.235646	0.000557	5.574504	1.888693	0.000223
1767	1.7572e+02	-9.6479	-83.029752	0.000517	5.169085	1.751334	0.000207
1768	1.7582e+02	-9.6078	-82.835970	0.000487	4.865022	1.648314	0.000195
1769	1.7592e+02	-9.5692	-82.605853	0.000578	5.777213	1.957373	0.000231
1770	1.7602e+02	-9.5291	-82.432256	0.000436	4.358248	1.476615	0.000174
1771	1.7612e+02	-9.4842	-82.238474	0.000487	4.865022	1.648314	0.000195
1772	1.7621e+02	-9.4489	-82.000283	0.000598	5.979922	2.026053	0.000239
1773	1.7631e+02	-9.4104	-81.798426	0.000507	5.067731	1.716994	0.000203
1774	1.7641e+02	-9.3607	-81.580420	0.000547	5.473149	1.854353	0.000219
1775	1.7651e+02	-9.3286	-81.374527	0.000517	5.169085	1.751334	0.000207
1776	1.7661e+02	-9.2901	-81.204967	0.000426	4.256894	1.442275	0.000170
1777	1.7671e+02	-9.2372	-80.970813	0.000588	5.878568	1.991713	0.000235
1778	1.7681e+02	-9.2115	-80.748770	0.000557	5.574504	1.888693	0.000223
1779	1.7691e+02	-9.1714	-80.538839	0.000527	5.270440	1.785673	0.000211
1780	1.7701e+02	-9.1329	-80.312760	0.000568	5.675858	1.923033	0.000227
1781	1.7711e+02	-9.0944	-80.118977	0.000487	4.865022	1.648314	0.000195
1782	1.7721e+02	-9.0447	-79.905009	0.000537	5.371795	1.820013	0.000215
1783	1.7731e+02	-9.0110	-79.662781	0.000608	6.081277	2.060392	0.000243
1784	1.7741e+02	-8.9661	-79.452850	0.000527	5.270440	1.785673	0.000211
1785	1.7751e+02	-8.9308	-79.299439	0.000385	3.851475	1.304915	0.000154
1786	1.7761e+02	-8.8955	-79.061248	0.000598	5.979922	2.026053	0.000239
1787	1.7771e+02	-8.8506	-78.839205	0.000557	5.574504	1.888693	0.000223
1788	1.7781e+02	-8.8056	-78.653497	0.000466	4.662312	1.579634	0.000187
1789	1.7791e+02	-8.7735	-78.423380	0.000578	5.777213	1.957373	0.000231
1790	1.7801e+02	-8.7222	-78.221523	0.000507	5.067731	1.716994	0.000203
1791	1.7810e+02	-8.6965	-77.979295	0.000608	6.081277	2.060392	0.000243
1792	1.7820e+02	-8.6436	-77.745141	0.000588	5.878568	1.991713	0.000235
1793	1.7830e+02	-8.6067	-77.535210	0.000527	5.270440	1.785673	0.000211
1794	1.7840e+02	-8.5570	-77.353539	0.000456	4.560958	1.545294	0.000183
1795	1.7850e+02	-8.5233	-77.099200	0.000639	6.385341	2.163412	0.000256
1796	1.7860e+02	-8.4912	-76.913492	0.000466	4.662312	1.579634	0.000187
1797	1.7870e+02	-8.4495	-76.695486	0.000547	5.473149	1.854353	0.000219
1798	1.7880e+02	-8.4126	-76.457295	0.000598	5.979922	2.026053	0.000239
1799	1.7890e+02	-8.3693	-76.206993	0.000628	6.283986	2.129072	0.000252
1800	1.7900e+02	-8.3260	-76.037433	0.000426	4.256894	1.442275	0.000170
1801	1.7910e+02	-8.2875	-75.758871	0.000699	6.993468	2.369451	0.000280
1802	1.7920e+02	-8.2554	-75.573162	0.000466	4.662312	1.579634	0.000187
1803	1.7930e+02	-8.2137	-75.371306	0.000507	5.067731	1.716994	0.000203
1804	1.7940e+02	-8.1736	-75.177523	0.000487	4.865022	1.648314	0.000195
1805	1.7950e+02	-8.1319	-74.902998	0.000689	6.892114	2.335111	0.000276
1806	1.7960e+02	-8.0918	-74.705178	0.000497	4.966376	1.682654	0.000199
1807	1.7970e+02	-8.0500	-74.454876	0.000628	6.283986	2.129072	0.000252
1808	1.7980e+02	-8.0099	-74.293390	0.000405	4.054185	1.373595	0.000162
1809	1.7990e+02	-7.9698	-74.006754	0.000720	7.196178	2.438131	0.000288
1810	1.8000e+02	-7.9297	-73.829120	0.000446	4.459603	1.510954	0.000179
1811	1.8009e+02	-7.8896	-73.599003	0.000578	5.777213	1.957373	0.000231
1812	1.8019e+02	-7.8607	-73.368886	0.000578	5.777213	1.957373	0.000231
1813	1.8029e+02	-7.8110	-73.183178	0.000466	4.662312	1.579634	0.000187
1814	1.8039e+02	-7.7709	-72.908653	0.000689	6.892114	2.335111	0.000276
1815	1.8049e+02	-7.7292	-72.698722	0.000527	5.270440	1.785673	0.000211
1816	1.8059e+02	-7.6891	-72.472642	0.000568	5.675858	1.923033	0.000227
1817	1.8069e+02	-7.6474	-72.258674	0.000537	5.371795	1.820013	0.000215
1818	1.8079e+02	-7.6105	-71.996260	0.000659	6.588050	2.232092	0.000264
1819	1.8089e+02	-7.5784	-71.802478	0.000487	4.865022	1.648314	0.000195
1820	1.8099e+02	-7.5415	-71.564287	0.000598	5.979922	2.026053	0.000239
1821	1.8109e+02	-7.4934	-71.334170	0.000578	5.777213	1.957373	0.000231
1822	1.8119e+02	-7.4565	-71.128276	0.000517	5.169085	1.751334	0.000207
1823	1.8129e+02	-7.4228	-70.890085	0.000598	5.979922	2.026053	0.000239
1824	1.8139e+02	-7.3795	-70.655931	0.000588	5.878568	1.991713	0.000235
1825	1.8149e+02	-7.3346	-70.421777	0.000588	5.878568	1.991713	0.000235
1826	1.8159e+02	-7.2961	-70.191661	0.000578	5.777213	1.957373	0.000231
1827	1.8169e+02	-7.2543	-70.009989	0.000456	4.560958	1.545294	0.000183
1828	1.8179e+02	-7.2142	-69.719316	0.000730	7.297532	2.472471	0.000292
1829	1.8189e+02	-7.1789	-69.541682	0.000446	4.459603	1.510954	0.000179
1830	1.8199e+02	-7.1340	-69.291379	0.000628	6.283986	2.129072	0.000252
1831	1.8209e+02	-7.0987	-69.089522	0.000507	5.067731	1.716994	0.000203
1832	1.8218e+02	-7.0618	-68.863443	0.000568	5.675858	1.923033	0.000227
1833	1.8228e+02	-7.0153	-68.633326	0.000578	5.777213	1.957373	0.000231
1834	1.8238e+02	-6.9672	-68.374949	0.000649	6.486695	2.197752	0.000260
1835	1.8248e+02	-6.9303	-68.116573	0.000649	6.486695	2.197752	0.000260
1836	1.8258e+02	-6.8998	-67.955087	0.000405	4.054185	1.373595	0.000162
1837	1.8268e+02	-6.8581	-67.700748	0.000639	6.385341	2.163412	0.000256
1838	1.8278e+02	-6.8196	-67.426223	0.000689	6.892114	2.335111	0.000276
1839	1.8288e+02	-6.7683	-67.216291	0.000527	5.270440	1.785673	0.000211
1840	1.8298e+02	-6.7314	-66.982138	0.000588	5.878568	1.991713	0.000235
1841	1.8308e+02	-6.6977	-66.739909	0.000608	6.081277	2.060392	0.000243
1842	1.8318e+02	-6.6447	-66.505756	0.000588	5.878568	1.991713	0.000235
1843	1.8328e+02	-6.6159	-66.271602	0.000588	5.878568	1.991713	0.000235
1844	1.8338e+02	-6.5758	-66.045522	0.000568	5.675858	1.923033	0.000227
1845	1.8348e+02	-6.5292	-65.799257	0.000618	6.182632	2.094732	0.000248
1846	1.8358e+02	-6.4939	-65.601437	0.000497	4.966376	1.682654	0.000199
1847	1.8368e+02	-6.4554	-65.363246	0.000598	5.979922	2.026053	0.000239
1848	1.8378e+02	-6.4233	-65.133129	0.000578	5.777213	1.957373	0.000231
1849	1.8388e+02	-6.3832	-64.862641	0.000679	6.790759	2.300772	0.000272
1850	1.8398e+02	-6.3351	-64.628487	0.000588	5.878568	1.991713	0.000235
1851	1.8407e+02	-6.3046	-64.426631	0.000507	5.067731	1.716994	0.000203
1852	1.8417e+02	-6.2645	-64.148068	0.000699	6.993468	2.369451	0.000280
1853	1.8427e+02	-6.2260	-63.913914	0.000588	5.878568	1.991713	0.000235
1854	1.8437e+02	-6.1843	-63.675723	0.000598	5.979922	2.026053	0.000239
1855	1.8447e+02	-6.1442	-63.445607	0.000578	5.777213	1.957373	0.000231
1856	1.8457e+02	-6.0929	-63.203379	0.000608	6.081277	2.060392	0.000243
1857	1.8467e+02	-6.0640	-62.940965	0.000659	6.588050	2.232092	0.000264
1858	1.8477e+02	-6.0239	-62.686625	0.000639	6.385341	2.163412	0.000256
1859	1.8487e+02	-5.9790	-62.476694	0.000527	5.270440	1.785673	0.000211
1860	1.8497e+02	-5.9357	-62.230429	0.000618	6.182632	2.094732	0.000248
1861	1.8507e+02	-5.9036	-61.988201	0.000608	6.081277	2.060392	0.000243
1862	1.8517e+02	-5.8571	-61.709638	0.000699	6.993468	2.369451	0.000280
1863	1.8527e+02	-5.8234	-61.483559	0.000568	5.675858	1.923033	0.000227
1864	1.8537e+02	-5.7833	-61.241331	0.000608	6.081277	2.060392	0.000243
1865	1.8547e+02	-5.7415	-60.991028	0.000628	6.283986	2.129072	0.000252
1866	1.8557e+02	-5.6982	-60.760911	0.000578	5.777213	1.957373	0.000231
1867	1.8567e+02	-5.6645	-60.486386	0.000689	6.892114	2.335111	0.000276
1868	1.8577e+02	-5.6212	-60.244158	0.000608	6.081277	2.060392	0.000243
1869	1.8587e+02	-5.5859	-60.038264	0.000517	5.169085	1.751334	0.000207
1870	1.8597e+02	-5.5410	-59.808147	0.000578	5.777213	1.957373	0.000231
1871	1.8606e+02	-5.5121	-59.541696	0.000669	6.689405	2.266432	0.000268
1872	1.8616e+02	-5.4640	-59.275245	0.000669	6.689405	2.266432	0.000268
1873	1.8626e+02	-5.4303	-59.024943	0.000628	6.283986	2.129072	0.000252
1874	1.8636e+02	-5.3742	-58.734269	0.000730	7.297532	2.472471	0.000292
1875	1.8646e+02	-5.3469	-58.520301	0.000537	5.371795	1.820013	0.000215
1876	1.8656e+02	-5.3100	-58.257887	0.000659	6.588050	2.232092	0.000264
1877	1.8666e+02	-5.2683	-57.995473	0.000659	6.588050	2.232092	0.000264
1878	1.8676e+02	-5.2298	-57.785542	0.000527	5.270440	1.785673	0.000211
1879	1.8686e+02	-5.1801	-57.527166	0.000649	6.486695	2.197752	0.000260
1880	1.8696e+02	-5.1496	-57.232455	0.000740	7.398887	2.506811	0.000296
1881	1.8706e+02	-5.1079	-57.062895	0.000426	4.256894	1.442275	0.000170
1882	1.8716e+02	-5.0614	-56.764147	0.000750	7.500242	2.541151	0.000300
1883	1.8726e+02	-5.0277	-56.509807	0.000639	6.385341	2.163412	0.000256
1884	1.8736e+02	-4.9811	-56.259505	0.000628	6.283986	2.129072	0.000252
1885	1.8746e+02	-4.9378	-56.041500	0.000547	5.473149	1.854353	0.000219
1886	1.8756e+02	-4.9025	-55.750826	0.000730	7.297532	2.472471	0.000292
1887	1.8766e+02	-4.8656	-55.468226	0.000709	7.094823	2.403791	0.000284
1888	1.8776e+02	-4.8255	-55.270407	0.000497	4.966376	1.682654	0.000199
1889	1.8786e+02	-4.7918	-54.979733	0.000730	7.297532	2.472471	0.000292
1890	1.8796e+02	-4.7405	-54.733468	0.000618	6.182632	2.094732	0.000248
1891	1.8806e+02	-4.7052	-54.515462	0.000547	5.473149	1.854353	0.000219
1892	1.8815e+02	-4.6699	-54.244974	0.000679	6.790759	2.300772	0.000272
1893	1.8825e+02	-4.6234	-53.954301	0.000730	7.297532	2.472471	0.000292
1894	1.8835e+02	-4.5833	-53.716110	0.000598	5.979922	2.026053	0.000239
1895	1.8845e+02	-4.5432	-53.469844	0.000618	6.182632	2.094732	0.000248
1896	1.8855e+02	-4.5063	-53.199356	0.000679	6.790759	2.300772	0.000272
1897	1.8865e+02	-4.4630	-52.872348	0.000821	8.209724	2.781530	0.000329
1898	1.8875e+02	-4.4245	-52.670491	0.000507	5.067731	1.716994	0.000203
1899	1.8885e+02	-4.3844	-52.412115	0.000649	6.486695	2.197752	0.000260
1900	1.8895e+02	-4.3539	-52.129515	0.000709	7.094823	2.403791	0.000284
1901	1.8905e+02	-4.2977	-51.863064	0.000669	6.689405	2.266432	0.000268
1902	1.8915e+02	-4.2705	-51.649096	0.000537	5.371795	1.820013	0.000215
1903	1.8925e+02	-4.2304	-51.350348	0.000750	7.500242	2.541151	0.000300
1904	1.8935e+02	-4.1887	-51.100046	0.000628	6.283986	2.129072	0.000252
1905	1.8945e+02	-4.1518	-50.837632	0.000659	6.588050	2.232092	0.000264
1906	1.8955e+02	-4.1052	-50.571181	0.000669	6.689405	2.266432	0.000268
1907	1.8965e+02	-4.0667	-50.316841	0.000639	6.385341	2.163412	0.000256
1908	1.8975e+02	-4.0218	-50.030205	0.000720	7.196178	2.438131	0.000288
1909	1.8985e+02	-3.9881	-49.735494	0.000740	7.398887	2.506811	0.000296
1910	1.8995e+02	-3.9464	-49.509414	0.000568	5.675858	1.923033	0.000227
1911	1.9004e+02	-3.9079	-49.259112	0.000628	6.283986	2.129072	0.000252
1912	1.9014e+02	-3.8662	-48.972475	0.000720	7.196178	2.438131	0.000288
1913	1.9024e+02	-3.8277	-48.706024	0.000669	6.689405	2.266432	0.000268
1914	1.9034e+02	-3.7780	-48.407276	0.000750	7.500242	2.541151	0.000300
1915	1.9044e+02	-3.7443	-48.128714	0.000699	6.993468	2.369451	0.000280
1916	1.9054e+02	-3.7170	-47.882448	0.000618	6.182632	2.094732	0.000248
1917	1.9064e+02	-3.6737	-47.615997	0.000669	6.689405	2.266432	0.000268
1918	1.9074e+02	-3.6224	-47.349547	0.000669	6.689405	2.266432	0.000268
1919	1.9084e+02	-3.5903	-47.070984	0.000699	6.993468	2.369451	0.000280
1920	1.9094e+02	-3.5438	-46.780310	0.000730	7.297532	2.472471	0.000292
1921	1.9104e+02	-3.5085	-46.521934	0.000649	6.486695	2.197752	0.000260
1922	1.9114e+02	-3.4716	-46.239334	0.000709	7.094823	2.403791	0.000284
1923	1.9124e+02	-3.4315	-46.017292	0.000557	5.574504	1.888693	0.000223
1924	1.9134e+02	-3.3897	-45.662024	0.000892	8.919206	3.021909	0.000357
1925	1.9144e+02	-3.3496	-45.415758	0.000618	6.182632	2.094732	0.000248
1926	1.9154e+02	-3.3224	-45.181605	0.000588	5.878568	1.991713	0.000235
1927	1.9164e+02	-3.2710	-44.862671	0.000801	8.007015	2.712850	0.000321
1928	1.9174e+02	-3.2325	-44.596220	0.000669	6.689405	2.266432	0.000268
1929	1.9184e+02	-3.1828	-44.358029	0.000598	5.979922	2.026053	0.000239
1930	1.9194e+02	-3.1523	-44.071392	0.000720	7.196178	2.438131	0.000288
1931	1.9203e+02	-3.1090	-43.804941	0.000669	6.689405	2.266432	0.000268
1932	1.9213e+02	-3.0737	-43.514268	0.000730	7.297532	2.472471	0.000292
1933	1.9223e+02	-3.0352	-43.211482	0.000760	7.601596	2.575490	0.000304
1934	1.9233e+02	-2.9967	-42.949069	0.000659	6.588050	2.232092	0.000264
1935	1.9243e+02	-2.9454	-42.678580	0.000679	6.790759	2.300772	0.000272
1936	1.9253e+02	-2.9069	-42.379832	0.000750	7.500242	2.541151	0.000300
1937	1.9263e+02	-2.8700	-42.125493	0.000639	6.385341	2.163412	0.000256
1938	1.9273e+02	-2.8411	-41.855005	0.000679	6.790759	2.300772	0.000272
1939	1.9283e+02	-2.8042	-41.511848	0.000862	8.615142	2.918889	0.000345
1940	1.9293e+02	-2.7529	-41.253472	0.000649	6.486695	2.197752	0.000260
1941	1.9303e+02	-2.7144	-40.962798	0.000730	7.297532	2.472471	0.000292
1942	1.9313e+02	-2.6759	-40.716532	0.000618	6.182632	2.094732	0.000248
1943	1.9323e+02	-2.6342	-40.413747	0.000760	7.601596	2.575490	0.000304
1944	1.9333e+02	-2.5973	-40.127111	0.000720	7.196178	2.438131	0.000288
1945	1.9343e+02	-2.5588	-39.779917	0.000872	8.716497	2.953229	0.000349
1946	1.9353e+02	-2.5138	-39.553837	0.000568	5.675858	1.923033	0.000227
1947	1.9363e+02	-2.4721	-39.291424	0.000659	6.588050	2.232092	0.000264
1948	1.9373e+02	-2.4416	-38.984601	0.000770	7.702951	2.609830	0.000308
1949	1.9383e+02	-2.3935	-38.681816	0.000760	7.601596	2.575490	0.000304
1950	1.9393e+02	-2.3598	-38.427477	0.000639	6.385341	2.163412	0.000256
1951	1.9403e+02	-2.3245	-38.088357	0.000851	8.513788	2.884549	0.000341
1952	1.9412e+02	-2.2780	-37.825943	0.000659	6.588050	2.232092	0.000264
1953	1.9422e+02	-2.2347	-37.498935	0.000821	8.209724	2.781530	0.000329
1954	1.9432e+02	-2.1994	-37.240559	0.000649	6.486695	2.197752	0.000260
1955	1.9442e+02	-2.1561	-36.970071	0.000679	6.790759	2.300772	0.000272
1956	1.9452e+02	-2.1096	-36.659211	0.000780	7.804305	2.644170	0.000312
1957	1.9462e+02	-2.0887	-36.344314	0.000791	7.905660	2.678510	0.000316
1958	1.9472e+02	-2.0374	-36.057678	0.000720	7.196178	2.438131	0.000288
1959	1.9482e+02	-1.9941	-35.746818	0.000780	7.804305	2.644170	0.000312
1960	1.9492e+02	-1.9652	-35.476330	0.000679	6.790759	2.300772	0.000272
1961	1.9502e+02	-1.9203	-35.157397	0.000801	8.007015	2.712850	0.000321
1962	1.9512e+02	-1.8786	-34.903057	0.000639	6.385341	2.163412	0.000256
1963	1.9522e+02	-1.8304	-34.588160	0.000791	7.905660	2.678510	0.000316
1964	1.9532e+02	-1.7903	-34.285375	0.000760	7.601596	2.575490	0.000304
1965	1.9542e+02	-1.7566	-33.998739	0.000720	7.196178	2.438131	0.000288
1966	1.9552e+02	-1.7133	-33.663656	0.000841	8.412433	2.850209	0.000337
1967	1.9562e+02	-1.6780	-33.397205	0.000669	6.689405	2.266432	0.000268
1968	1.9572e+02	-1.6331	-33.062123	0.000841	8.412433	2.850209	0.000337
1969	1.9582e+02	-1.6026	-32.731078	0.000831	8.311078	2.815870	0.000333
1970	1.9592e+02	-1.5529	-32.468664	0.000659	6.588050	2.232092	0.000264
1971	1.9601e+02	-1.5256	-32.202213	0.000669	6.689405	2.266432	0.000268
1972	1.9611e+02	-1.4743	-31.871168	0.000831	8.311078	2.815870	0.000333
1973	1.9621e+02	-1.4374	-31.560309	0.000780	7.804305	2.644170	0.000312
1974	1.9631e+02	-1.4005	-31.281746	0.000699	6.993468	2.369451	0.000280
1975	1.9641e+02	-1.3620	-30.950701	0.000831	8.311078	2.815870	0.000333
1976	1.9651e+02	-1.3203	-30.643879	0.000770	7.702951	2.609830	0.000308
1977	1.9661e+02	-1.2914	-30.320908	0.000811	8.108369	2.747190	0.000325
1978	1.9671e+02	-1.2417	-29.989863	0.000831	8.311078	2.815870	0.000333
1979	1.9681e+02	-1.2032	-29.751672	0.000598	5.979922	2.026053	0.000239
1980	1.9691e+02	-1.1550	-29.416590	0.000841	8.412433	2.850209	0.000337
1981	1.9701e+02	-1.1246	-29.117842	0.000750	7.500242	2.541151	0.000300
1982	1.9711e+02	-1.0796	-28.734314	0.000963	9.628688	3.262288	0.000385
1983	1.9721e+02	-1.0444	-28.467863	0.000669	6.689405	2.266432	0.000268
1984	1.9731e+02	-0.9946	-28.197375	0.000679	6.790759	2.300772	0.000272
1985	1.9741e+02	-0.9625	-27.838069	0.000902	9.020561	3.056249	0.000361
1986	1.9751e+02	-0.9224	-27.498950	0.000851	8.513788	2.884549	0.000341
1987	1.9761e+02	-0.8775	-27.192128	0.000770	7.702951	2.609830	0.000308
1988	1.9771e+02	-0.8374	-26.901454	0.000730	7.297532	2.472471	0.000292
1989	1.9781e+02	-0.8037	-26.582520	0.000801	8.007015	2.712850	0.000321
1990	1.9791e+02	-0.7556	-26.215141	0.000922	9.223270	3.124928	0.000369
1991	1.9800e+02	-0.7267	-25.936579	0.000699	6.993468	2.369451	0.000280
1992	1.9810e+02	-0.6802	-25.621682	0.000791	7.905660	2.678510	0.000316
1993	1.9820e+02	-0.6513	-25.282563	0.000851	8.513788	2.884549	0.000341
1994	1.9830e+02	-0.6064	-25.016112	0.000669	6.689405	2.266432	0.000268
1995	1.9840e+02	-0.5663	-24.636621	0.000953	9.527334	3.227948	0.000381
1996	1.9850e+02	-0.5246	-24.370170	0.000669	6.689405	2.266432	0.000268
1997	1.9860e+02	-0.4893	-24.035088	0.000841	8.412433	2.850209	0.000337
1998	1.9870e+02	-0.4508	-23.712117	0.000811	8.108369	2.747190	0.000325
1999	1.9880e+02	-0.3866	-23.352812	0.000902	9.020561	3.056249	0.000361
2000	1.9890e+02	-0.3610	-23.041952	0.000780	7.804305	2.644170	0.000312
2001	1.9900e+02	-0.3176	-22.751278	0.000730	7.297532	2.472471	0.000292
2002	1.9910e+02	-0.2872	-22.404085	0.000872	8.716497	2.953229	0.000349
2003	1.9920e+02	-0.2422	-22.101300	0.000760	7.601596	2.575490	0.000304
2004	1.9930e+02	-0.2053	-21.762180	0.000851	8.513788	2.884549	0.000341
2005	1.9940e+02	-0.1540	-21.471506	0.000730	7.297532	2.472471	0.000292
2006	1.9950e+02	-0.1203	-21.148536	0.000811	8.108369	2.747190	0.000325
2007	1.9960e+02	-0.0770	-20.829602	0.000801	8.007015	2.712850	0.000321
2008	1.9970e+02	-0.0433	-20.474334	0.000892	8.919206	3.021909	0.000357
2009	1.9980e+02	-0.0016	-20.155400	0.000892	8.919206	3.021909	0.000321

Center data before PMax,+/-Pr and +/-Vc Calc.

PMax (uC/cm2):	1.24e+02
Pr (uC/cm2):	1.15e+01
-Pr (uC/cm2):	-2.02e+01
PLoss (uC/cm2):	-1.69e+01
Vc:	4.53e-01
-Vc:	-1.46e+00
C (Max-Eff) (nF):	6.18e-01
K (Eff):	2.10e+03
Vert. (+/-Pr) Shift (uC/cm2):	-4.34e+00
Horiz. Shift (+/-Vc):	-5.02e-01
Offset (uC/cm2):	3.20e+00

A (Loop Area - uC/cm2·Volts):	2.55e-01



Hysteresis Version: 5.48.1 - Radiant Technologies, Inc., 1999 - 9/12/24

