»»»»»»»»»»»»»»»»»»»»»»»»»»»»»»»»»»»» Hysteresis ««««««««««««««««««««««««««««««««««««
»»»  Executed Version:	5.48.1
»»»  Vision Version:	5.48.4 (R)
»»»  Vision Compiled:	9/18/24
»»»  Driver Version:	5.47.0
»»»  Windows Version:	Windows 8 or 8.1
»»»  Processor Information:	x86 (AMD or Intel) - 32 Processors
»»»  Tester Name:	PMF21124-494 (100V)
»»»  Tester S/N:	PMF21124-494
»»»  Internal Amp Type:	100V RevK 270k
»»»  Internal Amp S/N:	iAB2-596/K     
»»»  Execution Count:	1
»»»»»»»»»»»»»»»»»»»»»»»»»»»»»»»»»»»»»»»»»»««««««««««««««««««««««««««««««««««««««««««

Stored:	6/5/2025 - 11:47:7
Configured:	06/05/25 10:43:40 AM
Executed:	06/05/25 11:46:39 AM

»»»»»»»»»»»»»»»»»»»»»»»»»»»»»»»»»»» Sample Info ««««««««««««««««««««««««««««««««««««
Sample Name:	
Lot Name:	
Wafer Name:	
Die Row/Column:	0/0
Capacitor Number:	0
Sample Area (cm2):	1.00e-04
Sample Thickness (microns):	3.00e-01

Amplifier:	Internal

»»»»»»»»»»»»»»»»»»»»»»»»»»»»»»»»»»» Tester Info «««««««««««««««««««««««««««««««««««
Tester Name:	PMF21124-494 (100V)
Tester Serial Number:	PMF21124-494
Return Signal Amp. Level:	0.19 [Index: 3]

»»»»»»»»»»»»»»»»»»»»»»»»»»»»»»»» Hysteresis Info ««««««««««««««««««««««««««««««««««
Task Name:	Hyst-187
Volts:	20.00
Field:	666.67 (kV/cm)
DCBias:	0.00
DCField:	0.00 (kV/cm)
Hysteresis Period (ms):	2.00e+02
Preset:	Enabled
Preset Delay (ms):	1.00e+03
Profile:	Standard Bipolar

»»»»»»»»»»»»»»»»»»»»»»»»»»»»»»»»»»»»»» Data «««««««««««««««««««««««««««««««««««««««
Points:	2009

Valid Data

Point	Time (ms)	Drive Voltage	Measured Polarization (uC/cm2)	Capacitance (uF)	Normalized Capacitance (uF/cm2)	Dielectric Constant	Instantaneous Current (mA)
   1	0.0000e+00	-0.0016	-8.330630	0.000010	0.101363	0.034343	0.000004
   2	9.9500e-02	0.0112	-8.326592	0.000010	0.101363	0.034343	0.000004
   3	1.9900e-01	0.0626	-8.229701	0.000243	2.432706	0.824223	0.000097
   4	2.9850e-01	0.0995	-8.120699	0.000274	2.736794	0.927251	0.000110
   5	3.9800e-01	0.1444	-8.043993	0.000193	1.925892	0.652510	0.000077
   6	4.9750e-01	0.1829	-7.967287	0.000193	1.925892	0.652510	0.000077
   7	5.9700e-01	0.2246	-7.866359	0.000253	2.534069	0.858566	0.000101
   8	6.9650e-01	0.2727	-7.757356	0.000274	2.736794	0.927251	0.000110
   9	7.9600e-01	0.3016	-7.591834	0.000416	4.155873	1.408048	0.000166
  10	8.9550e-01	0.3545	-7.458608	0.000334	3.344971	1.133307	0.000134
  11	9.9500e-01	0.3802	-7.313271	0.000365	3.649059	1.236335	0.000146
  12	1.0945e+00	0.4155	-7.208306	0.000264	2.635431	0.892908	0.000105
  13	1.1940e+00	0.4636	-7.038746	0.000426	4.257235	1.442390	0.000170
  14	1.2935e+00	0.4989	-6.905521	0.000334	3.344971	1.133307	0.000134
  15	1.3930e+00	0.5326	-6.731924	0.000436	4.358598	1.476733	0.000174
  16	1.4925e+00	0.5775	-6.602735	0.000324	3.243608	1.098964	0.000130
  17	1.5920e+00	0.6289	-6.469510	0.000334	3.344971	1.133307	0.000134
  18	1.6915e+00	0.6545	-6.275728	0.000487	4.865412	1.648446	0.000195
  19	1.7910e+00	0.7043	-6.162688	0.000284	2.838157	0.961594	0.000114
  20	1.8905e+00	0.7476	-5.993128	0.000426	4.257235	1.442390	0.000170
  21	1.9900e+00	0.7797	-5.843754	0.000375	3.750422	1.270677	0.000150
  22	2.0895e+00	0.8294	-5.686306	0.000395	3.953147	1.339363	0.000158
  23	2.1890e+00	0.8518	-5.516746	0.000426	4.257235	1.442390	0.000170
  24	2.2885e+00	0.9000	-5.347186	0.000426	4.257235	1.442390	0.000170
  25	2.3880e+00	0.9353	-5.185701	0.000405	4.054510	1.373705	0.000162
  26	2.4875e+00	0.9802	-5.004030	0.000456	4.561324	1.545418	0.000183
  27	2.5870e+00	1.0315	-4.802173	0.000507	5.068137	1.717131	0.000203
  28	2.6865e+00	1.0572	-4.636650	0.000416	4.155873	1.408048	0.000166
  29	2.7860e+00	1.0973	-4.479202	0.000395	3.953147	1.339363	0.000158
  30	2.8855e+00	1.1454	-4.321754	0.000395	3.953147	1.339363	0.000158
  31	2.9850e+00	1.1791	-4.164306	0.000395	3.953147	1.339363	0.000158
  32	3.0845e+00	1.2256	-3.986672	0.000446	4.459961	1.511076	0.000179
  33	3.1840e+00	1.2657	-3.809038	0.000446	4.459961	1.511076	0.000179
  34	3.2835e+00	1.3042	-3.659664	0.000375	3.750422	1.270677	0.000150
  35	3.3830e+00	1.3492	-3.473955	0.000466	4.662686	1.579761	0.000187
  36	3.4825e+00	1.3845	-3.243839	0.000578	5.777677	1.957530	0.000231
  37	3.5820e+00	1.4230	-3.122724	0.000304	3.040882	1.030279	0.000122
  38	3.6815e+00	1.4566	-2.924905	0.000497	4.966775	1.682789	0.000199
  39	3.7810e+00	1.5016	-2.735159	0.000476	4.764049	1.614104	0.000191
  40	3.8805e+00	1.5353	-2.557525	0.000446	4.459961	1.511076	0.000179
  41	3.9800e+00	1.5770	-2.363743	0.000487	4.865412	1.648446	0.000195
  42	4.0795e+00	1.6058	-2.198220	0.000416	4.155873	1.408048	0.000166
  43	4.1790e+00	1.6556	-2.008475	0.000476	4.764049	1.614104	0.000191
  44	4.2785e+00	1.7021	-1.814693	0.000487	4.865412	1.648446	0.000195
  45	4.3780e+00	1.7454	-1.620910	0.000487	4.865412	1.648446	0.000195
  46	4.4775e+00	1.7759	-1.483647	0.000345	3.446333	1.167649	0.000138
  47	4.5770e+00	1.8144	-1.245456	0.000598	5.980402	2.026215	0.000239
  48	4.6765e+00	1.8609	-1.063785	0.000456	4.561324	1.545418	0.000183
  49	4.7760e+00	1.9026	-0.886151	0.000446	4.459961	1.511076	0.000179
  50	4.8755e+00	1.9475	-0.736777	0.000375	3.750422	1.270677	0.000150
  51	4.9750e+00	1.9796	-0.542995	0.000487	4.865412	1.648446	0.000195
  52	5.0745e+00	2.0213	-0.324989	0.000547	5.473588	1.854502	0.000219
  53	5.1740e+00	2.0663	-0.159467	0.000416	4.155873	1.408048	0.000166
  54	5.2735e+00	2.0935	-0.002019	0.000395	3.953147	1.339363	0.000158
  55	5.3730e+00	2.1384	0.256358	0.000649	6.487216	2.197928	0.000260
  56	5.4725e+00	2.1785	0.393621	0.000345	3.446333	1.167649	0.000138
  57	5.5720e+00	2.2122	0.643923	0.000628	6.284490	2.129243	0.000252
  58	5.6715e+00	2.2636	0.797334	0.000385	3.851784	1.305020	0.000154
  59	5.7710e+00	2.2957	1.015340	0.000547	5.473588	1.854502	0.000219
  60	5.8705e+00	2.3374	1.197011	0.000456	4.561324	1.545418	0.000183
  61	5.9700e+00	2.3727	1.402905	0.000517	5.169500	1.751474	0.000207
  62	6.0695e+00	2.4208	1.580539	0.000446	4.459961	1.511076	0.000179
  63	6.1690e+00	2.4609	1.770284	0.000476	4.764049	1.614104	0.000191
  64	6.2685e+00	2.4978	1.964067	0.000487	4.865412	1.648446	0.000195
  65	6.3680e+00	2.5363	2.186109	0.000557	5.574951	1.888845	0.000223
  66	6.4675e+00	2.5748	2.347594	0.000405	4.054510	1.373705	0.000162
  67	6.5670e+00	2.6117	2.537340	0.000476	4.764049	1.614104	0.000191
  68	6.6665e+00	2.6502	2.771494	0.000588	5.879039	1.991872	0.000235
  69	6.7660e+00	2.6855	2.949128	0.000446	4.459961	1.511076	0.000179
  70	6.8655e+00	2.7400	3.126762	0.000446	4.459961	1.511076	0.000179
  71	6.9650e+00	2.7849	3.316507	0.000476	4.764049	1.614104	0.000191
  72	7.0645e+00	2.8138	3.534512	0.000547	5.473588	1.854502	0.000219
  73	7.1640e+00	2.8587	3.744443	0.000527	5.270863	1.785817	0.000211
  74	7.2635e+00	2.9005	3.938226	0.000487	4.865412	1.648446	0.000195
  75	7.3630e+00	2.9390	4.115860	0.000446	4.459961	1.511076	0.000179
  76	7.4625e+00	2.9791	4.350014	0.000588	5.879039	1.991872	0.000235
  77	7.5620e+00	3.0144	4.527648	0.000446	4.459961	1.511076	0.000179
  78	7.6615e+00	3.0513	4.729505	0.000507	5.068137	1.717131	0.000203
  79	7.7610e+00	3.0930	4.915213	0.000466	4.662686	1.579761	0.000187
  80	7.8605e+00	3.1427	5.133218	0.000547	5.473588	1.854502	0.000219
  81	7.9600e+00	3.1684	5.355261	0.000557	5.574951	1.888845	0.000223
  82	8.0595e+00	3.2117	5.532895	0.000446	4.459961	1.511076	0.000179
  83	8.1590e+00	3.2518	5.763011	0.000578	5.777677	1.957530	0.000231
  84	8.2585e+00	3.2983	5.944682	0.000456	4.561324	1.545418	0.000183
  85	8.3580e+00	3.3464	6.166725	0.000557	5.574951	1.888845	0.000223
  86	8.4575e+00	3.3721	6.348396	0.000456	4.561324	1.545418	0.000183
  87	8.5570e+00	3.4154	6.562364	0.000537	5.372226	1.820159	0.000215
  88	8.6565e+00	3.4459	6.788444	0.000568	5.676314	1.923187	0.000227
  89	8.7560e+00	3.4956	6.970115	0.000456	4.561324	1.545418	0.000183
  90	8.8555e+00	3.5213	7.163897	0.000487	4.865412	1.648446	0.000195
  91	8.9550e+00	3.5678	7.365754	0.000507	5.068137	1.717131	0.000203
  92	9.0545e+00	3.6127	7.603945	0.000598	5.980402	2.026215	0.000239
  93	9.1540e+00	3.6560	7.801765	0.000497	4.966775	1.682789	0.000199
  94	9.2535e+00	3.6849	8.027844	0.000568	5.676314	1.923187	0.000227
  95	9.3530e+00	3.7330	8.209516	0.000456	4.561324	1.545418	0.000183
  96	9.4525e+00	3.7619	8.407335	0.000497	4.966775	1.682789	0.000199
  97	9.5520e+00	3.8181	8.617266	0.000527	5.270863	1.785817	0.000211
  98	9.6515e+00	3.8518	8.786826	0.000426	4.257235	1.442390	0.000170
  99	9.7510e+00	3.8838	9.020980	0.000588	5.879039	1.991872	0.000235
 100	9.8505e+00	3.9336	9.226874	0.000517	5.169500	1.751474	0.000207
 101	9.9500e+00	3.9737	9.436805	0.000527	5.270863	1.785817	0.000211
 102	1.0050e+01	4.0058	9.679033	0.000608	6.081765	2.060558	0.000243
 103	1.0149e+01	4.0459	9.893001	0.000537	5.372226	1.820159	0.000215
 104	1.0248e+01	4.0892	10.014115	0.000304	3.040882	1.030279	0.000122
 105	1.0348e+01	4.1277	10.280566	0.000669	6.689941	2.266613	0.000268
 106	1.0447e+01	4.1678	10.486460	0.000517	5.169500	1.751474	0.000207
 107	1.0547e+01	4.1983	10.664094	0.000446	4.459961	1.511076	0.000179
 108	1.0646e+01	4.2496	10.922471	0.000649	6.487216	2.197928	0.000260
 109	1.0746e+01	4.2913	11.083956	0.000405	4.054510	1.373705	0.000162
 110	1.0845e+01	4.3314	11.326184	0.000608	6.081765	2.060558	0.000243
 111	1.0945e+01	4.3715	11.507855	0.000456	4.561324	1.545418	0.000183
 112	1.1044e+01	4.4052	11.685489	0.000446	4.459961	1.511076	0.000179
 113	1.1144e+01	4.4550	11.927718	0.000608	6.081765	2.060558	0.000243
 114	1.1243e+01	4.4902	12.141686	0.000537	5.372226	1.820159	0.000215
 115	1.1343e+01	4.5304	12.343543	0.000507	5.068137	1.717131	0.000203
 116	1.1443e+01	4.5673	12.573659	0.000578	5.777677	1.957530	0.000231
 117	1.1542e+01	4.6138	12.767442	0.000487	4.865412	1.648446	0.000195
 118	1.1642e+01	4.6459	13.005633	0.000598	5.980402	2.026215	0.000239
 119	1.1741e+01	4.7004	13.195378	0.000476	4.764049	1.614104	0.000191
 120	1.1841e+01	4.7293	13.425495	0.000578	5.777677	1.957530	0.000231
 121	1.1940e+01	4.7646	13.647537	0.000557	5.574951	1.888845	0.000223
 122	1.2040e+01	4.8143	13.829208	0.000456	4.561324	1.545418	0.000183
 123	1.2139e+01	4.8368	14.063362	0.000588	5.879039	1.991872	0.000235
 124	1.2239e+01	4.8849	14.249071	0.000466	4.662686	1.579761	0.000187
 125	1.2338e+01	4.9282	14.471113	0.000557	5.574951	1.888845	0.000223
 126	1.2438e+01	4.9651	14.677007	0.000517	5.169500	1.751474	0.000207
 127	1.2537e+01	5.0068	14.907124	0.000578	5.777677	1.957530	0.000231
 128	1.2636e+01	5.0517	15.117055	0.000527	5.270863	1.785817	0.000211
 129	1.2736e+01	5.0822	15.343134	0.000568	5.676314	1.923187	0.000227
 130	1.2835e+01	5.1271	15.544991	0.000507	5.068137	1.717131	0.000203
 131	1.2935e+01	5.1704	15.750885	0.000517	5.169500	1.751474	0.000207
 132	1.3034e+01	5.2073	15.993113	0.000608	6.081765	2.060558	0.000243
 133	1.3134e+01	5.2474	16.215156	0.000557	5.574951	1.888845	0.000223
 134	1.3233e+01	5.2843	16.400864	0.000466	4.662686	1.579761	0.000187
 135	1.3333e+01	5.3244	16.671352	0.000679	6.791304	2.300956	0.000272
 136	1.3432e+01	5.3710	16.848986	0.000446	4.459961	1.511076	0.000179
 137	1.3532e+01	5.4079	17.066991	0.000547	5.473588	1.854502	0.000219
 138	1.3632e+01	5.4448	17.297108	0.000578	5.777677	1.957530	0.000231
 139	1.3731e+01	5.4881	17.494928	0.000497	4.966775	1.682789	0.000199
 140	1.3831e+01	5.5250	17.708896	0.000537	5.372226	1.820159	0.000215
 141	1.3930e+01	5.5619	17.914790	0.000517	5.169500	1.751474	0.000207
 142	1.4030e+01	5.6004	18.120684	0.000517	5.169500	1.751474	0.000207
 143	1.4129e+01	5.6437	18.366949	0.000618	6.183128	2.094900	0.000248
 144	1.4229e+01	5.6822	18.580917	0.000537	5.372226	1.820159	0.000215
 145	1.4328e+01	5.7303	18.823145	0.000608	6.081765	2.060558	0.000243
 146	1.4428e+01	5.7608	19.029039	0.000517	5.169500	1.751474	0.000207
 147	1.4527e+01	5.8057	19.230896	0.000507	5.068137	1.717131	0.000203
 148	1.4627e+01	5.8378	19.469087	0.000598	5.980402	2.026215	0.000239
 149	1.4726e+01	5.8859	19.679018	0.000527	5.270863	1.785817	0.000211
 150	1.4825e+01	5.9244	19.925283	0.000618	6.183128	2.094900	0.000248
 151	1.4925e+01	5.9597	20.143289	0.000547	5.473588	1.854502	0.000219
 152	1.5024e+01	5.9982	20.349183	0.000517	5.169500	1.751474	0.000207
 153	1.5124e+01	6.0512	20.563151	0.000537	5.372226	1.820159	0.000215
 154	1.5223e+01	6.0897	20.797305	0.000588	5.879039	1.991872	0.000235
 155	1.5323e+01	6.1266	20.962827	0.000416	4.155873	1.408048	0.000166
 156	1.5422e+01	6.1683	21.241390	0.000699	6.994030	2.369641	0.000280
 157	1.5522e+01	6.2004	21.475544	0.000588	5.879039	1.991872	0.000235
 158	1.5621e+01	6.2340	21.681437	0.000517	5.169500	1.751474	0.000207
 159	1.5721e+01	6.2822	21.911554	0.000578	5.777677	1.957530	0.000231
 160	1.5820e+01	6.3191	22.129560	0.000547	5.473588	1.854502	0.000219
 161	1.5920e+01	6.3592	22.307194	0.000446	4.459961	1.511076	0.000179
 162	1.6020e+01	6.4057	22.533273	0.000568	5.676314	1.923187	0.000227
 163	1.6119e+01	6.4346	22.763390	0.000578	5.777677	1.957530	0.000231
 164	1.6218e+01	6.4795	22.981395	0.000547	5.473588	1.854502	0.000219
 165	1.6318e+01	6.5212	23.223623	0.000608	6.081765	2.060558	0.000243
 166	1.6418e+01	6.5661	23.405294	0.000456	4.561324	1.545418	0.000183
 167	1.6517e+01	6.6030	23.671745	0.000669	6.689941	2.266613	0.000268
 168	1.6616e+01	6.6447	23.853417	0.000456	4.561324	1.545418	0.000183
 169	1.6716e+01	6.6688	24.099682	0.000618	6.183128	2.094900	0.000248
 170	1.6816e+01	6.7185	24.297501	0.000497	4.966775	1.682789	0.000199
 171	1.6915e+01	6.7570	24.535692	0.000598	5.980402	2.026215	0.000239
 172	1.7015e+01	6.8084	24.733512	0.000497	4.966775	1.682789	0.000199
 173	1.7114e+01	6.8292	24.947480	0.000537	5.372226	1.820159	0.000215
 174	1.7213e+01	6.8725	25.193746	0.000618	6.183128	2.094900	0.000248
 175	1.7313e+01	6.9207	25.411751	0.000547	5.473588	1.854502	0.000219
 176	1.7413e+01	6.9608	25.637831	0.000568	5.676314	1.923187	0.000227
 177	1.7512e+01	6.9961	25.843724	0.000517	5.169500	1.751474	0.000207
 178	1.7611e+01	7.0394	26.073841	0.000578	5.777677	1.957530	0.000231
 179	1.7711e+01	7.0715	26.307995	0.000588	5.879039	1.991872	0.000235
 180	1.7811e+01	7.1180	26.530038	0.000557	5.574951	1.888845	0.000223
 181	1.7910e+01	7.1533	26.744006	0.000537	5.372226	1.820159	0.000215
 182	1.8009e+01	7.1982	26.966048	0.000557	5.574951	1.888845	0.000223
 183	1.8109e+01	7.2351	27.171942	0.000517	5.169500	1.751474	0.000207
 184	1.8209e+01	7.2736	27.410133	0.000598	5.980402	2.026215	0.000239
 185	1.8308e+01	7.3153	27.672547	0.000659	6.588579	2.232271	0.000264
 186	1.8407e+01	7.3602	27.829995	0.000395	3.953147	1.339363	0.000158
 187	1.8507e+01	7.3939	28.088372	0.000649	6.487216	2.197928	0.000260
 188	1.8607e+01	7.4372	28.310414	0.000557	5.574951	1.888845	0.000223
 189	1.8706e+01	7.4693	28.524383	0.000537	5.372226	1.820159	0.000215
 190	1.8805e+01	7.5158	28.738351	0.000537	5.372226	1.820159	0.000215
 191	1.8905e+01	7.5511	28.976542	0.000598	5.980402	2.026215	0.000239
 192	1.9005e+01	7.6009	29.190510	0.000537	5.372226	1.820159	0.000215
 193	1.9104e+01	7.6378	29.408515	0.000547	5.473588	1.854502	0.000219
 194	1.9203e+01	7.6795	29.614409	0.000517	5.169500	1.751474	0.000207
 195	1.9303e+01	7.7132	29.892972	0.000699	6.994030	2.369641	0.000280
 196	1.9402e+01	7.7677	30.123088	0.000578	5.777677	1.957530	0.000231
 197	1.9502e+01	7.7950	30.316871	0.000487	4.865412	1.648446	0.000195
 198	1.9602e+01	7.8335	30.583322	0.000669	6.689941	2.266613	0.000268
 199	1.9701e+01	7.8768	30.773067	0.000476	4.764049	1.614104	0.000191
 200	1.9800e+01	7.9217	30.999147	0.000568	5.676314	1.923187	0.000227
 201	1.9900e+01	7.9522	31.241375	0.000608	6.081765	2.060558	0.000243
 202	2.0000e+01	7.9971	31.459380	0.000547	5.473588	1.854502	0.000219
 203	2.0099e+01	8.0324	31.657200	0.000497	4.966775	1.682789	0.000199
 204	2.0198e+01	8.0693	31.903465	0.000618	6.183128	2.094900	0.000248
 205	2.0298e+01	8.1110	32.093211	0.000476	4.764049	1.614104	0.000191
 206	2.0398e+01	8.1559	32.343513	0.000628	6.284490	2.129243	0.000252
 207	2.0497e+01	8.1944	32.545370	0.000507	5.068137	1.717131	0.000203
 208	2.0596e+01	8.2345	32.743189	0.000497	4.966775	1.682789	0.000199
 209	2.0696e+01	8.2666	32.993492	0.000628	6.284490	2.129243	0.000252
 210	2.0796e+01	8.3147	33.231683	0.000598	5.980402	2.026215	0.000239
 211	2.0895e+01	8.3500	33.441614	0.000527	5.270863	1.785817	0.000211
 212	2.0994e+01	8.3966	33.659619	0.000547	5.473588	1.854502	0.000219
 213	2.1094e+01	8.4431	33.841290	0.000456	4.561324	1.545418	0.000183
 214	2.1194e+01	8.4752	34.136001	0.000740	7.399481	2.507012	0.000296
 215	2.1293e+01	8.5153	34.317672	0.000456	4.561324	1.545418	0.000183
 216	2.1392e+01	8.5490	34.523566	0.000517	5.169500	1.751474	0.000207
 217	2.1492e+01	8.5907	34.733497	0.000527	5.270863	1.785817	0.000211
 218	2.1591e+01	8.6292	34.955540	0.000557	5.574951	1.888845	0.000223
 219	2.1691e+01	8.6677	35.165471	0.000527	5.270863	1.785817	0.000211
 220	2.1791e+01	8.7094	35.399625	0.000588	5.879039	1.991872	0.000235
 221	2.1890e+01	8.7495	35.621667	0.000557	5.574951	1.888845	0.000223
 222	2.1989e+01	8.7912	35.811413	0.000476	4.764049	1.614104	0.000191
 223	2.2089e+01	8.8233	36.045566	0.000588	5.879039	1.991872	0.000235
 224	2.2189e+01	8.8730	36.271646	0.000568	5.676314	1.923187	0.000227
 225	2.2288e+01	8.9179	36.513874	0.000608	6.081765	2.060558	0.000243
 226	2.2387e+01	8.9516	36.735917	0.000557	5.574951	1.888845	0.000223
 227	2.2487e+01	8.9837	36.945848	0.000527	5.270863	1.785817	0.000211
 228	2.2587e+01	9.0366	37.135593	0.000476	4.764049	1.614104	0.000191
 229	2.2686e+01	9.0751	37.373784	0.000598	5.980402	2.026215	0.000239
 230	2.2785e+01	9.1120	37.587752	0.000537	5.372226	1.820159	0.000215
 231	2.2885e+01	9.1505	37.825943	0.000598	5.980402	2.026215	0.000239
 232	2.2985e+01	9.1987	38.039911	0.000537	5.372226	1.820159	0.000215
 233	2.3084e+01	9.2324	38.209471	0.000426	4.257235	1.442390	0.000170
 234	2.3183e+01	9.2628	38.479959	0.000679	6.791304	2.300956	0.000272
 235	2.3283e+01	9.3174	38.714113	0.000588	5.879039	1.991872	0.000235
 236	2.3383e+01	9.3495	38.875599	0.000405	4.054510	1.373705	0.000162
 237	2.3482e+01	9.3896	39.085530	0.000527	5.270863	1.785817	0.000211
 238	2.3581e+01	9.4361	39.327758	0.000608	6.081765	2.060558	0.000243
 239	2.3681e+01	9.4746	39.533652	0.000517	5.169500	1.751474	0.000207
 240	2.3780e+01	9.5019	39.755694	0.000557	5.574951	1.888845	0.000223
 241	2.3880e+01	9.5532	39.965625	0.000527	5.270863	1.785817	0.000211
 242	2.3980e+01	9.5885	40.163445	0.000497	4.966775	1.682789	0.000199
 243	2.4079e+01	9.6318	40.409710	0.000618	6.183128	2.094900	0.000248
 244	2.4178e+01	9.6799	40.623678	0.000537	5.372226	1.820159	0.000215
 245	2.4278e+01	9.7152	40.829572	0.000517	5.169500	1.751474	0.000207
 246	2.4378e+01	9.7521	41.019318	0.000476	4.764049	1.614104	0.000191
 247	2.4477e+01	9.7874	41.269620	0.000628	6.284490	2.129243	0.000252
 248	2.4576e+01	9.8275	41.548182	0.000699	6.994030	2.369641	0.000280
 249	2.4676e+01	9.8644	41.673334	0.000314	3.142245	1.064621	0.000126
 250	2.4776e+01	9.8981	41.923636	0.000628	6.284490	2.129243	0.000252
 251	2.4875e+01	9.9398	42.133567	0.000527	5.270863	1.785817	0.000211
 252	2.4974e+01	9.9847	42.351572	0.000547	5.473588	1.854502	0.000219
 253	2.5074e+01	10.0232	42.565541	0.000537	5.372226	1.820159	0.000215
 254	2.5174e+01	10.0682	42.779509	0.000537	5.372226	1.820159	0.000215
 255	2.5273e+01	10.1067	42.961180	0.000456	4.561324	1.545418	0.000183
 256	2.5372e+01	10.1388	43.179185	0.000547	5.473588	1.854502	0.000219
 257	2.5472e+01	10.1933	43.368931	0.000476	4.764049	1.614104	0.000191
 258	2.5572e+01	10.2302	43.615196	0.000618	6.183128	2.094900	0.000248
 259	2.5671e+01	10.2591	43.853387	0.000598	5.980402	2.026215	0.000239
 260	2.5770e+01	10.3088	44.059281	0.000517	5.169500	1.751474	0.000207
 261	2.5870e+01	10.3505	44.236915	0.000446	4.459961	1.511076	0.000179
 262	2.5970e+01	10.3810	44.479143	0.000608	6.081765	2.060558	0.000243
 263	2.6069e+01	10.4243	44.660814	0.000456	4.561324	1.545418	0.000183
 264	2.6169e+01	10.4644	44.874782	0.000537	5.372226	1.820159	0.000215
 265	2.6268e+01	10.5077	45.104899	0.000578	5.777677	1.957530	0.000231
 266	2.6367e+01	10.5478	45.298682	0.000487	4.865412	1.648446	0.000195
 267	2.6467e+01	10.5879	45.553021	0.000639	6.385853	2.163586	0.000256
 268	2.6567e+01	10.6296	45.746804	0.000487	4.865412	1.648446	0.000195
 269	2.6666e+01	10.6730	45.936549	0.000476	4.764049	1.614104	0.000191
 270	2.6765e+01	10.7131	46.142443	0.000517	5.169500	1.751474	0.000207
 271	2.6865e+01	10.7468	46.364485	0.000557	5.574951	1.888845	0.000223
 272	2.6965e+01	10.7853	46.602676	0.000598	5.980402	2.026215	0.000239
 273	2.7064e+01	10.8254	46.804533	0.000507	5.068137	1.717131	0.000203
 274	2.7163e+01	10.8607	46.990241	0.000466	4.662686	1.579761	0.000187
 275	2.7263e+01	10.8992	47.212284	0.000557	5.574951	1.888845	0.000223
 276	2.7363e+01	10.9473	47.418178	0.000517	5.169500	1.751474	0.000207
 277	2.7462e+01	10.9794	47.603886	0.000466	4.662686	1.579761	0.000187
 278	2.7561e+01	11.0259	47.838040	0.000588	5.879039	1.991872	0.000235
 279	2.7661e+01	11.0660	48.047971	0.000527	5.270863	1.785817	0.000211
 280	2.7761e+01	11.0965	48.270013	0.000557	5.574951	1.888845	0.000223
 281	2.7860e+01	11.1382	48.439573	0.000426	4.257235	1.442390	0.000170
 282	2.7959e+01	11.1815	48.653541	0.000537	5.372226	1.820159	0.000215
 283	2.8059e+01	11.2152	48.887695	0.000588	5.879039	1.991872	0.000235
 284	2.8159e+01	11.2697	49.085515	0.000497	4.966775	1.682789	0.000199
 285	2.8258e+01	11.3002	49.295446	0.000527	5.270863	1.785817	0.000211
 286	2.8358e+01	11.3371	49.497303	0.000507	5.068137	1.717131	0.000203
 287	2.8457e+01	11.3836	49.695122	0.000497	4.966775	1.682789	0.000199
 288	2.8556e+01	11.4173	49.965610	0.000679	6.791304	2.300956	0.000272
 289	2.8656e+01	11.4703	50.167467	0.000507	5.068137	1.717131	0.000203
 290	2.8756e+01	11.4959	50.328953	0.000405	4.054510	1.373705	0.000162
 291	2.8855e+01	11.5360	50.595404	0.000669	6.689941	2.266613	0.000268
 292	2.8954e+01	11.5810	50.789186	0.000487	4.865412	1.648446	0.000195
 293	2.9054e+01	11.6307	51.003154	0.000537	5.372226	1.820159	0.000215
 294	2.9154e+01	11.6724	51.205011	0.000507	5.068137	1.717131	0.000203
 295	2.9253e+01	11.7029	51.414942	0.000527	5.270863	1.785817	0.000211
 296	2.9352e+01	11.7382	51.632948	0.000547	5.473588	1.854502	0.000219
 297	2.9452e+01	11.7799	51.794433	0.000405	4.054510	1.373705	0.000162
 298	2.9552e+01	11.8248	52.064921	0.000679	6.791304	2.300956	0.000272
 299	2.9651e+01	11.8617	52.262741	0.000497	4.966775	1.682789	0.000199
 300	2.9750e+01	11.9066	52.452486	0.000476	4.764049	1.614104	0.000191
 301	2.9850e+01	11.9355	52.682603	0.000578	5.777677	1.957530	0.000231
 302	2.9950e+01	11.9804	52.876385	0.000487	4.865412	1.648446	0.000195
 303	3.0049e+01	12.0125	53.130725	0.000639	6.385853	2.163586	0.000256
 304	3.0148e+01	12.0590	53.336619	0.000517	5.169500	1.751474	0.000207
 305	3.0248e+01	12.0959	53.542513	0.000517	5.169500	1.751474	0.000207
 306	3.0348e+01	12.1408	53.748407	0.000517	5.169500	1.751474	0.000207
 307	3.0447e+01	12.1745	53.986598	0.000598	5.980402	2.026215	0.000239
 308	3.0547e+01	12.2226	54.180380	0.000487	4.865412	1.648446	0.000195
 309	3.0646e+01	12.2644	54.398386	0.000547	5.473588	1.854502	0.000219
 310	3.0745e+01	12.2980	54.580057	0.000456	4.561324	1.545418	0.000183
 311	3.0845e+01	12.3333	54.822285	0.000608	6.081765	2.060558	0.000243
 312	3.0945e+01	12.3815	55.016067	0.000487	4.865412	1.648446	0.000195
 313	3.1044e+01	12.4248	55.221961	0.000517	5.169500	1.751474	0.000207
 314	3.1143e+01	12.4505	55.456115	0.000588	5.879039	1.991872	0.000235
 315	3.1243e+01	12.4938	55.629712	0.000436	4.358598	1.476733	0.000174
 316	3.1343e+01	12.5403	55.871940	0.000608	6.081765	2.060558	0.000243
 317	3.1442e+01	12.5836	56.045537	0.000436	4.358598	1.476733	0.000174
 318	3.1541e+01	12.6221	56.279691	0.000588	5.879039	1.991872	0.000235
 319	3.1641e+01	12.6606	56.489622	0.000527	5.270863	1.785817	0.000211
 320	3.1741e+01	12.6943	56.699553	0.000527	5.270863	1.785817	0.000211
 321	3.1840e+01	12.7488	56.885261	0.000466	4.662686	1.579761	0.000187
 322	3.1939e+01	12.7681	57.127489	0.000608	6.081765	2.060558	0.000243
 323	3.2039e+01	12.8114	57.353569	0.000568	5.676314	1.923187	0.000227
 324	3.2139e+01	12.8467	57.547351	0.000487	4.865412	1.648446	0.000195
 325	3.2238e+01	12.8964	57.765357	0.000547	5.473588	1.854502	0.000219
 326	3.2337e+01	12.9365	57.979325	0.000537	5.372226	1.820159	0.000215
 327	3.2437e+01	12.9798	58.165033	0.000466	4.662686	1.579761	0.000187
 328	3.2536e+01	13.0167	58.407261	0.000608	6.081765	2.060558	0.000243
 329	3.2636e+01	13.0488	58.621229	0.000537	5.372226	1.820159	0.000215
 330	3.2736e+01	13.0937	58.819049	0.000497	4.966775	1.682789	0.000199
 331	3.2835e+01	13.1322	59.016869	0.000497	4.966775	1.682789	0.000199
 332	3.2934e+01	13.1820	59.206614	0.000476	4.764049	1.614104	0.000191
 333	3.3034e+01	13.2125	59.473065	0.000669	6.689941	2.266613	0.000268
 334	3.3133e+01	13.2574	59.650699	0.000446	4.459961	1.511076	0.000179
 335	3.3233e+01	13.2959	59.868704	0.000547	5.473588	1.854502	0.000219
 336	3.3333e+01	13.3312	60.066524	0.000497	4.966775	1.682789	0.000199
 337	3.3432e+01	13.3777	60.288567	0.000557	5.574951	1.888845	0.000223
 338	3.3532e+01	13.4082	60.506572	0.000547	5.473588	1.854502	0.000219
 339	3.3631e+01	13.4547	60.708429	0.000507	5.068137	1.717131	0.000203
 340	3.3730e+01	13.4980	60.926434	0.000547	5.473588	1.854502	0.000219
 341	3.3830e+01	13.5397	61.140402	0.000537	5.372226	1.820159	0.000215
 342	3.3929e+01	13.5686	61.350333	0.000527	5.270863	1.785817	0.000211
 343	3.4029e+01	13.6103	61.544116	0.000487	4.865412	1.648446	0.000195
 344	3.4129e+01	13.6520	61.733861	0.000476	4.764049	1.614104	0.000191
 345	3.4228e+01	13.6921	61.968015	0.000588	5.879039	1.991872	0.000235
 346	3.4328e+01	13.7386	62.137575	0.000426	4.257235	1.442390	0.000170
 347	3.4427e+01	13.7691	62.383840	0.000618	6.183128	2.094900	0.000248
 348	3.4526e+01	13.8173	62.593771	0.000527	5.270863	1.785817	0.000211
 349	3.4626e+01	13.8509	62.811776	0.000547	5.473588	1.854502	0.000219
 350	3.4725e+01	13.9007	63.029782	0.000547	5.473588	1.854502	0.000219
 351	3.4825e+01	13.9328	63.243750	0.000537	5.372226	1.820159	0.000215
 352	3.4925e+01	13.9697	63.449644	0.000517	5.169500	1.751474	0.000207
 353	3.5024e+01	14.0114	63.683798	0.000588	5.879039	1.991872	0.000235
 354	3.5123e+01	14.0483	63.877580	0.000487	4.865412	1.648446	0.000195
 355	3.5223e+01	14.0980	64.107697	0.000578	5.777677	1.957530	0.000231
 356	3.5322e+01	14.1349	64.285331	0.000446	4.459961	1.511076	0.000179
 357	3.5422e+01	14.1638	64.491225	0.000517	5.169500	1.751474	0.000207
 358	3.5522e+01	14.2055	64.729416	0.000598	5.980402	2.026215	0.000239
 359	3.5621e+01	14.2552	64.919161	0.000476	4.764049	1.614104	0.000191
 360	3.5721e+01	14.2905	65.121018	0.000507	5.068137	1.717131	0.000203
 361	3.5820e+01	14.3290	65.367283	0.000618	6.183128	2.094900	0.000248
 362	3.5919e+01	14.3707	65.552992	0.000466	4.662686	1.579761	0.000187
 363	3.6019e+01	14.4044	65.775034	0.000557	5.574951	1.888845	0.000223
 364	3.6118e+01	14.4493	65.964779	0.000476	4.764049	1.614104	0.000191
 365	3.6218e+01	14.4894	66.170673	0.000517	5.169500	1.751474	0.000207
 366	3.6318e+01	14.5343	66.400790	0.000578	5.777677	1.957530	0.000231
 367	3.6417e+01	14.5680	66.622833	0.000557	5.574951	1.888845	0.000223
 368	3.6517e+01	14.6114	66.832764	0.000527	5.270863	1.785817	0.000211
 369	3.6616e+01	14.6547	67.050769	0.000547	5.473588	1.854502	0.000219
 370	3.6715e+01	14.6900	67.264737	0.000537	5.372226	1.820159	0.000215
 371	3.6815e+01	14.7220	67.438334	0.000436	4.358598	1.476733	0.000174
 372	3.6914e+01	14.7686	67.696711	0.000649	6.487216	2.197928	0.000260
 373	3.7014e+01	14.8087	67.870307	0.000436	4.358598	1.476733	0.000174
 374	3.7114e+01	14.8456	68.084276	0.000537	5.372226	1.820159	0.000215
 375	3.7213e+01	14.8873	68.290170	0.000517	5.169500	1.751474	0.000207
 376	3.7313e+01	14.9210	68.496063	0.000517	5.169500	1.751474	0.000207
 377	3.7412e+01	14.9579	68.689846	0.000487	4.865412	1.648446	0.000195
 378	3.7511e+01	15.0012	68.911888	0.000557	5.574951	1.888845	0.000223
 379	3.7611e+01	15.0493	69.133931	0.000557	5.574951	1.888845	0.000223
 380	3.7711e+01	15.0878	69.275231	0.000355	3.547696	1.201992	0.000142
 381	3.7810e+01	15.1327	69.549756	0.000689	6.892667	2.335299	0.000276
 382	3.7910e+01	15.1568	69.727390	0.000446	4.459961	1.511076	0.000179
 383	3.8009e+01	15.2017	69.937321	0.000527	5.270863	1.785817	0.000211
 384	3.8108e+01	15.2434	70.139178	0.000507	5.068137	1.717131	0.000203
 385	3.8208e+01	15.2819	70.365257	0.000568	5.676314	1.923187	0.000227
 386	3.8307e+01	15.3268	70.550966	0.000466	4.662686	1.579761	0.000187
 387	3.8407e+01	15.3621	70.748785	0.000497	4.966775	1.682789	0.000199
 388	3.8507e+01	15.4071	70.946605	0.000497	4.966775	1.682789	0.000199
 389	3.8606e+01	15.4423	71.148462	0.000507	5.068137	1.717131	0.000203
 390	3.8706e+01	15.4680	71.370504	0.000557	5.574951	1.888845	0.000223
 391	3.8805e+01	15.5258	71.560250	0.000476	4.764049	1.614104	0.000191
 392	3.8904e+01	15.5627	71.770181	0.000527	5.270863	1.785817	0.000211
 393	3.9004e+01	15.5980	71.996260	0.000568	5.676314	1.923187	0.000227
 394	3.9103e+01	15.6477	72.165820	0.000426	4.257235	1.442390	0.000170
 395	3.9203e+01	15.6798	72.339417	0.000436	4.358598	1.476733	0.000174
 396	3.9303e+01	15.7279	72.561459	0.000557	5.574951	1.888845	0.000223
 397	3.9402e+01	15.7600	72.763316	0.000507	5.068137	1.717131	0.000203
 398	3.9502e+01	15.8017	72.965173	0.000507	5.068137	1.717131	0.000203
 399	3.9601e+01	15.8418	73.175104	0.000527	5.270863	1.785817	0.000211
 400	3.9700e+01	15.8851	73.385035	0.000527	5.270863	1.785817	0.000211
 401	3.9800e+01	15.9236	73.566706	0.000456	4.561324	1.545418	0.000183
 402	3.9900e+01	15.9621	73.788748	0.000557	5.574951	1.888845	0.000223
 403	3.9999e+01	16.0070	73.986568	0.000497	4.966775	1.682789	0.000199
 404	4.0099e+01	16.0407	74.164202	0.000446	4.459961	1.511076	0.000179
 405	4.0198e+01	16.0776	74.357985	0.000487	4.865412	1.648446	0.000195
 406	4.0297e+01	16.1209	74.604250	0.000618	6.183128	2.094900	0.000248
 407	4.0397e+01	16.1626	74.814181	0.000527	5.270863	1.785817	0.000211
 408	4.0496e+01	16.2060	74.971629	0.000395	3.953147	1.339363	0.000158
 409	4.0596e+01	16.2413	75.189635	0.000547	5.473588	1.854502	0.000219
 410	4.0696e+01	16.2830	75.411677	0.000557	5.574951	1.888845	0.000223
 411	4.0795e+01	16.3199	75.557014	0.000365	3.649059	1.236335	0.000146
 412	4.0895e+01	16.3616	75.783094	0.000568	5.676314	1.923187	0.000227
 413	4.0994e+01	16.3969	75.940542	0.000395	3.953147	1.339363	0.000158
 414	4.1093e+01	16.4546	76.154510	0.000537	5.372226	1.820159	0.000215
 415	4.1193e+01	16.4787	76.360404	0.000517	5.169500	1.751474	0.000207
 416	4.1292e+01	16.5188	76.562261	0.000507	5.068137	1.717131	0.000203
 417	4.1392e+01	16.5541	76.735858	0.000436	4.358598	1.476733	0.000174
 418	4.1492e+01	16.6006	76.994234	0.000649	6.487216	2.197928	0.000260
 419	4.1591e+01	16.6503	77.183980	0.000476	4.764049	1.614104	0.000191
 420	4.1691e+01	16.6792	77.381799	0.000497	4.966775	1.682789	0.000199
 421	4.1790e+01	16.7257	77.555396	0.000436	4.358598	1.476733	0.000174
 422	4.1889e+01	16.7674	77.781476	0.000568	5.676314	1.923187	0.000227
 423	4.1989e+01	16.7883	77.963147	0.000456	4.561324	1.545418	0.000183
 424	4.2089e+01	16.8412	78.128669	0.000416	4.155873	1.408048	0.000166
 425	4.2188e+01	16.8813	78.338600	0.000527	5.270863	1.785817	0.000211
 426	4.2288e+01	16.9198	78.572754	0.000588	5.879039	1.991872	0.000235
 427	4.2387e+01	16.9519	78.766537	0.000487	4.865412	1.648446	0.000195
 428	4.2486e+01	16.9936	78.952245	0.000466	4.662686	1.579761	0.000187
 429	4.2586e+01	17.0353	79.166213	0.000537	5.372226	1.820159	0.000215
 430	4.2685e+01	17.0771	79.319624	0.000385	3.851784	1.305020	0.000154
 431	4.2785e+01	17.1188	79.513407	0.000487	4.865412	1.648446	0.000195
 432	4.2885e+01	17.1653	79.731412	0.000547	5.473588	1.854502	0.000219
 433	4.2984e+01	17.1958	79.921158	0.000476	4.764049	1.614104	0.000191
 434	4.3084e+01	17.2455	80.082643	0.000405	4.054510	1.373705	0.000162
 435	4.3183e+01	17.2744	80.320834	0.000598	5.980402	2.026215	0.000239
 436	4.3282e+01	17.3113	80.522691	0.000507	5.068137	1.717131	0.000203
 437	4.3382e+01	17.3434	80.663991	0.000355	3.547696	1.201992	0.000142
 438	4.3481e+01	17.3915	80.886033	0.000557	5.574951	1.888845	0.000223
 439	4.3581e+01	17.4316	81.100001	0.000537	5.372226	1.820159	0.000215
 440	4.3681e+01	17.4813	81.285710	0.000466	4.662686	1.579761	0.000187
 441	4.3780e+01	17.5166	81.439121	0.000385	3.851784	1.305020	0.000154
 442	4.3880e+01	17.5423	81.677312	0.000598	5.980402	2.026215	0.000239
 443	4.3979e+01	17.5920	81.826686	0.000375	3.750422	1.270677	0.000150
 444	4.4078e+01	17.6466	82.056802	0.000578	5.777677	1.957530	0.000231
 445	4.4178e+01	17.6819	82.254622	0.000497	4.966775	1.682789	0.000199
 446	4.4278e+01	17.7107	82.424182	0.000426	4.257235	1.442390	0.000170
 447	4.4377e+01	17.7589	82.638150	0.000537	5.372226	1.820159	0.000215
 448	4.4477e+01	17.7958	82.791561	0.000385	3.851784	1.305020	0.000154
 449	4.4576e+01	17.8391	83.009566	0.000547	5.473588	1.854502	0.000219
 450	4.4675e+01	17.8792	83.175089	0.000416	4.155873	1.408048	0.000166
 451	4.4775e+01	17.9273	83.413280	0.000598	5.980402	2.026215	0.000239
 452	4.4874e+01	17.9626	83.603025	0.000476	4.764049	1.614104	0.000191
 453	4.4974e+01	18.0027	83.804882	0.000507	5.068137	1.717131	0.000203
 454	4.5074e+01	18.0428	83.974442	0.000426	4.257235	1.442390	0.000170
 455	4.5173e+01	18.0717	84.148039	0.000436	4.358598	1.476733	0.000174
 456	4.5273e+01	18.1150	84.321636	0.000436	4.358598	1.476733	0.000174
 457	4.5372e+01	18.1439	84.559827	0.000598	5.980402	2.026215	0.000239
 458	4.5471e+01	18.1888	84.709201	0.000375	3.750422	1.270677	0.000150
 459	4.5571e+01	18.2385	84.931243	0.000557	5.574951	1.888845	0.000223
 460	4.5670e+01	18.2802	85.112914	0.000456	4.561324	1.545418	0.000183
 461	4.5770e+01	18.3123	85.294585	0.000456	4.561324	1.545418	0.000183
 462	4.5870e+01	18.3460	85.520665	0.000568	5.676314	1.923187	0.000227
 463	4.5969e+01	18.3941	85.706373	0.000466	4.662686	1.579761	0.000187
 464	4.6069e+01	18.4358	85.892081	0.000466	4.662686	1.579761	0.000187
 465	4.6168e+01	18.4695	86.089901	0.000497	4.966775	1.682789	0.000199
 466	4.6267e+01	18.5112	86.271572	0.000456	4.561324	1.545418	0.000183
 467	4.6367e+01	18.5578	86.509763	0.000598	5.980402	2.026215	0.000239
 468	4.6467e+01	18.5963	86.647026	0.000345	3.446333	1.167649	0.000138
 469	4.6566e+01	18.6219	86.865031	0.000547	5.473588	1.854502	0.000219
 470	4.6666e+01	18.6733	87.022479	0.000395	3.953147	1.339363	0.000158
 471	4.6765e+01	18.7118	87.224336	0.000507	5.068137	1.717131	0.000203
 472	4.6864e+01	18.7423	87.438304	0.000537	5.372226	1.820159	0.000215
 473	4.6964e+01	18.7920	87.628050	0.000476	4.764049	1.614104	0.000191
 474	4.7063e+01	18.8369	87.809721	0.000456	4.561324	1.545418	0.000183
 475	4.7163e+01	18.8642	88.023689	0.000537	5.372226	1.820159	0.000215
 476	4.7263e+01	18.9171	88.205360	0.000456	4.561324	1.545418	0.000183
 477	4.7362e+01	18.9524	88.391068	0.000466	4.662686	1.579761	0.000187
 478	4.7462e+01	18.9957	88.596962	0.000517	5.169500	1.751474	0.000207
 479	4.7561e+01	19.0246	88.778633	0.000456	4.561324	1.545418	0.000183
 480	4.7660e+01	19.0727	88.980490	0.000507	5.068137	1.717131	0.000203
 481	4.7760e+01	19.1128	89.202533	0.000557	5.574951	1.888845	0.000223
 482	4.7859e+01	19.1513	89.364018	0.000405	4.054510	1.373705	0.000162
 483	4.7959e+01	19.1946	89.561838	0.000497	4.966775	1.682789	0.000199
 484	4.8059e+01	19.2331	89.775806	0.000537	5.372226	1.820159	0.000215
 485	4.8158e+01	19.2733	89.981700	0.000517	5.169500	1.751474	0.000207
 486	4.8258e+01	19.3214	90.147222	0.000416	4.155873	1.408048	0.000166
 487	4.8357e+01	19.3470	90.349079	0.000507	5.068137	1.717131	0.000203
 488	4.8456e+01	19.3807	90.502490	0.000385	3.851784	1.305020	0.000154
 489	4.8556e+01	19.4353	90.659939	0.000395	3.953147	1.339363	0.000158
 490	4.8656e+01	19.4690	90.918315	0.000649	6.487216	2.197928	0.000260
 491	4.8755e+01	19.5171	91.083838	0.000416	4.155873	1.408048	0.000166
 492	4.8855e+01	19.5572	91.281658	0.000497	4.966775	1.682789	0.000199
 493	4.8954e+01	19.5941	91.463329	0.000456	4.561324	1.545418	0.000183
 494	4.9053e+01	19.6294	91.697483	0.000588	5.879039	1.991872	0.000235
 495	4.9153e+01	19.6743	91.854931	0.000395	3.953147	1.339363	0.000158
 496	4.9252e+01	19.7128	92.060825	0.000517	5.169500	1.751474	0.000207
 497	4.9352e+01	19.7465	92.246533	0.000466	4.662686	1.579761	0.000187
 498	4.9452e+01	19.7914	92.460501	0.000537	5.372226	1.820159	0.000215
 499	4.9551e+01	19.8267	92.609875	0.000375	3.750422	1.270677	0.000150
 500	4.9651e+01	19.8620	92.827881	0.000547	5.473588	1.854502	0.000219
 501	4.9750e+01	19.9053	92.981292	0.000385	3.851784	1.305020	0.000154
 502	4.9849e+01	19.9358	93.211408	0.000578	5.777677	1.957530	0.000231
 503	4.9949e+01	19.9823	93.401154	0.000476	4.764049	1.614104	0.000191
 504	5.0048e+01	19.9454	93.542454	-0.000355	-3.547696	-1.201992	0.000142
 505	5.0148e+01	19.9053	93.598974	-0.000142	-1.419078	-0.480797	0.000057
 506	5.0248e+01	19.8668	93.671642	-0.000182	-1.824529	-0.618167	0.000073
 507	5.0347e+01	19.8219	93.716050	-0.000111	-1.114990	-0.377769	0.000045
 508	5.0447e+01	19.7898	93.784682	-0.000172	-1.723167	-0.583825	0.000069
 509	5.0546e+01	19.7449	93.816979	-0.000081	-0.810902	-0.274741	0.000032
 510	5.0645e+01	19.7128	93.845239	-0.000071	-0.709539	-0.240398	0.000028
 511	5.0745e+01	19.6663	93.837165	0.000020	0.202725	0.068685	-0.000008
 512	5.0844e+01	19.6262	93.877536	-0.000101	-1.013627	-0.343426	0.000041
 513	5.0944e+01	19.5893	93.873499	0.000010	0.101363	0.034343	-0.000004
 514	5.1044e+01	19.5572	93.893684	-0.000051	-0.506814	-0.171713	0.000020
 515	5.1143e+01	19.5075	93.917907	-0.000061	-0.608176	-0.206056	0.000024
 516	5.1242e+01	19.4658	93.885610	0.000081	0.810902	0.274741	-0.000032
 517	5.1342e+01	19.4321	93.885610	-0.000000	-0.000000	-0.000000	0.000000
 518	5.1441e+01	19.3855	93.893684	-0.000020	-0.202725	-0.068685	0.000008
 519	5.1541e+01	19.3487	93.877536	0.000041	0.405451	0.137371	-0.000016
 520	5.1641e+01	19.3102	93.869462	0.000020	0.202725	0.068685	-0.000008
 521	5.1740e+01	19.2652	93.873499	-0.000010	-0.101363	-0.034343	0.000004
 522	5.1840e+01	19.2348	93.853313	0.000051	0.506814	0.171713	-0.000020
 523	5.1939e+01	19.1930	93.825053	0.000071	0.709539	0.240398	-0.000028
 524	5.2038e+01	19.1561	93.829090	-0.000010	-0.101363	-0.034343	0.000004
 525	5.2138e+01	19.1144	93.780645	0.000122	1.216353	0.412112	-0.000049
 526	5.2237e+01	19.0743	93.788719	-0.000020	-0.202725	-0.068685	0.000008
 527	5.2337e+01	19.0294	93.768533	0.000051	0.506814	0.171713	-0.000020
 528	5.2437e+01	18.9925	93.732199	0.000091	0.912265	0.309084	-0.000037
 529	5.2536e+01	18.9540	93.728162	0.000010	0.101363	0.034343	-0.000004
 530	5.2636e+01	18.9107	93.683753	0.000111	1.114990	0.377769	-0.000045
 531	5.2735e+01	18.8674	93.631271	0.000132	1.317716	0.446454	-0.000053
 532	5.2834e+01	18.8337	93.615122	0.000041	0.405451	0.137371	-0.000016
 533	5.2934e+01	18.7904	93.603011	0.000030	0.304088	0.103028	-0.000012
 534	5.3033e+01	18.7599	93.542454	0.000152	1.520441	0.515139	-0.000061
 535	5.3133e+01	18.7134	93.530342	0.000030	0.304088	0.103028	-0.000012
 536	5.3233e+01	18.6749	93.453637	0.000193	1.925892	0.652510	-0.000077
 537	5.3332e+01	18.6332	93.437488	0.000041	0.405451	0.137371	-0.000016
 538	5.3431e+01	18.5931	93.405191	0.000081	0.810902	0.274741	-0.000032
 539	5.3531e+01	18.5530	93.360783	0.000111	1.114990	0.377769	-0.000045
 540	5.3630e+01	18.5161	93.340597	0.000051	0.506814	0.171713	-0.000020
 541	5.3730e+01	18.4711	93.284077	0.000142	1.419078	0.480797	-0.000057
 542	5.3830e+01	18.4262	93.239668	0.000111	1.114990	0.377769	-0.000045
 543	5.3929e+01	18.3925	93.191223	0.000122	1.216353	0.412112	-0.000049
 544	5.4029e+01	18.3540	93.142777	0.000122	1.216353	0.412112	-0.000049
 545	5.4128e+01	18.3139	93.102406	0.000101	1.013627	0.343426	-0.000041
 546	5.4227e+01	18.2754	93.049923	0.000132	1.317716	0.446454	-0.000053
 547	5.4327e+01	18.2273	93.021663	0.000071	0.709539	0.240398	-0.000028
 548	5.4426e+01	18.2000	92.940920	0.000203	2.027255	0.686853	-0.000081
 549	5.4526e+01	18.1487	92.880363	0.000152	1.520441	0.515139	-0.000061
 550	5.4626e+01	18.1086	92.819806	0.000152	1.520441	0.515139	-0.000061
 551	5.4725e+01	18.0765	92.763286	0.000142	1.419078	0.480797	-0.000057
 552	5.4825e+01	18.0316	92.730989	0.000081	0.810902	0.274741	-0.000032
 553	5.4924e+01	17.9995	92.678507	0.000132	1.317716	0.446454	-0.000053
 554	5.5023e+01	17.9578	92.617950	0.000152	1.520441	0.515139	-0.000061
 555	5.5123e+01	17.9129	92.517021	0.000253	2.534069	0.858566	-0.000101
 556	5.5222e+01	17.8712	92.468576	0.000122	1.216353	0.412112	-0.000049
 557	5.5322e+01	17.8310	92.387833	0.000203	2.027255	0.686853	-0.000081
 558	5.5422e+01	17.7974	92.343424	0.000111	1.114990	0.377769	-0.000045
 559	5.5521e+01	17.7508	92.286904	0.000142	1.419078	0.480797	-0.000057
 560	5.5620e+01	17.7220	92.234422	0.000132	1.317716	0.446454	-0.000053
 561	5.5720e+01	17.6770	92.129456	0.000264	2.635431	0.892908	-0.000105
 562	5.5819e+01	17.6369	92.105233	0.000061	0.608176	0.206056	-0.000024
 563	5.5919e+01	17.6065	92.044676	0.000152	1.520441	0.515139	-0.000061
 564	5.6019e+01	17.5631	91.972008	0.000182	1.824529	0.618167	-0.000073
 565	5.6118e+01	17.5214	91.879154	0.000233	2.331343	0.789880	-0.000093
 566	5.6218e+01	17.4717	91.846857	0.000081	0.810902	0.274741	-0.000032
 567	5.6317e+01	17.4332	91.745928	0.000253	2.534069	0.858566	-0.000101
 568	5.6416e+01	17.4027	91.693445	0.000132	1.317716	0.446454	-0.000053
 569	5.6516e+01	17.3594	91.600591	0.000233	2.331343	0.789880	-0.000093
 570	5.6615e+01	17.3225	91.523886	0.000193	1.925892	0.652510	-0.000077
 571	5.6715e+01	17.2696	91.439106	0.000213	2.128618	0.721195	-0.000085
 572	5.6815e+01	17.2423	91.346252	0.000233	2.331343	0.789880	-0.000093
 573	5.6914e+01	17.1942	91.305880	0.000101	1.013627	0.343426	-0.000041
 574	5.7014e+01	17.1605	91.221101	0.000213	2.128618	0.721195	-0.000085
 575	5.7113e+01	17.1236	91.160544	0.000152	1.520441	0.515139	-0.000061
 576	5.7212e+01	17.0755	91.055578	0.000264	2.635431	0.892908	-0.000105
 577	5.7312e+01	17.0289	91.011170	0.000111	1.114990	0.377769	-0.000045
 578	5.7411e+01	17.0017	90.938501	0.000182	1.824529	0.618167	-0.000073
 579	5.7511e+01	16.9664	90.841610	0.000243	2.432706	0.824223	-0.000097
 580	5.7611e+01	16.9118	90.748756	0.000233	2.331343	0.789880	-0.000093
 581	5.7710e+01	16.8797	90.659939	0.000223	2.229980	0.755538	-0.000089
 582	5.7809e+01	16.8444	90.587270	0.000182	1.824529	0.618167	-0.000073
 583	5.7909e+01	16.8011	90.490379	0.000243	2.432706	0.824223	-0.000097
 584	5.8008e+01	16.7514	90.413673	0.000193	1.925892	0.652510	-0.000077
 585	5.8108e+01	16.7161	90.357154	0.000142	1.419078	0.480797	-0.000057
 586	5.8208e+01	16.6760	90.280448	0.000193	1.925892	0.652510	-0.000077
 587	5.8307e+01	16.6407	90.195668	0.000213	2.128618	0.721195	-0.000085
 588	5.8407e+01	16.5974	90.078591	0.000294	2.939520	0.995936	-0.000118
 589	5.8506e+01	16.5653	90.001886	0.000193	1.925892	0.652510	-0.000077
 590	5.8605e+01	16.5172	89.913069	0.000223	2.229980	0.755538	-0.000089
 591	5.8705e+01	16.4851	89.836363	0.000193	1.925892	0.652510	-0.000077
 592	5.8804e+01	16.4402	89.767732	0.000172	1.723167	0.583825	-0.000069
 593	5.8904e+01	16.3937	89.630469	0.000345	3.446333	1.167649	-0.000138
 594	5.9004e+01	16.3632	89.590098	0.000101	1.013627	0.343426	-0.000041
 595	5.9103e+01	16.3183	89.489169	0.000253	2.534069	0.858566	-0.000101
 596	5.9203e+01	16.2830	89.392278	0.000243	2.432706	0.824223	-0.000097
 597	5.9302e+01	16.2509	89.319610	0.000182	1.824529	0.618167	-0.000073
 598	5.9401e+01	16.1995	89.206570	0.000284	2.838157	0.961594	-0.000114
 599	5.9501e+01	16.1626	89.166198	0.000101	1.013627	0.343426	-0.000041
 600	5.9600e+01	16.1274	89.041047	0.000314	3.142245	1.064621	-0.000126
 601	5.9700e+01	16.0808	88.923970	0.000294	2.939520	0.995936	-0.000118
 602	5.9800e+01	16.0487	88.827079	0.000243	2.432706	0.824223	-0.000097
 603	5.9899e+01	16.0054	88.726151	0.000253	2.534069	0.858566	-0.000101
 604	5.9998e+01	15.9621	88.641371	0.000213	2.128618	0.721195	-0.000085
 605	6.0098e+01	15.9332	88.548517	0.000233	2.331343	0.789880	-0.000093
 606	6.0197e+01	15.8867	88.475848	0.000182	1.824529	0.618167	-0.000073
 607	6.0297e+01	15.8402	88.346660	0.000324	3.243608	1.098964	-0.000130
 608	6.0397e+01	15.8049	88.209397	0.000345	3.446333	1.167649	-0.000138
 609	6.0496e+01	15.7696	88.140766	0.000172	1.723167	0.583825	-0.000069
 610	6.0596e+01	15.7199	88.055986	0.000213	2.128618	0.721195	-0.000085
 611	6.0695e+01	15.6798	87.975243	0.000203	2.027255	0.686853	-0.000081
 612	6.0794e+01	15.6381	87.842018	0.000334	3.344971	1.133307	-0.000134
 613	6.0894e+01	15.6124	87.749164	0.000233	2.331343	0.789880	-0.000093
 614	6.0993e+01	15.5627	87.652273	0.000243	2.432706	0.824223	-0.000097
 615	6.1093e+01	15.5306	87.527121	0.000314	3.142245	1.064621	-0.000126
 616	6.1193e+01	15.4921	87.430230	0.000243	2.432706	0.824223	-0.000097
 617	6.1292e+01	15.4407	87.365636	0.000162	1.621804	0.549482	-0.000065
 618	6.1392e+01	15.4022	87.252596	0.000284	2.838157	0.961594	-0.000114
 619	6.1491e+01	15.3686	87.167816	0.000213	2.128618	0.721195	-0.000085
 620	6.1590e+01	15.3140	87.022479	0.000365	3.649059	1.236335	-0.000146
 621	6.1690e+01	15.2883	86.917514	0.000264	2.635431	0.892908	-0.000105
 622	6.1789e+01	15.2482	86.828697	0.000223	2.229980	0.755538	-0.000089
 623	6.1889e+01	15.2001	86.731806	0.000243	2.432706	0.824223	-0.000097
 624	6.1989e+01	15.1600	86.610692	0.000304	3.040882	1.030279	-0.000122
 625	6.2088e+01	15.1199	86.509763	0.000253	2.534069	0.858566	-0.000101
 626	6.2188e+01	15.0830	86.404798	0.000264	2.635431	0.892908	-0.000105
 627	6.2287e+01	15.0461	86.336166	0.000172	1.723167	0.583825	-0.000069
 628	6.2386e+01	15.0076	86.190829	0.000365	3.649059	1.236335	-0.000146
 629	6.2486e+01	14.9707	86.073753	0.000294	2.939520	0.995936	-0.000118
 630	6.2586e+01	14.9338	85.948601	0.000314	3.142245	1.064621	-0.000126
 631	6.2685e+01	14.8953	85.843636	0.000264	2.635431	0.892908	-0.000105
 632	6.2785e+01	14.8504	85.770967	0.000182	1.824529	0.618167	-0.000073
 633	6.2884e+01	14.8119	85.661965	0.000274	2.736794	0.927251	-0.000110
 634	6.2983e+01	14.7686	85.565073	0.000243	2.432706	0.824223	-0.000097
 635	6.3083e+01	14.7188	85.439922	0.000314	3.142245	1.064621	-0.000126
 636	6.3182e+01	14.6900	85.355142	0.000213	2.128618	0.721195	-0.000085
 637	6.3282e+01	14.6450	85.205768	0.000375	3.750422	1.270677	-0.000150
 638	6.3382e+01	14.6081	85.108877	0.000243	2.432706	0.824223	-0.000097
 639	6.3481e+01	14.5616	84.983726	0.000314	3.142245	1.064621	-0.000126
 640	6.3581e+01	14.5295	84.902983	0.000203	2.027255	0.686853	-0.000081
 641	6.3680e+01	14.4814	84.777832	0.000314	3.142245	1.064621	-0.000126
 642	6.3779e+01	14.4493	84.660755	0.000294	2.939520	0.995936	-0.000118
 643	6.3879e+01	14.4044	84.559827	0.000253	2.534069	0.858566	-0.000101
 644	6.3978e+01	14.3723	84.462935	0.000243	2.432706	0.824223	-0.000097
 645	6.4078e+01	14.3322	84.398341	0.000162	1.621804	0.549482	-0.000065
 646	6.4177e+01	14.2969	84.244930	0.000385	3.851784	1.305020	-0.000154
 647	6.4277e+01	14.2440	84.135927	0.000274	2.736794	0.927251	-0.000110
 648	6.4376e+01	14.2023	83.986553	0.000375	3.750422	1.270677	-0.000150
 649	6.4476e+01	14.1766	83.917922	0.000172	1.723167	0.583825	-0.000069
 650	6.4576e+01	14.1285	83.784697	0.000334	3.344971	1.133307	-0.000134
 651	6.4675e+01	14.0739	83.659545	0.000314	3.142245	1.064621	-0.000126
 652	6.4775e+01	14.0483	83.554580	0.000264	2.635431	0.892908	-0.000105
 653	6.4874e+01	14.0162	83.437503	0.000294	2.939520	0.995936	-0.000118
 654	6.4974e+01	13.9697	83.336574	0.000253	2.534069	0.858566	-0.000101
 655	6.5073e+01	13.9312	83.195275	0.000355	3.547696	1.201992	-0.000142
 656	6.5172e+01	13.8911	83.098383	0.000243	2.432706	0.824223	-0.000097
 657	6.5272e+01	13.8381	83.001492	0.000243	2.432706	0.824223	-0.000097
 658	6.5371e+01	13.8092	82.880378	0.000304	3.040882	1.030279	-0.000122
 659	6.5471e+01	13.7739	82.767338	0.000284	2.838157	0.961594	-0.000114
 660	6.5570e+01	13.7306	82.630076	0.000345	3.446333	1.167649	-0.000138
 661	6.5670e+01	13.6857	82.504925	0.000314	3.142245	1.064621	-0.000126
 662	6.5769e+01	13.6488	82.403996	0.000253	2.534069	0.858566	-0.000101
 663	6.5869e+01	13.6135	82.270771	0.000334	3.344971	1.133307	-0.000134
 664	6.5969e+01	13.5734	82.198102	0.000182	1.824529	0.618167	-0.000073
 665	6.6068e+01	13.5253	82.052765	0.000365	3.649059	1.236335	-0.000146
 666	6.6168e+01	13.4916	81.967985	0.000213	2.128618	0.721195	-0.000085
 667	6.6267e+01	13.4579	81.794389	0.000436	4.358598	1.476733	-0.000174
 668	6.6367e+01	13.4098	81.697497	0.000243	2.432706	0.824223	-0.000097
 669	6.6466e+01	13.3713	81.600606	0.000243	2.432706	0.824223	-0.000097
 670	6.6566e+01	13.3312	81.471418	0.000324	3.243608	1.098964	-0.000130
 671	6.6665e+01	13.2943	81.354341	0.000294	2.939520	0.995936	-0.000118
 672	6.6764e+01	13.2558	81.229190	0.000314	3.142245	1.064621	-0.000126
 673	6.6864e+01	13.2189	81.071741	0.000395	3.953147	1.339363	-0.000158
 674	6.6963e+01	13.1756	80.978887	0.000233	2.331343	0.789880	-0.000093
 675	6.7063e+01	13.1435	80.821439	0.000395	3.953147	1.339363	-0.000158
 676	6.7162e+01	13.0873	80.700325	0.000304	3.040882	1.030279	-0.000122
 677	6.7262e+01	13.0601	80.583248	0.000294	2.939520	0.995936	-0.000118
 678	6.7362e+01	13.0135	80.478282	0.000264	2.635431	0.892908	-0.000105
 679	6.7461e+01	12.9734	80.381391	0.000243	2.432706	0.824223	-0.000097
 680	6.7561e+01	12.9430	80.240091	0.000355	3.547696	1.201992	-0.000142
 681	6.7660e+01	12.9061	80.094754	0.000365	3.649059	1.236335	-0.000146
 682	6.7760e+01	12.8531	80.001900	0.000233	2.331343	0.789880	-0.000093
 683	6.7859e+01	12.8098	79.860601	0.000355	3.547696	1.201992	-0.000142
 684	6.7959e+01	12.7857	79.731412	0.000324	3.243608	1.098964	-0.000130
 685	6.8058e+01	12.7376	79.586075	0.000365	3.649059	1.236335	-0.000146
 686	6.8157e+01	12.6943	79.456887	0.000324	3.243608	1.098964	-0.000130
 687	6.8257e+01	12.6526	79.384219	0.000182	1.824529	0.618167	-0.000073
 688	6.8356e+01	12.6221	79.238882	0.000365	3.649059	1.236335	-0.000146
 689	6.8456e+01	12.5756	79.077396	0.000405	4.054510	1.373705	-0.000162
 690	6.8555e+01	12.5451	79.024914	0.000132	1.317716	0.446454	-0.000053
 691	6.8655e+01	12.5018	78.863428	0.000405	4.054510	1.373705	-0.000162
 692	6.8754e+01	12.4601	78.758463	0.000264	2.635431	0.892908	-0.000105
 693	6.8854e+01	12.4200	78.633311	0.000314	3.142245	1.064621	-0.000126
 694	6.8954e+01	12.3831	78.479900	0.000385	3.851784	1.305020	-0.000154
 695	6.9053e+01	12.3382	78.366860	0.000284	2.838157	0.961594	-0.000114
 696	6.9153e+01	12.2980	78.229598	0.000345	3.446333	1.167649	-0.000138
 697	6.9252e+01	12.2563	78.092335	0.000345	3.446333	1.167649	-0.000138
 698	6.9352e+01	12.2114	77.999481	0.000233	2.331343	0.789880	-0.000093
 699	6.9451e+01	12.1809	77.854144	0.000365	3.649059	1.236335	-0.000146
 700	6.9550e+01	12.1376	77.720919	0.000334	3.344971	1.133307	-0.000134
 701	6.9650e+01	12.1039	77.591730	0.000324	3.243608	1.098964	-0.000130
 702	6.9749e+01	12.0574	77.446393	0.000365	3.649059	1.236335	-0.000146
 703	6.9849e+01	12.0237	77.321242	0.000314	3.142245	1.064621	-0.000126
 704	6.9948e+01	11.9788	77.200128	0.000304	3.040882	1.030279	-0.000122
 705	7.0048e+01	11.9435	77.074977	0.000314	3.142245	1.064621	-0.000126
 706	7.0147e+01	11.8906	76.901380	0.000436	4.358598	1.476733	-0.000174
 707	7.0247e+01	11.8665	76.820637	0.000203	2.027255	0.686853	-0.000081
 708	7.0347e+01	11.8200	76.647041	0.000436	4.358598	1.476733	-0.000174
 709	7.0446e+01	11.7687	76.525926	0.000304	3.040882	1.030279	-0.000122
 710	7.0546e+01	11.7430	76.400775	0.000314	3.142245	1.064621	-0.000126
 711	7.0645e+01	11.7093	76.251401	0.000375	3.750422	1.270677	-0.000150
 712	7.0745e+01	11.6676	76.110102	0.000355	3.547696	1.201992	-0.000142
 713	7.0844e+01	11.6307	75.972839	0.000345	3.446333	1.167649	-0.000138
 714	7.0944e+01	11.5761	75.875948	0.000243	2.432706	0.824223	-0.000097
 715	7.1043e+01	11.5441	75.706388	0.000426	4.257235	1.442390	-0.000170
 716	7.1142e+01	11.4943	75.557014	0.000375	3.750422	1.270677	-0.000150
 717	7.1242e+01	11.4655	75.427826	0.000324	3.243608	1.098964	-0.000130
 718	7.1341e+01	11.4221	75.294600	0.000334	3.344971	1.133307	-0.000134
 719	7.1441e+01	11.3884	75.173486	0.000304	3.040882	1.030279	-0.000122
 720	7.1540e+01	11.3355	74.999889	0.000436	4.358598	1.476733	-0.000174
 721	7.1640e+01	11.2986	74.878775	0.000304	3.040882	1.030279	-0.000122
 722	7.1740e+01	11.2665	74.701141	0.000446	4.459961	1.511076	-0.000179
 723	7.1839e+01	11.2264	74.580027	0.000304	3.040882	1.030279	-0.000122
 724	7.1939e+01	11.1911	74.442764	0.000345	3.446333	1.167649	-0.000138
 725	7.2038e+01	11.1414	74.313576	0.000324	3.243608	1.098964	-0.000130
 726	7.2138e+01	11.1029	74.188425	0.000314	3.142245	1.064621	-0.000126
 727	7.2237e+01	11.0612	74.030977	0.000395	3.953147	1.339363	-0.000158
 728	7.2337e+01	11.0195	73.873528	0.000395	3.953147	1.339363	-0.000158
 729	7.2436e+01	10.9697	73.708006	0.000416	4.155873	1.408048	-0.000166
 730	7.2535e+01	10.9457	73.590929	0.000294	2.939520	0.995936	-0.000118
 731	7.2635e+01	10.8959	73.425406	0.000416	4.155873	1.408048	-0.000166
 732	7.2734e+01	10.8671	73.292181	0.000334	3.344971	1.133307	-0.000134
 733	7.2834e+01	10.8318	73.110510	0.000456	4.561324	1.545418	-0.000183
 734	7.2933e+01	10.7901	73.021693	0.000223	2.229980	0.755538	-0.000089
 735	7.3033e+01	10.7435	72.811762	0.000527	5.270863	1.785817	-0.000211
 736	7.3132e+01	10.7066	72.743130	0.000172	1.723167	0.583825	-0.000069
 737	7.3232e+01	10.6649	72.541274	0.000507	5.068137	1.717131	-0.000203
 738	7.3332e+01	10.6280	72.379788	0.000405	4.054510	1.373705	-0.000162
 739	7.3431e+01	10.5831	72.242525	0.000345	3.446333	1.167649	-0.000138
 740	7.3531e+01	10.5366	72.097189	0.000365	3.649059	1.236335	-0.000146
 741	7.3630e+01	10.5125	71.935703	0.000405	4.054510	1.373705	-0.000162
 742	7.3730e+01	10.4644	71.806515	0.000324	3.243608	1.098964	-0.000130
 743	7.3829e+01	10.4195	71.665215	0.000355	3.547696	1.201992	-0.000142
 744	7.3928e+01	10.3922	71.491618	0.000436	4.358598	1.476733	-0.000174
 745	7.4028e+01	10.3441	71.330133	0.000405	4.054510	1.373705	-0.000162
 746	7.4127e+01	10.3088	71.213056	0.000294	2.939520	0.995936	-0.000118
 747	7.4227e+01	10.2719	71.059645	0.000385	3.851784	1.305020	-0.000154
 748	7.4326e+01	10.2286	70.886048	0.000436	4.358598	1.476733	-0.000174
 749	7.4426e+01	10.1837	70.740711	0.000365	3.649059	1.236335	-0.000146
 750	7.4525e+01	10.1500	70.583263	0.000395	3.953147	1.339363	-0.000158
 751	7.4625e+01	10.1035	70.441963	0.000355	3.547696	1.201992	-0.000142
 752	7.4725e+01	10.0585	70.272403	0.000426	4.257235	1.442390	-0.000170
 753	7.4824e+01	10.0281	70.127066	0.000365	3.649059	1.236335	-0.000146
 754	7.4924e+01	9.9928	69.917135	0.000527	5.270863	1.785817	-0.000211
 755	7.5023e+01	9.9462	69.775836	0.000355	3.547696	1.201992	-0.000142
 756	7.5123e+01	9.9093	69.650684	0.000314	3.142245	1.064621	-0.000126
 757	7.5222e+01	9.8724	69.473050	0.000446	4.459961	1.511076	-0.000179
 758	7.5322e+01	9.8275	69.307528	0.000416	4.155873	1.408048	-0.000166
 759	7.5421e+01	9.7842	69.170265	0.000345	3.446333	1.167649	-0.000138
 760	7.5520e+01	9.7425	69.037040	0.000334	3.344971	1.133307	-0.000134
 761	7.5620e+01	9.7120	68.843257	0.000487	4.865412	1.648446	-0.000195
 762	7.5719e+01	9.6623	68.705995	0.000345	3.446333	1.167649	-0.000138
 763	7.5819e+01	9.6254	68.540472	0.000416	4.155873	1.408048	-0.000166
 764	7.5918e+01	9.5901	68.395135	0.000365	3.649059	1.236335	-0.000146
 765	7.6018e+01	9.5484	68.181167	0.000537	5.372226	1.820159	-0.000215
 766	7.6118e+01	9.5099	68.072164	0.000274	2.736794	0.927251	-0.000110
 767	7.6217e+01	9.4666	67.930864	0.000355	3.547696	1.201992	-0.000142
 768	7.6317e+01	9.4265	67.757268	0.000436	4.358598	1.476733	-0.000174
 769	7.6416e+01	9.3992	67.563485	0.000487	4.865412	1.648446	-0.000195
 770	7.6516e+01	9.3414	67.406037	0.000395	3.953147	1.339363	-0.000158
 771	7.6615e+01	9.3062	67.252626	0.000385	3.851784	1.305020	-0.000154
 772	7.6715e+01	9.2725	67.103252	0.000375	3.750422	1.270677	-0.000150
 773	7.6814e+01	9.2324	66.909469	0.000487	4.865412	1.648446	-0.000195
 774	7.6913e+01	9.1939	66.756058	0.000385	3.851784	1.305020	-0.000154
 775	7.7013e+01	9.1473	66.598610	0.000395	3.953147	1.339363	-0.000158
 776	7.7112e+01	9.1056	66.433087	0.000416	4.155873	1.408048	-0.000166
 777	7.7212e+01	9.0703	66.279676	0.000385	3.851784	1.305020	-0.000154
 778	7.7311e+01	9.0254	66.110116	0.000426	4.257235	1.442390	-0.000170
 779	7.7411e+01	8.9853	65.904222	0.000517	5.169500	1.751474	-0.000207
 780	7.7510e+01	8.9532	65.762923	0.000355	3.547696	1.201992	-0.000142
 781	7.7610e+01	8.9131	65.601437	0.000405	4.054510	1.373705	-0.000162
 782	7.7710e+01	8.8682	65.403618	0.000497	4.966775	1.682789	-0.000199
 783	7.7809e+01	8.8265	65.262318	0.000355	3.547696	1.201992	-0.000142
 784	7.7909e+01	8.7880	65.072572	0.000476	4.764049	1.614104	-0.000191
 785	7.8008e+01	8.7527	64.951458	0.000304	3.040882	1.030279	-0.000122
 786	7.8108e+01	8.7142	64.745564	0.000517	5.169500	1.751474	-0.000207
 787	7.8207e+01	8.6709	64.543708	0.000507	5.068137	1.717131	-0.000203
 788	7.8306e+01	8.6356	64.402408	0.000355	3.547696	1.201992	-0.000142
 789	7.8406e+01	8.5923	64.204588	0.000497	4.966775	1.682789	-0.000199
 790	7.8505e+01	8.5441	64.043103	0.000405	4.054510	1.373705	-0.000162
 791	7.8605e+01	8.5153	63.889692	0.000385	3.851784	1.305020	-0.000154
 792	7.8704e+01	8.4671	63.732243	0.000395	3.953147	1.339363	-0.000158
 793	7.8804e+01	8.4367	63.546535	0.000466	4.662686	1.579761	-0.000187
 794	7.8903e+01	8.3853	63.344678	0.000507	5.068137	1.717131	-0.000203
 795	7.9003e+01	8.3484	63.203379	0.000355	3.547696	1.201992	-0.000142
 796	7.9103e+01	8.3131	63.029782	0.000436	4.358598	1.476733	-0.000174
 797	7.9202e+01	8.2698	62.844073	0.000466	4.662686	1.579761	-0.000187
 798	7.9302e+01	8.2281	62.698737	0.000365	3.649059	1.236335	-0.000146
 799	7.9401e+01	8.1960	62.521103	0.000446	4.459961	1.511076	-0.000179
 800	7.9501e+01	8.1543	62.351543	0.000426	4.257235	1.442390	-0.000170
 801	7.9600e+01	8.1190	62.181983	0.000426	4.257235	1.442390	-0.000170
 802	7.9700e+01	8.0757	62.000312	0.000456	4.561324	1.545418	-0.000183
 803	7.9799e+01	8.0372	61.846901	0.000385	3.851784	1.305020	-0.000154
 804	7.9898e+01	7.9939	61.665230	0.000456	4.561324	1.545418	-0.000183
 805	7.9998e+01	7.9618	61.475484	0.000476	4.764049	1.614104	-0.000191
 806	8.0097e+01	7.9217	61.313999	0.000405	4.054510	1.373705	-0.000162
 807	8.0197e+01	7.8800	61.156551	0.000395	3.953147	1.339363	-0.000158
 808	8.0296e+01	7.8222	60.942583	0.000537	5.372226	1.820159	-0.000215
 809	8.0396e+01	7.7998	60.789171	0.000385	3.851784	1.305020	-0.000154
 810	8.0496e+01	7.7533	60.639797	0.000375	3.750422	1.270677	-0.000150
 811	8.0595e+01	7.7051	60.474275	0.000416	4.155873	1.408048	-0.000166
 812	8.0695e+01	7.6779	60.260307	0.000537	5.372226	1.820159	-0.000215
 813	8.0794e+01	7.6329	60.119007	0.000355	3.547696	1.201992	-0.000142
 814	8.0894e+01	7.5960	59.945410	0.000436	4.358598	1.476733	-0.000174
 815	8.0993e+01	7.5511	59.759702	0.000466	4.662686	1.579761	-0.000187
 816	8.1093e+01	7.5158	59.582068	0.000446	4.459961	1.511076	-0.000179
 817	8.1192e+01	7.4725	59.400397	0.000456	4.561324	1.545418	-0.000183
 818	8.1291e+01	7.4324	59.230837	0.000426	4.257235	1.442390	-0.000170
 819	8.1391e+01	7.3955	59.065314	0.000416	4.155873	1.408048	-0.000166
 820	8.1490e+01	7.3618	58.883643	0.000456	4.561324	1.545418	-0.000183
 821	8.1590e+01	7.3089	58.706009	0.000446	4.459961	1.511076	-0.000179
 822	8.1689e+01	7.2784	58.500115	0.000517	5.169500	1.751474	-0.000207
 823	8.1789e+01	7.2271	58.326519	0.000436	4.358598	1.476733	-0.000174
 824	8.1888e+01	7.1934	58.177145	0.000375	3.750422	1.270677	-0.000150
 825	8.1988e+01	7.1581	57.991436	0.000466	4.662686	1.579761	-0.000187
 826	8.2088e+01	7.1212	57.793617	0.000497	4.966775	1.682789	-0.000199
 827	8.2187e+01	7.0747	57.628094	0.000416	4.155873	1.408048	-0.000166
 828	8.2287e+01	7.0426	57.446423	0.000456	4.561324	1.545418	-0.000183
 829	8.2386e+01	6.9880	57.288975	0.000395	3.953147	1.339363	-0.000158
 830	8.2486e+01	6.9656	57.107304	0.000456	4.561324	1.545418	-0.000183
 831	8.2585e+01	6.9207	56.897373	0.000527	5.270863	1.785817	-0.000211
 832	8.2684e+01	6.8902	56.780296	0.000294	2.939520	0.995936	-0.000118
 833	8.2784e+01	6.8404	56.546142	0.000588	5.879039	1.991872	-0.000235
 834	8.2883e+01	6.8019	56.352359	0.000487	4.865412	1.648446	-0.000195
 835	8.2983e+01	6.7667	56.162614	0.000476	4.764049	1.614104	-0.000191
 836	8.3082e+01	6.7105	56.005166	0.000395	3.953147	1.339363	-0.000158
 837	8.3182e+01	6.6720	55.863866	0.000355	3.547696	1.201992	-0.000142
 838	8.3281e+01	6.6335	55.641823	0.000557	5.574951	1.888845	-0.000223
 839	8.3381e+01	6.6094	55.508598	0.000334	3.344971	1.133307	-0.000134
 840	8.3481e+01	6.5501	55.258295	0.000628	6.284490	2.129243	-0.000252
 841	8.3580e+01	6.5164	55.080661	0.000446	4.459961	1.511076	-0.000179
 842	8.3680e+01	6.4795	54.907065	0.000436	4.358598	1.476733	-0.000174
 843	8.3779e+01	6.4314	54.741542	0.000416	4.155873	1.408048	-0.000166
 844	8.3879e+01	6.4041	54.567945	0.000436	4.358598	1.476733	-0.000174
 845	8.3978e+01	6.3720	54.370126	0.000497	4.966775	1.682789	-0.000199
 846	8.4078e+01	6.3223	54.200566	0.000426	4.257235	1.442390	-0.000170
 847	8.4177e+01	6.2918	54.002746	0.000497	4.966775	1.682789	-0.000199
 848	8.4276e+01	6.2405	53.861446	0.000355	3.547696	1.201992	-0.000142
 849	8.4376e+01	6.2052	53.623255	0.000598	5.980402	2.026215	-0.000239
 850	8.4475e+01	6.1683	53.445621	0.000446	4.459961	1.511076	-0.000179
 851	8.4575e+01	6.1330	53.255876	0.000476	4.764049	1.614104	-0.000191
 852	8.4674e+01	6.0897	53.078242	0.000446	4.459961	1.511076	-0.000179
 853	8.4774e+01	6.0464	52.876385	0.000507	5.068137	1.717131	-0.000203
 854	8.4874e+01	6.0062	52.698751	0.000446	4.459961	1.511076	-0.000179
 855	8.4973e+01	5.9645	52.529192	0.000426	4.257235	1.442390	-0.000170
 856	8.5073e+01	5.9228	52.371743	0.000395	3.953147	1.339363	-0.000158
 857	8.5172e+01	5.8875	52.129515	0.000608	6.081765	2.060558	-0.000243
 858	8.5272e+01	5.8394	51.972067	0.000395	3.953147	1.339363	-0.000158
 859	8.5371e+01	5.8057	51.778284	0.000487	4.865412	1.648446	-0.000195
 860	8.5471e+01	5.7608	51.564316	0.000537	5.372226	1.820159	-0.000215
 861	8.5570e+01	5.7271	51.406868	0.000395	3.953147	1.339363	-0.000158
 862	8.5669e+01	5.6806	51.233271	0.000436	4.358598	1.476733	-0.000174
 863	8.5769e+01	5.6373	51.047563	0.000466	4.662686	1.579761	-0.000187
 864	8.5868e+01	5.5908	50.833595	0.000537	5.372226	1.820159	-0.000215
 865	8.5968e+01	5.5619	50.672109	0.000405	4.054510	1.373705	-0.000162
 866	8.6067e+01	5.5298	50.446030	0.000568	5.676314	1.923187	-0.000227
 867	8.6167e+01	5.4913	50.272433	0.000436	4.358598	1.476733	-0.000174
 868	8.6266e+01	5.4432	50.106910	0.000416	4.155873	1.408048	-0.000166
 869	8.6366e+01	5.4063	49.929276	0.000446	4.459961	1.511076	-0.000179
 870	8.6466e+01	5.3694	49.699160	0.000578	5.777677	1.957530	-0.000231
 871	8.6565e+01	5.3180	49.505377	0.000487	4.865412	1.648446	-0.000195
 872	8.6665e+01	5.2827	49.319669	0.000466	4.662686	1.579761	-0.000187
 873	8.6764e+01	5.2555	49.154146	0.000416	4.155873	1.408048	-0.000166
 874	8.6864e+01	5.1993	48.924029	0.000578	5.777677	1.957530	-0.000231
 875	8.6963e+01	5.1576	48.746395	0.000446	4.459961	1.511076	-0.000179
 876	8.7063e+01	5.1335	48.560687	0.000466	4.662686	1.579761	-0.000187
 877	8.7162e+01	5.0822	48.383053	0.000446	4.459961	1.511076	-0.000179
 878	8.7261e+01	5.0469	48.177159	0.000517	5.169500	1.751474	-0.000207
 879	8.7361e+01	5.0116	47.967228	0.000527	5.270863	1.785817	-0.000211
 880	8.7460e+01	4.9683	47.781520	0.000466	4.662686	1.579761	-0.000187
 881	8.7560e+01	4.9282	47.563515	0.000547	5.473588	1.854502	-0.000219
 882	8.7659e+01	4.8881	47.406066	0.000395	3.953147	1.339363	-0.000158
 883	8.7759e+01	4.8480	47.192098	0.000537	5.372226	1.820159	-0.000215
 884	8.7859e+01	4.8031	46.974093	0.000547	5.473588	1.854502	-0.000219
 885	8.7958e+01	4.7614	46.780310	0.000487	4.865412	1.648446	-0.000195
 886	8.8058e+01	4.7261	46.570379	0.000527	5.270863	1.785817	-0.000211
 887	8.8157e+01	4.6844	46.416968	0.000385	3.851784	1.305020	-0.000154
 888	8.8257e+01	4.6523	46.174740	0.000608	6.081765	2.060558	-0.000243
 889	8.8356e+01	4.6058	45.972883	0.000507	5.068137	1.717131	-0.000203
 890	8.8456e+01	4.5785	45.803324	0.000426	4.257235	1.442390	-0.000170
 891	8.8555e+01	4.5255	45.557058	0.000618	6.183128	2.094900	-0.000248
 892	8.8654e+01	4.4838	45.375387	0.000456	4.561324	1.545418	-0.000183
 893	8.8754e+01	4.4534	45.165456	0.000527	5.270863	1.785817	-0.000211
 894	8.8853e+01	4.4068	44.959562	0.000517	5.169500	1.751474	-0.000207
 895	8.8953e+01	4.3747	44.781928	0.000446	4.459961	1.511076	-0.000179
 896	8.9052e+01	4.3250	44.555849	0.000568	5.676314	1.923187	-0.000227
 897	8.9152e+01	4.2849	44.370140	0.000466	4.662686	1.579761	-0.000187
 898	8.9251e+01	4.2496	44.156172	0.000537	5.372226	1.820159	-0.000215
 899	8.9351e+01	4.2095	43.950278	0.000517	5.169500	1.751474	-0.000207
 900	8.9451e+01	4.1742	43.776681	0.000436	4.358598	1.476733	-0.000174
 901	8.9550e+01	4.1389	43.514268	0.000659	6.588579	2.232271	-0.000264
 902	8.9650e+01	4.0780	43.320485	0.000487	4.865412	1.648446	-0.000195
 903	8.9749e+01	4.0507	43.126703	0.000487	4.865412	1.648446	-0.000195
 904	8.9849e+01	4.0074	42.880437	0.000618	6.183128	2.094900	-0.000248
 905	8.9948e+01	3.9689	42.674543	0.000517	5.169500	1.751474	-0.000207
 906	9.0047e+01	3.9320	42.488835	0.000466	4.662686	1.579761	-0.000187
 907	9.0147e+01	3.8822	42.278904	0.000527	5.270863	1.785817	-0.000211
 908	9.0246e+01	3.8486	42.085122	0.000487	4.865412	1.648446	-0.000195
 909	9.0346e+01	3.8084	41.875190	0.000527	5.270863	1.785817	-0.000211
 910	9.0445e+01	3.7667	41.649111	0.000568	5.676314	1.923187	-0.000227
 911	9.0545e+01	3.7282	41.423031	0.000568	5.676314	1.923187	-0.000227
 912	9.0644e+01	3.6817	41.225212	0.000497	4.966775	1.682789	-0.000199
 913	9.0744e+01	3.6464	41.043540	0.000456	4.561324	1.545418	-0.000183
 914	9.0844e+01	3.6063	40.849758	0.000487	4.865412	1.648446	-0.000195
 915	9.0943e+01	3.5598	40.559084	0.000730	7.298118	2.472669	-0.000292
 916	9.1043e+01	3.5245	40.393562	0.000416	4.155873	1.408048	-0.000166
 917	9.1142e+01	3.4908	40.163445	0.000578	5.777677	1.957530	-0.000231
 918	9.1242e+01	3.4475	39.981774	0.000456	4.561324	1.545418	-0.000183
 919	9.1341e+01	3.4186	39.751657	0.000578	5.777677	1.957530	-0.000231
 920	9.1441e+01	3.3689	39.537689	0.000537	5.372226	1.820159	-0.000215
 921	9.1540e+01	3.3320	39.307572	0.000578	5.777677	1.957530	-0.000231
 922	9.1639e+01	3.2887	39.113790	0.000487	4.865412	1.648446	-0.000195
 923	9.1739e+01	3.2598	38.887710	0.000568	5.676314	1.923187	-0.000227
 924	9.1838e+01	3.2133	38.673742	0.000537	5.372226	1.820159	-0.000215
 925	9.1938e+01	3.1684	38.459774	0.000537	5.372226	1.820159	-0.000215
 926	9.2037e+01	3.1315	38.257917	0.000507	5.068137	1.717131	-0.000203
 927	9.2137e+01	3.0898	38.019726	0.000598	5.980402	2.026215	-0.000239
 928	9.2237e+01	3.0513	37.797683	0.000557	5.574951	1.888845	-0.000223
 929	9.2336e+01	3.0176	37.611975	0.000466	4.662686	1.579761	-0.000187
 930	9.2436e+01	2.9742	37.385896	0.000568	5.676314	1.923187	-0.000227
 931	9.2535e+01	2.9406	37.155779	0.000578	5.777677	1.957530	-0.000231
 932	9.2635e+01	2.9037	36.953922	0.000507	5.068137	1.717131	-0.000203
 933	9.2734e+01	2.8507	36.731880	0.000557	5.574951	1.888845	-0.000223
 934	9.2834e+01	2.8122	36.513874	0.000547	5.473588	1.854502	-0.000219
 935	9.2933e+01	2.7737	36.291832	0.000557	5.574951	1.888845	-0.000223
 936	9.3032e+01	2.7272	36.061715	0.000578	5.777677	1.957530	-0.000231
 937	9.3132e+01	2.6967	35.859858	0.000507	5.068137	1.717131	-0.000203
 938	9.3231e+01	2.6502	35.601482	0.000649	6.487216	2.197928	-0.000260
 939	9.3331e+01	2.6085	35.407699	0.000487	4.865412	1.648446	-0.000195
 940	9.3430e+01	2.5780	35.213916	0.000487	4.865412	1.648446	-0.000195
 941	9.3530e+01	2.5331	34.943428	0.000679	6.791304	2.300956	-0.000272
 942	9.3629e+01	2.4994	34.725423	0.000547	5.473588	1.854502	-0.000219
 943	9.3729e+01	2.4513	34.527603	0.000497	4.966775	1.682789	-0.000199
 944	9.3829e+01	2.4112	34.281338	0.000618	6.183128	2.094900	-0.000248
 945	9.3928e+01	2.3662	34.039110	0.000608	6.081765	2.060558	-0.000243
 946	9.4028e+01	2.3326	33.796882	0.000608	6.081765	2.060558	-0.000243
 947	9.4127e+01	2.3021	33.586951	0.000527	5.270863	1.785817	-0.000211
 948	9.4227e+01	2.2652	33.389131	0.000497	4.966775	1.682789	-0.000199
 949	9.4326e+01	2.2090	33.179200	0.000527	5.270863	1.785817	-0.000211
 950	9.4425e+01	2.1802	32.924861	0.000639	6.385853	2.163586	-0.000256
 951	9.4525e+01	2.1368	32.674558	0.000628	6.284490	2.129243	-0.000252
 952	9.4624e+01	2.0983	32.476738	0.000497	4.966775	1.682789	-0.000199
 953	9.4724e+01	2.0550	32.274882	0.000507	5.068137	1.717131	-0.000203
 954	9.4823e+01	2.0229	32.036691	0.000598	5.980402	2.026215	-0.000239
 955	9.4923e+01	1.9652	31.818685	0.000547	5.473588	1.854502	-0.000219
 956	9.5022e+01	1.9363	31.556271	0.000659	6.588579	2.232271	-0.000264
 957	9.5122e+01	1.9058	31.342303	0.000537	5.372226	1.820159	-0.000215
 958	9.5222e+01	1.8497	31.096038	0.000618	6.183128	2.094900	-0.000248
 959	9.5321e+01	1.8224	30.878033	0.000547	5.473588	1.854502	-0.000219
 960	9.5421e+01	1.7791	30.627730	0.000628	6.284490	2.129243	-0.000252
 961	9.5520e+01	1.7438	30.421836	0.000517	5.169500	1.751474	-0.000207
 962	9.5620e+01	1.7005	30.187682	0.000588	5.879039	1.991872	-0.000235
 963	9.5719e+01	1.6604	29.981789	0.000517	5.169500	1.751474	-0.000207
 964	9.5819e+01	1.6235	29.739560	0.000608	6.081765	2.060558	-0.000243
 965	9.5918e+01	1.5786	29.525592	0.000537	5.372226	1.820159	-0.000215
 966	9.6017e+01	1.5433	29.291438	0.000588	5.879039	1.991872	-0.000235
 967	9.6117e+01	1.4967	29.061322	0.000578	5.777677	1.957530	-0.000231
 968	9.6216e+01	1.4518	28.819093	0.000608	6.081765	2.060558	-0.000243
 969	9.6316e+01	1.4197	28.576865	0.000608	6.081765	2.060558	-0.000243
 970	9.6415e+01	1.3732	28.346749	0.000578	5.777677	1.957530	-0.000231
 971	9.6515e+01	1.3315	28.124706	0.000557	5.574951	1.888845	-0.000223
 972	9.6615e+01	1.3026	27.926886	0.000497	4.966775	1.682789	-0.000199
 973	9.6714e+01	1.2641	27.660436	0.000669	6.689941	2.266613	-0.000268
 974	9.6814e+01	1.2176	27.454542	0.000517	5.169500	1.751474	-0.000207
 975	9.6913e+01	1.1807	27.151756	0.000760	7.602206	2.575697	-0.000304
 976	9.7013e+01	1.1390	26.990271	0.000405	4.054510	1.373705	-0.000162
 977	9.7112e+01	1.0909	26.735931	0.000639	6.385853	2.163586	-0.000256
 978	9.7212e+01	1.0620	26.509852	0.000568	5.676314	1.923187	-0.000227
 979	9.7311e+01	1.0235	26.271661	0.000598	5.980402	2.026215	-0.000239
 980	9.7410e+01	0.9754	26.057693	0.000537	5.372226	1.820159	-0.000215
 981	9.7510e+01	0.9497	25.795279	0.000659	6.588579	2.232271	-0.000264
 982	9.7609e+01	0.9080	25.593422	0.000507	5.068137	1.717131	-0.000203
 983	9.7709e+01	0.8695	25.359268	0.000588	5.879039	1.991872	-0.000235
 984	9.7808e+01	0.8278	25.092817	0.000669	6.689941	2.266613	-0.000268
 985	9.7908e+01	0.7732	24.854626	0.000598	5.980402	2.026215	-0.000239
 986	9.8007e+01	0.7428	24.636621	0.000547	5.473588	1.854502	-0.000219
 987	9.8107e+01	0.7075	24.422653	0.000537	5.372226	1.820159	-0.000215
 988	9.8207e+01	0.6513	24.148127	0.000689	6.892667	2.335299	-0.000276
 989	9.8306e+01	0.6176	23.877639	0.000679	6.791304	2.300956	-0.000272
 990	9.8406e+01	0.5807	23.716154	0.000405	4.054510	1.373705	-0.000162
 991	9.8505e+01	0.5390	23.457777	0.000649	6.487216	2.197928	-0.000260
 992	9.8605e+01	0.5069	23.247846	0.000527	5.270863	1.785817	-0.000211
 993	9.8704e+01	0.4540	22.997544	0.000628	6.284490	2.129243	-0.000252
 994	9.8803e+01	0.4267	22.763390	0.000588	5.879039	1.991872	-0.000235
 995	9.8903e+01	0.3818	22.521162	0.000608	6.081765	2.060558	-0.000243
 996	9.9002e+01	0.3417	22.295082	0.000568	5.676314	1.923187	-0.000227
 997	9.9102e+01	0.3000	22.000371	0.000740	7.399481	2.507012	-0.000296
 998	9.9201e+01	0.2615	21.818700	0.000456	4.561324	1.545418	-0.000183
 999	9.9301e+01	0.2198	21.568398	0.000628	6.284490	2.129243	-0.000252
1000	9.9400e+01	0.1877	21.318095	0.000628	6.284490	2.129243	-0.000252
1001	9.9500e+01	0.1460	21.108164	0.000527	5.270863	1.785817	-0.000211
1002	9.9600e+01	0.0946	20.857862	0.000628	6.284490	2.129243	-0.000252
1003	9.9699e+01	0.0658	20.595448	0.000659	6.588579	2.232271	-0.000264
1004	9.9799e+01	0.0225	20.365331	0.000578	5.777677	1.957530	-0.000231
1005	9.9898e+01	-0.0064	20.159437	0.000517	5.169500	1.751474	-0.000207
1006	9.9998e+01	-0.0449	19.905098	0.000639	6.385853	2.163586	-0.000256
1007	1.0010e+02	-0.0882	19.642684	0.000659	6.588579	2.232271	-0.000264
1008	1.0020e+02	-0.1283	19.440827	0.000507	5.068137	1.717131	-0.000203
1009	1.0030e+02	-0.1652	19.206673	0.000588	5.879039	1.991872	-0.000235
1010	1.0040e+02	-0.2021	18.960408	0.000618	6.183128	2.094900	-0.000248
1011	1.0050e+02	-0.2535	18.665697	0.000740	7.399481	2.507012	-0.000296
1012	1.0059e+02	-0.2984	18.451729	0.000537	5.372226	1.820159	-0.000215
1013	1.0069e+02	-0.3337	18.209501	0.000608	6.081765	2.060558	-0.000243
1014	1.0079e+02	-0.3658	17.975347	0.000588	5.879039	1.991872	-0.000235
1015	1.0089e+02	-0.4043	17.729082	0.000618	6.183128	2.094900	-0.000248
1016	1.0099e+02	-0.4492	17.503002	0.000568	5.676314	1.923187	-0.000227
1017	1.0109e+02	-0.4813	17.248662	0.000639	6.385853	2.163586	-0.000256
1018	1.0119e+02	-0.5294	17.014509	0.000588	5.879039	1.991872	-0.000235
1019	1.0129e+02	-0.5631	16.772280	0.000608	6.081765	2.060558	-0.000243
1020	1.0139e+02	-0.6160	16.505829	0.000669	6.689941	2.266613	-0.000268
1021	1.0149e+02	-0.6529	16.267638	0.000598	5.980402	2.026215	-0.000239
1022	1.0159e+02	-0.6898	16.073856	0.000487	4.865412	1.648446	-0.000195
1023	1.0169e+02	-0.7251	15.791256	0.000710	7.095392	2.403984	-0.000284
1024	1.0179e+02	-0.7684	15.532880	0.000649	6.487216	2.197928	-0.000260
1025	1.0189e+02	-0.8069	15.306800	0.000568	5.676314	1.923187	-0.000227
1026	1.0199e+02	-0.8486	15.032275	0.000689	6.892667	2.335299	-0.000276
1027	1.0209e+02	-0.8807	14.814270	0.000547	5.473588	1.854502	-0.000219
1028	1.0219e+02	-0.9112	14.515522	0.000750	7.500843	2.541355	-0.000300
1029	1.0229e+02	-0.9674	14.325776	0.000476	4.764049	1.614104	-0.000191
1030	1.0239e+02	-0.9994	14.103734	0.000557	5.574951	1.888845	-0.000223
1031	1.0248e+02	-1.0524	13.784800	0.000801	8.007657	2.713068	-0.000321
1032	1.0258e+02	-1.0877	13.550646	0.000588	5.879039	1.991872	-0.000235
1033	1.0268e+02	-1.1101	13.340715	0.000527	5.270863	1.785817	-0.000211
1034	1.0278e+02	-1.1615	13.074264	0.000669	6.689941	2.266613	-0.000268
1035	1.0288e+02	-1.2000	12.848184	0.000568	5.676314	1.923187	-0.000227
1036	1.0298e+02	-1.2417	12.605956	0.000608	6.081765	2.060558	-0.000243
1037	1.0308e+02	-1.2914	12.371802	0.000588	5.879039	1.991872	-0.000235
1038	1.0318e+02	-1.3235	12.077092	0.000740	7.399481	2.507012	-0.000296
1039	1.0328e+02	-1.3572	11.814678	0.000659	6.588579	2.232271	-0.000264
1040	1.0338e+02	-1.3925	11.536115	0.000699	6.994030	2.369641	-0.000280
1041	1.0348e+02	-1.4454	11.338296	0.000497	4.966775	1.682789	-0.000199
1042	1.0358e+02	-1.4807	11.023399	0.000791	7.906294	2.678725	-0.000316
1043	1.0368e+02	-1.5224	10.833654	0.000476	4.764049	1.614104	-0.000191
1044	1.0378e+02	-1.5625	10.555091	0.000699	6.994030	2.369641	-0.000280
1045	1.0388e+02	-1.6090	10.320938	0.000588	5.879039	1.991872	-0.000235
1046	1.0398e+02	-1.6508	10.074672	0.000618	6.183128	2.094900	-0.000248
1047	1.0408e+02	-1.6812	9.820333	0.000639	6.385853	2.163586	-0.000256
1048	1.0418e+02	-1.7165	9.553882	0.000669	6.689941	2.266613	-0.000268
1049	1.0428e+02	-1.7631	9.311654	0.000608	6.081765	2.060558	-0.000243
1050	1.0438e+02	-1.8144	9.049240	0.000659	6.588579	2.232271	-0.000264
1051	1.0447e+02	-1.8417	8.815086	0.000588	5.879039	1.991872	-0.000235
1052	1.0457e+02	-1.8786	8.556709	0.000649	6.487216	2.197928	-0.000260
1053	1.0467e+02	-1.9235	8.274110	0.000710	7.095392	2.403984	-0.000284
1054	1.0477e+02	-1.9620	8.056104	0.000547	5.473588	1.854502	-0.000219
1055	1.0487e+02	-2.0053	7.785616	0.000679	6.791304	2.300956	-0.000272
1056	1.0497e+02	-2.0326	7.551462	0.000588	5.879039	1.991872	-0.000235
1057	1.0507e+02	-2.0775	7.272900	0.000699	6.994030	2.369641	-0.000280
1058	1.0517e+02	-2.1224	6.994338	0.000699	6.994030	2.369641	-0.000280
1059	1.0527e+02	-2.1561	6.735961	0.000649	6.487216	2.197928	-0.000260
1060	1.0537e+02	-2.2026	6.457399	0.000699	6.994030	2.369641	-0.000280
1061	1.0547e+02	-2.2411	6.211133	0.000618	6.183128	2.094900	-0.000248
1062	1.0557e+02	-2.2780	5.952757	0.000649	6.487216	2.197928	-0.000260
1063	1.0567e+02	-2.3197	5.763011	0.000476	4.764049	1.614104	-0.000191
1064	1.0577e+02	-2.3630	5.440040	0.000811	8.109020	2.747410	-0.000325
1065	1.0587e+02	-2.4128	5.181664	0.000649	6.487216	2.197928	-0.000260
1066	1.0597e+02	-2.4384	4.927324	0.000639	6.385853	2.163586	-0.000256
1067	1.0607e+02	-2.4705	4.664910	0.000659	6.588579	2.232271	-0.000264
1068	1.0617e+02	-2.5154	4.430756	0.000588	5.879039	1.991872	-0.000235
1069	1.0627e+02	-2.5539	4.168343	0.000659	6.588579	2.232271	-0.000264
1070	1.0637e+02	-2.6117	3.885743	0.000710	7.095392	2.403984	-0.000284
1071	1.0647e+02	-2.6470	3.647552	0.000598	5.980402	2.026215	-0.000239
1072	1.0656e+02	-2.6807	3.344767	0.000760	7.602206	2.575697	-0.000304
1073	1.0666e+02	-2.7176	3.074279	0.000679	6.791304	2.300956	-0.000272
1074	1.0676e+02	-2.7561	2.852236	0.000557	5.574951	1.888845	-0.000223
1075	1.0686e+02	-2.7946	2.634231	0.000547	5.473588	1.854502	-0.000219
1076	1.0696e+02	-2.8427	2.331446	0.000760	7.602206	2.575697	-0.000304
1077	1.0706e+02	-2.8780	2.069032	0.000659	6.588579	2.232271	-0.000264
1078	1.0716e+02	-2.9245	1.802581	0.000669	6.689941	2.266613	-0.000268
1079	1.0726e+02	-2.9582	1.556316	0.000618	6.183128	2.094900	-0.000248
1080	1.0736e+02	-2.9935	1.261605	0.000740	7.399481	2.507012	-0.000296
1081	1.0746e+02	-3.0416	1.051674	0.000527	5.270863	1.785817	-0.000211
1082	1.0756e+02	-3.0737	0.761000	0.000730	7.298118	2.472669	-0.000292
1083	1.0766e+02	-3.1170	0.494549	0.000669	6.689941	2.266613	-0.000268
1084	1.0776e+02	-3.1555	0.232135	0.000659	6.588579	2.232271	-0.000264
1085	1.0786e+02	-3.2004	0.018167	0.000537	5.372226	1.820159	-0.000215
1086	1.0796e+02	-3.2357	-0.260395	0.000699	6.994030	2.369641	-0.000280
1087	1.0806e+02	-3.2774	-0.538958	0.000699	6.994030	2.369641	-0.000280
1088	1.0816e+02	-3.3159	-0.825594	0.000720	7.196755	2.438327	-0.000288
1089	1.0826e+02	-3.3577	-1.043600	0.000547	5.473588	1.854502	-0.000219
1090	1.0836e+02	-3.3930	-1.289865	0.000618	6.183128	2.094900	-0.000248
1091	1.0845e+02	-3.4395	-1.552279	0.000659	6.588579	2.232271	-0.000264
1092	1.0855e+02	-3.4732	-1.806618	0.000639	6.385853	2.163586	-0.000256
1093	1.0865e+02	-3.5149	-2.089218	0.000710	7.095392	2.403984	-0.000284
1094	1.0875e+02	-3.5502	-2.331446	0.000608	6.081765	2.060558	-0.000243
1095	1.0885e+02	-3.6031	-2.573674	0.000608	6.081765	2.060558	-0.000243
1096	1.0895e+02	-3.6352	-2.876459	0.000760	7.602206	2.575697	-0.000304
1097	1.0905e+02	-3.6785	-3.130799	0.000639	6.385853	2.163586	-0.000256
1098	1.0915e+02	-3.7106	-3.373027	0.000608	6.081765	2.060558	-0.000243
1099	1.0925e+02	-3.7491	-3.619292	0.000618	6.183128	2.094900	-0.000248
1100	1.0935e+02	-3.7972	-3.909966	0.000730	7.298118	2.472669	-0.000292
1101	1.0945e+02	-3.8373	-4.176417	0.000669	6.689941	2.266613	-0.000268
1102	1.0955e+02	-3.8758	-4.418645	0.000608	6.081765	2.060558	-0.000243
1103	1.0965e+02	-3.9191	-4.689133	0.000679	6.791304	2.300956	-0.000272
1104	1.0975e+02	-3.9625	-4.935398	0.000618	6.183128	2.094900	-0.000248
1105	1.0985e+02	-3.9881	-5.205887	0.000679	6.791304	2.300956	-0.000272
1106	1.0995e+02	-4.0346	-5.444078	0.000598	5.980402	2.026215	-0.000239
1107	1.1005e+02	-4.0715	-5.722640	0.000699	6.994030	2.369641	-0.000280
1108	1.1015e+02	-4.1116	-5.985054	0.000659	6.588579	2.232271	-0.000264
1109	1.1025e+02	-4.1534	-6.231319	0.000618	6.183128	2.094900	-0.000248
1110	1.1035e+02	-4.1919	-6.509881	0.000699	6.994030	2.369641	-0.000280
1111	1.1044e+02	-4.2320	-6.752110	0.000608	6.081765	2.060558	-0.000243
1112	1.1054e+02	-4.2769	-6.994338	0.000608	6.081765	2.060558	-0.000243
1113	1.1064e+02	-4.3106	-7.268863	0.000689	6.892667	2.335299	-0.000276
1114	1.1074e+02	-4.3443	-7.527240	0.000649	6.487216	2.197928	-0.000260
1115	1.1084e+02	-4.3940	-7.801765	0.000689	6.892667	2.335299	-0.000276
1116	1.1094e+02	-4.4325	-8.039956	0.000598	5.980402	2.026215	-0.000239
1117	1.1104e+02	-4.4710	-8.306407	0.000669	6.689941	2.266613	-0.000268
1118	1.1114e+02	-4.5175	-8.564783	0.000649	6.487216	2.197928	-0.000260
1119	1.1124e+02	-4.5560	-8.855457	0.000730	7.298118	2.472669	-0.000292
1120	1.1134e+02	-4.5897	-9.085574	0.000578	5.777677	1.957530	-0.000231
1121	1.1144e+02	-4.6298	-9.343951	0.000649	6.487216	2.197928	-0.000260
1122	1.1154e+02	-4.6667	-9.582142	0.000598	5.980402	2.026215	-0.000239
1123	1.1164e+02	-4.7084	-9.876853	0.000740	7.399481	2.507012	-0.000296
1124	1.1174e+02	-4.7469	-10.094858	0.000547	5.473588	1.854502	-0.000219
1125	1.1184e+02	-4.7934	-10.369383	0.000689	6.892667	2.335299	-0.000276
1126	1.1194e+02	-4.8319	-10.607574	0.000598	5.980402	2.026215	-0.000239
1127	1.1204e+02	-4.8705	-10.845765	0.000598	5.980402	2.026215	-0.000239
1128	1.1214e+02	-4.9073	-11.087993	0.000608	6.081765	2.060558	-0.000243
1129	1.1224e+02	-4.9507	-11.410964	0.000811	8.109020	2.747410	-0.000325
1130	1.1234e+02	-4.9924	-11.649155	0.000598	5.980402	2.026215	-0.000239
1131	1.1244e+02	-5.0261	-11.867161	0.000547	5.473588	1.854502	-0.000219
1132	1.1253e+02	-5.0742	-12.137649	0.000679	6.791304	2.300956	-0.000272
1133	1.1263e+02	-5.0999	-12.379877	0.000608	6.081765	2.060558	-0.000243
1134	1.1273e+02	-5.1496	-12.634216	0.000639	6.385853	2.163586	-0.000256
1135	1.1283e+02	-5.1977	-12.884519	0.000628	6.284490	2.129243	-0.000252
1136	1.1293e+02	-5.2378	-13.098487	0.000537	5.372226	1.820159	-0.000215
1137	1.1303e+02	-5.2731	-13.401272	0.000760	7.602206	2.575697	-0.000304
1138	1.1313e+02	-5.3116	-13.635426	0.000588	5.879039	1.991872	-0.000235
1139	1.1323e+02	-5.3437	-13.893803	0.000649	6.487216	2.197928	-0.000260
1140	1.1333e+02	-5.3998	-14.119882	0.000568	5.676314	1.923187	-0.000227
1141	1.1343e+02	-5.4287	-14.402482	0.000710	7.095392	2.403984	-0.000284
1142	1.1353e+02	-5.4576	-14.620487	0.000547	5.473588	1.854502	-0.000219
1143	1.1363e+02	-5.4993	-14.870789	0.000628	6.284490	2.129243	-0.000252
1144	1.1373e+02	-5.5539	-15.113018	0.000608	6.081765	2.060558	-0.000243
1145	1.1383e+02	-5.5891	-15.383506	0.000679	6.791304	2.300956	-0.000272
1146	1.1393e+02	-5.6341	-15.601511	0.000547	5.473588	1.854502	-0.000219
1147	1.1403e+02	-5.6597	-15.884111	0.000710	7.095392	2.403984	-0.000284
1148	1.1413e+02	-5.7047	-16.098079	0.000537	5.372226	1.820159	-0.000215
1149	1.1423e+02	-5.7432	-16.360493	0.000659	6.588579	2.232271	-0.000264
1150	1.1433e+02	-5.7881	-16.610795	0.000628	6.284490	2.129243	-0.000252
1151	1.1442e+02	-5.8234	-16.857060	0.000618	6.183128	2.094900	-0.000248
1152	1.1452e+02	-5.8715	-17.103326	0.000618	6.183128	2.094900	-0.000248
1153	1.1462e+02	-5.9036	-17.337479	0.000588	5.879039	1.991872	-0.000235
1154	1.1472e+02	-5.9565	-17.595856	0.000649	6.487216	2.197928	-0.000260
1155	1.1482e+02	-5.9886	-17.805787	0.000527	5.270863	1.785817	-0.000211
1156	1.1492e+02	-6.0287	-18.048015	0.000608	6.081765	2.060558	-0.000243
1157	1.1502e+02	-6.0656	-18.294281	0.000618	6.183128	2.094900	-0.000248
1158	1.1512e+02	-6.0993	-18.536509	0.000608	6.081765	2.060558	-0.000243
1159	1.1522e+02	-6.1474	-18.794885	0.000649	6.487216	2.197928	-0.000260
1160	1.1532e+02	-6.1859	-19.037114	0.000608	6.081765	2.060558	-0.000243
1161	1.1542e+02	-6.2212	-19.307602	0.000679	6.791304	2.300956	-0.000272
1162	1.1552e+02	-6.2677	-19.493310	0.000466	4.662686	1.579761	-0.000187
1163	1.1562e+02	-6.3078	-19.739575	0.000618	6.183128	2.094900	-0.000248
1164	1.1572e+02	-6.3399	-19.993915	0.000639	6.385853	2.163586	-0.000256
1165	1.1582e+02	-6.3832	-20.252291	0.000649	6.487216	2.197928	-0.000260
1166	1.1592e+02	-6.4394	-20.506631	0.000639	6.385853	2.163586	-0.000256
1167	1.1602e+02	-6.4586	-20.769045	0.000659	6.588579	2.232271	-0.000264
1168	1.1612e+02	-6.4939	-20.966864	0.000497	4.966775	1.682789	-0.000199
1169	1.1622e+02	-6.5372	-21.180833	0.000537	5.372226	1.820159	-0.000215
1170	1.1632e+02	-6.5854	-21.443246	0.000659	6.588579	2.232271	-0.000264
1171	1.1642e+02	-6.6255	-21.689512	0.000618	6.183128	2.094900	-0.000248
1172	1.1651e+02	-6.6528	-21.887331	0.000497	4.966775	1.682789	-0.000199
1173	1.1661e+02	-6.7089	-22.169931	0.000710	7.095392	2.403984	-0.000284
1174	1.1671e+02	-6.7442	-22.391973	0.000557	5.574951	1.888845	-0.000223
1175	1.1681e+02	-6.7779	-22.618053	0.000568	5.676314	1.923187	-0.000227
1176	1.1691e+02	-6.8148	-22.860281	0.000608	6.081765	2.060558	-0.000243
1177	1.1701e+02	-6.8581	-23.098472	0.000598	5.980402	2.026215	-0.000239
1178	1.1711e+02	-6.8982	-23.332626	0.000588	5.879039	1.991872	-0.000235
1179	1.1721e+02	-6.9335	-23.586966	0.000639	6.385853	2.163586	-0.000256
1180	1.1731e+02	-6.9784	-23.809008	0.000557	5.574951	1.888845	-0.000223
1181	1.1741e+02	-7.0105	-24.055273	0.000618	6.183128	2.094900	-0.000248
1182	1.1751e+02	-7.0602	-24.301539	0.000618	6.183128	2.094900	-0.000248
1183	1.1761e+02	-7.1019	-24.563952	0.000659	6.588579	2.232271	-0.000264
1184	1.1771e+02	-7.1404	-24.773883	0.000527	5.270863	1.785817	-0.000211
1185	1.1781e+02	-7.1805	-24.999963	0.000568	5.676314	1.923187	-0.000227
1186	1.1791e+02	-7.2158	-25.222006	0.000557	5.574951	1.888845	-0.000223
1187	1.1801e+02	-7.2575	-25.480382	0.000649	6.487216	2.197928	-0.000260
1188	1.1811e+02	-7.2961	-25.702425	0.000557	5.574951	1.888845	-0.000223
1189	1.1821e+02	-7.3297	-25.940616	0.000598	5.980402	2.026215	-0.000239
1190	1.1831e+02	-7.3714	-26.166695	0.000568	5.676314	1.923187	-0.000227
1191	1.1841e+02	-7.4180	-26.425072	0.000649	6.487216	2.197928	-0.000260
1192	1.1850e+02	-7.4613	-26.626929	0.000507	5.068137	1.717131	-0.000203
1193	1.1860e+02	-7.5046	-26.897417	0.000679	6.791304	2.300956	-0.000272
1194	1.1870e+02	-7.5335	-27.119459	0.000557	5.574951	1.888845	-0.000223
1195	1.1880e+02	-7.5800	-27.329390	0.000527	5.270863	1.785817	-0.000211
1196	1.1890e+02	-7.6153	-27.547396	0.000547	5.473588	1.854502	-0.000219
1197	1.1900e+02	-7.6554	-27.789624	0.000608	6.081765	2.060558	-0.000243
1198	1.1910e+02	-7.6971	-28.011666	0.000557	5.574951	1.888845	-0.000223
1199	1.1920e+02	-7.7372	-28.318489	0.000770	7.703569	2.610040	-0.000308
1200	1.1930e+02	-7.7821	-28.508234	0.000476	4.764049	1.614104	-0.000191
1201	1.1940e+02	-7.8110	-28.718165	0.000527	5.270863	1.785817	-0.000211
1202	1.1950e+02	-7.8559	-28.924059	0.000517	5.169500	1.751474	-0.000207
1203	1.1960e+02	-7.8976	-29.178399	0.000639	6.385853	2.163586	-0.000256
1204	1.1970e+02	-7.9265	-29.428701	0.000628	6.284490	2.129243	-0.000252
1205	1.1980e+02	-7.9843	-29.650743	0.000557	5.574951	1.888845	-0.000223
1206	1.1990e+02	-8.0164	-29.884897	0.000588	5.879039	1.991872	-0.000235
1207	1.2000e+02	-8.0516	-30.131163	0.000618	6.183128	2.094900	-0.000248
1208	1.2010e+02	-8.1014	-30.341094	0.000527	5.270863	1.785817	-0.000211
1209	1.2020e+02	-8.1431	-30.579285	0.000598	5.980402	2.026215	-0.000239
1210	1.2030e+02	-8.1768	-30.829587	0.000628	6.284490	2.129243	-0.000252
1211	1.2039e+02	-8.2137	-31.011258	0.000456	4.561324	1.545418	-0.000183
1212	1.2049e+02	-8.2570	-31.241375	0.000578	5.777677	1.957530	-0.000231
1213	1.2059e+02	-8.2971	-31.515900	0.000689	6.892667	2.335299	-0.000276
1214	1.2069e+02	-8.3388	-31.713720	0.000497	4.966775	1.682789	-0.000199
1215	1.2079e+02	-8.3693	-31.972096	0.000649	6.487216	2.197928	-0.000260
1216	1.2089e+02	-8.4206	-32.173953	0.000507	5.068137	1.717131	-0.000203
1217	1.2099e+02	-8.4575	-32.404070	0.000578	5.777677	1.957530	-0.000231
1218	1.2109e+02	-8.4912	-32.642261	0.000598	5.980402	2.026215	-0.000239
1219	1.2119e+02	-8.5265	-32.868341	0.000568	5.676314	1.923187	-0.000227
1220	1.2129e+02	-8.5730	-33.094420	0.000568	5.676314	1.923187	-0.000227
1221	1.2139e+02	-8.6131	-33.340685	0.000618	6.183128	2.094900	-0.000248
1222	1.2149e+02	-8.6564	-33.570802	0.000578	5.777677	1.957530	-0.000231
1223	1.2159e+02	-8.6885	-33.788808	0.000547	5.473588	1.854502	-0.000219
1224	1.2169e+02	-8.7431	-34.022961	0.000588	5.879039	1.991872	-0.000235
1225	1.2179e+02	-8.7687	-34.269227	0.000618	6.183128	2.094900	-0.000248
1226	1.2189e+02	-8.8153	-34.495306	0.000568	5.676314	1.923187	-0.000227
1227	1.2199e+02	-8.8506	-34.741572	0.000618	6.183128	2.094900	-0.000248
1228	1.2209e+02	-8.8891	-34.959577	0.000547	5.473588	1.854502	-0.000219
1229	1.2219e+02	-8.9372	-35.177582	0.000547	5.473588	1.854502	-0.000219
1230	1.2229e+02	-8.9773	-35.448070	0.000679	6.791304	2.300956	-0.000272
1231	1.2239e+02	-9.0158	-35.653964	0.000517	5.169500	1.751474	-0.000207
1232	1.2248e+02	-9.0559	-35.876007	0.000557	5.574951	1.888845	-0.000223
1233	1.2258e+02	-9.1040	-36.170718	0.000740	7.399481	2.507012	-0.000296
1234	1.2268e+02	-9.1265	-36.336240	0.000416	4.155873	1.408048	-0.000166
1235	1.2278e+02	-9.1666	-36.546171	0.000527	5.270863	1.785817	-0.000211
1236	1.2288e+02	-9.2003	-36.804548	0.000649	6.487216	2.197928	-0.000260
1237	1.2298e+02	-9.2548	-36.998330	0.000487	4.865412	1.648446	-0.000195
1238	1.2308e+02	-9.2949	-37.280930	0.000710	7.095392	2.403984	-0.000284
1239	1.2318e+02	-9.3302	-37.458564	0.000446	4.459961	1.511076	-0.000179
1240	1.2328e+02	-9.3687	-37.708866	0.000628	6.284490	2.129243	-0.000252
1241	1.2338e+02	-9.4120	-37.975317	0.000669	6.689941	2.266613	-0.000268
1242	1.2348e+02	-9.4441	-38.169100	0.000487	4.865412	1.648446	-0.000195
1243	1.2358e+02	-9.4987	-38.391142	0.000557	5.574951	1.888845	-0.000223
1244	1.2368e+02	-9.5227	-38.617222	0.000568	5.676314	1.923187	-0.000227
1245	1.2378e+02	-9.5725	-38.863487	0.000618	6.183128	2.094900	-0.000248
1246	1.2388e+02	-9.6126	-39.053233	0.000476	4.764049	1.614104	-0.000191
1247	1.2398e+02	-9.6559	-39.339869	0.000720	7.196755	2.438327	-0.000288
1248	1.2408e+02	-9.6880	-39.529615	0.000476	4.764049	1.614104	-0.000191
1249	1.2418e+02	-9.7281	-39.800103	0.000679	6.791304	2.300956	-0.000272
1250	1.2428e+02	-9.7682	-39.973700	0.000436	4.358598	1.476733	-0.000174
1251	1.2438e+02	-9.8115	-40.240150	0.000669	6.689941	2.266613	-0.000268
1252	1.2447e+02	-9.8372	-40.433933	0.000487	4.865412	1.648446	-0.000195
1253	1.2457e+02	-9.8981	-40.696347	0.000659	6.588579	2.232271	-0.000264
1254	1.2467e+02	-9.9270	-40.890129	0.000487	4.865412	1.648446	-0.000195
1255	1.2477e+02	-9.9799	-41.160617	0.000679	6.791304	2.300956	-0.000272
1256	1.2487e+02	-10.0008	-41.322103	0.000405	4.054510	1.373705	-0.000162
1257	1.2497e+02	-10.0489	-41.564331	0.000608	6.081765	2.060558	-0.000243
1258	1.2507e+02	-10.0986	-41.859042	0.000740	7.399481	2.507012	-0.000296
1259	1.2517e+02	-10.1307	-42.048787	0.000476	4.764049	1.614104	-0.000191
1260	1.2527e+02	-10.1724	-42.226421	0.000446	4.459961	1.511076	-0.000179
1261	1.2537e+02	-10.2045	-42.484798	0.000649	6.487216	2.197928	-0.000260
1262	1.2547e+02	-10.2527	-42.714915	0.000578	5.777677	1.957530	-0.000231
1263	1.2557e+02	-10.2831	-42.961180	0.000618	6.183128	2.094900	-0.000248
1264	1.2567e+02	-10.3232	-43.154962	0.000487	4.865412	1.648446	-0.000195
1265	1.2577e+02	-10.3553	-43.413339	0.000649	6.487216	2.197928	-0.000260
1266	1.2587e+02	-10.4179	-43.631344	0.000547	5.473588	1.854502	-0.000219
1267	1.2597e+02	-10.4468	-43.861461	0.000578	5.777677	1.957530	-0.000231
1268	1.2607e+02	-10.4949	-44.087541	0.000568	5.676314	1.923187	-0.000227
1269	1.2617e+02	-10.5254	-44.301509	0.000537	5.372226	1.820159	-0.000215
1270	1.2627e+02	-10.5687	-44.547774	0.000618	6.183128	2.094900	-0.000248
1271	1.2636e+02	-10.6072	-44.749631	0.000507	5.068137	1.717131	-0.000203
1272	1.2646e+02	-10.6521	-44.987822	0.000598	5.980402	2.026215	-0.000239
1273	1.2656e+02	-10.6858	-45.234087	0.000618	6.183128	2.094900	-0.000248
1274	1.2666e+02	-10.7227	-45.407684	0.000436	4.358598	1.476733	-0.000174
1275	1.2676e+02	-10.7612	-45.645875	0.000598	5.980402	2.026215	-0.000239
1276	1.2686e+02	-10.8206	-45.896178	0.000628	6.284490	2.129243	-0.000252
1277	1.2696e+02	-10.8318	-46.085923	0.000476	4.764049	1.614104	-0.000191
1278	1.2706e+02	-10.8911	-46.324114	0.000598	5.980402	2.026215	-0.000239
1279	1.2716e+02	-10.9248	-46.570379	0.000618	6.183128	2.094900	-0.000248
1280	1.2726e+02	-10.9681	-46.780310	0.000527	5.270863	1.785817	-0.000211
1281	1.2736e+02	-11.0034	-47.002353	0.000557	5.574951	1.888845	-0.000223
1282	1.2746e+02	-11.0419	-47.272841	0.000679	6.791304	2.300956	-0.000272
1283	1.2756e+02	-11.0885	-47.494883	0.000557	5.574951	1.888845	-0.000223
1284	1.2766e+02	-11.1221	-47.725000	0.000578	5.777677	1.957530	-0.000231
1285	1.2776e+02	-11.1735	-47.951080	0.000568	5.676314	1.923187	-0.000227
1286	1.2786e+02	-11.2056	-48.161011	0.000527	5.270863	1.785817	-0.000211
1287	1.2796e+02	-11.2473	-48.383053	0.000557	5.574951	1.888845	-0.000223
1288	1.2806e+02	-11.2826	-48.617207	0.000588	5.879039	1.991872	-0.000235
1289	1.2816e+02	-11.3227	-48.851361	0.000588	5.879039	1.991872	-0.000235
1290	1.2826e+02	-11.3660	-49.073403	0.000557	5.574951	1.888845	-0.000223
1291	1.2835e+02	-11.4045	-49.247000	0.000436	4.358598	1.476733	-0.000174
1292	1.2845e+02	-11.4446	-49.465006	0.000547	5.473588	1.854502	-0.000219
1293	1.2855e+02	-11.4735	-49.707234	0.000608	6.081765	2.060558	-0.000243
1294	1.2865e+02	-11.5216	-49.929276	0.000557	5.574951	1.888845	-0.000223
1295	1.2875e+02	-11.5649	-50.175542	0.000618	6.183128	2.094900	-0.000248
1296	1.2885e+02	-11.5954	-50.405658	0.000578	5.777677	1.957530	-0.000231
1297	1.2895e+02	-11.6387	-50.571181	0.000416	4.155873	1.408048	-0.000166
1298	1.2905e+02	-11.6804	-50.837632	0.000669	6.689941	2.266613	-0.000268
1299	1.2915e+02	-11.7205	-51.035451	0.000497	4.966775	1.682789	-0.000199
1300	1.2925e+02	-11.7606	-51.261531	0.000568	5.676314	1.923187	-0.000227
1301	1.2935e+02	-11.8120	-51.475499	0.000537	5.372226	1.820159	-0.000215
1302	1.2945e+02	-11.8376	-51.653133	0.000446	4.459961	1.511076	-0.000179
1303	1.2955e+02	-11.8858	-51.939770	0.000720	7.196755	2.438327	-0.000288
1304	1.2965e+02	-11.9178	-52.157775	0.000547	5.473588	1.854502	-0.000219
1305	1.2975e+02	-11.9644	-52.347521	0.000476	4.764049	1.614104	-0.000191
1306	1.2985e+02	-12.0029	-52.541303	0.000487	4.865412	1.648446	-0.000195
1307	1.2995e+02	-12.0526	-52.743160	0.000507	5.068137	1.717131	-0.000203
1308	1.3005e+02	-12.0847	-53.005574	0.000659	6.588579	2.232271	-0.000264
1309	1.3015e+02	-12.1184	-53.207430	0.000507	5.068137	1.717131	-0.000203
1310	1.3025e+02	-12.1713	-53.376990	0.000426	4.257235	1.442390	-0.000170
1311	1.3034e+02	-12.1986	-53.643441	0.000669	6.689941	2.266613	-0.000268
1312	1.3044e+02	-12.2467	-53.873558	0.000578	5.777677	1.957530	-0.000231
1313	1.3054e+02	-12.2820	-54.051192	0.000446	4.459961	1.511076	-0.000179
1314	1.3064e+02	-12.3173	-54.289383	0.000598	5.980402	2.026215	-0.000239
1315	1.3074e+02	-12.3590	-54.527574	0.000598	5.980402	2.026215	-0.000239
1316	1.3084e+02	-12.4039	-54.729431	0.000507	5.068137	1.717131	-0.000203
1317	1.3094e+02	-12.4312	-54.983770	0.000639	6.385853	2.163586	-0.000256
1318	1.3104e+02	-12.4890	-55.149293	0.000416	4.155873	1.408048	-0.000166
1319	1.3114e+02	-12.5242	-55.339038	0.000476	4.764049	1.614104	-0.000191
1320	1.3124e+02	-12.5499	-55.581266	0.000608	6.081765	2.060558	-0.000243
1321	1.3134e+02	-12.5948	-55.831569	0.000628	6.284490	2.129243	-0.000252
1322	1.3144e+02	-12.6381	-56.025351	0.000487	4.865412	1.648446	-0.000195
1323	1.3154e+02	-12.6750	-56.255468	0.000578	5.777677	1.957530	-0.000231
1324	1.3164e+02	-12.7135	-56.445213	0.000476	4.764049	1.614104	-0.000191
1325	1.3174e+02	-12.7472	-56.651107	0.000517	5.169500	1.751474	-0.000207
1326	1.3184e+02	-12.8034	-56.861038	0.000527	5.270863	1.785817	-0.000211
1327	1.3194e+02	-12.8387	-57.083081	0.000557	5.574951	1.888845	-0.000223
1328	1.3204e+02	-12.8756	-57.284938	0.000507	5.068137	1.717131	-0.000203
1329	1.3214e+02	-12.9077	-57.466609	0.000456	4.561324	1.545418	-0.000183
1330	1.3224e+02	-12.9590	-57.737097	0.000679	6.791304	2.300956	-0.000272
1331	1.3234e+02	-12.9975	-57.910694	0.000436	4.358598	1.476733	-0.000174
1332	1.3243e+02	-13.0344	-58.128699	0.000547	5.473588	1.854502	-0.000219
1333	1.3253e+02	-13.0745	-58.342667	0.000537	5.372226	1.820159	-0.000215
1334	1.3263e+02	-13.1082	-58.564710	0.000557	5.574951	1.888845	-0.000223
1335	1.3273e+02	-13.1563	-58.750418	0.000466	4.662686	1.579761	-0.000187
1336	1.3283e+02	-13.1996	-58.980535	0.000578	5.777677	1.957530	-0.000231
1337	1.3293e+02	-13.2365	-59.174317	0.000487	4.865412	1.648446	-0.000195
1338	1.3303e+02	-13.2702	-59.416545	0.000608	6.081765	2.060558	-0.000243
1339	1.3313e+02	-13.3167	-59.602253	0.000466	4.662686	1.579761	-0.000187
1340	1.3323e+02	-13.3488	-59.804110	0.000507	5.068137	1.717131	-0.000203
1341	1.3333e+02	-13.3841	-60.054413	0.000628	6.284490	2.129243	-0.000252
1342	1.3343e+02	-13.4371	-60.232047	0.000446	4.459961	1.511076	-0.000179
1343	1.3353e+02	-13.4788	-60.454089	0.000557	5.574951	1.888845	-0.000223
1344	1.3363e+02	-13.5125	-60.655946	0.000507	5.068137	1.717131	-0.000203
1345	1.3373e+02	-13.5590	-60.877988	0.000557	5.574951	1.888845	-0.000223
1346	1.3383e+02	-13.5975	-61.075808	0.000497	4.966775	1.682789	-0.000199
1347	1.3393e+02	-13.6360	-61.281702	0.000517	5.169500	1.751474	-0.000207
1348	1.3403e+02	-13.6809	-61.487596	0.000517	5.169500	1.751474	-0.000207
1349	1.3413e+02	-13.7162	-61.713675	0.000568	5.676314	1.923187	-0.000227
1350	1.3423e+02	-13.7499	-61.911495	0.000497	4.966775	1.682789	-0.000199
1351	1.3432e+02	-13.7900	-62.129500	0.000547	5.473588	1.854502	-0.000219
1352	1.3442e+02	-13.8301	-62.295023	0.000416	4.155873	1.408048	-0.000166
1353	1.3452e+02	-13.8686	-62.525140	0.000578	5.777677	1.957530	-0.000231
1354	1.3462e+02	-13.9151	-62.714885	0.000476	4.764049	1.614104	-0.000191
1355	1.3472e+02	-13.9472	-62.945002	0.000578	5.777677	1.957530	-0.000231
1356	1.3482e+02	-13.9969	-63.154933	0.000527	5.270863	1.785817	-0.000211
1357	1.3492e+02	-14.0354	-63.340641	0.000466	4.662686	1.579761	-0.000187
1358	1.3502e+02	-14.0675	-63.542498	0.000507	5.068137	1.717131	-0.000203
1359	1.3512e+02	-14.1092	-63.756466	0.000537	5.372226	1.820159	-0.000215
1360	1.3522e+02	-14.1477	-64.002731	0.000618	6.183128	2.094900	-0.000248
1361	1.3532e+02	-14.1830	-64.184403	0.000456	4.561324	1.545418	-0.000183
1362	1.3542e+02	-14.2279	-64.378185	0.000487	4.865412	1.648446	-0.000195
1363	1.3552e+02	-14.2697	-64.600228	0.000557	5.574951	1.888845	-0.000223
1364	1.3562e+02	-14.3178	-64.794010	0.000487	4.865412	1.648446	-0.000195
1365	1.3572e+02	-14.3563	-64.955495	0.000405	4.054510	1.373705	-0.000162
1366	1.3582e+02	-14.3932	-65.238095	0.000710	7.095392	2.403984	-0.000284
1367	1.3592e+02	-14.4285	-65.399580	0.000405	4.054510	1.373705	-0.000162
1368	1.3602e+02	-14.4654	-65.613549	0.000537	5.372226	1.820159	-0.000215
1369	1.3612e+02	-14.5071	-65.803294	0.000476	4.764049	1.614104	-0.000191
1370	1.3622e+02	-14.5504	-66.017262	0.000537	5.372226	1.820159	-0.000215
1371	1.3631e+02	-14.5857	-66.235267	0.000547	5.473588	1.854502	-0.000219
1372	1.3641e+02	-14.6290	-66.412901	0.000446	4.459961	1.511076	-0.000179
1373	1.3651e+02	-14.6723	-66.570350	0.000395	3.953147	1.339363	-0.000158
1374	1.3661e+02	-14.7124	-66.865061	0.000740	7.399481	2.507012	-0.000296
1375	1.3671e+02	-14.7557	-67.034620	0.000426	4.257235	1.442390	-0.000170
1376	1.3681e+02	-14.7942	-67.220329	0.000466	4.662686	1.579761	-0.000187
1377	1.3691e+02	-14.8247	-67.393925	0.000436	4.358598	1.476733	-0.000174
1378	1.3701e+02	-14.8761	-67.615968	0.000557	5.574951	1.888845	-0.000223
1379	1.3711e+02	-14.9081	-67.842048	0.000568	5.676314	1.923187	-0.000227
1380	1.3721e+02	-14.9434	-68.011607	0.000426	4.257235	1.442390	-0.000170
1381	1.3731e+02	-14.9916	-68.245761	0.000588	5.879039	1.991872	-0.000235
1382	1.3741e+02	-15.0236	-68.431469	0.000466	4.662686	1.579761	-0.000187
1383	1.3751e+02	-15.0637	-68.629289	0.000497	4.966775	1.682789	-0.000199
1384	1.3761e+02	-15.0990	-68.855369	0.000568	5.676314	1.923187	-0.000227
1385	1.3771e+02	-15.1456	-69.069337	0.000537	5.372226	1.820159	-0.000215
1386	1.3781e+02	-15.1905	-69.246971	0.000446	4.459961	1.511076	-0.000179
1387	1.3791e+02	-15.2354	-69.448828	0.000507	5.068137	1.717131	-0.000203
1388	1.3801e+02	-15.2659	-69.670870	0.000557	5.574951	1.888845	-0.000223
1389	1.3811e+02	-15.3076	-69.909061	0.000598	5.980402	2.026215	-0.000239
1390	1.3821e+02	-15.3493	-70.030175	0.000304	3.040882	1.030279	-0.000122
1391	1.3831e+02	-15.3862	-70.296626	0.000669	6.689941	2.266613	-0.000268
1392	1.3840e+02	-15.4215	-70.466186	0.000426	4.257235	1.442390	-0.000170
1393	1.3850e+02	-15.4712	-70.655931	0.000476	4.764049	1.614104	-0.000191
1394	1.3860e+02	-15.5017	-70.873936	0.000547	5.473588	1.854502	-0.000219
1395	1.3870e+02	-15.5498	-71.124239	0.000628	6.284490	2.129243	-0.000252
1396	1.3880e+02	-15.5835	-71.293799	0.000426	4.257235	1.442390	-0.000170
1397	1.3890e+02	-15.6236	-71.515841	0.000557	5.574951	1.888845	-0.000223
1398	1.3900e+02	-15.6669	-71.685401	0.000426	4.257235	1.442390	-0.000170
1399	1.3910e+02	-15.7070	-71.923592	0.000598	5.980402	2.026215	-0.000239
1400	1.3920e+02	-15.7536	-72.101226	0.000446	4.459961	1.511076	-0.000179
1401	1.3930e+02	-15.7873	-72.315194	0.000537	5.372226	1.820159	-0.000215
1402	1.3940e+02	-15.8193	-72.537236	0.000557	5.574951	1.888845	-0.000223
1403	1.3950e+02	-15.8643	-72.702759	0.000416	4.155873	1.408048	-0.000166
1404	1.3960e+02	-15.9044	-72.981321	0.000699	6.994030	2.369641	-0.000280
1405	1.3970e+02	-15.9429	-73.134732	0.000385	3.851784	1.305020	-0.000154
1406	1.3980e+02	-15.9878	-73.376961	0.000608	6.081765	2.060558	-0.000243
1407	1.3990e+02	-16.0215	-73.550557	0.000436	4.358598	1.476733	-0.000174
1408	1.4000e+02	-16.0664	-73.744340	0.000487	4.865412	1.648446	-0.000195
1409	1.4010e+02	-16.1049	-73.946197	0.000507	5.068137	1.717131	-0.000203
1410	1.4020e+02	-16.1498	-74.156128	0.000527	5.270863	1.785817	-0.000211
1411	1.4029e+02	-16.1851	-74.366059	0.000527	5.270863	1.785817	-0.000211
1412	1.4039e+02	-16.2204	-74.588101	0.000557	5.574951	1.888845	-0.000223
1413	1.4049e+02	-16.2557	-74.757661	0.000426	4.257235	1.442390	-0.000170
1414	1.4059e+02	-16.3038	-74.927221	0.000426	4.257235	1.442390	-0.000170
1415	1.4069e+02	-16.3503	-75.197709	0.000679	6.791304	2.300956	-0.000272
1416	1.4079e+02	-16.3824	-75.375343	0.000446	4.459961	1.511076	-0.000179
1417	1.4089e+02	-16.4257	-75.573162	0.000497	4.966775	1.682789	-0.000199
1418	1.4099e+02	-16.4691	-75.803279	0.000578	5.777677	1.957530	-0.000231
1419	1.4109e+02	-16.5011	-75.948616	0.000365	3.649059	1.236335	-0.000146
1420	1.4119e+02	-16.5493	-76.211030	0.000659	6.588579	2.232271	-0.000264
1421	1.4129e+02	-16.5797	-76.384627	0.000436	4.358598	1.476733	-0.000174
1422	1.4139e+02	-16.6215	-76.590521	0.000517	5.169500	1.751474	-0.000207
1423	1.4149e+02	-16.6519	-76.784303	0.000487	4.865412	1.648446	-0.000195
1424	1.4159e+02	-16.7017	-76.982123	0.000497	4.966775	1.682789	-0.000199
1425	1.4169e+02	-16.7498	-77.192054	0.000527	5.270863	1.785817	-0.000211
1426	1.4179e+02	-16.7947	-77.385836	0.000487	4.865412	1.648446	-0.000195
1427	1.4189e+02	-16.8332	-77.615953	0.000578	5.777677	1.957530	-0.000231
1428	1.4199e+02	-16.8573	-77.805699	0.000476	4.764049	1.614104	-0.000191
1429	1.4209e+02	-16.9006	-77.999481	0.000487	4.865412	1.648446	-0.000195
1430	1.4219e+02	-16.9375	-78.209412	0.000527	5.270863	1.785817	-0.000211
1431	1.4228e+02	-16.9872	-78.403195	0.000487	4.865412	1.648446	-0.000195
1432	1.4238e+02	-17.0257	-78.588903	0.000466	4.662686	1.579761	-0.000187
1433	1.4248e+02	-17.0610	-78.802871	0.000537	5.372226	1.820159	-0.000215
1434	1.4258e+02	-17.0947	-78.996654	0.000487	4.865412	1.648446	-0.000195
1435	1.4268e+02	-17.1364	-79.198510	0.000507	5.068137	1.717131	-0.000203
1436	1.4278e+02	-17.1781	-79.392293	0.000487	4.865412	1.648446	-0.000195
1437	1.4288e+02	-17.2279	-79.626447	0.000588	5.879039	1.991872	-0.000235
1438	1.4298e+02	-17.2648	-79.856563	0.000578	5.777677	1.957530	-0.000231
1439	1.4308e+02	-17.2936	-80.054383	0.000497	4.966775	1.682789	-0.000199
1440	1.4318e+02	-17.3434	-80.219906	0.000416	4.155873	1.408048	-0.000166
1441	1.4328e+02	-17.3674	-80.445985	0.000568	5.676314	1.923187	-0.000227
1442	1.4338e+02	-17.4220	-80.603434	0.000395	3.953147	1.339363	-0.000158
1443	1.4348e+02	-17.4541	-80.886033	0.000710	7.095392	2.403984	-0.000284
1444	1.4358e+02	-17.5054	-81.015221	0.000324	3.243608	1.098964	-0.000130
1445	1.4368e+02	-17.5343	-81.237264	0.000557	5.574951	1.888845	-0.000223
1446	1.4378e+02	-17.5728	-81.443158	0.000517	5.169500	1.751474	-0.000207
1447	1.4388e+02	-17.6177	-81.608680	0.000416	4.155873	1.408048	-0.000166
1448	1.4398e+02	-17.6546	-81.826686	0.000547	5.473588	1.854502	-0.000219
1449	1.4408e+02	-17.6947	-82.060840	0.000588	5.879039	1.991872	-0.000235
1450	1.4418e+02	-17.7396	-82.238474	0.000446	4.459961	1.511076	-0.000179
1451	1.4428e+02	-17.7813	-82.444367	0.000517	5.169500	1.751474	-0.000207
1452	1.4437e+02	-17.8150	-82.670447	0.000568	5.676314	1.923187	-0.000227
1453	1.4447e+02	-17.8567	-82.900564	0.000578	5.777677	1.957530	-0.000231
1454	1.4457e+02	-17.9032	-83.082235	0.000456	4.561324	1.545418	-0.000183
1455	1.4467e+02	-17.9433	-83.251795	0.000426	4.257235	1.442390	-0.000170
1456	1.4477e+02	-17.9786	-83.461726	0.000527	5.270863	1.785817	-0.000211
1457	1.4487e+02	-18.0123	-83.639360	0.000446	4.459961	1.511076	-0.000179
1458	1.4497e+02	-18.0460	-83.877551	0.000598	5.980402	2.026215	-0.000239
1459	1.4507e+02	-18.0990	-84.059222	0.000456	4.561324	1.545418	-0.000183
1460	1.4517e+02	-18.1455	-84.265116	0.000517	5.169500	1.751474	-0.000207
1461	1.4527e+02	-18.1856	-84.491195	0.000568	5.676314	1.923187	-0.000227
1462	1.4537e+02	-18.2225	-84.640569	0.000375	3.750422	1.270677	-0.000150
1463	1.4547e+02	-18.2546	-84.858575	0.000547	5.473588	1.854502	-0.000219
1464	1.4557e+02	-18.3059	-85.064469	0.000517	5.169500	1.751474	-0.000207
1465	1.4567e+02	-18.3444	-85.290548	0.000568	5.676314	1.923187	-0.000227
1466	1.4577e+02	-18.3749	-85.452034	0.000405	4.054510	1.373705	-0.000162
1467	1.4587e+02	-18.4182	-85.617556	0.000416	4.155873	1.408048	-0.000166
1468	1.4597e+02	-18.4535	-85.807302	0.000476	4.764049	1.614104	-0.000191
1469	1.4607e+02	-18.4952	-86.077790	0.000679	6.791304	2.300956	-0.000272
1470	1.4617e+02	-18.5305	-86.243312	0.000416	4.155873	1.408048	-0.000166
1471	1.4626e+02	-18.5738	-86.408835	0.000416	4.155873	1.408048	-0.000166
1472	1.4636e+02	-18.6107	-86.642989	0.000588	5.879039	1.991872	-0.000235
1473	1.4646e+02	-18.6652	-86.804474	0.000405	4.054510	1.373705	-0.000162
1474	1.4656e+02	-18.6957	-86.978071	0.000436	4.358598	1.476733	-0.000174
1475	1.4666e+02	-18.7310	-87.196076	0.000547	5.473588	1.854502	-0.000219
1476	1.4676e+02	-18.7663	-87.393896	0.000497	4.966775	1.682789	-0.000199
1477	1.4686e+02	-18.8225	-87.603827	0.000527	5.270863	1.785817	-0.000211
1478	1.4696e+02	-18.8562	-87.797609	0.000487	4.865412	1.648446	-0.000195
1479	1.4706e+02	-18.8930	-87.979281	0.000456	4.561324	1.545418	-0.000183
1480	1.4716e+02	-18.9412	-88.185174	0.000517	5.169500	1.751474	-0.000207
1481	1.4726e+02	-18.9829	-88.342623	0.000395	3.953147	1.339363	-0.000158
1482	1.4736e+02	-19.0182	-88.552554	0.000527	5.270863	1.785817	-0.000211
1483	1.4746e+02	-19.0519	-88.770559	0.000547	5.473588	1.854502	-0.000219
1484	1.4756e+02	-19.0936	-88.944156	0.000436	4.358598	1.476733	-0.000174
1485	1.4766e+02	-19.1241	-89.162161	0.000547	5.473588	1.854502	-0.000219
1486	1.4776e+02	-19.1818	-89.343832	0.000456	4.561324	1.545418	-0.000183
1487	1.4786e+02	-19.2203	-89.533578	0.000476	4.764049	1.614104	-0.000191
1488	1.4796e+02	-19.2508	-89.719286	0.000466	4.662686	1.579761	-0.000187
1489	1.4806e+02	-19.2973	-89.900957	0.000456	4.561324	1.545418	-0.000183
1490	1.4816e+02	-19.3358	-90.082628	0.000456	4.561324	1.545418	-0.000183
1491	1.4825e+02	-19.3711	-90.328894	0.000618	6.183128	2.094900	-0.000248
1492	1.4835e+02	-19.4160	-90.474230	0.000365	3.649059	1.236335	-0.000146
1493	1.4845e+02	-19.4561	-90.647827	0.000436	4.358598	1.476733	-0.000174
1494	1.4855e+02	-19.4818	-90.845647	0.000497	4.966775	1.682789	-0.000199
1495	1.4865e+02	-19.5331	-91.055578	0.000527	5.270863	1.785817	-0.000211
1496	1.4875e+02	-19.5604	-91.265509	0.000527	5.270863	1.785817	-0.000211
1497	1.4885e+02	-19.6150	-91.422957	0.000395	3.953147	1.339363	-0.000158
1498	1.4895e+02	-19.6470	-91.632888	0.000527	5.270863	1.785817	-0.000211
1499	1.4905e+02	-19.7000	-91.802448	0.000426	4.257235	1.442390	-0.000170
1500	1.4915e+02	-19.7273	-91.992193	0.000476	4.764049	1.614104	-0.000191
1501	1.4925e+02	-19.7722	-92.218273	0.000568	5.676314	1.923187	-0.000227
1502	1.4935e+02	-19.8059	-92.395907	0.000446	4.459961	1.511076	-0.000179
1503	1.4945e+02	-19.8492	-92.601801	0.000517	5.169500	1.751474	-0.000207
1504	1.4955e+02	-19.8845	-92.795584	0.000487	4.865412	1.648446	-0.000195
1505	1.4965e+02	-19.9294	-92.936883	0.000355	3.547696	1.201992	-0.000142
1506	1.4975e+02	-19.9663	-93.134703	0.000497	4.966775	1.682789	-0.000199
1507	1.4985e+02	-20.0096	-93.348671	0.000537	5.372226	1.820159	-0.000215
1508	1.4995e+02	-19.9679	-93.477859	-0.000324	-3.243608	-1.098964	-0.000130
1509	1.5005e+02	-19.9406	-93.582825	-0.000264	-2.635431	-0.892908	-0.000105
1510	1.5015e+02	-19.8829	-93.655493	-0.000182	-1.824529	-0.618167	-0.000073
1511	1.5025e+02	-19.8492	-93.687791	-0.000081	-0.810902	-0.274741	-0.000032
1512	1.5034e+02	-19.8123	-93.716050	-0.000071	-0.709539	-0.240398	-0.000028
1513	1.5044e+02	-19.7658	-93.796793	-0.000203	-2.027255	-0.686853	-0.000081
1514	1.5054e+02	-19.7256	-93.812942	-0.000041	-0.405451	-0.137371	-0.000016
1515	1.5064e+02	-19.6839	-93.833127	-0.000051	-0.506814	-0.171713	-0.000020
1516	1.5074e+02	-19.6502	-93.800830	0.000081	0.810902	0.274741	0.000032
1517	1.5084e+02	-19.6053	-93.857350	-0.000142	-1.419078	-0.480797	-0.000057
1518	1.5094e+02	-19.5748	-93.877536	-0.000051	-0.506814	-0.171713	-0.000020
1519	1.5104e+02	-19.5396	-93.865424	0.000030	0.304088	0.103028	0.000012
1520	1.5114e+02	-19.4898	-93.901759	-0.000091	-0.912265	-0.309084	-0.000037
1521	1.5124e+02	-19.4577	-93.877536	0.000061	0.608176	0.206056	0.000024
1522	1.5134e+02	-19.4128	-93.881573	-0.000010	-0.101363	-0.034343	-0.000004
1523	1.5144e+02	-19.3727	-93.885610	-0.000010	-0.101363	-0.034343	-0.000004
1524	1.5154e+02	-19.3246	-93.893684	-0.000020	-0.202725	-0.068685	-0.000008
1525	1.5164e+02	-19.2909	-93.877536	0.000041	0.405451	0.137371	0.000016
1526	1.5174e+02	-19.2652	-93.917907	-0.000101	-1.013627	-0.343426	-0.000041
1527	1.5184e+02	-19.2171	-93.893684	0.000061	0.608176	0.206056	0.000024
1528	1.5194e+02	-19.1690	-93.869462	0.000061	0.608176	0.206056	0.000024
1529	1.5204e+02	-19.1369	-93.821016	0.000122	1.216353	0.412112	0.000049
1530	1.5214e+02	-19.0888	-93.800830	0.000051	0.506814	0.171713	0.000020
1531	1.5224e+02	-19.0599	-93.804867	-0.000010	-0.101363	-0.034343	-0.000004
1532	1.5233e+02	-19.0118	-93.816979	-0.000030	-0.304088	-0.103028	-0.000012
1533	1.5243e+02	-18.9781	-93.748348	0.000172	1.723167	0.583825	0.000069
1534	1.5253e+02	-18.9332	-93.760459	-0.000030	-0.304088	-0.103028	-0.000012
1535	1.5263e+02	-18.9059	-93.724125	0.000091	0.912265	0.309084	0.000037
1536	1.5273e+02	-18.8610	-93.671642	0.000132	1.317716	0.446454	0.000053
1537	1.5283e+02	-18.8225	-93.659531	0.000030	0.304088	0.103028	0.000012
1538	1.5293e+02	-18.7727	-93.631271	0.000071	0.709539	0.240398	0.000028
1539	1.5303e+02	-18.7294	-93.603011	0.000071	0.709539	0.240398	0.000028
1540	1.5313e+02	-18.6941	-93.603011	0.000000	0.000000	0.000000	0.000000
1541	1.5323e+02	-18.6556	-93.570714	0.000081	0.810902	0.274741	0.000032
1542	1.5333e+02	-18.6171	-93.510157	0.000152	1.520441	0.515139	0.000061
1543	1.5343e+02	-18.5738	-93.477859	0.000081	0.810902	0.274741	0.000032
1544	1.5353e+02	-18.5417	-93.449599	0.000071	0.709539	0.240398	0.000028
1545	1.5363e+02	-18.5016	-93.417302	0.000081	0.810902	0.274741	0.000032
1546	1.5373e+02	-18.4663	-93.376931	0.000101	1.013627	0.343426	0.000041
1547	1.5383e+02	-18.4214	-93.324448	0.000132	1.317716	0.446454	0.000053
1548	1.5393e+02	-18.3845	-93.288114	0.000091	0.912265	0.309084	0.000037
1549	1.5403e+02	-18.3284	-93.280040	0.000020	0.202725	0.068685	0.000008
1550	1.5413e+02	-18.2947	-93.211408	0.000172	1.723167	0.583825	0.000069
1551	1.5422e+02	-18.2642	-93.179111	0.000081	0.810902	0.274741	0.000032
1552	1.5432e+02	-18.2225	-93.066072	0.000284	2.838157	0.961594	0.000114
1553	1.5442e+02	-18.1744	-93.082220	-0.000041	-0.405451	-0.137371	-0.000016
1554	1.5452e+02	-18.1391	-93.078183	0.000010	0.101363	0.034343	0.000004
1555	1.5462e+02	-18.1038	-92.997440	0.000203	2.027255	0.686853	0.000081
1556	1.5472e+02	-18.0637	-92.948995	0.000122	1.216353	0.412112	0.000049
1557	1.5482e+02	-18.0171	-92.940920	0.000020	0.202725	0.068685	0.000008
1558	1.5492e+02	-17.9738	-92.864215	0.000193	1.925892	0.652510	0.000077
1559	1.5502e+02	-17.9321	-92.827881	0.000091	0.912265	0.309084	0.000037
1560	1.5512e+02	-17.9016	-92.775398	0.000132	1.317716	0.446454	0.000053
1561	1.5522e+02	-17.8535	-92.763286	0.000030	0.304088	0.103028	0.000012
1562	1.5532e+02	-17.8182	-92.666395	0.000243	2.432706	0.824223	0.000097
1563	1.5542e+02	-17.7861	-92.666395	0.000000	0.000000	0.000000	0.000000
1564	1.5552e+02	-17.7364	-92.597764	0.000172	1.723167	0.583825	0.000069
1565	1.5562e+02	-17.7043	-92.557392	0.000101	1.013627	0.343426	0.000041
1566	1.5572e+02	-17.6610	-92.484724	0.000182	1.824529	0.618167	0.000073
1567	1.5582e+02	-17.6225	-92.391870	0.000233	2.331343	0.789880	0.000093
1568	1.5592e+02	-17.5792	-92.399944	-0.000020	-0.202725	-0.068685	-0.000008
1569	1.5602e+02	-17.5327	-92.359573	0.000101	1.013627	0.343426	0.000041
1570	1.5612e+02	-17.4974	-92.294979	0.000162	1.621804	0.549482	0.000065
1571	1.5622e+02	-17.4653	-92.226347	0.000172	1.723167	0.583825	0.000069
1572	1.5631e+02	-17.4204	-92.161753	0.000162	1.621804	0.549482	0.000065
1573	1.5641e+02	-17.3754	-92.101196	0.000152	1.520441	0.515139	0.000061
1574	1.5651e+02	-17.3434	-92.060825	0.000101	1.013627	0.343426	0.000041
1575	1.5661e+02	-17.3065	-91.992193	0.000172	1.723167	0.583825	0.000069
1576	1.5671e+02	-17.2648	-91.955859	0.000091	0.912265	0.309084	0.000037
1577	1.5681e+02	-17.2214	-91.915488	0.000101	1.013627	0.343426	0.000041
1578	1.5691e+02	-17.1829	-91.802448	0.000284	2.838157	0.961594	0.000114
1579	1.5701e+02	-17.1300	-91.721705	0.000203	2.027255	0.686853	0.000081
1580	1.5711e+02	-17.1027	-91.693445	0.000071	0.709539	0.240398	0.000028
1581	1.5721e+02	-17.0642	-91.636926	0.000142	1.419078	0.480797	0.000057
1582	1.5731e+02	-17.0241	-91.544071	0.000233	2.331343	0.789880	0.000093
1583	1.5741e+02	-16.9840	-91.515811	0.000071	0.709539	0.240398	0.000028
1584	1.5751e+02	-16.9327	-91.459292	0.000142	1.419078	0.480797	0.000057
1585	1.5761e+02	-16.8990	-91.406809	0.000132	1.317716	0.446454	0.000053
1586	1.5771e+02	-16.8621	-91.350289	0.000142	1.419078	0.480797	0.000057
1587	1.5781e+02	-16.8252	-91.273583	0.000193	1.925892	0.652510	0.000077
1588	1.5791e+02	-16.7883	-91.217063	0.000142	1.419078	0.480797	0.000057
1589	1.5801e+02	-16.7450	-91.172655	0.000111	1.114990	0.377769	0.000045
1590	1.5811e+02	-16.6969	-91.099986	0.000182	1.824529	0.618167	0.000073
1591	1.5821e+02	-16.6584	-90.990984	0.000274	2.736794	0.927251	0.000110
1592	1.5830e+02	-16.6279	-90.954650	0.000091	0.912265	0.309084	0.000037
1593	1.5840e+02	-16.5862	-90.881981	0.000182	1.824529	0.618167	0.000073
1594	1.5850e+02	-16.5364	-90.813350	0.000172	1.723167	0.583825	0.000069
1595	1.5860e+02	-16.5060	-90.728570	0.000213	2.128618	0.721195	0.000085
1596	1.5870e+02	-16.4642	-90.684162	0.000111	1.114990	0.377769	0.000045
1597	1.5880e+02	-16.4225	-90.595345	0.000223	2.229980	0.755538	0.000089
1598	1.5890e+02	-16.3840	-90.534787	0.000152	1.520441	0.515139	0.000061
1599	1.5900e+02	-16.3391	-90.454045	0.000203	2.027255	0.686853	0.000081
1600	1.5910e+02	-16.3006	-90.401562	0.000132	1.317716	0.446454	0.000053
1601	1.5920e+02	-16.2669	-90.320819	0.000203	2.027255	0.686853	0.000081
1602	1.5930e+02	-16.2364	-90.256225	0.000162	1.621804	0.549482	0.000065
1603	1.5940e+02	-16.1899	-90.171445	0.000213	2.128618	0.721195	0.000085
1604	1.5950e+02	-16.1594	-90.135111	0.000091	0.912265	0.309084	0.000037
1605	1.5960e+02	-16.1049	-90.058405	0.000193	1.925892	0.652510	0.000077
1606	1.5970e+02	-16.0616	-89.977663	0.000203	2.027255	0.686853	0.000081
1607	1.5980e+02	-16.0247	-89.864623	0.000284	2.838157	0.961594	0.000114
1608	1.5990e+02	-15.9798	-89.812140	0.000132	1.317716	0.446454	0.000053
1609	1.6000e+02	-15.9413	-89.731397	0.000203	2.027255	0.686853	0.000081
1610	1.6010e+02	-15.9060	-89.646618	0.000213	2.128618	0.721195	0.000085
1611	1.6019e+02	-15.8659	-89.569912	0.000193	1.925892	0.652510	0.000077
1612	1.6029e+02	-15.8258	-89.501281	0.000172	1.723167	0.583825	0.000069
1613	1.6039e+02	-15.7776	-89.408427	0.000233	2.331343	0.789880	0.000093
1614	1.6049e+02	-15.7471	-89.380167	0.000071	0.709539	0.240398	0.000028
1615	1.6059e+02	-15.7022	-89.267127	0.000284	2.838157	0.961594	0.000114
1616	1.6069e+02	-15.6605	-89.198496	0.000172	1.723167	0.583825	0.000069
1617	1.6079e+02	-15.6220	-89.146013	0.000132	1.317716	0.446454	0.000053
1618	1.6089e+02	-15.5867	-89.061233	0.000213	2.128618	0.721195	0.000085
1619	1.6099e+02	-15.5530	-88.968379	0.000233	2.331343	0.789880	0.000093
1620	1.6109e+02	-15.5113	-88.891673	0.000193	1.925892	0.652510	0.000077
1621	1.6119e+02	-15.4632	-88.778633	0.000284	2.838157	0.961594	0.000114
1622	1.6129e+02	-15.4359	-88.762485	0.000041	0.405451	0.137371	0.000016
1623	1.6139e+02	-15.3894	-88.665594	0.000243	2.432706	0.824223	0.000097
1624	1.6149e+02	-15.3509	-88.516220	0.000375	3.750422	1.270677	0.000150
1625	1.6159e+02	-15.3060	-88.504108	0.000030	0.304088	0.103028	0.000012
1626	1.6169e+02	-15.2595	-88.403180	0.000253	2.534069	0.858566	0.000101
1627	1.6179e+02	-15.2274	-88.350697	0.000132	1.317716	0.446454	0.000053
1628	1.6189e+02	-15.1905	-88.233620	0.000294	2.939520	0.995936	0.000118
1629	1.6199e+02	-15.1472	-88.148840	0.000213	2.128618	0.721195	0.000085
1630	1.6209e+02	-15.1087	-88.060023	0.000223	2.229980	0.755538	0.000089
1631	1.6219e+02	-15.0702	-87.963132	0.000243	2.432706	0.824223	0.000097
1632	1.6228e+02	-15.0349	-87.906612	0.000142	1.419078	0.480797	0.000057
1633	1.6238e+02	-14.9867	-87.793572	0.000284	2.838157	0.961594	0.000114
1634	1.6248e+02	-14.9595	-87.700718	0.000233	2.331343	0.789880	0.000093
1635	1.6258e+02	-14.9113	-87.648235	0.000132	1.317716	0.446454	0.000053
1636	1.6268e+02	-14.8728	-87.523084	0.000314	3.142245	1.064621	0.000126
1637	1.6278e+02	-14.8375	-87.442342	0.000203	2.027255	0.686853	0.000081
1638	1.6288e+02	-14.7862	-87.357562	0.000213	2.128618	0.721195	0.000085
1639	1.6298e+02	-14.7493	-87.248559	0.000274	2.736794	0.927251	0.000110
1640	1.6308e+02	-14.7156	-87.147631	0.000253	2.534069	0.858566	0.000101
1641	1.6318e+02	-14.6787	-87.099185	0.000122	1.216353	0.412112	0.000049
1642	1.6328e+02	-14.6258	-86.982108	0.000294	2.939520	0.995936	0.000118
1643	1.6338e+02	-14.5969	-86.860994	0.000304	3.040882	1.030279	0.000122
1644	1.6348e+02	-14.5488	-86.780251	0.000203	2.027255	0.686853	0.000081
1645	1.6358e+02	-14.5199	-86.679323	0.000253	2.534069	0.858566	0.000101
1646	1.6368e+02	-14.4686	-86.582432	0.000243	2.432706	0.824223	0.000097
1647	1.6378e+02	-14.4317	-86.501689	0.000203	2.027255	0.686853	0.000081
1648	1.6388e+02	-14.3932	-86.412872	0.000223	2.229980	0.755538	0.000089
1649	1.6398e+02	-14.3515	-86.307906	0.000264	2.635431	0.892908	0.000105
1650	1.6408e+02	-14.3130	-86.223127	0.000213	2.128618	0.721195	0.000085
1651	1.6418e+02	-14.2809	-86.097975	0.000314	3.142245	1.064621	0.000126
1652	1.6427e+02	-14.2360	-86.001084	0.000243	2.432706	0.824223	0.000097
1653	1.6437e+02	-14.1910	-85.892081	0.000274	2.736794	0.927251	0.000110
1654	1.6447e+02	-14.1606	-85.815376	0.000193	1.925892	0.652510	0.000077
1655	1.6457e+02	-14.1044	-85.726559	0.000223	2.229980	0.755538	0.000089
1656	1.6467e+02	-14.0707	-85.625630	0.000253	2.534069	0.858566	0.000101
1657	1.6477e+02	-14.0322	-85.532776	0.000233	2.331343	0.789880	0.000093
1658	1.6487e+02	-13.9921	-85.379365	0.000385	3.851784	1.305020	0.000154
1659	1.6497e+02	-13.9600	-85.286511	0.000233	2.331343	0.789880	0.000093
1660	1.6507e+02	-13.9023	-85.234028	0.000132	1.317716	0.446454	0.000053
1661	1.6517e+02	-13.8702	-85.068506	0.000416	4.155873	1.408048	0.000166
1662	1.6527e+02	-13.8253	-84.971614	0.000243	2.432706	0.824223	0.000097
1663	1.6537e+02	-13.7980	-84.886835	0.000213	2.128618	0.721195	0.000085
1664	1.6547e+02	-13.7563	-84.781869	0.000264	2.635431	0.892908	0.000105
1665	1.6557e+02	-13.7066	-84.684978	0.000243	2.432706	0.824223	0.000097
1666	1.6567e+02	-13.6729	-84.588087	0.000243	2.432706	0.824223	0.000097
1667	1.6577e+02	-13.6392	-84.491195	0.000243	2.432706	0.824223	0.000097
1668	1.6587e+02	-13.5975	-84.374118	0.000294	2.939520	0.995936	0.000118
1669	1.6597e+02	-13.5606	-84.261079	0.000284	2.838157	0.961594	0.000114
1670	1.6607e+02	-13.5221	-84.152076	0.000274	2.736794	0.927251	0.000110
1671	1.6616e+02	-13.4723	-84.055185	0.000243	2.432706	0.824223	0.000097
1672	1.6626e+02	-13.4371	-83.905811	0.000375	3.750422	1.270677	0.000150
1673	1.6636e+02	-13.3921	-83.829105	0.000193	1.925892	0.652510	0.000077
1674	1.6646e+02	-13.3488	-83.732214	0.000243	2.432706	0.824223	0.000097
1675	1.6656e+02	-13.3103	-83.607063	0.000314	3.142245	1.064621	0.000126
1676	1.6666e+02	-13.2734	-83.506134	0.000253	2.534069	0.858566	0.000101
1677	1.6676e+02	-13.2301	-83.393094	0.000284	2.838157	0.961594	0.000114
1678	1.6686e+02	-13.1948	-83.263906	0.000324	3.243608	1.098964	0.000130
1679	1.6696e+02	-13.1627	-83.175089	0.000223	2.229980	0.755538	0.000089
1680	1.6706e+02	-13.1210	-83.049938	0.000314	3.142245	1.064621	0.000126
1681	1.6716e+02	-13.0761	-82.961121	0.000223	2.229980	0.755538	0.000089
1682	1.6726e+02	-13.0312	-82.840007	0.000304	3.040882	1.030279	0.000122
1683	1.6736e+02	-12.9943	-82.702744	0.000345	3.446333	1.167649	0.000138
1684	1.6746e+02	-12.9590	-82.626039	0.000193	1.925892	0.652510	0.000077
1685	1.6756e+02	-12.9044	-82.496850	0.000324	3.243608	1.098964	0.000130
1686	1.6766e+02	-12.8724	-82.387848	0.000274	2.736794	0.927251	0.000110
1687	1.6776e+02	-12.8274	-82.278845	0.000274	2.736794	0.927251	0.000110
1688	1.6786e+02	-12.7986	-82.133508	0.000365	3.649059	1.236335	0.000146
1689	1.6796e+02	-12.7537	-82.032580	0.000253	2.534069	0.858566	0.000101
1690	1.6806e+02	-12.7168	-81.935688	0.000243	2.432706	0.824223	0.000097
1691	1.6816e+02	-12.6815	-81.810537	0.000314	3.142245	1.064621	0.000126
1692	1.6825e+02	-12.6381	-81.649052	0.000405	4.054510	1.373705	0.000162
1693	1.6835e+02	-12.5900	-81.523901	0.000314	3.142245	1.064621	0.000126
1694	1.6845e+02	-12.5627	-81.479492	0.000111	1.114990	0.377769	0.000045
1695	1.6855e+02	-12.5275	-81.297821	0.000456	4.561324	1.545418	0.000183
1696	1.6865e+02	-12.4793	-81.200930	0.000243	2.432706	0.824223	0.000097
1697	1.6875e+02	-12.4472	-81.059630	0.000355	3.547696	1.201992	0.000142
1698	1.6885e+02	-12.4023	-80.922367	0.000345	3.446333	1.167649	0.000138
1699	1.6895e+02	-12.3574	-80.805290	0.000294	2.939520	0.995936	0.000118
1700	1.6905e+02	-12.3205	-80.728585	0.000193	1.925892	0.652510	0.000077
1701	1.6915e+02	-12.2804	-80.611508	0.000294	2.939520	0.995936	0.000118
1702	1.6925e+02	-12.2355	-80.486357	0.000314	3.142245	1.064621	0.000126
1703	1.6935e+02	-12.1954	-80.357168	0.000324	3.243608	1.098964	0.000130
1704	1.6945e+02	-12.1665	-80.227980	0.000324	3.243608	1.098964	0.000130
1705	1.6955e+02	-12.1264	-80.094754	0.000334	3.344971	1.133307	0.000134
1706	1.6965e+02	-12.0847	-79.961529	0.000334	3.344971	1.133307	0.000134
1707	1.6975e+02	-12.0446	-79.848489	0.000284	2.838157	0.961594	0.000114
1708	1.6985e+02	-11.9948	-79.759672	0.000223	2.229980	0.755538	0.000089
1709	1.6995e+02	-11.9531	-79.618372	0.000355	3.547696	1.201992	0.000142
1710	1.7005e+02	-11.9146	-79.501296	0.000294	2.939520	0.995936	0.000118
1711	1.7015e+02	-11.8777	-79.384219	0.000294	2.939520	0.995936	0.000118
1712	1.7024e+02	-11.8312	-79.234845	0.000375	3.750422	1.270677	0.000150
1713	1.7034e+02	-11.8023	-79.105656	0.000324	3.243608	1.098964	0.000130
1714	1.7044e+02	-11.7670	-78.992616	0.000284	2.838157	0.961594	0.000114
1715	1.7054e+02	-11.7302	-78.859391	0.000334	3.344971	1.133307	0.000134
1716	1.7064e+02	-11.6772	-78.722128	0.000345	3.446333	1.167649	0.000138
1717	1.7074e+02	-11.6371	-78.560643	0.000405	4.054510	1.373705	0.000162
1718	1.7084e+02	-11.6002	-78.467789	0.000233	2.331343	0.789880	0.000093
1719	1.7094e+02	-11.5745	-78.374935	0.000233	2.331343	0.789880	0.000093
1720	1.7104e+02	-11.5264	-78.221523	0.000385	3.851784	1.305020	0.000154
1721	1.7114e+02	-11.4863	-78.120595	0.000253	2.534069	0.858566	0.000101
1722	1.7124e+02	-11.4398	-77.926813	0.000487	4.865412	1.648446	0.000195
1723	1.7134e+02	-11.4077	-77.846070	0.000203	2.027255	0.686853	0.000081
1724	1.7144e+02	-11.3676	-77.704770	0.000355	3.547696	1.201992	0.000142
1725	1.7154e+02	-11.3195	-77.603842	0.000253	2.534069	0.858566	0.000101
1726	1.7164e+02	-11.2906	-77.502913	0.000253	2.534069	0.858566	0.000101
1727	1.7174e+02	-11.2393	-77.309131	0.000487	4.865412	1.648446	0.000195
1728	1.7184e+02	-11.2056	-77.167831	0.000355	3.547696	1.201992	0.000142
1729	1.7194e+02	-11.1671	-77.091125	0.000193	1.925892	0.652510	0.000077
1730	1.7204e+02	-11.1205	-76.937714	0.000385	3.851784	1.305020	0.000154
1731	1.7213e+02	-11.0756	-76.816600	0.000304	3.040882	1.030279	0.000122
1732	1.7223e+02	-11.0387	-76.675301	0.000355	3.547696	1.201992	0.000142
1733	1.7233e+02	-11.0082	-76.554186	0.000304	3.040882	1.030279	0.000122
1734	1.7243e+02	-10.9569	-76.437109	0.000294	2.939520	0.995936	0.000118
1735	1.7253e+02	-10.9264	-76.295810	0.000355	3.547696	1.201992	0.000142
1736	1.7263e+02	-10.8911	-76.227178	0.000172	1.723167	0.583825	0.000069
1737	1.7273e+02	-10.8494	-76.053582	0.000436	4.358598	1.476733	0.000174
1738	1.7283e+02	-10.8125	-75.900170	0.000385	3.851784	1.305020	0.000154
1739	1.7293e+02	-10.7644	-75.791168	0.000274	2.736794	0.927251	0.000110
1740	1.7303e+02	-10.7275	-75.657942	0.000334	3.344971	1.133307	0.000134
1741	1.7313e+02	-10.6762	-75.492420	0.000416	4.155873	1.408048	0.000166
1742	1.7323e+02	-10.6473	-75.403603	0.000223	2.229980	0.755538	0.000089
1743	1.7333e+02	-10.6152	-75.278452	0.000314	3.142245	1.064621	0.000126
1744	1.7343e+02	-10.5655	-75.149263	0.000324	3.243608	1.098964	0.000130
1745	1.7353e+02	-10.5318	-74.987778	0.000405	4.054510	1.373705	0.000162
1746	1.7363e+02	-10.4949	-74.862627	0.000314	3.142245	1.064621	0.000126
1747	1.7373e+02	-10.4452	-74.713253	0.000375	3.750422	1.270677	0.000150
1748	1.7383e+02	-10.4067	-74.584064	0.000324	3.243608	1.098964	0.000130
1749	1.7393e+02	-10.3585	-74.475062	0.000274	2.736794	0.927251	0.000110
1750	1.7403e+02	-10.3248	-74.313576	0.000405	4.054510	1.373705	0.000162
1751	1.7413e+02	-10.2944	-74.180351	0.000334	3.344971	1.133307	0.000134
1752	1.7422e+02	-10.2446	-74.063274	0.000294	2.939520	0.995936	0.000118
1753	1.7432e+02	-10.2045	-73.881603	0.000456	4.561324	1.545418	0.000183
1754	1.7442e+02	-10.1676	-73.812971	0.000172	1.723167	0.583825	0.000069
1755	1.7452e+02	-10.1291	-73.675709	0.000345	3.446333	1.167649	0.000138
1756	1.7462e+02	-10.0970	-73.526335	0.000375	3.750422	1.270677	0.000150
1757	1.7472e+02	-10.0489	-73.352738	0.000436	4.358598	1.476733	0.000174
1758	1.7482e+02	-10.0120	-73.239698	0.000284	2.838157	0.961594	0.000114
1759	1.7492e+02	-9.9671	-73.138770	0.000253	2.534069	0.858566	0.000101
1760	1.7502e+02	-9.9318	-72.944987	0.000487	4.865412	1.648446	0.000195
1761	1.7512e+02	-9.8901	-72.811762	0.000334	3.344971	1.133307	0.000134
1762	1.7522e+02	-9.8420	-72.710833	0.000253	2.534069	0.858566	0.000101
1763	1.7532e+02	-9.8115	-72.569533	0.000355	3.547696	1.201992	0.000142
1764	1.7542e+02	-9.7698	-72.436308	0.000334	3.344971	1.133307	0.000134
1765	1.7552e+02	-9.7233	-72.270785	0.000416	4.155873	1.408048	0.000166
1766	1.7562e+02	-9.6896	-72.133523	0.000345	3.446333	1.167649	0.000138
1767	1.7572e+02	-9.6527	-71.984149	0.000375	3.750422	1.270677	0.000150
1768	1.7582e+02	-9.6142	-71.867072	0.000294	2.939520	0.995936	0.000118
1769	1.7592e+02	-9.5709	-71.685401	0.000456	4.561324	1.545418	0.000183
1770	1.7602e+02	-9.5324	-71.523915	0.000405	4.054510	1.373705	0.000162
1771	1.7612e+02	-9.4890	-71.455284	0.000172	1.723167	0.583825	0.000069
1772	1.7621e+02	-9.4537	-71.285724	0.000426	4.257235	1.442390	0.000170
1773	1.7631e+02	-9.4136	-71.144425	0.000355	3.547696	1.201992	0.000142
1774	1.7641e+02	-9.3639	-71.019273	0.000314	3.142245	1.064621	0.000126
1775	1.7651e+02	-9.3334	-70.898159	0.000304	3.040882	1.030279	0.000122
1776	1.7661e+02	-9.2869	-70.728600	0.000426	4.257235	1.442390	0.000170
1777	1.7671e+02	-9.2532	-70.579226	0.000375	3.750422	1.270677	0.000150
1778	1.7681e+02	-9.2131	-70.433889	0.000365	3.649059	1.236335	0.000146
1779	1.7691e+02	-9.1762	-70.284515	0.000375	3.750422	1.270677	0.000150
1780	1.7701e+02	-9.1281	-70.187623	0.000243	2.432706	0.824223	0.000097
1781	1.7711e+02	-9.0976	-70.030175	0.000395	3.953147	1.339363	0.000158
1782	1.7721e+02	-9.0511	-69.872727	0.000395	3.953147	1.339363	0.000158
1783	1.7731e+02	-9.0158	-69.731427	0.000355	3.547696	1.201992	0.000142
1784	1.7741e+02	-8.9677	-69.557830	0.000436	4.358598	1.476733	0.000174
1785	1.7751e+02	-8.9308	-69.440753	0.000294	2.939520	0.995936	0.000118
1786	1.7761e+02	-8.8955	-69.311565	0.000324	3.243608	1.098964	0.000130
1787	1.7771e+02	-8.8506	-69.178339	0.000334	3.344971	1.133307	0.000134
1788	1.7781e+02	-8.8121	-69.024928	0.000385	3.851784	1.305020	0.000154
1789	1.7791e+02	-8.7719	-68.843257	0.000456	4.561324	1.545418	0.000183
1790	1.7801e+02	-8.7350	-68.705995	0.000345	3.446333	1.167649	0.000138
1791	1.7810e+02	-8.6982	-68.572769	0.000334	3.344971	1.133307	0.000134
1792	1.7820e+02	-8.6580	-68.427432	0.000365	3.649059	1.236335	0.000146
1793	1.7830e+02	-8.6131	-68.249798	0.000446	4.459961	1.511076	0.000179
1794	1.7840e+02	-8.5682	-68.173093	0.000193	1.925892	0.652510	0.000077
1795	1.7850e+02	-8.5313	-67.975273	0.000497	4.966775	1.682789	0.000199
1796	1.7860e+02	-8.4944	-67.854159	0.000304	3.040882	1.030279	0.000122
1797	1.7870e+02	-8.4575	-67.688636	0.000416	4.155873	1.408048	0.000166
1798	1.7880e+02	-8.4110	-67.494854	0.000487	4.865412	1.648446	0.000195
1799	1.7890e+02	-8.3789	-67.406037	0.000223	2.229980	0.755538	0.000089
1800	1.7900e+02	-8.3324	-67.212254	0.000487	4.865412	1.648446	0.000195
1801	1.7910e+02	-8.2955	-67.058843	0.000385	3.851784	1.305020	0.000154
1802	1.7920e+02	-8.2522	-66.970026	0.000223	2.229980	0.755538	0.000089
1803	1.7930e+02	-8.2137	-66.747984	0.000557	5.574951	1.888845	0.000223
1804	1.7940e+02	-8.1736	-66.614758	0.000334	3.344971	1.133307	0.000134
1805	1.7950e+02	-8.1335	-66.457310	0.000395	3.953147	1.339363	0.000158
1806	1.7960e+02	-8.1030	-66.299862	0.000395	3.953147	1.339363	0.000158
1807	1.7970e+02	-8.0597	-66.126265	0.000436	4.358598	1.476733	0.000174
1808	1.7980e+02	-8.0244	-66.013225	0.000284	2.838157	0.961594	0.000114
1809	1.7990e+02	-7.9714	-65.843665	0.000426	4.257235	1.442390	0.000170
1810	1.8000e+02	-7.9313	-65.686217	0.000395	3.953147	1.339363	0.000158
1811	1.8009e+02	-7.8960	-65.516657	0.000426	4.257235	1.442390	0.000170
1812	1.8019e+02	-7.8527	-65.355172	0.000405	4.054510	1.373705	0.000162
1813	1.8029e+02	-7.8254	-65.209835	0.000365	3.649059	1.236335	0.000146
1814	1.8039e+02	-7.7757	-65.032201	0.000446	4.459961	1.511076	0.000179
1815	1.8049e+02	-7.7324	-64.866678	0.000416	4.155873	1.408048	0.000166
1816	1.8059e+02	-7.6987	-64.725379	0.000355	3.547696	1.201992	0.000142
1817	1.8069e+02	-7.6522	-64.559856	0.000416	4.155873	1.408048	0.000166
1818	1.8079e+02	-7.6249	-64.426631	0.000334	3.344971	1.133307	0.000134
1819	1.8089e+02	-7.5784	-64.248997	0.000446	4.459961	1.511076	0.000179
1820	1.8099e+02	-7.5367	-64.079437	0.000426	4.257235	1.442390	0.000170
1821	1.8109e+02	-7.5030	-63.942174	0.000345	3.446333	1.167649	0.000138
1822	1.8119e+02	-7.4549	-63.772615	0.000426	4.257235	1.442390	0.000170
1823	1.8129e+02	-7.4148	-63.578832	0.000487	4.865412	1.648446	0.000195
1824	1.8139e+02	-7.3811	-63.461755	0.000294	2.939520	0.995936	0.000118
1825	1.8149e+02	-7.3442	-63.272010	0.000476	4.764049	1.614104	0.000191
1826	1.8159e+02	-7.3057	-63.114562	0.000395	3.953147	1.339363	0.000158
1827	1.8169e+02	-7.2672	-62.961150	0.000385	3.851784	1.305020	0.000154
1828	1.8179e+02	-7.2174	-62.767368	0.000487	4.865412	1.648446	0.000195
1829	1.8189e+02	-7.1886	-62.626068	0.000355	3.547696	1.201992	0.000142
1830	1.8199e+02	-7.1372	-62.452471	0.000436	4.358598	1.476733	0.000174
1831	1.8209e+02	-7.1084	-62.266763	0.000466	4.662686	1.579761	0.000187
1832	1.8218e+02	-7.0602	-62.125463	0.000355	3.547696	1.201992	0.000142
1833	1.8228e+02	-7.0185	-61.972052	0.000385	3.851784	1.305020	0.000154
1834	1.8238e+02	-6.9768	-61.778270	0.000487	4.865412	1.648446	0.000195
1835	1.8248e+02	-6.9415	-61.584487	0.000487	4.865412	1.648446	0.000195
1836	1.8258e+02	-6.8950	-61.459336	0.000314	3.142245	1.064621	0.000126
1837	1.8268e+02	-6.8613	-61.309962	0.000375	3.750422	1.270677	0.000150
1838	1.8278e+02	-6.8132	-61.079845	0.000578	5.777677	1.957530	0.000231
1839	1.8288e+02	-6.7715	-60.974880	0.000264	2.635431	0.892908	0.000105
1840	1.8298e+02	-6.7490	-60.768986	0.000517	5.169500	1.751474	0.000207
1841	1.8308e+02	-6.6977	-60.595389	0.000436	4.358598	1.476733	0.000174
1842	1.8318e+02	-6.6656	-60.417755	0.000446	4.459961	1.511076	0.000179
1843	1.8328e+02	-6.6175	-60.248195	0.000426	4.257235	1.442390	0.000170
1844	1.8338e+02	-6.5693	-60.098821	0.000375	3.750422	1.270677	0.000150
1845	1.8348e+02	-6.5453	-59.856593	0.000608	6.081765	2.060558	0.000243
1846	1.8358e+02	-6.5020	-59.747590	0.000274	2.736794	0.927251	0.000110
1847	1.8368e+02	-6.4635	-59.565919	0.000456	4.561324	1.545418	0.000183
1848	1.8378e+02	-6.4298	-59.384248	0.000456	4.561324	1.545418	0.000183
1849	1.8388e+02	-6.3832	-59.210651	0.000436	4.358598	1.476733	0.000174
1850	1.8398e+02	-6.3479	-59.057240	0.000385	3.851784	1.305020	0.000154
1851	1.8407e+02	-6.3094	-58.883643	0.000436	4.358598	1.476733	0.000174
1852	1.8417e+02	-6.2726	-58.714084	0.000426	4.257235	1.442390	0.000170
1853	1.8427e+02	-6.2292	-58.560672	0.000385	3.851784	1.305020	0.000154
1854	1.8437e+02	-6.1779	-58.383038	0.000446	4.459961	1.511076	0.000179
1855	1.8447e+02	-6.1458	-58.189256	0.000487	4.865412	1.648446	0.000195
1856	1.8457e+02	-6.1105	-57.975288	0.000537	5.372226	1.820159	0.000215
1857	1.8467e+02	-6.0608	-57.842062	0.000334	3.344971	1.133307	0.000134
1858	1.8477e+02	-6.0239	-57.664428	0.000446	4.459961	1.511076	0.000179
1859	1.8487e+02	-5.9902	-57.458534	0.000517	5.169500	1.751474	0.000207
1860	1.8497e+02	-5.9533	-57.280900	0.000446	4.459961	1.511076	0.000179
1861	1.8507e+02	-5.9020	-57.111341	0.000426	4.257235	1.442390	0.000170
1862	1.8517e+02	-5.8683	-56.941781	0.000426	4.257235	1.442390	0.000170
1863	1.8527e+02	-5.8266	-56.731850	0.000527	5.270863	1.785817	0.000211
1864	1.8537e+02	-5.7865	-56.542105	0.000476	4.764049	1.614104	0.000191
1865	1.8547e+02	-5.7480	-56.388693	0.000385	3.851784	1.305020	0.000154
1866	1.8557e+02	-5.7095	-56.215097	0.000436	4.358598	1.476733	0.000174
1867	1.8567e+02	-5.6662	-56.009203	0.000517	5.169500	1.751474	0.000207
1868	1.8577e+02	-5.6212	-55.843680	0.000416	4.155873	1.408048	0.000166
1869	1.8587e+02	-5.5924	-55.641823	0.000507	5.068137	1.717131	0.000203
1870	1.8597e+02	-5.5474	-55.484375	0.000395	3.953147	1.339363	0.000158
1871	1.8606e+02	-5.5170	-55.266370	0.000547	5.473588	1.854502	0.000219
1872	1.8616e+02	-5.4672	-55.064513	0.000507	5.068137	1.717131	0.000203
1873	1.8626e+02	-5.4351	-54.907065	0.000395	3.953147	1.339363	0.000158
1874	1.8636e+02	-5.3822	-54.733468	0.000436	4.358598	1.476733	0.000174
1875	1.8646e+02	-5.3565	-54.539685	0.000487	4.865412	1.648446	0.000195
1876	1.8656e+02	-5.3068	-54.366088	0.000436	4.358598	1.476733	0.000174
1877	1.8666e+02	-5.2651	-54.180380	0.000466	4.662686	1.579761	0.000187
1878	1.8676e+02	-5.2314	-53.990635	0.000476	4.764049	1.614104	0.000191
1879	1.8686e+02	-5.1913	-53.792815	0.000497	4.966775	1.682789	0.000199
1880	1.8696e+02	-5.1528	-53.627293	0.000416	4.155873	1.408048	0.000166
1881	1.8706e+02	-5.1127	-53.405250	0.000557	5.574951	1.888845	0.000223
1882	1.8716e+02	-5.0742	-53.259913	0.000365	3.649059	1.236335	0.000146
1883	1.8726e+02	-5.0389	-53.029796	0.000578	5.777677	1.957530	0.000231
1884	1.8736e+02	-4.9860	-52.880422	0.000375	3.750422	1.270677	0.000150
1885	1.8746e+02	-4.9491	-52.682603	0.000497	4.966775	1.682789	0.000199
1886	1.8756e+02	-4.9090	-52.533229	0.000375	3.750422	1.270677	0.000150
1887	1.8766e+02	-4.8753	-52.295038	0.000598	5.980402	2.026215	0.000239
1888	1.8776e+02	-4.8336	-52.125478	0.000426	4.257235	1.442390	0.000170
1889	1.8786e+02	-4.7934	-51.923621	0.000507	5.068137	1.717131	0.000203
1890	1.8796e+02	-4.7598	-51.713690	0.000527	5.270863	1.785817	0.000211
1891	1.8806e+02	-4.7116	-51.511833	0.000507	5.068137	1.717131	0.000203
1892	1.8815e+02	-4.6651	-51.322088	0.000476	4.764049	1.614104	0.000191
1893	1.8825e+02	-4.6314	-51.184825	0.000345	3.446333	1.167649	0.000138
1894	1.8835e+02	-4.5881	-50.938560	0.000618	6.183128	2.094900	0.000248
1895	1.8845e+02	-4.5544	-50.785149	0.000385	3.851784	1.305020	0.000154
1896	1.8855e+02	-4.5239	-50.607515	0.000446	4.459961	1.511076	0.000179
1897	1.8865e+02	-4.4758	-50.413733	0.000487	4.865412	1.648446	0.000195
1898	1.8875e+02	-4.4293	-50.232061	0.000456	4.561324	1.545418	0.000183
1899	1.8885e+02	-4.3972	-49.997908	0.000588	5.879039	1.991872	0.000235
1900	1.8895e+02	-4.3491	-49.832385	0.000416	4.155873	1.408048	0.000166
1901	1.8905e+02	-4.3074	-49.630528	0.000507	5.068137	1.717131	0.000203
1902	1.8915e+02	-4.2753	-49.424634	0.000517	5.169500	1.751474	0.000207
1903	1.8925e+02	-4.2288	-49.206629	0.000547	5.473588	1.854502	0.000219
1904	1.8935e+02	-4.1919	-49.061292	0.000365	3.649059	1.236335	0.000146
1905	1.8945e+02	-4.1614	-48.871547	0.000476	4.764049	1.614104	0.000191
1906	1.8955e+02	-4.1084	-48.677764	0.000487	4.865412	1.648446	0.000195
1907	1.8965e+02	-4.0635	-48.447647	0.000578	5.777677	1.957530	0.000231
1908	1.8975e+02	-4.0362	-48.261939	0.000466	4.662686	1.579761	0.000187
1909	1.8985e+02	-3.9913	-48.100454	0.000405	4.054510	1.373705	0.000162
1910	1.8995e+02	-3.9528	-47.943005	0.000395	3.953147	1.339363	0.000158
1911	1.9004e+02	-3.9079	-47.700777	0.000608	6.081765	2.060558	0.000243
1912	1.9014e+02	-3.8726	-47.519106	0.000456	4.561324	1.545418	0.000183
1913	1.9024e+02	-3.8357	-47.321287	0.000497	4.966775	1.682789	0.000199
1914	1.9034e+02	-3.7860	-47.127504	0.000487	4.865412	1.648446	0.000195
1915	1.9044e+02	-3.7587	-46.881239	0.000618	6.183128	2.094900	0.000248
1916	1.9054e+02	-3.7138	-46.723790	0.000395	3.953147	1.339363	0.000158
1917	1.9064e+02	-3.6785	-46.517897	0.000517	5.169500	1.751474	0.000207
1918	1.9074e+02	-3.6384	-46.336225	0.000456	4.561324	1.545418	0.000183
1919	1.9084e+02	-3.5983	-46.102072	0.000588	5.879039	1.991872	0.000235
1920	1.9094e+02	-3.5550	-45.940586	0.000405	4.054510	1.373705	0.000162
1921	1.9104e+02	-3.5133	-45.730655	0.000527	5.270863	1.785817	0.000211
1922	1.9114e+02	-3.4764	-45.516687	0.000537	5.372226	1.820159	0.000215
1923	1.9124e+02	-3.4427	-45.314830	0.000507	5.068137	1.717131	0.000203
1924	1.9134e+02	-3.3962	-45.133159	0.000456	4.561324	1.545418	0.000183
1925	1.9144e+02	-3.3577	-44.927265	0.000517	5.169500	1.751474	0.000207
1926	1.9154e+02	-3.3192	-44.668888	0.000649	6.487216	2.197928	0.000260
1927	1.9164e+02	-3.2710	-44.499329	0.000426	4.257235	1.442390	0.000170
1928	1.9174e+02	-3.2277	-44.325732	0.000436	4.358598	1.476733	0.000174
1929	1.9184e+02	-3.1972	-44.083504	0.000608	6.081765	2.060558	0.000243
1930	1.9194e+02	-3.1571	-43.922018	0.000405	4.054510	1.373705	0.000162
1931	1.9203e+02	-3.1266	-43.699976	0.000557	5.574951	1.888845	0.000223
1932	1.9213e+02	-3.0865	-43.526379	0.000436	4.358598	1.476733	0.000174
1933	1.9223e+02	-3.0432	-43.268002	0.000649	6.487216	2.197928	0.000260
1934	1.9233e+02	-3.0063	-43.062108	0.000517	5.169500	1.751474	0.000207
1935	1.9243e+02	-2.9422	-42.888512	0.000436	4.358598	1.476733	0.000174
1936	1.9253e+02	-2.9149	-42.662432	0.000568	5.676314	1.923187	0.000227
1937	1.9263e+02	-2.8684	-42.452501	0.000527	5.270863	1.785817	0.000211
1938	1.9273e+02	-2.8459	-42.250644	0.000507	5.068137	1.717131	0.000203
1939	1.9283e+02	-2.7978	-42.048787	0.000507	5.068137	1.717131	0.000203
1940	1.9293e+02	-2.7641	-41.834819	0.000537	5.372226	1.820159	0.000215
1941	1.9303e+02	-2.7256	-41.636999	0.000497	4.966775	1.682789	0.000199
1942	1.9313e+02	-2.6791	-41.479551	0.000395	3.953147	1.339363	0.000158
1943	1.9323e+02	-2.6325	-41.209063	0.000679	6.791304	2.300956	0.000272
1944	1.9333e+02	-2.6069	-41.047578	0.000405	4.054510	1.373705	0.000162
1945	1.9343e+02	-2.5571	-40.748830	0.000750	7.500843	2.541355	0.000300
1946	1.9353e+02	-2.5186	-40.611567	0.000345	3.446333	1.167649	0.000138
1947	1.9363e+02	-2.4753	-40.397599	0.000537	5.372226	1.820159	0.000215
1948	1.9373e+02	-2.4368	-40.171519	0.000568	5.676314	1.923187	0.000227
1949	1.9383e+02	-2.4047	-39.985811	0.000466	4.662686	1.579761	0.000187
1950	1.9393e+02	-2.3582	-39.771843	0.000537	5.372226	1.820159	0.000215
1951	1.9403e+02	-2.3181	-39.533652	0.000598	5.980402	2.026215	0.000239
1952	1.9412e+02	-2.2732	-39.323721	0.000527	5.270863	1.785817	0.000211
1953	1.9422e+02	-2.2443	-39.097641	0.000568	5.676314	1.923187	0.000227
1954	1.9432e+02	-2.2090	-38.883673	0.000537	5.372226	1.820159	0.000215
1955	1.9442e+02	-2.1577	-38.673742	0.000527	5.270863	1.785817	0.000211
1956	1.9452e+02	-2.1240	-38.483996	0.000476	4.764049	1.614104	0.000191
1957	1.9462e+02	-2.0775	-38.261954	0.000557	5.574951	1.888845	0.000223
1958	1.9472e+02	-2.0406	-38.031837	0.000578	5.777677	1.957530	0.000231
1959	1.9482e+02	-2.0005	-37.817869	0.000537	5.372226	1.820159	0.000215
1960	1.9492e+02	-1.9507	-37.579678	0.000598	5.980402	2.026215	0.000239
1961	1.9502e+02	-1.9219	-37.393970	0.000466	4.662686	1.579761	0.000187
1962	1.9512e+02	-1.8818	-37.180002	0.000537	5.372226	1.820159	0.000215
1963	1.9522e+02	-1.8481	-36.949885	0.000578	5.777677	1.957530	0.000231
1964	1.9532e+02	-1.8160	-36.739954	0.000527	5.270863	1.785817	0.000211
1965	1.9542e+02	-1.7566	-36.489651	0.000628	6.284490	2.129243	0.000252
1966	1.9552e+02	-1.7229	-36.275683	0.000537	5.372226	1.820159	0.000215
1967	1.9562e+02	-1.6812	-36.073826	0.000507	5.068137	1.717131	0.000203
1968	1.9572e+02	-1.6475	-35.847747	0.000568	5.676314	1.923187	0.000227
1969	1.9582e+02	-1.6106	-35.597444	0.000628	6.284490	2.129243	0.000252
1970	1.9592e+02	-1.5625	-35.387513	0.000527	5.270863	1.785817	0.000211
1971	1.9601e+02	-1.5256	-35.165471	0.000557	5.574951	1.888845	0.000223
1972	1.9611e+02	-1.4759	-34.963614	0.000507	5.068137	1.717131	0.000203
1973	1.9621e+02	-1.4438	-34.765794	0.000497	4.966775	1.682789	0.000199
1974	1.9631e+02	-1.4021	-34.495306	0.000679	6.791304	2.300956	0.000272
1975	1.9641e+02	-1.3652	-34.277301	0.000547	5.473588	1.854502	0.000219
1976	1.9651e+02	-1.3123	-34.051221	0.000568	5.676314	1.923187	0.000227
1977	1.9661e+02	-1.2786	-33.760548	0.000730	7.298118	2.472669	0.000292
1978	1.9671e+02	-1.2369	-33.586951	0.000436	4.358598	1.476733	0.000174
1979	1.9681e+02	-1.2096	-33.316463	0.000679	6.791304	2.300956	0.000272
1980	1.9691e+02	-1.1647	-33.090383	0.000568	5.676314	1.923187	0.000227
1981	1.9701e+02	-1.1246	-32.908712	0.000456	4.561324	1.545418	0.000183
1982	1.9711e+02	-1.0845	-32.666484	0.000608	6.081765	2.060558	0.000243
1983	1.9721e+02	-1.0411	-32.375810	0.000730	7.298118	2.472669	0.000292
1984	1.9731e+02	-1.0123	-32.169916	0.000517	5.169500	1.751474	0.000207
1985	1.9741e+02	-0.9690	-31.984208	0.000466	4.662686	1.579761	0.000187
1986	1.9751e+02	-0.9208	-31.717757	0.000669	6.689941	2.266613	0.000268
1987	1.9761e+02	-0.8871	-31.483603	0.000588	5.879039	1.991872	0.000235
1988	1.9771e+02	-0.8422	-31.241375	0.000608	6.081765	2.060558	0.000243
1989	1.9781e+02	-0.7957	-31.023370	0.000547	5.473588	1.854502	0.000219
1990	1.9791e+02	-0.7636	-30.752881	0.000679	6.791304	2.300956	0.000272
1991	1.9800e+02	-0.7315	-30.563136	0.000476	4.764049	1.614104	0.000191
1992	1.9810e+02	-0.6834	-30.288611	0.000689	6.892667	2.335299	0.000276
1993	1.9820e+02	-0.6401	-30.046383	0.000608	6.081765	2.060558	0.000243
1994	1.9830e+02	-0.6080	-29.856637	0.000476	4.764049	1.614104	0.000191
1995	1.9840e+02	-0.5631	-29.549815	0.000770	7.703569	2.610040	0.000308
1996	1.9850e+02	-0.5310	-29.360070	0.000476	4.764049	1.614104	0.000191
1997	1.9860e+02	-0.4893	-29.093619	0.000669	6.689941	2.266613	0.000268
1998	1.9870e+02	-0.4476	-28.847353	0.000618	6.183128	2.094900	0.000248
1999	1.9880e+02	-0.4075	-28.645497	0.000507	5.068137	1.717131	0.000203
2000	1.9890e+02	-0.3610	-28.358860	0.000720	7.196755	2.438327	0.000288
2001	1.9900e+02	-0.3257	-28.140855	0.000547	5.473588	1.854502	0.000219
2002	1.9910e+02	-0.2823	-27.898627	0.000608	6.081765	2.060558	0.000243
2003	1.9920e+02	-0.2519	-27.660436	0.000598	5.980402	2.026215	0.000239
2004	1.9930e+02	-0.2150	-27.389947	0.000679	6.791304	2.300956	0.000272
2005	1.9940e+02	-0.1604	-27.175979	0.000537	5.372226	1.820159	0.000215
2006	1.9950e+02	-0.1315	-26.937788	0.000598	5.980402	2.026215	0.000239
2007	1.9960e+02	-0.0930	-26.687486	0.000628	6.284490	2.129243	0.000252
2008	1.9970e+02	-0.0433	-26.441221	0.000618	6.183128	2.094900	0.000248
2009	1.9980e+02	-0.0096	-26.142472	0.000618	6.183128	2.094900	0.000300

Center data before PMax,+/-Pr and +/-Vc Calc.

PMax (uC/cm2):	9.34e+01
Pr (uC/cm2):	2.02e+01
-Pr (uC/cm2):	-2.61e+01
PLoss (uC/cm2):	-1.78e+01
Vc:	2.09e+00
-Vc:	-3.20e+00
C (Max-Eff) (nF):	4.67e-01
K (Eff):	1.58e+03
Vert. (+/-Pr) Shift (uC/cm2):	-2.97e+00
Horiz. Shift (+/-Vc):	-5.54e-01
Offset (uC/cm2):	8.34e+00

A (Loop Area - uC/cm2·Volts):	3.43e-01



Hysteresis Version: 5.48.1 - Radiant Technologies, Inc., 1999 - 9/12/24

