»»»»»»»»»»»»»»»»»»»»»»»»»»»»»»»»»»»» Hysteresis ««««««««««««««««««««««««««««««««««««
»»»  Executed Version:	5.48.1
»»»  Vision Version:	5.48.4 (R)
»»»  Vision Compiled:	9/18/24
»»»  Driver Version:	5.47.0
»»»  Windows Version:	Windows 8 or 8.1
»»»  Processor Information:	x86 (AMD or Intel) - 32 Processors
»»»  Tester Name:	PMF21124-494 (100V)
»»»  Tester S/N:	PMF21124-494
»»»  Internal Amp Type:	100V RevK 270k
»»»  Internal Amp S/N:	iAB2-596/K     
»»»  Execution Count:	1
»»»»»»»»»»»»»»»»»»»»»»»»»»»»»»»»»»»»»»»»»»««««««««««««««««««««««««««««««««««««««««««

Stored:	6/5/2025 - 15:3:55
Configured:	06/05/25 02:51:50 PM
Executed:	06/05/25 03:03:26 PM

»»»»»»»»»»»»»»»»»»»»»»»»»»»»»»»»»»» Sample Info ««««««««««««««««««««««««««««««««««««
Sample Name:	
Lot Name:	
Wafer Name:	
Die Row/Column:	0/0
Capacitor Number:	0
Sample Area (cm2):	1.00e-04
Sample Thickness (microns):	3.00e-01

Amplifier:	Internal

»»»»»»»»»»»»»»»»»»»»»»»»»»»»»»»»»»» Tester Info «««««««««««««««««««««««««««««««««««
Tester Name:	PMF21124-494 (100V)
Tester Serial Number:	PMF21124-494
Return Signal Amp. Level:	0.19 [Index: 3]

»»»»»»»»»»»»»»»»»»»»»»»»»»»»»»»» Hysteresis Info ««««««««««««««««««««««««««««««««««
Task Name:	Hyst-353
Volts:	20.00
Field:	666.67 (kV/cm)
DCBias:	0.00
DCField:	0.00 (kV/cm)
Hysteresis Period (ms):	1.00e+00
Preset:	Enabled
Preset Delay (ms):	1.00e+03
Profile:	Standard Bipolar

»»»»»»»»»»»»»»»»»»»»»»»»»»»»»»»»»»»»»» Data «««««««««««««««««««««««««««««««««««««««
Points:	2001

Valid Data

Point	Time (ms)	Drive Voltage	Measured Polarization (uC/cm2)	Capacitance (uF)	Normalized Capacitance (uF/cm2)	Dielectric Constant	Instantaneous Current (mA)
   1	0.0000e+00	-0.0048	-0.034281	0.001283	12.826225	4.345643	0.102441
   2	5.0000e-04	0.0112	0.477922	0.001283	12.826225	4.345643	0.102441
   3	1.0000e-03	0.0401	0.284333	-0.000485	-4.847707	-1.642448	-0.038718
   4	1.5000e-03	0.0802	0.526319	0.000606	6.059634	2.053060	0.048397
   5	2.0000e-03	0.1059	0.869133	0.000858	8.584482	2.908501	0.068563
   6	2.5000e-03	0.1492	1.010291	0.000353	3.534787	1.197618	0.028232
   7	3.0000e-03	0.1941	1.345038	0.000838	8.382494	2.840066	0.066949
   8	3.5000e-03	0.2358	1.324873	-0.000050	-0.504970	-0.171088	-0.004033
   9	4.0000e-03	0.2759	1.748348	0.001060	10.604360	3.592854	0.084695
  10	4.5000e-03	0.3096	2.062930	0.000788	7.877524	2.668977	0.062916
  11	5.0000e-03	0.3642	2.232320	0.000424	4.241744	1.437142	0.033878
  12	5.5000e-03	0.3962	2.373479	0.000353	3.534787	1.197618	0.028232
  13	6.0000e-03	0.4235	2.966344	0.001485	14.846103	5.029996	0.118573
  14	6.5000e-03	0.4668	2.934079	-0.000081	-0.807951	-0.273741	-0.006453
  15	7.0000e-03	0.5166	3.228495	0.000737	7.372555	2.497889	0.058883
  16	7.5000e-03	0.5486	3.571309	0.000858	8.584482	2.908501	0.068563
  17	8.0000e-03	0.5968	3.849593	0.000697	6.968579	2.361019	0.055657
  18	8.5000e-03	0.6337	4.055281	0.000515	5.150689	1.745101	0.041138
  19	9.0000e-03	0.6706	4.454557	0.001000	9.998396	3.387548	0.079855
  20	9.5000e-03	0.7187	4.567484	0.000283	2.827829	0.958094	0.022585
  21	1.0000e-02	0.7620	4.753007	0.000465	4.645719	1.574012	0.037105
  22	1.0500e-02	0.8069	5.015158	0.000656	6.564604	2.224148	0.052430
  23	1.1000e-02	0.8310	5.253111	0.000596	5.958640	2.018842	0.047591
  24	1.1500e-02	0.8791	5.547527	0.000737	7.372555	2.497889	0.058883
  25	1.2000e-02	0.9160	5.966969	0.001050	10.503366	3.558637	0.083888
  26	1.2500e-02	0.9593	6.208955	0.000606	6.059634	2.053060	0.048397
  27	1.3000e-02	1.0026	6.624364	0.001040	10.402372	3.524419	0.083082
  28	1.3500e-02	1.0347	6.898615	0.000687	6.867585	2.326801	0.054850
  29	1.4000e-02	1.0716	7.007509	0.000273	2.726835	0.923877	0.021779
  30	1.4500e-02	1.1133	7.297892	0.000727	7.271561	2.463672	0.058077
  31	1.5000e-02	1.1502	7.515679	0.000545	5.453671	1.847754	0.043557
  32	1.5500e-02	1.1823	7.846393	0.000828	8.281500	2.805848	0.066143
  33	1.6000e-02	1.2256	8.084346	0.000596	5.958640	2.018842	0.047591
  34	1.6500e-02	1.2786	8.419093	0.000838	8.382494	2.840066	0.066949
  35	1.7000e-02	1.3123	8.689311	0.000677	6.766591	2.292583	0.054044
  36	1.7500e-02	1.3524	8.790138	0.000252	2.524848	0.855441	0.020165
  37	1.8000e-02	1.4069	9.064389	0.000687	6.867585	2.326801	0.054850
  38	1.8500e-02	1.4358	9.415269	0.000879	8.786469	2.976936	0.070176
  39	1.9000e-02	1.4743	9.600791	0.000465	4.645719	1.574012	0.037105
  40	1.9500e-02	1.5128	9.927472	0.000818	8.180506	2.771630	0.065336
  41	2.0000e-02	1.5513	10.193657	0.000667	6.665597	2.258366	0.053237
  42	2.0500e-02	1.5930	10.532437	0.000848	8.483488	2.874283	0.067756
  43	2.1000e-02	1.6299	10.968012	0.001091	10.907341	3.695507	0.087115
  44	2.1500e-02	1.6700	11.201931	0.000586	5.857646	1.984624	0.046784
  45	2.2000e-02	1.7229	11.476182	0.000687	6.867585	2.326801	0.054850
  46	2.2500e-02	1.7486	11.685903	0.000525	5.251683	1.779318	0.041944
  47	2.3000e-02	1.7871	12.044849	0.000899	8.988457	3.045372	0.071789
  48	2.3500e-02	1.8272	12.218272	0.000434	4.342738	1.471359	0.034685
  49	2.4000e-02	1.8705	12.452192	0.000586	5.857646	1.984624	0.046784
  50	2.4500e-02	1.9122	12.690145	0.000596	5.958640	2.018842	0.047591
  51	2.5000e-02	1.9491	12.710310	0.000050	0.504970	0.171088	0.004033
  52	2.5500e-02	2.0005	13.101521	0.000980	9.796408	3.319113	0.078242
  53	2.6000e-02	2.0261	13.549195	0.001121	11.210323	3.798160	0.089535
  54	2.6500e-02	2.0743	13.650022	0.000252	2.524848	0.855441	0.020165
  55	2.7000e-02	2.1080	13.956538	0.000768	7.675536	2.600542	0.061303
  56	2.7500e-02	2.1593	14.198524	0.000606	6.059634	2.053060	0.048397
  57	2.8000e-02	2.1898	14.569569	0.000929	9.291439	3.148025	0.074209
  58	2.8500e-02	2.2299	14.839786	0.000677	6.766591	2.292583	0.054044
  59	2.9000e-02	2.2780	15.114037	0.000687	6.867585	2.326801	0.054850
  60	2.9500e-02	2.3149	15.299560	0.000465	4.645719	1.574012	0.037105
  61	3.0000e-02	2.3598	15.787564	0.001222	12.220262	4.140337	0.097601
  62	3.0500e-02	2.3951	15.755300	-0.000081	-0.807951	-0.273741	-0.006453
  63	3.1000e-02	2.4400	16.198941	0.001111	11.109329	3.763943	0.088728
  64	3.1500e-02	2.4705	16.388496	0.000475	4.746713	1.608230	0.037911
  65	3.2000e-02	2.5186	16.561919	0.000434	4.342738	1.471359	0.034685
  66	3.2500e-02	2.5491	16.787773	0.000566	5.655658	1.916189	0.045171
  67	3.3000e-02	2.5908	17.283844	0.001242	12.422250	4.208772	0.099214
  68	3.3500e-02	2.6309	17.566161	0.000707	7.069573	2.395236	0.056463
  69	3.4000e-02	2.6791	17.868643	0.000757	7.574543	2.566324	0.060496
  70	3.4500e-02	2.7192	18.134828	0.000667	6.665597	2.258366	0.053237
  71	3.5000e-02	2.7577	18.388913	0.000636	6.362616	2.155713	0.050817
  72	3.5500e-02	2.7914	18.542171	0.000384	3.837768	1.300271	0.030652
  73	3.6000e-02	2.8395	18.820455	0.000697	6.968579	2.361019	0.055657
  74	3.6500e-02	2.8780	19.078573	0.000646	6.463610	2.189930	0.051624
  75	3.7000e-02	2.9117	19.377022	0.000747	7.473549	2.532107	0.059690
  76	3.7500e-02	2.9518	19.639174	0.000656	6.564604	2.224148	0.052430
  77	3.8000e-02	2.9967	20.014252	0.000939	9.392433	3.182242	0.075016
  78	3.8500e-02	3.0336	20.211874	0.000495	4.948701	1.676665	0.039524
  79	3.9000e-02	3.0769	20.474025	0.000656	6.564604	2.224148	0.052430
  80	3.9500e-02	3.1186	20.974129	0.001252	12.523244	4.242990	0.100021
  81	4.0000e-02	3.1539	20.881368	-0.000232	-2.322860	-0.787006	-0.018552
  82	4.0500e-02	3.2004	21.131420	0.000626	6.261622	2.121495	0.050010
  83	4.1000e-02	3.2341	21.587160	0.001141	11.412311	3.866596	0.091148
  84	4.1500e-02	3.2758	21.990470	0.001010	10.099390	3.421766	0.080662
  85	4.2000e-02	3.3143	22.305052	0.000788	7.877524	2.668977	0.062916
  86	4.2500e-02	3.3496	22.494607	0.000475	4.746713	1.608230	0.037911
  87	4.3000e-02	3.3930	22.704329	0.000525	5.251683	1.779318	0.041944
  88	4.3500e-02	3.4347	22.845487	0.000353	3.534787	1.197618	0.028232
  89	4.4000e-02	3.4780	23.285095	0.001101	11.008335	3.729725	0.087922
  90	4.4500e-02	3.5101	23.551279	0.000667	6.665597	2.258366	0.053237
  91	4.5000e-02	3.5518	23.635974	0.000212	2.120872	0.718571	0.016939
  92	4.5500e-02	3.5951	24.087681	0.001131	11.311317	3.832378	0.090341
  93	4.6000e-02	3.6400	24.450660	0.000909	9.089451	3.079589	0.072596
  94	4.6500e-02	3.6705	24.507124	0.000141	1.413915	0.479047	0.011293
  95	4.7000e-02	3.7170	24.974963	0.001172	11.715292	3.969249	0.093568
  96	4.7500e-02	3.7651	25.099989	0.000313	3.130811	1.060747	0.025005
  97	4.8000e-02	3.7956	25.374240	0.000687	6.867585	2.326801	0.054850
  98	4.8500e-02	3.8341	25.644457	0.000677	6.766591	2.292583	0.054044
  99	4.9000e-02	3.8742	25.664623	0.000050	0.504970	0.171088	0.004033
 100	4.9500e-02	3.9127	26.080032	0.001040	10.402372	3.524419	0.083082
 101	5.0000e-02	3.9544	26.479309	0.001000	9.998396	3.387548	0.079855
 102	5.0500e-02	3.9913	26.765659	0.000717	7.170567	2.429454	0.057270
 103	5.1000e-02	4.0314	27.023777	0.000646	6.463610	2.189930	0.051624
 104	5.1500e-02	4.0748	27.293995	0.000677	6.766591	2.292583	0.054044
 105	5.2000e-02	4.1004	27.697305	0.001010	10.099390	3.421766	0.080662
 106	5.2500e-02	4.1646	27.870728	0.000434	4.342738	1.471359	0.034685
 107	5.3000e-02	4.1983	28.298236	0.001071	10.705353	3.627072	0.085502
 108	5.3500e-02	4.2352	28.616851	0.000798	7.978518	2.703195	0.063723
 109	5.4000e-02	4.2689	28.790274	0.000434	4.342738	1.471359	0.034685
 110	5.4500e-02	4.3170	29.108889	0.000798	7.978518	2.703195	0.063723
 111	5.5000e-02	4.3539	29.302478	0.000485	4.847707	1.642448	0.038718
 112	5.5500e-02	4.3940	29.383140	0.000202	2.019878	0.684353	0.016132
 113	5.6000e-02	4.4277	29.818715	0.001091	10.907341	3.695507	0.087115
 114	5.6500e-02	4.4726	30.169594	0.000879	8.786469	2.976936	0.070176
 115	5.7000e-02	4.5223	30.338984	0.000424	4.241744	1.437142	0.033878
 116	5.7500e-02	4.5640	30.726162	0.000970	9.695414	3.284895	0.077435
 117	5.8000e-02	4.5961	30.895552	0.000424	4.241744	1.437142	0.033878
 118	5.8500e-02	4.6330	31.185935	0.000727	7.271561	2.463672	0.058077
 119	5.9000e-02	4.6731	31.464219	0.000697	6.968579	2.361019	0.055657
 120	5.9500e-02	4.7148	31.730403	0.000667	6.665597	2.258366	0.053237
 121	6.0000e-02	4.7517	32.049018	0.000798	7.978518	2.703195	0.063723
 122	6.0500e-02	4.7999	32.214375	0.000414	4.140750	1.402924	0.033071
 123	6.1000e-02	4.8239	32.585420	0.000929	9.291439	3.148025	0.074209
 124	6.1500e-02	4.8785	32.904035	0.000798	7.978518	2.703195	0.063723
 125	6.2000e-02	4.9106	33.121822	0.000545	5.453671	1.847754	0.043557
 126	6.2500e-02	4.9603	33.379941	0.000646	6.463610	2.189930	0.051624
 127	6.3000e-02	4.9924	33.609827	0.000576	5.756652	1.950407	0.045977
 128	6.3500e-02	5.0373	33.936508	0.000818	8.180506	2.771630	0.065336
 129	6.4000e-02	5.0678	34.307553	0.000929	9.291439	3.148025	0.074209
 130	6.4500e-02	5.1175	34.404348	0.000242	2.423854	0.821224	0.019359
 131	6.5000e-02	5.1464	34.747161	0.000858	8.584482	2.908501	0.068563
 132	6.5500e-02	5.1881	35.037544	0.000727	7.271561	2.463672	0.058077
 133	6.6000e-02	5.2282	35.299696	0.000656	6.564604	2.224148	0.052430
 134	6.6500e-02	5.2571	35.823998	0.001313	13.129207	4.448296	0.104861
 135	6.7000e-02	5.3068	36.102282	0.000697	6.968579	2.361019	0.055657
 136	6.7500e-02	5.3517	36.291838	0.000475	4.746713	1.608230	0.037911
 137	6.8000e-02	5.3918	36.247474	-0.000111	-1.110933	-0.376394	-0.008873
 138	6.8500e-02	5.4271	36.699181	0.001131	11.311317	3.832378	0.090341
 139	6.9000e-02	5.4736	37.074259	0.000939	9.392433	3.182242	0.075016
 140	6.9500e-02	5.5089	37.275914	0.000505	5.049695	1.710883	0.040331
 141	7.0000e-02	5.5474	37.715522	0.001101	11.008335	3.729725	0.087922
 142	7.0500e-02	5.5908	37.917177	0.000505	5.049695	1.710883	0.040331
 143	7.1000e-02	5.6437	38.013971	0.000242	2.423854	0.821224	0.019359
 144	7.1500e-02	5.6822	38.288222	0.000687	6.867585	2.326801	0.054850
 145	7.2000e-02	5.7143	38.627002	0.000848	8.483488	2.874283	0.067756
 146	7.2500e-02	5.7576	38.933517	0.000768	7.675536	2.600542	0.061303
 147	7.3000e-02	5.7961	39.106941	0.000434	4.342738	1.471359	0.034685
 148	7.3500e-02	5.8346	39.494118	0.000970	9.695414	3.284895	0.077435
 149	7.4000e-02	5.8715	39.897428	0.001010	10.099390	3.421766	0.080662
 150	7.4500e-02	5.9036	40.155546	0.000646	6.463610	2.189930	0.051624
 151	7.5000e-02	5.9597	40.296705	0.000353	3.534787	1.197618	0.028232
 152	7.5500e-02	5.9902	40.482227	0.000465	4.645719	1.574012	0.037105
 153	7.6000e-02	6.0335	40.873438	0.000980	9.796408	3.319113	0.078242
 154	7.6500e-02	6.0752	41.099291	0.000566	5.655658	1.916189	0.045171
 155	7.7000e-02	6.1105	41.413873	0.000788	7.877524	2.668977	0.062916
 156	7.7500e-02	6.1522	41.579230	0.000414	4.140750	1.402924	0.033071
 157	7.8000e-02	6.1907	41.909944	0.000828	8.281500	2.805848	0.066143
 158	7.8500e-02	6.2276	42.490710	0.001454	14.543122	4.927343	0.116153
 159	7.9000e-02	6.2709	42.333419	-0.000394	-3.938762	-1.334489	-0.031458
 160	7.9500e-02	6.3255	42.926285	0.001485	14.846103	5.029996	0.118573
 161	8.0000e-02	6.3576	43.075510	0.000374	3.736774	1.266053	0.029845
 162	8.0500e-02	6.3961	43.349760	0.000687	6.867585	2.326801	0.054850
 163	8.1000e-02	6.4378	43.648210	0.000747	7.473549	2.532107	0.059690
 164	8.1500e-02	6.4795	44.107983	0.001151	11.513305	3.900813	0.091955
 165	8.2000e-02	6.5068	44.176546	0.000172	1.716896	0.581700	0.013713
 166	8.2500e-02	6.5501	44.450796	0.000687	6.867585	2.326801	0.054850
 167	8.3000e-02	6.5982	44.725047	0.000687	6.867585	2.326801	0.054850
 168	8.3500e-02	6.6351	44.930735	0.000515	5.150689	1.745101	0.041138
 169	8.4000e-02	6.6672	45.112224	0.000454	4.544726	1.539795	0.036298
 170	8.4500e-02	6.7121	45.660726	0.001374	13.735170	4.653602	0.109700
 171	8.5000e-02	6.7554	45.709123	0.000121	1.211927	0.410612	0.009679
 172	8.5500e-02	6.7907	45.963208	0.000636	6.362616	2.155713	0.050817
 173	8.6000e-02	6.8308	46.281823	0.000798	7.978518	2.703195	0.063723
 174	8.6500e-02	6.8661	46.620603	0.000848	8.483488	2.874283	0.067756
 175	8.7000e-02	6.9126	46.769828	0.000374	3.736774	1.266053	0.029845
 176	8.7500e-02	6.9543	47.044079	0.000687	6.867585	2.326801	0.054850
 177	8.8000e-02	6.9977	47.290098	0.000616	6.160628	2.087277	0.049204
 178	8.8500e-02	7.0362	47.528050	0.000596	5.958640	2.018842	0.047591
 179	8.9000e-02	7.0682	47.846665	0.000798	7.978518	2.703195	0.063723
 180	8.9500e-02	7.1132	48.258041	0.001030	10.301378	3.490201	0.082275
 181	9.0000e-02	7.1469	48.459696	0.000505	5.049695	1.710883	0.040331
 182	9.0500e-02	7.1998	48.693616	0.000586	5.857646	1.984624	0.046784
 183	9.1000e-02	7.2303	48.899304	0.000515	5.150689	1.745101	0.041138
 184	9.1500e-02	7.2736	49.169522	0.000677	6.766591	2.292583	0.054044
 185	9.2000e-02	7.3137	49.584931	0.001040	10.402372	3.524419	0.083082
 186	9.2500e-02	7.3602	49.786586	0.000505	5.049695	1.710883	0.040331
 187	9.3000e-02	7.3987	49.875314	0.000222	2.221866	0.752789	0.017746
 188	9.3500e-02	7.4340	50.274591	0.001000	9.998396	3.387548	0.079855
 189	9.4000e-02	7.4773	50.468179	0.000485	4.847707	1.642448	0.038718
 190	9.4500e-02	7.5126	50.907787	0.001101	11.008335	3.729725	0.087922
 191	9.5000e-02	7.5495	51.105409	0.000495	4.948701	1.676665	0.039524
 192	9.5500e-02	7.5848	51.351428	0.000616	6.160628	2.087277	0.049204
 193	9.6000e-02	7.6345	51.593414	0.000606	6.059634	2.053060	0.048397
 194	9.6500e-02	7.6811	51.823300	0.000576	5.756652	1.950407	0.045977
 195	9.7000e-02	7.7180	52.149981	0.000818	8.180506	2.771630	0.065336
 196	9.7500e-02	7.7597	52.464563	0.000788	7.877524	2.668977	0.062916
 197	9.8000e-02	7.7934	52.589589	0.000313	3.130811	1.060747	0.025005
 198	9.8500e-02	7.8351	52.799310	0.000525	5.251683	1.779318	0.041944
 199	9.9000e-02	7.8672	53.283282	0.001212	12.119268	4.106119	0.096794
 200	9.9500e-02	7.9137	53.714824	0.001081	10.806347	3.661290	0.086308
 201	1.0000e-01	7.9586	53.783386	0.000172	1.716896	0.581700	0.013713
 202	1.0050e-01	7.9843	54.142332	0.000899	8.988457	3.045372	0.071789
 203	1.0100e-01	8.0404	54.428682	0.000717	7.170567	2.429454	0.057270
 204	1.0150e-01	8.0693	54.646470	0.000545	5.453671	1.847754	0.043557
 205	1.0200e-01	8.1062	54.981217	0.000838	8.382494	2.840066	0.066949
 206	1.0250e-01	8.1543	55.239335	0.000646	6.463610	2.189930	0.051624
 207	1.0300e-01	8.1928	55.400659	0.000404	4.039756	1.368706	0.032265
 208	1.0350e-01	8.2329	55.654744	0.000636	6.362616	2.155713	0.050817
 209	1.0400e-01	8.2714	55.711208	0.000141	1.413915	0.479047	0.011293
 210	1.0450e-01	8.3163	56.082253	0.000929	9.291439	3.148025	0.074209
 211	1.0500e-01	8.3581	56.368603	0.000717	7.170567	2.429454	0.057270
 212	1.0550e-01	8.3982	56.731581	0.000909	9.089451	3.079589	0.072596
 213	1.0600e-01	8.4399	56.824343	0.000232	2.322860	0.787006	0.018552
 214	1.0650e-01	8.4784	57.179255	0.000889	8.887463	3.011154	0.070983
 215	1.0700e-01	8.5153	57.606764	0.001071	10.705353	3.627072	0.085502
 216	1.0750e-01	8.5538	57.594665	-0.000030	-0.302982	-0.102653	-0.002420
 217	1.0800e-01	8.5891	58.042339	0.001121	11.210323	3.798160	0.089535
 218	1.0850e-01	8.6292	58.352887	0.000778	7.776530	2.634760	0.062110
 219	1.0900e-01	8.6725	58.421450	0.000172	1.716896	0.581700	0.013713
 220	1.0950e-01	8.7190	58.852991	0.001081	10.806347	3.661290	0.086308
 221	1.1000e-01	8.7559	59.199838	0.000869	8.685475	2.942719	0.069369
 222	1.1050e-01	8.7912	59.445857	0.000616	6.160628	2.087277	0.049204
 223	1.1100e-01	8.8297	59.611214	0.000414	4.140750	1.402924	0.033071
 224	1.1150e-01	8.8730	60.030656	0.001050	10.503366	3.558637	0.083888
 225	1.1200e-01	8.9131	60.236344	0.000515	5.150689	1.745101	0.041138
 226	1.1250e-01	8.9580	60.454131	0.000545	5.453671	1.847754	0.043557
 227	1.1300e-01	8.9917	60.688051	0.000586	5.857646	1.984624	0.046784
 228	1.1350e-01	9.0318	60.974401	0.000717	7.170567	2.429454	0.057270
 229	1.1400e-01	9.0784	60.990534	0.000040	0.403976	0.136871	0.003226
 230	1.1450e-01	9.1249	61.365612	0.000939	9.392433	3.182242	0.075016
 231	1.1500e-01	9.1505	61.789087	0.001060	10.604360	3.592854	0.084695
 232	1.1550e-01	9.1906	61.970577	0.000454	4.544726	1.539795	0.036298
 233	1.1600e-01	9.2388	62.337589	0.000919	9.190445	3.113807	0.073402
 234	1.1650e-01	9.2741	62.583608	0.000616	6.160628	2.087277	0.049204
 235	1.1700e-01	9.3206	62.305324	-0.000697	-6.968579	-2.361019	-0.055657
 236	1.1750e-01	9.3527	62.849792	0.001363	13.634177	4.619384	0.108894
 237	1.1800e-01	9.3960	63.111943	0.000656	6.564604	2.224148	0.052430
 238	1.1850e-01	9.4345	63.406360	0.000737	7.372555	2.497889	0.058883
 239	1.1900e-01	9.4730	63.652379	0.000616	6.160628	2.087277	0.049204
 240	1.1950e-01	9.5051	63.813703	0.000404	4.039756	1.368706	0.032265
 241	1.2000e-01	9.5516	64.192814	0.000949	9.493427	3.216460	0.075822
 242	1.2050e-01	9.5949	64.551760	0.000899	8.988457	3.045372	0.071789
 243	1.2100e-01	9.6382	64.737282	0.000465	4.645719	1.574012	0.037105
 244	1.2150e-01	9.6799	65.112360	0.000939	9.392433	3.182242	0.075016
 245	1.2200e-01	9.7136	65.394677	0.000707	7.069573	2.395236	0.056463
 246	1.2250e-01	9.7537	65.467273	0.000182	1.817890	0.615918	0.014519
 247	1.2300e-01	9.7954	65.765722	0.000747	7.473549	2.532107	0.059690
 248	1.2350e-01	9.8420	65.999642	0.000586	5.857646	1.984624	0.046784
 249	1.2400e-01	9.8789	66.233562	0.000586	5.857646	1.984624	0.046784
 250	1.2450e-01	9.9206	66.487647	0.000636	6.362616	2.155713	0.050817
 251	1.2500e-01	9.9527	66.907089	0.001050	10.503366	3.558637	0.083888
 252	1.2550e-01	9.9896	67.104711	0.000495	4.948701	1.676665	0.039524
 253	1.2600e-01	10.0345	67.302333	0.000495	4.948701	1.676665	0.039524
 254	1.2650e-01	10.0730	67.584650	0.000707	7.069573	2.395236	0.056463
 255	1.2700e-01	10.1179	67.544319	-0.000101	-1.009939	-0.342177	-0.008066
 256	1.2750e-01	10.1468	68.024258	0.001202	12.018274	4.071902	0.095988
 257	1.2800e-01	10.1885	68.423534	0.001000	9.998396	3.387548	0.079855
 258	1.2850e-01	10.2318	68.693752	0.000677	6.766591	2.292583	0.054044
 259	1.2900e-01	10.2799	68.802646	0.000273	2.726835	0.923877	0.021779
 260	1.2950e-01	10.3184	69.016400	0.000535	5.352677	1.813536	0.042751
 261	1.3000e-01	10.3521	69.343081	0.000818	8.180506	2.771630	0.065336
 262	1.3050e-01	10.3922	69.577001	0.000586	5.857646	1.984624	0.046784
 263	1.3100e-01	10.4403	69.935946	0.000899	8.988457	3.045372	0.071789
 264	1.3150e-01	10.4724	70.073072	0.000343	3.433793	1.163400	0.027425
 265	1.3200e-01	10.5125	70.331190	0.000646	6.463610	2.189930	0.051624
 266	1.3250e-01	10.5510	70.653838	0.000808	8.079512	2.737413	0.064530
 267	1.3300e-01	10.5911	70.879691	0.000566	5.655658	1.916189	0.045171
 268	1.3350e-01	10.6313	71.032949	0.000384	3.837768	1.300271	0.030652
 269	1.3400e-01	10.6730	71.448358	0.001040	10.402372	3.524419	0.083082
 270	1.3450e-01	10.7147	71.670179	0.000555	5.554665	1.881971	0.044364
 271	1.3500e-01	10.7580	71.758907	0.000222	2.221866	0.752789	0.017746
 272	1.3550e-01	10.7997	72.210614	0.001131	11.311317	3.832378	0.090341
 273	1.3600e-01	10.8382	72.573593	0.000909	9.089451	3.079589	0.072596
 274	1.3650e-01	10.8719	72.513096	-0.000151	-1.514909	-0.513265	-0.012099
 275	1.3700e-01	10.9056	72.984969	0.001182	11.816286	4.003466	0.094375
 276	1.3750e-01	10.9521	73.134194	0.000374	3.736774	1.266053	0.029845
 277	1.3800e-01	10.9986	73.263253	0.000323	3.231805	1.094965	0.025812
 278	1.3850e-01	11.0323	73.428610	0.000414	4.140750	1.402924	0.033071
 279	1.3900e-01	11.0724	73.747224	0.000798	7.978518	2.703195	0.063723
 280	1.3950e-01	11.1173	74.194898	0.001121	11.210323	3.798160	0.089535
 281	1.4000e-01	11.1623	74.549811	0.000889	8.887463	3.011154	0.070983
 282	1.4050e-01	11.2040	74.505447	-0.000111	-1.110933	-0.376394	-0.008873
 283	1.4100e-01	11.2393	74.739367	0.000586	5.857646	1.984624	0.046784
 284	1.4150e-01	11.2762	75.033783	0.000737	7.372555	2.497889	0.058883
 285	1.4200e-01	11.3179	75.251570	0.000545	5.453671	1.847754	0.043557
 286	1.4250e-01	11.3628	75.602450	0.000879	8.786469	2.976936	0.070176
 287	1.4300e-01	11.3917	75.792005	0.000475	4.746713	1.608230	0.037911
 288	1.4350e-01	11.4398	75.989627	0.000495	4.948701	1.676665	0.039524
 289	1.4400e-01	11.4655	76.255812	0.000667	6.665597	2.258366	0.053237
 290	1.4450e-01	11.5104	76.481665	0.000566	5.655658	1.916189	0.045171
 291	1.4500e-01	11.5505	76.913207	0.001081	10.806347	3.661290	0.086308
 292	1.4550e-01	11.5938	76.973703	0.000151	1.514909	0.513265	0.012099
 293	1.4600e-01	11.6355	77.268120	0.000737	7.372555	2.497889	0.058883
 294	1.4650e-01	11.6756	77.651264	0.000959	9.594421	3.250678	0.076629
 295	1.4700e-01	11.7093	77.929548	0.000697	6.968579	2.361019	0.055657
 296	1.4750e-01	11.7430	78.147335	0.000545	5.453671	1.847754	0.043557
 297	1.4800e-01	11.7975	78.474016	0.000818	8.180506	2.771630	0.065336
 298	1.4850e-01	11.8457	78.546612	0.000182	1.817890	0.615918	0.014519
 299	1.4900e-01	11.8761	78.683737	0.000343	3.433793	1.163400	0.027425
 300	1.4950e-01	11.9227	79.038650	0.000889	8.887463	3.011154	0.070983
 301	1.5000e-01	11.9499	79.316934	0.000697	6.968579	2.361019	0.055657
 302	1.5050e-01	11.9932	79.554886	0.000596	5.958640	2.018842	0.047591
 303	1.5100e-01	12.0350	79.591184	0.000091	0.908945	0.307959	0.007260
 304	1.5150e-01	12.0735	80.026759	0.001091	10.907341	3.695507	0.087115
 305	1.5200e-01	12.1104	80.288910	0.000656	6.564604	2.224148	0.052430
 306	1.5250e-01	12.1521	80.559128	0.000677	6.766591	2.292583	0.054044
 307	1.5300e-01	12.1986	80.901941	0.000858	8.584482	2.908501	0.068563
 308	1.5350e-01	12.2355	80.946305	0.000111	1.110933	0.376394	0.008873
 309	1.5400e-01	12.2740	81.103596	0.000394	3.938762	1.334489	0.031458
 310	1.5450e-01	12.3077	81.313317	0.000525	5.251683	1.779318	0.041944
 311	1.5500e-01	12.3670	81.619833	0.000768	7.675536	2.600542	0.061303
 312	1.5550e-01	12.3911	81.801322	0.000454	4.544726	1.539795	0.036298
 313	1.5600e-01	12.4408	82.059441	0.000646	6.463610	2.189930	0.051624
 314	1.5650e-01	12.4777	82.071540	0.000030	0.302982	0.102653	0.002420
 315	1.5700e-01	12.5050	82.531313	0.001151	11.513305	3.900813	0.091955
 316	1.5750e-01	12.5627	82.765233	0.000586	5.857646	1.984624	0.046784
 317	1.5800e-01	12.5948	82.914458	0.000374	3.736774	1.266053	0.029845
 318	1.5850e-01	12.6333	83.200808	0.000717	7.170567	2.429454	0.057270
 319	1.5900e-01	12.6783	83.648482	0.001121	11.210323	3.798160	0.089535
 320	1.5950e-01	12.7216	83.842070	0.000485	4.847707	1.642448	0.038718
 321	1.6000e-01	12.7585	83.954997	0.000283	2.827829	0.958094	0.022585
 322	1.6050e-01	12.7938	84.225215	0.000677	6.766591	2.292583	0.054044
 323	1.6100e-01	12.8371	84.559962	0.000838	8.382494	2.840066	0.066949
 324	1.6150e-01	12.8788	85.027801	0.001172	11.715292	3.969249	0.093568
 325	1.6200e-01	12.9141	84.918908	-0.000273	-2.726835	-0.923877	-0.021779
 326	1.6250e-01	12.9510	85.064099	0.000364	3.635780	1.231836	0.029038
 327	1.6300e-01	12.9927	85.338350	0.000687	6.867585	2.326801	0.054850
 328	1.6350e-01	13.0344	85.616634	0.000697	6.968579	2.361019	0.055657
 329	1.6400e-01	13.0777	85.773925	0.000394	3.938762	1.334489	0.031458
 330	1.6450e-01	13.1130	85.991712	0.000545	5.453671	1.847754	0.043557
 331	1.6500e-01	13.1451	86.407121	0.001040	10.402372	3.524419	0.083082
 332	1.6550e-01	13.1852	86.753967	0.000869	8.685475	2.942719	0.069369
 333	1.6600e-01	13.2478	86.947556	0.000485	4.847707	1.642448	0.038718
 334	1.6650e-01	13.2734	86.923358	-0.000061	-0.605963	-0.205306	-0.004840
 335	1.6700e-01	13.3087	87.354899	0.001081	10.806347	3.661290	0.086308
 336	1.6750e-01	13.3504	87.697713	0.000858	8.584482	2.908501	0.068563
 337	1.6800e-01	13.3873	87.762242	0.000162	1.615902	0.547483	0.012906
 338	1.6850e-01	13.4322	87.992129	0.000576	5.756652	1.950407	0.045977
 339	1.6900e-01	13.4820	88.161519	0.000424	4.241744	1.437142	0.033878
 340	1.6950e-01	13.5173	88.343008	0.000454	4.544726	1.539795	0.036298
 341	1.7000e-01	13.5574	88.589027	0.000616	6.160628	2.087277	0.049204
 342	1.7050e-01	13.5927	88.855212	0.000667	6.665597	2.258366	0.053237
 343	1.7100e-01	13.6312	88.947973	0.000232	2.322860	0.787006	0.018552
 344	1.7150e-01	13.6729	89.347250	0.001000	9.998396	3.387548	0.079855
 345	1.7200e-01	13.7146	89.669898	0.000808	8.079512	2.737413	0.064530
 346	1.7250e-01	13.7659	89.742494	0.000182	1.817890	0.615918	0.014519
 347	1.7300e-01	13.7900	90.061108	0.000798	7.978518	2.703195	0.063723
 348	1.7350e-01	13.8301	90.089340	0.000071	0.706957	0.239524	0.005646
 349	1.7400e-01	13.8782	90.428120	0.000848	8.483488	2.874283	0.067756
 350	1.7450e-01	13.9167	90.811265	0.000959	9.594421	3.250678	0.076629
 351	1.7500e-01	13.9616	90.855629	0.000111	1.110933	0.376394	0.008873
 352	1.7550e-01	14.0001	91.025019	0.000424	4.241744	1.437142	0.033878
 353	1.7600e-01	14.0306	91.444461	0.001050	10.503366	3.558637	0.083888
 354	1.7650e-01	14.0755	91.646116	0.000505	5.049695	1.710883	0.040331
 355	1.7700e-01	14.1140	91.876003	0.000576	5.756652	1.950407	0.045977
 356	1.7750e-01	14.1622	91.988929	0.000283	2.827829	0.958094	0.022585
 357	1.7800e-01	14.1878	92.287379	0.000747	7.473549	2.532107	0.059690
 358	1.7850e-01	14.2328	92.480967	0.000485	4.847707	1.642448	0.038718
 359	1.7900e-01	14.2680	92.771351	0.000727	7.271561	2.463672	0.058077
 360	1.7950e-01	14.3194	92.924608	0.000384	3.837768	1.300271	0.030652
 361	1.8000e-01	14.3579	93.106098	0.000454	4.544726	1.539795	0.036298
 362	1.8050e-01	14.3852	93.416646	0.000778	7.776530	2.634760	0.062110
 363	1.8100e-01	14.4317	93.864320	0.001121	11.210323	3.798160	0.089535
 364	1.8150e-01	14.4798	93.884486	0.000050	0.504970	0.171088	0.004033
 365	1.8200e-01	14.5103	94.078075	0.000485	4.847707	1.642448	0.038718
 366	1.8250e-01	14.5520	94.521715	0.001111	11.109329	3.763943	0.088728
 367	1.8300e-01	14.5921	94.759668	0.000596	5.958640	2.018842	0.047591
 368	1.8350e-01	14.6306	94.925025	0.000414	4.140750	1.402924	0.033071
 369	1.8400e-01	14.6739	95.126680	0.000505	5.049695	1.710883	0.040331
 370	1.8450e-01	14.7156	95.150879	0.000061	0.605963	0.205306	0.004840
 371	1.8500e-01	14.7573	95.445295	0.000737	7.372555	2.497889	0.058883
 372	1.8550e-01	14.7958	95.489659	0.000111	1.110933	0.376394	0.008873
 373	1.8600e-01	14.8343	95.981697	0.001232	12.321256	4.174555	0.098408
 374	1.8650e-01	14.8761	96.159153	0.000444	4.443732	1.505577	0.035491
 375	1.8700e-01	14.9097	96.268047	0.000273	2.726835	0.923877	0.021779
 376	1.8750e-01	14.9450	96.675390	0.001020	10.200384	3.455984	0.081469
 377	1.8800e-01	14.9948	96.800416	0.000313	3.130811	1.060747	0.025005
 378	1.8850e-01	15.0317	97.110965	0.000778	7.776530	2.634760	0.062110
 379	1.8900e-01	15.0734	97.135163	0.000061	0.605963	0.205306	0.004840
 380	1.8950e-01	15.1071	97.514275	0.000949	9.493427	3.216460	0.075822
 381	1.9000e-01	15.1552	97.869187	0.000889	8.887463	3.011154	0.070983
 382	1.9050e-01	15.1953	98.074875	0.000515	5.150689	1.745101	0.041138
 383	1.9100e-01	15.2274	98.353159	0.000697	6.968579	2.361019	0.055657
 384	1.9150e-01	15.2707	98.373325	0.000050	0.504970	0.171088	0.004033
 385	1.9200e-01	15.3092	98.671774	0.000747	7.473549	2.532107	0.059690
 386	1.9250e-01	15.3589	98.812932	0.000353	3.534787	1.197618	0.028232
 387	1.9300e-01	15.3974	99.046852	0.000586	5.857646	1.984624	0.046784
 388	1.9350e-01	15.4343	99.434029	0.000970	9.695414	3.284895	0.077435
 389	1.9400e-01	15.4664	99.575188	0.000353	3.534787	1.197618	0.028232
 390	1.9450e-01	15.5145	99.696181	0.000303	3.029817	1.026530	0.024199
 391	1.9500e-01	15.5562	99.986564	0.000727	7.271561	2.463672	0.058077
 392	1.9550e-01	15.6012	100.151921	0.000414	4.140750	1.402924	0.033071
 393	1.9600e-01	15.6316	100.381808	0.000576	5.756652	1.950407	0.045977
 394	1.9650e-01	15.6830	100.486668	0.000263	2.625841	0.889659	0.020972
 395	1.9700e-01	15.7167	100.785118	0.000747	7.473549	2.532107	0.059690
 396	1.9750e-01	15.7648	100.930309	0.000364	3.635780	1.231836	0.029038
 397	1.9800e-01	15.7905	101.067434	0.000343	3.433793	1.163400	0.027425
 398	1.9850e-01	15.8450	101.361851	0.000737	7.372555	2.497889	0.058883
 399	1.9900e-01	15.8691	101.801458	0.001101	11.008335	3.729725	0.087922
 400	1.9950e-01	15.9140	101.902286	0.000252	2.524848	0.855441	0.020165
 401	2.0000e-01	15.9509	101.926484	0.000061	0.605963	0.205306	0.004840
 402	2.0050e-01	15.9942	102.273331	0.000869	8.685475	2.942719	0.069369
 403	2.0100e-01	16.0311	102.474986	0.000505	5.049695	1.710883	0.040331
 404	2.0150e-01	16.0792	102.753270	0.000697	6.968579	2.361019	0.055657
 405	2.0200e-01	16.1177	102.979123	0.000566	5.655658	1.916189	0.045171
 406	2.0250e-01	16.1562	103.067851	0.000222	2.221866	0.752789	0.017746
 407	2.0300e-01	16.1899	103.346135	0.000697	6.968579	2.361019	0.055657
 408	2.0350e-01	16.2380	103.366301	0.000050	0.504970	0.171088	0.004033
 409	2.0400e-01	16.2733	103.745412	0.000949	9.493427	3.216460	0.075822
 410	2.0450e-01	16.3070	104.144689	0.001000	9.998396	3.387548	0.079855
 411	2.0500e-01	16.3487	104.322145	0.000444	4.443732	1.505577	0.035491
 412	2.0550e-01	16.4017	104.475403	0.000384	3.837768	1.300271	0.030652
 413	2.0600e-01	16.4370	104.584296	0.000273	2.726835	0.923877	0.021779
 414	2.0650e-01	16.4723	104.794018	0.000525	5.251683	1.779318	0.041944
 415	2.0700e-01	16.5124	105.060202	0.000667	6.665597	2.258366	0.053237
 416	2.0750e-01	16.5557	105.435280	0.000939	9.392433	3.182242	0.075016
 417	2.0800e-01	16.5942	105.620803	0.000465	4.645719	1.574012	0.037105
 418	2.0850e-01	16.6343	105.830524	0.000525	5.251683	1.779318	0.041944
 419	2.0900e-01	16.6664	106.044278	0.000535	5.352677	1.813536	0.042751
 420	2.0950e-01	16.7145	106.157205	0.000283	2.827829	0.958094	0.022585
 421	2.1000e-01	16.7498	106.330628	0.000434	4.342738	1.471359	0.034685
 422	2.1050e-01	16.7851	106.604879	0.000687	6.867585	2.326801	0.054850
 423	2.1100e-01	16.8380	106.862997	0.000646	6.463610	2.189930	0.051624
 424	2.1150e-01	16.8749	106.979957	0.000293	2.928823	0.992312	0.023392
 425	2.1200e-01	16.9182	107.169513	0.000475	4.746713	1.608230	0.037911
 426	2.1250e-01	16.9535	107.270340	0.000252	2.524848	0.855441	0.020165
 427	2.1300e-01	16.9904	107.492160	0.000555	5.554665	1.881971	0.044364
 428	2.1350e-01	17.0305	107.661551	0.000424	4.241744	1.437142	0.033878
 429	2.1400e-01	17.0819	107.935801	0.000687	6.867585	2.326801	0.054850
 430	2.1450e-01	17.1188	108.355244	0.001050	10.503366	3.558637	0.083888
 431	2.1500e-01	17.1541	108.552865	0.000495	4.948701	1.676665	0.039524
 432	2.1550e-01	17.1910	108.754520	0.000505	5.049695	1.710883	0.040331
 433	2.1600e-01	17.2391	108.806951	0.000131	1.312921	0.444830	0.010486
 434	2.1650e-01	17.2696	109.020705	0.000535	5.352677	1.813536	0.042751
 435	2.1700e-01	17.3049	109.282856	0.000656	6.564604	2.224148	0.052430
 436	2.1750e-01	17.3610	109.645835	0.000909	9.089451	3.079589	0.072596
 437	2.1800e-01	17.3995	109.714398	0.000172	1.716896	0.581700	0.013713
 438	2.1850e-01	17.4268	109.912020	0.000495	4.948701	1.676665	0.039524
 439	2.1900e-01	17.4781	110.008814	0.000242	2.423854	0.821224	0.019359
 440	2.1950e-01	17.5182	110.416157	0.001020	10.200384	3.455984	0.081469
 441	2.2000e-01	17.5519	110.682341	0.000667	6.665597	2.258366	0.053237
 442	2.2050e-01	17.5920	110.888030	0.000515	5.150689	1.745101	0.041138
 443	2.2100e-01	17.6289	111.013056	0.000313	3.130811	1.060747	0.025005
 444	2.2150e-01	17.6819	111.230843	0.000545	5.453671	1.847754	0.043557
 445	2.2200e-01	17.7123	111.549458	0.000798	7.978518	2.703195	0.063723
 446	2.2250e-01	17.7540	111.702715	0.000384	3.837768	1.300271	0.030652
 447	2.2300e-01	17.7925	111.759179	0.000141	1.413915	0.479047	0.011293
 448	2.2350e-01	17.8375	111.710782	-0.000121	-1.211927	-0.410612	-0.009679
 449	2.2400e-01	17.8728	112.247184	0.001343	13.432189	4.550949	0.107280
 450	2.2450e-01	17.9097	112.303647	0.000141	1.413915	0.479047	0.011293
 451	2.2500e-01	17.9578	112.537567	0.000586	5.857646	1.984624	0.046784
 452	2.2550e-01	17.9995	112.831983	0.000737	7.372555	2.497889	0.058883
 453	2.2600e-01	18.0332	113.013472	0.000454	4.544726	1.539795	0.036298
 454	2.2650e-01	18.0701	113.332087	0.000798	7.978518	2.703195	0.063723
 455	2.2700e-01	18.1118	113.432915	0.000252	2.524848	0.855441	0.020165
 456	2.2750e-01	18.1519	113.691033	0.000646	6.463610	2.189930	0.051624
 457	2.2800e-01	18.1952	114.001582	0.000778	7.776530	2.634760	0.062110
 458	2.2850e-01	18.2401	114.207270	0.000515	5.150689	1.745101	0.041138
 459	2.2900e-01	18.2802	114.316163	0.000273	2.726835	0.923877	0.021779
 460	2.2950e-01	18.3123	114.679142	0.000909	9.089451	3.079589	0.072596
 461	2.3000e-01	18.3508	114.852565	0.000434	4.342738	1.471359	0.034685
 462	2.3050e-01	18.4038	115.021956	0.000424	4.241744	1.437142	0.033878
 463	2.3100e-01	18.4471	115.082452	0.000151	1.514909	0.513265	0.012099
 464	2.3150e-01	18.4711	115.235710	0.000384	3.837768	1.300271	0.030652
 465	2.3200e-01	18.5128	115.614821	0.000949	9.493427	3.216460	0.075822
 466	2.3250e-01	18.5546	115.824542	0.000525	5.251683	1.779318	0.041944
 467	2.3300e-01	18.5963	116.034263	0.000525	5.251683	1.779318	0.041944
 468	2.3350e-01	18.6332	116.272216	0.000596	5.958640	2.018842	0.047591
 469	2.3400e-01	18.6765	116.421441	0.000374	3.736774	1.266053	0.029845
 470	2.3450e-01	18.7198	116.602930	0.000454	4.544726	1.539795	0.036298
 471	2.3500e-01	18.7583	116.727956	0.000313	3.130811	1.060747	0.025005
 472	2.3550e-01	18.8000	117.010273	0.000707	7.069573	2.395236	0.056463
 473	2.3600e-01	18.8305	117.179663	0.000424	4.241744	1.437142	0.033878
 474	2.3650e-01	18.8834	117.377285	0.000495	4.948701	1.676665	0.039524
 475	2.3700e-01	18.9219	117.514411	0.000343	3.433793	1.163400	0.027425
 476	2.3750e-01	18.9524	117.994349	0.001202	12.018274	4.071902	0.095988
 477	2.3800e-01	18.9941	117.990316	-0.000010	-0.100994	-0.034218	-0.000807
 478	2.3850e-01	19.0326	118.232302	0.000606	6.059634	2.053060	0.048397
 479	2.3900e-01	19.0679	118.288765	0.000141	1.413915	0.479047	0.011293
 480	2.3950e-01	19.1096	118.498487	0.000525	5.251683	1.779318	0.041944
 481	2.4000e-01	19.1529	118.760638	0.000656	6.564604	2.224148	0.052430
 482	2.4050e-01	19.1995	118.921962	0.000404	4.039756	1.368706	0.032265
 483	2.4100e-01	19.2380	119.151849	0.000576	5.756652	1.950407	0.045977
 484	2.4150e-01	19.2700	119.567258	0.001040	10.402372	3.524419	0.083082
 485	2.4200e-01	19.3166	119.434165	-0.000333	-3.332799	-1.129183	-0.026618
 486	2.4250e-01	19.3551	119.906038	0.001182	11.816286	4.003466	0.094375
 487	2.4300e-01	19.3968	119.829409	-0.000192	-1.918884	-0.650136	-0.015326
 488	2.4350e-01	19.4273	120.119792	0.000727	7.271561	2.463672	0.058077
 489	2.4400e-01	19.4706	120.377911	0.000646	6.463610	2.189930	0.051624
 490	2.4450e-01	19.5107	120.640062	0.000656	6.564604	2.224148	0.052430
 491	2.4500e-01	19.5572	120.833651	0.000485	4.847707	1.642448	0.038718
 492	2.4550e-01	19.5989	121.176464	0.000858	8.584482	2.908501	0.068563
 493	2.4600e-01	19.6326	121.321656	0.000364	3.635780	1.231836	0.029038
 494	2.4650e-01	19.6743	121.249060	-0.000182	-1.817890	-0.615918	-0.014519
 495	2.4700e-01	19.7128	121.567675	0.000798	7.978518	2.703195	0.063723
 496	2.4750e-01	19.7529	121.862091	0.000737	7.372555	2.497889	0.058883
 497	2.4800e-01	19.7930	121.789495	-0.000182	-1.817890	-0.615918	-0.014519
 498	2.4850e-01	19.8299	122.027448	0.000596	5.958640	2.018842	0.047591
 499	2.4900e-01	19.8716	122.358162	0.000828	8.281500	2.805848	0.066143
 500	2.4950e-01	19.9101	122.737273	0.000949	9.493427	3.216460	0.075822
 501	2.5000e-01	19.9534	122.761472	0.000061	0.605963	0.205306	0.004840
 502	2.5050e-01	19.9583	122.612247	-0.000374	-3.736774	-1.266053	-0.029845
 503	2.5100e-01	19.9438	122.547718	0.000162	1.615902	0.547483	-0.012906
 504	2.5150e-01	19.9037	122.390427	0.000394	3.938762	1.334489	-0.031458
 505	2.5200e-01	19.8524	122.358162	0.000081	0.807951	0.273741	-0.006453
 506	2.5250e-01	19.8235	122.104077	0.000636	6.362616	2.155713	-0.050817
 507	2.5300e-01	19.7786	121.942753	0.000404	4.039756	1.368706	-0.032265
 508	2.5350e-01	19.7401	121.862091	0.000202	2.019878	0.684353	-0.016132
 509	2.5400e-01	19.6952	121.696734	0.000414	4.140750	1.402924	-0.033071
 510	2.5450e-01	19.6567	121.571708	0.000313	3.130811	1.060747	-0.025005
 511	2.5500e-01	19.6278	121.281325	0.000727	7.271561	2.463672	-0.058077
 512	2.5550e-01	19.5893	121.039339	0.000606	6.059634	2.053060	-0.048397
 513	2.5600e-01	19.5444	120.636029	0.001010	10.099390	3.421766	-0.080662
 514	2.5650e-01	19.4898	120.958677	-0.000808	-8.079512	-2.737413	0.064530
 515	2.5700e-01	19.4593	120.966743	-0.000020	-0.201988	-0.068435	0.001613
 516	2.5750e-01	19.4144	120.676360	0.000727	7.271561	2.463672	-0.058077
 517	2.5800e-01	19.3791	120.168189	0.001273	12.725231	4.311425	-0.101634
 518	2.5850e-01	19.3358	120.228686	-0.000151	-1.514909	-0.513265	0.012099
 519	2.5900e-01	19.3005	119.962501	0.000667	6.665597	2.258366	-0.053237
 520	2.5950e-01	19.2636	119.897972	0.000162	1.615902	0.547483	-0.012906
 521	2.6000e-01	19.2171	119.817310	0.000202	2.019878	0.684353	-0.016132
 522	2.6050e-01	19.1802	119.627754	0.000475	4.746713	1.608230	-0.037911
 523	2.6100e-01	19.1353	119.482563	0.000364	3.635780	1.231836	-0.029038
 524	2.6150e-01	19.1000	119.123617	0.000899	8.988457	3.045372	-0.071789
 525	2.6200e-01	19.0647	118.974392	0.000374	3.736774	1.266053	-0.029845
 526	2.6250e-01	19.0182	118.950194	0.000061	0.605963	0.205306	-0.004840
 527	2.6300e-01	18.9813	118.756605	0.000485	4.847707	1.642448	-0.038718
 528	2.6350e-01	18.9476	118.506553	0.000626	6.261622	2.121495	-0.050010
 529	2.6400e-01	18.8979	118.446056	0.000151	1.514909	0.513265	-0.012099
 530	2.6450e-01	18.8626	118.393626	0.000131	1.312921	0.444830	-0.010486
 531	2.6500e-01	18.8193	118.111309	0.000707	7.069573	2.395236	-0.056463
 532	2.6550e-01	18.7904	117.691867	0.001050	10.503366	3.558637	-0.083888
 533	2.6600e-01	18.7423	117.595072	0.000242	2.423854	0.821224	-0.019359
 534	2.6650e-01	18.7070	117.595072	-0.000000	-0.000000	-0.000000	0.000000
 535	2.6700e-01	18.6556	117.179663	0.001040	10.402372	3.524419	-0.083082
 536	2.6750e-01	18.6251	117.090935	0.000222	2.221866	0.752789	-0.017746
 537	2.6800e-01	18.5866	116.861049	0.000576	5.756652	1.950407	-0.045977
 538	2.6850e-01	18.5385	116.647294	0.000535	5.352677	1.813536	-0.042751
 539	2.6900e-01	18.5000	116.538401	0.000273	2.726835	0.923877	-0.021779
 540	2.6950e-01	18.4583	116.364977	0.000434	4.342738	1.471359	-0.034685
 541	2.7000e-01	18.4230	116.429507	-0.000162	-1.615902	-0.547483	0.012906
 542	2.7050e-01	18.3765	116.260117	0.000424	4.241744	1.437142	-0.033878
 543	2.7100e-01	18.3444	115.949568	0.000778	7.776530	2.634760	-0.062110
 544	2.7150e-01	18.3059	115.711615	0.000596	5.958640	2.018842	-0.047591
 545	2.7200e-01	18.2594	115.594656	0.000293	2.928823	0.992312	-0.023392
 546	2.7250e-01	18.2161	115.566424	0.000071	0.706957	0.239524	-0.005646
 547	2.7300e-01	18.1872	115.062287	0.001262	12.624238	4.277207	-0.100827
 548	2.7350e-01	18.1487	114.909029	0.000384	3.837768	1.300271	-0.030652
 549	2.7400e-01	18.1006	114.900963	0.000020	0.201988	0.068435	-0.001613
 550	2.7450e-01	18.0621	114.747705	0.000384	3.837768	1.300271	-0.030652
 551	2.7500e-01	18.0139	114.546050	0.000505	5.049695	1.710883	-0.040331
 552	2.7550e-01	17.9818	114.437156	0.000273	2.726835	0.923877	-0.021779
 553	2.7600e-01	17.9401	114.187104	0.000626	6.261622	2.121495	-0.050010
 554	2.7650e-01	17.8952	113.771695	0.001040	10.402372	3.524419	-0.083082
 555	2.7700e-01	17.8631	113.678934	0.000232	2.322860	0.787006	-0.018552
 556	2.7750e-01	17.8150	113.493411	0.000465	4.645719	1.574012	-0.037105
 557	2.7800e-01	17.7781	113.392584	0.000252	2.524848	0.855441	-0.020165
 558	2.7850e-01	17.7364	113.166730	0.000566	5.655658	1.916189	-0.045171
 559	2.7900e-01	17.6995	113.126399	0.000101	1.009939	0.342177	-0.008066
 560	2.7950e-01	17.6610	112.981208	0.000364	3.635780	1.231836	-0.029038
 561	2.8000e-01	17.6177	112.803751	0.000444	4.443732	1.505577	-0.035491
 562	2.8050e-01	17.5792	112.497236	0.000768	7.675536	2.600542	-0.061303
 563	2.8100e-01	17.5359	112.319780	0.000444	4.443732	1.505577	-0.035491
 564	2.8150e-01	17.5006	112.198787	0.000303	3.029817	1.026530	-0.024199
 565	2.8200e-01	17.4589	111.985032	0.000535	5.352677	1.813536	-0.042751
 566	2.8250e-01	17.4156	111.948734	0.000091	0.908945	0.307959	-0.007260
 567	2.8300e-01	17.3899	111.763212	0.000465	4.645719	1.574012	-0.037105
 568	2.8350e-01	17.3450	111.299406	0.001161	11.614299	3.935031	-0.092761
 569	2.8400e-01	17.3017	111.323604	-0.000061	-0.605963	-0.205306	0.004840
 570	2.8450e-01	17.2599	111.093718	0.000576	5.756652	1.950407	-0.045977
 571	2.8500e-01	17.2214	110.738805	0.000889	8.887463	3.011154	-0.070983
 572	2.8550e-01	17.1829	110.593613	0.000364	3.635780	1.231836	-0.029038
 573	2.8600e-01	17.1380	110.456488	0.000343	3.433793	1.163400	-0.027425
 574	2.8650e-01	17.0899	110.371793	0.000212	2.120872	0.718571	-0.016939
 575	2.8700e-01	17.0578	110.158039	0.000535	5.352677	1.813536	-0.042751
 576	2.8750e-01	17.0161	110.045112	0.000283	2.827829	0.958094	-0.022585
 577	2.8800e-01	16.9872	109.758762	0.000717	7.170567	2.429454	-0.057270
 578	2.8850e-01	16.9359	109.307055	0.001131	11.311317	3.832378	-0.090341
 579	2.8900e-01	16.9054	109.278823	0.000071	0.706957	0.239524	-0.005646
 580	2.8950e-01	16.8653	109.303022	-0.000061	-0.605963	-0.205306	0.004840
 581	2.9000e-01	16.8188	109.121532	0.000454	4.544726	1.539795	-0.036298
 582	2.9050e-01	16.7803	108.742421	0.000949	9.493427	3.216460	-0.075822
 583	2.9100e-01	16.7402	108.609329	0.000333	3.332799	1.129183	-0.026618
 584	2.9150e-01	16.7017	108.516568	0.000232	2.322860	0.787006	-0.018552
 585	2.9200e-01	16.6567	108.621428	-0.000263	-2.625841	-0.889659	0.020972
 586	2.9250e-01	16.6247	108.193920	0.001071	10.705353	3.627072	-0.085502
 587	2.9300e-01	16.5814	108.093092	0.000252	2.524848	0.855441	-0.020165
 588	2.9350e-01	16.5380	107.875305	0.000545	5.453671	1.847754	-0.043557
 589	2.9400e-01	16.4963	107.822875	0.000131	1.312921	0.444830	-0.010486
 590	2.9450e-01	16.4691	107.459896	0.000909	9.089451	3.079589	-0.072596
 591	2.9500e-01	16.4193	107.294539	0.000414	4.140750	1.402924	-0.033071
 592	2.9550e-01	16.3824	107.193711	0.000252	2.524848	0.855441	-0.020165
 593	2.9600e-01	16.3391	106.782335	0.001030	10.301378	3.490201	-0.082275
 594	2.9650e-01	16.3070	106.475820	0.000768	7.675536	2.600542	-0.061303
 595	2.9700e-01	16.2557	106.370959	0.000263	2.625841	0.889659	-0.020972
 596	2.9750e-01	16.2204	106.169304	0.000505	5.049695	1.710883	-0.040331
 597	2.9800e-01	16.1867	105.923285	0.000616	6.160628	2.087277	-0.049204
 598	2.9850e-01	16.1434	105.709531	0.000535	5.352677	1.813536	-0.042751
 599	2.9900e-01	16.0985	105.524008	0.000465	4.645719	1.574012	-0.037105
 600	2.9950e-01	16.0696	105.491744	0.000081	0.807951	0.273741	-0.006453
 601	3.0000e-01	16.0247	105.177162	0.000788	7.877524	2.668977	-0.062916
 602	3.0050e-01	15.9798	104.939209	0.000596	5.958640	2.018842	-0.047591
 603	3.0100e-01	15.9397	104.608495	0.000828	8.281500	2.805848	-0.066143
 604	3.0150e-01	15.9028	104.451204	0.000394	3.938762	1.334489	-0.031458
 605	3.0200e-01	15.8578	104.326178	0.000313	3.130811	1.060747	-0.025005
 606	3.0250e-01	15.8338	104.310046	0.000040	0.403976	0.136871	-0.003226
 607	3.0300e-01	15.7824	103.971265	0.000848	8.483488	2.874283	-0.067756
 608	3.0350e-01	15.7439	103.842206	0.000323	3.231805	1.094965	-0.025812
 609	3.0400e-01	15.7022	103.632485	0.000525	5.251683	1.779318	-0.041944
 610	3.0450e-01	15.6557	103.660717	-0.000071	-0.706957	-0.239524	0.005646
 611	3.0500e-01	15.6188	103.463095	0.000495	4.948701	1.676665	-0.039524
 612	3.0550e-01	15.5771	103.293705	0.000424	4.241744	1.437142	-0.033878
 613	3.0600e-01	15.5354	103.067851	0.000566	5.655658	1.916189	-0.045171
 614	3.0650e-01	15.5033	102.600012	0.001172	11.715292	3.969249	-0.093568
 615	3.0700e-01	15.4552	102.474986	0.000313	3.130811	1.060747	-0.025005
 616	3.0750e-01	15.4263	102.265265	0.000525	5.251683	1.779318	-0.041944
 617	3.0800e-01	15.3814	102.208801	0.000141	1.413915	0.479047	-0.011293
 618	3.0850e-01	15.3317	102.039411	0.000424	4.241744	1.437142	-0.033878
 619	3.0900e-01	15.2932	101.857922	0.000454	4.544726	1.539795	-0.036298
 620	3.0950e-01	15.2659	101.599803	0.000646	6.463610	2.189930	-0.051624
 621	3.1000e-01	15.2226	101.164229	0.001091	10.907341	3.695507	-0.087115
 622	3.1050e-01	15.1889	101.224725	-0.000151	-1.514909	-0.513265	0.012099
 623	3.1100e-01	15.1536	101.019037	0.000515	5.150689	1.745101	-0.041138
 624	3.1150e-01	15.0958	100.627827	0.000980	9.796408	3.319113	-0.078242
 625	3.1200e-01	15.0557	100.458437	0.000424	4.241744	1.437142	-0.033878
 626	3.1250e-01	15.0236	100.397940	0.000151	1.514909	0.513265	-0.012099
 627	3.1300e-01	14.9803	100.180153	0.000545	5.453671	1.847754	-0.043557
 628	3.1350e-01	14.9338	99.982531	0.000495	4.948701	1.676665	-0.039524
 629	3.1400e-01	14.9033	99.732479	0.000626	6.261622	2.121495	-0.050010
 630	3.1450e-01	14.8616	99.413864	0.000798	7.978518	2.703195	-0.063723
 631	3.1500e-01	14.8263	99.288838	0.000313	3.130811	1.060747	-0.025005
 632	3.1550e-01	14.7766	99.095249	0.000485	4.847707	1.642448	-0.038718
 633	3.1600e-01	14.7381	98.954091	0.000353	3.534787	1.197618	-0.028232
 634	3.1650e-01	14.6916	98.833098	0.000303	3.029817	1.026530	-0.024199
 635	3.1700e-01	14.6627	98.704039	0.000323	3.231805	1.094965	-0.025812
 636	3.1750e-01	14.6226	98.393490	0.000778	7.776530	2.634760	-0.062110
 637	3.1800e-01	14.5841	98.099074	0.000737	7.372555	2.497889	-0.058883
 638	3.1850e-01	14.5376	97.824823	0.000687	6.867585	2.326801	-0.054850
 639	3.1900e-01	14.5071	97.639301	0.000465	4.645719	1.574012	-0.037105
 640	3.1950e-01	14.4606	97.461844	0.000444	4.443732	1.505577	-0.035491
 641	3.2000e-01	14.4204	97.272289	0.000475	4.746713	1.608230	-0.037911
 642	3.2050e-01	14.3852	97.365050	-0.000232	-2.322860	-0.787006	0.018552
 643	3.2100e-01	14.3386	97.030303	0.000838	8.382494	2.840066	-0.066949
 644	3.2150e-01	14.2953	96.844780	0.000465	4.645719	1.574012	-0.037105
 645	3.2200e-01	14.2697	96.457603	0.000970	9.695414	3.284895	-0.077435
 646	3.2250e-01	14.2119	96.380974	0.000192	1.918884	0.650136	-0.015326
 647	3.2300e-01	14.1814	96.376941	0.000010	0.100994	0.034218	-0.000807
 648	3.2350e-01	14.1477	95.941366	0.001091	10.907341	3.695507	-0.087115
 649	3.2400e-01	14.0996	95.743744	0.000495	4.948701	1.676665	-0.039524
 650	3.2450e-01	14.0595	95.542089	0.000505	5.049695	1.710883	-0.040331
 651	3.2500e-01	14.0242	95.360600	0.000454	4.544726	1.539795	-0.036298
 652	3.2550e-01	13.9809	95.199276	0.000404	4.039756	1.368706	-0.032265
 653	3.2600e-01	13.9392	94.945191	0.000636	6.362616	2.155713	-0.050817
 654	3.2650e-01	13.9007	94.763701	0.000454	4.544726	1.539795	-0.036298
 655	3.2700e-01	13.8590	94.553980	0.000525	5.251683	1.779318	-0.041944
 656	3.2750e-01	13.8173	94.408789	0.000364	3.635780	1.231836	-0.029038
 657	3.2800e-01	13.7804	94.356358	0.000131	1.312921	0.444830	-0.010486
 658	3.2850e-01	13.7370	94.017578	0.000848	8.483488	2.874283	-0.067756
 659	3.2900e-01	13.7082	93.674765	0.000858	8.584482	2.908501	-0.068563
 660	3.2950e-01	13.6520	93.618301	0.000141	1.413915	0.479047	-0.011293
 661	3.3000e-01	13.6167	93.259356	0.000899	8.988457	3.045372	-0.071789
 662	3.3050e-01	13.5862	92.920575	0.000848	8.483488	2.874283	-0.067756
 663	3.3100e-01	13.5317	92.759251	0.000404	4.039756	1.368706	-0.032265
 664	3.3150e-01	13.4980	92.561629	0.000495	4.948701	1.676665	-0.039524
 665	3.3200e-01	13.4563	92.372074	0.000475	4.746713	1.608230	-0.037911
 666	3.3250e-01	13.4178	92.065558	0.000768	7.675536	2.600542	-0.061303
 667	3.3300e-01	13.3889	91.884069	0.000454	4.544726	1.539795	-0.036298
 668	3.3350e-01	13.3408	91.767109	0.000293	2.928823	0.992312	-0.023392
 669	3.3400e-01	13.3007	91.638050	0.000323	3.231805	1.094965	-0.025812
 670	3.3450e-01	13.2622	91.533189	0.000263	2.625841	0.889659	-0.020972
 671	3.3500e-01	13.2205	91.295237	0.000596	5.958640	2.018842	-0.047591
 672	3.3550e-01	13.1740	91.073416	0.000555	5.554665	1.881971	-0.044364
 673	3.3600e-01	13.1371	90.787066	0.000717	7.170567	2.429454	-0.057270
 674	3.3650e-01	13.0921	90.605577	0.000454	4.544726	1.539795	-0.036298
 675	3.3700e-01	13.0488	90.403922	0.000505	5.049695	1.710883	-0.040331
 676	3.3750e-01	13.0167	90.254697	0.000374	3.736774	1.266053	-0.029845
 677	3.3800e-01	12.9847	90.044976	0.000525	5.251683	1.779318	-0.041944
 678	3.3850e-01	12.9381	89.774758	0.000677	6.766591	2.292583	-0.054044
 679	3.3900e-01	12.8948	89.423879	0.000879	8.786469	2.976936	-0.070176
 680	3.3950e-01	12.8611	89.395647	0.000071	0.706957	0.239524	-0.005646
 681	3.4000e-01	12.8226	89.109297	0.000717	7.170567	2.429454	-0.057270
 682	3.4050e-01	12.7857	88.964106	0.000364	3.635780	1.231836	-0.029038
 683	3.4100e-01	12.7537	88.693888	0.000677	6.766591	2.292583	-0.054044
 684	3.4150e-01	12.7007	88.419637	0.000687	6.867585	2.326801	-0.054850
 685	3.4200e-01	12.6542	88.427703	-0.000020	-0.201988	-0.068435	0.001613
 686	3.4250e-01	12.6189	88.165552	0.000656	6.564604	2.224148	-0.052430
 687	3.4300e-01	12.5788	87.867103	0.000747	7.473549	2.532107	-0.059690
 688	3.4350e-01	12.5403	87.669481	0.000495	4.948701	1.676665	-0.039524
 689	3.4400e-01	12.5050	87.391197	0.000697	6.968579	2.361019	-0.055657
 690	3.4450e-01	12.4665	87.120979	0.000677	6.766591	2.292583	-0.054044
 691	3.4500e-01	12.4344	86.842696	0.000697	6.968579	2.361019	-0.055657
 692	3.4550e-01	12.3831	86.810431	0.000081	0.807951	0.273741	-0.006453
 693	3.4600e-01	12.3398	86.459551	0.000879	8.786469	2.976936	-0.070176
 694	3.4650e-01	12.2980	86.447452	0.000030	0.302982	0.102653	-0.002420
 695	3.4700e-01	12.2644	86.302260	0.000364	3.635780	1.231836	-0.029038
 696	3.4750e-01	12.2178	85.995745	0.000768	7.675536	2.600542	-0.061303
 697	3.4800e-01	12.1841	85.636799	0.000899	8.988457	3.045372	-0.071789
 698	3.4850e-01	12.1408	85.217357	0.001050	10.503366	3.558637	-0.083888
 699	3.4900e-01	12.1007	85.047967	0.000424	4.241744	1.437142	-0.033878
 700	3.4950e-01	12.0622	84.975371	0.000182	1.817890	0.615918	-0.014519
 701	3.5000e-01	12.0221	84.777749	0.000495	4.948701	1.676665	-0.039524
 702	3.5050e-01	11.9852	84.471234	0.000768	7.675536	2.600542	-0.061303
 703	3.5100e-01	11.9451	84.382506	0.000222	2.221866	0.752789	-0.017746
 704	3.5150e-01	11.9034	84.168751	0.000535	5.352677	1.813536	-0.042751
 705	3.5200e-01	11.8649	83.850136	0.000798	7.978518	2.703195	-0.063723
 706	3.5250e-01	11.8216	83.676713	0.000434	4.342738	1.471359	-0.034685
 707	3.5300e-01	11.7799	83.422628	0.000636	6.362616	2.155713	-0.050817
 708	3.5350e-01	11.7414	83.277436	0.000364	3.635780	1.231836	-0.029038
 709	3.5400e-01	11.7029	82.837829	0.001101	11.008335	3.729725	-0.087922
 710	3.5450e-01	11.6596	82.688604	0.000374	3.736774	1.266053	-0.029845
 711	3.5500e-01	11.6195	82.495015	0.000485	4.847707	1.642448	-0.038718
 712	3.5550e-01	11.5826	82.305460	0.000475	4.746713	1.608230	-0.037911
 713	3.5600e-01	11.5441	82.236897	0.000172	1.716896	0.581700	-0.013713
 714	3.5650e-01	11.5056	82.055408	0.000454	4.544726	1.539795	-0.036298
 715	3.5700e-01	11.4735	81.833587	0.000555	5.554665	1.881971	-0.044364
 716	3.5750e-01	11.4237	81.765025	0.000172	1.716896	0.581700	-0.013713
 717	3.5800e-01	11.3852	81.313317	0.001131	11.311317	3.832378	-0.090341
 718	3.5850e-01	11.3355	81.071332	0.000606	6.059634	2.053060	-0.048397
 719	3.5900e-01	11.3002	80.865644	0.000515	5.150689	1.745101	-0.041138
 720	3.5950e-01	11.2601	80.615591	0.000626	6.261622	2.121495	-0.050010
 721	3.6000e-01	11.2200	80.534929	0.000202	2.019878	0.684353	-0.016132
 722	3.6050e-01	11.1751	80.180017	0.000889	8.887463	3.011154	-0.070983
 723	3.6100e-01	11.1462	79.861402	0.000798	7.978518	2.703195	-0.063723
 724	3.6150e-01	11.0949	79.756541	0.000263	2.625841	0.889659	-0.020972
 725	3.6200e-01	11.0676	79.667813	0.000222	2.221866	0.752789	-0.017746
 726	3.6250e-01	11.0259	79.191908	0.001192	11.917280	4.037684	-0.095181
 727	3.6300e-01	10.9794	78.945889	0.000616	6.160628	2.087277	-0.049204
 728	3.6350e-01	10.9441	78.808763	0.000343	3.433793	1.163400	-0.027425
 729	3.6400e-01	10.9056	78.671638	0.000343	3.433793	1.163400	-0.027425
 730	3.6450e-01	10.8591	78.280427	0.000980	9.796408	3.319113	-0.078242
 731	3.6500e-01	10.8157	78.316725	-0.000091	-0.908945	-0.307959	0.007260
 732	3.6550e-01	10.7837	77.949713	0.000919	9.190445	3.113807	-0.073402
 733	3.6600e-01	10.7387	77.836786	0.000283	2.827829	0.958094	-0.022585
 734	3.6650e-01	10.7099	77.558503	0.000697	6.968579	2.361019	-0.055657
 735	3.6700e-01	10.6681	77.264086	0.000737	7.372555	2.497889	-0.058883
 736	3.6750e-01	10.6184	76.876909	0.000970	9.695414	3.284895	-0.077435
 737	3.6800e-01	10.5767	76.969670	-0.000232	-2.322860	-0.787006	0.018552
 738	3.6850e-01	10.5350	76.554261	0.001040	10.402372	3.524419	-0.083082
 739	3.6900e-01	10.4965	76.413103	0.000353	3.534787	1.197618	-0.028232
 740	3.6950e-01	10.4644	76.167084	0.000616	6.160628	2.087277	-0.049204
 741	3.7000e-01	10.4179	75.787972	0.000949	9.493427	3.216460	-0.075822
 742	3.7050e-01	10.3906	75.461291	0.000818	8.180506	2.771630	-0.065336
 743	3.7100e-01	10.3457	75.562119	-0.000252	-2.524848	-0.855441	0.020165
 744	3.7150e-01	10.3008	75.251570	0.000778	7.776530	2.634760	-0.062110
 745	3.7200e-01	10.2607	74.904724	0.000869	8.685475	2.942719	-0.069369
 746	3.7250e-01	10.2222	74.771632	0.000333	3.332799	1.129183	-0.026618
 747	3.7300e-01	10.1837	74.517546	0.000636	6.362616	2.155713	-0.050817
 748	3.7350e-01	10.1307	74.186832	0.000828	8.281500	2.805848	-0.066143
 749	3.7400e-01	10.1051	73.960979	0.000566	5.655658	1.916189	-0.045171
 750	3.7450e-01	10.0601	73.771423	0.000475	4.746713	1.608230	-0.037911
 751	3.7500e-01	10.0168	73.614132	0.000394	3.938762	1.334489	-0.031458
 752	3.7550e-01	9.9783	73.279385	0.000838	8.382494	2.840066	-0.066949
 753	3.7600e-01	9.9430	73.097896	0.000454	4.544726	1.539795	-0.036298
 754	3.7650e-01	9.8997	72.956737	0.000353	3.534787	1.197618	-0.028232
 755	3.7700e-01	9.8628	72.613924	0.000858	8.584482	2.908501	-0.068563
 756	3.7750e-01	9.8115	72.400170	0.000535	5.352677	1.813536	-0.042751
 757	3.7800e-01	9.7794	72.287243	0.000283	2.827829	0.958094	-0.022585
 758	3.7850e-01	9.7329	72.061389	0.000566	5.655658	1.916189	-0.045171
 759	3.7900e-01	9.7056	71.420127	0.001606	16.058030	5.440608	-0.128253
 760	3.7950e-01	9.6623	71.319299	0.000252	2.524848	0.855441	-0.020165
 761	3.8000e-01	9.6334	71.262836	0.000141	1.413915	0.479047	-0.011293
 762	3.8050e-01	9.5853	70.980519	0.000707	7.069573	2.395236	-0.056463
 763	3.8100e-01	9.5356	70.867592	0.000283	2.827829	0.958094	-0.022585
 764	3.8150e-01	9.5067	70.690136	0.000444	4.443732	1.505577	-0.035491
 765	3.8200e-01	9.4618	70.492514	0.000495	4.948701	1.676665	-0.039524
 766	3.8250e-01	9.4185	70.202131	0.000727	7.271561	2.463672	-0.058077
 767	3.8300e-01	9.3767	69.806887	0.000990	9.897402	3.353331	-0.079049
 768	3.8350e-01	9.3431	69.415677	0.000980	9.796408	3.319113	-0.078242
 769	3.8400e-01	9.2949	69.310816	0.000263	2.625841	0.889659	-0.020972
 770	3.8450e-01	9.2660	69.335015	-0.000061	-0.605963	-0.205306	0.004840
 771	3.8500e-01	9.2259	69.032532	0.000757	7.574543	2.566324	-0.060496
 772	3.8550e-01	9.1810	68.887341	0.000364	3.635780	1.231836	-0.029038
 773	3.8600e-01	9.1345	68.532428	0.000889	8.887463	3.011154	-0.070983
 774	3.8650e-01	9.1056	68.121052	0.001030	10.301378	3.490201	-0.082275
 775	3.8700e-01	9.0623	68.064589	0.000141	1.413915	0.479047	-0.011293
 776	3.8750e-01	9.0222	67.830669	0.000586	5.857646	1.984624	-0.046784
 777	3.8800e-01	8.9773	67.697577	0.000333	3.332799	1.129183	-0.026618
 778	3.8850e-01	8.9500	67.342664	0.000889	8.887463	3.011154	-0.070983
 779	3.8900e-01	8.9067	66.995817	0.000869	8.685475	2.942719	-0.069369
 780	3.8950e-01	8.8554	66.749798	0.000616	6.160628	2.087277	-0.049204
 781	3.9000e-01	8.8185	66.572342	0.000444	4.443732	1.505577	-0.035491
 782	3.9050e-01	8.7719	66.435217	0.000343	3.433793	1.163400	-0.027425
 783	3.9100e-01	8.7302	66.148867	0.000717	7.170567	2.429454	-0.057270
 784	3.9150e-01	8.6982	65.709259	0.001101	11.008335	3.729725	-0.087922
 785	3.9200e-01	8.6629	65.539869	0.000424	4.241744	1.437142	-0.033878
 786	3.9250e-01	8.6115	65.289817	0.000626	6.261622	2.121495	-0.050010
 787	3.9300e-01	8.5939	65.148658	0.000353	3.534787	1.197618	-0.028232
 788	3.9350e-01	8.5457	64.777613	0.000929	9.291439	3.148025	-0.074209
 789	3.9400e-01	8.4944	64.600157	0.000444	4.443732	1.505577	-0.035491
 790	3.9450e-01	8.4591	64.366237	0.000586	5.857646	1.984624	-0.046784
 791	3.9500e-01	8.4254	64.382370	-0.000040	-0.403976	-0.136871	0.003226
 792	3.9550e-01	8.3837	63.934696	0.001121	11.210323	3.798160	-0.089535
 793	3.9600e-01	8.3356	63.660445	0.000687	6.867585	2.326801	-0.054850
 794	3.9650e-01	8.3003	63.261168	0.001000	9.998396	3.387548	-0.079855
 795	3.9700e-01	8.2554	63.136142	0.000313	3.130811	1.060747	-0.025005
 796	3.9750e-01	8.2121	62.902222	0.000586	5.857646	1.984624	-0.046784
 797	3.9800e-01	8.1800	62.676369	0.000566	5.655658	1.916189	-0.045171
 798	3.9850e-01	8.1399	62.398085	0.000697	6.968579	2.361019	-0.055657
 799	3.9900e-01	8.0885	62.196430	0.000505	5.049695	1.710883	-0.040331
 800	3.9950e-01	8.0549	62.099636	0.000242	2.423854	0.821224	-0.019359
 801	4.0000e-01	8.0228	61.724558	0.000939	9.392433	3.182242	-0.075016
 802	4.0050e-01	7.9795	61.575333	0.000374	3.736774	1.266053	-0.029845
 803	4.0100e-01	7.9377	61.228486	0.000869	8.685475	2.942719	-0.069369
 804	4.0150e-01	7.8976	60.954236	0.000687	6.867585	2.326801	-0.054850
 805	4.0200e-01	7.8591	60.917938	0.000091	0.908945	0.307959	-0.007260
 806	4.0250e-01	7.8254	60.437999	0.001202	12.018274	4.071902	-0.095988
 807	4.0300e-01	7.7821	60.143583	0.000737	7.372555	2.497889	-0.058883
 808	4.0350e-01	7.7452	59.744306	0.001000	9.998396	3.387548	-0.079855
 809	4.0400e-01	7.6939	59.752372	-0.000020	-0.201988	-0.068435	0.001613
 810	4.0450e-01	7.6538	59.663644	0.000222	2.221866	0.752789	-0.017746
 811	4.0500e-01	7.6185	59.284533	0.000949	9.493427	3.216460	-0.075822
 812	4.0550e-01	7.5832	59.139341	0.000364	3.635780	1.231836	-0.029038
 813	4.0600e-01	7.5447	58.889289	0.000626	6.261622	2.121495	-0.050010
 814	4.0650e-01	7.4886	58.441615	0.001121	11.210323	3.798160	-0.089535
 815	4.0700e-01	7.4597	58.268192	0.000434	4.342738	1.471359	-0.034685
 816	4.0750e-01	7.4244	57.993941	0.000687	6.867585	2.326801	-0.054850
 817	4.0800e-01	7.3859	57.707591	0.000717	7.170567	2.429454	-0.057270
 818	4.0850e-01	7.3426	57.546267	0.000404	4.039756	1.368706	-0.032265
 819	4.0900e-01	7.3009	57.211520	0.000838	8.382494	2.840066	-0.066949
 820	4.0950e-01	7.2495	56.905005	0.000768	7.675536	2.600542	-0.061303
 821	4.1000e-01	7.2223	56.739648	0.000414	4.140750	1.402924	-0.033071
 822	4.1050e-01	7.1725	56.441198	0.000747	7.473549	2.532107	-0.059690
 823	4.1100e-01	7.1340	56.364570	0.000192	1.918884	0.650136	-0.015326
 824	4.1150e-01	7.1003	56.029822	0.000838	8.382494	2.840066	-0.066949
 825	4.1200e-01	7.0586	55.634579	0.000990	9.897402	3.353331	-0.079049
 826	4.1250e-01	7.0201	55.521652	0.000283	2.827829	0.958094	-0.022585
 827	4.1300e-01	6.9752	55.400659	0.000303	3.029817	1.026530	-0.024199
 828	4.1350e-01	6.9463	55.045746	0.000889	8.887463	3.011154	-0.070983
 829	4.1400e-01	6.8998	54.690834	0.000889	8.887463	3.011154	-0.070983
 830	4.1450e-01	6.8597	54.218961	0.001182	11.816286	4.003466	-0.094375
 831	4.1500e-01	6.8212	54.097968	0.000303	3.029817	1.026530	-0.024199
 832	4.1550e-01	6.7843	54.134266	-0.000091	-0.908945	-0.307959	0.007260
 833	4.1600e-01	6.7442	53.783386	0.000879	8.786469	2.976936	-0.070176
 834	4.1650e-01	6.6977	53.460739	0.000808	8.079512	2.737413	-0.064530
 835	4.1700e-01	6.6528	53.460739	-0.000000	-0.000000	-0.000000	0.000000
 836	4.1750e-01	6.6191	52.972734	0.001222	12.220262	4.140337	-0.097601
 837	4.1800e-01	6.5758	52.718648	0.000636	6.362616	2.155713	-0.050817
 838	4.1850e-01	6.5372	52.593622	0.000313	3.130811	1.060747	-0.025005
 839	4.1900e-01	6.5020	52.186279	0.001020	10.200384	3.455984	-0.081469
 840	4.1950e-01	6.4586	51.666010	0.001303	13.028213	4.414078	-0.104054
 841	4.2000e-01	6.4169	51.488553	0.000444	4.443732	1.505577	-0.035491
 842	4.2050e-01	6.3848	51.218336	0.000677	6.766591	2.292583	-0.054044
 843	4.2100e-01	6.3415	51.105409	0.000283	2.827829	0.958094	-0.022585
 844	4.2150e-01	6.3078	50.871489	0.000586	5.857646	1.984624	-0.046784
 845	4.2200e-01	6.2533	50.734364	0.000343	3.433793	1.163400	-0.027425
 846	4.2250e-01	6.2212	50.411716	0.000808	8.079512	2.737413	-0.064530
 847	4.2300e-01	6.1811	50.173763	0.000596	5.958640	2.018842	-0.047591
 848	4.2350e-01	6.1458	49.927744	0.000616	6.160628	2.087277	-0.049204
 849	4.2400e-01	6.0945	49.834983	0.000232	2.322860	0.787006	-0.018552
 850	4.2450e-01	6.0608	49.592997	0.000606	6.059634	2.053060	-0.048397
 851	4.2500e-01	6.0271	49.371177	0.000555	5.554665	1.881971	-0.044364
 852	4.2550e-01	5.9822	49.068694	0.000757	7.574543	2.566324	-0.060496
 853	4.2600e-01	5.9421	48.766212	0.000757	7.574543	2.566324	-0.060496
 854	4.2650e-01	5.8956	48.500027	0.000667	6.665597	2.258366	-0.053237
 855	4.2700e-01	5.8554	48.003956	0.001242	12.422250	4.208772	-0.099214
 856	4.2750e-01	5.8346	47.447389	0.001394	13.937158	4.722037	-0.111314
 857	4.2800e-01	5.7784	47.419157	0.000071	0.706957	0.239524	-0.005646
 858	4.2850e-01	5.7399	47.189270	0.000576	5.756652	1.950407	-0.045977
 859	4.2900e-01	5.6998	46.830324	0.000899	8.988457	3.045372	-0.071789
 860	4.2950e-01	5.6662	46.677067	0.000384	3.837768	1.300271	-0.030652
 861	4.3000e-01	5.6148	46.273757	0.001010	10.099390	3.421766	-0.080662
 862	4.3050e-01	5.5827	46.096300	0.000444	4.443732	1.505577	-0.035491
 863	4.3100e-01	5.5442	45.789785	0.000768	7.675536	2.600542	-0.061303
 864	4.3150e-01	5.5041	45.559898	0.000576	5.756652	1.950407	-0.045977
 865	4.3200e-01	5.4608	45.301780	0.000646	6.463610	2.189930	-0.051624
 866	4.3250e-01	5.4271	45.003331	0.000747	7.473549	2.532107	-0.059690
 867	4.3300e-01	5.3870	44.971066	0.000081	0.807951	0.273741	-0.006453
 868	4.3350e-01	5.3453	44.575822	0.000990	9.897402	3.353331	-0.079049
 869	4.3400e-01	5.2988	44.317704	0.000646	6.463610	2.189930	-0.051624
 870	4.3450e-01	5.2619	44.107983	0.000525	5.251683	1.779318	-0.041944
 871	4.3500e-01	5.2138	43.769203	0.000848	8.483488	2.874283	-0.067756
 872	4.3550e-01	5.1897	43.619978	0.000374	3.736774	1.266053	-0.029845
 873	4.3600e-01	5.1319	43.224734	0.000990	9.897402	3.353331	-0.079049
 874	4.3650e-01	5.1015	42.922252	0.000757	7.574543	2.566324	-0.060496
 875	4.3700e-01	5.0598	42.898053	0.000061	0.605963	0.205306	-0.004840
 876	4.3750e-01	5.0229	42.615736	0.000707	7.069573	2.395236	-0.056463
 877	4.3800e-01	4.9827	42.333419	0.000707	7.069573	2.395236	-0.056463
 878	4.3850e-01	4.9394	42.067235	0.000667	6.665597	2.258366	-0.053237
 879	4.3900e-01	4.9057	41.708289	0.000899	8.988457	3.045372	-0.071789
 880	4.3950e-01	4.8640	41.329178	0.000949	9.493427	3.216460	-0.075822
 881	4.4000e-01	4.8223	41.204152	0.000313	3.130811	1.060747	-0.025005
 882	4.4050e-01	4.7838	40.974265	0.000576	5.756652	1.950407	-0.045977
 883	4.4100e-01	4.7421	40.579022	0.000990	9.897402	3.353331	-0.079049
 884	4.4150e-01	4.7100	40.449962	0.000323	3.231805	1.094965	-0.025812
 885	4.4200e-01	4.6571	40.256374	0.000485	4.847707	1.642448	-0.038718
 886	4.4250e-01	4.6170	39.857097	0.001000	9.998396	3.387548	-0.079855
 887	4.4300e-01	4.5817	39.498151	0.000899	8.988457	3.045372	-0.071789
 888	4.4350e-01	4.5480	39.167437	0.000828	8.281500	2.805848	-0.066143
 889	4.4400e-01	4.4983	38.913352	0.000636	6.362616	2.155713	-0.050817
 890	4.4450e-01	4.4550	38.614903	0.000747	7.473549	2.532107	-0.059690
 891	4.4500e-01	4.4229	38.376950	0.000596	5.958640	2.018842	-0.047591
 892	4.4550e-01	4.3828	38.308387	0.000172	1.716896	0.581700	-0.013713
 893	4.4600e-01	4.3539	38.018004	0.000727	7.271561	2.463672	-0.058077
 894	4.4650e-01	4.2977	37.804250	0.000535	5.352677	1.813536	-0.042751
 895	4.4700e-01	4.2592	37.457403	0.000869	8.685475	2.942719	-0.069369
 896	4.4750e-01	4.2111	37.195252	0.000656	6.564604	2.224148	-0.052430
 897	4.4800e-01	4.1838	36.969398	0.000566	5.655658	1.916189	-0.045171
 898	4.4850e-01	4.1421	36.545923	0.001060	10.604360	3.592854	-0.084695
 899	4.4900e-01	4.1068	36.307970	0.000596	5.958640	2.018842	-0.047591
 900	4.4950e-01	4.0587	36.078084	0.000576	5.756652	1.950407	-0.045977
 901	4.5000e-01	4.0266	35.832065	0.000616	6.160628	2.087277	-0.049204
 902	4.5050e-01	3.9753	35.614277	0.000545	5.453671	1.847754	-0.043557
 903	4.5100e-01	3.9320	35.396490	0.000545	5.453671	1.847754	-0.043557
 904	4.5150e-01	3.9047	35.110140	0.000717	7.170567	2.429454	-0.057270
 905	4.5200e-01	3.8582	34.650367	0.001151	11.513305	3.900813	-0.091955
 906	4.5250e-01	3.8261	34.182527	0.001172	11.715292	3.969249	-0.093568
 907	4.5300e-01	3.7860	34.194626	-0.000030	-0.302982	-0.102653	0.002420
 908	4.5350e-01	3.7491	33.855846	0.000848	8.483488	2.874283	-0.067756
 909	4.5400e-01	3.7058	33.488834	0.000919	9.190445	3.113807	-0.073402
 910	4.5450e-01	3.6673	33.315411	0.000434	4.342738	1.471359	-0.034685
 911	4.5500e-01	3.6127	32.912101	0.001010	10.099390	3.421766	-0.080662
 912	4.5550e-01	3.5903	32.565255	0.000869	8.685475	2.942719	-0.069369
 913	4.5600e-01	3.5309	32.444262	0.000303	3.029817	1.026530	-0.024199
 914	4.5650e-01	3.5004	32.234541	0.000525	5.251683	1.779318	-0.041944
 915	4.5700e-01	3.4587	31.964323	0.000677	6.766591	2.292583	-0.054044
 916	4.5750e-01	3.4234	31.686039	0.000697	6.968579	2.361019	-0.055657
 917	4.5800e-01	3.3801	31.310961	0.000939	9.392433	3.182242	-0.075016
 918	4.5850e-01	3.3464	31.060909	0.000626	6.261622	2.121495	-0.050010
 919	4.5900e-01	3.3031	30.697930	0.000909	9.089451	3.079589	-0.072596
 920	4.5950e-01	3.2614	30.653566	0.000111	1.110933	0.376394	-0.008873
 921	4.6000e-01	3.2293	30.165561	0.001222	12.220262	4.140337	-0.097601
 922	4.6050e-01	3.1812	29.971972	0.000485	4.847707	1.642448	-0.038718
 923	4.6100e-01	3.1379	29.689655	0.000707	7.069573	2.395236	-0.056463
 924	4.6150e-01	3.0978	29.479934	0.000525	5.251683	1.779318	-0.041944
 925	4.6200e-01	3.0593	29.092757	0.000970	9.695414	3.284895	-0.077435
 926	4.6250e-01	3.0224	28.935466	0.000394	3.938762	1.334489	-0.031458
 927	4.6300e-01	2.9903	28.499891	0.001091	10.907341	3.695507	-0.087115
 928	4.6350e-01	2.9309	28.257905	0.000606	6.059634	2.053060	-0.048397
 929	4.6400e-01	2.9053	28.161111	0.000242	2.423854	0.821224	-0.019359
 930	4.6450e-01	2.8652	27.882827	0.000697	6.968579	2.361019	-0.055657
 931	4.6500e-01	2.8170	27.544047	0.000848	8.483488	2.874283	-0.067756
 932	4.6550e-01	2.7705	27.221399	0.000808	8.079512	2.737413	-0.064530
 933	4.6600e-01	2.7400	26.991512	0.000576	5.756652	1.950407	-0.045977
 934	4.6650e-01	2.7095	26.600302	0.000980	9.796408	3.319113	-0.078242
 935	4.6700e-01	2.6582	26.269588	0.000828	8.281500	2.805848	-0.066143
 936	4.6750e-01	2.6085	26.039701	0.000576	5.756652	1.950407	-0.045977
 937	4.6800e-01	2.5892	25.785616	0.000636	6.362616	2.155713	-0.050817
 938	4.6850e-01	2.5315	25.418604	0.000919	9.190445	3.113807	-0.073402
 939	4.6900e-01	2.4962	25.132254	0.000717	7.170567	2.429454	-0.057270
 940	4.6950e-01	2.4609	24.898334	0.000586	5.857646	1.984624	-0.046784
 941	4.7000e-01	2.4224	24.607951	0.000727	7.271561	2.463672	-0.058077
 942	4.7050e-01	2.3727	24.321601	0.000717	7.170567	2.429454	-0.057270
 943	4.7100e-01	2.3293	24.063483	0.000646	6.463610	2.189930	-0.051624
 944	4.7150e-01	2.2989	23.849729	0.000535	5.352677	1.813536	-0.042751
 945	4.7200e-01	2.2652	23.547246	0.000757	7.574543	2.566324	-0.060496
 946	4.7250e-01	2.2219	23.289128	0.000646	6.463610	2.189930	-0.051624
 947	4.7300e-01	2.1850	22.954381	0.000838	8.382494	2.840066	-0.066949
 948	4.7350e-01	2.1384	22.510740	0.001111	11.109329	3.763943	-0.088728
 949	4.7400e-01	2.1048	22.401846	0.000273	2.726835	0.923877	-0.021779
 950	4.7450e-01	2.0663	22.147761	0.000636	6.362616	2.155713	-0.050817
 951	4.7500e-01	2.0149	21.853345	0.000737	7.372555	2.497889	-0.058883
 952	4.7550e-01	1.9796	21.413737	0.001101	11.008335	3.729725	-0.087922
 953	4.7600e-01	1.9379	21.224181	0.000475	4.746713	1.608230	-0.037911
 954	4.7650e-01	1.8978	20.881368	0.000858	8.584482	2.908501	-0.068563
 955	4.7700e-01	1.8561	20.623250	0.000646	6.463610	2.189930	-0.051624
 956	4.7750e-01	1.8128	20.425628	0.000495	4.948701	1.676665	-0.039524
 957	4.7800e-01	1.7727	20.361098	0.000162	1.615902	0.547483	-0.012906
 958	4.7850e-01	1.7470	19.953755	0.001020	10.200384	3.455984	-0.081469
 959	4.7900e-01	1.6925	19.635141	0.000798	7.978518	2.703195	-0.063723
 960	4.7950e-01	1.6636	19.288294	0.000869	8.685475	2.942719	-0.069369
 961	4.8000e-01	1.6171	18.941448	0.000869	8.685475	2.942719	-0.069369
 962	4.8050e-01	1.5770	18.614767	0.000818	8.180506	2.771630	-0.065336
 963	4.8100e-01	1.5385	18.388913	0.000566	5.655658	1.916189	-0.045171
 964	4.8150e-01	1.4984	18.094497	0.000737	7.372555	2.497889	-0.058883
 965	4.8200e-01	1.4566	17.779915	0.000788	7.877524	2.668977	-0.062916
 966	4.8250e-01	1.4085	17.626657	0.000384	3.837768	1.300271	-0.030652
 967	4.8300e-01	1.3845	17.239480	0.000970	9.695414	3.284895	-0.077435
 968	4.8350e-01	1.3299	17.025726	0.000535	5.352677	1.813536	-0.042751
 969	4.8400e-01	1.2962	16.695012	0.000828	8.281500	2.805848	-0.066143
 970	4.8450e-01	1.2641	16.404629	0.000727	7.271561	2.463672	-0.058077
 971	4.8500e-01	1.2208	16.150543	0.000636	6.362616	2.155713	-0.050817
 972	4.8550e-01	1.1823	15.876293	0.000687	6.867585	2.326801	-0.054850
 973	4.8600e-01	1.1406	15.404420	0.001182	11.816286	4.003466	-0.094375
 974	4.8650e-01	1.1037	15.069673	0.000838	8.382494	2.840066	-0.066949
 975	4.8700e-01	1.0508	14.855919	0.000535	5.352677	1.813536	-0.042751
 976	4.8750e-01	1.0155	14.807522	0.000121	1.211927	0.410612	-0.009679
 977	4.8800e-01	0.9818	14.380013	0.001071	10.705353	3.627072	-0.085502
 978	4.8850e-01	0.9433	14.097696	0.000707	7.069573	2.395236	-0.056463
 979	4.8900e-01	0.9000	13.714552	0.000959	9.594421	3.250678	-0.076629
 980	4.8950e-01	0.8551	13.351573	0.000909	9.089451	3.079589	-0.072596
 981	4.9000e-01	0.8166	12.996660	0.000889	8.887463	3.011154	-0.070983
 982	4.9050e-01	0.7813	12.940197	0.000141	1.413915	0.479047	-0.011293
 983	4.9100e-01	0.7396	12.569152	0.000929	9.291439	3.148025	-0.074209
 984	4.9150e-01	0.6978	12.246504	0.000808	8.079512	2.737413	-0.064530
 985	4.9200e-01	0.6513	12.165842	0.000202	2.019878	0.684353	-0.016132
 986	4.9250e-01	0.6192	11.859326	0.000768	7.675536	2.600542	-0.061303
 987	4.9300e-01	0.5791	11.524579	0.000838	8.382494	2.840066	-0.066949
 988	4.9350e-01	0.5390	11.133369	0.000980	9.796408	3.319113	-0.078242
 989	4.9400e-01	0.4941	10.847019	0.000717	7.170567	2.429454	-0.057270
 990	4.9450e-01	0.4620	10.427576	0.001050	10.503366	3.558637	-0.083888
 991	4.9500e-01	0.4171	10.282385	0.000364	3.635780	1.231836	-0.029038
 992	4.9550e-01	0.3818	9.983936	0.000747	7.473549	2.532107	-0.059690
 993	4.9600e-01	0.3369	9.721784	0.000656	6.564604	2.224148	-0.052430
 994	4.9650e-01	0.3080	9.415269	0.000768	7.675536	2.600542	-0.061303
 995	4.9700e-01	0.2567	9.112786	0.000757	7.574543	2.566324	-0.060496
 996	4.9750e-01	0.2166	8.798205	0.000788	7.877524	2.668977	-0.062916
 997	4.9800e-01	0.1829	8.503788	0.000737	7.372555	2.497889	-0.058883
 998	4.9850e-01	0.1444	8.169041	0.000838	8.382494	2.840066	-0.066949
 999	4.9900e-01	0.0914	7.870592	0.000747	7.473549	2.532107	-0.059690
1000	4.9950e-01	0.0610	7.741533	0.000323	3.231805	1.094965	-0.025812
1001	5.0000e-01	0.0160	7.213197	0.001323	13.230201	4.482513	-0.105667
1002	5.0050e-01	-0.0193	6.910714	0.000757	7.574543	2.566324	-0.060496
1003	5.0100e-01	-0.0545	6.765523	0.000364	3.635780	1.231836	-0.029038
1004	5.0150e-01	-0.1059	6.636464	0.000323	3.231805	1.094965	-0.025812
1005	5.0200e-01	-0.1332	6.338014	0.000747	7.473549	2.532107	-0.059690
1006	5.0250e-01	-0.1733	5.741116	0.001495	14.947097	5.064214	-0.119380
1007	5.0300e-01	-0.2198	5.648355	0.000232	2.322860	0.787006	-0.018552
1008	5.0350e-01	-0.2454	5.301508	0.000869	8.685475	2.942719	-0.069369
1009	5.0400e-01	-0.3032	4.986926	0.000788	7.877524	2.668977	-0.062916
1010	5.0450e-01	-0.3337	4.765106	0.000555	5.554665	1.881971	-0.044364
1011	5.0500e-01	-0.3722	4.385995	0.000949	9.493427	3.216460	-0.075822
1012	5.0550e-01	-0.4123	3.990751	0.000990	9.897402	3.353331	-0.079049
1013	5.0600e-01	-0.4524	3.676169	0.000788	7.877524	2.668977	-0.062916
1014	5.0650e-01	-0.4957	3.409985	0.000667	6.665597	2.258366	-0.053237
1015	5.0700e-01	-0.5326	3.309157	0.000252	2.524848	0.855441	-0.020165
1016	5.0750e-01	-0.5791	2.889715	0.001050	10.503366	3.558637	-0.083888
1017	5.0800e-01	-0.6128	2.550935	0.000848	8.483488	2.874283	-0.067756
1018	5.0850e-01	-0.6545	2.377512	0.000434	4.342738	1.471359	-0.034685
1019	5.0900e-01	-0.6930	1.998400	0.000949	9.493427	3.216460	-0.075822
1020	5.0950e-01	-0.7363	1.724150	0.000687	6.867585	2.326801	-0.054850
1021	5.1000e-01	-0.7748	1.324873	0.001000	9.998396	3.387548	-0.079855
1022	5.1050e-01	-0.8005	1.131284	0.000485	4.847707	1.642448	-0.038718
1023	5.1100e-01	-0.8486	0.780405	0.000879	8.786469	2.976936	-0.070176
1024	5.1150e-01	-0.8920	0.449690	0.000828	8.281500	2.805848	-0.066143
1025	5.1200e-01	-0.9353	0.453724	-0.000010	-0.100994	-0.034218	0.000807
1026	5.1250e-01	-0.9770	0.090745	0.000909	9.089451	3.079589	-0.072596
1027	5.1300e-01	-1.0139	-0.288367	0.000949	9.493427	3.216460	-0.075822
1028	5.1350e-01	-1.0556	-0.679577	0.000980	9.796408	3.319113	-0.078242
1029	5.1400e-01	-1.1005	-1.034490	0.000889	8.887463	3.011154	-0.070983
1030	5.1450e-01	-1.1390	-1.276476	0.000606	6.059634	2.053060	-0.048397
1031	5.1500e-01	-1.1727	-1.328906	0.000131	1.312921	0.444830	-0.010486
1032	5.1550e-01	-1.2176	-1.667686	0.000848	8.483488	2.874283	-0.067756
1033	5.1600e-01	-1.2545	-1.990334	0.000808	8.079512	2.737413	-0.064530
1034	5.1650e-01	-1.2850	-2.502538	0.001283	12.826225	4.345643	-0.102441
1035	5.1700e-01	-1.3363	-2.635630	0.000333	3.332799	1.129183	-0.026618
1036	5.1750e-01	-1.3700	-3.042973	0.001020	10.200384	3.455984	-0.081469
1037	5.1800e-01	-1.4133	-3.167999	0.000313	3.130811	1.060747	-0.025005
1038	5.1850e-01	-1.4470	-3.583408	0.001040	10.402372	3.524419	-0.083082
1039	5.1900e-01	-1.4951	-3.918155	0.000838	8.382494	2.840066	-0.066949
1040	5.1950e-01	-1.5417	-4.035115	0.000293	2.928823	0.992312	-0.023392
1041	5.2000e-01	-1.5770	-4.623948	0.001475	14.745109	4.995778	-0.117766
1042	5.2050e-01	-1.6187	-5.031291	0.001020	10.200384	3.455984	-0.081469
1043	5.2100e-01	-1.6604	-5.035324	0.000010	0.100994	0.034218	-0.000807
1044	5.2150e-01	-1.6925	-5.470898	0.001091	10.907341	3.695507	-0.087115
1045	5.2200e-01	-1.7278	-5.781447	0.000778	7.776530	2.634760	-0.062110
1046	5.2250e-01	-1.7807	-5.938738	0.000394	3.938762	1.334489	-0.031458
1047	5.2300e-01	-1.8144	-6.241220	0.000757	7.574543	2.566324	-0.060496
1048	5.2350e-01	-1.8561	-6.680828	0.001101	11.008335	3.729725	-0.087922
1049	5.2400e-01	-1.8930	-6.930880	0.000626	6.261622	2.121495	-0.050010
1050	5.2450e-01	-1.9395	-7.136568	0.000515	5.150689	1.745101	-0.041138
1051	5.2500e-01	-1.9764	-7.455183	0.000798	7.978518	2.703195	-0.063723
1052	5.2550e-01	-2.0085	-7.822195	0.000919	9.190445	3.113807	-0.073402
1053	5.2600e-01	-2.0518	-8.031916	0.000525	5.251683	1.779318	-0.041944
1054	5.2650e-01	-2.0951	-8.346498	0.000788	7.877524	2.668977	-0.062916
1055	5.2700e-01	-2.1384	-8.725609	0.000949	9.493427	3.216460	-0.075822
1056	5.2750e-01	-2.1785	-8.790138	0.000162	1.615902	0.547483	-0.012906
1057	5.2800e-01	-2.2122	-9.185382	0.000990	9.897402	3.353331	-0.079049
1058	5.2850e-01	-2.2604	-9.580626	0.000990	9.897402	3.353331	-0.079049
1059	5.2900e-01	-2.2828	-9.927472	0.000869	8.685475	2.942719	-0.069369
1060	5.2950e-01	-2.3213	-10.185591	0.000646	6.463610	2.189930	-0.051624
1061	5.3000e-01	-2.3727	-10.290451	0.000263	2.625841	0.889659	-0.020972
1062	5.3050e-01	-2.4128	-10.681662	0.000980	9.796408	3.319113	-0.078242
1063	5.3100e-01	-2.4609	-10.996243	0.000788	7.877524	2.668977	-0.062916
1064	5.3150e-01	-2.4898	-11.197898	0.000505	5.049695	1.710883	-0.040331
1065	5.3200e-01	-2.5363	-11.629440	0.001081	10.806347	3.661290	-0.086308
1066	5.3250e-01	-2.5812	-12.133577	0.001262	12.624238	4.277207	-0.100827
1067	5.3300e-01	-2.6149	-12.452192	0.000798	7.978518	2.703195	-0.063723
1068	5.3350e-01	-2.6534	-12.524788	0.000182	1.817890	0.615918	-0.014519
1069	5.3400e-01	-2.6967	-12.734509	0.000525	5.251683	1.779318	-0.041944
1070	5.3450e-01	-2.7272	-13.121686	0.000970	9.695414	3.284895	-0.077435
1071	5.3500e-01	-2.7753	-13.210414	0.000222	2.221866	0.752789	-0.017746
1072	5.3550e-01	-2.8186	-13.690353	0.001202	12.018274	4.071902	-0.095988
1073	5.3600e-01	-2.8555	-13.944438	0.000636	6.362616	2.155713	-0.050817
1074	5.3650e-01	-2.8972	-14.246921	0.000757	7.574543	2.566324	-0.060496
1075	5.3700e-01	-2.9309	-14.484874	0.000596	5.958640	2.018842	-0.047591
1076	5.3750e-01	-2.9726	-14.674429	0.000475	4.746713	1.608230	-0.037911
1077	5.3800e-01	-3.0304	-15.081772	0.001020	10.200384	3.455984	-0.081469
1078	5.3850e-01	-3.0464	-15.351990	0.000677	6.766591	2.292583	-0.054044
1079	5.3900e-01	-3.0994	-15.702869	0.000879	8.786469	2.976936	-0.070176
1080	5.3950e-01	-3.1283	-15.969054	0.000667	6.665597	2.258366	-0.053237
1081	5.4000e-01	-3.1684	-16.295735	0.000818	8.180506	2.771630	-0.065336
1082	5.4050e-01	-3.2133	-16.658714	0.000909	9.089451	3.079589	-0.072596
1083	5.4100e-01	-3.2614	-16.820038	0.000404	4.039756	1.368706	-0.032265
1084	5.4150e-01	-3.3015	-17.187050	0.000919	9.190445	3.113807	-0.073402
1085	5.4200e-01	-3.3352	-17.396771	0.000525	5.251683	1.779318	-0.041944
1086	5.4250e-01	-3.3753	-17.654889	0.000646	6.463610	2.189930	-0.051624
1087	5.4300e-01	-3.4186	-18.066265	0.001030	10.301378	3.490201	-0.082275
1088	5.4350e-01	-3.4539	-18.211457	0.000364	3.635780	1.231836	-0.029038
1089	5.4400e-01	-3.5004	-18.538138	0.000818	8.180506	2.771630	-0.065336
1090	5.4450e-01	-3.5229	-18.812388	0.000687	6.867585	2.326801	-0.054850
1091	5.4500e-01	-3.5758	-19.102772	0.000727	7.271561	2.463672	-0.058077
1092	5.4550e-01	-3.6111	-19.381055	0.000697	6.968579	2.361019	-0.055657
1093	5.4600e-01	-3.6528	-19.639174	0.000646	6.463610	2.189930	-0.051624
1094	5.4650e-01	-3.6945	-19.772266	0.000333	3.332799	1.129183	-0.026618
1095	5.4700e-01	-3.7475	-20.058616	0.000717	7.170567	2.429454	-0.057270
1096	5.4750e-01	-3.7699	-20.413529	0.000889	8.887463	3.011154	-0.070983
1097	5.4800e-01	-3.8197	-20.808772	0.000990	9.897402	3.353331	-0.079049
1098	5.4850e-01	-3.8566	-21.155619	0.000869	8.685475	2.942719	-0.069369
1099	5.4900e-01	-3.8999	-21.325009	0.000424	4.241744	1.437142	-0.033878
1100	5.4950e-01	-3.9336	-21.579094	0.000636	6.362616	2.155713	-0.050817
1101	5.5000e-01	-3.9753	-21.893676	0.000788	7.877524	2.668977	-0.062916
1102	5.5050e-01	-4.0122	-22.252622	0.000899	8.988457	3.045372	-0.071789
1103	5.5100e-01	-4.0619	-22.474442	0.000555	5.554665	1.881971	-0.044364
1104	5.5150e-01	-4.0988	-22.680130	0.000515	5.150689	1.745101	-0.041138
1105	5.5200e-01	-4.1341	-23.031010	0.000879	8.786469	2.976936	-0.070176
1106	5.5250e-01	-4.1678	-23.337525	0.000768	7.675536	2.600542	-0.061303
1107	5.5300e-01	-4.2127	-23.692438	0.000889	8.887463	3.011154	-0.070983
1108	5.5350e-01	-4.2608	-23.865861	0.000434	4.342738	1.471359	-0.034685
1109	5.5400e-01	-4.2977	-24.067516	0.000505	5.049695	1.710883	-0.040331
1110	5.5450e-01	-4.3378	-24.458726	0.000980	9.796408	3.319113	-0.078242
1111	5.5500e-01	-4.3812	-24.837838	0.000949	9.493427	3.216460	-0.075822
1112	5.5550e-01	-4.4245	-24.882202	0.000111	1.110933	0.376394	-0.008873
1113	5.5600e-01	-4.4614	-25.128221	0.000616	6.160628	2.087277	-0.049204
1114	5.5650e-01	-4.4838	-25.430703	0.000757	7.574543	2.566324	-0.060496
1115	5.5700e-01	-4.5336	-25.676722	0.000616	6.160628	2.087277	-0.049204
1116	5.5750e-01	-4.5769	-26.015503	0.000848	8.483488	2.874283	-0.067756
1117	5.5800e-01	-4.6106	-26.382515	0.000919	9.190445	3.113807	-0.073402
1118	5.5850e-01	-4.6507	-26.680964	0.000747	7.473549	2.532107	-0.059690
1119	5.5900e-01	-4.6972	-26.854387	0.000434	4.342738	1.471359	-0.034685
1120	5.5950e-01	-4.7245	-27.225432	0.000929	9.291439	3.148025	-0.074209
1121	5.6000e-01	-4.7742	-27.689238	0.001161	11.614299	3.935031	-0.092761
1122	5.6050e-01	-4.8143	-27.564212	-0.000313	-3.130811	-1.060747	0.025005
1123	5.6100e-01	-4.8464	-27.971555	0.001020	10.200384	3.455984	-0.081469
1124	5.6150e-01	-4.8945	-28.407130	0.001091	10.907341	3.695507	-0.087115
1125	5.6200e-01	-4.9282	-28.709612	0.000757	7.574543	2.566324	-0.060496
1126	5.6250e-01	-4.9747	-28.939499	0.000576	5.756652	1.950407	-0.045977
1127	5.6300e-01	-5.0116	-29.246015	0.000768	7.675536	2.600542	-0.061303
1128	5.6350e-01	-5.0598	-29.544464	0.000747	7.473549	2.532107	-0.059690
1129	5.6400e-01	-5.0966	-29.681589	0.000343	3.433793	1.163400	-0.027425
1130	5.6450e-01	-5.1400	-30.032469	0.000879	8.786469	2.976936	-0.070176
1131	5.6500e-01	-5.1737	-30.222024	0.000475	4.746713	1.608230	-0.037911
1132	5.6550e-01	-5.2186	-30.532573	0.000778	7.776530	2.634760	-0.062110
1133	5.6600e-01	-5.2603	-30.774559	0.000606	6.059634	2.053060	-0.048397
1134	5.6650e-01	-5.2908	-31.234332	0.001151	11.513305	3.900813	-0.091955
1135	5.6700e-01	-5.3309	-31.496484	0.000656	6.564604	2.224148	-0.052430
1136	5.6750e-01	-5.3694	-31.641675	0.000364	3.635780	1.231836	-0.029038
1137	5.6800e-01	-5.4047	-31.919959	0.000697	6.968579	2.361019	-0.055657
1138	5.6850e-01	-5.4544	-32.145812	0.000566	5.655658	1.916189	-0.045171
1139	5.6900e-01	-5.4945	-32.315203	0.000424	4.241744	1.437142	-0.033878
1140	5.6950e-01	-5.5362	-32.666082	0.000879	8.786469	2.976936	-0.070176
1141	5.7000e-01	-5.5731	-33.198451	0.001333	13.331195	4.516731	-0.106474
1142	5.7050e-01	-5.6116	-33.347676	0.000374	3.736774	1.266053	-0.029845
1143	5.7100e-01	-5.6565	-33.545298	0.000495	4.948701	1.676665	-0.039524
1144	5.7150e-01	-5.6886	-33.823581	0.000697	6.968579	2.361019	-0.055657
1145	5.7200e-01	-5.7399	-34.057501	0.000586	5.857646	1.984624	-0.046784
1146	5.7250e-01	-5.7817	-34.372083	0.000788	7.877524	2.668977	-0.062916
1147	5.7300e-01	-5.8105	-34.472910	0.000252	2.524848	0.855441	-0.020165
1148	5.7350e-01	-5.8571	-34.581804	0.000273	2.726835	0.923877	-0.021779
1149	5.7400e-01	-5.8956	-35.065776	0.001212	12.119268	4.106119	-0.096794
1150	5.7450e-01	-5.9325	-35.461019	0.000990	9.897402	3.353331	-0.079049
1151	5.7500e-01	-5.9710	-35.795767	0.000838	8.382494	2.840066	-0.066949
1152	5.7550e-01	-6.0191	-35.868362	0.000182	1.817890	0.615918	-0.014519
1153	5.7600e-01	-6.0560	-36.166812	0.000747	7.473549	2.532107	-0.059690
1154	5.7650e-01	-6.0993	-36.352334	0.000465	4.645719	1.574012	-0.037105
1155	5.7700e-01	-6.1410	-36.707247	0.000889	8.887463	3.011154	-0.070983
1156	5.7750e-01	-6.1699	-36.844372	0.000343	3.433793	1.163400	-0.027425
1157	5.7800e-01	-6.2116	-37.183153	0.000848	8.483488	2.874283	-0.067756
1158	5.7850e-01	-6.2677	-37.586462	0.001010	10.099390	3.421766	-0.080662
1159	5.7900e-01	-6.3078	-37.868779	0.000707	7.069573	2.395236	-0.056463
1160	5.7950e-01	-6.3351	-37.993805	0.000313	3.130811	1.060747	-0.025005
1161	5.8000e-01	-6.3800	-38.344685	0.000879	8.786469	2.976936	-0.070176
1162	5.8050e-01	-6.4185	-38.570538	0.000566	5.655658	1.916189	-0.045171
1163	5.8100e-01	-6.4635	-39.119040	0.001374	13.735170	4.653602	-0.109700
1164	5.8150e-01	-6.4971	-39.328761	0.000525	5.251683	1.779318	-0.041944
1165	5.8200e-01	-6.5389	-39.522350	0.000485	4.847707	1.642448	-0.038718
1166	5.8250e-01	-6.5661	-39.627210	0.000263	2.625841	0.889659	-0.020972
1167	5.8300e-01	-6.6110	-40.018421	0.000980	9.796408	3.319113	-0.078242
1168	5.8350e-01	-6.6463	-40.135381	0.000293	2.928823	0.992312	-0.023392
1169	5.8400e-01	-6.6864	-40.280572	0.000364	3.635780	1.231836	-0.029038
1170	5.8450e-01	-6.7298	-40.611286	0.000828	8.281500	2.805848	-0.066143
1171	5.8500e-01	-6.7763	-40.881504	0.000677	6.766591	2.292583	-0.054044
1172	5.8550e-01	-6.8116	-41.127523	0.000616	6.160628	2.087277	-0.049204
1173	5.8600e-01	-6.8517	-41.550998	0.001060	10.604360	3.592854	-0.084695
1174	5.8650e-01	-6.8918	-41.684091	0.000333	3.332799	1.129183	-0.026618
1175	5.8700e-01	-6.9415	-41.962374	0.000697	6.968579	2.361019	-0.055657
1176	5.8750e-01	-6.9768	-42.357618	0.000990	9.897402	3.353331	-0.079049
1177	5.8800e-01	-7.0153	-42.551207	0.000485	4.847707	1.642448	-0.038718
1178	5.8850e-01	-7.0458	-42.869822	0.000798	7.978518	2.703195	-0.063723
1179	5.8900e-01	-7.0987	-43.023079	0.000384	3.837768	1.300271	-0.030652
1180	5.8950e-01	-7.1340	-43.119874	0.000242	2.423854	0.821224	-0.019359
1181	5.9000e-01	-7.1757	-43.454621	0.000838	8.382494	2.840066	-0.066949
1182	5.9050e-01	-7.2078	-43.628044	0.000434	4.342738	1.471359	-0.034685
1183	5.9100e-01	-7.2575	-43.926493	0.000747	7.473549	2.532107	-0.059690
1184	5.9150e-01	-7.2993	-44.067652	0.000353	3.534787	1.197618	-0.028232
1185	5.9200e-01	-7.3329	-44.434664	0.000919	9.190445	3.113807	-0.073402
1186	5.9250e-01	-7.3714	-44.636319	0.000505	5.049695	1.710883	-0.040331
1187	5.9300e-01	-7.4148	-45.156589	0.001303	13.028213	4.414078	-0.104054
1188	5.9350e-01	-7.4565	-45.313879	0.000394	3.938762	1.334489	-0.031458
1189	5.9400e-01	-7.5014	-45.483269	0.000424	4.241744	1.437142	-0.033878
1190	5.9450e-01	-7.5367	-45.672825	0.000475	4.746713	1.608230	-0.037911
1191	5.9500e-01	-7.5768	-46.116466	0.001111	11.109329	3.763943	-0.088728
1192	5.9550e-01	-7.6137	-46.350386	0.000586	5.857646	1.984624	-0.046784
1193	5.9600e-01	-7.6586	-46.612537	0.000656	6.564604	2.224148	-0.052430
1194	5.9650e-01	-7.6859	-46.886788	0.000687	6.867585	2.326801	-0.054850
1195	5.9700e-01	-7.7340	-46.939218	0.000131	1.312921	0.444830	-0.010486
1196	5.9750e-01	-7.7725	-47.302197	0.000909	9.089451	3.079589	-0.072596
1197	5.9800e-01	-7.8126	-47.584514	0.000707	7.069573	2.395236	-0.056463
1198	5.9850e-01	-7.8591	-47.790202	0.000515	5.150689	1.745101	-0.041138
1199	5.9900e-01	-7.8960	-48.169313	0.000949	9.493427	3.216460	-0.075822
1200	5.9950e-01	-7.9345	-48.383067	0.000535	5.352677	1.813536	-0.042751
1201	6.0000e-01	-7.9762	-48.552458	0.000424	4.241744	1.437142	-0.033878
1202	6.0050e-01	-8.0115	-48.863006	0.000778	7.776530	2.634760	-0.062110
1203	6.0100e-01	-8.0565	-49.447805	0.001464	14.644116	4.961561	-0.116960
1204	6.0150e-01	-8.0998	-49.318746	-0.000323	-3.231805	-1.094965	0.025812
1205	6.0200e-01	-8.1383	-49.435706	0.000293	2.928823	0.992312	-0.023392
1206	6.0250e-01	-8.1848	-49.742222	0.000768	7.675536	2.600542	-0.061303
1207	6.0300e-01	-8.2057	-49.875314	0.000333	3.332799	1.129183	-0.026618
1208	6.0350e-01	-8.2554	-50.343153	0.001172	11.715292	3.969249	-0.093568
1209	6.0400e-01	-8.2923	-50.536742	0.000485	4.847707	1.642448	-0.038718
1210	6.0450e-01	-8.3308	-50.806960	0.000677	6.766591	2.292583	-0.054044
1211	6.0500e-01	-8.3725	-51.109442	0.000757	7.574543	2.566324	-0.060496
1212	6.0550e-01	-8.4286	-51.315130	0.000515	5.150689	1.745101	-0.041138
1213	6.0600e-01	-8.4495	-51.540984	0.000566	5.655658	1.916189	-0.045171
1214	6.0650e-01	-8.4960	-51.799102	0.000646	6.463610	2.189930	-0.051624
1215	6.0700e-01	-8.5313	-51.928161	0.000323	3.231805	1.094965	-0.025812
1216	6.0750e-01	-8.5778	-52.222577	0.000737	7.372555	2.497889	-0.058883
1217	6.0800e-01	-8.6115	-52.569424	0.000869	8.685475	2.942719	-0.069369
1218	6.0850e-01	-8.6580	-52.839641	0.000677	6.766591	2.292583	-0.054044
1219	6.0900e-01	-8.6965	-53.004998	0.000414	4.140750	1.402924	-0.033071
1220	6.0950e-01	-8.7367	-53.182455	0.000444	4.443732	1.505577	-0.035491
1221	6.1000e-01	-8.7768	-53.404275	0.000555	5.554665	1.881971	-0.044364
1222	6.1050e-01	-8.8121	-53.722890	0.000798	7.978518	2.703195	-0.063723
1223	6.1100e-01	-8.8570	-53.928578	0.000515	5.150689	1.745101	-0.041138
1224	6.1150e-01	-8.8907	-54.299623	0.000929	9.291439	3.148025	-0.074209
1225	6.1200e-01	-8.9340	-54.517410	0.000545	5.453671	1.847754	-0.043557
1226	6.1250e-01	-8.9789	-54.602105	0.000212	2.120872	0.718571	-0.016939
1227	6.1300e-01	-9.0190	-54.819893	0.000545	5.453671	1.847754	-0.043557
1228	6.1350e-01	-9.0559	-55.045746	0.000566	5.655658	1.916189	-0.045171
1229	6.1400e-01	-9.1024	-55.364361	0.000798	7.978518	2.703195	-0.063723
1230	6.1450e-01	-9.1297	-55.598281	0.000586	5.857646	1.984624	-0.046784
1231	6.1500e-01	-9.1810	-56.078220	0.001202	12.018274	4.071902	-0.095988
1232	6.1550e-01	-9.2163	-56.146782	0.000172	1.716896	0.581700	-0.013713
1233	6.1600e-01	-9.2532	-56.400867	0.000636	6.362616	2.155713	-0.050817
1234	6.1650e-01	-9.3062	-56.626721	0.000566	5.655658	1.916189	-0.045171
1235	6.1700e-01	-9.3350	-56.896939	0.000677	6.766591	2.292583	-0.054044
1236	6.1750e-01	-9.3783	-57.078428	0.000454	4.544726	1.539795	-0.036298
1237	6.1800e-01	-9.4072	-57.344612	0.000667	6.665597	2.258366	-0.053237
1238	6.1850e-01	-9.4441	-57.743889	0.001000	9.998396	3.387548	-0.079855
1239	6.1900e-01	-9.4987	-57.840684	0.000242	2.423854	0.821224	-0.019359
1240	6.1950e-01	-9.5404	-58.147199	0.000768	7.675536	2.600542	-0.061303
1241	6.2000e-01	-9.5805	-58.381119	0.000586	5.857646	1.984624	-0.046784
1242	6.2050e-01	-9.6126	-58.667469	0.000717	7.170567	2.429454	-0.057270
1243	6.2100e-01	-9.6543	-59.034481	0.000919	9.190445	3.113807	-0.073402
1244	6.2150e-01	-9.6960	-59.058679	0.000061	0.605963	0.205306	-0.004840
1245	6.2200e-01	-9.7313	-59.244202	0.000465	4.645719	1.574012	-0.037105
1246	6.2250e-01	-9.7746	-59.405526	0.000404	4.039756	1.368706	-0.032265
1247	6.2300e-01	-9.8147	-59.764472	0.000899	8.988457	3.045372	-0.071789
1248	6.2350e-01	-9.8468	-60.288774	0.001313	13.129207	4.448296	-0.104861
1249	6.2400e-01	-9.8917	-60.385569	0.000242	2.423854	0.821224	-0.019359
1250	6.2450e-01	-9.9334	-60.446065	0.000151	1.514909	0.513265	-0.012099
1251	6.2500e-01	-9.9767	-60.692084	0.000616	6.160628	2.087277	-0.049204
1252	6.2550e-01	-10.0104	-60.946170	0.000636	6.362616	2.155713	-0.050817
1253	6.2600e-01	-10.0425	-61.268817	0.000808	8.079512	2.737413	-0.064530
1254	6.2650e-01	-10.0954	-61.522903	0.000636	6.362616	2.155713	-0.050817
1255	6.2700e-01	-10.1307	-61.849584	0.000818	8.180506	2.771630	-0.065336
1256	6.2750e-01	-10.1740	-62.039139	0.000475	4.746713	1.608230	-0.037911
1257	6.2800e-01	-10.2190	-62.394052	0.000889	8.887463	3.011154	-0.070983
1258	6.2850e-01	-10.2462	-62.462615	0.000172	1.716896	0.581700	-0.013713
1259	6.2900e-01	-10.2976	-62.757031	0.000737	7.372555	2.497889	-0.058883
1260	6.2950e-01	-10.3345	-62.809461	0.000131	1.312921	0.444830	-0.010486
1261	6.3000e-01	-10.3649	-63.111943	0.000757	7.574543	2.566324	-0.060496
1262	6.3050e-01	-10.4163	-63.353929	0.000606	6.059634	2.053060	-0.048397
1263	6.3100e-01	-10.4532	-63.692710	0.000848	8.483488	2.874283	-0.067756
1264	6.3150e-01	-10.5061	-63.777405	0.000212	2.120872	0.718571	-0.016939
1265	6.3200e-01	-10.5382	-64.063755	0.000717	7.170567	2.429454	-0.057270
1266	6.3250e-01	-10.5783	-64.192814	0.000323	3.231805	1.094965	-0.025812
1267	6.3300e-01	-10.6088	-64.664686	0.001182	11.816286	4.003466	-0.094375
1268	6.3350e-01	-10.6569	-64.854242	0.000475	4.746713	1.608230	-0.037911
1269	6.3400e-01	-10.7066	-65.193022	0.000848	8.483488	2.874283	-0.067756
1270	6.3450e-01	-10.7291	-65.386611	0.000485	4.847707	1.642448	-0.038718
1271	6.3500e-01	-10.7740	-65.483405	0.000242	2.423854	0.821224	-0.019359
1272	6.3550e-01	-10.8141	-65.862517	0.000949	9.493427	3.216460	-0.075822
1273	6.3600e-01	-10.8655	-65.943179	0.000202	2.019878	0.684353	-0.016132
1274	6.3650e-01	-10.8879	-66.249694	0.000768	7.675536	2.600542	-0.061303
1275	6.3700e-01	-10.9296	-66.483614	0.000586	5.857646	1.984624	-0.046784
1276	6.3750e-01	-10.9697	-66.717534	0.000586	5.857646	1.984624	-0.046784
1277	6.3800e-01	-11.0243	-66.955486	0.000596	5.958640	2.018842	-0.047591
1278	6.3850e-01	-11.0564	-67.177307	0.000555	5.554665	1.881971	-0.044364
1279	6.3900e-01	-11.0965	-67.411227	0.000586	5.857646	1.984624	-0.046784
1280	6.3950e-01	-11.1398	-67.725808	0.000788	7.877524	2.668977	-0.062916
1281	6.4000e-01	-11.1735	-67.717742	-0.000020	-0.201988	-0.068435	0.001613
1282	6.4050e-01	-11.2088	-68.165416	0.001121	11.210323	3.798160	-0.089535
1283	6.4100e-01	-11.2473	-68.238012	0.000182	1.817890	0.615918	-0.014519
1284	6.4150e-01	-11.3050	-68.536461	0.000747	7.473549	2.532107	-0.059690
1285	6.4200e-01	-11.3387	-68.818778	0.000707	7.069573	2.395236	-0.056463
1286	6.4250e-01	-11.3708	-68.834910	0.000040	0.403976	0.136871	-0.003226
1287	6.4300e-01	-11.4157	-69.113194	0.000697	6.968579	2.361019	-0.055657
1288	6.4350e-01	-11.4478	-69.516504	0.001010	10.099390	3.421766	-0.080662
1289	6.4400e-01	-11.4943	-69.597166	0.000202	2.019878	0.684353	-0.016132
1290	6.4450e-01	-11.5360	-69.871417	0.000687	6.867585	2.326801	-0.054850
1291	6.4500e-01	-11.5794	-70.008542	0.000343	3.433793	1.163400	-0.027425
1292	6.4550e-01	-11.6162	-70.157767	0.000374	3.736774	1.266053	-0.029845
1293	6.4600e-01	-11.6596	-70.625606	0.001172	11.715292	3.969249	-0.093568
1294	6.4650e-01	-11.6949	-70.867592	0.000606	6.059634	2.053060	-0.048397
1295	6.4700e-01	-11.7366	-71.012784	0.000364	3.635780	1.231836	-0.029038
1296	6.4750e-01	-11.7783	-71.343498	0.000828	8.281500	2.805848	-0.066143
1297	6.4800e-01	-11.8088	-71.533053	0.000475	4.746713	1.608230	-0.037911
1298	6.4850e-01	-11.8505	-71.706477	0.000434	4.342738	1.471359	-0.034685
1299	6.4900e-01	-11.8986	-71.972661	0.000667	6.665597	2.258366	-0.053237
1300	6.4950e-01	-11.9243	-72.166250	0.000485	4.847707	1.642448	-0.038718
1301	6.5000e-01	-11.9740	-72.412269	0.000616	6.160628	2.087277	-0.049204
1302	6.5050e-01	-12.0141	-72.630056	0.000545	5.453671	1.847754	-0.043557
1303	6.5100e-01	-12.0622	-72.775248	0.000364	3.635780	1.231836	-0.029038
1304	6.5150e-01	-12.0927	-73.150326	0.000939	9.392433	3.182242	-0.075016
1305	6.5200e-01	-12.1344	-73.448775	0.000747	7.473549	2.532107	-0.059690
1306	6.5250e-01	-12.1825	-73.557669	0.000273	2.726835	0.923877	-0.021779
1307	6.5300e-01	-12.2114	-73.839986	0.000707	7.069573	2.395236	-0.056463
1308	6.5350e-01	-12.2531	-73.896449	0.000141	1.413915	0.479047	-0.011293
1309	6.5400e-01	-12.3029	-74.376388	0.001202	12.018274	4.071902	-0.095988
1310	6.5450e-01	-12.3349	-74.457050	0.000202	2.019878	0.684353	-0.016132
1311	6.5500e-01	-12.3783	-74.557877	0.000252	2.524848	0.855441	-0.020165
1312	6.5550e-01	-12.4200	-74.815996	0.000646	6.463610	2.189930	-0.051624
1313	6.5600e-01	-12.4505	-75.009584	0.000485	4.847707	1.642448	-0.038718
1314	6.5650e-01	-12.4986	-75.259636	0.000626	6.261622	2.121495	-0.050010
1315	6.5700e-01	-12.5339	-75.412894	0.000384	3.837768	1.300271	-0.030652
1316	6.5750e-01	-12.5772	-75.779906	0.000919	9.190445	3.113807	-0.073402
1317	6.5800e-01	-12.6205	-76.150951	0.000929	9.291439	3.148025	-0.074209
1318	6.5850e-01	-12.6510	-76.372772	0.000555	5.554665	1.881971	-0.044364
1319	6.5900e-01	-12.6943	-76.505864	0.000333	3.332799	1.129183	-0.026618
1320	6.5950e-01	-12.7312	-76.521996	0.000040	0.403976	0.136871	-0.003226
1321	6.6000e-01	-12.7777	-76.828512	0.000768	7.675536	2.600542	-0.061303
1322	6.6050e-01	-12.8114	-77.171325	0.000858	8.584482	2.908501	-0.068563
1323	6.6100e-01	-12.8547	-77.457675	0.000717	7.170567	2.429454	-0.057270
1324	6.6150e-01	-12.8900	-77.735959	0.000697	6.968579	2.361019	-0.055657
1325	6.6200e-01	-12.9381	-77.844853	0.000273	2.726835	0.923877	-0.021779
1326	6.6250e-01	-12.9734	-78.058607	0.000535	5.352677	1.813536	-0.042751
1327	6.6300e-01	-13.0183	-78.232030	0.000434	4.342738	1.471359	-0.034685
1328	6.6350e-01	-13.0504	-78.409486	0.000444	4.443732	1.505577	-0.035491
1329	6.6400e-01	-13.0937	-78.647439	0.000596	5.958640	2.018842	-0.047591
1330	6.6450e-01	-13.1371	-79.074948	0.001071	10.705353	3.627072	-0.085502
1331	6.6500e-01	-13.1675	-79.308867	0.000586	5.857646	1.984624	-0.046784
1332	6.6550e-01	-13.2125	-79.191908	-0.000293	-2.928823	-0.992312	0.023392
1333	6.6600e-01	-13.2526	-79.554886	0.000909	9.089451	3.079589	-0.072596
1334	6.6650e-01	-13.2879	-79.776707	0.000555	5.554665	1.881971	-0.044364
1335	6.6700e-01	-13.3344	-79.978362	0.000505	5.049695	1.710883	-0.040331
1336	6.6750e-01	-13.3649	-80.482499	0.001262	12.624238	4.277207	-0.100827
1337	6.6800e-01	-13.4146	-80.631724	0.000374	3.736774	1.266053	-0.029845
1338	6.6850e-01	-13.4531	-80.805147	0.000434	4.342738	1.471359	-0.034685
1339	6.6900e-01	-13.4884	-80.934206	0.000323	3.231805	1.094965	-0.025812
1340	6.6950e-01	-13.5301	-81.281053	0.000869	8.685475	2.942719	-0.069369
1341	6.7000e-01	-13.5718	-81.462542	0.000454	4.544726	1.539795	-0.036298
1342	6.7050e-01	-13.5991	-81.773091	0.000778	7.776530	2.634760	-0.062110
1343	6.7100e-01	-13.6504	-81.833587	0.000151	1.514909	0.513265	-0.012099
1344	6.7150e-01	-13.6937	-82.111871	0.000697	6.968579	2.361019	-0.055657
1345	6.7200e-01	-13.7306	-82.248996	0.000343	3.433793	1.163400	-0.027425
1346	6.7250e-01	-13.7755	-82.563578	0.000788	7.877524	2.668977	-0.062916
1347	6.7300e-01	-13.8157	-82.761200	0.000495	4.948701	1.676665	-0.039524
1348	6.7350e-01	-13.8526	-83.071748	0.000778	7.776530	2.634760	-0.062110
1349	6.7400e-01	-13.8975	-83.261304	0.000475	4.746713	1.608230	-0.037911
1350	6.7450e-01	-13.9296	-83.579919	0.000798	7.978518	2.703195	-0.063723
1351	6.7500e-01	-13.9793	-83.656548	0.000192	1.918884	0.650136	-0.015326
1352	6.7550e-01	-14.0114	-84.168751	0.001283	12.826225	4.345643	-0.102441
1353	6.7600e-01	-14.0499	-84.330075	0.000404	4.039756	1.368706	-0.032265
1354	6.7650e-01	-14.0916	-84.410737	0.000202	2.019878	0.684353	-0.016132
1355	6.7700e-01	-14.1381	-84.826146	0.001040	10.402372	3.524419	-0.083082
1356	6.7750e-01	-14.1782	-85.088298	0.000656	6.564604	2.224148	-0.052430
1357	6.7800e-01	-14.2071	-85.197191	0.000273	2.726835	0.923877	-0.021779
1358	6.7850e-01	-14.2552	-85.507740	0.000778	7.776530	2.634760	-0.062110
1359	6.7900e-01	-14.2905	-85.749726	0.000606	6.059634	2.053060	-0.048397
1360	6.7950e-01	-14.3370	-85.886851	0.000343	3.433793	1.163400	-0.027425
1361	6.8000e-01	-14.3787	-86.019944	0.000333	3.332799	1.129183	-0.026618
1362	6.8050e-01	-14.4076	-86.395022	0.000939	9.392433	3.182242	-0.075016
1363	6.8100e-01	-14.4493	-86.705570	0.000778	7.776530	2.634760	-0.062110
1364	6.8150e-01	-14.4846	-86.766067	0.000151	1.514909	0.513265	-0.012099
1365	6.8200e-01	-14.5376	-86.911258	0.000364	3.635780	1.231836	-0.029038
1366	6.8250e-01	-14.5761	-87.379098	0.001172	11.715292	3.969249	-0.093568
1367	6.8300e-01	-14.6194	-87.633183	0.000636	6.362616	2.155713	-0.050817
1368	6.8350e-01	-14.6563	-87.729977	0.000242	2.423854	0.821224	-0.019359
1369	6.8400e-01	-14.6948	-88.040526	0.000778	7.776530	2.634760	-0.062110
1370	6.8450e-01	-14.7333	-88.278479	0.000596	5.958640	2.018842	-0.047591
1371	6.8500e-01	-14.7766	-88.351075	0.000182	1.817890	0.615918	-0.014519
1372	6.8550e-01	-14.8151	-88.693888	0.000858	8.584482	2.908501	-0.068563
1373	6.8600e-01	-14.8552	-88.822947	0.000323	3.231805	1.094965	-0.025812
1374	6.8650e-01	-14.8937	-89.387581	0.001414	14.139146	4.790472	-0.112927
1375	6.8700e-01	-14.9306	-89.339184	-0.000121	-1.211927	-0.410612	0.009679
1376	6.8750e-01	-14.9707	-89.714262	0.000939	9.392433	3.182242	-0.075016
1377	6.8800e-01	-15.0060	-89.859453	0.000364	3.635780	1.231836	-0.029038
1378	6.8850e-01	-15.0557	-90.125638	0.000667	6.665597	2.258366	-0.053237
1379	6.8900e-01	-15.1039	-90.315194	0.000475	4.746713	1.608230	-0.037911
1380	6.8950e-01	-15.1391	-90.460385	0.000364	3.635780	1.231836	-0.029038
1381	6.9000e-01	-15.1793	-91.061317	0.001505	15.048091	5.098431	-0.120186
1382	6.9050e-01	-15.2194	-91.279104	0.000545	5.453671	1.847754	-0.043557
1383	6.9100e-01	-15.2482	-91.311369	0.000081	0.807951	0.273741	-0.006453
1384	6.9150e-01	-15.2932	-91.674348	0.000909	9.089451	3.079589	-0.072596
1385	6.9200e-01	-15.3333	-91.847771	0.000434	4.342738	1.471359	-0.034685
1386	6.9250e-01	-15.3734	-92.154287	0.000768	7.675536	2.600542	-0.061303
1387	6.9300e-01	-15.4135	-92.218816	0.000162	1.615902	0.547483	-0.012906
1388	6.9350e-01	-15.4504	-92.585828	0.000919	9.190445	3.113807	-0.073402
1389	6.9400e-01	-15.4905	-92.852013	0.000667	6.665597	2.258366	-0.053237
1390	6.9450e-01	-15.5370	-92.936708	0.000212	2.120872	0.718571	-0.016939
1391	6.9500e-01	-15.5755	-93.263389	0.000818	8.180506	2.771630	-0.065336
1392	6.9550e-01	-15.6172	-93.465044	0.000505	5.049695	1.710883	-0.040331
1393	6.9600e-01	-15.6525	-93.791725	0.000818	8.180506	2.771630	-0.065336
1394	6.9650e-01	-15.6942	-94.098240	0.000768	7.675536	2.600542	-0.061303
1395	6.9700e-01	-15.7295	-94.562046	0.001161	11.614299	3.935031	-0.092761
1396	6.9750e-01	-15.7744	-94.763701	0.000505	5.049695	1.710883	-0.040331
1397	6.9800e-01	-15.8225	-94.896794	0.000333	3.332799	1.129183	-0.026618
1398	6.9850e-01	-15.8546	-95.167011	0.000677	6.766591	2.292583	-0.054044
1399	6.9900e-01	-15.8931	-95.328335	0.000404	4.039756	1.368706	-0.032265
1400	6.9950e-01	-15.9381	-95.332368	0.000010	0.100994	0.034218	-0.000807
1401	7.0000e-01	-15.9733	-95.618718	0.000717	7.170567	2.429454	-0.057270
1402	7.0050e-01	-16.0038	-96.026061	0.001020	10.200384	3.455984	-0.081469
1403	7.0100e-01	-16.0568	-96.211584	0.000465	4.645719	1.574012	-0.037105
1404	7.0150e-01	-16.0969	-96.445503	0.000586	5.857646	1.984624	-0.046784
1405	7.0200e-01	-16.1354	-96.820582	0.000939	9.392433	3.182242	-0.075016
1406	7.0250e-01	-16.1675	-96.909310	0.000222	2.221866	0.752789	-0.017746
1407	7.0300e-01	-16.2140	-97.308587	0.001000	9.998396	3.387548	-0.079855
1408	7.0350e-01	-16.2573	-97.506208	0.000495	4.948701	1.676665	-0.039524
1409	7.0400e-01	-16.2942	-97.832889	0.000818	8.180506	2.771630	-0.065336
1410	7.0450e-01	-16.3375	-98.119239	0.000717	7.170567	2.429454	-0.057270
1411	7.0500e-01	-16.3760	-98.159570	0.000101	1.009939	0.342177	-0.008066
1412	7.0550e-01	-16.4161	-98.441887	0.000707	7.069573	2.395236	-0.056463
1413	7.0600e-01	-16.4482	-98.700006	0.000646	6.463610	2.189930	-0.051624
1414	7.0650e-01	-16.4899	-99.071051	0.000929	9.291439	3.148025	-0.074209
1415	7.0700e-01	-16.5316	-99.018620	-0.000131	-1.312921	-0.444830	0.010486
1416	7.0750e-01	-16.5669	-99.393699	0.000939	9.392433	3.182242	-0.075016
1417	7.0800e-01	-16.6102	-99.833306	0.001101	11.008335	3.729725	-0.087922
1418	7.0850e-01	-16.6535	-99.893803	0.000151	1.514909	0.513265	-0.012099
1419	7.0900e-01	-16.6856	-100.357609	0.001161	11.614299	3.935031	-0.092761
1420	7.0950e-01	-16.7305	-100.732687	0.000939	9.392433	3.182242	-0.075016
1421	7.1000e-01	-16.7755	-100.926276	0.000485	4.847707	1.642448	-0.038718
1422	7.1050e-01	-16.8188	-101.059368	0.000333	3.332799	1.129183	-0.026618
1423	7.1100e-01	-16.8509	-101.321520	0.000656	6.564604	2.224148	-0.052430
1424	7.1150e-01	-16.8862	-101.498976	0.000444	4.443732	1.505577	-0.035491
1425	7.1200e-01	-16.9375	-101.954716	0.001141	11.412311	3.866596	-0.091148
1426	7.1250e-01	-16.9728	-102.132172	0.000444	4.443732	1.505577	-0.035491
1427	7.1300e-01	-17.0193	-102.366092	0.000586	5.857646	1.984624	-0.046784
1428	7.1350e-01	-17.0514	-102.696806	0.000828	8.281500	2.805848	-0.066143
1429	7.1400e-01	-17.0947	-102.837965	0.000353	3.534787	1.197618	-0.028232
1430	7.1450e-01	-17.1348	-103.217076	0.000949	9.493427	3.216460	-0.075822
1431	7.1500e-01	-17.1669	-103.588121	0.000929	9.291439	3.148025	-0.074209
1432	7.1550e-01	-17.2102	-103.705081	0.000293	2.928823	0.992312	-0.023392
1433	7.1600e-01	-17.2567	-103.910769	0.000515	5.150689	1.745101	-0.041138
1434	7.1650e-01	-17.2968	-104.265682	0.000889	8.887463	3.011154	-0.070983
1435	7.1700e-01	-17.3337	-104.487502	0.000555	5.554665	1.881971	-0.044364
1436	7.1750e-01	-17.3658	-104.830315	0.000858	8.584482	2.908501	-0.068563
1437	7.1800e-01	-17.4075	-104.915010	0.000212	2.120872	0.718571	-0.016939
1438	7.1850e-01	-17.4621	-105.136831	0.000555	5.554665	1.881971	-0.044364
1439	7.1900e-01	-17.4877	-105.423181	0.000717	7.170567	2.429454	-0.057270
1440	7.1950e-01	-17.5359	-105.810358	0.000970	9.695414	3.284895	-0.077435
1441	7.2000e-01	-17.5840	-106.048311	0.000596	5.958640	2.018842	-0.047591
1442	7.2050e-01	-17.6113	-106.342727	0.000737	7.372555	2.497889	-0.058883
1443	7.2100e-01	-17.6578	-106.608912	0.000667	6.665597	2.258366	-0.053237
1444	7.2150e-01	-17.6995	-106.774269	0.000414	4.140750	1.402924	-0.033071
1445	7.2200e-01	-17.7364	-107.060619	0.000717	7.170567	2.429454	-0.057270
1446	7.2250e-01	-17.7813	-107.117082	0.000141	1.413915	0.479047	-0.011293
1447	7.2300e-01	-17.8086	-107.572822	0.001141	11.412311	3.866596	-0.091148
1448	7.2350e-01	-17.8551	-107.806742	0.000586	5.857646	1.984624	-0.046784
1449	7.2400e-01	-17.8968	-108.149556	0.000858	8.584482	2.908501	-0.068563
1450	7.2450e-01	-17.9369	-108.460104	0.000778	7.776530	2.634760	-0.062110
1451	7.2500e-01	-17.9738	-108.508501	0.000121	1.211927	0.410612	-0.009679
1452	7.2550e-01	-18.0123	-108.851315	0.000858	8.584482	2.908501	-0.068563
1453	7.2600e-01	-18.0556	-109.097334	0.000616	6.160628	2.087277	-0.049204
1454	7.2650e-01	-18.0957	-109.500644	0.001010	10.099390	3.421766	-0.080662
1455	7.2700e-01	-18.1375	-109.637769	0.000343	3.433793	1.163400	-0.027425
1456	7.2750e-01	-18.1744	-110.145939	0.001273	12.725231	4.311425	-0.101634
1457	7.2800e-01	-18.2145	-110.279032	0.000333	3.332799	1.129183	-0.026618
1458	7.2850e-01	-18.2562	-110.436322	0.000394	3.938762	1.334489	-0.031458
1459	7.2900e-01	-18.3027	-110.763003	0.000818	8.180506	2.771630	-0.065336
1460	7.2950e-01	-18.3380	-111.057420	0.000737	7.372555	2.497889	-0.058883
1461	7.3000e-01	-18.3733	-111.319571	0.000656	6.564604	2.224148	-0.052430
1462	7.3050e-01	-18.4198	-111.561557	0.000606	6.059634	2.053060	-0.048397
1463	7.3100e-01	-18.4615	-111.956801	0.000990	9.897402	3.353331	-0.079049
1464	7.3150e-01	-18.4888	-112.243151	0.000717	7.170567	2.429454	-0.057270
1465	7.3200e-01	-18.5353	-112.642427	0.001000	9.998396	3.387548	-0.079855
1466	7.3250e-01	-18.5658	-112.868281	0.000566	5.655658	1.916189	-0.045171
1467	7.3300e-01	-18.6123	-113.061870	0.000485	4.847707	1.642448	-0.038718
1468	7.3350e-01	-18.6556	-113.271591	0.000525	5.251683	1.779318	-0.041944
1469	7.3400e-01	-18.6893	-113.537775	0.000667	6.665597	2.258366	-0.053237
1470	7.3450e-01	-18.7326	-113.828158	0.000727	7.271561	2.463672	-0.058077
1471	7.3500e-01	-18.7743	-114.316163	0.001222	12.220262	4.140337	-0.097601
1472	7.3550e-01	-18.8193	-114.352461	0.000091	0.908945	0.307959	-0.007260
1473	7.3600e-01	-18.8562	-114.800135	0.001121	11.210323	3.798160	-0.089535
1474	7.3650e-01	-18.9027	-114.989691	0.000475	4.746713	1.608230	-0.037911
1475	7.3700e-01	-18.9299	-115.183280	0.000485	4.847707	1.642448	-0.038718
1476	7.3750e-01	-18.9749	-115.534159	0.000879	8.786469	2.976936	-0.070176
1477	7.3800e-01	-19.0070	-115.949568	0.001040	10.402372	3.524419	-0.083082
1478	7.3850e-01	-19.0647	-116.118958	0.000424	4.241744	1.437142	-0.033878
1479	7.3900e-01	-19.0920	-116.356911	0.000596	5.958640	2.018842	-0.047591
1480	7.3950e-01	-19.1289	-116.752155	0.000990	9.897402	3.353331	-0.079049
1481	7.4000e-01	-19.1674	-116.824751	0.000182	1.817890	0.615918	-0.014519
1482	7.4050e-01	-19.2203	-117.187730	0.000909	9.089451	3.079589	-0.072596
1483	7.4100e-01	-19.2636	-117.466013	0.000697	6.968579	2.361019	-0.055657
1484	7.4150e-01	-19.2989	-117.772529	0.000768	7.675536	2.600542	-0.061303
1485	7.4200e-01	-19.3342	-118.224236	0.001131	11.311317	3.832378	-0.090341
1486	7.4250e-01	-19.3823	-118.337163	0.000283	2.827829	0.958094	-0.022585
1487	7.4300e-01	-19.4144	-118.579149	0.000606	6.059634	2.053060	-0.048397
1488	7.4350e-01	-19.4513	-118.986492	0.001020	10.200384	3.455984	-0.081469
1489	7.4400e-01	-19.4834	-119.337371	0.000879	8.786469	2.976936	-0.070176
1490	7.4450e-01	-19.5299	-119.232511	-0.000263	-2.625841	-0.889659	0.020972
1491	7.4500e-01	-19.5813	-119.712449	0.001202	12.018274	4.071902	-0.095988
1492	7.4550e-01	-19.6005	-120.184322	0.001182	11.816286	4.003466	-0.094375
1493	7.4600e-01	-19.6535	-120.527135	0.000858	8.584482	2.908501	-0.068563
1494	7.4650e-01	-19.6984	-120.579565	0.000131	1.312921	0.444830	-0.010486
1495	7.4700e-01	-19.7337	-121.043372	0.001161	11.614299	3.935031	-0.092761
1496	7.4750e-01	-19.7577	-121.140166	0.000242	2.423854	0.821224	-0.019359
1497	7.4800e-01	-19.8123	-121.378119	0.000596	5.958640	2.018842	-0.047591
1498	7.4850e-01	-19.8620	-121.656403	0.000697	6.968579	2.361019	-0.055657
1499	7.4900e-01	-19.8861	-122.067779	0.001030	10.301378	3.490201	-0.082275
1500	7.4950e-01	-19.9310	-122.257334	0.000475	4.746713	1.608230	-0.037911
1501	7.5000e-01	-19.9759	-122.761472	0.001262	12.624238	4.277207	-0.100827
1502	7.5050e-01	-19.9759	-122.688876	-0.000182	-1.817890	-0.615918	0.014519
1503	7.5100e-01	-19.9486	-122.749373	-0.000151	-1.514909	-0.513265	-0.012099
1504	7.5150e-01	-19.9117	-122.668711	0.000202	2.019878	0.684353	0.016132
1505	7.5200e-01	-19.8764	-122.620313	0.000121	1.211927	0.410612	0.009679
1506	7.5250e-01	-19.8444	-122.652578	-0.000081	-0.807951	-0.273741	-0.006453
1507	7.5300e-01	-19.7946	-122.753406	-0.000252	-2.524848	-0.855441	-0.020165
1508	7.5350e-01	-19.7529	-122.588049	0.000414	4.140750	1.402924	0.033071
1509	7.5400e-01	-19.7128	-122.414625	0.000434	4.342738	1.471359	0.034685
1510	7.5450e-01	-19.6871	-122.467056	-0.000131	-1.312921	-0.444830	-0.010486
1511	7.5500e-01	-19.6502	-122.378327	0.000222	2.221866	0.752789	0.017746
1512	7.5550e-01	-19.6069	-122.245235	0.000333	3.332799	1.129183	0.026618
1513	7.5600e-01	-19.5604	-122.039547	0.000515	5.150689	1.745101	0.041138
1514	7.5650e-01	-19.5171	-121.954852	0.000212	2.120872	0.718571	0.016939
1515	7.5700e-01	-19.4866	-121.805627	0.000374	3.736774	1.266053	0.029845
1516	7.5750e-01	-19.4449	-121.785462	0.000050	0.504970	0.171088	0.004033
1517	7.5800e-01	-19.4000	-121.696734	0.000222	2.221866	0.752789	0.017746
1518	7.5850e-01	-19.3615	-121.273258	0.001060	10.604360	3.592854	0.084695
1519	7.5900e-01	-19.3262	-121.374086	-0.000252	-2.524848	-0.855441	-0.020165
1520	7.5950e-01	-19.2781	-121.591873	-0.000545	-5.453671	-1.847754	-0.043557
1521	7.6000e-01	-19.2460	-121.321656	0.000677	6.766591	2.292583	0.054044
1522	7.6050e-01	-19.1979	-121.236961	0.000212	2.120872	0.718571	0.016939
1523	7.6100e-01	-19.1642	-121.011107	0.000566	5.655658	1.916189	0.045171
1524	7.6150e-01	-19.1257	-120.982875	0.000071	0.706957	0.239524	0.005646
1525	7.6200e-01	-19.0823	-120.748956	0.000586	5.857646	1.984624	0.046784
1526	7.6250e-01	-19.0503	-120.519069	0.000576	5.756652	1.950407	0.045977
1527	7.6300e-01	-19.0037	-120.430341	0.000222	2.221866	0.752789	0.017746
1528	7.6350e-01	-18.9636	-120.264984	0.000414	4.140750	1.402924	0.033071
1529	7.6400e-01	-18.9219	-120.184322	0.000202	2.019878	0.684353	0.016132
1530	7.6450e-01	-18.8722	-120.148024	0.000091	0.908945	0.307959	0.007260
1531	7.6500e-01	-18.8433	-119.978634	0.000424	4.241744	1.437142	0.033878
1532	7.6550e-01	-18.8000	-119.889906	0.000222	2.221866	0.752789	0.017746
1533	7.6600e-01	-18.7663	-119.760846	0.000323	3.231805	1.094965	0.025812
1534	7.6650e-01	-18.7230	-119.655986	0.000263	2.625841	0.889659	0.020972
1535	7.6700e-01	-18.6861	-119.313173	0.000858	8.584482	2.908501	0.068563
1536	7.6750e-01	-18.6428	-119.200246	0.000283	2.827829	0.958094	0.022585
1537	7.6800e-01	-18.5979	-118.990525	0.000525	5.251683	1.779318	0.041944
1538	7.6850e-01	-18.5626	-118.792903	0.000495	4.948701	1.676665	0.039524
1539	7.6900e-01	-18.5289	-118.800969	-0.000020	-0.201988	-0.068435	-0.001613
1540	7.6950e-01	-18.4824	-118.599314	0.000505	5.049695	1.710883	0.040331
1541	7.7000e-01	-18.4326	-118.466222	0.000333	3.332799	1.129183	0.026618
1542	7.7050e-01	-18.4054	-118.458156	0.000020	0.201988	0.068435	0.001613
1543	7.7100e-01	-18.3669	-118.107276	0.000879	8.786469	2.976936	0.070176
1544	7.7150e-01	-18.3219	-118.050813	0.000141	1.413915	0.479047	0.011293
1545	7.7200e-01	-18.2786	-117.913687	0.000343	3.433793	1.163400	0.027425
1546	7.7250e-01	-18.2369	-117.732198	0.000454	4.544726	1.539795	0.036298
1547	7.7300e-01	-18.2080	-117.663635	0.000172	1.716896	0.581700	0.013713
1548	7.7350e-01	-18.1679	-117.320822	0.000858	8.584482	2.908501	0.068563
1549	7.7400e-01	-18.1246	-117.260325	0.000151	1.514909	0.513265	0.012099
1550	7.7450e-01	-18.0813	-117.260325	0.000000	0.000000	0.000000	0.000000
1551	7.7500e-01	-18.0444	-116.990108	0.000677	6.766591	2.292583	0.054044
1552	7.7550e-01	-17.9963	-116.844916	0.000364	3.635780	1.231836	0.029038
1553	7.7600e-01	-17.9610	-117.034472	-0.000475	-4.746713	-1.608230	-0.037911
1554	7.7650e-01	-17.9257	-116.627129	0.001020	10.200384	3.455984	0.081469
1555	7.7700e-01	-17.8856	-116.252051	0.000939	9.392433	3.182242	0.075016
1556	7.7750e-01	-17.8487	-116.344812	-0.000232	-2.322860	-0.787006	-0.018552
1557	7.7800e-01	-17.8054	-116.320613	0.000061	0.605963	0.205306	0.004840
1558	7.7850e-01	-17.7556	-115.949568	0.000929	9.291439	3.148025	0.074209
1559	7.7900e-01	-17.7188	-115.901171	0.000121	1.211927	0.410612	0.009679
1560	7.7950e-01	-17.6835	-115.816476	0.000212	2.120872	0.718571	0.016939
1561	7.8000e-01	-17.6514	-115.409133	0.001020	10.200384	3.455984	0.081469
1562	7.8050e-01	-17.6065	-115.118750	0.000727	7.271561	2.463672	0.058077
1563	7.8100e-01	-17.5712	-115.050187	0.000172	1.716896	0.581700	0.013713
1564	7.8150e-01	-17.5311	-115.017922	0.000081	0.807951	0.273741	0.006453
1565	7.8200e-01	-17.4781	-114.808201	0.000525	5.251683	1.779318	0.041944
1566	7.8250e-01	-17.4412	-114.719473	0.000222	2.221866	0.752789	0.017746
1567	7.8300e-01	-17.3947	-114.344395	0.000939	9.392433	3.182242	0.075016
1568	7.8350e-01	-17.3642	-114.271799	0.000182	1.817890	0.615918	0.014519
1569	7.8400e-01	-17.3225	-114.110475	0.000404	4.039756	1.368706	0.032265
1570	7.8450e-01	-17.2856	-114.118542	-0.000020	-0.201988	-0.068435	-0.001613
1571	7.8500e-01	-17.2359	-113.836225	0.000707	7.069573	2.395236	0.056463
1572	7.8550e-01	-17.1958	-113.828158	0.000020	0.201988	0.068435	0.001613
1573	7.8600e-01	-17.1605	-113.481312	0.000869	8.685475	2.942719	0.069369
1574	7.8650e-01	-17.1156	-113.315955	0.000414	4.140750	1.402924	0.033071
1575	7.8700e-01	-17.0819	-113.094134	0.000555	5.554665	1.881971	0.044364
1576	7.8750e-01	-17.0386	-113.078002	0.000040	0.403976	0.136871	0.003226
1577	7.8800e-01	-17.0065	-112.908612	0.000424	4.241744	1.437142	0.033878
1578	7.8850e-01	-16.9567	-112.811818	0.000242	2.423854	0.821224	0.019359
1579	7.8900e-01	-16.9166	-112.469004	0.000858	8.584482	2.908501	0.068563
1580	7.8950e-01	-16.8797	-112.227018	0.000606	6.059634	2.053060	0.048397
1581	7.9000e-01	-16.8412	-112.130224	0.000242	2.423854	0.821224	0.019359
1582	7.9050e-01	-16.8011	-111.908403	0.000555	5.554665	1.881971	0.044364
1583	7.9100e-01	-16.7578	-111.900337	0.000020	0.201988	0.068435	0.001613
1584	7.9150e-01	-16.7145	-111.779344	0.000303	3.029817	1.026530	0.024199
1585	7.9200e-01	-16.6776	-111.666418	0.000283	2.827829	0.958094	0.022585
1586	7.9250e-01	-16.6359	-111.577689	0.000222	2.221866	0.752789	0.017746
1587	7.9300e-01	-16.5990	-111.351836	0.000566	5.655658	1.916189	0.045171
1588	7.9350e-01	-16.5541	-111.057420	0.000737	7.372555	2.497889	0.058883
1589	7.9400e-01	-16.5172	-110.892063	0.000414	4.140750	1.402924	0.033071
1590	7.9450e-01	-16.4851	-110.666209	0.000566	5.655658	1.916189	0.045171
1591	7.9500e-01	-16.4450	-110.537150	0.000323	3.231805	1.094965	0.025812
1592	7.9550e-01	-16.4017	-110.379859	0.000394	3.938762	1.334489	0.031458
1593	7.9600e-01	-16.3616	-110.246767	0.000333	3.332799	1.129183	0.026618
1594	7.9650e-01	-16.3134	-110.077377	0.000424	4.241744	1.437142	0.033878
1595	7.9700e-01	-16.2733	-109.859589	0.000545	5.453671	1.847754	0.043557
1596	7.9750e-01	-16.2380	-109.706332	0.000384	3.837768	1.300271	0.030652
1597	7.9800e-01	-16.1963	-109.492577	0.000535	5.352677	1.813536	0.042751
1598	7.9850e-01	-16.1594	-109.282856	0.000525	5.251683	1.779318	0.041944
1599	7.9900e-01	-16.1241	-109.121532	0.000404	4.039756	1.368706	0.032265
1600	7.9950e-01	-16.0840	-108.907778	0.000535	5.352677	1.813536	0.042751
1601	8.0000e-01	-16.0471	-108.927944	-0.000050	-0.504970	-0.171088	-0.004033
1602	8.0050e-01	-16.0038	-108.528667	0.001000	9.998396	3.387548	0.079855
1603	8.0100e-01	-15.9541	-108.476237	0.000131	1.312921	0.444830	0.010486
1604	8.0150e-01	-15.9140	-108.290714	0.000465	4.645719	1.574012	0.037105
1605	8.0200e-01	-15.8819	-108.125357	0.000414	4.140750	1.402924	0.033071
1606	8.0250e-01	-15.8482	-107.960000	0.000414	4.140750	1.402924	0.033071
1607	8.0300e-01	-15.8001	-107.790610	0.000424	4.241744	1.437142	0.033878
1608	8.0350e-01	-15.7648	-107.588955	0.000505	5.049695	1.710883	0.040331
1609	8.0400e-01	-15.7231	-107.480061	0.000273	2.726835	0.923877	0.021779
1610	8.0450e-01	-15.6798	-107.262274	0.000545	5.453671	1.847754	0.043557
1611	8.0500e-01	-15.6461	-106.951725	0.000778	7.776530	2.634760	0.062110
1612	8.0550e-01	-15.6028	-106.826699	0.000313	3.130811	1.060747	0.025005
1613	8.0600e-01	-15.5643	-106.693607	0.000333	3.332799	1.129183	0.026618
1614	8.0650e-01	-15.5193	-106.568581	0.000313	3.130811	1.060747	0.025005
1615	8.0700e-01	-15.4825	-106.350794	0.000545	5.453671	1.847754	0.043557
1616	8.0750e-01	-15.4375	-106.221734	0.000323	3.231805	1.094965	0.025812
1617	8.0800e-01	-15.4022	-105.915219	0.000768	7.675536	2.600542	0.061303
1618	8.0850e-01	-15.3573	-105.798259	0.000293	2.928823	0.992312	0.023392
1619	8.0900e-01	-15.3252	-105.572406	0.000566	5.655658	1.916189	0.045171
1620	8.0950e-01	-15.2819	-105.390916	0.000454	4.544726	1.539795	0.036298
1621	8.1000e-01	-15.2466	-105.439313	-0.000121	-1.211927	-0.410612	-0.009679
1622	8.1050e-01	-15.2049	-105.165063	0.000687	6.867585	2.326801	0.054850
1623	8.1100e-01	-15.1552	-104.959375	0.000515	5.150689	1.745101	0.041138
1624	8.1150e-01	-15.1183	-104.576230	0.000959	9.594421	3.250678	0.076629
1625	8.1200e-01	-15.0862	-104.342310	0.000586	5.857646	1.984624	0.046784
1626	8.1250e-01	-15.0493	-104.128556	0.000535	5.352677	1.813536	0.042751
1627	8.1300e-01	-15.0044	-104.189053	-0.000151	-1.514909	-0.513265	-0.012099
1628	8.1350e-01	-14.9579	-103.874471	0.000788	7.877524	2.668977	0.062916
1629	8.1400e-01	-14.9210	-103.616353	0.000646	6.463610	2.189930	0.051624
1630	8.1450e-01	-14.8825	-103.430830	0.000465	4.645719	1.574012	0.037105
1631	8.1500e-01	-14.8311	-103.459062	-0.000071	-0.706957	-0.239524	-0.005646
1632	8.1550e-01	-14.7958	-103.398565	0.000151	1.514909	0.513265	0.012099
1633	8.1600e-01	-14.7605	-103.277572	0.000303	3.029817	1.026530	0.024199
1634	8.1650e-01	-14.7269	-103.019454	0.000646	6.463610	2.189930	0.051624
1635	8.1700e-01	-14.6835	-102.672608	0.000869	8.685475	2.942719	0.069369
1636	8.1750e-01	-14.6370	-102.370125	0.000757	7.574543	2.566324	0.060496
1637	8.1800e-01	-14.6065	-102.156371	0.000535	5.352677	1.813536	0.042751
1638	8.1850e-01	-14.5632	-102.023279	0.000333	3.332799	1.129183	0.026618
1639	8.1900e-01	-14.5215	-102.079742	-0.000141	-1.413915	-0.479047	-0.011293
1640	8.1950e-01	-14.4846	-101.962782	0.000293	2.928823	0.992312	0.023392
1641	8.2000e-01	-14.4413	-101.744995	0.000545	5.453671	1.847754	0.043557
1642	8.2050e-01	-14.4028	-101.462678	0.000707	7.069573	2.395236	0.056463
1643	8.2100e-01	-14.3595	-101.277156	0.000465	4.645719	1.574012	0.037105
1644	8.2150e-01	-14.3098	-101.144063	0.000333	3.332799	1.129183	0.026618
1645	8.2200e-01	-14.2697	-100.926276	0.000545	5.453671	1.847754	0.043557
1646	8.2250e-01	-14.2392	-100.841581	0.000212	2.120872	0.718571	0.016939
1647	8.2300e-01	-14.1943	-100.652025	0.000475	4.746713	1.608230	0.037911
1648	8.2350e-01	-14.1590	-100.462470	0.000475	4.746713	1.608230	0.037911
1649	8.2400e-01	-14.1285	-100.264848	0.000495	4.948701	1.676665	0.039524
1650	8.2450e-01	-14.0739	-100.135789	0.000323	3.231805	1.094965	0.025812
1651	8.2500e-01	-14.0499	-99.809108	0.000818	8.180506	2.771630	0.065336
1652	8.2550e-01	-14.0066	-99.692148	0.000293	2.928823	0.992312	0.023392
1653	8.2600e-01	-13.9616	-99.296904	0.000990	9.897402	3.353331	0.079049
1654	8.2650e-01	-13.9247	-99.300937	-0.000010	-0.100994	-0.034218	-0.000807
1655	8.2700e-01	-13.8814	-99.062984	0.000596	5.958640	2.018842	0.047591
1656	8.2750e-01	-13.8429	-99.083150	-0.000050	-0.504970	-0.171088	-0.004033
1657	8.2800e-01	-13.7996	-98.772601	0.000778	7.776530	2.634760	0.062110
1658	8.2850e-01	-13.7579	-98.437854	0.000838	8.382494	2.840066	0.066949
1659	8.2900e-01	-13.7242	-98.240232	0.000495	4.948701	1.676665	0.039524
1660	8.2950e-01	-13.6825	-97.982114	0.000646	6.463610	2.189930	0.051624
1661	8.3000e-01	-13.6376	-97.804658	0.000444	4.443732	1.505577	0.035491
1662	8.3050e-01	-13.6023	-97.719963	0.000212	2.120872	0.718571	0.016939
1663	8.3100e-01	-13.5526	-97.413447	0.000768	7.675536	2.600542	0.061303
1664	8.3150e-01	-13.5173	-97.615102	-0.000505	-5.049695	-1.710883	-0.040331
1665	8.3200e-01	-13.4804	-97.159362	0.001141	11.412311	3.866596	0.091148
1666	8.3250e-01	-13.4387	-97.014170	0.000364	3.635780	1.231836	0.029038
1667	8.3300e-01	-13.4098	-96.788317	0.000566	5.655658	1.916189	0.045171
1668	8.3350e-01	-13.3504	-96.675390	0.000283	2.827829	0.958094	0.022585
1669	8.3400e-01	-13.3296	-96.497934	0.000444	4.443732	1.505577	0.035491
1670	8.3450e-01	-13.2863	-96.344676	0.000384	3.837768	1.300271	0.030652
1671	8.3500e-01	-13.2462	-95.925234	0.001050	10.503366	3.558637	0.083888
1672	8.3550e-01	-13.1964	-95.590487	0.000838	8.382494	2.840066	0.066949
1673	8.3600e-01	-13.1563	-95.719546	-0.000323	-3.231805	-1.094965	-0.025812
1674	8.3650e-01	-13.1194	-95.340434	0.000949	9.493427	3.216460	0.075822
1675	8.3700e-01	-13.0873	-95.288004	0.000131	1.312921	0.444830	0.010486
1676	8.3750e-01	-13.0472	-95.171044	0.000293	2.928823	0.992312	0.023392
1677	8.3800e-01	-13.0007	-94.868562	0.000757	7.574543	2.566324	0.060496
1678	8.3850e-01	-12.9590	-94.674973	0.000485	4.847707	1.642448	0.038718
1679	8.3900e-01	-12.9189	-94.283763	0.000980	9.796408	3.319113	0.078242
1680	8.3950e-01	-12.8740	-94.243432	0.000101	1.009939	0.342177	0.008066
1681	8.4000e-01	-12.8435	-93.989346	0.000636	6.362616	2.155713	0.050817
1682	8.4050e-01	-12.8002	-93.900618	0.000222	2.221866	0.752789	0.017746
1683	8.4100e-01	-12.7617	-93.711063	0.000475	4.746713	1.608230	0.037911
1684	8.4150e-01	-12.7184	-93.561838	0.000374	3.736774	1.266053	0.029845
1685	8.4200e-01	-12.6815	-93.335984	0.000566	5.655658	1.916189	0.045171
1686	8.4250e-01	-12.6381	-93.162561	0.000434	4.342738	1.471359	0.034685
1687	8.4300e-01	-12.6093	-92.940741	0.000555	5.554665	1.881971	0.044364
1688	8.4350e-01	-12.5563	-92.827814	0.000283	2.827829	0.958094	0.022585
1689	8.4400e-01	-12.5210	-92.553563	0.000687	6.867585	2.326801	0.054850
1690	8.4450e-01	-12.4825	-92.376107	0.000444	4.443732	1.505577	0.035491
1691	8.4500e-01	-12.4424	-92.210750	0.000414	4.140750	1.402924	0.033071
1692	8.4550e-01	-12.4055	-92.013128	0.000495	4.948701	1.676665	0.039524
1693	8.4600e-01	-12.3606	-91.867937	0.000364	3.635780	1.231836	0.029038
1694	8.4650e-01	-12.3221	-91.617884	0.000626	6.261622	2.121495	0.050010
1695	8.4700e-01	-12.2852	-91.254906	0.000909	9.089451	3.079589	0.072596
1696	8.4750e-01	-12.2451	-91.267005	-0.000030	-0.302982	-0.102653	-0.002420
1697	8.4800e-01	-12.2018	-91.093582	0.000434	4.342738	1.471359	0.034685
1698	8.4850e-01	-12.1617	-90.770934	0.000808	8.079512	2.737413	0.064530
1699	8.4900e-01	-12.1200	-90.242598	0.001323	13.230201	4.482513	0.105667
1700	8.4950e-01	-12.0799	-90.420054	-0.000444	-4.443732	-1.505577	-0.035491
1701	8.5000e-01	-12.0350	-90.230498	0.000475	4.746713	1.608230	0.037911
1702	8.5050e-01	-11.9916	-89.968347	0.000656	6.564604	2.224148	0.052430
1703	8.5100e-01	-11.9708	-89.734427	0.000586	5.857646	1.984624	0.046784
1704	8.5150e-01	-11.9162	-89.516640	0.000545	5.453671	1.847754	0.043557
1705	8.5200e-01	-11.8793	-89.286753	0.000576	5.756652	1.950407	0.045977
1706	8.5250e-01	-11.8392	-89.117363	0.000424	4.241744	1.437142	0.033878
1707	8.5300e-01	-11.8023	-89.012503	0.000263	2.625841	0.889659	0.020972
1708	8.5350e-01	-11.7606	-88.633391	0.000949	9.493427	3.216460	0.075822
1709	8.5400e-01	-11.7269	-88.403505	0.000576	5.756652	1.950407	0.045977
1710	8.5450e-01	-11.6804	-88.468034	-0.000162	-1.615902	-0.547483	-0.012906
1711	8.5500e-01	-11.6403	-88.367207	0.000252	2.524848	0.855441	0.020165
1712	8.5550e-01	-11.5986	-87.951798	0.001040	10.402372	3.524419	0.083082
1713	8.5600e-01	-11.5569	-87.891301	0.000151	1.514909	0.513265	0.012099
1714	8.5650e-01	-11.5184	-87.528322	0.000909	9.089451	3.079589	0.072596
1715	8.5700e-01	-11.4783	-87.185509	0.000858	8.584482	2.908501	0.068563
1716	8.5750e-01	-11.4430	-87.133079	0.000131	1.312921	0.444830	0.010486
1717	8.5800e-01	-11.3917	-87.072582	0.000151	1.514909	0.513265	0.012099
1718	8.5850e-01	-11.3596	-86.592644	0.001202	12.018274	4.071902	0.095988
1719	8.5900e-01	-11.3163	-86.322426	0.000677	6.766591	2.292583	0.054044
1720	8.5950e-01	-11.2745	-86.225632	0.000242	2.423854	0.821224	0.019359
1721	8.6000e-01	-11.2393	-86.060275	0.000414	4.140750	1.402924	0.033071
1722	8.6050e-01	-11.2024	-85.902984	0.000394	3.938762	1.334489	0.031458
1723	8.6100e-01	-11.1606	-85.757792	0.000364	3.635780	1.231836	0.029038
1724	8.6150e-01	-11.1173	-85.467409	0.000727	7.271561	2.463672	0.058077
1725	8.6200e-01	-11.0820	-85.237522	0.000576	5.756652	1.950407	0.045977
1726	8.6250e-01	-11.0500	-85.052000	0.000465	4.645719	1.574012	0.037105
1727	8.6300e-01	-11.0034	-84.805981	0.000616	6.160628	2.087277	0.049204
1728	8.6350e-01	-10.9633	-84.842279	-0.000091	-0.908945	-0.307959	-0.007260
1729	8.6400e-01	-10.9248	-84.741451	0.000252	2.524848	0.855441	0.020165
1730	8.6450e-01	-10.8863	-84.217148	0.001313	13.129207	4.448296	0.104861
1731	8.6500e-01	-10.8334	-84.132453	0.000212	2.120872	0.718571	0.016939
1732	8.6550e-01	-10.7981	-83.922732	0.000525	5.251683	1.779318	0.041944
1733	8.6600e-01	-10.7596	-83.741243	0.000454	4.544726	1.539795	0.036298
1734	8.6650e-01	-10.7131	-83.499257	0.000606	6.059634	2.053060	0.048397
1735	8.6700e-01	-10.6906	-83.313734	0.000465	4.645719	1.574012	0.037105
1736	8.6750e-01	-10.6393	-83.071748	0.000606	6.059634	2.053060	0.048397
1737	8.6800e-01	-10.6104	-82.704736	0.000919	9.190445	3.113807	0.073402
1738	8.6850e-01	-10.5575	-82.527280	0.000444	4.443732	1.505577	0.035491
1739	8.6900e-01	-10.5141	-82.353857	0.000434	4.342738	1.471359	0.034685
1740	8.6950e-01	-10.4837	-82.152202	0.000505	5.049695	1.710883	0.040331
1741	8.7000e-01	-10.4420	-82.103805	0.000121	1.211927	0.410612	0.009679
1742	8.7050e-01	-10.3970	-81.793256	0.000778	7.776530	2.634760	0.062110
1743	8.7100e-01	-10.3553	-81.752925	0.000101	1.009939	0.342177	0.008066
1744	8.7150e-01	-10.3264	-81.321384	0.001081	10.806347	3.661290	0.086308
1745	8.7200e-01	-10.2863	-81.055199	0.000667	6.665597	2.258366	0.053237
1746	8.7250e-01	-10.2414	-81.192325	-0.000343	-3.433793	-1.163400	-0.027425
1747	8.7300e-01	-10.1965	-80.833379	0.000899	8.988457	3.045372	0.071789
1748	8.7350e-01	-10.1484	-80.506698	0.000818	8.180506	2.771630	0.065336
1749	8.7400e-01	-10.1259	-80.212282	0.000737	7.372555	2.497889	0.058883
1750	8.7450e-01	-10.0890	-80.087255	0.000313	3.130811	1.060747	0.025005
1751	8.7500e-01	-10.0441	-79.716210	0.000929	9.291439	3.148025	0.074209
1752	8.7550e-01	-10.0024	-79.736376	-0.000050	-0.504970	-0.171088	-0.004033
1753	8.7600e-01	-9.9607	-79.583118	0.000384	3.837768	1.300271	0.030652
1754	8.7650e-01	-9.9142	-79.300801	0.000707	7.069573	2.395236	0.056463
1755	8.7700e-01	-9.8837	-78.933789	0.000919	9.190445	3.113807	0.073402
1756	8.7750e-01	-9.8323	-78.691803	0.000606	6.059634	2.053060	0.048397
1757	8.7800e-01	-9.7987	-78.433685	0.000646	6.463610	2.189930	0.051624
1758	8.7850e-01	-9.7618	-78.393354	0.000101	1.009939	0.342177	0.008066
1759	8.7900e-01	-9.7120	-78.304626	0.000222	2.221866	0.752789	0.017746
1760	8.7950e-01	-9.6799	-77.994077	0.000778	7.776530	2.634760	0.062110
1761	8.8000e-01	-9.6463	-77.711760	0.000707	7.069573	2.395236	0.056463
1762	8.8050e-01	-9.6013	-77.586734	0.000313	3.130811	1.060747	0.025005
1763	8.8100e-01	-9.5612	-77.405245	0.000454	4.544726	1.539795	0.036298
1764	8.8150e-01	-9.5147	-77.118895	0.000717	7.170567	2.429454	0.057270
1765	8.8200e-01	-9.4682	-76.909174	0.000525	5.251683	1.779318	0.041944
1766	8.8250e-01	-9.4409	-76.606691	0.000757	7.574543	2.566324	0.060496
1767	8.8300e-01	-9.4008	-76.360672	0.000616	6.160628	2.087277	0.049204
1768	8.8350e-01	-9.3655	-76.114653	0.000616	6.160628	2.087277	0.049204
1769	8.8400e-01	-9.3302	-76.054157	0.000151	1.514909	0.513265	0.012099
1770	8.8450e-01	-9.2757	-75.872667	0.000454	4.544726	1.539795	0.036298
1771	8.8500e-01	-9.2436	-75.618582	0.000636	6.362616	2.155713	0.050817
1772	8.8550e-01	-9.2035	-75.328199	0.000727	7.271561	2.463672	0.058077
1773	8.8600e-01	-9.1586	-75.231405	0.000242	2.423854	0.821224	0.019359
1774	8.8650e-01	-9.1136	-74.884558	0.000869	8.685475	2.942719	0.069369
1775	8.8700e-01	-9.0848	-74.618374	0.000667	6.665597	2.258366	0.053237
1776	8.8750e-01	-9.0318	-74.388487	0.000576	5.756652	1.950407	0.045977
1777	8.8800e-01	-9.0046	-74.206998	0.000454	4.544726	1.539795	0.036298
1778	8.8850e-01	-8.9532	-74.150534	0.000141	1.413915	0.479047	0.011293
1779	8.8900e-01	-8.9227	-73.896449	0.000636	6.362616	2.155713	0.050817
1780	8.8950e-01	-8.8891	-73.658496	0.000596	5.958640	2.018842	0.047591
1781	8.9000e-01	-8.8361	-73.275352	0.000959	9.594421	3.250678	0.076629
1782	8.9050e-01	-8.8008	-73.186624	0.000222	2.221866	0.752789	0.017746
1783	8.9100e-01	-8.7607	-72.851877	0.000838	8.382494	2.840066	0.066949
1784	8.9150e-01	-8.7126	-72.811546	0.000101	1.009939	0.342177	0.008066
1785	8.9200e-01	-8.6805	-72.799446	0.000030	0.302982	0.102653	0.002420
1786	8.9250e-01	-8.6420	-72.480832	0.000798	7.978518	2.703195	0.063723
1787	8.9300e-01	-8.5955	-72.335640	0.000364	3.635780	1.231836	0.029038
1788	8.9350e-01	-8.5522	-71.896032	0.001101	11.008335	3.729725	0.087922
1789	8.9400e-01	-8.5249	-71.589517	0.000768	7.675536	2.600542	0.061303
1790	8.9450e-01	-8.4848	-71.375763	0.000535	5.352677	1.813536	0.042751
1791	8.9500e-01	-8.4415	-71.194273	0.000454	4.544726	1.539795	0.036298
1792	8.9550e-01	-8.3998	-71.089413	0.000263	2.625841	0.889659	0.020972
1793	8.9600e-01	-8.3548	-70.811129	0.000697	6.968579	2.361019	0.055657
1794	8.9650e-01	-8.3196	-70.544944	0.000667	6.665597	2.258366	0.053237
1795	8.9700e-01	-8.2714	-70.460249	0.000212	2.120872	0.718571	0.016939
1796	8.9750e-01	-8.2297	-70.113403	0.000869	8.685475	2.942719	0.069369
1797	8.9800e-01	-8.1944	-70.016608	0.000242	2.423854	0.821224	0.019359
1798	8.9850e-01	-8.1623	-69.738324	0.000697	6.968579	2.361019	0.055657
1799	8.9900e-01	-8.1190	-69.395511	0.000858	8.584482	2.908501	0.068563
1800	8.9950e-01	-8.0773	-69.133360	0.000656	6.564604	2.224148	0.052430
1801	9.0000e-01	-8.0356	-69.093029	0.000101	1.009939	0.342177	0.008066
1802	9.0050e-01	-8.0035	-68.673586	0.001050	10.503366	3.558637	0.083888
1803	9.0100e-01	-7.9538	-68.617123	0.000141	1.413915	0.479047	0.011293
1804	9.0150e-01	-7.9329	-68.157350	0.001151	11.513305	3.900813	0.091955
1805	9.0200e-01	-7.8832	-67.967794	0.000475	4.746713	1.608230	0.037911
1806	9.0250e-01	-7.8415	-67.943596	0.000061	0.605963	0.205306	0.004840
1807	9.0300e-01	-7.7966	-67.737908	0.000515	5.150689	1.745101	0.041138
1808	9.0350e-01	-7.7597	-67.548352	0.000475	4.746713	1.608230	0.037911
1809	9.0400e-01	-7.7164	-67.120843	0.001071	10.705353	3.627072	0.085502
1810	9.0450e-01	-7.6763	-67.028082	0.000232	2.322860	0.787006	0.018552
1811	9.0500e-01	-7.6458	-66.463448	0.001414	14.139146	4.790472	0.112927
1812	9.0550e-01	-7.5944	-66.326323	0.000343	3.433793	1.163400	0.027425
1813	9.0600e-01	-7.5543	-66.241628	0.000212	2.120872	0.718571	0.016939
1814	9.0650e-01	-7.5239	-66.092403	0.000374	3.736774	1.266053	0.029845
1815	9.0700e-01	-7.4837	-65.802020	0.000727	7.271561	2.463672	0.058077
1816	9.0750e-01	-7.4436	-65.535836	0.000667	6.665597	2.258366	0.053237
1817	9.0800e-01	-7.4035	-65.285784	0.000626	6.261622	2.121495	0.050010
1818	9.0850e-01	-7.3570	-65.063963	0.000555	5.554665	1.881971	0.044364
1819	9.0900e-01	-7.3169	-64.922805	0.000353	3.534787	1.197618	0.028232
1820	9.0950e-01	-7.2784	-64.503362	0.001050	10.503366	3.558637	0.083888
1821	9.1000e-01	-7.2479	-64.225079	0.000697	6.968579	2.361019	0.055657
1822	9.1050e-01	-7.1934	-64.043589	0.000454	4.544726	1.539795	0.036298
1823	9.1100e-01	-7.1517	-63.841934	0.000505	5.049695	1.710883	0.040331
1824	9.1150e-01	-7.1196	-63.712875	0.000323	3.231805	1.094965	0.025812
1825	9.1200e-01	-7.0731	-63.539452	0.000434	4.342738	1.471359	0.034685
1826	9.1250e-01	-7.0394	-63.232936	0.000768	7.675536	2.600542	0.061303
1827	9.1300e-01	-6.9961	-63.091778	0.000353	3.534787	1.197618	0.028232
1828	9.1350e-01	-6.9592	-62.833660	0.000646	6.463610	2.189930	0.051624
1829	9.1400e-01	-6.9255	-62.511012	0.000808	8.079512	2.737413	0.064530
1830	9.1450e-01	-6.8854	-62.168198	0.000858	8.584482	2.908501	0.068563
1831	9.1500e-01	-6.8356	-61.986709	0.000454	4.544726	1.539795	0.036298
1832	9.1550e-01	-6.7907	-61.942345	0.000111	1.110933	0.376394	0.008873
1833	9.1600e-01	-6.7602	-61.720524	0.000555	5.554665	1.881971	0.044364
1834	9.1650e-01	-6.7089	-61.438208	0.000707	7.069573	2.395236	0.056463
1835	9.1700e-01	-6.6752	-61.204288	0.000586	5.857646	1.984624	0.046784
1836	9.1750e-01	-6.6319	-61.051030	0.000384	3.837768	1.300271	0.030652
1837	9.1800e-01	-6.6046	-60.542860	0.001273	12.725231	4.311425	0.101634
1838	9.1850e-01	-6.5597	-60.296841	0.000616	6.160628	2.087277	0.049204
1839	9.1900e-01	-6.5132	-60.143583	0.000384	3.837768	1.300271	0.030652
1840	9.1950e-01	-6.4795	-59.720108	0.001060	10.604360	3.592854	0.084695
1841	9.2000e-01	-6.4394	-59.736240	-0.000040	-0.403976	-0.136871	-0.003226
1842	9.2050e-01	-6.4025	-59.470055	0.000667	6.665597	2.258366	0.053237
1843	9.2100e-01	-6.3544	-59.276467	0.000485	4.847707	1.642448	0.038718
1844	9.2150e-01	-6.3319	-59.050613	0.000566	5.655658	1.916189	0.045171
1845	9.2200e-01	-6.2838	-58.893322	0.000394	3.938762	1.334489	0.031458
1846	9.2250e-01	-6.2340	-58.562608	0.000828	8.281500	2.805848	0.066143
1847	9.2300e-01	-6.2052	-58.421450	0.000353	3.534787	1.197618	0.028232
1848	9.2350e-01	-6.1635	-58.151232	0.000677	6.766591	2.292583	0.054044
1849	9.2400e-01	-6.1250	-57.840684	0.000778	7.776530	2.634760	0.062110
1850	9.2450e-01	-6.0849	-57.659194	0.000454	4.544726	1.539795	0.036298
1851	9.2500e-01	-6.0287	-57.453506	0.000515	5.150689	1.745101	0.041138
1852	9.2550e-01	-5.9966	-57.122792	0.000828	8.281500	2.805848	0.066143
1853	9.2600e-01	-5.9533	-57.042130	0.000202	2.019878	0.684353	0.016132
1854	9.2650e-01	-5.9228	-56.852574	0.000475	4.746713	1.608230	0.037911
1855	9.2700e-01	-5.8795	-56.477496	0.000939	9.392433	3.182242	0.075016
1856	9.2750e-01	-5.8346	-56.235510	0.000606	6.059634	2.053060	0.048397
1857	9.2800e-01	-5.8041	-56.009657	0.000566	5.655658	1.916189	0.045171
1858	9.2850e-01	-5.7656	-55.642645	0.000919	9.190445	3.113807	0.073402
1859	9.2900e-01	-5.7175	-55.566016	0.000192	1.918884	0.650136	0.015326
1860	9.2950e-01	-5.6870	-55.384527	0.000454	4.544726	1.539795	0.036298
1861	9.3000e-01	-5.6469	-55.049779	0.000838	8.382494	2.840066	0.066949
1862	9.3050e-01	-5.6020	-54.755363	0.000737	7.372555	2.497889	0.058883
1863	9.3100e-01	-5.5683	-54.493212	0.000656	6.564604	2.224148	0.052430
1864	9.3150e-01	-5.5234	-54.493212	0.000000	0.000000	0.000000	0.000000
1865	9.3200e-01	-5.4849	-54.186696	0.000768	7.675536	2.600542	0.061303
1866	9.3250e-01	-5.4367	-53.864048	0.000808	8.079512	2.737413	0.064530
1867	9.3300e-01	-5.4063	-53.549467	0.000788	7.877524	2.668977	0.062916
1868	9.3350e-01	-5.3597	-53.468805	0.000202	2.019878	0.684353	0.016132
1869	9.3400e-01	-5.3148	-53.202620	0.000667	6.665597	2.258366	0.053237
1870	9.3450e-01	-5.2827	-53.057429	0.000364	3.635780	1.231836	0.029038
1871	9.3500e-01	-5.2458	-52.601689	0.001141	11.412311	3.866596	0.091148
1872	9.3550e-01	-5.1993	-52.424232	0.000444	4.443732	1.505577	0.035491
1873	9.3600e-01	-5.1656	-52.262908	0.000404	4.039756	1.368706	0.032265
1874	9.3650e-01	-5.1223	-51.758771	0.001262	12.624238	4.277207	0.100827
1875	9.3700e-01	-5.0806	-51.593414	0.000414	4.140750	1.402924	0.033071
1876	9.3750e-01	-5.0373	-51.504686	0.000222	2.221866	0.752789	0.017746
1877	9.3800e-01	-5.0132	-51.186071	0.000798	7.978518	2.703195	0.063723
1878	9.3850e-01	-4.9619	-50.863423	0.000808	8.079512	2.737413	0.064530
1879	9.3900e-01	-4.9266	-50.512543	0.000879	8.786469	2.976936	0.070176
1880	9.3950e-01	-4.8817	-50.254425	0.000646	6.463610	2.189930	0.051624
1881	9.4000e-01	-4.8352	-49.992274	0.000656	6.564604	2.224148	0.052430
1882	9.4050e-01	-4.8047	-49.871281	0.000303	3.029817	1.026530	0.024199
1883	9.4100e-01	-4.7566	-49.447805	0.001060	10.604360	3.592854	0.084695
1884	9.4150e-01	-4.7197	-49.302614	0.000364	3.635780	1.231836	0.029038
1885	9.4200e-01	-4.6812	-49.012231	0.000727	7.271561	2.463672	0.058077
1886	9.4250e-01	-4.6443	-49.104992	-0.000232	-2.322860	-0.787006	-0.018552
1887	9.4300e-01	-4.6090	-48.637153	0.001172	11.715292	3.969249	0.093568
1888	9.4350e-01	-4.5640	-48.366935	0.000677	6.766591	2.292583	0.054044
1889	9.4400e-01	-4.5223	-47.999923	0.000919	9.190445	3.113807	0.073402
1890	9.4450e-01	-4.4790	-47.717606	0.000707	7.069573	2.395236	0.056463
1891	9.4500e-01	-4.4437	-47.612746	0.000263	2.625841	0.889659	0.020972
1892	9.4550e-01	-4.4052	-47.366727	0.000616	6.160628	2.087277	0.049204
1893	9.4600e-01	-4.3747	-47.080377	0.000717	7.170567	2.429454	0.057270
1894	9.4650e-01	-4.3138	-46.798060	0.000707	7.069573	2.395236	0.056463
1895	9.4700e-01	-4.2785	-46.487511	0.000778	7.776530	2.634760	0.062110
1896	9.4750e-01	-4.2384	-46.164863	0.000808	8.079512	2.737413	0.064530
1897	9.4800e-01	-4.1983	-46.051936	0.000283	2.827829	0.958094	0.022585
1898	9.4850e-01	-4.1534	-45.951109	0.000252	2.524848	0.855441	0.020165
1899	9.4900e-01	-4.1149	-45.789785	0.000404	4.039756	1.368706	0.032265
1900	9.4950e-01	-4.0828	-45.479236	0.000778	7.776530	2.634760	0.062110
1901	9.5000e-01	-4.0314	-45.221118	0.000646	6.463610	2.189930	0.051624
1902	9.5050e-01	-4.0026	-44.890404	0.000828	8.281500	2.805848	0.066143
1903	9.5100e-01	-3.9625	-44.636319	0.000636	6.362616	2.155713	0.050817
1904	9.5150e-01	-3.9159	-44.245108	0.000980	9.796408	3.319113	0.078242
1905	9.5200e-01	-3.8806	-44.188645	0.000141	1.413915	0.479047	0.011293
1906	9.5250e-01	-3.8550	-43.970858	0.000545	5.453671	1.847754	0.043557
1907	9.5300e-01	-3.8020	-43.708706	0.000656	6.564604	2.224148	0.052430
1908	9.5350e-01	-3.7635	-43.386058	0.000808	8.079512	2.737413	0.064530
1909	9.5400e-01	-3.7218	-42.974682	0.001030	10.301378	3.490201	0.082275
1910	9.5450e-01	-3.6833	-42.906119	0.000172	1.716896	0.581700	0.013713
1911	9.5500e-01	-3.6528	-42.611703	0.000737	7.372555	2.497889	0.058883
1912	9.5550e-01	-3.6031	-42.438280	0.000434	4.342738	1.471359	0.034685
1913	9.5600e-01	-3.5550	-42.014805	0.001060	10.604360	3.592854	0.084695
1914	9.5650e-01	-3.5181	-41.861547	0.000384	3.837768	1.300271	0.030652
1915	9.5700e-01	-3.4796	-41.684091	0.000444	4.443732	1.505577	0.035491
1916	9.5750e-01	-3.4379	-41.361443	0.000808	8.079512	2.737413	0.064530
1917	9.5800e-01	-3.4026	-40.942000	0.001050	10.503366	3.558637	0.083888
1918	9.5850e-01	-3.3673	-40.825041	0.000293	2.928823	0.992312	0.023392
1919	9.5900e-01	-3.3208	-40.550790	0.000687	6.867585	2.326801	0.054850
1920	9.5950e-01	-3.2791	-40.095050	0.001141	11.412311	3.866596	0.091148
1921	9.6000e-01	-3.2470	-39.808700	0.000717	7.170567	2.429454	0.057270
1922	9.6050e-01	-3.1988	-39.675608	0.000333	3.332799	1.129183	0.026618
1923	9.6100e-01	-3.1587	-39.344893	0.000828	8.281500	2.805848	0.066143
1924	9.6150e-01	-3.1138	-39.163404	0.000454	4.544726	1.539795	0.036298
1925	9.6200e-01	-3.0769	-38.836723	0.000818	8.180506	2.771630	0.065336
1926	9.6250e-01	-3.0400	-38.683465	0.000384	3.837768	1.300271	0.030652
1927	9.6300e-01	-2.9983	-38.425347	0.000646	6.463610	2.189930	0.051624
1928	9.6350e-01	-2.9534	-38.094633	0.000828	8.281500	2.805848	0.066143
1929	9.6400e-01	-2.9277	-37.771985	0.000808	8.079512	2.737413	0.064530
1930	9.6450e-01	-2.8748	-37.465469	0.000768	7.675536	2.600542	0.061303
1931	9.6500e-01	-2.8395	-37.340443	0.000313	3.130811	1.060747	0.025005
1932	9.6550e-01	-2.8026	-36.965365	0.000939	9.392433	3.182242	0.075016
1933	9.6600e-01	-2.7673	-36.618519	0.000869	8.685475	2.942719	0.069369
1934	9.6650e-01	-2.7208	-36.513658	0.000263	2.625841	0.889659	0.020972
1935	9.6700e-01	-2.6871	-36.275705	0.000596	5.958640	2.018842	0.047591
1936	9.6750e-01	-2.6309	-35.993388	0.000707	7.069573	2.395236	0.056463
1937	9.6800e-01	-2.6085	-35.727204	0.000667	6.665597	2.258366	0.053237
1938	9.6850e-01	-2.5716	-35.255331	0.001182	11.816286	4.003466	0.094375
1939	9.6900e-01	-2.5138	-35.150471	0.000263	2.625841	0.889659	0.020972
1940	9.6950e-01	-2.4834	-35.037544	0.000283	2.827829	0.958094	0.022585
1941	9.7000e-01	-2.4481	-34.521307	0.001293	12.927219	4.379860	0.103247
1942	9.7050e-01	-2.3983	-34.380149	0.000353	3.534787	1.197618	0.028232
1943	9.7100e-01	-2.3630	-34.073634	0.000768	7.675536	2.600542	0.061303
1944	9.7150e-01	-2.3069	-33.932475	0.000353	3.534787	1.197618	0.028232
1945	9.7200e-01	-2.2796	-33.593695	0.000848	8.483488	2.874283	0.067756
1946	9.7250e-01	-2.2395	-33.287179	0.000768	7.675536	2.600542	0.061303
1947	9.7300e-01	-2.2122	-32.908068	0.000949	9.493427	3.216460	0.075822
1948	9.7350e-01	-2.1609	-32.492659	0.001040	10.402372	3.524419	0.083082
1949	9.7400e-01	-2.1240	-32.258739	0.000586	5.857646	1.984624	0.046784
1950	9.7450e-01	-2.0855	-32.020786	0.000596	5.958640	2.018842	0.047591
1951	9.7500e-01	-2.0406	-31.863496	0.000394	3.938762	1.334489	0.031458
1952	9.7550e-01	-2.0005	-31.403722	0.001151	11.513305	3.900813	0.091955
1953	9.7600e-01	-1.9620	-31.339193	0.000162	1.615902	0.547483	0.012906
1954	9.7650e-01	-1.9235	-31.121405	0.000545	5.453671	1.847754	0.043557
1955	9.7700e-01	-1.8866	-30.714062	0.001020	10.200384	3.455984	0.081469
1956	9.7750e-01	-1.8433	-30.689864	0.000061	0.605963	0.205306	0.004840
1957	9.7800e-01	-1.8016	-30.415613	0.000687	6.867585	2.326801	0.054850
1958	9.7850e-01	-1.7663	-29.967939	0.001121	11.210323	3.798160	0.089535
1959	9.7900e-01	-1.7165	-29.596894	0.000929	9.291439	3.148025	0.074209
1960	9.7950e-01	-1.6828	-29.350875	0.000616	6.160628	2.087277	0.049204
1961	9.8000e-01	-1.6395	-29.056459	0.000737	7.372555	2.497889	0.058883
1962	9.8050e-01	-1.5962	-28.975797	0.000202	2.019878	0.684353	0.016132
1963	9.8100e-01	-1.5593	-28.576520	0.001000	9.998396	3.387548	0.079855
1964	9.8150e-01	-1.5208	-28.374865	0.000505	5.049695	1.710883	0.040331
1965	9.8200e-01	-1.4759	-28.048184	0.000818	8.180506	2.771630	0.065336
1966	9.8250e-01	-1.4438	-27.810231	0.000596	5.958640	2.018842	0.047591
1967	9.8300e-01	-1.3973	-27.673106	0.000343	3.433793	1.163400	0.027425
1968	9.8350e-01	-1.3620	-27.116538	0.001394	13.937158	4.722037	0.111314
1969	9.8400e-01	-1.3203	-27.023777	0.000232	2.322860	0.787006	0.018552
1970	9.8450e-01	-1.2866	-26.664831	0.000899	8.988457	3.045372	0.071789
1971	9.8500e-01	-1.2417	-26.273621	0.000980	9.796408	3.319113	0.078242
1972	9.8550e-01	-1.2016	-26.092131	0.000454	4.544726	1.539795	0.036298
1973	9.8600e-01	-1.1631	-25.729153	0.000909	9.089451	3.079589	0.072596
1974	9.8650e-01	-1.1214	-25.527498	0.000505	5.049695	1.710883	0.040331
1975	9.8700e-01	-1.0796	-25.301644	0.000566	5.655658	1.916189	0.045171
1976	9.8750e-01	-1.0363	-24.991095	0.000778	7.776530	2.634760	0.062110
1977	9.8800e-01	-1.0091	-24.712812	0.000697	6.968579	2.361019	0.055657
1978	9.8850e-01	-0.9674	-24.551488	0.000404	4.039756	1.368706	0.032265
1979	9.8900e-01	-0.9256	-24.083648	0.001172	11.715292	3.969249	0.093568
1980	9.8950e-01	-0.8807	-23.930391	0.000384	3.837768	1.300271	0.030652
1981	9.9000e-01	-0.8406	-23.555312	0.000939	9.392433	3.182242	0.075016
1982	9.9050e-01	-0.7957	-23.345591	0.000525	5.251683	1.779318	0.041944
1983	9.9100e-01	-0.7684	-22.684163	0.001656	16.563000	5.611696	0.132286
1984	9.9150e-01	-0.7267	-22.659964	0.000061	0.605963	0.205306	0.004840
1985	9.9200e-01	-0.6866	-22.401846	0.000646	6.463610	2.189930	0.051624
1986	9.9250e-01	-0.6417	-22.055000	0.000869	8.685475	2.942719	0.069369
1987	9.9300e-01	-0.6032	-21.829146	0.000566	5.655658	1.916189	0.045171
1988	9.9350e-01	-0.5679	-21.667822	0.000404	4.039756	1.368706	0.032265
1989	9.9400e-01	-0.5085	-21.292744	0.000939	9.392433	3.182242	0.075016
1990	9.9450e-01	-0.4797	-21.155619	0.000343	3.433793	1.163400	0.027425
1991	9.9500e-01	-0.4380	-20.691812	0.001161	11.614299	3.935031	0.092761
1992	9.9550e-01	-0.3995	-20.324800	0.000919	9.190445	3.113807	0.073402
1993	9.9600e-01	-0.3545	-20.147344	0.000444	4.443732	1.505577	0.035491
1994	9.9650e-01	-0.3225	-19.788398	0.000899	8.988457	3.045372	0.071789
1995	9.9700e-01	-0.2759	-19.481883	0.000768	7.675536	2.600542	0.061303
1996	9.9750e-01	-0.2422	-19.203599	0.000697	6.968579	2.361019	0.055657
1997	9.9800e-01	-0.2021	-19.066474	0.000343	3.433793	1.163400	0.027425
1998	9.9850e-01	-0.1717	-18.981779	0.000212	2.120872	0.718571	0.016939
1999	9.9900e-01	-0.1203	-18.570403	0.001030	10.301378	3.490201	0.082275
2000	9.9950e-01	-0.0802	-18.195324	0.000939	9.392433	3.182242	0.075016
2001	1.0000e+00	-0.0449	-17.892842	0.000939	9.392433	3.182242	0.060496

Center data before PMax,+/-Pr and +/-Vc Calc.

PMax (uC/cm2):	1.23e+02
Pr (uC/cm2):	7.08e+00
-Pr (uC/cm2):	-1.79e+01
PLoss (uC/cm2):	-1.79e+01
-Vc:	-9.86e-01
C (Max-Eff) (nF):	6.14e-01
K (Eff):	2.08e+03
Vert. (+/-Pr) Shift (uC/cm2):	-5.41e+00
Offset (uC/cm2):	-2.02e-03

A (Loop Area - uC/cm2·Volts):	-4.12e-01



Hysteresis Version: 5.48.1 - Radiant Technologies, Inc., 1999 - 9/12/24

