»»»»»»»»»»»»»»»»»»»»»»»»»»»»»»»»»»»» Hysteresis ««««««««««««««««««««««««««««««««««««
»»»  Executed Version:	5.48.1
»»»  Vision Version:	5.48.4 (R)
»»»  Vision Compiled:	9/18/24
»»»  Driver Version:	5.47.0
»»»  Windows Version:	Windows 8 or 8.1
»»»  Processor Information:	x86 (AMD or Intel) - 32 Processors
»»»  Tester Name:	PMF21124-494 (100V)
»»»  Tester S/N:	PMF21124-494
»»»  Internal Amp Type:	100V RevK 270k
»»»  Internal Amp S/N:	iAB2-596/K     
»»»  Execution Count:	1
»»»»»»»»»»»»»»»»»»»»»»»»»»»»»»»»»»»»»»»»»»««««««««««««««««««««««««««««««««««««««««««

Stored:	6/5/2025 - 14:8:46
Configured:	06/05/25 01:31:43 PM
Executed:	06/05/25 02:08:02 PM

»»»»»»»»»»»»»»»»»»»»»»»»»»»»»»»»»»» Sample Info ««««««««««««««««««««««««««««««««««««
Sample Name:	
Lot Name:	
Wafer Name:	
Die Row/Column:	0/0
Capacitor Number:	0
Sample Area (cm2):	1.00e-04
Sample Thickness (microns):	3.00e-01

Amplifier:	Internal

»»»»»»»»»»»»»»»»»»»»»»»»»»»»»»»»»»» Tester Info «««««««««««««««««««««««««««««««««««
Tester Name:	PMF21124-494 (100V)
Tester Serial Number:	PMF21124-494
Return Signal Amp. Level:	0.19 [Index: 3]

»»»»»»»»»»»»»»»»»»»»»»»»»»»»»»»» Hysteresis Info ««««««««««««««««««««««««««««««««««
Task Name:	Hyst-303
Volts:	20.00
Field:	666.67 (kV/cm)
DCBias:	0.00
DCField:	0.00 (kV/cm)
Hysteresis Period (ms):	2.00e+02
Preset:	Enabled
Preset Delay (ms):	1.00e+03
Profile:	Standard Bipolar

»»»»»»»»»»»»»»»»»»»»»»»»»»»»»»»»»»»»»» Data «««««««««««««««««««««««««««««««««««««««
Points:	2009

Valid Data

Point	Time (ms)	Drive Voltage	Measured Polarization (uC/cm2)	Capacitance (uF)	Normalized Capacitance (uF/cm2)	Dielectric Constant	Instantaneous Current (mA)
   1	0.0000e+00	-0.0032	-0.193783	0.000446	4.458083	1.510439	0.000179
   2	9.9500e-02	0.0337	-0.016149	0.000446	4.458083	1.510439	0.000179
   3	1.9900e-01	0.0818	0.335082	0.000881	8.814846	2.986551	0.000353
   4	2.9850e-01	0.1011	0.597496	0.000659	6.585804	2.231331	0.000264
   5	3.9800e-01	0.1508	0.884133	0.000719	7.193725	2.437300	0.000288
   6	4.9750e-01	0.1861	1.118287	0.000588	5.876564	1.991034	0.000235
   7	5.9700e-01	0.2342	1.396849	0.000699	6.991085	2.368644	0.000280
   8	6.9650e-01	0.2631	1.711746	0.000790	7.902965	2.677597	0.000316
   9	7.9600e-01	0.3160	1.966085	0.000638	6.383164	2.162675	0.000256
  10	8.9550e-01	0.3481	2.228499	0.000659	6.585804	2.231331	0.000264
  11	9.9500e-01	0.3882	2.547433	0.000800	8.004285	2.711925	0.000321
  12	1.0945e+00	0.4283	2.838106	0.000730	7.295045	2.471628	0.000292
  13	1.1940e+00	0.4604	3.108595	0.000679	6.788445	2.299987	0.000272
  14	1.2935e+00	0.5037	3.419454	0.000780	7.801645	2.643269	0.000312
  15	1.3930e+00	0.5454	3.702053	0.000709	7.092405	2.402972	0.000284
  16	1.4925e+00	0.5871	3.988690	0.000719	7.193725	2.437300	0.000288
  17	1.5920e+00	0.6305	4.287438	0.000750	7.497685	2.540284	0.000300
  18	1.6915e+00	0.6625	4.582149	0.000740	7.396365	2.505956	0.000296
  19	1.7910e+00	0.7107	4.880897	0.000750	7.497685	2.540284	0.000300
  20	1.8905e+00	0.7412	5.131200	0.000628	6.281844	2.128346	0.000252
  21	1.9900e+00	0.7813	5.466282	0.000841	8.409566	2.849238	0.000337
  22	2.0895e+00	0.8230	5.720621	0.000638	6.383164	2.162675	0.000256
  23	2.1890e+00	0.8663	6.023407	0.000760	7.599005	2.574613	0.000304
  24	2.2885e+00	0.9080	6.326192	0.000760	7.599005	2.574613	0.000304
  25	2.3880e+00	0.9401	6.641088	0.000790	7.902965	2.677597	0.000316
  26	2.4875e+00	0.9882	6.960022	0.000800	8.004285	2.711925	0.000321
  27	2.5870e+00	1.0315	7.246659	0.000719	7.193725	2.437300	0.000288
  28	2.6865e+00	1.0716	7.529258	0.000709	7.092405	2.402972	0.000284
  29	2.7860e+00	1.1053	7.811858	0.000709	7.092405	2.402972	0.000284
  30	2.8855e+00	1.1470	8.146940	0.000841	8.409566	2.849238	0.000337
  31	2.9850e+00	1.1903	8.445688	0.000750	7.497685	2.540284	0.000300
  32	3.0845e+00	1.2240	8.712139	0.000669	6.687124	2.265659	0.000268
  33	3.1840e+00	1.2673	9.010887	0.000750	7.497685	2.540284	0.000300
  34	3.2835e+00	1.3058	9.317709	0.000770	7.700325	2.608941	0.000308
  35	3.3830e+00	1.3476	9.592235	0.000689	6.889765	2.334315	0.000276
  36	3.4825e+00	1.3861	9.907131	0.000790	7.902965	2.677597	0.000316
  37	3.5820e+00	1.4197	10.230102	0.000811	8.105605	2.746253	0.000325
  38	3.6815e+00	1.4550	10.496553	0.000669	6.687124	2.265659	0.000268
  39	3.7810e+00	1.4984	10.827598	0.000831	8.308246	2.814910	0.000333
  40	3.8805e+00	1.5449	11.090012	0.000659	6.585804	2.231331	0.000264
  41	3.9800e+00	1.5834	11.433168	0.000861	8.612206	2.917894	0.000345
  42	4.0795e+00	1.6203	11.752102	0.000800	8.004285	2.711925	0.000321
  43	4.1790e+00	1.6588	12.018553	0.000669	6.687124	2.265659	0.000268
  44	4.2785e+00	1.7021	12.317301	0.000750	7.497685	2.540284	0.000300
  45	4.3780e+00	1.7342	12.660458	0.000861	8.612206	2.917894	0.000345
  46	4.4775e+00	1.7775	12.955169	0.000740	7.396365	2.505956	0.000296
  47	4.5770e+00	1.8352	13.245842	0.000730	7.295045	2.471628	0.000292
  48	4.6765e+00	1.8529	13.556702	0.000780	7.801645	2.643269	0.000312
  49	4.7760e+00	1.9026	13.843338	0.000719	7.193725	2.437300	0.000288
  50	4.8755e+00	1.9379	14.117864	0.000689	6.889765	2.334315	0.000276
  51	4.9750e+00	1.9844	14.469094	0.000881	8.814846	2.986551	0.000353
  52	5.0745e+00	2.0294	14.735545	0.000669	6.687124	2.265659	0.000268
  53	5.1740e+00	2.0646	15.058516	0.000811	8.105605	2.746253	0.000325
  54	5.2735e+00	2.0983	15.296707	0.000598	5.977884	2.025362	0.000239
  55	5.3730e+00	2.1417	15.611604	0.000790	7.902965	2.677597	0.000316
  56	5.4725e+00	2.1802	15.974946	0.000912	9.118806	3.089535	0.000365
  57	5.5720e+00	2.2219	16.277731	0.000760	7.599005	2.574613	0.000304
  58	5.6715e+00	2.2652	16.612814	0.000841	8.409566	2.849238	0.000337
  59	5.7710e+00	2.3005	16.851005	0.000598	5.977884	2.025362	0.000239
  60	5.8705e+00	2.3438	17.149753	0.000750	7.497685	2.540284	0.000300
  61	5.9700e+00	2.3807	17.480798	0.000831	8.308246	2.814910	0.000333
  62	6.0695e+00	2.4240	17.823954	0.000861	8.612206	2.917894	0.000345
  63	6.1690e+00	2.4545	18.078294	0.000638	6.383164	2.162675	0.000256
  64	6.2685e+00	2.4978	18.401265	0.000811	8.105605	2.746253	0.000325
  65	6.3680e+00	2.5379	18.700013	0.000750	7.497685	2.540284	0.000300
  66	6.4675e+00	2.5764	19.010872	0.000780	7.801645	2.643269	0.000312
  67	6.5670e+00	2.6181	19.325769	0.000790	7.902965	2.677597	0.000316
  68	6.6665e+00	2.6582	19.640665	0.000790	7.902965	2.677597	0.000316
  69	6.7660e+00	2.6967	19.935376	0.000740	7.396365	2.505956	0.000296
  70	6.8655e+00	2.7400	20.274496	0.000851	8.510886	2.883566	0.000341
  71	6.9650e+00	2.7882	20.577281	0.000760	7.599005	2.574613	0.000304
  72	7.0645e+00	2.8234	20.867955	0.000730	7.295045	2.471628	0.000292
  73	7.1640e+00	2.8652	21.199000	0.000831	8.308246	2.814910	0.000333
  74	7.2635e+00	2.9037	21.477562	0.000699	6.991085	2.368644	0.000280
  75	7.3630e+00	2.9454	21.748050	0.000679	6.788445	2.299987	0.000272
  76	7.4625e+00	2.9726	22.038724	0.000730	7.295045	2.471628	0.000292
  77	7.5620e+00	3.0111	22.325361	0.000719	7.193725	2.437300	0.000288
  78	7.6615e+00	3.0705	22.688703	0.000912	9.118806	3.089535	0.000365
  79	7.7610e+00	3.1010	22.987451	0.000750	7.497685	2.540284	0.000300
  80	7.8605e+00	3.1459	23.302347	0.000790	7.902965	2.677597	0.000316
  81	7.9600e+00	3.1812	23.617244	0.000790	7.902965	2.677597	0.000316
  82	8.0595e+00	3.2213	23.911955	0.000740	7.396365	2.505956	0.000296
  83	8.1590e+00	3.2550	24.214740	0.000760	7.599005	2.574613	0.000304
  84	8.2585e+00	3.3031	24.513488	0.000750	7.497685	2.540284	0.000300
  85	8.3580e+00	3.3384	24.820311	0.000770	7.700325	2.608941	0.000308
  86	8.4575e+00	3.3785	25.119059	0.000750	7.497685	2.540284	0.000300
  87	8.5570e+00	3.4106	25.401658	0.000709	7.092405	2.402972	0.000284
  88	8.6565e+00	3.4523	25.720592	0.000800	8.004285	2.711925	0.000321
  89	8.7560e+00	3.4972	26.015303	0.000740	7.396365	2.505956	0.000296
  90	8.8555e+00	3.5325	26.326162	0.000780	7.801645	2.643269	0.000312
  91	8.9550e+00	3.5758	26.645096	0.000800	8.004285	2.711925	0.000321
  92	9.0545e+00	3.6127	26.903473	0.000648	6.484484	2.197003	0.000260
  93	9.1540e+00	3.6432	27.214332	0.000780	7.801645	2.643269	0.000312
  94	9.2535e+00	3.6913	27.517117	0.000760	7.599005	2.574613	0.000304
  95	9.3530e+00	3.7330	27.827977	0.000780	7.801645	2.643269	0.000312
  96	9.4525e+00	3.7699	28.110576	0.000709	7.092405	2.402972	0.000284
  97	9.5520e+00	3.8181	28.405287	0.000740	7.396365	2.505956	0.000296
  98	9.6515e+00	3.8453	28.695961	0.000730	7.295045	2.471628	0.000292
  99	9.7510e+00	3.8951	28.998746	0.000760	7.599005	2.574613	0.000304
 100	9.8505e+00	3.9320	29.321717	0.000811	8.105605	2.746253	0.000325
 101	9.9500e+00	3.9721	29.632576	0.000780	7.801645	2.643269	0.000312
 102	1.0050e+01	4.0170	29.915176	0.000709	7.092405	2.402972	0.000284
 103	1.0149e+01	4.0475	30.209887	0.000740	7.396365	2.505956	0.000296
 104	1.0248e+01	4.0892	30.536895	0.000821	8.206925	2.780582	0.000329
 105	1.0348e+01	4.1341	30.823531	0.000719	7.193725	2.437300	0.000288
 106	1.0447e+01	4.1630	31.122279	0.000750	7.497685	2.540284	0.000300
 107	1.0547e+01	4.2079	31.400842	0.000699	6.991085	2.368644	0.000280
 108	1.0646e+01	4.2624	31.695553	0.000740	7.396365	2.505956	0.000296
 109	1.0746e+01	4.2897	32.034672	0.000851	8.510886	2.883566	0.000341
 110	1.0845e+01	4.3378	32.321309	0.000719	7.193725	2.437300	0.000288
 111	1.0945e+01	4.3747	32.628131	0.000770	7.700325	2.608941	0.000308
 112	1.1044e+01	4.4165	32.906693	0.000699	6.991085	2.368644	0.000280
 113	1.1144e+01	4.4469	33.193330	0.000719	7.193725	2.437300	0.000288
 114	1.1243e+01	4.4967	33.484004	0.000730	7.295045	2.471628	0.000292
 115	1.1343e+01	4.5400	33.762566	0.000699	6.991085	2.368644	0.000280
 116	1.1443e+01	4.5689	34.129946	0.000922	9.220126	3.123863	0.000369
 117	1.1542e+01	4.6106	34.343914	0.000537	5.369964	1.819393	0.000215
 118	1.1642e+01	4.6507	34.658810	0.000790	7.902965	2.677597	0.000316
 119	1.1741e+01	4.6908	34.937373	0.000699	6.991085	2.368644	0.000280
 120	1.1841e+01	4.7341	35.276492	0.000851	8.510886	2.883566	0.000341
 121	1.1940e+01	4.7710	35.546980	0.000679	6.788445	2.299987	0.000272
 122	1.2040e+01	4.7999	35.841691	0.000740	7.396365	2.505956	0.000296
 123	1.2139e+01	4.8512	36.132365	0.000730	7.295045	2.471628	0.000292
 124	1.2239e+01	4.8881	36.419001	0.000719	7.193725	2.437300	0.000288
 125	1.2338e+01	4.9266	36.713712	0.000740	7.396365	2.505956	0.000296
 126	1.2438e+01	4.9699	36.996312	0.000709	7.092405	2.402972	0.000284
 127	1.2537e+01	5.0229	37.295060	0.000750	7.497685	2.540284	0.000300
 128	1.2636e+01	5.0630	37.573622	0.000699	6.991085	2.368644	0.000280
 129	1.2736e+01	5.0870	37.876407	0.000760	7.599005	2.574613	0.000304
 130	1.2835e+01	5.1335	38.191304	0.000790	7.902965	2.677597	0.000316
 131	1.2935e+01	5.1704	38.469866	0.000699	6.991085	2.368644	0.000280
 132	1.3034e+01	5.2057	38.756503	0.000719	7.193725	2.437300	0.000288
 133	1.3134e+01	5.2458	39.067363	0.000780	7.801645	2.643269	0.000312
 134	1.3233e+01	5.2892	39.378222	0.000780	7.801645	2.643269	0.000312
 135	1.3333e+01	5.3325	39.632562	0.000638	6.383164	2.162675	0.000256
 136	1.3432e+01	5.3742	39.927272	0.000740	7.396365	2.505956	0.000296
 137	1.3532e+01	5.4095	40.193723	0.000669	6.687124	2.265659	0.000268
 138	1.3632e+01	5.4560	40.520731	0.000821	8.206925	2.780582	0.000329
 139	1.3731e+01	5.4769	40.775071	0.000638	6.383164	2.162675	0.000256
 140	1.3831e+01	5.5218	41.073819	0.000750	7.497685	2.540284	0.000300
 141	1.3930e+01	5.5747	41.352381	0.000699	6.991085	2.368644	0.000280
 142	1.4030e+01	5.6052	41.651129	0.000750	7.497685	2.540284	0.000300
 143	1.4129e+01	5.6421	41.957952	0.000770	7.700325	2.608941	0.000308
 144	1.4229e+01	5.6854	42.248625	0.000730	7.295045	2.471628	0.000292
 145	1.4328e+01	5.7303	42.527188	0.000699	6.991085	2.368644	0.000280
 146	1.4428e+01	5.7608	42.805750	0.000699	6.991085	2.368644	0.000280
 147	1.4527e+01	5.8169	43.052016	0.000618	6.180524	2.094018	0.000248
 148	1.4627e+01	5.8522	43.358838	0.000770	7.700325	2.608941	0.000308
 149	1.4726e+01	5.8859	43.649512	0.000730	7.295045	2.471628	0.000292
 150	1.4825e+01	5.9325	43.964408	0.000790	7.902965	2.677597	0.000316
 151	1.4925e+01	5.9694	44.259119	0.000740	7.396365	2.505956	0.000296
 152	1.5024e+01	5.9998	44.489236	0.000578	5.775244	1.956706	0.000231
 153	1.5124e+01	6.0544	44.787984	0.000750	7.497685	2.540284	0.000300
 154	1.5223e+01	6.0865	45.034249	0.000618	6.180524	2.094018	0.000248
 155	1.5323e+01	6.1314	45.341071	0.000770	7.700325	2.608941	0.000308
 156	1.5422e+01	6.1667	45.631745	0.000730	7.295045	2.471628	0.000292
 157	1.5522e+01	6.2052	45.910308	0.000699	6.991085	2.368644	0.000280
 158	1.5621e+01	6.2469	46.196944	0.000719	7.193725	2.437300	0.000288
 159	1.5721e+01	6.2886	46.443210	0.000618	6.180524	2.094018	0.000248
 160	1.5820e+01	6.3191	46.758106	0.000790	7.902965	2.677597	0.000316
 161	1.5920e+01	6.3624	47.036668	0.000699	6.991085	2.368644	0.000280
 162	1.6020e+01	6.4105	47.295045	0.000648	6.484484	2.197003	0.000260
 163	1.6119e+01	6.4426	47.561496	0.000669	6.687124	2.265659	0.000268
 164	1.6218e+01	6.4907	47.868318	0.000770	7.700325	2.608941	0.000308
 165	1.6318e+01	6.5212	48.138807	0.000679	6.788445	2.299987	0.000272
 166	1.6418e+01	6.5629	48.445629	0.000770	7.700325	2.608941	0.000308
 167	1.6517e+01	6.6046	48.671708	0.000567	5.673924	1.922377	0.000227
 168	1.6616e+01	6.6463	48.974494	0.000760	7.599005	2.574613	0.000304
 169	1.6716e+01	6.6848	49.220759	0.000618	6.180524	2.094018	0.000248
 170	1.6816e+01	6.7282	49.531618	0.000780	7.801645	2.643269	0.000312
 171	1.6915e+01	6.7570	49.814218	0.000709	7.092405	2.402972	0.000284
 172	1.7015e+01	6.8052	50.076632	0.000659	6.585804	2.231331	0.000264
 173	1.7114e+01	6.8421	50.326934	0.000628	6.281844	2.128346	0.000252
 174	1.7213e+01	6.8822	50.637794	0.000780	7.801645	2.643269	0.000312
 175	1.7313e+01	6.9255	50.932504	0.000740	7.396365	2.505956	0.000296
 176	1.7413e+01	6.9656	51.158584	0.000567	5.673924	1.922377	0.000227
 177	1.7512e+01	6.9977	51.461369	0.000760	7.599005	2.574613	0.000304
 178	1.7611e+01	7.0362	51.707635	0.000618	6.180524	2.094018	0.000248
 179	1.7711e+01	7.0763	51.990234	0.000709	7.092405	2.402972	0.000284
 180	1.7811e+01	7.1228	52.280908	0.000730	7.295045	2.471628	0.000292
 181	1.7910e+01	7.1501	52.515062	0.000588	5.876564	1.991034	0.000235
 182	1.8009e+01	7.2014	52.813810	0.000750	7.497685	2.540284	0.000300
 183	1.8109e+01	7.2447	53.104483	0.000730	7.295045	2.471628	0.000292
 184	1.8209e+01	7.2800	53.334600	0.000578	5.775244	1.956706	0.000231
 185	1.8308e+01	7.3105	53.637385	0.000760	7.599005	2.574613	0.000304
 186	1.8407e+01	7.3554	53.863465	0.000567	5.673924	1.922377	0.000227
 187	1.8507e+01	7.3955	54.186436	0.000811	8.105605	2.746253	0.000325
 188	1.8607e+01	7.4436	54.456924	0.000679	6.788445	2.299987	0.000272
 189	1.8706e+01	7.4693	54.711264	0.000638	6.383164	2.162675	0.000256
 190	1.8805e+01	7.5206	55.001937	0.000730	7.295045	2.471628	0.000292
 191	1.8905e+01	7.5543	55.268388	0.000669	6.687124	2.265659	0.000268
 192	1.9005e+01	7.5960	55.486394	0.000547	5.471284	1.853721	0.000219
 193	1.9104e+01	7.6361	55.821476	0.000841	8.409566	2.849238	0.000337
 194	1.9203e+01	7.6827	56.043518	0.000557	5.572604	1.888049	0.000223
 195	1.9303e+01	7.7164	56.309969	0.000669	6.687124	2.265659	0.000268
 196	1.9402e+01	7.7517	56.620829	0.000780	7.801645	2.643269	0.000312
 197	1.9502e+01	7.8046	56.875168	0.000638	6.383164	2.162675	0.000256
 198	1.9602e+01	7.8351	57.133545	0.000648	6.484484	2.197003	0.000260
 199	1.9701e+01	7.8784	57.387885	0.000638	6.383164	2.162675	0.000256
 200	1.9800e+01	7.9233	57.670484	0.000709	7.092405	2.402972	0.000284
 201	1.9900e+01	7.9602	57.936935	0.000669	6.687124	2.265659	0.000268
 202	2.0000e+01	8.0035	58.207423	0.000679	6.788445	2.299987	0.000272
 203	2.0099e+01	8.0404	58.469837	0.000659	6.585804	2.231331	0.000264
 204	2.0198e+01	8.0741	58.732251	0.000659	6.585804	2.231331	0.000264
 205	2.0298e+01	8.1110	59.006776	0.000689	6.889765	2.334315	0.000276
 206	2.0398e+01	8.1511	59.265153	0.000648	6.484484	2.197003	0.000260
 207	2.0497e+01	8.1960	59.519492	0.000638	6.383164	2.162675	0.000256
 208	2.0596e+01	8.2297	59.777869	0.000648	6.484484	2.197003	0.000260
 209	2.0696e+01	8.2730	60.072580	0.000740	7.396365	2.505956	0.000296
 210	2.0796e+01	8.3212	60.310771	0.000598	5.977884	2.025362	0.000239
 211	2.0895e+01	8.3629	60.593370	0.000709	7.092405	2.402972	0.000284
 212	2.0994e+01	8.3982	60.843673	0.000628	6.281844	2.128346	0.000252
 213	2.1094e+01	8.4318	61.126272	0.000709	7.092405	2.402972	0.000284
 214	2.1194e+01	8.4720	61.356389	0.000578	5.775244	1.956706	0.000231
 215	2.1293e+01	8.5249	61.643026	0.000719	7.193725	2.437300	0.000288
 216	2.1392e+01	8.5570	61.881217	0.000598	5.977884	2.025362	0.000239
 217	2.1492e+01	8.5907	62.163816	0.000709	7.092405	2.402972	0.000284
 218	2.1591e+01	8.6308	62.393933	0.000578	5.775244	1.956706	0.000231
 219	2.1691e+01	8.6757	62.668458	0.000689	6.889765	2.334315	0.000276
 220	2.1791e+01	8.7174	62.930872	0.000659	6.585804	2.231331	0.000264
 221	2.1890e+01	8.7495	63.185211	0.000638	6.383164	2.162675	0.000256
 222	2.1989e+01	8.7944	63.455700	0.000679	6.788445	2.299987	0.000272
 223	2.2089e+01	8.8441	63.677742	0.000557	5.572604	1.888049	0.000223
 224	2.2189e+01	8.8746	63.956304	0.000699	6.991085	2.368644	0.000280
 225	2.2288e+01	8.9131	64.210644	0.000638	6.383164	2.162675	0.000256
 226	2.2387e+01	8.9468	64.469021	0.000648	6.484484	2.197003	0.000260
 227	2.2487e+01	8.9885	64.727397	0.000648	6.484484	2.197003	0.000260
 228	2.2587e+01	9.0382	65.001923	0.000689	6.889765	2.334315	0.000276
 229	2.2686e+01	9.0767	65.232039	0.000578	5.775244	1.956706	0.000231
 230	2.2785e+01	9.1153	65.522713	0.000730	7.295045	2.471628	0.000292
 231	2.2885e+01	9.1586	65.781090	0.000648	6.484484	2.197003	0.000260
 232	2.2985e+01	9.1955	66.007169	0.000567	5.673924	1.922377	0.000227
 233	2.3084e+01	9.2275	66.293806	0.000719	7.193725	2.437300	0.000288
 234	2.3183e+01	9.2709	66.531997	0.000598	5.977884	2.025362	0.000239
 235	2.3283e+01	9.3158	66.790374	0.000648	6.484484	2.197003	0.000260
 236	2.3383e+01	9.3591	67.040676	0.000628	6.281844	2.128346	0.000252
 237	2.3482e+01	9.3880	67.315201	0.000689	6.889765	2.334315	0.000276
 238	2.3581e+01	9.4297	67.589727	0.000689	6.889765	2.334315	0.000276
 239	2.3681e+01	9.4762	67.852140	0.000659	6.585804	2.231331	0.000264
 240	2.3780e+01	9.5099	68.082257	0.000578	5.775244	1.956706	0.000231
 241	2.3880e+01	9.5564	68.324485	0.000608	6.079204	2.059690	0.000243
 242	2.3980e+01	9.5885	68.599010	0.000689	6.889765	2.334315	0.000276
 243	2.4079e+01	9.6430	68.869499	0.000679	6.788445	2.299987	0.000272
 244	2.4178e+01	9.6767	69.103652	0.000588	5.876564	1.991034	0.000235
 245	2.4278e+01	9.7120	69.309546	0.000517	5.167323	1.750737	0.000207
 246	2.4378e+01	9.7585	69.636554	0.000821	8.206925	2.780582	0.000329
 247	2.4477e+01	9.7890	69.878782	0.000608	6.079204	2.059690	0.000243
 248	2.4576e+01	9.8356	70.108899	0.000578	5.775244	1.956706	0.000231
 249	2.4676e+01	9.8692	70.379387	0.000679	6.788445	2.299987	0.000272
 250	2.4776e+01	9.9126	70.593356	0.000537	5.369964	1.819393	0.000215
 251	2.4875e+01	9.9462	70.855769	0.000659	6.585804	2.231331	0.000264
 252	2.4974e+01	9.9896	71.081849	0.000567	5.673924	1.922377	0.000227
 253	2.5074e+01	10.0313	71.368486	0.000719	7.193725	2.437300	0.000288
 254	2.5174e+01	10.0682	71.606677	0.000598	5.977884	2.025362	0.000239
 255	2.5273e+01	10.1163	71.877165	0.000679	6.788445	2.299987	0.000272
 256	2.5372e+01	10.1452	72.123430	0.000618	6.180524	2.094018	0.000248
 257	2.5472e+01	10.1965	72.337398	0.000537	5.369964	1.819393	0.000215
 258	2.5572e+01	10.2222	72.595775	0.000648	6.484484	2.197003	0.000260
 259	2.5671e+01	10.2751	72.846077	0.000628	6.281844	2.128346	0.000252
 260	2.5770e+01	10.3232	73.088305	0.000608	6.079204	2.059690	0.000243
 261	2.5870e+01	10.3569	73.334571	0.000618	6.180524	2.094018	0.000248
 262	2.5970e+01	10.3906	73.601022	0.000669	6.687124	2.265659	0.000268
 263	2.6069e+01	10.4291	73.847287	0.000618	6.180524	2.094018	0.000248
 264	2.6169e+01	10.4724	74.093552	0.000618	6.180524	2.094018	0.000248
 265	2.6268e+01	10.5061	74.335780	0.000608	6.079204	2.059690	0.000243
 266	2.6367e+01	10.5478	74.557823	0.000557	5.572604	1.888049	0.000223
 267	2.6467e+01	10.5895	74.844459	0.000719	7.193725	2.437300	0.000288
 268	2.6567e+01	10.6280	75.090725	0.000618	6.180524	2.094018	0.000248
 269	2.6666e+01	10.6714	75.316804	0.000567	5.673924	1.922377	0.000227
 270	2.6765e+01	10.7066	75.571144	0.000638	6.383164	2.162675	0.000256
 271	2.6865e+01	10.7500	75.793186	0.000557	5.572604	1.888049	0.000223
 272	2.6965e+01	10.7949	76.075786	0.000709	7.092405	2.402972	0.000284
 273	2.7064e+01	10.8302	76.281680	0.000517	5.167323	1.750737	0.000207
 274	2.7163e+01	10.8767	76.515834	0.000588	5.876564	1.991034	0.000235
 275	2.7263e+01	10.9104	76.782285	0.000669	6.687124	2.265659	0.000268
 276	2.7363e+01	10.9457	77.004327	0.000557	5.572604	1.888049	0.000223
 277	2.7462e+01	10.9842	77.238481	0.000588	5.876564	1.991034	0.000235
 278	2.7561e+01	11.0291	77.529155	0.000730	7.295045	2.471628	0.000292
 279	2.7661e+01	11.0740	77.702752	0.000436	4.356763	1.476111	0.000174
 280	2.7761e+01	11.1189	77.953054	0.000628	6.281844	2.128346	0.000252
 281	2.7860e+01	11.1446	78.239691	0.000719	7.193725	2.437300	0.000288
 282	2.7959e+01	11.1911	78.477882	0.000598	5.977884	2.025362	0.000239
 283	2.8059e+01	11.2264	78.716073	0.000598	5.977884	2.025362	0.000239
 284	2.8159e+01	11.2617	78.970412	0.000638	6.383164	2.162675	0.000256
 285	2.8258e+01	11.3098	79.200529	0.000578	5.775244	1.956706	0.000231
 286	2.8358e+01	11.3451	79.426609	0.000567	5.673924	1.922377	0.000227
 287	2.8457e+01	11.3868	79.684985	0.000648	6.484484	2.197003	0.000260
 288	2.8556e+01	11.4350	79.886842	0.000507	5.066003	1.716408	0.000203
 289	2.8656e+01	11.4655	80.141182	0.000638	6.383164	2.162675	0.000256
 290	2.8756e+01	11.5056	80.403595	0.000659	6.585804	2.231331	0.000264
 291	2.8855e+01	11.5489	80.629675	0.000567	5.673924	1.922377	0.000227
 292	2.8954e+01	11.5874	80.851717	0.000557	5.572604	1.888049	0.000223
 293	2.9054e+01	11.6243	81.106057	0.000638	6.383164	2.162675	0.000256
 294	2.9154e+01	11.6644	81.324062	0.000547	5.471284	1.853721	0.000219
 295	2.9253e+01	11.7109	81.602625	0.000699	6.991085	2.368644	0.000280
 296	2.9352e+01	11.7382	81.820630	0.000547	5.471284	1.853721	0.000219
 297	2.9452e+01	11.7815	82.054784	0.000588	5.876564	1.991034	0.000235
 298	2.9552e+01	11.8248	82.240492	0.000466	4.660723	1.579096	0.000187
 299	2.9651e+01	11.8633	82.515017	0.000689	6.889765	2.334315	0.000276
 300	2.9750e+01	11.9098	82.757245	0.000608	6.079204	2.059690	0.000243
 301	2.9850e+01	11.9499	82.987362	0.000578	5.775244	1.956706	0.000231
 302	2.9950e+01	11.9852	83.241702	0.000638	6.383164	2.162675	0.000256
 303	3.0049e+01	12.0221	83.475856	0.000588	5.876564	1.991034	0.000235
 304	3.0148e+01	12.0670	83.726158	0.000628	6.281844	2.128346	0.000252
 305	3.0248e+01	12.0991	83.960312	0.000588	5.876564	1.991034	0.000235
 306	3.0348e+01	12.1440	84.137946	0.000446	4.458083	1.510439	0.000179
 307	3.0447e+01	12.1841	84.380174	0.000608	6.079204	2.059690	0.000243
 308	3.0547e+01	12.2275	84.634514	0.000638	6.383164	2.162675	0.000256
 309	3.0646e+01	12.2676	84.896927	0.000659	6.585804	2.231331	0.000264
 310	3.0745e+01	12.3013	85.094747	0.000496	4.964683	1.682080	0.000199
 311	3.0845e+01	12.3462	85.320827	0.000567	5.673924	1.922377	0.000227
 312	3.0945e+01	12.3863	85.595352	0.000689	6.889765	2.334315	0.000276
 313	3.1044e+01	12.4248	85.821432	0.000567	5.673924	1.922377	0.000227
 314	3.1143e+01	12.4617	86.075771	0.000638	6.383164	2.162675	0.000256
 315	3.1243e+01	12.5098	86.265516	0.000476	4.762043	1.613424	0.000191
 316	3.1343e+01	12.5323	86.491596	0.000567	5.673924	1.922377	0.000227
 317	3.1442e+01	12.5788	86.733824	0.000608	6.079204	2.059690	0.000243
 318	3.1541e+01	12.6221	86.951830	0.000547	5.471284	1.853721	0.000219
 319	3.1641e+01	12.6574	87.165798	0.000537	5.369964	1.819393	0.000215
 320	3.1741e+01	12.6991	87.412063	0.000618	6.180524	2.094018	0.000248
 321	3.1840e+01	12.7424	87.609883	0.000496	4.964683	1.682080	0.000199
 322	3.1939e+01	12.7825	87.876334	0.000669	6.687124	2.265659	0.000268
 323	3.2039e+01	12.8178	88.078190	0.000507	5.066003	1.716408	0.000203
 324	3.2139e+01	12.8595	88.320419	0.000608	6.079204	2.059690	0.000243
 325	3.2238e+01	12.8980	88.514201	0.000486	4.863363	1.647752	0.000195
 326	3.2337e+01	12.9349	88.768541	0.000638	6.383164	2.162675	0.000256
 327	3.2437e+01	12.9702	88.966360	0.000496	4.964683	1.682080	0.000199
 328	3.2536e+01	13.0232	89.220700	0.000638	6.383164	2.162675	0.000256
 329	3.2636e+01	13.0617	89.410445	0.000476	4.762043	1.613424	0.000191
 330	3.2736e+01	13.0889	89.652673	0.000608	6.079204	2.059690	0.000243
 331	3.2835e+01	13.1371	89.874716	0.000557	5.572604	1.888049	0.000223
 332	3.2934e+01	13.1820	90.088684	0.000537	5.369964	1.819393	0.000215
 333	3.3034e+01	13.2205	90.351098	0.000659	6.585804	2.231331	0.000264
 334	3.3133e+01	13.2510	90.609475	0.000648	6.484484	2.197003	0.000260
 335	3.3233e+01	13.2975	90.795183	0.000466	4.660723	1.579096	0.000187
 336	3.3333e+01	13.3376	90.984928	0.000476	4.762043	1.613424	0.000191
 337	3.3432e+01	13.3793	91.215045	0.000578	5.775244	1.956706	0.000231
 338	3.3532e+01	13.4194	91.424976	0.000527	5.268644	1.785065	0.000211
 339	3.3631e+01	13.4595	91.683353	0.000648	6.484484	2.197003	0.000260
 340	3.3730e+01	13.4964	91.869061	0.000466	4.660723	1.579096	0.000187
 341	3.3830e+01	13.5365	92.103215	0.000588	5.876564	1.991034	0.000235
 342	3.3929e+01	13.5702	92.389851	0.000719	7.193725	2.437300	0.000288
 343	3.4029e+01	13.6183	92.583634	0.000486	4.863363	1.647752	0.000195
 344	3.4129e+01	13.6600	92.793565	0.000527	5.268644	1.785065	0.000211
 345	3.4228e+01	13.6889	93.015607	0.000557	5.572604	1.888049	0.000223
 346	3.4328e+01	13.7435	93.241687	0.000567	5.673924	1.922377	0.000227
 347	3.4427e+01	13.7804	93.439507	0.000496	4.964683	1.682080	0.000199
 348	3.4526e+01	13.8140	93.613103	0.000436	4.356763	1.476111	0.000174
 349	3.4626e+01	13.8493	93.883592	0.000679	6.788445	2.299987	0.000272
 350	3.4725e+01	13.8830	94.129857	0.000618	6.180524	2.094018	0.000248
 351	3.4825e+01	13.9408	94.351899	0.000557	5.572604	1.888049	0.000223
 352	3.4925e+01	13.9761	94.565868	0.000537	5.369964	1.819393	0.000215
 353	3.5024e+01	14.0162	94.783873	0.000547	5.471284	1.853721	0.000219
 354	3.5123e+01	14.0547	95.030138	0.000618	6.180524	2.094018	0.000248
 355	3.5223e+01	14.0996	95.207772	0.000446	4.458083	1.510439	0.000179
 356	3.5322e+01	14.1365	95.470186	0.000659	6.585804	2.231331	0.000264
 357	3.5422e+01	14.1670	95.651857	0.000456	4.559403	1.544768	0.000183
 358	3.5522e+01	14.2103	95.865825	0.000537	5.369964	1.819393	0.000215
 359	3.5621e+01	14.2520	96.091905	0.000567	5.673924	1.922377	0.000227
 360	3.5721e+01	14.2937	96.334133	0.000608	6.079204	2.059690	0.000243
 361	3.5820e+01	14.3467	96.540027	0.000517	5.167323	1.750737	0.000207
 362	3.5919e+01	14.3707	96.725735	0.000466	4.660723	1.579096	0.000187
 363	3.6019e+01	14.4124	96.959889	0.000588	5.876564	1.991034	0.000235
 364	3.6118e+01	14.4606	97.206154	0.000618	6.180524	2.094018	0.000248
 365	3.6218e+01	14.4910	97.428197	0.000557	5.572604	1.888049	0.000223
 366	3.6318e+01	14.5376	97.638128	0.000527	5.268644	1.785065	0.000211
 367	3.6417e+01	14.5664	97.839985	0.000507	5.066003	1.716408	0.000203
 368	3.6517e+01	14.6178	98.053953	0.000537	5.369964	1.819393	0.000215
 369	3.6616e+01	14.6418	98.280032	0.000567	5.673924	1.922377	0.000227
 370	3.6715e+01	14.6948	98.429406	0.000375	3.748843	1.270142	0.000150
 371	3.6815e+01	14.7253	98.679709	0.000628	6.281844	2.128346	0.000252
 372	3.6914e+01	14.7702	98.934048	0.000638	6.383164	2.162675	0.000256
 373	3.7014e+01	14.8055	99.123794	0.000476	4.762043	1.613424	0.000191
 374	3.7114e+01	14.8600	99.370059	0.000618	6.180524	2.094018	0.000248
 375	3.7213e+01	14.8873	99.596139	0.000567	5.673924	1.922377	0.000227
 376	3.7313e+01	14.9306	99.793958	0.000496	4.964683	1.682080	0.000199
 377	3.7412e+01	14.9691	99.999852	0.000517	5.167323	1.750737	0.000207
 378	3.7511e+01	15.0108	100.238043	0.000598	5.977884	2.025362	0.000239
 379	3.7611e+01	15.0525	100.439900	0.000507	5.066003	1.716408	0.000203
 380	3.7711e+01	15.0910	100.645794	0.000517	5.167323	1.750737	0.000207
 381	3.7810e+01	15.1311	100.892059	0.000618	6.180524	2.094018	0.000248
 382	3.7910e+01	15.1760	101.073730	0.000456	4.559403	1.544768	0.000183
 383	3.8009e+01	15.2097	101.275587	0.000507	5.066003	1.716408	0.000203
 384	3.8108e+01	15.2530	101.485518	0.000527	5.268644	1.785065	0.000211
 385	3.8208e+01	15.2835	101.703524	0.000547	5.471284	1.853721	0.000219
 386	3.8307e+01	15.3317	101.917492	0.000537	5.369964	1.819393	0.000215
 387	3.8407e+01	15.3669	102.119348	0.000507	5.066003	1.716408	0.000203
 388	3.8507e+01	15.4135	102.337354	0.000547	5.471284	1.853721	0.000219
 389	3.8606e+01	15.4504	102.571508	0.000588	5.876564	1.991034	0.000235
 390	3.8706e+01	15.4985	102.749142	0.000446	4.458083	1.510439	0.000179
 391	3.8805e+01	15.5161	102.967147	0.000547	5.471284	1.853721	0.000219
 392	3.8904e+01	15.5691	103.185152	0.000547	5.471284	1.853721	0.000219
 393	3.9004e+01	15.6108	103.387009	0.000507	5.066003	1.716408	0.000203
 394	3.9103e+01	15.6605	103.629237	0.000608	6.079204	2.059690	0.000243
 395	3.9203e+01	15.6830	103.810908	0.000456	4.559403	1.544768	0.000183
 396	3.9303e+01	15.7215	104.036988	0.000567	5.673924	1.922377	0.000227
 397	3.9402e+01	15.7568	104.238845	0.000507	5.066003	1.716408	0.000203
 398	3.9502e+01	15.8081	104.464924	0.000567	5.673924	1.922377	0.000227
 399	3.9601e+01	15.8530	104.654670	0.000476	4.762043	1.613424	0.000191
 400	3.9700e+01	15.8771	104.864601	0.000527	5.268644	1.785065	0.000211
 401	3.9800e+01	15.9332	105.086643	0.000557	5.572604	1.888049	0.000223
 402	3.9900e+01	15.9733	105.300611	0.000537	5.369964	1.819393	0.000215
 403	3.9999e+01	16.0118	105.494394	0.000486	4.863363	1.647752	0.000195
 404	4.0099e+01	16.0503	105.716436	0.000557	5.572604	1.888049	0.000223
 405	4.0198e+01	16.0937	105.950590	0.000588	5.876564	1.991034	0.000235
 406	4.0297e+01	16.1209	106.136299	0.000466	4.660723	1.579096	0.000187
 407	4.0397e+01	16.1626	106.346230	0.000527	5.268644	1.785065	0.000211
 408	4.0496e+01	16.2092	106.560198	0.000537	5.369964	1.819393	0.000215
 409	4.0596e+01	16.2429	106.790315	0.000578	5.775244	1.956706	0.000231
 410	4.0696e+01	16.2830	106.980060	0.000476	4.762043	1.613424	0.000191
 411	4.0795e+01	16.3167	107.210177	0.000578	5.775244	1.956706	0.000231
 412	4.0895e+01	16.3616	107.379736	0.000426	4.255443	1.441783	0.000170
 413	4.0994e+01	16.4161	107.617927	0.000598	5.977884	2.025362	0.000239
 414	4.1093e+01	16.4450	107.827858	0.000527	5.268644	1.785065	0.000211
 415	4.1193e+01	16.4851	108.009530	0.000456	4.559403	1.544768	0.000183
 416	4.1292e+01	16.5284	108.235609	0.000567	5.673924	1.922377	0.000227
 417	4.1392e+01	16.5621	108.405169	0.000426	4.255443	1.441783	0.000170
 418	4.1492e+01	16.6006	108.627211	0.000557	5.572604	1.888049	0.000223
 419	4.1591e+01	16.6439	108.869439	0.000608	6.079204	2.059690	0.000243
 420	4.1691e+01	16.6760	109.047073	0.000446	4.458083	1.510439	0.000179
 421	4.1790e+01	16.7225	109.277190	0.000578	5.775244	1.956706	0.000231
 422	4.1889e+01	16.7674	109.426564	0.000375	3.748843	1.270142	0.000150
 423	4.1989e+01	16.7995	109.676867	0.000628	6.281844	2.128346	0.000252
 424	4.2089e+01	16.8493	109.890835	0.000537	5.369964	1.819393	0.000215
 425	4.2188e+01	16.8878	110.092692	0.000507	5.066003	1.716408	0.000203
 426	4.2288e+01	16.9263	110.314734	0.000557	5.572604	1.888049	0.000223
 427	4.2387e+01	16.9632	110.516591	0.000507	5.066003	1.716408	0.000203
 428	4.2486e+01	16.9904	110.694225	0.000446	4.458083	1.510439	0.000179
 429	4.2586e+01	17.0353	110.900119	0.000517	5.167323	1.750737	0.000207
 430	4.2685e+01	17.0738	111.126198	0.000567	5.673924	1.922377	0.000227
 431	4.2785e+01	17.1268	111.311907	0.000466	4.660723	1.579096	0.000187
 432	4.2885e+01	17.1621	111.529912	0.000547	5.471284	1.853721	0.000219
 433	4.2984e+01	17.2006	111.735806	0.000517	5.167323	1.750737	0.000207
 434	4.3084e+01	17.2455	111.921514	0.000466	4.660723	1.579096	0.000187
 435	4.3183e+01	17.2792	112.123371	0.000507	5.066003	1.716408	0.000203
 436	4.3282e+01	17.3305	112.353488	0.000578	5.775244	1.956706	0.000231
 437	4.3382e+01	17.3610	112.510936	0.000395	3.951483	1.338799	0.000158
 438	4.3481e+01	17.4027	112.753164	0.000608	6.079204	2.059690	0.000243
 439	4.3581e+01	17.4380	112.946947	0.000486	4.863363	1.647752	0.000195
 440	4.3681e+01	17.4877	113.168989	0.000557	5.572604	1.888049	0.000223
 441	4.3780e+01	17.5246	113.370846	0.000507	5.066003	1.716408	0.000203
 442	4.3880e+01	17.5631	113.552517	0.000456	4.559403	1.544768	0.000183
 443	4.3979e+01	17.6016	113.758411	0.000517	5.167323	1.750737	0.000207
 444	4.4078e+01	17.6466	113.992565	0.000588	5.876564	1.991034	0.000235
 445	4.4178e+01	17.6851	114.190384	0.000496	4.964683	1.682080	0.000199
 446	4.4278e+01	17.7204	114.359944	0.000426	4.255443	1.441783	0.000170
 447	4.4377e+01	17.7669	114.557764	0.000496	4.964683	1.682080	0.000199
 448	4.4477e+01	17.7958	114.723286	0.000415	4.154123	1.407455	0.000166
 449	4.4576e+01	17.8391	114.973589	0.000628	6.281844	2.128346	0.000252
 450	4.4675e+01	17.8840	115.179483	0.000517	5.167323	1.750737	0.000207
 451	4.4775e+01	17.9209	115.361154	0.000456	4.559403	1.544768	0.000183
 452	4.4874e+01	17.9626	115.579159	0.000547	5.471284	1.853721	0.000219
 453	4.4974e+01	17.9963	115.805239	0.000567	5.673924	1.922377	0.000227
 454	4.5074e+01	18.0444	115.962687	0.000395	3.951483	1.338799	0.000158
 455	4.5173e+01	18.0749	116.200878	0.000598	5.977884	2.025362	0.000239
 456	4.5273e+01	18.1102	116.402735	0.000507	5.066003	1.716408	0.000203
 457	4.5372e+01	18.1599	116.612666	0.000527	5.268644	1.785065	0.000211
 458	4.5471e+01	18.2064	116.766077	0.000385	3.850163	1.304470	0.000154
 459	4.5571e+01	18.2369	116.951785	0.000466	4.660723	1.579096	0.000187
 460	4.5670e+01	18.2802	117.153642	0.000507	5.066003	1.716408	0.000203
 461	4.5770e+01	18.3107	117.371647	0.000547	5.471284	1.853721	0.000219
 462	4.5870e+01	18.3604	117.605801	0.000588	5.876564	1.991034	0.000235
 463	4.5969e+01	18.4054	117.775361	0.000426	4.255443	1.441783	0.000170
 464	4.6069e+01	18.4374	118.001440	0.000567	5.673924	1.922377	0.000227
 465	4.6168e+01	18.4711	118.166963	0.000415	4.154123	1.407455	0.000166
 466	4.6267e+01	18.5177	118.413228	0.000618	6.180524	2.094018	0.000248
 467	4.6367e+01	18.5562	118.602974	0.000476	4.762043	1.613424	0.000191
 468	4.6467e+01	18.5995	118.796756	0.000486	4.863363	1.647752	0.000195
 469	4.6566e+01	18.6396	118.978427	0.000456	4.559403	1.544768	0.000183
 470	4.6666e+01	18.6829	119.196433	0.000547	5.471284	1.853721	0.000219
 471	4.6765e+01	18.7166	119.382141	0.000466	4.660723	1.579096	0.000187
 472	4.6864e+01	18.7599	119.588035	0.000517	5.167323	1.750737	0.000207
 473	4.6964e+01	18.7984	119.761632	0.000436	4.356763	1.476111	0.000174
 474	4.7063e+01	18.8369	119.995786	0.000588	5.876564	1.991034	0.000235
 475	4.7163e+01	18.8722	120.169382	0.000436	4.356763	1.476111	0.000174
 476	4.7263e+01	18.9187	120.359128	0.000476	4.762043	1.613424	0.000191
 477	4.7362e+01	18.9540	120.552910	0.000486	4.863363	1.647752	0.000195
 478	4.7462e+01	18.9989	120.754767	0.000507	5.066003	1.716408	0.000203
 479	4.7561e+01	19.0246	120.968735	0.000537	5.369964	1.819393	0.000215
 480	4.7660e+01	19.0759	121.186741	0.000547	5.471284	1.853721	0.000219
 481	4.7760e+01	19.1225	121.348226	0.000405	4.052803	1.373127	0.000162
 482	4.7859e+01	19.1465	121.533934	0.000466	4.660723	1.579096	0.000187
 483	4.7959e+01	19.1914	121.768088	0.000588	5.876564	1.991034	0.000235
 484	4.8059e+01	19.2412	121.953796	0.000466	4.660723	1.579096	0.000187
 485	4.8158e+01	19.2684	122.143542	0.000476	4.762043	1.613424	0.000191
 486	4.8258e+01	19.3198	122.369621	0.000567	5.673924	1.922377	0.000227
 487	4.8357e+01	19.3535	122.539181	0.000426	4.255443	1.441783	0.000170
 488	4.8456e+01	19.3920	122.749112	0.000527	5.268644	1.785065	0.000211
 489	4.8556e+01	19.4385	122.882338	0.000334	3.343562	1.132830	0.000134
 490	4.8656e+01	19.4770	123.055934	0.000436	4.356763	1.476111	0.000174
 491	4.8755e+01	19.5107	123.294125	0.000598	5.977884	2.025362	0.000239
 492	4.8855e+01	19.5540	123.487908	0.000486	4.863363	1.647752	0.000195
 493	4.8954e+01	19.5957	123.657468	0.000426	4.255443	1.441783	0.000170
 494	4.9053e+01	19.6310	123.903733	0.000618	6.180524	2.094018	0.000248
 495	4.9153e+01	19.6663	124.105590	0.000507	5.066003	1.716408	0.000203
 496	4.9252e+01	19.7128	124.283224	0.000446	4.458083	1.510439	0.000179
 497	4.9352e+01	19.7561	124.481043	0.000496	4.964683	1.682080	0.000199
 498	4.9452e+01	19.7962	124.654640	0.000436	4.356763	1.476111	0.000174
 499	4.9551e+01	19.8283	124.828237	0.000436	4.356763	1.476111	0.000174
 500	4.9651e+01	19.8684	125.066428	0.000598	5.977884	2.025362	0.000239
 501	4.9750e+01	19.9117	125.276359	0.000527	5.268644	1.785065	0.000211
 502	4.9849e+01	19.9567	125.425733	0.000375	3.748843	1.270142	0.000150
 503	4.9949e+01	19.9936	125.627590	0.000507	5.066003	1.716408	0.000203
 504	5.0048e+01	19.9502	125.502439	0.000314	3.140922	1.064173	-0.000126
 505	5.0148e+01	19.9182	125.417659	0.000213	2.127721	0.720892	-0.000085
 506	5.0248e+01	19.8700	125.252136	0.000415	4.154123	1.407455	-0.000166
 507	5.0347e+01	19.8315	125.118911	0.000334	3.343562	1.132830	-0.000134
 508	5.0447e+01	19.7930	124.993760	0.000314	3.140922	1.064173	-0.000126
 509	5.0546e+01	19.7545	124.900905	0.000233	2.330362	0.789548	-0.000093
 510	5.0645e+01	19.7080	124.751531	0.000375	3.748843	1.270142	-0.000150
 511	5.0745e+01	19.6679	124.602157	0.000375	3.748843	1.270142	-0.000150
 512	5.0844e+01	19.6374	124.460858	0.000355	3.546202	1.201486	-0.000142
 513	5.0944e+01	19.5941	124.347818	0.000284	2.836962	0.961189	-0.000114
 514	5.1044e+01	19.5556	124.198444	0.000375	3.748843	1.270142	-0.000150
 515	5.1143e+01	19.5091	124.081367	0.000294	2.938282	0.995517	-0.000118
 516	5.1242e+01	19.4770	123.915844	0.000415	4.154123	1.407455	-0.000166
 517	5.1342e+01	19.4353	123.786656	0.000324	3.242242	1.098501	-0.000130
 518	5.1441e+01	19.3872	123.633245	0.000385	3.850163	1.304470	-0.000154
 519	5.1541e+01	19.3551	123.479834	0.000385	3.850163	1.304470	-0.000154
 520	5.1641e+01	19.3118	123.358720	0.000304	3.039602	1.029845	-0.000122
 521	5.1740e+01	19.2733	123.160900	0.000496	4.964683	1.682080	-0.000199
 522	5.1840e+01	19.2476	123.068046	0.000233	2.330362	0.789548	-0.000093
 523	5.1939e+01	19.1979	122.942895	0.000314	3.140922	1.064173	-0.000126
 524	5.2038e+01	19.1626	122.753149	0.000476	4.762043	1.613424	-0.000191
 525	5.2138e+01	19.1112	122.611849	0.000355	3.546202	1.201486	-0.000142
 526	5.2237e+01	19.0823	122.446327	0.000415	4.154123	1.407455	-0.000166
 527	5.2337e+01	19.0422	122.296953	0.000375	3.748843	1.270142	-0.000150
 528	5.2437e+01	18.9925	122.159690	0.000344	3.444882	1.167158	-0.000138
 529	5.2536e+01	18.9492	122.018391	0.000355	3.546202	1.201486	-0.000142
 530	5.2636e+01	18.9171	121.844794	0.000436	4.356763	1.476111	-0.000174
 531	5.2735e+01	18.8770	121.731754	0.000284	2.836962	0.961189	-0.000114
 532	5.2834e+01	18.8449	121.566231	0.000415	4.154123	1.407455	-0.000166
 533	5.2934e+01	18.7968	121.445117	0.000304	3.039602	1.029845	-0.000122
 534	5.3033e+01	18.7631	121.271520	0.000436	4.356763	1.476111	-0.000174
 535	5.3133e+01	18.7246	121.138295	0.000334	3.343562	1.132830	-0.000134
 536	5.3233e+01	18.6797	120.936438	0.000507	5.066003	1.716408	-0.000203
 537	5.3332e+01	18.6284	120.791101	0.000365	3.647522	1.235814	-0.000146
 538	5.3431e+01	18.6075	120.645764	0.000365	3.647522	1.235814	-0.000146
 539	5.3531e+01	18.5642	120.472168	0.000436	4.356763	1.476111	-0.000174
 540	5.3630e+01	18.5209	120.347016	0.000314	3.140922	1.064173	-0.000126
 541	5.3730e+01	18.4743	120.169382	0.000446	4.458083	1.510439	-0.000179
 542	5.3830e+01	18.4262	119.995786	0.000436	4.356763	1.476111	-0.000174
 543	5.3929e+01	18.3989	119.826226	0.000426	4.255443	1.441783	-0.000170
 544	5.4029e+01	18.3540	119.680889	0.000365	3.647522	1.235814	-0.000146
 545	5.4128e+01	18.3203	119.555738	0.000314	3.140922	1.064173	-0.000126
 546	5.4227e+01	18.2834	119.386178	0.000426	4.255443	1.441783	-0.000170
 547	5.4327e+01	18.2433	119.228730	0.000395	3.951483	1.338799	-0.000158
 548	5.4426e+01	18.1920	119.099541	0.000324	3.242242	1.098501	-0.000130
 549	5.4526e+01	18.1567	118.934019	0.000415	4.154123	1.407455	-0.000166
 550	5.4626e+01	18.1198	118.772533	0.000405	4.052803	1.373127	-0.000162
 551	5.4725e+01	18.0717	118.574714	0.000496	4.964683	1.682080	-0.000199
 552	5.4825e+01	18.0524	118.405154	0.000426	4.255443	1.441783	-0.000170
 553	5.4924e+01	17.9995	118.300189	0.000263	2.634322	0.892532	-0.000105
 554	5.5023e+01	17.9642	118.086220	0.000537	5.369964	1.819393	-0.000215
 555	5.5123e+01	17.9145	117.928772	0.000395	3.951483	1.338799	-0.000158
 556	5.5222e+01	17.8728	117.751138	0.000446	4.458083	1.510439	-0.000179
 557	5.5322e+01	17.8471	117.617913	0.000334	3.343562	1.132830	-0.000134
 558	5.5422e+01	17.7909	117.440279	0.000446	4.458083	1.510439	-0.000179
 559	5.5521e+01	17.7589	117.298979	0.000355	3.546202	1.201486	-0.000142
 560	5.5620e+01	17.7188	117.121345	0.000446	4.458083	1.510439	-0.000179
 561	5.5720e+01	17.6835	116.984082	0.000344	3.444882	1.167158	-0.000138
 562	5.5819e+01	17.6417	116.786263	0.000496	4.964683	1.682080	-0.000199
 563	5.5919e+01	17.6016	116.604592	0.000456	4.559403	1.544768	-0.000183
 564	5.6019e+01	17.5599	116.467329	0.000344	3.444882	1.167158	-0.000138
 565	5.6118e+01	17.5214	116.305843	0.000405	4.052803	1.373127	-0.000162
 566	5.6218e+01	17.4829	116.124172	0.000456	4.559403	1.544768	-0.000183
 567	5.6317e+01	17.4428	115.978835	0.000365	3.647522	1.235814	-0.000146
 568	5.6416e+01	17.4027	115.813313	0.000415	4.154123	1.407455	-0.000166
 569	5.6516e+01	17.3578	115.611456	0.000507	5.066003	1.716408	-0.000203
 570	5.6615e+01	17.3209	115.486305	0.000314	3.140922	1.064173	-0.000126
 571	5.6715e+01	17.2776	115.324819	0.000405	4.052803	1.373127	-0.000162
 572	5.6815e+01	17.2455	115.122963	0.000507	5.066003	1.716408	-0.000203
 573	5.6914e+01	17.1974	114.973589	0.000375	3.748843	1.270142	-0.000150
 574	5.7014e+01	17.1605	114.808066	0.000415	4.154123	1.407455	-0.000166
 575	5.7113e+01	17.1252	114.686952	0.000304	3.039602	1.029845	-0.000122
 576	5.7212e+01	17.0803	114.472984	0.000537	5.369964	1.819393	-0.000215
 577	5.7312e+01	17.0418	114.291313	0.000456	4.559403	1.544768	-0.000183
 578	5.7411e+01	17.0033	114.141939	0.000375	3.748843	1.270142	-0.000150
 579	5.7511e+01	16.9728	113.980453	0.000405	4.052803	1.373127	-0.000162
 580	5.7611e+01	16.9198	113.859339	0.000304	3.039602	1.029845	-0.000122
 581	5.7710e+01	16.8829	113.657482	0.000507	5.066003	1.716408	-0.000203
 582	5.7809e+01	16.8412	113.500034	0.000395	3.951483	1.338799	-0.000158
 583	5.7909e+01	16.8075	113.314326	0.000466	4.660723	1.579096	-0.000187
 584	5.8008e+01	16.7610	113.148803	0.000415	4.154123	1.407455	-0.000166
 585	5.8108e+01	16.7193	112.955021	0.000486	4.863363	1.647752	-0.000195
 586	5.8208e+01	16.6904	112.773350	0.000456	4.559403	1.544768	-0.000183
 587	5.8307e+01	16.6439	112.656273	0.000294	2.938282	0.995517	-0.000118
 588	5.8407e+01	16.5958	112.446342	0.000527	5.268644	1.785065	-0.000211
 589	5.8506e+01	16.5701	112.292931	0.000385	3.850163	1.304470	-0.000154
 590	5.8605e+01	16.5252	112.127408	0.000415	4.154123	1.407455	-0.000166
 591	5.8705e+01	16.4803	111.961885	0.000415	4.154123	1.407455	-0.000166
 592	5.8804e+01	16.4450	111.800400	0.000405	4.052803	1.373127	-0.000162
 593	5.8904e+01	16.4097	111.610655	0.000476	4.762043	1.613424	-0.000191
 594	5.9004e+01	16.3552	111.465318	0.000365	3.647522	1.235814	-0.000146
 595	5.9103e+01	16.3231	111.291721	0.000436	4.356763	1.476111	-0.000174
 596	5.9203e+01	16.2830	111.114087	0.000446	4.458083	1.510439	-0.000179
 597	5.9302e+01	16.2493	110.920304	0.000486	4.863363	1.647752	-0.000195
 598	5.9401e+01	16.2060	110.750745	0.000426	4.255443	1.441783	-0.000170
 599	5.9501e+01	16.1675	110.560999	0.000476	4.762043	1.613424	-0.000191
 600	5.9600e+01	16.1386	110.379328	0.000456	4.559403	1.544768	-0.000183
 601	5.9700e+01	16.0840	110.209769	0.000426	4.255443	1.441783	-0.000170
 602	5.9800e+01	16.0471	110.060394	0.000375	3.748843	1.270142	-0.000150
 603	5.9899e+01	15.9990	109.878723	0.000456	4.559403	1.544768	-0.000183
 604	5.9998e+01	15.9637	109.697052	0.000456	4.559403	1.544768	-0.000183
 605	6.0098e+01	15.9284	109.519418	0.000446	4.458083	1.510439	-0.000179
 606	6.0197e+01	15.8851	109.333710	0.000466	4.660723	1.579096	-0.000187
 607	6.0297e+01	15.8514	109.196447	0.000344	3.444882	1.167158	-0.000138
 608	6.0397e+01	15.8065	109.010739	0.000466	4.660723	1.579096	-0.000187
 609	6.0496e+01	15.7712	108.812920	0.000496	4.964683	1.682080	-0.000199
 610	6.0596e+01	15.7327	108.651434	0.000405	4.052803	1.373127	-0.000162
 611	6.0695e+01	15.6878	108.477837	0.000436	4.356763	1.476111	-0.000174
 612	6.0794e+01	15.6461	108.296166	0.000456	4.559403	1.544768	-0.000183
 613	6.0894e+01	15.6092	108.106421	0.000476	4.762043	1.613424	-0.000191
 614	6.0993e+01	15.5643	107.924750	0.000456	4.559403	1.544768	-0.000183
 615	6.1093e+01	15.5274	107.783450	0.000355	3.546202	1.201486	-0.000142
 616	6.1193e+01	15.4905	107.581593	0.000507	5.066003	1.716408	-0.000203
 617	6.1292e+01	15.4423	107.403959	0.000446	4.458083	1.510439	-0.000179
 618	6.1392e+01	15.4054	107.266697	0.000344	3.444882	1.167158	-0.000138
 619	6.1491e+01	15.3653	107.076951	0.000476	4.762043	1.613424	-0.000191
 620	6.1590e+01	15.3172	106.887206	0.000476	4.762043	1.613424	-0.000191
 621	6.1690e+01	15.2851	106.689386	0.000496	4.964683	1.682080	-0.000199
 622	6.1789e+01	15.2450	106.507715	0.000456	4.559403	1.544768	-0.000183
 623	6.1889e+01	15.2129	106.330081	0.000446	4.458083	1.510439	-0.000179
 624	6.1989e+01	15.1680	106.148410	0.000456	4.559403	1.544768	-0.000183
 625	6.2088e+01	15.1263	105.962702	0.000466	4.660723	1.579096	-0.000187
 626	6.2188e+01	15.0862	105.817365	0.000365	3.647522	1.235814	-0.000146
 627	6.2287e+01	15.0573	105.591285	0.000567	5.673924	1.922377	-0.000227
 628	6.2386e+01	15.0140	105.429800	0.000405	4.052803	1.373127	-0.000162
 629	6.2486e+01	14.9707	105.231980	0.000496	4.964683	1.682080	-0.000199
 630	6.2586e+01	14.9226	105.034160	0.000496	4.964683	1.682080	-0.000199
 631	6.2685e+01	14.8793	104.876712	0.000395	3.951483	1.338799	-0.000158
 632	6.2785e+01	14.8504	104.707153	0.000426	4.255443	1.441783	-0.000170
 633	6.2884e+01	14.8167	104.509333	0.000496	4.964683	1.682080	-0.000199
 634	6.2983e+01	14.7718	104.323625	0.000466	4.660723	1.579096	-0.000187
 635	6.3083e+01	14.7333	104.154065	0.000426	4.255443	1.441783	-0.000170
 636	6.3182e+01	14.6916	104.032951	0.000304	3.039602	1.029845	-0.000122
 637	6.3282e+01	14.6482	103.786686	0.000618	6.180524	2.094018	-0.000248
 638	6.3382e+01	14.6130	103.596940	0.000476	4.762043	1.613424	-0.000191
 639	6.3481e+01	14.5712	103.415269	0.000456	4.559403	1.544768	-0.000183
 640	6.3581e+01	14.5327	103.294155	0.000304	3.039602	1.029845	-0.000122
 641	6.3680e+01	14.4878	103.080187	0.000537	5.369964	1.819393	-0.000215
 642	6.3779e+01	14.4429	102.890441	0.000476	4.762043	1.613424	-0.000191
 643	6.3879e+01	14.4188	102.712807	0.000446	4.458083	1.510439	-0.000179
 644	6.3978e+01	14.3723	102.514988	0.000496	4.964683	1.682080	-0.000199
 645	6.4078e+01	14.3354	102.313131	0.000507	5.066003	1.716408	-0.000203
 646	6.4177e+01	14.2921	102.127423	0.000466	4.660723	1.579096	-0.000187
 647	6.4277e+01	14.2536	101.941715	0.000466	4.660723	1.579096	-0.000187
 648	6.4376e+01	14.2151	101.780229	0.000405	4.052803	1.373127	-0.000162
 649	6.4476e+01	14.1766	101.582409	0.000496	4.964683	1.682080	-0.000199
 650	6.4576e+01	14.1285	101.404775	0.000446	4.458083	1.510439	-0.000179
 651	6.4675e+01	14.0932	101.174659	0.000578	5.775244	1.956706	-0.000231
 652	6.4775e+01	14.0418	101.037396	0.000344	3.444882	1.167158	-0.000138
 653	6.4874e+01	14.0098	100.851688	0.000466	4.660723	1.579096	-0.000187
 654	6.4974e+01	13.9729	100.629645	0.000557	5.572604	1.888049	-0.000223
 655	6.5073e+01	13.9456	100.464123	0.000415	4.154123	1.407455	-0.000166
 656	6.5172e+01	13.8927	100.246118	0.000547	5.471284	1.853721	-0.000219
 657	6.5272e+01	13.8590	100.064446	0.000456	4.559403	1.544768	-0.000183
 658	6.5371e+01	13.8076	99.818181	0.000618	6.180524	2.094018	-0.000248
 659	6.5471e+01	13.7804	99.680919	0.000344	3.444882	1.167158	-0.000138
 660	6.5570e+01	13.7419	99.495210	0.000466	4.660723	1.579096	-0.000187
 661	6.5670e+01	13.7001	99.289316	0.000517	5.167323	1.750737	-0.000207
 662	6.5769e+01	13.6536	99.111682	0.000446	4.458083	1.510439	-0.000179
 663	6.5869e+01	13.6135	98.901751	0.000527	5.268644	1.785065	-0.000211
 664	6.5969e+01	13.5606	98.720080	0.000456	4.559403	1.544768	-0.000183
 665	6.6068e+01	13.5397	98.506112	0.000537	5.369964	1.819393	-0.000215
 666	6.6168e+01	13.4900	98.340589	0.000415	4.154123	1.407455	-0.000166
 667	6.6267e+01	13.4579	98.162955	0.000446	4.458083	1.510439	-0.000179
 668	6.6367e+01	13.4258	97.932839	0.000578	5.775244	1.956706	-0.000231
 669	6.6466e+01	13.3793	97.767316	0.000415	4.154123	1.407455	-0.000166
 670	6.6566e+01	13.3376	97.553348	0.000537	5.369964	1.819393	-0.000215
 671	6.6665e+01	13.2959	97.383788	0.000426	4.255443	1.441783	-0.000170
 672	6.6764e+01	13.2606	97.190006	0.000486	4.863363	1.647752	-0.000195
 673	6.6864e+01	13.2125	96.976038	0.000537	5.369964	1.819393	-0.000215
 674	6.6963e+01	13.1772	96.782255	0.000486	4.863363	1.647752	-0.000195
 675	6.7063e+01	13.1403	96.572324	0.000527	5.268644	1.785065	-0.000211
 676	6.7162e+01	13.1002	96.447173	0.000314	3.140922	1.064173	-0.000126
 677	6.7262e+01	13.0504	96.200908	0.000618	6.180524	2.094018	-0.000248
 678	6.7362e+01	13.0216	96.035385	0.000415	4.154123	1.407455	-0.000166
 679	6.7461e+01	12.9831	95.813342	0.000557	5.572604	1.888049	-0.000223
 680	6.7561e+01	12.9397	95.659931	0.000385	3.850163	1.304470	-0.000154
 681	6.7660e+01	12.8980	95.478260	0.000456	4.559403	1.544768	-0.000183
 682	6.7760e+01	12.8515	95.260255	0.000547	5.471284	1.853721	-0.000219
 683	6.7859e+01	12.8274	95.066472	0.000486	4.863363	1.647752	-0.000195
 684	6.7959e+01	12.7857	94.864616	0.000507	5.066003	1.716408	-0.000203
 685	6.8058e+01	12.7392	94.695056	0.000426	4.255443	1.441783	-0.000170
 686	6.8157e+01	12.7055	94.460902	0.000588	5.876564	1.991034	-0.000235
 687	6.8257e+01	12.6574	94.263082	0.000496	4.964683	1.682080	-0.000199
 688	6.8356e+01	12.6285	94.053151	0.000527	5.268644	1.785065	-0.000211
 689	6.8456e+01	12.5900	93.871480	0.000456	4.559403	1.544768	-0.000183
 690	6.8555e+01	12.5467	93.714032	0.000395	3.951483	1.338799	-0.000158
 691	6.8655e+01	12.5018	93.500064	0.000537	5.369964	1.819393	-0.000215
 692	6.8754e+01	12.4537	93.302244	0.000496	4.964683	1.682080	-0.000199
 693	6.8854e+01	12.4312	93.076164	0.000567	5.673924	1.922377	-0.000227
 694	6.8954e+01	12.3879	92.886419	0.000476	4.762043	1.613424	-0.000191
 695	6.9053e+01	12.3398	92.660339	0.000567	5.673924	1.922377	-0.000227
 696	6.9153e+01	12.3029	92.494817	0.000415	4.154123	1.407455	-0.000166
 697	6.9252e+01	12.2579	92.301034	0.000486	4.863363	1.647752	-0.000195
 698	6.9352e+01	12.2291	92.103215	0.000496	4.964683	1.682080	-0.000199
 699	6.9451e+01	12.1825	91.901358	0.000507	5.066003	1.716408	-0.000203
 700	6.9550e+01	12.1456	91.691427	0.000527	5.268644	1.785065	-0.000211
 701	6.9650e+01	12.0975	91.501682	0.000476	4.762043	1.613424	-0.000191
 702	6.9749e+01	12.0590	91.295788	0.000517	5.167323	1.750737	-0.000207
 703	6.9849e+01	12.0285	91.106042	0.000476	4.762043	1.613424	-0.000191
 704	6.9948e+01	11.9836	90.851703	0.000638	6.383164	2.162675	-0.000256
 705	7.0048e+01	11.9403	90.674069	0.000446	4.458083	1.510439	-0.000179
 706	7.0147e+01	11.9066	90.484323	0.000476	4.762043	1.613424	-0.000191
 707	7.0247e+01	11.8681	90.262281	0.000557	5.572604	1.888049	-0.000223
 708	7.0347e+01	11.8184	90.068498	0.000486	4.863363	1.647752	-0.000195
 709	7.0446e+01	11.7815	89.874716	0.000486	4.863363	1.647752	-0.000195
 710	7.0546e+01	11.7382	89.672859	0.000507	5.066003	1.716408	-0.000203
 711	7.0645e+01	11.7061	89.462928	0.000527	5.268644	1.785065	-0.000211
 712	7.0745e+01	11.6708	89.252997	0.000527	5.268644	1.785065	-0.000211
 713	7.0844e+01	11.6275	89.051140	0.000507	5.066003	1.716408	-0.000203
 714	7.0944e+01	11.5842	88.821023	0.000578	5.775244	1.956706	-0.000231
 715	7.1043e+01	11.5441	88.643389	0.000446	4.458083	1.510439	-0.000179
 716	7.1142e+01	11.5088	88.433458	0.000527	5.268644	1.785065	-0.000211
 717	7.1242e+01	11.4655	88.247750	0.000466	4.660723	1.579096	-0.000187
 718	7.1341e+01	11.4270	88.045893	0.000507	5.066003	1.716408	-0.000203
 719	7.1441e+01	11.3852	87.799628	0.000618	6.180524	2.094018	-0.000248
 720	7.1540e+01	11.3435	87.621994	0.000446	4.458083	1.510439	-0.000179
 721	7.1640e+01	11.3130	87.399952	0.000557	5.572604	1.888049	-0.000223
 722	7.1740e+01	11.2713	87.157723	0.000608	6.079204	2.059690	-0.000243
 723	7.1839e+01	11.2264	86.996238	0.000405	4.052803	1.373127	-0.000162
 724	7.1939e+01	11.1911	86.782270	0.000537	5.369964	1.819393	-0.000215
 725	7.2038e+01	11.1510	86.544079	0.000598	5.977884	2.025362	-0.000239
 726	7.2138e+01	11.1093	86.382593	0.000405	4.052803	1.373127	-0.000162
 727	7.2237e+01	11.0612	86.196885	0.000466	4.660723	1.579096	-0.000187
 728	7.2337e+01	11.0259	85.934471	0.000659	6.585804	2.231331	-0.000264
 729	7.2436e+01	10.9842	85.752800	0.000456	4.559403	1.544768	-0.000183
 730	7.2535e+01	10.9505	85.522683	0.000578	5.775244	1.956706	-0.000231
 731	7.2635e+01	10.9040	85.304678	0.000547	5.471284	1.853721	-0.000219
 732	7.2734e+01	10.8623	85.127044	0.000446	4.458083	1.510439	-0.000179
 733	7.2834e+01	10.8302	84.917113	0.000527	5.268644	1.785065	-0.000211
 734	7.2933e+01	10.7917	84.719293	0.000496	4.964683	1.682080	-0.000199
 735	7.3033e+01	10.7468	84.468991	0.000628	6.281844	2.128346	-0.000252
 736	7.3132e+01	10.7131	84.255023	0.000537	5.369964	1.819393	-0.000215
 737	7.3232e+01	10.6649	84.024906	0.000578	5.775244	1.956706	-0.000231
 738	7.3332e+01	10.6232	83.843235	0.000456	4.559403	1.544768	-0.000183
 739	7.3431e+01	10.5895	83.625230	0.000547	5.471284	1.853721	-0.000219
 740	7.3531e+01	10.5462	83.419336	0.000517	5.167323	1.750737	-0.000207
 741	7.3630e+01	10.5125	83.221516	0.000496	4.964683	1.682080	-0.000199
 742	7.3730e+01	10.4788	83.019659	0.000507	5.066003	1.716408	-0.000203
 743	7.3829e+01	10.4307	82.797617	0.000557	5.572604	1.888049	-0.000223
 744	7.3928e+01	10.3890	82.591723	0.000517	5.167323	1.750737	-0.000207
 745	7.4028e+01	10.3553	82.385829	0.000517	5.167323	1.750737	-0.000207
 746	7.4127e+01	10.3056	82.147638	0.000598	5.977884	2.025362	-0.000239
 747	7.4227e+01	10.2623	81.978078	0.000426	4.255443	1.441783	-0.000170
 748	7.4326e+01	10.2286	81.747962	0.000578	5.775244	1.956706	-0.000231
 749	7.4426e+01	10.1901	81.533993	0.000537	5.369964	1.819393	-0.000215
 750	7.4525e+01	10.1580	81.307914	0.000567	5.673924	1.922377	-0.000227
 751	7.4625e+01	10.1131	81.118168	0.000476	4.762043	1.613424	-0.000191
 752	7.4725e+01	10.0634	80.843643	0.000689	6.889765	2.334315	-0.000276
 753	7.4824e+01	10.0281	80.653898	0.000476	4.762043	1.613424	-0.000191
 754	7.4924e+01	9.9912	80.468190	0.000466	4.660723	1.579096	-0.000187
 755	7.5023e+01	9.9527	80.246147	0.000557	5.572604	1.888049	-0.000223
 756	7.5123e+01	9.9126	80.011993	0.000588	5.876564	1.991034	-0.000235
 757	7.5222e+01	9.8676	79.793988	0.000547	5.471284	1.853721	-0.000219
 758	7.5322e+01	9.8307	79.584057	0.000527	5.268644	1.785065	-0.000211
 759	7.5421e+01	9.7954	79.349903	0.000588	5.876564	1.991034	-0.000235
 760	7.5520e+01	9.7393	79.160158	0.000476	4.762043	1.613424	-0.000191
 761	7.5620e+01	9.7072	78.958301	0.000507	5.066003	1.716408	-0.000203
 762	7.5719e+01	9.6799	78.703961	0.000638	6.383164	2.162675	-0.000256
 763	7.5819e+01	9.6318	78.498067	0.000517	5.167323	1.750737	-0.000207
 764	7.5918e+01	9.5965	78.267951	0.000578	5.775244	1.956706	-0.000231
 765	7.6018e+01	9.5516	78.037834	0.000578	5.775244	1.956706	-0.000231
 766	7.6118e+01	9.5147	77.835977	0.000507	5.066003	1.716408	-0.000203
 767	7.6217e+01	9.4714	77.569526	0.000669	6.687124	2.265659	-0.000268
 768	7.6317e+01	9.4409	77.387855	0.000456	4.559403	1.544768	-0.000183
 769	7.6416e+01	9.3896	77.161775	0.000567	5.673924	1.922377	-0.000227
 770	7.6516e+01	9.3527	76.935696	0.000567	5.673924	1.922377	-0.000227
 771	7.6615e+01	9.3078	76.709616	0.000567	5.673924	1.922377	-0.000227
 772	7.6715e+01	9.2741	76.471425	0.000598	5.977884	2.025362	-0.000239
 773	7.6814e+01	9.2275	76.265531	0.000517	5.167323	1.750737	-0.000207
 774	7.6913e+01	9.1906	76.059637	0.000517	5.167323	1.750737	-0.000207
 775	7.7013e+01	9.1521	75.857781	0.000507	5.066003	1.716408	-0.000203
 776	7.7112e+01	9.1233	75.623627	0.000588	5.876564	1.991034	-0.000235
 777	7.7212e+01	9.0784	75.393510	0.000578	5.775244	1.956706	-0.000231
 778	7.7311e+01	9.0350	75.159356	0.000588	5.876564	1.991034	-0.000235
 779	7.7411e+01	8.9965	74.929239	0.000578	5.775244	1.956706	-0.000231
 780	7.7510e+01	8.9548	74.691048	0.000598	5.977884	2.025362	-0.000239
 781	7.7610e+01	8.9195	74.469006	0.000557	5.572604	1.888049	-0.000223
 782	7.7710e+01	8.8762	74.251000	0.000547	5.471284	1.853721	-0.000219
 783	7.7809e+01	8.8377	74.008772	0.000608	6.079204	2.059690	-0.000243
 784	7.7909e+01	8.7912	73.802878	0.000517	5.167323	1.750737	-0.000207
 785	7.8008e+01	8.7575	73.605059	0.000496	4.964683	1.682080	-0.000199
 786	7.8108e+01	8.7222	73.330534	0.000689	6.889765	2.334315	-0.000276
 787	7.8207e+01	8.6773	73.152900	0.000446	4.458083	1.510439	-0.000179
 788	7.8306e+01	8.6436	72.930857	0.000557	5.572604	1.888049	-0.000223
 789	7.8406e+01	8.6083	72.692666	0.000598	5.977884	2.025362	-0.000239
 790	7.8505e+01	8.5634	72.494846	0.000496	4.964683	1.682080	-0.000199
 791	7.8605e+01	8.5265	72.216284	0.000699	6.991085	2.368644	-0.000280
 792	7.8704e+01	8.4720	71.974056	0.000608	6.079204	2.059690	-0.000243
 793	7.8804e+01	8.4415	71.764125	0.000527	5.268644	1.785065	-0.000211
 794	7.8903e+01	8.3966	71.481525	0.000709	7.092405	2.402972	-0.000284
 795	7.9003e+01	8.3597	71.291780	0.000476	4.762043	1.613424	-0.000191
 796	7.9103e+01	8.3196	71.053589	0.000598	5.977884	2.025362	-0.000239
 797	7.9202e+01	8.2794	70.795212	0.000648	6.484484	2.197003	-0.000260
 798	7.9302e+01	8.2442	70.609504	0.000466	4.660723	1.579096	-0.000187
 799	7.9401e+01	8.2024	70.383424	0.000567	5.673924	1.922377	-0.000227
 800	7.9501e+01	8.1543	70.149271	0.000588	5.876564	1.991034	-0.000235
 801	7.9600e+01	8.1190	69.890894	0.000648	6.484484	2.197003	-0.000260
 802	7.9700e+01	8.0853	69.656740	0.000588	5.876564	1.991034	-0.000235
 803	7.9799e+01	8.0324	69.446809	0.000527	5.268644	1.785065	-0.000211
 804	7.9898e+01	8.0019	69.220729	0.000567	5.673924	1.922377	-0.000227
 805	7.9998e+01	7.9554	69.002724	0.000547	5.471284	1.853721	-0.000219
 806	8.0097e+01	7.9137	68.724162	0.000699	6.991085	2.368644	-0.000280
 807	8.0197e+01	7.8800	68.554602	0.000426	4.255443	1.441783	-0.000170
 808	8.0296e+01	7.8367	68.292188	0.000659	6.585804	2.231331	-0.000264
 809	8.0396e+01	7.7950	68.041886	0.000628	6.281844	2.128346	-0.000252
 810	8.0496e+01	7.7613	67.803695	0.000598	5.977884	2.025362	-0.000239
 811	8.0595e+01	7.7148	67.581652	0.000557	5.572604	1.888049	-0.000223
 812	8.0695e+01	7.6859	67.347498	0.000588	5.876564	1.991034	-0.000235
 813	8.0794e+01	7.6394	67.133530	0.000537	5.369964	1.819393	-0.000215
 814	8.0894e+01	7.6041	66.863042	0.000679	6.788445	2.299987	-0.000272
 815	8.0993e+01	7.5575	66.608703	0.000638	6.383164	2.162675	-0.000256
 816	8.1093e+01	7.5142	66.394734	0.000537	5.369964	1.819393	-0.000215
 817	8.1192e+01	7.4757	66.136358	0.000648	6.484484	2.197003	-0.000260
 818	8.1291e+01	7.4372	65.886055	0.000628	6.281844	2.128346	-0.000252
 819	8.1391e+01	7.3955	65.668050	0.000547	5.471284	1.853721	-0.000219
 820	8.1490e+01	7.3554	65.417747	0.000628	6.281844	2.128346	-0.000252
 821	8.1590e+01	7.3265	65.187631	0.000578	5.775244	1.956706	-0.000231
 822	8.1689e+01	7.2800	64.957514	0.000578	5.775244	1.956706	-0.000231
 823	8.1789e+01	7.2367	64.707212	0.000628	6.281844	2.128346	-0.000252
 824	8.1888e+01	7.2078	64.464983	0.000608	6.079204	2.059690	-0.000243
 825	8.1988e+01	7.1661	64.202570	0.000659	6.585804	2.231331	-0.000264
 826	8.2088e+01	7.1196	63.996676	0.000517	5.167323	1.750737	-0.000207
 827	8.2187e+01	7.0795	63.722150	0.000689	6.889765	2.334315	-0.000276
 828	8.2287e+01	7.0394	63.504145	0.000547	5.471284	1.853721	-0.000219
 829	8.2386e+01	6.9993	63.233657	0.000679	6.788445	2.299987	-0.000272
 830	8.2486e+01	6.9688	63.003540	0.000578	5.775244	1.956706	-0.000231
 831	8.2585e+01	6.9255	62.753238	0.000628	6.281844	2.128346	-0.000252
 832	8.2684e+01	6.8806	62.482750	0.000679	6.788445	2.299987	-0.000272
 833	8.2784e+01	6.8501	62.288967	0.000486	4.863363	1.647752	-0.000195
 834	8.2883e+01	6.8116	62.022516	0.000669	6.687124	2.265659	-0.000268
 835	8.2983e+01	6.7618	61.760103	0.000659	6.585804	2.231331	-0.000264
 836	8.3082e+01	6.7298	61.529986	0.000578	5.775244	1.956706	-0.000231
 837	8.3182e+01	6.6784	61.307943	0.000557	5.572604	1.888049	-0.000223
 838	8.3281e+01	6.6447	61.081864	0.000567	5.673924	1.922377	-0.000227
 839	8.3381e+01	6.6062	60.795227	0.000719	7.193725	2.437300	-0.000288
 840	8.3481e+01	6.5661	60.565110	0.000578	5.775244	1.956706	-0.000231
 841	8.3580e+01	6.5196	60.282511	0.000709	7.092405	2.402972	-0.000284
 842	8.3680e+01	6.4699	60.052394	0.000578	5.775244	1.956706	-0.000231
 843	8.3779e+01	6.4458	59.810166	0.000608	6.079204	2.059690	-0.000243
 844	8.3879e+01	6.4121	59.543715	0.000669	6.687124	2.265659	-0.000268
 845	8.3978e+01	6.3576	59.309561	0.000588	5.876564	1.991034	-0.000235
 846	8.4078e+01	6.3271	59.075407	0.000588	5.876564	1.991034	-0.000235
 847	8.4177e+01	6.2870	58.825105	0.000628	6.281844	2.128346	-0.000252
 848	8.4276e+01	6.2501	58.590951	0.000588	5.876564	1.991034	-0.000235
 849	8.4376e+01	6.2100	58.352760	0.000598	5.977884	2.025362	-0.000239
 850	8.4475e+01	6.1699	58.094383	0.000648	6.484484	2.197003	-0.000260
 851	8.4575e+01	6.1330	57.831969	0.000659	6.585804	2.231331	-0.000264
 852	8.4674e+01	6.0833	57.585704	0.000618	6.180524	2.094018	-0.000248
 853	8.4774e+01	6.0464	57.295030	0.000730	7.295045	2.471628	-0.000292
 854	8.4874e+01	6.0095	57.068951	0.000567	5.673924	1.922377	-0.000227
 855	8.4973e+01	5.9581	56.790388	0.000699	6.991085	2.368644	-0.000280
 856	8.5073e+01	5.9292	56.564309	0.000567	5.673924	1.922377	-0.000227
 857	8.5172e+01	5.8827	56.289784	0.000689	6.889765	2.334315	-0.000276
 858	8.5272e+01	5.8426	56.043518	0.000618	6.180524	2.094018	-0.000248
 859	8.5371e+01	5.8089	55.801290	0.000608	6.079204	2.059690	-0.000243
 860	8.5471e+01	5.7801	55.534839	0.000669	6.687124	2.265659	-0.000268
 861	8.5570e+01	5.7223	55.296648	0.000598	5.977884	2.025362	-0.000239
 862	8.5669e+01	5.6934	55.005974	0.000730	7.295045	2.471628	-0.000292
 863	8.5769e+01	5.6565	54.787969	0.000547	5.471284	1.853721	-0.000219
 864	8.5868e+01	5.6084	54.529592	0.000648	6.484484	2.197003	-0.000260
 865	8.5968e+01	5.5747	54.263141	0.000669	6.687124	2.265659	-0.000268
 866	8.6067e+01	5.5394	53.976505	0.000719	7.193725	2.437300	-0.000288
 867	8.6167e+01	5.4865	53.774648	0.000507	5.066003	1.716408	-0.000203
 868	8.6266e+01	5.4448	53.496086	0.000699	6.991085	2.368644	-0.000280
 869	8.6366e+01	5.4111	53.241746	0.000638	6.383164	2.162675	-0.000256
 870	8.6466e+01	5.3774	52.995481	0.000618	6.180524	2.094018	-0.000248
 871	8.6565e+01	5.3389	52.749216	0.000618	6.180524	2.094018	-0.000248
 872	8.6665e+01	5.2908	52.458542	0.000730	7.295045	2.471628	-0.000292
 873	8.6764e+01	5.2523	52.188054	0.000679	6.788445	2.299987	-0.000272
 874	8.6864e+01	5.2041	51.961974	0.000567	5.673924	1.922377	-0.000227
 875	8.6963e+01	5.1817	51.679375	0.000709	7.092405	2.402972	-0.000284
 876	8.7063e+01	5.1335	51.412924	0.000669	6.687124	2.265659	-0.000268
 877	8.7162e+01	5.0918	51.146473	0.000669	6.687124	2.265659	-0.000268
 878	8.7261e+01	5.0533	50.884059	0.000659	6.585804	2.231331	-0.000264
 879	8.7361e+01	5.0116	50.674128	0.000527	5.268644	1.785065	-0.000211
 880	8.7460e+01	4.9651	50.399603	0.000689	6.889765	2.334315	-0.000276
 881	8.7560e+01	4.9298	50.096817	0.000760	7.599005	2.574613	-0.000304
 882	8.7659e+01	4.8929	49.886886	0.000527	5.268644	1.785065	-0.000211
 883	8.7759e+01	4.8528	49.592175	0.000740	7.396365	2.505956	-0.000296
 884	8.7859e+01	4.8111	49.333799	0.000648	6.484484	2.197003	-0.000260
 885	8.7958e+01	4.7758	49.063311	0.000679	6.788445	2.299987	-0.000272
 886	8.8058e+01	4.7261	48.780711	0.000709	7.092405	2.402972	-0.000284
 887	8.8157e+01	4.6892	48.526372	0.000638	6.383164	2.162675	-0.000256
 888	8.8257e+01	4.6555	48.284143	0.000608	6.079204	2.059690	-0.000243
 889	8.8356e+01	4.6122	48.017692	0.000669	6.687124	2.265659	-0.000268
 890	8.8456e+01	4.5769	47.722982	0.000740	7.396365	2.505956	-0.000296
 891	8.8555e+01	4.5320	47.428271	0.000740	7.396365	2.505956	-0.000296
 892	8.8654e+01	4.4951	47.186043	0.000608	6.079204	2.059690	-0.000243
 893	8.8754e+01	4.4501	46.947851	0.000598	5.977884	2.025362	-0.000239
 894	8.8853e+01	4.4181	46.685438	0.000659	6.585804	2.231331	-0.000264
 895	8.8953e+01	4.3747	46.394764	0.000730	7.295045	2.471628	-0.000292
 896	8.9052e+01	4.3411	46.128313	0.000669	6.687124	2.265659	-0.000268
 897	8.9152e+01	4.2913	45.914345	0.000537	5.369964	1.819393	-0.000215
 898	8.9251e+01	4.2576	45.643857	0.000679	6.788445	2.299987	-0.000272
 899	8.9351e+01	4.2127	45.324923	0.000800	8.004285	2.711925	-0.000321
 900	8.9451e+01	4.1774	45.062509	0.000659	6.585804	2.231331	-0.000264
 901	8.9550e+01	4.1325	44.771835	0.000730	7.295045	2.471628	-0.000292
 902	8.9650e+01	4.0876	44.493273	0.000699	6.991085	2.368644	-0.000280
 903	8.9749e+01	4.0587	44.238933	0.000638	6.383164	2.162675	-0.000256
 904	8.9849e+01	4.0090	43.980557	0.000648	6.484484	2.197003	-0.000260
 905	8.9948e+01	3.9673	43.714106	0.000669	6.687124	2.265659	-0.000268
 906	9.0047e+01	3.9400	43.423432	0.000730	7.295045	2.471628	-0.000292
 907	9.0147e+01	3.8919	43.197352	0.000567	5.673924	1.922377	-0.000227
 908	9.0246e+01	3.8550	42.882456	0.000790	7.902965	2.677597	-0.000316
 909	9.0346e+01	3.8181	42.636191	0.000618	6.180524	2.094018	-0.000248
 910	9.0445e+01	3.7732	42.357628	0.000699	6.991085	2.368644	-0.000280
 911	9.0545e+01	3.7330	42.103289	0.000638	6.383164	2.162675	-0.000256
 912	9.0644e+01	3.7010	41.816652	0.000719	7.193725	2.437300	-0.000288
 913	9.0744e+01	3.6625	41.558275	0.000648	6.484484	2.197003	-0.000260
 914	9.0844e+01	3.6175	41.259527	0.000750	7.497685	2.540284	-0.000300
 915	9.0943e+01	3.5758	40.989039	0.000679	6.788445	2.299987	-0.000272
 916	9.1043e+01	3.5309	40.706440	0.000709	7.092405	2.402972	-0.000284
 917	9.1142e+01	3.4988	40.448063	0.000648	6.484484	2.197003	-0.000260
 918	9.1242e+01	3.4587	40.173538	0.000689	6.889765	2.334315	-0.000276
 919	9.1341e+01	3.4058	39.894975	0.000699	6.991085	2.368644	-0.000280
 920	9.1441e+01	3.3769	39.620450	0.000689	6.889765	2.334315	-0.000276
 921	9.1540e+01	3.3368	39.333813	0.000719	7.193725	2.437300	-0.000288
 922	9.1639e+01	3.2983	39.091585	0.000608	6.079204	2.059690	-0.000243
 923	9.1739e+01	3.2614	38.780726	0.000780	7.801645	2.643269	-0.000312
 924	9.1838e+01	3.2229	38.498126	0.000709	7.092405	2.402972	-0.000284
 925	9.1938e+01	3.1796	38.219564	0.000699	6.991085	2.368644	-0.000280
 926	9.2037e+01	3.1379	37.953113	0.000669	6.687124	2.265659	-0.000268
 927	9.2137e+01	3.0994	37.658402	0.000740	7.396365	2.505956	-0.000296
 928	9.2237e+01	3.0657	37.416174	0.000608	6.079204	2.059690	-0.000243
 929	9.2336e+01	3.0144	37.089166	0.000821	8.206925	2.780582	-0.000329
 930	9.2436e+01	2.9791	36.838864	0.000628	6.281844	2.128346	-0.000252
 931	9.2535e+01	2.9390	36.596635	0.000608	6.079204	2.059690	-0.000243
 932	9.2635e+01	2.9005	36.249442	0.000871	8.713526	2.952222	-0.000349
 933	9.2734e+01	2.8571	36.007214	0.000608	6.079204	2.059690	-0.000243
 934	9.2834e+01	2.8202	35.704428	0.000760	7.599005	2.574613	-0.000304
 935	9.2933e+01	2.7817	35.437978	0.000669	6.687124	2.265659	-0.000268
 936	9.3032e+01	2.7481	35.139229	0.000750	7.497685	2.540284	-0.000300
 937	9.3132e+01	2.6951	34.860667	0.000699	6.991085	2.368644	-0.000280
 938	9.3231e+01	2.6694	34.565956	0.000740	7.396365	2.505956	-0.000296
 939	9.3331e+01	2.6197	34.315654	0.000628	6.281844	2.128346	-0.000252
 940	9.3430e+01	2.5812	34.004794	0.000780	7.801645	2.643269	-0.000312
 941	9.3530e+01	2.5411	33.762566	0.000608	6.079204	2.059690	-0.000243
 942	9.3629e+01	2.5026	33.439595	0.000811	8.105605	2.746253	-0.000325
 943	9.3729e+01	2.4593	33.132773	0.000770	7.700325	2.608941	-0.000308
 944	9.3829e+01	2.4224	32.838062	0.000740	7.396365	2.505956	-0.000296
 945	9.3928e+01	2.3759	32.587760	0.000628	6.281844	2.128346	-0.000252
 946	9.4028e+01	2.3422	32.297086	0.000730	7.295045	2.471628	-0.000292
 947	9.4127e+01	2.2989	31.998338	0.000750	7.497685	2.540284	-0.000300
 948	9.4227e+01	2.2652	31.683441	0.000790	7.902965	2.677597	-0.000316
 949	9.4326e+01	2.2267	31.449287	0.000588	5.876564	1.991034	-0.000235
 950	9.4425e+01	2.1834	31.138428	0.000780	7.801645	2.643269	-0.000312
 951	9.4525e+01	2.1449	30.863903	0.000689	6.889765	2.334315	-0.000276
 952	9.4624e+01	2.0951	30.581303	0.000709	7.092405	2.402972	-0.000284
 953	9.4724e+01	2.0614	30.270444	0.000780	7.801645	2.643269	-0.000312
 954	9.4823e+01	2.0149	30.040327	0.000578	5.775244	1.956706	-0.000231
 955	9.4923e+01	1.9780	29.713319	0.000821	8.206925	2.780582	-0.000329
 956	9.5022e+01	1.9411	29.370162	0.000861	8.612206	2.917894	-0.000345
 957	9.5122e+01	1.9026	29.107749	0.000659	6.585804	2.231331	-0.000264
 958	9.5222e+01	1.8609	28.837261	0.000679	6.788445	2.299987	-0.000272
 959	9.5321e+01	1.8256	28.542550	0.000740	7.396365	2.505956	-0.000296
 960	9.5421e+01	1.7839	28.247839	0.000740	7.396365	2.505956	-0.000296
 961	9.5520e+01	1.7470	27.932942	0.000790	7.902965	2.677597	-0.000316
 962	9.5620e+01	1.7005	27.658417	0.000689	6.889765	2.334315	-0.000276
 963	9.5719e+01	1.6652	27.375817	0.000709	7.092405	2.402972	-0.000284
 964	9.5819e+01	1.6235	27.077069	0.000750	7.497685	2.540284	-0.000300
 965	9.5918e+01	1.5946	26.786396	0.000730	7.295045	2.471628	-0.000292
 966	9.6017e+01	1.5481	26.503796	0.000709	7.092405	2.402972	-0.000284
 967	9.6117e+01	1.5000	26.192937	0.000780	7.801645	2.643269	-0.000312
 968	9.6216e+01	1.4566	25.894189	0.000750	7.497685	2.540284	-0.000300
 969	9.6316e+01	1.4262	25.599478	0.000740	7.396365	2.505956	-0.000296
 970	9.6415e+01	1.3877	25.288618	0.000780	7.801645	2.643269	-0.000312
 971	9.6515e+01	1.3395	24.997944	0.000730	7.295045	2.471628	-0.000292
 972	9.6615e+01	1.3026	24.763791	0.000588	5.876564	1.991034	-0.000235
 973	9.6714e+01	1.2657	24.452931	0.000780	7.801645	2.643269	-0.000312
 974	9.6814e+01	1.2256	24.146109	0.000770	7.700325	2.608941	-0.000308
 975	9.6913e+01	1.1759	23.835249	0.000780	7.801645	2.643269	-0.000312
 976	9.7013e+01	1.1374	23.544576	0.000730	7.295045	2.471628	-0.000292
 977	9.7112e+01	1.1037	23.229679	0.000790	7.902965	2.677597	-0.000316
 978	9.7212e+01	1.0588	22.943042	0.000719	7.193725	2.437300	-0.000288
 979	9.7311e+01	1.0171	22.624109	0.000800	8.004285	2.711925	-0.000321
 980	9.7410e+01	0.9914	22.381881	0.000608	6.079204	2.059690	-0.000243
 981	9.7510e+01	0.9481	22.054873	0.000821	8.206925	2.780582	-0.000329
 982	9.7609e+01	0.9048	21.735939	0.000800	8.004285	2.711925	-0.000321
 983	9.7709e+01	0.8615	21.453339	0.000709	7.092405	2.402972	-0.000284
 984	9.7808e+01	0.8294	21.142480	0.000780	7.801645	2.643269	-0.000312
 985	9.7908e+01	0.7845	20.835658	0.000770	7.700325	2.608941	-0.000308
 986	9.8007e+01	0.7428	20.524798	0.000780	7.801645	2.643269	-0.000312
 987	9.8107e+01	0.6994	20.238161	0.000719	7.193725	2.437300	-0.000288
 988	9.8207e+01	0.6690	19.947488	0.000730	7.295045	2.471628	-0.000292
 989	9.8306e+01	0.6289	19.612405	0.000841	8.409566	2.849238	-0.000337
 990	9.8406e+01	0.5791	19.337880	0.000689	6.889765	2.334315	-0.000276
 991	9.8505e+01	0.5454	19.010872	0.000821	8.206925	2.780582	-0.000329
 992	9.8605e+01	0.5021	18.704050	0.000770	7.700325	2.608941	-0.000308
 993	9.8704e+01	0.4620	18.421450	0.000709	7.092405	2.402972	-0.000284
 994	9.8803e+01	0.4187	18.078294	0.000861	8.612206	2.917894	-0.000345
 995	9.8903e+01	0.3802	17.767434	0.000780	7.801645	2.643269	-0.000312
 996	9.9002e+01	0.3449	17.468686	0.000750	7.497685	2.540284	-0.000300
 997	9.9102e+01	0.3144	17.149753	0.000800	8.004285	2.711925	-0.000321
 998	9.9201e+01	0.2759	16.891376	0.000648	6.484484	2.197003	-0.000260
 999	9.9301e+01	0.2230	16.556294	0.000841	8.409566	2.849238	-0.000337
1000	9.9400e+01	0.1845	16.261583	0.000740	7.396365	2.505956	-0.000296
1001	9.9500e+01	0.1460	15.958798	0.000760	7.599005	2.574613	-0.000304
1002	9.9600e+01	0.1091	15.647938	0.000780	7.801645	2.643269	-0.000312
1003	9.9699e+01	0.0626	15.353227	0.000740	7.396365	2.505956	-0.000296
1004	9.9799e+01	0.0289	15.050442	0.000760	7.599005	2.574613	-0.000304
1005	9.9898e+01	-0.0032	14.747657	0.000760	7.599005	2.574613	-0.000304
1006	9.9998e+01	-0.0417	14.440835	0.000770	7.700325	2.608941	-0.000308
1007	1.0010e+02	-0.0866	14.186495	0.000638	6.383164	2.162675	-0.000256
1008	1.0020e+02	-0.1267	13.883710	0.000760	7.599005	2.574613	-0.000304
1009	1.0030e+02	-0.1668	13.524405	0.000902	9.017486	3.055207	-0.000361
1010	1.0040e+02	-0.2053	13.209508	0.000790	7.902965	2.677597	-0.000316
1011	1.0050e+02	-0.2422	12.926909	0.000709	7.092405	2.402972	-0.000284
1012	1.0059e+02	-0.2775	12.607975	0.000800	8.004285	2.711925	-0.000321
1013	1.0069e+02	-0.3176	12.345561	0.000659	6.585804	2.231331	-0.000264
1014	1.0079e+02	-0.3593	11.990293	0.000892	8.916166	3.020879	-0.000357
1015	1.0089e+02	-0.3978	11.671359	0.000800	8.004285	2.711925	-0.000321
1016	1.0099e+02	-0.4476	11.352426	0.000800	8.004285	2.711925	-0.000321
1017	1.0109e+02	-0.4893	11.077900	0.000689	6.889765	2.334315	-0.000276
1018	1.0119e+02	-0.5166	10.734744	0.000861	8.612206	2.917894	-0.000345
1019	1.0129e+02	-0.5583	10.427922	0.000770	7.700325	2.608941	-0.000308
1020	1.0139e+02	-0.5920	10.117062	0.000780	7.801645	2.643269	-0.000312
1021	1.0149e+02	-0.6465	9.842537	0.000689	6.889765	2.334315	-0.000276
1022	1.0159e+02	-0.6898	9.499380	0.000861	8.612206	2.917894	-0.000345
1023	1.0169e+02	-0.7043	9.160261	0.000851	8.510886	2.883566	-0.000341
1024	1.0179e+02	-0.7636	8.889773	0.000679	6.788445	2.299987	-0.000272
1025	1.0189e+02	-0.8085	8.546616	0.000861	8.612206	2.917894	-0.000345
1026	1.0199e+02	-0.8342	8.235757	0.000780	7.801645	2.643269	-0.000312
1027	1.0209e+02	-0.8775	7.932972	0.000760	7.599005	2.574613	-0.000304
1028	1.0219e+02	-0.9224	7.601927	0.000831	8.308246	2.814910	-0.000333
1029	1.0229e+02	-0.9625	7.287030	0.000790	7.902965	2.677597	-0.000316
1030	1.0239e+02	-1.0059	6.955985	0.000831	8.308246	2.814910	-0.000333
1031	1.0248e+02	-1.0315	6.657237	0.000750	7.497685	2.540284	-0.000300
1032	1.0258e+02	-1.0829	6.346377	0.000780	7.801645	2.643269	-0.000312
1033	1.0268e+02	-1.1246	6.003221	0.000861	8.612206	2.917894	-0.000345
1034	1.0278e+02	-1.1583	5.708510	0.000740	7.396365	2.505956	-0.000296
1035	1.0288e+02	-1.2016	5.389576	0.000800	8.004285	2.711925	-0.000321
1036	1.0298e+02	-1.2385	5.078717	0.000780	7.801645	2.643269	-0.000312
1037	1.0308e+02	-1.2802	4.771894	0.000770	7.700325	2.608941	-0.000308
1038	1.0318e+02	-1.3235	4.424701	0.000871	8.713526	2.952222	-0.000349
1039	1.0328e+02	-1.3604	4.081544	0.000861	8.612206	2.917894	-0.000345
1040	1.0338e+02	-1.4069	3.770685	0.000780	7.801645	2.643269	-0.000312
1041	1.0348e+02	-1.4422	3.480011	0.000730	7.295045	2.471628	-0.000292
1042	1.0358e+02	-1.4743	3.189337	0.000730	7.295045	2.471628	-0.000292
1043	1.0368e+02	-1.5160	2.834069	0.000892	8.916166	3.020879	-0.000357
1044	1.0378e+02	-1.5577	2.523210	0.000780	7.801645	2.643269	-0.000312
1045	1.0388e+02	-1.6010	2.216388	0.000770	7.700325	2.608941	-0.000308
1046	1.0398e+02	-1.6427	1.921677	0.000740	7.396365	2.505956	-0.000296
1047	1.0408e+02	-1.6844	1.610817	0.000780	7.801645	2.643269	-0.000312
1048	1.0418e+02	-1.7181	1.243438	0.000922	9.220126	3.123863	-0.000369
1049	1.0428e+02	-1.7582	0.993135	0.000628	6.281844	2.128346	-0.000252
1050	1.0438e+02	-1.7871	0.670165	0.000811	8.105605	2.746253	-0.000325
1051	1.0447e+02	-1.8336	0.318934	0.000881	8.814846	2.986551	-0.000353
1052	1.0457e+02	-1.8721	-0.016149	0.000841	8.409566	2.849238	-0.000337
1053	1.0467e+02	-1.9106	-0.306822	0.000730	7.295045	2.471628	-0.000292
1054	1.0477e+02	-1.9652	-0.613645	0.000770	7.700325	2.608941	-0.000308
1055	1.0487e+02	-1.9941	-0.952764	0.000851	8.510886	2.883566	-0.000341
1056	1.0497e+02	-2.0406	-1.235364	0.000709	7.092405	2.402972	-0.000284
1057	1.0507e+02	-2.0791	-1.594669	0.000902	9.017486	3.055207	-0.000361
1058	1.0517e+02	-2.1160	-1.921677	0.000821	8.206925	2.780582	-0.000329
1059	1.0527e+02	-2.1529	-2.176016	0.000638	6.383164	2.162675	-0.000256
1060	1.0537e+02	-2.1914	-2.511098	0.000841	8.409566	2.849238	-0.000337
1061	1.0547e+02	-2.2379	-2.838106	0.000821	8.206925	2.780582	-0.000329
1062	1.0557e+02	-2.2796	-3.181263	0.000861	8.612206	2.917894	-0.000345
1063	1.0567e+02	-2.3069	-3.467900	0.000719	7.193725	2.437300	-0.000288
1064	1.0577e+02	-2.3646	-3.774722	0.000770	7.700325	2.608941	-0.000308
1065	1.0587e+02	-2.3903	-4.097693	0.000811	8.105605	2.746253	-0.000325
1066	1.0597e+02	-2.4368	-4.380292	0.000709	7.092405	2.402972	-0.000284
1067	1.0607e+02	-2.4769	-4.703263	0.000811	8.105605	2.746253	-0.000325
1068	1.0617e+02	-2.5154	-5.034308	0.000831	8.308246	2.814910	-0.000333
1069	1.0627e+02	-2.5523	-5.324982	0.000730	7.295045	2.471628	-0.000292
1070	1.0637e+02	-2.6005	-5.643916	0.000800	8.004285	2.711925	-0.000321
1071	1.0647e+02	-2.6261	-5.914404	0.000679	6.788445	2.299987	-0.000272
1072	1.0656e+02	-2.6807	-6.245449	0.000831	8.308246	2.814910	-0.000333
1073	1.0666e+02	-2.7176	-6.580531	0.000841	8.409566	2.849238	-0.000337
1074	1.0676e+02	-2.7609	-6.887354	0.000770	7.700325	2.608941	-0.000308
1075	1.0686e+02	-2.7914	-7.210324	0.000811	8.105605	2.746253	-0.000325
1076	1.0696e+02	-2.8315	-7.484850	0.000689	6.889765	2.334315	-0.000276
1077	1.0706e+02	-2.8684	-7.815895	0.000831	8.308246	2.814910	-0.000333
1078	1.0716e+02	-2.9133	-8.086383	0.000679	6.788445	2.299987	-0.000272
1079	1.0726e+02	-2.9534	-8.441651	0.000892	8.916166	3.020879	-0.000357
1080	1.0736e+02	-2.9839	-8.716176	0.000689	6.889765	2.334315	-0.000276
1081	1.0746e+02	-3.0336	-9.047221	0.000831	8.308246	2.814910	-0.000333
1082	1.0756e+02	-3.0721	-9.337895	0.000730	7.295045	2.471628	-0.000292
1083	1.0766e+02	-3.1074	-9.660866	0.000811	8.105605	2.746253	-0.000325
1084	1.0776e+02	-3.1555	-9.975762	0.000790	7.902965	2.677597	-0.000316
1085	1.0786e+02	-3.2004	-10.266436	0.000730	7.295045	2.471628	-0.000292
1086	1.0796e+02	-3.2293	-10.520776	0.000638	6.383164	2.162675	-0.000256
1087	1.0806e+02	-3.2614	-10.888155	0.000922	9.220126	3.123863	-0.000369
1088	1.0816e+02	-3.3127	-11.178829	0.000730	7.295045	2.471628	-0.000292
1089	1.0826e+02	-3.3464	-11.433168	0.000638	6.383164	2.162675	-0.000256
1090	1.0836e+02	-3.3865	-11.784399	0.000881	8.814846	2.986551	-0.000353
1091	1.0845e+02	-3.4363	-12.066999	0.000709	7.092405	2.402972	-0.000284
1092	1.0855e+02	-3.4764	-12.361710	0.000740	7.396365	2.505956	-0.000296
1093	1.0865e+02	-3.5133	-12.688718	0.000821	8.206925	2.780582	-0.000329
1094	1.0875e+02	-3.5566	-12.951131	0.000659	6.585804	2.231331	-0.000264
1095	1.0885e+02	-3.5855	-13.302362	0.000881	8.814846	2.986551	-0.000353
1096	1.0895e+02	-3.6400	-13.588999	0.000719	7.193725	2.437300	-0.000288
1097	1.0905e+02	-3.6689	-13.879673	0.000730	7.295045	2.471628	-0.000292
1098	1.0915e+02	-3.7138	-14.170346	0.000730	7.295045	2.471628	-0.000292
1099	1.0925e+02	-3.7475	-14.452946	0.000709	7.092405	2.402972	-0.000284
1100	1.0935e+02	-3.7892	-14.707285	0.000638	6.383164	2.162675	-0.000256
1101	1.0945e+02	-3.8293	-15.050442	0.000861	8.612206	2.917894	-0.000345
1102	1.0955e+02	-3.8662	-15.345153	0.000740	7.396365	2.505956	-0.000296
1103	1.0965e+02	-3.9127	-15.619678	0.000689	6.889765	2.334315	-0.000276
1104	1.0975e+02	-3.9560	-15.938612	0.000800	8.004285	2.711925	-0.000321
1105	1.0985e+02	-3.9801	-16.245434	0.000770	7.700325	2.608941	-0.000308
1106	1.0995e+02	-4.0362	-16.560331	0.000790	7.902965	2.677597	-0.000316
1107	1.1005e+02	-4.0667	-16.798522	0.000598	5.977884	2.025362	-0.000239
1108	1.1015e+02	-4.1084	-17.125530	0.000821	8.206925	2.780582	-0.000329
1109	1.1025e+02	-4.1373	-17.428315	0.000760	7.599005	2.574613	-0.000304
1110	1.1035e+02	-4.1870	-17.702840	0.000689	6.889765	2.334315	-0.000276
1111	1.1044e+02	-4.2336	-18.033885	0.000831	8.308246	2.814910	-0.000333
1112	1.1054e+02	-4.2689	-18.320522	0.000719	7.193725	2.437300	-0.000288
1113	1.1064e+02	-4.3170	-18.574862	0.000638	6.383164	2.162675	-0.000256
1114	1.1074e+02	-4.3539	-18.930129	0.000892	8.916166	3.020879	-0.000357
1115	1.1084e+02	-4.3844	-19.172358	0.000608	6.079204	2.059690	-0.000243
1116	1.1094e+02	-4.4325	-19.438809	0.000669	6.687124	2.265659	-0.000268
1117	1.1104e+02	-4.4678	-19.753705	0.000790	7.902965	2.677597	-0.000316
1118	1.1114e+02	-4.4951	-20.020156	0.000669	6.687124	2.265659	-0.000268
1119	1.1124e+02	-4.5496	-20.351201	0.000831	8.308246	2.814910	-0.000333
1120	1.1134e+02	-4.5913	-20.605541	0.000638	6.383164	2.162675	-0.000256
1121	1.1144e+02	-4.6346	-20.888140	0.000709	7.092405	2.402972	-0.000284
1122	1.1154e+02	-4.6651	-21.174777	0.000719	7.193725	2.437300	-0.000288
1123	1.1164e+02	-4.6972	-21.461414	0.000719	7.193725	2.437300	-0.000288
1124	1.1174e+02	-4.7453	-21.727865	0.000669	6.687124	2.265659	-0.000268
1125	1.1184e+02	-4.7870	-21.998353	0.000679	6.788445	2.299987	-0.000272
1126	1.1194e+02	-4.8287	-22.313249	0.000790	7.902965	2.677597	-0.000316
1127	1.1204e+02	-4.8672	-22.591812	0.000699	6.991085	2.368644	-0.000280
1128	1.1214e+02	-4.9106	-22.882485	0.000730	7.295045	2.471628	-0.000292
1129	1.1224e+02	-4.9426	-23.124714	0.000608	6.079204	2.059690	-0.000243
1130	1.1234e+02	-4.9908	-23.423462	0.000750	7.497685	2.540284	-0.000300
1131	1.1244e+02	-5.0277	-23.750470	0.000821	8.206925	2.780582	-0.000329
1132	1.1253e+02	-5.0598	-24.037106	0.000719	7.193725	2.437300	-0.000288
1133	1.1263e+02	-5.1047	-24.267223	0.000578	5.775244	1.956706	-0.000231
1134	1.1273e+02	-5.1448	-24.565971	0.000750	7.497685	2.540284	-0.000300
1135	1.1283e+02	-5.1929	-24.864719	0.000750	7.497685	2.540284	-0.000300
1136	1.1293e+02	-5.2186	-25.119059	0.000638	6.383164	2.162675	-0.000256
1137	1.1303e+02	-5.2651	-25.393584	0.000689	6.889765	2.334315	-0.000276
1138	1.1313e+02	-5.3052	-25.660035	0.000669	6.687124	2.265659	-0.000268
1139	1.1323e+02	-5.3389	-25.922449	0.000659	6.585804	2.231331	-0.000264
1140	1.1333e+02	-5.3854	-26.209085	0.000719	7.193725	2.437300	-0.000288
1141	1.1343e+02	-5.4351	-26.479573	0.000679	6.788445	2.299987	-0.000272
1142	1.1353e+02	-5.4656	-26.782358	0.000760	7.599005	2.574613	-0.000304
1143	1.1363e+02	-5.4977	-27.068995	0.000719	7.193725	2.437300	-0.000288
1144	1.1373e+02	-5.5458	-27.315260	0.000618	6.180524	2.094018	-0.000248
1145	1.1383e+02	-5.5859	-27.630157	0.000790	7.902965	2.677597	-0.000316
1146	1.1393e+02	-5.6212	-27.904682	0.000689	6.889765	2.334315	-0.000276
1147	1.1403e+02	-5.6613	-28.138836	0.000588	5.876564	1.991034	-0.000235
1148	1.1413e+02	-5.7063	-28.393176	0.000638	6.383164	2.162675	-0.000256
1149	1.1423e+02	-5.7383	-28.675775	0.000709	7.092405	2.402972	-0.000284
1150	1.1433e+02	-5.7784	-28.958375	0.000709	7.092405	2.402972	-0.000284
1151	1.1442e+02	-5.8250	-29.253086	0.000740	7.396365	2.505956	-0.000296
1152	1.1452e+02	-5.8587	-29.479165	0.000567	5.673924	1.922377	-0.000227
1153	1.1462e+02	-5.9084	-29.806173	0.000821	8.206925	2.780582	-0.000329
1154	1.1472e+02	-5.9469	-30.060513	0.000638	6.383164	2.162675	-0.000256
1155	1.1482e+02	-5.9918	-30.351186	0.000730	7.295045	2.471628	-0.000292
1156	1.1492e+02	-6.0239	-30.617637	0.000669	6.687124	2.265659	-0.000268
1157	1.1502e+02	-6.0656	-30.896200	0.000699	6.991085	2.368644	-0.000280
1158	1.1512e+02	-6.1041	-31.150539	0.000638	6.383164	2.162675	-0.000256
1159	1.1522e+02	-6.1362	-31.388730	0.000598	5.977884	2.025362	-0.000239
1160	1.1532e+02	-6.1859	-31.687478	0.000750	7.497685	2.540284	-0.000300
1161	1.1542e+02	-6.2212	-31.962004	0.000689	6.889765	2.334315	-0.000276
1162	1.1552e+02	-6.2693	-32.232492	0.000679	6.788445	2.299987	-0.000272
1163	1.1562e+02	-6.3046	-32.466646	0.000588	5.876564	1.991034	-0.000235
1164	1.1572e+02	-6.3479	-32.749245	0.000709	7.092405	2.402972	-0.000284
1165	1.1582e+02	-6.3816	-32.999548	0.000628	6.281844	2.128346	-0.000252
1166	1.1592e+02	-6.4233	-33.318481	0.000800	8.004285	2.711925	-0.000321
1167	1.1602e+02	-6.4602	-33.552635	0.000588	5.876564	1.991034	-0.000235
1168	1.1612e+02	-6.4907	-33.827160	0.000689	6.889765	2.334315	-0.000276
1169	1.1622e+02	-6.5372	-34.041129	0.000537	5.369964	1.819393	-0.000215
1170	1.1632e+02	-6.5677	-34.343914	0.000760	7.599005	2.574613	-0.000304
1171	1.1642e+02	-6.6223	-34.630550	0.000719	7.193725	2.437300	-0.000288
1172	1.1651e+02	-6.6560	-34.901038	0.000679	6.788445	2.299987	-0.000272
1173	1.1661e+02	-6.7009	-35.106932	0.000517	5.167323	1.750737	-0.000207
1174	1.1671e+02	-6.7394	-35.413755	0.000770	7.700325	2.608941	-0.000308
1175	1.1681e+02	-6.7763	-35.655983	0.000608	6.079204	2.059690	-0.000243
1176	1.1691e+02	-6.8148	-35.938582	0.000709	7.092405	2.402972	-0.000284
1177	1.1701e+02	-6.8549	-36.209070	0.000679	6.788445	2.299987	-0.000272
1178	1.1711e+02	-6.8950	-36.447261	0.000598	5.977884	2.025362	-0.000239
1179	1.1721e+02	-6.9319	-36.693527	0.000618	6.180524	2.094018	-0.000248
1180	1.1731e+02	-6.9736	-36.935755	0.000608	6.079204	2.059690	-0.000243
1181	1.1741e+02	-7.0201	-37.242577	0.000770	7.700325	2.608941	-0.000308
1182	1.1751e+02	-7.0538	-37.476731	0.000588	5.876564	1.991034	-0.000235
1183	1.1761e+02	-7.0939	-37.771442	0.000740	7.396365	2.505956	-0.000296
1184	1.1771e+02	-7.1324	-38.029819	0.000648	6.484484	2.197003	-0.000260
1185	1.1781e+02	-7.1773	-38.292232	0.000659	6.585804	2.231331	-0.000264
1186	1.1791e+02	-7.2062	-38.506201	0.000537	5.369964	1.819393	-0.000215
1187	1.1801e+02	-7.2431	-38.813023	0.000770	7.700325	2.608941	-0.000308
1188	1.1811e+02	-7.2912	-39.071400	0.000648	6.484484	2.197003	-0.000260
1189	1.1821e+02	-7.3426	-39.277294	0.000517	5.167323	1.750737	-0.000207
1190	1.1831e+02	-7.3634	-39.604302	0.000821	8.206925	2.780582	-0.000329
1191	1.1841e+02	-7.4148	-39.854604	0.000628	6.281844	2.128346	-0.000252
1192	1.1850e+02	-7.4581	-40.088758	0.000588	5.876564	1.991034	-0.000235
1193	1.1860e+02	-7.5014	-40.339060	0.000628	6.281844	2.128346	-0.000252
1194	1.1870e+02	-7.5319	-40.633771	0.000740	7.396365	2.505956	-0.000296
1195	1.1880e+02	-7.5704	-40.839665	0.000517	5.167323	1.750737	-0.000207
1196	1.1890e+02	-7.6185	-41.094005	0.000638	6.383164	2.162675	-0.000256
1197	1.1900e+02	-7.6554	-41.392753	0.000750	7.497685	2.540284	-0.000300
1198	1.1910e+02	-7.6923	-41.643055	0.000628	6.281844	2.128346	-0.000252
1199	1.1920e+02	-7.7420	-41.873172	0.000578	5.775244	1.956706	-0.000231
1200	1.1930e+02	-7.7645	-42.111363	0.000598	5.977884	2.025362	-0.000239
1201	1.1940e+02	-7.8174	-42.377814	0.000669	6.687124	2.265659	-0.000268
1202	1.1950e+02	-7.8511	-42.644265	0.000669	6.687124	2.265659	-0.000268
1203	1.1960e+02	-7.8944	-42.878419	0.000588	5.876564	1.991034	-0.000235
1204	1.1970e+02	-7.9361	-43.124684	0.000618	6.180524	2.094018	-0.000248
1205	1.1980e+02	-7.9698	-43.403246	0.000699	6.991085	2.368644	-0.000280
1206	1.1990e+02	-8.0131	-43.645474	0.000608	6.079204	2.059690	-0.000243
1207	1.2000e+02	-8.0484	-43.899814	0.000638	6.383164	2.162675	-0.000256
1208	1.2010e+02	-8.0918	-44.162228	0.000659	6.585804	2.231331	-0.000264
1209	1.2020e+02	-8.1383	-44.420605	0.000648	6.484484	2.197003	-0.000260
1210	1.2030e+02	-8.1736	-44.650721	0.000578	5.775244	1.956706	-0.000231
1211	1.2039e+02	-8.2057	-44.929284	0.000699	6.991085	2.368644	-0.000280
1212	1.2049e+02	-8.2586	-45.167475	0.000598	5.977884	2.025362	-0.000239
1213	1.2059e+02	-8.2939	-45.437963	0.000679	6.788445	2.299987	-0.000272
1214	1.2069e+02	-8.3324	-45.684228	0.000618	6.180524	2.094018	-0.000248
1215	1.2079e+02	-8.3677	-45.898196	0.000537	5.369964	1.819393	-0.000215
1216	1.2089e+02	-8.4062	-46.217130	0.000800	8.004285	2.711925	-0.000321
1217	1.2099e+02	-8.4543	-46.398801	0.000456	4.559403	1.544768	-0.000183
1218	1.2109e+02	-8.4848	-46.665252	0.000669	6.687124	2.265659	-0.000268
1219	1.2119e+02	-8.5313	-46.919592	0.000638	6.383164	2.162675	-0.000256
1220	1.2129e+02	-8.5714	-47.177968	0.000648	6.484484	2.197003	-0.000260
1221	1.2139e+02	-8.6115	-47.408085	0.000578	5.775244	1.956706	-0.000231
1222	1.2149e+02	-8.6500	-47.670499	0.000659	6.585804	2.231331	-0.000264
1223	1.2159e+02	-8.6821	-47.924838	0.000638	6.383164	2.162675	-0.000256
1224	1.2169e+02	-8.7238	-48.195326	0.000679	6.788445	2.299987	-0.000272
1225	1.2179e+02	-8.7655	-48.449666	0.000638	6.383164	2.162675	-0.000256
1226	1.2189e+02	-8.8024	-48.631337	0.000456	4.559403	1.544768	-0.000183
1227	1.2199e+02	-8.8473	-48.905862	0.000689	6.889765	2.334315	-0.000276
1228	1.2209e+02	-8.8939	-49.180388	0.000689	6.889765	2.334315	-0.000276
1229	1.2219e+02	-8.9308	-49.406467	0.000567	5.673924	1.922377	-0.000227
1230	1.2229e+02	-8.9661	-49.648695	0.000608	6.079204	2.059690	-0.000243
1231	1.2239e+02	-9.0110	-49.947443	0.000750	7.497685	2.540284	-0.000300
1232	1.2248e+02	-9.0431	-50.157374	0.000527	5.268644	1.785065	-0.000211
1233	1.2258e+02	-9.0928	-50.411714	0.000638	6.383164	2.162675	-0.000256
1234	1.2268e+02	-9.1185	-50.637794	0.000567	5.673924	1.922377	-0.000227
1235	1.2278e+02	-9.1762	-50.880022	0.000608	6.079204	2.059690	-0.000243
1236	1.2288e+02	-9.2067	-51.106101	0.000567	5.673924	1.922377	-0.000227
1237	1.2298e+02	-9.2484	-51.400812	0.000740	7.396365	2.505956	-0.000296
1238	1.2308e+02	-9.2885	-51.622855	0.000557	5.572604	1.888049	-0.000223
1239	1.2318e+02	-9.3238	-51.873157	0.000628	6.281844	2.128346	-0.000252
1240	1.2328e+02	-9.3655	-52.111348	0.000598	5.977884	2.025362	-0.000239
1241	1.2338e+02	-9.4152	-52.341465	0.000578	5.775244	1.956706	-0.000231
1242	1.2348e+02	-9.4425	-52.579656	0.000598	5.977884	2.025362	-0.000239
1243	1.2358e+02	-9.4858	-52.801698	0.000557	5.572604	1.888049	-0.000223
1244	1.2368e+02	-9.5275	-53.100446	0.000750	7.497685	2.540284	-0.000300
1245	1.2378e+02	-9.5612	-53.326526	0.000567	5.673924	1.922377	-0.000227
1246	1.2388e+02	-9.6045	-53.540494	0.000537	5.369964	1.819393	-0.000215
1247	1.2398e+02	-9.6446	-53.794834	0.000638	6.383164	2.162675	-0.000256
1248	1.2408e+02	-9.6783	-53.996690	0.000507	5.066003	1.716408	-0.000203
1249	1.2418e+02	-9.7297	-54.263141	0.000669	6.687124	2.265659	-0.000268
1250	1.2428e+02	-9.7682	-54.513444	0.000628	6.281844	2.128346	-0.000252
1251	1.2438e+02	-9.8083	-54.739523	0.000567	5.673924	1.922377	-0.000227
1252	1.2447e+02	-9.8420	-54.993863	0.000638	6.383164	2.162675	-0.000256
1253	1.2457e+02	-9.8837	-55.244165	0.000628	6.281844	2.128346	-0.000252
1254	1.2467e+02	-9.9286	-55.470245	0.000567	5.673924	1.922377	-0.000227
1255	1.2477e+02	-9.9671	-55.756882	0.000719	7.193725	2.437300	-0.000288
1256	1.2487e+02	-9.9992	-55.926441	0.000426	4.255443	1.441783	-0.000170
1257	1.2497e+02	-10.0393	-56.200967	0.000689	6.889765	2.334315	-0.000276
1258	1.2507e+02	-10.0810	-56.427046	0.000567	5.673924	1.922377	-0.000227
1259	1.2517e+02	-10.1275	-56.705609	0.000699	6.991085	2.368644	-0.000280
1260	1.2527e+02	-10.1628	-56.939762	0.000588	5.876564	1.991034	-0.000235
1261	1.2537e+02	-10.2029	-57.157768	0.000547	5.471284	1.853721	-0.000219
1262	1.2547e+02	-10.2414	-57.408070	0.000628	6.281844	2.128346	-0.000252
1263	1.2557e+02	-10.2831	-57.662410	0.000638	6.383164	2.162675	-0.000256
1264	1.2567e+02	-10.3216	-57.900601	0.000598	5.977884	2.025362	-0.000239
1265	1.2577e+02	-10.3617	-58.122643	0.000557	5.572604	1.888049	-0.000223
1266	1.2587e+02	-10.3986	-58.376983	0.000638	6.383164	2.162675	-0.000256
1267	1.2597e+02	-10.4403	-58.590951	0.000537	5.369964	1.819393	-0.000215
1268	1.2607e+02	-10.4821	-58.845291	0.000638	6.383164	2.162675	-0.000256
1269	1.2617e+02	-10.5206	-59.055222	0.000527	5.268644	1.785065	-0.000211
1270	1.2627e+02	-10.5639	-59.285338	0.000578	5.775244	1.956706	-0.000231
1271	1.2636e+02	-10.5960	-59.539678	0.000638	6.383164	2.162675	-0.000256
1272	1.2646e+02	-10.6361	-59.802092	0.000659	6.585804	2.231331	-0.000264
1273	1.2656e+02	-10.6858	-60.012023	0.000527	5.268644	1.785065	-0.000211
1274	1.2666e+02	-10.7179	-60.230028	0.000547	5.471284	1.853721	-0.000219
1275	1.2676e+02	-10.7612	-60.443996	0.000537	5.369964	1.819393	-0.000215
1276	1.2686e+02	-10.8077	-60.710447	0.000669	6.687124	2.265659	-0.000268
1277	1.2696e+02	-10.8414	-60.964787	0.000638	6.383164	2.162675	-0.000256
1278	1.2706e+02	-10.8687	-61.170681	0.000517	5.167323	1.750737	-0.000207
1279	1.2716e+02	-10.9216	-61.404835	0.000588	5.876564	1.991034	-0.000235
1280	1.2726e+02	-10.9521	-61.683397	0.000699	6.991085	2.368644	-0.000280
1281	1.2736e+02	-10.9954	-61.889291	0.000517	5.167323	1.750737	-0.000207
1282	1.2746e+02	-11.0484	-62.115370	0.000567	5.673924	1.922377	-0.000227
1283	1.2756e+02	-11.0820	-62.369710	0.000638	6.383164	2.162675	-0.000256
1284	1.2766e+02	-11.1205	-62.620012	0.000628	6.281844	2.128346	-0.000252
1285	1.2776e+02	-11.1623	-62.842055	0.000557	5.572604	1.888049	-0.000223
1286	1.2786e+02	-11.2008	-63.088320	0.000618	6.180524	2.094018	-0.000248
1287	1.2796e+02	-11.2473	-63.370920	0.000709	7.092405	2.402972	-0.000284
1288	1.2806e+02	-11.2745	-63.524331	0.000385	3.850163	1.304470	-0.000154
1289	1.2816e+02	-11.3211	-63.790782	0.000669	6.687124	2.265659	-0.000268
1290	1.2826e+02	-11.3612	-63.976490	0.000466	4.660723	1.579096	-0.000187
1291	1.2835e+02	-11.3997	-64.255052	0.000699	6.991085	2.368644	-0.000280
1292	1.2845e+02	-11.4318	-64.481132	0.000567	5.673924	1.922377	-0.000227
1293	1.2855e+02	-11.4767	-64.735472	0.000638	6.383164	2.162675	-0.000256
1294	1.2865e+02	-11.5200	-64.973663	0.000598	5.977884	2.025362	-0.000239
1295	1.2875e+02	-11.5681	-65.232039	0.000648	6.484484	2.197003	-0.000260
1296	1.2885e+02	-11.5970	-65.381413	0.000375	3.748843	1.270142	-0.000150
1297	1.2895e+02	-11.6387	-65.639790	0.000648	6.484484	2.197003	-0.000260
1298	1.2905e+02	-11.6788	-65.902204	0.000659	6.585804	2.231331	-0.000264
1299	1.2915e+02	-11.7125	-66.112135	0.000527	5.268644	1.785065	-0.000211
1300	1.2925e+02	-11.7638	-66.374549	0.000659	6.585804	2.231331	-0.000264
1301	1.2935e+02	-11.7991	-66.564294	0.000476	4.762043	1.613424	-0.000191
1302	1.2945e+02	-11.8408	-66.810559	0.000618	6.180524	2.094018	-0.000248
1303	1.2955e+02	-11.8745	-67.040676	0.000578	5.775244	1.956706	-0.000231
1304	1.2965e+02	-11.9130	-67.258681	0.000547	5.471284	1.853721	-0.000219
1305	1.2975e+02	-11.9596	-67.508984	0.000628	6.281844	2.128346	-0.000252
1306	1.2985e+02	-11.9852	-67.743138	0.000588	5.876564	1.991034	-0.000235
1307	1.2995e+02	-12.0366	-67.953069	0.000527	5.268644	1.785065	-0.000211
1308	1.3005e+02	-12.0783	-68.223557	0.000679	6.788445	2.299987	-0.000272
1309	1.3015e+02	-12.1136	-68.449636	0.000567	5.673924	1.922377	-0.000227
1310	1.3025e+02	-12.1585	-68.671679	0.000557	5.572604	1.888049	-0.000223
1311	1.3034e+02	-12.2034	-68.877573	0.000517	5.167323	1.750737	-0.000207
1312	1.3044e+02	-12.2323	-69.156135	0.000699	6.991085	2.368644	-0.000280
1313	1.3054e+02	-12.2708	-69.370103	0.000537	5.369964	1.819393	-0.000215
1314	1.3064e+02	-12.3173	-69.624443	0.000638	6.383164	2.162675	-0.000256
1315	1.3074e+02	-12.3526	-69.826300	0.000507	5.066003	1.716408	-0.000203
1316	1.3084e+02	-12.3943	-70.100825	0.000689	6.889765	2.334315	-0.000276
1317	1.3094e+02	-12.4328	-70.254236	0.000385	3.850163	1.304470	-0.000154
1318	1.3104e+02	-12.4665	-70.536836	0.000709	7.092405	2.402972	-0.000284
1319	1.3114e+02	-12.5146	-70.770989	0.000588	5.876564	1.991034	-0.000235
1320	1.3124e+02	-12.5515	-71.005143	0.000588	5.876564	1.991034	-0.000235
1321	1.3134e+02	-12.6029	-71.235260	0.000578	5.775244	1.956706	-0.000231
1322	1.3144e+02	-12.6301	-71.445191	0.000527	5.268644	1.785065	-0.000211
1323	1.3154e+02	-12.6734	-71.675308	0.000578	5.775244	1.956706	-0.000231
1324	1.3164e+02	-12.7071	-71.909462	0.000588	5.876564	1.991034	-0.000235
1325	1.3174e+02	-12.7488	-72.139579	0.000578	5.775244	1.956706	-0.000231
1326	1.3184e+02	-12.7873	-72.365658	0.000567	5.673924	1.922377	-0.000227
1327	1.3194e+02	-12.8323	-72.640183	0.000689	6.889765	2.334315	-0.000276
1328	1.3204e+02	-12.8740	-72.886449	0.000618	6.180524	2.094018	-0.000248
1329	1.3214e+02	-12.9093	-73.096380	0.000527	5.268644	1.785065	-0.000211
1330	1.3224e+02	-12.9542	-73.346682	0.000628	6.281844	2.128346	-0.000252
1331	1.3234e+02	-12.9831	-73.536427	0.000476	4.762043	1.613424	-0.000191
1332	1.3243e+02	-13.0376	-73.806916	0.000679	6.788445	2.299987	-0.000272
1333	1.3253e+02	-13.0697	-74.016847	0.000527	5.268644	1.785065	-0.000211
1334	1.3263e+02	-13.1082	-74.263112	0.000618	6.180524	2.094018	-0.000248
1335	1.3273e+02	-13.1515	-74.493229	0.000578	5.775244	1.956706	-0.000231
1336	1.3283e+02	-13.1932	-74.723345	0.000578	5.775244	1.956706	-0.000231
1337	1.3293e+02	-13.2365	-74.953462	0.000578	5.775244	1.956706	-0.000231
1338	1.3303e+02	-13.2766	-75.159356	0.000517	5.167323	1.750737	-0.000207
1339	1.3313e+02	-13.3055	-75.409658	0.000628	6.281844	2.128346	-0.000252
1340	1.3323e+02	-13.3472	-75.631701	0.000557	5.572604	1.888049	-0.000223
1341	1.3333e+02	-13.3921	-75.926412	0.000740	7.396365	2.505956	-0.000296
1342	1.3343e+02	-13.4387	-76.128269	0.000507	5.066003	1.716408	-0.000203
1343	1.3353e+02	-13.4723	-76.362422	0.000588	5.876564	1.991034	-0.000235
1344	1.3363e+02	-13.5076	-76.560242	0.000496	4.964683	1.682080	-0.000199
1345	1.3373e+02	-13.5461	-76.846879	0.000719	7.193725	2.437300	-0.000288
1346	1.3383e+02	-13.5879	-77.056810	0.000527	5.268644	1.785065	-0.000211
1347	1.3393e+02	-13.6280	-77.282889	0.000567	5.673924	1.922377	-0.000227
1348	1.3403e+02	-13.6713	-77.533192	0.000628	6.281844	2.128346	-0.000252
1349	1.3413e+02	-13.7130	-77.787531	0.000638	6.383164	2.162675	-0.000256
1350	1.3423e+02	-13.7595	-78.001500	0.000537	5.369964	1.819393	-0.000215
1351	1.3432e+02	-13.7900	-78.263913	0.000659	6.585804	2.231331	-0.000264
1352	1.3442e+02	-13.8317	-78.457696	0.000486	4.863363	1.647752	-0.000195
1353	1.3452e+02	-13.8622	-78.712035	0.000638	6.383164	2.162675	-0.000256
1354	1.3462e+02	-13.9135	-78.942152	0.000578	5.775244	1.956706	-0.000231
1355	1.3472e+02	-13.9440	-79.180343	0.000598	5.977884	2.025362	-0.000239
1356	1.3482e+02	-13.9873	-79.430646	0.000628	6.281844	2.128346	-0.000252
1357	1.3492e+02	-14.0306	-79.636540	0.000517	5.167323	1.750737	-0.000207
1358	1.3502e+02	-14.0707	-79.866656	0.000578	5.775244	1.956706	-0.000231
1359	1.3512e+02	-14.1060	-80.116959	0.000628	6.281844	2.128346	-0.000252
1360	1.3522e+02	-14.1590	-80.371298	0.000638	6.383164	2.162675	-0.000256
1361	1.3532e+02	-14.1878	-80.585266	0.000537	5.369964	1.819393	-0.000215
1362	1.3542e+02	-14.2247	-80.827495	0.000608	6.079204	2.059690	-0.000243
1363	1.3552e+02	-14.2584	-81.065686	0.000598	5.977884	2.025362	-0.000239
1364	1.3562e+02	-14.3130	-81.299839	0.000588	5.876564	1.991034	-0.000235
1365	1.3572e+02	-14.3402	-81.554179	0.000638	6.383164	2.162675	-0.000256
1366	1.3582e+02	-14.3916	-81.780259	0.000567	5.673924	1.922377	-0.000227
1367	1.3592e+02	-14.4301	-82.006338	0.000567	5.673924	1.922377	-0.000227
1368	1.3602e+02	-14.4638	-82.268752	0.000659	6.585804	2.231331	-0.000264
1369	1.3612e+02	-14.5087	-82.486757	0.000547	5.471284	1.853721	-0.000219
1370	1.3622e+02	-14.5488	-82.741097	0.000638	6.383164	2.162675	-0.000256
1371	1.3631e+02	-14.5841	-82.942954	0.000507	5.066003	1.716408	-0.000203
1372	1.3641e+02	-14.6258	-83.225553	0.000709	7.092405	2.402972	-0.000284
1373	1.3651e+02	-14.6691	-83.496041	0.000679	6.788445	2.299987	-0.000272
1374	1.3661e+02	-14.7108	-83.754418	0.000648	6.484484	2.197003	-0.000260
1375	1.3671e+02	-14.7381	-83.948201	0.000486	4.863363	1.647752	-0.000195
1376	1.3681e+02	-14.7878	-84.174280	0.000567	5.673924	1.922377	-0.000227
1377	1.3691e+02	-14.8279	-84.428620	0.000638	6.383164	2.162675	-0.000256
1378	1.3701e+02	-14.8568	-84.691034	0.000659	6.585804	2.231331	-0.000264
1379	1.3711e+02	-14.9033	-84.892890	0.000507	5.066003	1.716408	-0.000203
1380	1.3721e+02	-14.9450	-85.163378	0.000679	6.788445	2.299987	-0.000272
1381	1.3731e+02	-14.9964	-85.385421	0.000557	5.572604	1.888049	-0.000223
1382	1.3741e+02	-15.0252	-85.651872	0.000669	6.687124	2.265659	-0.000268
1383	1.3751e+02	-15.0637	-85.906211	0.000638	6.383164	2.162675	-0.000256
1384	1.3761e+02	-15.1103	-86.172662	0.000669	6.687124	2.265659	-0.000268
1385	1.3771e+02	-15.1440	-86.414890	0.000608	6.079204	2.059690	-0.000243
1386	1.3781e+02	-15.1776	-86.632896	0.000547	5.471284	1.853721	-0.000219
1387	1.3791e+02	-15.2306	-86.899347	0.000669	6.687124	2.265659	-0.000268
1388	1.3801e+02	-15.2659	-87.173872	0.000689	6.889765	2.334315	-0.000276
1389	1.3811e+02	-15.3044	-87.399952	0.000567	5.673924	1.922377	-0.000227
1390	1.3821e+02	-15.3429	-87.650254	0.000628	6.281844	2.128346	-0.000252
1391	1.3831e+02	-15.3782	-87.900556	0.000628	6.281844	2.128346	-0.000252
1392	1.3840e+02	-15.4247	-88.154896	0.000638	6.383164	2.162675	-0.000256
1393	1.3850e+02	-15.4632	-88.376938	0.000557	5.572604	1.888049	-0.000223
1394	1.3860e+02	-15.5017	-88.639352	0.000659	6.585804	2.231331	-0.000264
1395	1.3870e+02	-15.5482	-88.881580	0.000608	6.079204	2.059690	-0.000243
1396	1.3880e+02	-15.5947	-89.180328	0.000750	7.497685	2.540284	-0.000300
1397	1.3890e+02	-15.6268	-89.390260	0.000527	5.268644	1.785065	-0.000211
1398	1.3900e+02	-15.6605	-89.693045	0.000760	7.599005	2.574613	-0.000304
1399	1.3910e+02	-15.7038	-89.907013	0.000537	5.369964	1.819393	-0.000215
1400	1.3920e+02	-15.7423	-90.173464	0.000669	6.687124	2.265659	-0.000268
1401	1.3930e+02	-15.7824	-90.419729	0.000618	6.180524	2.094018	-0.000248
1402	1.3940e+02	-15.8209	-90.674069	0.000638	6.383164	2.162675	-0.000256
1403	1.3950e+02	-15.8562	-90.940520	0.000669	6.687124	2.265659	-0.000268
1404	1.3960e+02	-15.9060	-91.247342	0.000770	7.700325	2.608941	-0.000308
1405	1.3970e+02	-15.9477	-91.453236	0.000517	5.167323	1.750737	-0.000207
1406	1.3980e+02	-15.9701	-91.699501	0.000618	6.180524	2.094018	-0.000248
1407	1.3990e+02	-16.0263	-91.974026	0.000689	6.889765	2.334315	-0.000276
1408	1.4000e+02	-16.0520	-92.248552	0.000689	6.889765	2.334315	-0.000276
1409	1.4010e+02	-16.0985	-92.519040	0.000679	6.788445	2.299987	-0.000272
1410	1.4020e+02	-16.1418	-92.777416	0.000648	6.484484	2.197003	-0.000260
1411	1.4029e+02	-16.1867	-93.055979	0.000699	6.991085	2.368644	-0.000280
1412	1.4039e+02	-16.2172	-93.294170	0.000598	5.977884	2.025362	-0.000239
1413	1.4049e+02	-16.2669	-93.605029	0.000780	7.801645	2.643269	-0.000312
1414	1.4059e+02	-16.3086	-93.814960	0.000527	5.268644	1.785065	-0.000211
1415	1.4069e+02	-16.3359	-94.061226	0.000618	6.180524	2.094018	-0.000248
1416	1.4079e+02	-16.3824	-94.380159	0.000800	8.004285	2.711925	-0.000321
1417	1.4089e+02	-16.4193	-94.630462	0.000628	6.281844	2.128346	-0.000252
1418	1.4099e+02	-16.4498	-94.900950	0.000679	6.788445	2.299987	-0.000272
1419	1.4109e+02	-16.4979	-95.175475	0.000689	6.889765	2.334315	-0.000276
1420	1.4119e+02	-16.5461	-95.417703	0.000608	6.079204	2.059690	-0.000243
1421	1.4129e+02	-16.5701	-95.720488	0.000760	7.599005	2.574613	-0.000304
1422	1.4139e+02	-16.6166	-95.958679	0.000598	5.977884	2.025362	-0.000239
1423	1.4149e+02	-16.6632	-96.269539	0.000780	7.801645	2.643269	-0.000312
1424	1.4159e+02	-16.6936	-96.572324	0.000760	7.599005	2.574613	-0.000304
1425	1.4169e+02	-16.7386	-96.818589	0.000618	6.180524	2.094018	-0.000248
1426	1.4179e+02	-16.7755	-97.105226	0.000719	7.193725	2.437300	-0.000288
1427	1.4189e+02	-16.8188	-97.367640	0.000659	6.585804	2.231331	-0.000264
1428	1.4199e+02	-16.8557	-97.666388	0.000750	7.497685	2.540284	-0.000300
1429	1.4209e+02	-16.9022	-97.957062	0.000730	7.295045	2.471628	-0.000292
1430	1.4219e+02	-16.9375	-98.259847	0.000760	7.599005	2.574613	-0.000304
1431	1.4228e+02	-16.9824	-98.518223	0.000648	6.484484	2.197003	-0.000260
1432	1.4238e+02	-17.0129	-98.808897	0.000730	7.295045	2.471628	-0.000292
1433	1.4248e+02	-17.0594	-99.107645	0.000750	7.497685	2.540284	-0.000300
1434	1.4258e+02	-17.0947	-99.349873	0.000608	6.079204	2.059690	-0.000243
1435	1.4268e+02	-17.1316	-99.684956	0.000841	8.409566	2.849238	-0.000337
1436	1.4278e+02	-17.1749	-99.983704	0.000750	7.497685	2.540284	-0.000300
1437	1.4288e+02	-17.2263	-100.246118	0.000659	6.585804	2.231331	-0.000264
1438	1.4298e+02	-17.2535	-100.573126	0.000821	8.206925	2.780582	-0.000329
1439	1.4308e+02	-17.2984	-100.892059	0.000800	8.004285	2.711925	-0.000321
1440	1.4318e+02	-17.3369	-101.138325	0.000618	6.180524	2.094018	-0.000248
1441	1.4328e+02	-17.3819	-101.400738	0.000659	6.585804	2.231331	-0.000264
1442	1.4338e+02	-17.4204	-101.711598	0.000780	7.801645	2.643269	-0.000312
1443	1.4348e+02	-17.4573	-102.066866	0.000892	8.916166	3.020879	-0.000357
1444	1.4358e+02	-17.4942	-102.337354	0.000679	6.788445	2.299987	-0.000272
1445	1.4368e+02	-17.5278	-102.644176	0.000770	7.700325	2.608941	-0.000308
1446	1.4378e+02	-17.5712	-102.975221	0.000831	8.308246	2.814910	-0.000333
1447	1.4388e+02	-17.6129	-103.253784	0.000699	6.991085	2.368644	-0.000280
1448	1.4398e+02	-17.6514	-103.552532	0.000750	7.497685	2.540284	-0.000300
1449	1.4408e+02	-17.6931	-103.903762	0.000881	8.814846	2.986551	-0.000353
1450	1.4418e+02	-17.7300	-104.166176	0.000659	6.585804	2.231331	-0.000264
1451	1.4428e+02	-17.7781	-104.468961	0.000760	7.599005	2.574613	-0.000304
1452	1.4437e+02	-17.8102	-104.820192	0.000881	8.814846	2.986551	-0.000353
1453	1.4447e+02	-17.8471	-105.106829	0.000719	7.193725	2.437300	-0.000288
1454	1.4457e+02	-17.8904	-105.449985	0.000861	8.612206	2.917894	-0.000345
1455	1.4467e+02	-17.9417	-105.740659	0.000730	7.295045	2.471628	-0.000292
1456	1.4477e+02	-17.9674	-106.083816	0.000861	8.612206	2.917894	-0.000345
1457	1.4487e+02	-18.0139	-106.398712	0.000790	7.902965	2.677597	-0.000316
1458	1.4497e+02	-18.0444	-106.749943	0.000881	8.814846	2.986551	-0.000353
1459	1.4507e+02	-18.0909	-107.040617	0.000730	7.295045	2.471628	-0.000292
1460	1.4517e+02	-18.1342	-107.347439	0.000770	7.700325	2.608941	-0.000308
1461	1.4527e+02	-18.1808	-107.694633	0.000871	8.713526	2.952222	-0.000349
1462	1.4537e+02	-18.2096	-108.033752	0.000851	8.510886	2.883566	-0.000341
1463	1.4547e+02	-18.2562	-108.380946	0.000871	8.713526	2.952222	-0.000349
1464	1.4557e+02	-18.2834	-108.707954	0.000821	8.206925	2.780582	-0.000329
1465	1.4567e+02	-18.3396	-109.051111	0.000861	8.612206	2.917894	-0.000345
1466	1.4577e+02	-18.3765	-109.333710	0.000709	7.092405	2.402972	-0.000284
1467	1.4587e+02	-18.4182	-109.705127	0.000932	9.321446	3.158191	-0.000373
1468	1.4597e+02	-18.4503	-109.999837	0.000740	7.396365	2.505956	-0.000296
1469	1.4607e+02	-18.4968	-110.379328	0.000952	9.524086	3.226848	-0.000381
1470	1.4617e+02	-18.5289	-110.710373	0.000831	8.308246	2.814910	-0.000333
1471	1.4626e+02	-18.5786	-111.106013	0.000993	9.929367	3.364160	-0.000398
1472	1.4636e+02	-18.6171	-111.445132	0.000851	8.510886	2.883566	-0.000341
1473	1.4646e+02	-18.6492	-111.820586	0.000942	9.422766	3.192520	-0.000377
1474	1.4656e+02	-18.6909	-112.123371	0.000760	7.599005	2.574613	-0.000304
1475	1.4666e+02	-18.7423	-112.498824	0.000942	9.422766	3.192520	-0.000377
1476	1.4676e+02	-18.7583	-112.801610	0.000760	7.599005	2.574613	-0.000304
1477	1.4686e+02	-18.8128	-113.209360	0.001023	10.233327	3.467145	-0.000410
1478	1.4696e+02	-18.8465	-113.552517	0.000861	8.612206	2.917894	-0.000345
1479	1.4706e+02	-18.8834	-113.927971	0.000942	9.422766	3.192520	-0.000377
1480	1.4716e+02	-18.9316	-114.279201	0.000881	8.814846	2.986551	-0.000353
1481	1.4726e+02	-18.9668	-114.646581	0.000922	9.220126	3.123863	-0.000369
1482	1.4736e+02	-19.0134	-115.026071	0.000952	9.524086	3.226848	-0.000381
1483	1.4746e+02	-19.0519	-115.401525	0.000942	9.422766	3.192520	-0.000377
1484	1.4756e+02	-19.0856	-115.752756	0.000881	8.814846	2.986551	-0.000353
1485	1.4766e+02	-19.1273	-116.160507	0.001023	10.233327	3.467145	-0.000410
1486	1.4776e+02	-19.1738	-116.523849	0.000912	9.118806	3.089535	-0.000365
1487	1.4786e+02	-19.2091	-116.907377	0.000963	9.625406	3.261176	-0.000385
1488	1.4796e+02	-19.2524	-117.262645	0.000892	8.916166	3.020879	-0.000357
1489	1.4806e+02	-19.2893	-117.662321	0.001003	10.030687	3.398489	-0.000402
1490	1.4816e+02	-19.3326	-118.078146	0.001044	10.435967	3.535801	-0.000418
1491	1.4825e+02	-19.3679	-118.481860	0.001013	10.132007	3.432817	-0.000406
1492	1.4835e+02	-19.4112	-118.829053	0.000871	8.713526	2.952222	-0.000349
1493	1.4845e+02	-19.4561	-119.228730	0.001003	10.030687	3.398489	-0.000402
1494	1.4855e+02	-19.4802	-119.664740	0.001094	10.942567	3.707442	-0.000438
1495	1.4865e+02	-19.5251	-120.044231	0.000952	9.524086	3.226848	-0.000381
1496	1.4875e+02	-19.5620	-120.431796	0.000973	9.726726	3.295504	-0.000390
1497	1.4885e+02	-19.6069	-120.847621	0.001044	10.435967	3.535801	-0.000418
1498	1.4895e+02	-19.6310	-121.279595	0.001084	10.841247	3.673114	-0.000434
1499	1.4905e+02	-19.6855	-121.642937	0.000912	9.118806	3.089535	-0.000365
1500	1.4915e+02	-19.7256	-122.070873	0.001074	10.739927	3.638786	-0.000430
1501	1.4925e+02	-19.7658	-122.502847	0.001084	10.841247	3.673114	-0.000434
1502	1.4935e+02	-19.8043	-122.906560	0.001013	10.132007	3.432817	-0.000406
1503	1.4945e+02	-19.8476	-123.338534	0.001084	10.841247	3.673114	-0.000434
1504	1.4955e+02	-19.8813	-123.742248	0.001013	10.132007	3.432817	-0.000406
1505	1.4965e+02	-19.9198	-124.182295	0.001104	11.043887	3.741770	-0.000442
1506	1.4975e+02	-19.9743	-124.602157	0.001054	10.537287	3.570129	-0.000422
1507	1.4985e+02	-20.0064	-125.046242	0.001115	11.145207	3.776098	-0.000446
1508	1.4995e+02	-19.9695	-125.139096	-0.000233	-2.330362	-0.789548	-0.000093
1509	1.5005e+02	-19.9246	-125.300582	-0.000405	-4.052803	-1.373127	-0.000162
1510	1.5015e+02	-19.8925	-125.385362	-0.000213	-2.127721	-0.720892	-0.000085
1511	1.5025e+02	-19.8476	-125.405547	-0.000051	-0.506600	-0.171641	-0.000020
1512	1.5034e+02	-19.8043	-125.514550	-0.000274	-2.735642	-0.926861	-0.000110
1513	1.5044e+02	-19.7674	-125.514550	0.000000	0.000000	0.000000	0.000000
1514	1.5054e+02	-19.7305	-125.567033	-0.000132	-1.317161	-0.446266	-0.000053
1515	1.5064e+02	-19.6855	-125.583181	-0.000041	-0.405280	-0.137313	-0.000016
1516	1.5074e+02	-19.6406	-125.603367	-0.000051	-0.506600	-0.171641	-0.000020
1517	1.5084e+02	-19.6053	-125.627590	-0.000061	-0.607920	-0.205969	-0.000024
1518	1.5094e+02	-19.5700	-125.619516	0.000020	0.202640	0.068656	0.000008
1519	1.5104e+02	-19.5267	-125.583181	0.000091	0.911881	0.308954	0.000037
1520	1.5114e+02	-19.4866	-125.591256	-0.000020	-0.202640	-0.068656	-0.000008
1521	1.5124e+02	-19.4417	-125.607404	-0.000041	-0.405280	-0.137313	-0.000016
1522	1.5134e+02	-19.4176	-125.550884	0.000142	1.418481	0.480594	0.000057
1523	1.5144e+02	-19.3711	-125.498402	0.000132	1.317161	0.446266	0.000053
1524	1.5154e+02	-19.3326	-125.466104	0.000081	0.810561	0.274625	0.000032
1525	1.5164e+02	-19.2893	-125.506476	-0.000101	-1.013201	-0.343282	-0.000041
1526	1.5174e+02	-19.2348	-125.361139	0.000365	3.647522	1.235814	0.000146
1527	1.5184e+02	-19.2155	-125.340953	0.000051	0.506600	0.171641	0.000020
1528	1.5194e+02	-19.1690	-125.312693	0.000071	0.709240	0.240297	0.000028
1529	1.5204e+02	-19.1305	-125.252136	0.000152	1.519801	0.514923	0.000061
1530	1.5214e+02	-19.0904	-125.195616	0.000142	1.418481	0.480594	0.000057
1531	1.5224e+02	-19.0487	-125.106799	0.000223	2.229041	0.755220	0.000089
1532	1.5233e+02	-19.0182	-125.102762	0.000010	0.101320	0.034328	0.000004
1533	1.5243e+02	-18.9701	-124.937240	0.000415	4.154123	1.407455	0.000166
1534	1.5253e+02	-18.9348	-124.917054	0.000051	0.506600	0.171641	0.000020
1535	1.5263e+02	-18.8834	-124.824200	0.000233	2.330362	0.789548	0.000093
1536	1.5273e+02	-18.8513	-124.727309	0.000243	2.431682	0.823876	0.000097
1537	1.5283e+02	-18.8177	-124.654640	0.000182	1.823761	0.617907	0.000073
1538	1.5293e+02	-18.7743	-124.561786	0.000233	2.330362	0.789548	0.000093
1539	1.5303e+02	-18.7358	-124.497192	0.000162	1.621121	0.549251	0.000065
1540	1.5313e+02	-18.6941	-124.408375	0.000223	2.229041	0.755220	0.000089
1541	1.5323e+02	-18.6556	-124.299372	0.000274	2.735642	0.926861	0.000110
1542	1.5333e+02	-18.6075	-124.218630	0.000203	2.026401	0.686563	0.000081
1543	1.5343e+02	-18.5722	-124.149998	0.000172	1.722441	0.583579	0.000069
1544	1.5353e+02	-18.5337	-123.996587	0.000385	3.850163	1.304470	0.000154
1545	1.5363e+02	-18.4840	-123.879510	0.000294	2.938282	0.995517	0.000118
1546	1.5373e+02	-18.4519	-123.814916	0.000162	1.621121	0.549251	0.000065
1547	1.5383e+02	-18.4182	-123.673616	0.000355	3.546202	1.201486	0.000142
1548	1.5393e+02	-18.3797	-123.657468	0.000041	0.405280	0.137313	0.000016
1549	1.5403e+02	-18.3380	-123.512131	0.000365	3.647522	1.235814	0.000146
1550	1.5413e+02	-18.2995	-123.374868	0.000344	3.444882	1.167158	0.000138
1551	1.5422e+02	-18.2594	-123.265865	0.000274	2.735642	0.926861	0.000110
1552	1.5432e+02	-18.2129	-123.168974	0.000243	2.431682	0.823876	0.000097
1553	1.5442e+02	-18.1711	-123.068046	0.000253	2.533002	0.858204	0.000101
1554	1.5452e+02	-18.1294	-122.934820	0.000334	3.343562	1.132830	0.000134
1555	1.5462e+02	-18.0861	-122.837929	0.000243	2.431682	0.823876	0.000097
1556	1.5472e+02	-18.0476	-122.724889	0.000284	2.836962	0.961189	0.000114
1557	1.5482e+02	-18.0139	-122.567441	0.000395	3.951483	1.338799	0.000158
1558	1.5492e+02	-17.9738	-122.462475	0.000263	2.634322	0.892532	0.000105
1559	1.5502e+02	-17.9305	-122.353473	0.000274	2.735642	0.926861	0.000110
1560	1.5512e+02	-17.8824	-122.216210	0.000344	3.444882	1.167158	0.000138
1561	1.5522e+02	-17.8567	-122.143542	0.000182	1.823761	0.617907	0.000073
1562	1.5532e+02	-17.8150	-121.986093	0.000395	3.951483	1.338799	0.000158
1563	1.5542e+02	-17.7749	-121.844794	0.000355	3.546202	1.201486	0.000142
1564	1.5552e+02	-17.7396	-121.731754	0.000284	2.836962	0.961189	0.000114
1565	1.5562e+02	-17.6995	-121.598528	0.000334	3.343562	1.132830	0.000134
1566	1.5572e+02	-17.6610	-121.509711	0.000223	2.229041	0.755220	0.000089
1567	1.5582e+02	-17.6193	-121.392635	0.000294	2.938282	0.995517	0.000118
1568	1.5592e+02	-17.5744	-121.243260	0.000375	3.748843	1.270142	0.000150
1569	1.5602e+02	-17.5375	-121.081775	0.000405	4.052803	1.373127	0.000162
1570	1.5612e+02	-17.4958	-120.960661	0.000304	3.039602	1.029845	0.000122
1571	1.5622e+02	-17.4605	-120.839547	0.000304	3.039602	1.029845	0.000122
1572	1.5631e+02	-17.4156	-120.702284	0.000344	3.444882	1.167158	0.000138
1573	1.5641e+02	-17.3738	-120.544836	0.000395	3.951483	1.338799	0.000158
1574	1.5651e+02	-17.3369	-120.443908	0.000253	2.533002	0.858204	0.000101
1575	1.5661e+02	-17.2968	-120.270311	0.000436	4.356763	1.476111	0.000174
1576	1.5671e+02	-17.2535	-120.141122	0.000324	3.242242	1.098501	0.000130
1577	1.5681e+02	-17.2150	-120.007897	0.000334	3.343562	1.132830	0.000134
1578	1.5691e+02	-17.1813	-119.874671	0.000334	3.343562	1.132830	0.000134
1579	1.5701e+02	-17.1332	-119.737409	0.000344	3.444882	1.167158	0.000138
1580	1.5711e+02	-17.0915	-119.583998	0.000385	3.850163	1.304470	0.000154
1581	1.5721e+02	-17.0594	-119.446735	0.000344	3.444882	1.167158	0.000138
1582	1.5731e+02	-17.0177	-119.321584	0.000314	3.140922	1.064173	0.000126
1583	1.5741e+02	-16.9840	-119.172210	0.000375	3.748843	1.270142	0.000150
1584	1.5751e+02	-16.9455	-119.067244	0.000263	2.634322	0.892532	0.000105
1585	1.5761e+02	-16.8958	-118.853276	0.000537	5.369964	1.819393	0.000215
1586	1.5771e+02	-16.8589	-118.732162	0.000304	3.039602	1.029845	0.000122
1587	1.5781e+02	-16.8236	-118.594899	0.000344	3.444882	1.167158	0.000138
1588	1.5791e+02	-16.7867	-118.449563	0.000365	3.647522	1.235814	0.000146
1589	1.5801e+02	-16.7386	-118.324411	0.000314	3.140922	1.064173	0.000126
1590	1.5811e+02	-16.6920	-118.171000	0.000385	3.850163	1.304470	0.000154
1591	1.5821e+02	-16.6600	-117.985292	0.000466	4.660723	1.579096	0.000187
1592	1.5830e+02	-16.6247	-117.896475	0.000223	2.229041	0.755220	0.000089
1593	1.5840e+02	-16.5749	-117.755175	0.000355	3.546202	1.201486	0.000142
1594	1.5850e+02	-16.5380	-117.593690	0.000405	4.052803	1.373127	0.000162
1595	1.5860e+02	-16.5076	-117.424130	0.000426	4.255443	1.441783	0.000170
1596	1.5870e+02	-16.4578	-117.323202	0.000253	2.533002	0.858204	0.000101
1597	1.5880e+02	-16.4209	-117.169791	0.000385	3.850163	1.304470	0.000154
1598	1.5890e+02	-16.3760	-117.008305	0.000405	4.052803	1.373127	0.000162
1599	1.5900e+02	-16.3375	-116.838745	0.000426	4.255443	1.441783	0.000170
1600	1.5910e+02	-16.3054	-116.733780	0.000263	2.634322	0.892532	0.000105
1601	1.5920e+02	-16.2621	-116.552109	0.000456	4.559403	1.544768	0.000183
1602	1.5930e+02	-16.2236	-116.435032	0.000294	2.938282	0.995517	0.000118
1603	1.5940e+02	-16.1819	-116.257398	0.000446	4.458083	1.510439	0.000179
1604	1.5950e+02	-16.1434	-116.120135	0.000344	3.444882	1.167158	0.000138
1605	1.5960e+02	-16.0969	-115.898093	0.000557	5.572604	1.888049	0.000223
1606	1.5970e+02	-16.0632	-115.821387	0.000193	1.925081	0.652235	0.000077
1607	1.5980e+02	-16.0199	-115.627605	0.000486	4.863363	1.647752	0.000195
1608	1.5990e+02	-15.9862	-115.494379	0.000334	3.343562	1.132830	0.000134
1609	1.6000e+02	-15.9381	-115.349042	0.000365	3.647522	1.235814	0.000146
1610	1.6010e+02	-15.8996	-115.215817	0.000334	3.343562	1.132830	0.000134
1611	1.6019e+02	-15.8643	-115.050294	0.000415	4.154123	1.407455	0.000166
1612	1.6029e+02	-15.8161	-114.917069	0.000334	3.343562	1.132830	0.000134
1613	1.6039e+02	-15.7808	-114.735398	0.000456	4.559403	1.544768	0.000183
1614	1.6049e+02	-15.7407	-114.533541	0.000507	5.066003	1.716408	0.000203
1615	1.6059e+02	-15.7070	-114.416464	0.000294	2.938282	0.995517	0.000118
1616	1.6069e+02	-15.6605	-114.238830	0.000446	4.458083	1.510439	0.000179
1617	1.6079e+02	-15.6268	-114.085419	0.000385	3.850163	1.304470	0.000154
1618	1.6089e+02	-15.5835	-113.940082	0.000365	3.647522	1.235814	0.000146
1619	1.6099e+02	-15.5482	-113.770522	0.000426	4.255443	1.441783	0.000170
1620	1.6109e+02	-15.4937	-113.633260	0.000344	3.444882	1.167158	0.000138
1621	1.6119e+02	-15.4616	-113.455626	0.000446	4.458083	1.510439	0.000179
1622	1.6129e+02	-15.4199	-113.322400	0.000334	3.343562	1.132830	0.000134
1623	1.6139e+02	-15.3878	-113.160915	0.000405	4.052803	1.373127	0.000162
1624	1.6149e+02	-15.3493	-112.979244	0.000456	4.559403	1.544768	0.000183
1625	1.6159e+02	-15.3012	-112.825832	0.000385	3.850163	1.304470	0.000154
1626	1.6169e+02	-15.2659	-112.700681	0.000314	3.140922	1.064173	0.000126
1627	1.6179e+02	-15.2258	-112.547270	0.000385	3.850163	1.304470	0.000154
1628	1.6189e+02	-15.1809	-112.353488	0.000486	4.863363	1.647752	0.000195
1629	1.6199e+02	-15.1391	-112.228336	0.000314	3.140922	1.064173	0.000126
1630	1.6209e+02	-15.1039	-112.042628	0.000466	4.660723	1.579096	0.000187
1631	1.6219e+02	-15.0670	-111.885180	0.000395	3.951483	1.338799	0.000158
1632	1.6228e+02	-15.0252	-111.707546	0.000446	4.458083	1.510439	0.000179
1633	1.6238e+02	-14.9883	-111.554135	0.000385	3.850163	1.304470	0.000154
1634	1.6248e+02	-14.9418	-111.364389	0.000476	4.762043	1.613424	0.000191
1635	1.6258e+02	-14.9065	-111.231164	0.000334	3.343562	1.132830	0.000134
1636	1.6268e+02	-14.8696	-111.041418	0.000476	4.762043	1.613424	0.000191
1637	1.6278e+02	-14.8327	-110.871859	0.000426	4.255443	1.441783	0.000170
1638	1.6288e+02	-14.7862	-110.674039	0.000496	4.964683	1.682080	0.000199
1639	1.6298e+02	-14.7397	-110.560999	0.000284	2.836962	0.961189	0.000114
1640	1.6308e+02	-14.7060	-110.395477	0.000415	4.154123	1.407455	0.000166
1641	1.6318e+02	-14.6771	-110.217843	0.000446	4.458083	1.510439	0.000179
1642	1.6328e+02	-14.6210	-110.044246	0.000436	4.356763	1.476111	0.000174
1643	1.6338e+02	-14.5857	-109.915058	0.000324	3.242242	1.098501	0.000130
1644	1.6348e+02	-14.5456	-109.745498	0.000426	4.255443	1.441783	0.000170
1645	1.6358e+02	-14.5023	-109.600161	0.000365	3.647522	1.235814	0.000146
1646	1.6368e+02	-14.4734	-109.430601	0.000426	4.255443	1.441783	0.000170
1647	1.6378e+02	-14.4221	-109.248930	0.000456	4.559403	1.544768	0.000183
1648	1.6388e+02	-14.3852	-109.079371	0.000426	4.255443	1.441783	0.000170
1649	1.6398e+02	-14.3547	-108.921922	0.000395	3.951483	1.338799	0.000158
1650	1.6408e+02	-14.3065	-108.736214	0.000466	4.660723	1.579096	0.000187
1651	1.6418e+02	-14.2713	-108.578766	0.000395	3.951483	1.338799	0.000158
1652	1.6427e+02	-14.2231	-108.384983	0.000486	4.863363	1.647752	0.000195
1653	1.6437e+02	-14.1926	-108.243683	0.000355	3.546202	1.201486	0.000142
1654	1.6447e+02	-14.1493	-108.110458	0.000334	3.343562	1.132830	0.000134
1655	1.6457e+02	-14.1092	-107.916675	0.000486	4.863363	1.647752	0.000195
1656	1.6467e+02	-14.0707	-107.735004	0.000456	4.559403	1.544768	0.000183
1657	1.6477e+02	-14.0226	-107.557370	0.000446	4.458083	1.510439	0.000179
1658	1.6487e+02	-13.9937	-107.391848	0.000415	4.154123	1.407455	0.000166
1659	1.6497e+02	-13.9440	-107.222288	0.000426	4.255443	1.441783	0.000170
1660	1.6507e+02	-13.9071	-107.085025	0.000344	3.444882	1.167158	0.000138
1661	1.6517e+02	-13.8654	-106.862983	0.000557	5.572604	1.888049	0.000223
1662	1.6527e+02	-13.8349	-106.729758	0.000334	3.343562	1.132830	0.000134
1663	1.6537e+02	-13.7884	-106.588458	0.000355	3.546202	1.201486	0.000142
1664	1.6547e+02	-13.7435	-106.374490	0.000537	5.369964	1.819393	0.000215
1665	1.6557e+02	-13.7050	-106.221078	0.000385	3.850163	1.304470	0.000154
1666	1.6567e+02	-13.6681	-106.027296	0.000486	4.863363	1.647752	0.000195
1667	1.6577e+02	-13.6296	-105.853699	0.000436	4.356763	1.476111	0.000174
1668	1.6587e+02	-13.5814	-105.688176	0.000415	4.154123	1.407455	0.000166
1669	1.6597e+02	-13.5494	-105.502468	0.000466	4.660723	1.579096	0.000187
1670	1.6607e+02	-13.5108	-105.373280	0.000324	3.242242	1.098501	0.000130
1671	1.6616e+02	-13.4723	-105.151237	0.000557	5.572604	1.888049	0.000223
1672	1.6626e+02	-13.4371	-104.985715	0.000415	4.154123	1.407455	0.000166
1673	1.6636e+02	-13.3953	-104.856527	0.000324	3.242242	1.098501	0.000130
1674	1.6646e+02	-13.3552	-104.682930	0.000436	4.356763	1.476111	0.000174
1675	1.6656e+02	-13.3199	-104.525481	0.000395	3.951483	1.338799	0.000158
1676	1.6666e+02	-13.2734	-104.323625	0.000507	5.066003	1.716408	0.000203
1677	1.6676e+02	-13.2269	-104.141953	0.000456	4.559403	1.544768	0.000183
1678	1.6686e+02	-13.1932	-103.940097	0.000507	5.066003	1.716408	0.000203
1679	1.6696e+02	-13.1531	-103.790723	0.000375	3.748843	1.270142	0.000150
1680	1.6706e+02	-13.1130	-103.613089	0.000446	4.458083	1.510439	0.000179
1681	1.6716e+02	-13.0681	-103.423343	0.000476	4.762043	1.613424	0.000191
1682	1.6726e+02	-13.0344	-103.261858	0.000405	4.052803	1.373127	0.000162
1683	1.6736e+02	-12.9959	-103.064038	0.000496	4.964683	1.682080	0.000199
1684	1.6746e+02	-12.9526	-102.938887	0.000314	3.140922	1.064173	0.000126
1685	1.6756e+02	-12.9077	-102.753179	0.000466	4.660723	1.579096	0.000187
1686	1.6766e+02	-12.8692	-102.559396	0.000486	4.863363	1.647752	0.000195
1687	1.6776e+02	-12.8371	-102.345428	0.000537	5.369964	1.819393	0.000215
1688	1.6786e+02	-12.7970	-102.196054	0.000375	3.748843	1.270142	0.000150
1689	1.6796e+02	-12.7601	-102.018420	0.000446	4.458083	1.510439	0.000179
1690	1.6806e+02	-12.7151	-101.832712	0.000466	4.660723	1.579096	0.000187
1691	1.6816e+02	-12.6670	-101.667189	0.000415	4.154123	1.407455	0.000166
1692	1.6825e+02	-12.6301	-101.485518	0.000456	4.559403	1.544768	0.000183
1693	1.6835e+02	-12.6045	-101.332107	0.000385	3.850163	1.304470	0.000154
1694	1.6845e+02	-12.5563	-101.134287	0.000496	4.964683	1.682080	0.000199
1695	1.6855e+02	-12.5050	-100.964728	0.000426	4.255443	1.441783	0.000170
1696	1.6865e+02	-12.4729	-100.770945	0.000486	4.863363	1.647752	0.000195
1697	1.6875e+02	-12.4408	-100.605423	0.000415	4.154123	1.407455	0.000166
1698	1.6885e+02	-12.4071	-100.407603	0.000496	4.964683	1.682080	0.000199
1699	1.6895e+02	-12.3574	-100.238043	0.000426	4.255443	1.441783	0.000170
1700	1.6905e+02	-12.3125	-100.007927	0.000578	5.775244	1.956706	0.000231
1701	1.6915e+02	-12.2772	-99.830293	0.000446	4.458083	1.510439	0.000179
1702	1.6925e+02	-12.2307	-99.664770	0.000415	4.154123	1.407455	0.000166
1703	1.6935e+02	-12.2002	-99.475025	0.000476	4.762043	1.613424	0.000191
1704	1.6945e+02	-12.1617	-99.349873	0.000314	3.140922	1.064173	0.000126
1705	1.6955e+02	-12.1184	-99.107645	0.000608	6.079204	2.059690	0.000243
1706	1.6965e+02	-12.0735	-98.954234	0.000385	3.850163	1.304470	0.000154
1707	1.6975e+02	-12.0398	-98.768526	0.000466	4.660723	1.579096	0.000187
1708	1.6985e+02	-11.9836	-98.530335	0.000598	5.977884	2.025362	0.000239
1709	1.6995e+02	-11.9563	-98.340589	0.000476	4.762043	1.613424	0.000191
1710	1.7005e+02	-11.9114	-98.227550	0.000284	2.836962	0.961189	0.000114
1711	1.7015e+02	-11.8777	-98.013581	0.000537	5.369964	1.819393	0.000215
1712	1.7024e+02	-11.8296	-97.807688	0.000517	5.167323	1.750737	0.000207
1713	1.7034e+02	-11.8023	-97.662351	0.000365	3.647522	1.235814	0.000146
1714	1.7044e+02	-11.7606	-97.460494	0.000507	5.066003	1.716408	0.000203
1715	1.7054e+02	-11.7125	-97.266711	0.000486	4.863363	1.647752	0.000195
1716	1.7064e+02	-11.6788	-97.093114	0.000436	4.356763	1.476111	0.000174
1717	1.7074e+02	-11.6371	-96.911443	0.000456	4.559403	1.544768	0.000183
1718	1.7084e+02	-11.6066	-96.709587	0.000507	5.066003	1.716408	0.000203
1719	1.7094e+02	-11.5521	-96.515804	0.000486	4.863363	1.647752	0.000195
1720	1.7104e+02	-11.5184	-96.313947	0.000507	5.066003	1.716408	0.000203
1721	1.7114e+02	-11.4799	-96.116128	0.000496	4.964683	1.682080	0.000199
1722	1.7124e+02	-11.4414	-95.995014	0.000304	3.039602	1.029845	0.000122
1723	1.7134e+02	-11.3997	-95.760860	0.000588	5.876564	1.991034	0.000235
1724	1.7144e+02	-11.3676	-95.587263	0.000436	4.356763	1.476111	0.000174
1725	1.7154e+02	-11.3243	-95.401555	0.000466	4.660723	1.579096	0.000187
1726	1.7164e+02	-11.2810	-95.195661	0.000517	5.167323	1.750737	0.000207
1727	1.7174e+02	-11.2377	-94.977655	0.000547	5.471284	1.853721	0.000219
1728	1.7184e+02	-11.2072	-94.820207	0.000395	3.951483	1.338799	0.000158
1729	1.7194e+02	-11.1606	-94.654685	0.000415	4.154123	1.407455	0.000166
1730	1.7204e+02	-11.1205	-94.468976	0.000466	4.660723	1.579096	0.000187
1731	1.7213e+02	-11.0869	-94.287305	0.000456	4.559403	1.544768	0.000183
1732	1.7223e+02	-11.0371	-94.028928	0.000648	6.484484	2.197003	0.000260
1733	1.7233e+02	-11.0066	-93.871480	0.000395	3.951483	1.338799	0.000158
1734	1.7243e+02	-10.9665	-93.669623	0.000507	5.066003	1.716408	0.000203
1735	1.7253e+02	-10.9200	-93.451618	0.000547	5.471284	1.853721	0.000219
1736	1.7263e+02	-10.8863	-93.290133	0.000405	4.052803	1.373127	0.000162
1737	1.7273e+02	-10.8382	-93.084239	0.000517	5.167323	1.750737	0.000207
1738	1.7283e+02	-10.8013	-92.930828	0.000385	3.850163	1.304470	0.000154
1739	1.7293e+02	-10.7532	-92.716859	0.000537	5.369964	1.819393	0.000215
1740	1.7303e+02	-10.7291	-92.510965	0.000517	5.167323	1.750737	0.000207
1741	1.7313e+02	-10.6858	-92.280849	0.000578	5.775244	1.956706	0.000231
1742	1.7323e+02	-10.6489	-92.111289	0.000426	4.255443	1.441783	0.000170
1743	1.7333e+02	-10.5992	-91.877135	0.000588	5.876564	1.991034	0.000235
1744	1.7343e+02	-10.5591	-91.711613	0.000415	4.154123	1.407455	0.000166
1745	1.7353e+02	-10.5238	-91.505719	0.000517	5.167323	1.750737	0.000207
1746	1.7363e+02	-10.4869	-91.324048	0.000456	4.559403	1.544768	0.000183
1747	1.7373e+02	-10.4516	-91.106042	0.000547	5.471284	1.853721	0.000219
1748	1.7383e+02	-10.4067	-90.924371	0.000456	4.559403	1.544768	0.000183
1749	1.7393e+02	-10.3601	-90.718477	0.000517	5.167323	1.750737	0.000207
1750	1.7403e+02	-10.3200	-90.480286	0.000598	5.977884	2.025362	0.000239
1751	1.7413e+02	-10.2767	-90.347061	0.000334	3.343562	1.132830	0.000134
1752	1.7422e+02	-10.2430	-90.161352	0.000466	4.660723	1.579096	0.000187
1753	1.7432e+02	-10.1885	-89.927199	0.000588	5.876564	1.991034	0.000235
1754	1.7442e+02	-10.1596	-89.697082	0.000578	5.775244	1.956706	0.000231
1755	1.7452e+02	-10.1195	-89.543671	0.000385	3.850163	1.304470	0.000154
1756	1.7462e+02	-10.0890	-89.329702	0.000537	5.369964	1.819393	0.000215
1757	1.7472e+02	-10.0457	-89.115734	0.000537	5.369964	1.819393	0.000215
1758	1.7482e+02	-9.9912	-88.889655	0.000567	5.673924	1.922377	0.000227
1759	1.7492e+02	-9.9607	-88.744318	0.000365	3.647522	1.235814	0.000146
1760	1.7502e+02	-9.9206	-88.518238	0.000567	5.673924	1.922377	0.000227
1761	1.7512e+02	-9.8997	-88.308307	0.000527	5.268644	1.785065	0.000211
1762	1.7522e+02	-9.8436	-88.146822	0.000405	4.052803	1.373127	0.000162
1763	1.7532e+02	-9.8035	-87.916705	0.000578	5.775244	1.956706	0.000231
1764	1.7542e+02	-9.7618	-87.706774	0.000527	5.268644	1.785065	0.000211
1765	1.7552e+02	-9.7297	-87.500880	0.000517	5.167323	1.750737	0.000207
1766	1.7562e+02	-9.6783	-87.307097	0.000486	4.863363	1.647752	0.000195
1767	1.7572e+02	-9.6463	-87.097166	0.000527	5.268644	1.785065	0.000211
1768	1.7582e+02	-9.6078	-86.871087	0.000567	5.673924	1.922377	0.000227
1769	1.7592e+02	-9.5660	-86.669230	0.000507	5.066003	1.716408	0.000203
1770	1.7602e+02	-9.5243	-86.479485	0.000476	4.762043	1.613424	0.000191
1771	1.7612e+02	-9.4778	-86.261479	0.000547	5.471284	1.853721	0.000219
1772	1.7621e+02	-9.4537	-86.075771	0.000466	4.660723	1.579096	0.000187
1773	1.7631e+02	-9.4072	-85.869877	0.000517	5.167323	1.750737	0.000207
1774	1.7641e+02	-9.3639	-85.647835	0.000557	5.572604	1.888049	0.000223
1775	1.7651e+02	-9.3190	-85.478275	0.000426	4.255443	1.441783	0.000170
1776	1.7661e+02	-9.2885	-85.227973	0.000628	6.281844	2.128346	0.000252
1777	1.7671e+02	-9.2548	-85.074561	0.000385	3.850163	1.304470	0.000154
1778	1.7681e+02	-9.2115	-84.836370	0.000598	5.977884	2.025362	0.000239
1779	1.7691e+02	-9.1602	-84.662774	0.000436	4.356763	1.476111	0.000174
1780	1.7701e+02	-9.1345	-84.392285	0.000679	6.788445	2.299987	0.000272
1781	1.7711e+02	-9.0912	-84.210614	0.000456	4.559403	1.544768	0.000183
1782	1.7721e+02	-9.0463	-83.992609	0.000547	5.471284	1.853721	0.000219
1783	1.7731e+02	-9.0078	-83.790752	0.000507	5.066003	1.716408	0.000203
1784	1.7741e+02	-8.9645	-83.584858	0.000517	5.167323	1.750737	0.000207
1785	1.7751e+02	-8.9340	-83.378964	0.000517	5.167323	1.750737	0.000207
1786	1.7761e+02	-8.8907	-83.169033	0.000527	5.268644	1.785065	0.000211
1787	1.7771e+02	-8.8441	-82.942954	0.000567	5.673924	1.922377	0.000227
1788	1.7781e+02	-8.8088	-82.728986	0.000537	5.369964	1.819393	0.000215
1789	1.7791e+02	-8.7671	-82.498869	0.000578	5.775244	1.956706	0.000231
1790	1.7801e+02	-8.7238	-82.341421	0.000395	3.951483	1.338799	0.000158
1791	1.7810e+02	-8.6933	-82.115341	0.000567	5.673924	1.922377	0.000227
1792	1.7820e+02	-8.6484	-81.865038	0.000628	6.281844	2.128346	0.000252
1793	1.7830e+02	-8.6051	-81.634922	0.000578	5.775244	1.956706	0.000231
1794	1.7840e+02	-8.5650	-81.461325	0.000436	4.356763	1.476111	0.000174
1795	1.7850e+02	-8.5313	-81.251394	0.000527	5.268644	1.785065	0.000211
1796	1.7860e+02	-8.4912	-81.033389	0.000547	5.471284	1.853721	0.000219
1797	1.7870e+02	-8.4479	-80.811346	0.000557	5.572604	1.888049	0.000223
1798	1.7880e+02	-8.4078	-80.589304	0.000557	5.572604	1.888049	0.000223
1799	1.7890e+02	-8.3709	-80.383410	0.000517	5.167323	1.750737	0.000207
1800	1.7900e+02	-8.3276	-80.169441	0.000537	5.369964	1.819393	0.000215
1801	1.7910e+02	-8.2907	-79.967585	0.000507	5.066003	1.716408	0.000203
1802	1.7920e+02	-8.2425	-79.729394	0.000598	5.977884	2.025362	0.000239
1803	1.7930e+02	-8.2089	-79.503314	0.000567	5.673924	1.922377	0.000227
1804	1.7940e+02	-8.1720	-79.313569	0.000476	4.762043	1.613424	0.000191
1805	1.7950e+02	-8.1303	-79.083452	0.000578	5.775244	1.956706	0.000231
1806	1.7960e+02	-8.0918	-78.841224	0.000608	6.079204	2.059690	0.000243
1807	1.7970e+02	-8.0452	-78.671664	0.000426	4.255443	1.441783	0.000170
1808	1.7980e+02	-8.0067	-78.437510	0.000588	5.876564	1.991034	0.000235
1809	1.7990e+02	-7.9650	-78.167022	0.000679	6.788445	2.299987	0.000272
1810	1.8000e+02	-7.9361	-78.005537	0.000405	4.052803	1.373127	0.000162
1811	1.8009e+02	-7.8912	-77.771383	0.000588	5.876564	1.991034	0.000235
1812	1.8019e+02	-7.8543	-77.525118	0.000618	6.180524	2.094018	0.000248
1813	1.8029e+02	-7.8158	-77.347484	0.000446	4.458083	1.510439	0.000179
1814	1.8039e+02	-7.7629	-77.081033	0.000669	6.687124	2.265659	0.000268
1815	1.8049e+02	-7.7276	-76.907436	0.000436	4.356763	1.476111	0.000174
1816	1.8059e+02	-7.6955	-76.657133	0.000628	6.281844	2.128346	0.000252
1817	1.8069e+02	-7.6570	-76.427017	0.000578	5.775244	1.956706	0.000231
1818	1.8079e+02	-7.6233	-76.209011	0.000547	5.471284	1.853721	0.000219
1819	1.8089e+02	-7.5768	-76.019266	0.000476	4.762043	1.613424	0.000191
1820	1.8099e+02	-7.5287	-75.768964	0.000628	6.281844	2.128346	0.000252
1821	1.8109e+02	-7.5062	-75.538847	0.000578	5.775244	1.956706	0.000231
1822	1.8119e+02	-7.4501	-75.316804	0.000557	5.572604	1.888049	0.000223
1823	1.8129e+02	-7.4116	-75.102836	0.000537	5.369964	1.819393	0.000215
1824	1.8139e+02	-7.3795	-74.860608	0.000608	6.079204	2.059690	0.000243
1825	1.8149e+02	-7.3297	-74.650677	0.000527	5.268644	1.785065	0.000211
1826	1.8159e+02	-7.2961	-74.416523	0.000588	5.876564	1.991034	0.000235
1827	1.8169e+02	-7.2559	-74.190443	0.000567	5.673924	1.922377	0.000227
1828	1.8179e+02	-7.2223	-73.972438	0.000547	5.471284	1.853721	0.000219
1829	1.8189e+02	-7.1822	-73.786730	0.000466	4.660723	1.579096	0.000187
1830	1.8199e+02	-7.1276	-73.504130	0.000709	7.092405	2.402972	0.000284
1831	1.8209e+02	-7.1019	-73.330534	0.000436	4.356763	1.476111	0.000174
1832	1.8218e+02	-7.0554	-73.064083	0.000669	6.687124	2.265659	0.000268
1833	1.8228e+02	-7.0137	-72.842040	0.000557	5.572604	1.888049	0.000223
1834	1.8238e+02	-6.9752	-72.599812	0.000608	6.079204	2.059690	0.000243
1835	1.8248e+02	-6.9303	-72.401992	0.000496	4.964683	1.682080	0.000199
1836	1.8258e+02	-6.8918	-72.143616	0.000648	6.484484	2.197003	0.000260
1837	1.8268e+02	-6.8485	-71.893313	0.000628	6.281844	2.128346	0.000252
1838	1.8278e+02	-6.8132	-71.691456	0.000507	5.066003	1.716408	0.000203
1839	1.8288e+02	-6.7843	-71.481525	0.000527	5.268644	1.785065	0.000211
1840	1.8298e+02	-6.7378	-71.239297	0.000608	6.079204	2.059690	0.000243
1841	1.8308e+02	-6.6913	-70.980921	0.000648	6.484484	2.197003	0.000260
1842	1.8318e+02	-6.6560	-70.787138	0.000486	4.863363	1.647752	0.000195
1843	1.8328e+02	-6.6159	-70.565096	0.000557	5.572604	1.888049	0.000223
1844	1.8338e+02	-6.5709	-70.306719	0.000648	6.484484	2.197003	0.000260
1845	1.8348e+02	-6.5421	-70.084676	0.000557	5.572604	1.888049	0.000223
1846	1.8358e+02	-6.5084	-69.830337	0.000638	6.383164	2.162675	0.000256
1847	1.8368e+02	-6.4602	-69.620406	0.000527	5.268644	1.785065	0.000211
1848	1.8378e+02	-6.4185	-69.410475	0.000527	5.268644	1.785065	0.000211
1849	1.8388e+02	-6.3816	-69.172284	0.000598	5.977884	2.025362	0.000239
1850	1.8398e+02	-6.3463	-68.917944	0.000638	6.383164	2.162675	0.000256
1851	1.8407e+02	-6.3014	-68.716087	0.000507	5.066003	1.716408	0.000203
1852	1.8417e+02	-6.2549	-68.453674	0.000659	6.585804	2.231331	0.000264
1853	1.8427e+02	-6.2244	-68.227594	0.000567	5.673924	1.922377	0.000227
1854	1.8437e+02	-6.1763	-67.936920	0.000730	7.295045	2.471628	0.000292
1855	1.8447e+02	-6.1474	-67.747175	0.000476	4.762043	1.613424	0.000191
1856	1.8457e+02	-6.0993	-67.525132	0.000557	5.572604	1.888049	0.000223
1857	1.8467e+02	-6.0640	-67.270793	0.000638	6.383164	2.162675	0.000256
1858	1.8477e+02	-6.0271	-67.040676	0.000578	5.775244	1.956706	0.000231
1859	1.8487e+02	-5.9854	-66.754039	0.000719	7.193725	2.437300	0.000288
1860	1.8497e+02	-5.9421	-66.544108	0.000527	5.268644	1.785065	0.000211
1861	1.8507e+02	-5.9052	-66.326103	0.000547	5.471284	1.853721	0.000219
1862	1.8517e+02	-5.8619	-66.055615	0.000679	6.788445	2.299987	0.000272
1863	1.8527e+02	-5.8089	-65.837610	0.000547	5.471284	1.853721	0.000219
1864	1.8537e+02	-5.7833	-65.579233	0.000648	6.484484	2.197003	0.000260
1865	1.8547e+02	-5.7496	-65.369302	0.000527	5.268644	1.785065	0.000211
1866	1.8557e+02	-5.7063	-65.090740	0.000699	6.991085	2.368644	0.000280
1867	1.8567e+02	-5.6694	-64.880808	0.000527	5.268644	1.785065	0.000211
1868	1.8577e+02	-5.6260	-64.602246	0.000699	6.991085	2.368644	0.000280
1869	1.8587e+02	-5.5827	-64.380204	0.000557	5.572604	1.888049	0.000223
1870	1.8597e+02	-5.5474	-64.158161	0.000557	5.572604	1.888049	0.000223
1871	1.8606e+02	-5.5009	-63.895747	0.000659	6.585804	2.231331	0.000264
1872	1.8616e+02	-5.4640	-63.637371	0.000648	6.484484	2.197003	0.000260
1873	1.8626e+02	-5.4303	-63.391105	0.000618	6.180524	2.094018	0.000248
1874	1.8636e+02	-5.3838	-63.116580	0.000689	6.889765	2.334315	0.000276
1875	1.8646e+02	-5.3453	-62.898575	0.000547	5.471284	1.853721	0.000219
1876	1.8656e+02	-5.3020	-62.652310	0.000618	6.180524	2.094018	0.000248
1877	1.8666e+02	-5.2651	-62.410081	0.000608	6.079204	2.059690	0.000243
1878	1.8676e+02	-5.2266	-62.175928	0.000588	5.876564	1.991034	0.000235
1879	1.8686e+02	-5.1817	-61.917551	0.000648	6.484484	2.197003	0.000260
1880	1.8696e+02	-5.1416	-61.647063	0.000679	6.788445	2.299987	0.000272
1881	1.8706e+02	-5.1095	-61.433095	0.000537	5.369964	1.819393	0.000215
1882	1.8716e+02	-5.0710	-61.202978	0.000578	5.775244	1.956706	0.000231
1883	1.8726e+02	-5.0245	-60.912304	0.000730	7.295045	2.471628	0.000292
1884	1.8736e+02	-4.9860	-60.682187	0.000578	5.775244	1.956706	0.000231
1885	1.8746e+02	-4.9442	-60.375365	0.000770	7.700325	2.608941	0.000308
1886	1.8756e+02	-4.9090	-60.161397	0.000537	5.369964	1.819393	0.000215
1887	1.8766e+02	-4.8656	-59.903020	0.000648	6.484484	2.197003	0.000260
1888	1.8776e+02	-4.8287	-59.652718	0.000628	6.281844	2.128346	0.000252
1889	1.8786e+02	-4.7870	-59.378192	0.000689	6.889765	2.334315	0.000276
1890	1.8796e+02	-4.7517	-59.148076	0.000578	5.775244	1.956706	0.000231
1891	1.8806e+02	-4.7084	-58.885662	0.000659	6.585804	2.231331	0.000264
1892	1.8815e+02	-4.6635	-58.623248	0.000659	6.585804	2.231331	0.000264
1893	1.8825e+02	-4.6282	-58.376983	0.000618	6.180524	2.094018	0.000248
1894	1.8835e+02	-4.5849	-58.179163	0.000496	4.964683	1.682080	0.000199
1895	1.8845e+02	-4.5512	-57.924824	0.000638	6.383164	2.162675	0.000256
1896	1.8855e+02	-4.5079	-57.682595	0.000608	6.079204	2.059690	0.000243
1897	1.8865e+02	-4.4710	-57.359625	0.000811	8.105605	2.746253	0.000325
1898	1.8875e+02	-4.4213	-57.149694	0.000527	5.268644	1.785065	0.000211
1899	1.8885e+02	-4.3924	-56.907465	0.000608	6.079204	2.059690	0.000243
1900	1.8895e+02	-4.3491	-56.596606	0.000780	7.801645	2.643269	0.000312
1901	1.8905e+02	-4.3090	-56.314006	0.000709	7.092405	2.402972	0.000284
1902	1.8915e+02	-4.2592	-56.071778	0.000608	6.079204	2.059690	0.000243
1903	1.8925e+02	-4.2288	-55.825513	0.000618	6.180524	2.094018	0.000248
1904	1.8935e+02	-4.1935	-55.591359	0.000588	5.876564	1.991034	0.000235
1905	1.8945e+02	-4.1485	-55.292611	0.000750	7.497685	2.540284	0.000300
1906	1.8955e+02	-4.1133	-55.026160	0.000669	6.687124	2.265659	0.000268
1907	1.8965e+02	-4.0619	-54.739523	0.000719	7.193725	2.437300	0.000288
1908	1.8975e+02	-4.0282	-54.521518	0.000547	5.471284	1.853721	0.000219
1909	1.8985e+02	-3.9833	-54.283327	0.000598	5.977884	2.025362	0.000239
1910	1.8995e+02	-3.9544	-54.004765	0.000699	6.991085	2.368644	0.000280
1911	1.9004e+02	-3.9047	-53.710054	0.000740	7.396365	2.505956	0.000296
1912	1.9014e+02	-3.8678	-53.427454	0.000709	7.092405	2.402972	0.000284
1913	1.9024e+02	-3.8325	-53.156966	0.000679	6.788445	2.299987	0.000272
1914	1.9034e+02	-3.7876	-52.926850	0.000578	5.775244	1.956706	0.000231
1915	1.9044e+02	-3.7491	-52.640213	0.000719	7.193725	2.437300	0.000288
1916	1.9054e+02	-3.6978	-52.373762	0.000669	6.687124	2.265659	0.000268
1917	1.9064e+02	-3.6721	-52.123460	0.000628	6.281844	2.128346	0.000252
1918	1.9074e+02	-3.6368	-51.828749	0.000740	7.396365	2.505956	0.000296
1919	1.9084e+02	-3.5903	-51.570372	0.000648	6.484484	2.197003	0.000260
1920	1.9094e+02	-3.5486	-51.267587	0.000760	7.599005	2.574613	0.000304
1921	1.9104e+02	-3.5133	-51.025359	0.000608	6.079204	2.059690	0.000243
1922	1.9114e+02	-3.4732	-50.742759	0.000709	7.092405	2.402972	0.000284
1923	1.9124e+02	-3.4315	-50.452085	0.000730	7.295045	2.471628	0.000292
1924	1.9134e+02	-3.3881	-50.185634	0.000669	6.687124	2.265659	0.000268
1925	1.9144e+02	-3.3448	-49.923221	0.000659	6.585804	2.231331	0.000264
1926	1.9154e+02	-3.3063	-49.648695	0.000689	6.889765	2.334315	0.000276
1927	1.9164e+02	-3.2710	-49.374170	0.000689	6.889765	2.334315	0.000276
1928	1.9174e+02	-3.2373	-49.079459	0.000740	7.396365	2.505956	0.000296
1929	1.9184e+02	-3.1956	-48.837231	0.000608	6.079204	2.059690	0.000243
1930	1.9194e+02	-3.1523	-48.566743	0.000679	6.788445	2.299987	0.000272
1931	1.9203e+02	-3.1138	-48.288181	0.000699	6.991085	2.368644	0.000280
1932	1.9213e+02	-3.0689	-48.009618	0.000699	6.991085	2.368644	0.000280
1933	1.9223e+02	-3.0336	-47.739130	0.000679	6.788445	2.299987	0.000272
1934	1.9233e+02	-2.9983	-47.476716	0.000659	6.585804	2.231331	0.000264
1935	1.9243e+02	-2.9630	-47.190080	0.000719	7.193725	2.437300	0.000288
1936	1.9253e+02	-2.9213	-46.891332	0.000750	7.497685	2.540284	0.000300
1937	1.9263e+02	-2.8748	-46.612769	0.000699	6.991085	2.368644	0.000280
1938	1.9273e+02	-2.8379	-46.374578	0.000598	5.977884	2.025362	0.000239
1939	1.9283e+02	-2.7994	-46.071793	0.000760	7.599005	2.574613	0.000304
1940	1.9293e+02	-2.7513	-45.777082	0.000740	7.396365	2.505956	0.000296
1941	1.9303e+02	-2.7144	-45.486408	0.000730	7.295045	2.471628	0.000292
1942	1.9313e+02	-2.6743	-45.219957	0.000669	6.687124	2.265659	0.000268
1943	1.9323e+02	-2.6277	-44.896987	0.000811	8.105605	2.746253	0.000325
1944	1.9333e+02	-2.6053	-44.630536	0.000669	6.687124	2.265659	0.000268
1945	1.9343e+02	-2.5555	-44.376196	0.000638	6.383164	2.162675	0.000256
1946	1.9353e+02	-2.5186	-44.077448	0.000750	7.497685	2.540284	0.000300
1947	1.9363e+02	-2.4753	-43.806960	0.000679	6.788445	2.299987	0.000272
1948	1.9373e+02	-2.4368	-43.488026	0.000800	8.004285	2.711925	0.000321
1949	1.9383e+02	-2.3935	-43.213501	0.000689	6.889765	2.334315	0.000276
1950	1.9393e+02	-2.3598	-42.878419	0.000841	8.409566	2.849238	0.000337
1951	1.9403e+02	-2.3037	-42.587745	0.000730	7.295045	2.471628	0.000292
1952	1.9412e+02	-2.2796	-42.381851	0.000517	5.167323	1.750737	0.000207
1953	1.9422e+02	-2.2315	-42.087140	0.000740	7.396365	2.505956	0.000296
1954	1.9432e+02	-2.1962	-41.748021	0.000851	8.510886	2.883566	0.000341
1955	1.9442e+02	-2.1593	-41.421013	0.000821	8.206925	2.780582	0.000329
1956	1.9452e+02	-2.1160	-41.207044	0.000537	5.369964	1.819393	0.000215
1957	1.9462e+02	-2.0743	-40.888111	0.000800	8.004285	2.711925	0.000321
1958	1.9472e+02	-2.0390	-40.609548	0.000699	6.991085	2.368644	0.000280
1959	1.9482e+02	-2.0053	-40.286578	0.000811	8.105605	2.746253	0.000325
1960	1.9492e+02	-1.9540	-39.995904	0.000730	7.295045	2.471628	0.000292
1961	1.9502e+02	-1.9187	-39.701193	0.000740	7.396365	2.505956	0.000296
1962	1.9512e+02	-1.8705	-39.426668	0.000689	6.889765	2.334315	0.000276
1963	1.9522e+02	-1.8288	-39.111771	0.000790	7.902965	2.677597	0.000316
1964	1.9532e+02	-1.7887	-38.796874	0.000790	7.902965	2.677597	0.000316
1965	1.9542e+02	-1.7614	-38.522349	0.000689	6.889765	2.334315	0.000276
1966	1.9552e+02	-1.7101	-38.215527	0.000770	7.700325	2.608941	0.000308
1967	1.9562e+02	-1.6700	-37.928890	0.000719	7.193725	2.437300	0.000288
1968	1.9572e+02	-1.6315	-37.565548	0.000912	9.118806	3.089535	0.000365
1969	1.9582e+02	-1.6042	-37.307171	0.000648	6.484484	2.197003	0.000260
1970	1.9592e+02	-1.5577	-37.020535	0.000719	7.193725	2.437300	0.000288
1971	1.9601e+02	-1.5096	-36.705638	0.000790	7.902965	2.677597	0.000316
1972	1.9611e+02	-1.4759	-36.386704	0.000800	8.004285	2.711925	0.000321
1973	1.9621e+02	-1.4518	-36.079882	0.000770	7.700325	2.608941	0.000308
1974	1.9631e+02	-1.3957	-35.785171	0.000740	7.396365	2.505956	0.000296
1975	1.9641e+02	-1.3620	-35.490460	0.000740	7.396365	2.505956	0.000296
1976	1.9651e+02	-1.3203	-35.155378	0.000841	8.409566	2.849238	0.000337
1977	1.9661e+02	-1.2770	-34.828370	0.000821	8.206925	2.780582	0.000329
1978	1.9671e+02	-1.2481	-34.533659	0.000740	7.396365	2.505956	0.000296
1979	1.9681e+02	-1.1919	-34.255097	0.000699	6.991085	2.368644	0.000280
1980	1.9691e+02	-1.1583	-33.911940	0.000861	8.612206	2.917894	0.000345
1981	1.9701e+02	-1.1214	-33.613192	0.000750	7.497685	2.540284	0.000300
1982	1.9711e+02	-1.0732	-33.270036	0.000861	8.612206	2.917894	0.000345
1983	1.9721e+02	-1.0460	-33.003585	0.000669	6.687124	2.265659	0.000268
1984	1.9731e+02	-1.0042	-32.632168	0.000932	9.321446	3.158191	0.000373
1985	1.9741e+02	-0.9625	-32.385903	0.000618	6.180524	2.094018	0.000248
1986	1.9751e+02	-0.9208	-32.038709	0.000871	8.713526	2.952222	0.000349
1987	1.9761e+02	-0.8823	-31.711701	0.000821	8.206925	2.780582	0.000329
1988	1.9771e+02	-0.8374	-31.437176	0.000689	6.889765	2.334315	0.000276
1989	1.9781e+02	-0.7989	-31.089982	0.000871	8.713526	2.952222	0.000349
1990	1.9791e+02	-0.7620	-30.807383	0.000709	7.092405	2.402972	0.000284
1991	1.9800e+02	-0.7203	-30.435966	0.000932	9.321446	3.158191	0.000373
1992	1.9810e+02	-0.6866	-30.141255	0.000740	7.396365	2.505956	0.000296
1993	1.9820e+02	-0.6337	-29.822322	0.000800	8.004285	2.711925	0.000321
1994	1.9830e+02	-0.6032	-29.539722	0.000709	7.092405	2.402972	0.000284
1995	1.9840e+02	-0.5679	-29.168306	0.000932	9.321446	3.158191	0.000373
1996	1.9850e+02	-0.5198	-28.861483	0.000770	7.700325	2.608941	0.000308
1997	1.9860e+02	-0.4781	-28.582921	0.000699	6.991085	2.368644	0.000280
1998	1.9870e+02	-0.4444	-28.235727	0.000871	8.713526	2.952222	0.000349
1999	1.9880e+02	-0.3962	-27.945054	0.000730	7.295045	2.471628	0.000292
2000	1.9890e+02	-0.3610	-27.618046	0.000821	8.206925	2.780582	0.000329
2001	1.9900e+02	-0.3192	-27.278926	0.000851	8.510886	2.883566	0.000341
2002	1.9910e+02	-0.2823	-26.980178	0.000750	7.497685	2.540284	0.000300
2003	1.9920e+02	-0.2438	-26.641059	0.000851	8.510886	2.883566	0.000341
2004	1.9930e+02	-0.2037	-26.318088	0.000811	8.105605	2.746253	0.000325
2005	1.9940e+02	-0.1620	-25.995117	0.000811	8.105605	2.746253	0.000325
2006	1.9950e+02	-0.1219	-25.704443	0.000730	7.295045	2.471628	0.000292
2007	1.9960e+02	-0.0738	-25.337064	0.000922	9.220126	3.123863	0.000369
2008	1.9970e+02	-0.0401	-25.030242	0.000770	7.700325	2.608941	0.000308
2009	1.9980e+02	0.0064	-24.703234	0.000770	7.700325	2.608941	0.000329

Center data before PMax,+/-Pr and +/-Vc Calc.

PMax (uC/cm2):	1.26e+02
Pr (uC/cm2):	1.48e+01
-Pr (uC/cm2):	-2.47e+01
PLoss (uC/cm2):	-2.45e+01
-Vc:	-1.87e+00
C (Max-Eff) (nF):	6.28e-01
K (Eff):	2.13e+03
Vert. (+/-Pr) Shift (uC/cm2):	-4.96e+00
Offset (uC/cm2):	1.74e-01

A (Loop Area - uC/cm2·Volts):	2.35e-01



Hysteresis Version: 5.48.1 - Radiant Technologies, Inc., 1999 - 9/12/24

