»»»»»»»»»»»»»»»»»»»»»»»»»»»»»»»»»»»» Hysteresis ««««««««««««««««««««««««««««««««««««
»»»  Executed Version:	5.48.1
»»»  Vision Version:	5.48.4 (R)
»»»  Vision Compiled:	9/18/24
»»»  Driver Version:	5.47.0
»»»  Windows Version:	Windows 8 or 8.1
»»»  Processor Information:	x86 (AMD or Intel) - 32 Processors
»»»  Tester Name:	PMF21124-494 (100V)
»»»  Tester S/N:	PMF21124-494
»»»  Internal Amp Type:	100V RevK 270k
»»»  Internal Amp S/N:	iAB2-596/K     
»»»  Execution Count:	1
»»»»»»»»»»»»»»»»»»»»»»»»»»»»»»»»»»»»»»»»»»««««««««««««««««««««««««««««««««««««««««««

Stored:	6/5/2025 - 14:13:39
Configured:	06/05/25 01:31:43 PM
Executed:	06/05/25 02:13:08 PM

»»»»»»»»»»»»»»»»»»»»»»»»»»»»»»»»»»» Sample Info ««««««««««««««««««««««««««««««««««««
Sample Name:	
Lot Name:	
Wafer Name:	
Die Row/Column:	0/0
Capacitor Number:	0
Sample Area (cm2):	1.00e-04
Sample Thickness (microns):	3.00e-01

Amplifier:	Internal

»»»»»»»»»»»»»»»»»»»»»»»»»»»»»»»»»»» Tester Info «««««««««««««««««««««««««««««««««««
Tester Name:	PMF21124-494 (100V)
Tester Serial Number:	PMF21124-494
Return Signal Amp. Level:	0.19 [Index: 3]

»»»»»»»»»»»»»»»»»»»»»»»»»»»»»»»» Hysteresis Info ««««««««««««««««««««««««««««««««««
Task Name:	Hyst-303
Volts:	20.00
Field:	666.67 (kV/cm)
DCBias:	0.00
DCField:	0.00 (kV/cm)
Hysteresis Period (ms):	1.00e+00
Preset:	Enabled
Preset Delay (ms):	1.00e+03
Profile:	Standard Bipolar

»»»»»»»»»»»»»»»»»»»»»»»»»»»»»»»»»»»»»» Data «««««««««««««««««««««««««««««««««««««««
Points:	2001

Valid Data

Point	Time (ms)	Drive Voltage	Measured Polarization (uC/cm2)	Capacitance (uF)	Normalized Capacitance (uF/cm2)	Dielectric Constant	Instantaneous Current (mA)
   1	0.0000e+00	0.0209	-2.500521	0.000677	6.768480	2.293223	0.054044
   2	5.0000e-04	0.0289	-2.230304	0.000677	6.768480	2.293223	0.054044
   3	1.0000e-03	0.0610	-2.210138	0.000051	0.505110	0.171136	0.004033
   4	1.5000e-03	0.0834	-2.008483	0.000505	5.051105	1.711361	0.040331
   5	2.0000e-03	0.1299	-1.714067	0.000737	7.374613	2.498586	0.058883
   6	2.5000e-03	0.1749	-1.423684	0.000727	7.273591	2.464359	0.058077
   7	3.0000e-03	0.2037	-1.242194	0.000455	4.545994	1.540224	0.036298
   8	3.5000e-03	0.2471	-0.859050	0.000960	9.597099	3.251585	0.076629
   9	4.0000e-03	0.2839	-0.560601	0.000748	7.475635	2.532814	0.059690
  10	4.5000e-03	0.3337	-0.290383	0.000677	6.768480	2.293223	0.054044
  11	5.0000e-03	0.3706	-0.040331	0.000626	6.263370	2.122087	0.050010
  12	5.5000e-03	0.4091	0.173423	0.000535	5.354171	1.814042	0.042751
  13	6.0000e-03	0.4347	0.649329	0.001192	11.920607	4.038811	0.095181
  14	6.5000e-03	0.4909	0.976010	0.000818	8.182789	2.772404	0.065336
  15	7.0000e-03	0.5358	1.274459	0.000748	7.475635	2.532814	0.059690
  16	7.5000e-03	0.5615	1.435783	0.000404	4.040884	1.369088	0.032265
  17	8.0000e-03	0.6032	1.802795	0.000919	9.193010	3.114676	0.073402
  18	8.5000e-03	0.6481	2.093178	0.000727	7.273591	2.464359	0.058077
  19	9.0000e-03	0.6898	2.419859	0.000818	8.182789	2.772404	0.065336
  20	9.5000e-03	0.7283	2.476323	0.000141	1.414309	0.479181	0.011293
  21	1.0000e-02	0.7588	3.178082	0.001758	17.577844	5.955535	0.140352
  22	1.0500e-02	0.8069	3.363604	0.000465	4.647016	1.574452	0.037105
  23	1.1000e-02	0.8454	3.541061	0.000444	4.444972	1.505997	0.035491
  24	1.1500e-02	0.8823	3.912106	0.000929	9.294032	3.148903	0.074209
  25	1.2000e-02	0.9289	4.178290	0.000667	6.667458	2.258996	0.053237
  26	1.2500e-02	0.9593	4.504971	0.000818	8.182789	2.772404	0.065336
  27	1.3000e-02	0.9994	4.779222	0.000687	6.869502	2.327450	0.054850
  28	1.3500e-02	1.0508	5.005075	0.000566	5.657237	1.916724	0.045171
  29	1.4000e-02	1.0829	5.327723	0.000808	8.081767	2.738177	0.064530
  30	1.4500e-02	1.1390	5.735066	0.001020	10.203231	3.456948	0.081469
  31	1.5000e-02	1.1743	6.045615	0.000778	7.778701	2.635495	0.062110
  32	1.5500e-02	1.2128	6.287601	0.000606	6.061325	2.053633	0.048397
  33	1.6000e-02	1.2497	6.646546	0.000899	8.990966	3.046222	0.071789
  34	1.6500e-02	1.2754	6.904665	0.000647	6.465414	2.190542	0.051624
  35	1.7000e-02	1.3411	7.207147	0.000758	7.576657	2.567041	0.060496
  36	1.7500e-02	1.3668	7.517696	0.000778	7.778701	2.635495	0.062110
  37	1.8000e-02	1.4053	7.872608	0.000889	8.889944	3.011995	0.070983
  38	1.8500e-02	1.4486	8.106528	0.000586	5.859281	1.985178	0.046784
  39	1.9000e-02	1.4855	8.429176	0.000808	8.081767	2.738177	0.064530
  40	1.9500e-02	1.5385	8.780056	0.000879	8.788922	2.977767	0.070176
  41	2.0000e-02	1.5705	8.977677	0.000495	4.950082	1.677133	0.039524
  42	2.0500e-02	1.6010	9.175299	0.000495	4.950082	1.677133	0.039524
  43	2.1000e-02	1.6524	9.530212	0.000889	8.889944	3.011995	0.070983
  44	2.1500e-02	1.6860	9.933522	0.001010	10.102209	3.422721	0.080662
  45	2.2000e-02	1.7358	10.312633	0.000950	9.496077	3.217358	0.075822
  46	2.2500e-02	1.7711	10.554619	0.000606	6.061325	2.053633	0.048397
  47	2.3000e-02	1.8096	10.857101	0.000758	7.576657	2.567041	0.060496
  48	2.3500e-02	1.8529	11.179749	0.000808	8.081767	2.738177	0.064530
  49	2.4000e-02	1.8962	11.502397	0.000808	8.081767	2.738177	0.064530
  50	2.4500e-02	1.9283	11.772615	0.000677	6.768480	2.293223	0.054044
  51	2.5000e-02	1.9636	11.994435	0.000556	5.556215	1.882497	0.044364
  52	2.5500e-02	2.0069	12.377580	0.000960	9.597099	3.251585	0.076629
  53	2.6000e-02	2.0454	12.659897	0.000707	7.071546	2.395905	0.056463
  54	2.6500e-02	2.0887	12.994644	0.000838	8.384834	2.840859	0.066949
  55	2.7000e-02	2.1288	13.305192	0.000778	7.778701	2.635495	0.062110
  56	2.7500e-02	2.1673	13.535079	0.000576	5.758259	1.950951	0.045977
  57	2.8000e-02	2.1962	13.885958	0.000879	8.788922	2.977767	0.070176
  58	2.8500e-02	2.2411	14.160209	0.000687	6.869502	2.327450	0.054850
  59	2.9000e-02	2.2892	14.636115	0.001192	11.920607	4.038811	0.095181
  60	2.9500e-02	2.3326	14.970862	0.000838	8.384834	2.840859	0.066949
  61	3.0000e-02	2.3662	15.204782	0.000586	5.859281	1.985178	0.046784
  62	3.0500e-02	2.4063	15.503231	0.000748	7.475635	2.532814	0.059690
  63	3.1000e-02	2.4416	15.708919	0.000515	5.152127	1.745588	0.041138
  64	3.1500e-02	2.4898	16.108196	0.001000	10.001187	3.388494	0.079855
  65	3.2000e-02	2.5299	16.249354	0.000354	3.535773	1.197952	0.028232
  66	3.2500e-02	2.5716	16.664763	0.001041	10.405275	3.525403	0.083082
  67	3.3000e-02	2.6197	16.955147	0.000727	7.273591	2.464359	0.058077
  68	3.3500e-02	2.6582	17.217298	0.000657	6.566436	2.224769	0.052430
  69	3.4000e-02	2.6823	17.600442	0.000960	9.597099	3.251585	0.076629
  70	3.4500e-02	2.7336	17.862594	0.000657	6.566436	2.224769	0.052430
  71	3.5000e-02	2.7769	18.165076	0.000758	7.576657	2.567041	0.060496
  72	3.5500e-02	2.8122	18.479658	0.000788	7.879723	2.669722	0.062916
  73	3.6000e-02	2.8443	18.798273	0.000798	7.980745	2.703950	0.063723
  74	3.6500e-02	2.8892	19.161251	0.000909	9.091988	3.080449	0.072596
  75	3.7000e-02	2.9309	19.407270	0.000616	6.162348	2.087860	0.049204
  76	3.7500e-02	2.9678	19.697654	0.000727	7.273591	2.464359	0.058077
  77	3.8000e-02	3.0047	20.040467	0.000859	8.586878	2.909313	0.068563
  78	3.8500e-02	3.0529	20.330850	0.000727	7.273591	2.464359	0.058077
  79	3.9000e-02	3.0849	20.552670	0.000556	5.556215	1.882497	0.044364
  80	3.9500e-02	3.1234	20.843054	0.000727	7.273591	2.464359	0.058077
  81	4.0000e-02	3.1652	21.222165	0.000950	9.496077	3.217358	0.075822
  82	4.0500e-02	3.2133	21.536747	0.000788	7.879723	2.669722	0.062916
  83	4.1000e-02	3.2518	21.798898	0.000657	6.566436	2.224769	0.052430
  84	4.1500e-02	3.2887	22.198175	0.001000	10.001187	3.388494	0.079855
  85	4.2000e-02	3.3240	22.432094	0.000586	5.859281	1.985178	0.046784
  86	4.2500e-02	3.3641	22.754742	0.000808	8.081767	2.738177	0.064530
  87	4.3000e-02	3.4106	23.020927	0.000667	6.667458	2.258996	0.053237
  88	4.3500e-02	3.4539	23.327442	0.000768	7.677679	2.601268	0.061303
  89	4.4000e-02	3.4780	23.633958	0.000768	7.677679	2.601268	0.061303
  90	4.4500e-02	3.5357	23.904175	0.000677	6.768480	2.293223	0.054044
  91	4.5000e-02	3.5646	24.275220	0.000929	9.294032	3.148903	0.074209
  92	4.5500e-02	3.6031	24.650299	0.000940	9.395054	3.183131	0.075016
  93	4.6000e-02	3.6480	24.884218	0.000586	5.859281	1.985178	0.046784
  94	4.6500e-02	3.6929	25.222999	0.000849	8.485856	2.875086	0.067756
  95	4.7000e-02	3.7250	25.388356	0.000414	4.141906	1.403316	0.033071
  96	4.7500e-02	3.7716	25.723103	0.000838	8.384834	2.840859	0.066949
  97	4.8000e-02	3.8213	26.049784	0.000818	8.182789	2.772404	0.065336
  98	4.8500e-02	3.8421	26.243373	0.000485	4.849060	1.642906	0.038718
  99	4.9000e-02	3.8887	26.654749	0.001030	10.304253	3.491176	0.082275
 100	4.9500e-02	3.9272	26.924966	0.000677	6.768480	2.293223	0.054044
 101	5.0000e-02	3.9657	27.231482	0.000768	7.677679	2.601268	0.061303
 102	5.0500e-02	4.0026	27.404905	0.000434	4.343950	1.471770	0.034685
 103	5.1000e-02	4.0491	27.820314	0.001041	10.405275	3.525403	0.083082
 104	5.1500e-02	4.0844	28.199425	0.000950	9.496077	3.217358	0.075822
 105	5.2000e-02	4.1213	28.445444	0.000616	6.162348	2.087860	0.049204
 106	5.2500e-02	4.1774	28.743894	0.000748	7.475635	2.532814	0.059690
 107	5.3000e-02	4.2063	28.917317	0.000434	4.343950	1.471770	0.034685
 108	5.3500e-02	4.2528	29.260130	0.000859	8.586878	2.909313	0.068563
 109	5.4000e-02	4.2833	29.663440	0.001010	10.102209	3.422721	0.080662
 110	5.4500e-02	4.3346	29.933658	0.000677	6.768480	2.293223	0.054044
 111	5.5000e-02	4.3699	30.207909	0.000687	6.869502	2.327450	0.054850
 112	5.5500e-02	4.4116	30.582987	0.000940	9.395054	3.183131	0.075016
 113	5.6000e-02	4.4534	30.716079	0.000333	3.333729	1.129498	0.026618
 114	5.6500e-02	4.4951	31.127455	0.001030	10.304253	3.491176	0.082275
 115	5.7000e-02	4.5287	31.308944	0.000455	4.545994	1.540224	0.036298
 116	5.7500e-02	4.5705	31.704188	0.000990	9.900165	3.354267	0.079049
 117	5.8000e-02	4.6074	32.103465	0.001000	10.001187	3.388494	0.079855
 118	5.8500e-02	4.6587	32.377716	0.000687	6.869502	2.327450	0.054850
 119	5.9000e-02	4.6860	32.655999	0.000697	6.970524	2.361678	0.055657
 120	5.9500e-02	4.7293	32.926217	0.000677	6.768480	2.293223	0.054044
 121	6.0000e-02	4.7694	33.119806	0.000485	4.849060	1.642906	0.038718
 122	6.0500e-02	4.8111	33.385990	0.000667	6.667458	2.258996	0.053237
 123	6.1000e-02	4.8560	33.692506	0.000768	7.677679	2.601268	0.061303
 124	6.1500e-02	4.8961	33.946591	0.000636	6.364392	2.156314	0.050817
 125	6.2000e-02	4.9282	34.402331	0.001142	11.415496	3.867675	0.091148
 126	6.2500e-02	4.9667	34.640284	0.000596	5.960303	2.019405	0.047591
 127	6.3000e-02	5.0004	34.805641	0.000414	4.141906	1.403316	0.033071
 128	6.3500e-02	5.0469	35.354142	0.001374	13.739004	4.654901	0.109700
 129	6.4000e-02	5.0918	35.499334	0.000364	3.636795	1.232180	0.029038
 130	6.4500e-02	5.1255	35.801816	0.000758	7.576657	2.567041	0.060496
 131	6.5000e-02	5.1704	36.047835	0.000616	6.162348	2.087860	0.049204
 132	6.5500e-02	5.2073	36.229325	0.000455	4.545994	1.540224	0.036298
 133	6.6000e-02	5.2442	36.620535	0.000980	9.799143	3.320039	0.078242
 134	6.6500e-02	5.2892	36.870587	0.000626	6.263370	2.122087	0.050010
 135	6.7000e-02	5.3309	37.241632	0.000929	9.294032	3.148903	0.074209
 136	6.7500e-02	5.3710	37.636876	0.000990	9.900165	3.354267	0.079049
 137	6.8000e-02	5.4095	37.826432	0.000475	4.748038	1.608679	0.037911
 138	6.8500e-02	5.4512	38.193444	0.000919	9.193010	3.114676	0.073402
 139	6.9000e-02	5.4897	38.419297	0.000566	5.657237	1.916724	0.045171
 140	6.9500e-02	5.5266	38.624985	0.000515	5.152127	1.745588	0.041138
 141	7.0000e-02	5.5731	39.000063	0.000940	9.395054	3.183131	0.075016
 142	7.0500e-02	5.6020	39.270281	0.000677	6.768480	2.293223	0.054044
 143	7.1000e-02	5.6469	39.669558	0.001000	10.001187	3.388494	0.079855
 144	7.1500e-02	5.6870	39.883312	0.000535	5.354171	1.814042	0.042751
 145	7.2000e-02	5.7303	40.089000	0.000515	5.152127	1.745588	0.041138
 146	7.2500e-02	5.7736	40.536674	0.001121	11.213452	3.799220	0.089535
 147	7.3000e-02	5.8057	40.895620	0.000899	8.990966	3.046222	0.071789
 148	7.3500e-02	5.8490	40.980315	0.000212	2.121464	0.718771	0.016939
 149	7.4000e-02	5.8923	41.173904	0.000485	4.849060	1.642906	0.038718
 150	7.4500e-02	5.9341	41.553015	0.000950	9.496077	3.217358	0.075822
 151	7.5000e-02	5.9661	41.920027	0.000919	9.193010	3.114676	0.073402
 152	7.5500e-02	6.0030	42.174112	0.000636	6.364392	2.156314	0.050817
 153	7.6000e-02	6.0528	42.436263	0.000657	6.566436	2.224769	0.052430
 154	7.6500e-02	6.0897	42.601621	0.000414	4.141906	1.403316	0.033071
 155	7.7000e-02	6.1266	42.972666	0.000929	9.294032	3.148903	0.074209
 156	7.7500e-02	6.1699	43.105758	0.000333	3.333729	1.129498	0.026618
 157	7.8000e-02	6.2084	43.601829	0.001243	12.425717	4.209947	0.099214
 158	7.8500e-02	6.2405	43.855914	0.000636	6.364392	2.156314	0.050817
 159	7.9000e-02	6.2870	44.158397	0.000758	7.576657	2.567041	0.060496
 160	7.9500e-02	6.3303	44.376184	0.000546	5.455193	1.848269	0.043557
 161	8.0000e-02	6.3672	44.577839	0.000505	5.051105	1.711361	0.040331
 162	8.0500e-02	6.4009	44.948884	0.000929	9.294032	3.148903	0.074209
 163	8.1000e-02	6.4586	45.283631	0.000838	8.384834	2.840859	0.066949
 164	8.1500e-02	6.4843	45.549816	0.000667	6.667458	2.258996	0.053237
 165	8.2000e-02	6.5292	45.739371	0.000475	4.748038	1.608679	0.037911
 166	8.2500e-02	6.5709	46.053953	0.000788	7.879723	2.669722	0.062916
 167	8.3000e-02	6.6014	46.348369	0.000737	7.374613	2.498586	0.058883
 168	8.3500e-02	6.6528	46.529859	0.000455	4.545994	1.540224	0.036298
 169	8.4000e-02	6.6961	46.925102	0.000990	9.900165	3.354267	0.079049
 170	8.4500e-02	6.7217	47.223552	0.000748	7.475635	2.532814	0.059690
 171	8.5000e-02	6.7731	47.517968	0.000737	7.374613	2.498586	0.058883
 172	8.5500e-02	6.8100	47.687358	0.000424	4.242928	1.437543	0.033878
 173	8.6000e-02	6.8533	48.058403	0.000929	9.294032	3.148903	0.074209
 174	8.6500e-02	6.8838	48.191495	0.000333	3.333729	1.129498	0.026618
 175	8.7000e-02	6.9303	48.558507	0.000919	9.193010	3.114676	0.073402
 176	8.7500e-02	6.9656	48.836791	0.000697	6.970524	2.361678	0.055657
 177	8.8000e-02	7.0073	49.102975	0.000667	6.667458	2.258996	0.053237
 178	8.8500e-02	7.0490	49.264299	0.000404	4.040884	1.369088	0.032265
 179	8.9000e-02	7.0811	49.627278	0.000909	9.091988	3.080449	0.072596
 180	8.9500e-02	7.1212	50.026555	0.001000	10.001187	3.388494	0.079855
 181	9.0000e-02	7.1629	50.316938	0.000727	7.273591	2.464359	0.058077
 182	9.0500e-02	7.2014	50.445997	0.000323	3.232707	1.095271	0.025812
 183	9.1000e-02	7.2431	50.796877	0.000879	8.788922	2.977767	0.070176
 184	9.1500e-02	7.2848	51.014664	0.000546	5.455193	1.848269	0.043557
 185	9.2000e-02	7.3249	51.365544	0.000879	8.788922	2.977767	0.070176
 186	9.2500e-02	7.3714	51.615596	0.000626	6.263370	2.122087	0.050010
 187	9.3000e-02	7.4100	51.869681	0.000636	6.364392	2.156314	0.050817
 188	9.3500e-02	7.4501	52.172164	0.000758	7.576657	2.567041	0.060496
 189	9.4000e-02	7.4886	52.402050	0.000576	5.758259	1.950951	0.045977
 190	9.4500e-02	7.5335	52.640003	0.000596	5.960303	2.019405	0.047591
 191	9.5000e-02	7.5624	52.930386	0.000727	7.273591	2.464359	0.058077
 192	9.5500e-02	7.6169	53.180438	0.000626	6.263370	2.122087	0.050010
 193	9.6000e-02	7.6474	53.386126	0.000515	5.152127	1.745588	0.041138
 194	9.6500e-02	7.6891	53.632145	0.000616	6.162348	2.087860	0.049204
 195	9.7000e-02	7.7260	53.938661	0.000768	7.677679	2.601268	0.061303
 196	9.7500e-02	7.7661	54.253242	0.000788	7.879723	2.669722	0.062916
 197	9.8000e-02	7.8110	54.563791	0.000778	7.778701	2.635495	0.062110
 198	9.8500e-02	7.8511	54.785611	0.000556	5.556215	1.882497	0.044364
 199	9.9000e-02	7.8848	55.088094	0.000758	7.576657	2.567041	0.060496
 200	9.9500e-02	7.9313	55.378477	0.000727	7.273591	2.464359	0.058077
 201	1.0000e-01	7.9650	55.604330	0.000566	5.657237	1.916724	0.045171
 202	1.0050e-01	8.0147	56.027806	0.001061	10.607320	3.593857	0.084695
 203	1.0100e-01	8.0549	56.160898	0.000333	3.333729	1.129498	0.026618
 204	1.0150e-01	8.0901	56.406917	0.000616	6.162348	2.087860	0.049204
 205	1.0200e-01	8.1335	56.761830	0.000889	8.889944	3.011995	0.070983
 206	1.0250e-01	8.1671	56.927187	0.000414	4.141906	1.403316	0.033071
 207	1.0300e-01	8.2089	57.161106	0.000586	5.859281	1.985178	0.046784
 208	1.0350e-01	8.2506	57.467622	0.000768	7.677679	2.601268	0.061303
 209	1.0400e-01	8.2810	57.778171	0.000778	7.778701	2.635495	0.062110
 210	1.0450e-01	8.3260	58.012090	0.000586	5.859281	1.985178	0.046784
 211	1.0500e-01	8.3597	58.237944	0.000566	5.657237	1.916724	0.045171
 212	1.0550e-01	8.4030	58.564625	0.000818	8.182789	2.772404	0.065336
 213	1.0600e-01	8.4543	58.826776	0.000657	6.566436	2.224769	0.052430
 214	1.0650e-01	8.4912	59.080861	0.000636	6.364392	2.156314	0.050817
 215	1.0700e-01	8.5201	59.298649	0.000546	5.455193	1.848269	0.043557
 216	1.0750e-01	8.5698	59.633396	0.000838	8.384834	2.840859	0.066949
 217	1.0800e-01	8.6051	59.843117	0.000525	5.253149	1.779815	0.041944
 218	1.0850e-01	8.6484	60.068971	0.000566	5.657237	1.916724	0.045171
 219	1.0900e-01	8.6821	60.306923	0.000596	5.960303	2.019405	0.047591
 220	1.0950e-01	8.7254	60.718299	0.001030	10.304253	3.491176	0.082275
 221	1.1000e-01	8.7703	60.940120	0.000556	5.556215	1.882497	0.044364
 222	1.1050e-01	8.8072	61.153874	0.000535	5.354171	1.814042	0.042751
 223	1.1100e-01	8.8506	61.440224	0.000717	7.172568	2.430132	0.057270
 224	1.1150e-01	8.8826	61.553151	0.000283	2.828619	0.958362	0.022585
 225	1.1200e-01	8.9227	61.839501	0.000717	7.172568	2.430132	0.057270
 226	1.1250e-01	8.9693	62.182314	0.000859	8.586878	2.909313	0.068563
 227	1.1300e-01	9.0014	62.436399	0.000636	6.364392	2.156314	0.050817
 228	1.1350e-01	9.0559	62.646121	0.000525	5.253149	1.779815	0.041944
 229	1.1400e-01	9.0880	62.952636	0.000768	7.677679	2.601268	0.061303
 230	1.1450e-01	9.1265	63.259152	0.000768	7.677679	2.601268	0.061303
 231	1.1500e-01	9.1698	63.626164	0.000919	9.193010	3.114676	0.073402
 232	1.1550e-01	9.2243	63.650362	0.000061	0.606133	0.205363	0.004840
 233	1.1600e-01	9.2516	63.948811	0.000748	7.475635	2.532814	0.059690
 234	1.1650e-01	9.2821	64.202897	0.000636	6.364392	2.156314	0.050817
 235	1.1700e-01	9.3254	64.505379	0.000758	7.576657	2.567041	0.060496
 236	1.1750e-01	9.3783	64.799795	0.000737	7.374613	2.498586	0.058883
 237	1.1800e-01	9.4136	65.037748	0.000596	5.960303	2.019405	0.047591
 238	1.1850e-01	9.4553	65.311999	0.000687	6.869502	2.327450	0.054850
 239	1.1900e-01	9.4842	65.525753	0.000535	5.354171	1.814042	0.042751
 240	1.1950e-01	9.5291	65.719342	0.000485	4.849060	1.642906	0.038718
 241	1.2000e-01	9.5692	66.037957	0.000798	7.980745	2.703950	0.063723
 242	1.2050e-01	9.6190	66.312207	0.000687	6.869502	2.327450	0.054850
 243	1.2100e-01	9.6527	66.477564	0.000414	4.141906	1.403316	0.033071
 244	1.2150e-01	9.6848	66.804245	0.000818	8.182789	2.772404	0.065336
 245	1.2200e-01	9.7281	66.965569	0.000404	4.040884	1.369088	0.032265
 246	1.2250e-01	9.7650	67.336614	0.000929	9.294032	3.148903	0.074209
 247	1.2300e-01	9.8131	67.622964	0.000717	7.172568	2.430132	0.057270
 248	1.2350e-01	9.8388	67.756057	0.000333	3.333729	1.129498	0.026618
 249	1.2400e-01	9.8901	68.010142	0.000636	6.364392	2.156314	0.050817
 250	1.2450e-01	9.9302	68.304558	0.000737	7.374613	2.498586	0.058883
 251	1.2500e-01	9.9719	68.417485	0.000283	2.828619	0.958362	0.022585
 252	1.2550e-01	10.0072	68.784497	0.000919	9.193010	3.114676	0.073402
 253	1.2600e-01	10.0585	69.074880	0.000727	7.273591	2.464359	0.058077
 254	1.2650e-01	10.0874	69.300733	0.000566	5.657237	1.916724	0.045171
 255	1.2700e-01	10.1291	69.421726	0.000303	3.030663	1.026816	0.024199
 256	1.2750e-01	10.1708	69.825036	0.001010	10.102209	3.422721	0.080662
 257	1.2800e-01	10.2061	69.990393	0.000414	4.141906	1.403316	0.033071
 258	1.2850e-01	10.2575	70.236412	0.000616	6.162348	2.087860	0.049204
 259	1.2900e-01	10.2944	70.478398	0.000606	6.061325	2.053633	0.048397
 260	1.2950e-01	10.3216	70.784914	0.000768	7.677679	2.601268	0.061303
 261	1.3000e-01	10.3730	70.978502	0.000485	4.849060	1.642906	0.038718
 262	1.3050e-01	10.4083	71.297117	0.000798	7.980745	2.703950	0.063723
 263	1.3100e-01	10.4500	71.454408	0.000394	3.939862	1.334861	0.031458
 264	1.3150e-01	10.4949	71.712526	0.000647	6.465414	2.190542	0.051624
 265	1.3200e-01	10.5270	71.970645	0.000647	6.465414	2.190542	0.051624
 266	1.3250e-01	10.5703	72.313458	0.000859	8.586878	2.909313	0.068563
 267	1.3300e-01	10.6120	72.426385	0.000283	2.828619	0.958362	0.022585
 268	1.3350e-01	10.6409	72.648205	0.000556	5.556215	1.882497	0.044364
 269	1.3400e-01	10.6826	72.978919	0.000828	8.283811	2.806631	0.066143
 270	1.3450e-01	10.7323	73.297534	0.000798	7.980745	2.703950	0.063723
 271	1.3500e-01	10.7692	73.410461	0.000283	2.828619	0.958362	0.022585
 272	1.3550e-01	10.8189	73.660513	0.000626	6.263370	2.122087	0.050010
 273	1.3600e-01	10.8510	73.813771	0.000384	3.838839	1.300634	0.030652
 274	1.3650e-01	10.8943	74.031558	0.000546	5.455193	1.848269	0.043557
 275	1.3700e-01	10.9328	74.382438	0.000879	8.788922	2.977767	0.070176
 276	1.3750e-01	10.9746	74.624423	0.000606	6.061325	2.053633	0.048397
 277	1.3800e-01	11.0098	74.878509	0.000636	6.364392	2.156314	0.050817
 278	1.3850e-01	11.0564	75.047899	0.000424	4.242928	1.437543	0.033878
 279	1.3900e-01	11.0965	75.370547	0.000808	8.081767	2.738177	0.064530
 280	1.3950e-01	11.1334	75.664963	0.000737	7.374613	2.498586	0.058883
 281	1.4000e-01	11.1590	75.919048	0.000636	6.364392	2.156314	0.050817
 282	1.4050e-01	11.2024	76.169100	0.000626	6.263370	2.122087	0.050010
 283	1.4100e-01	11.2585	76.257828	0.000222	2.222486	0.752999	0.017746
 284	1.4150e-01	11.3002	76.495781	0.000596	5.960303	2.019405	0.047591
 285	1.4200e-01	11.3211	76.846661	0.000879	8.788922	2.977767	0.070176
 286	1.4250e-01	11.3692	77.028150	0.000455	4.545994	1.540224	0.036298
 287	1.4300e-01	11.4077	77.342732	0.000788	7.879723	2.669722	0.062916
 288	1.4350e-01	11.4478	77.524221	0.000455	4.545994	1.540224	0.036298
 289	1.4400e-01	11.4911	77.794439	0.000677	6.768480	2.293223	0.054044
 290	1.4450e-01	11.5328	78.020292	0.000566	5.657237	1.916724	0.045171
 291	1.4500e-01	11.5761	78.310676	0.000727	7.273591	2.464359	0.058077
 292	1.4550e-01	11.6130	78.484099	0.000434	4.343950	1.471770	0.034685
 293	1.4600e-01	11.6515	78.673654	0.000475	4.748038	1.608679	0.037911
 294	1.4650e-01	11.7013	78.931773	0.000647	6.465414	2.190542	0.051624
 295	1.4700e-01	11.7237	79.193924	0.000657	6.566436	2.224769	0.052430
 296	1.4750e-01	11.7719	79.403645	0.000525	5.253149	1.779815	0.041944
 297	1.4800e-01	11.8120	79.327016	-0.000192	-1.919420	-0.650317	-0.015326
 298	1.4850e-01	11.8489	79.899716	0.001435	14.345137	4.860264	0.114540
 299	1.4900e-01	11.8922	80.016676	0.000293	2.929641	0.992589	0.023392
 300	1.4950e-01	11.9259	80.298993	0.000707	7.071546	2.395905	0.056463
 301	1.5000e-01	11.9708	80.674071	0.000940	9.395054	3.183131	0.075016
 302	1.5050e-01	12.0141	80.839428	0.000414	4.141906	1.403316	0.033071
 303	1.5100e-01	12.0494	80.920090	0.000202	2.020442	0.684544	0.016132
 304	1.5150e-01	12.0911	81.214507	0.000737	7.374613	2.498586	0.058883
 305	1.5200e-01	12.1296	81.561353	0.000869	8.687900	2.943540	0.069369
 306	1.5250e-01	12.1729	81.855769	0.000737	7.374613	2.498586	0.058883
 307	1.5300e-01	12.2066	82.021126	0.000414	4.141906	1.403316	0.033071
 308	1.5350e-01	12.2563	82.146152	0.000313	3.131685	1.061044	0.025005
 309	1.5400e-01	12.2868	82.464767	0.000798	7.980745	2.703950	0.063723
 310	1.5450e-01	12.3253	82.597859	0.000333	3.333729	1.129498	0.026618
 311	1.5500e-01	12.3783	82.739018	0.000354	3.535773	1.197952	0.028232
 312	1.5550e-01	12.4184	83.081831	0.000859	8.586878	2.909313	0.068563
 313	1.5600e-01	12.4505	83.218957	0.000343	3.434751	1.163725	0.027425
 314	1.5650e-01	12.4825	83.537571	0.000798	7.980745	2.703950	0.063723
 315	1.5700e-01	12.5323	83.924749	0.000970	9.698121	3.285812	0.077435
 316	1.5750e-01	12.5756	83.981212	0.000141	1.414309	0.479181	0.011293
 317	1.5800e-01	12.6125	84.251430	0.000677	6.768480	2.293223	0.054044
 318	1.5850e-01	12.6526	84.396621	0.000364	3.636795	1.232180	0.029038
 319	1.5900e-01	12.6847	84.610376	0.000535	5.354171	1.814042	0.042751
 320	1.5950e-01	12.7296	84.828163	0.000546	5.455193	1.848269	0.043557
 321	1.6000e-01	12.7777	85.134678	0.000768	7.677679	2.601268	0.061303
 322	1.6050e-01	12.8146	85.312135	0.000444	4.444972	1.505997	0.035491
 323	1.6100e-01	12.8451	85.654948	0.000859	8.586878	2.909313	0.068563
 324	1.6150e-01	12.8932	86.025993	0.000929	9.294032	3.148903	0.074209
 325	1.6200e-01	12.9253	86.110688	0.000212	2.121464	0.718771	0.016939
 326	1.6250e-01	12.9766	86.219582	0.000273	2.727596	0.924135	0.021779
 327	1.6300e-01	13.0071	86.429303	0.000525	5.253149	1.779815	0.041944
 328	1.6350e-01	13.0552	86.630958	0.000505	5.051105	1.711361	0.040331
 329	1.6400e-01	13.0825	86.832613	0.000505	5.051105	1.711361	0.040331
 330	1.6450e-01	13.1226	87.179459	0.000869	8.687900	2.943540	0.069369
 331	1.6500e-01	13.1627	87.433545	0.000636	6.364392	2.156314	0.050817
 332	1.6550e-01	13.1996	87.554538	0.000303	3.030663	1.026816	0.024199
 333	1.6600e-01	13.2445	87.731994	0.000444	4.444972	1.505997	0.035491
 334	1.6650e-01	13.2879	88.030443	0.000748	7.475635	2.532814	0.059690
 335	1.6700e-01	13.3232	88.385356	0.000889	8.889944	3.011995	0.070983
 336	1.6750e-01	13.3729	88.498283	0.000283	2.828619	0.958362	0.022585
 337	1.6800e-01	13.4146	88.603143	0.000263	2.626574	0.889907	0.020972
 338	1.6850e-01	13.4499	88.816897	0.000535	5.354171	1.814042	0.042751
 339	1.6900e-01	13.4836	89.087115	0.000677	6.768480	2.293223	0.054044
 340	1.6950e-01	13.5333	89.292803	0.000515	5.152127	1.745588	0.041138
 341	1.7000e-01	13.5702	89.591252	0.000748	7.475635	2.532814	0.059690
 342	1.7050e-01	13.6151	89.675947	0.000212	2.121464	0.718771	0.016939
 343	1.7100e-01	13.6488	89.889702	0.000535	5.354171	1.814042	0.042751
 344	1.7150e-01	13.6761	90.167985	0.000697	6.970524	2.361678	0.055657
 345	1.7200e-01	13.7274	90.369640	0.000505	5.051105	1.711361	0.040331
 346	1.7250e-01	13.7755	90.607593	0.000596	5.960303	2.019405	0.047591
 347	1.7300e-01	13.8060	90.889910	0.000707	7.071546	2.395905	0.056463
 348	1.7350e-01	13.8509	91.079466	0.000475	4.748038	1.608679	0.037911
 349	1.7400e-01	13.8911	91.305319	0.000566	5.657237	1.916724	0.045171
 350	1.7450e-01	13.9231	91.644100	0.000849	8.485856	2.875086	0.067756
 351	1.7500e-01	13.9665	91.708629	0.000162	1.616353	0.547635	0.012906
 352	1.7550e-01	14.0114	91.926416	0.000546	5.455193	1.848269	0.043557
 353	1.7600e-01	14.0483	92.208733	0.000707	7.071546	2.395905	0.056463
 354	1.7650e-01	14.0884	92.386190	0.000444	4.444972	1.505997	0.035491
 355	1.7700e-01	14.1269	92.648341	0.000657	6.566436	2.224769	0.052430
 356	1.7750e-01	14.1766	92.821764	0.000434	4.343950	1.471770	0.034685
 357	1.7800e-01	14.2039	93.063750	0.000606	6.061325	2.053633	0.048397
 358	1.7850e-01	14.2408	93.144412	0.000202	2.020442	0.684544	0.016132
 359	1.7900e-01	14.2777	93.531590	0.000970	9.698121	3.285812	0.077435
 360	1.7950e-01	14.3290	93.749377	0.000546	5.455193	1.848269	0.043557
 361	1.8000e-01	14.3643	93.967164	0.000546	5.455193	1.848269	0.043557
 362	1.8050e-01	14.4221	94.100257	0.000333	3.333729	1.129498	0.026618
 363	1.8100e-01	14.4493	94.301912	0.000505	5.051105	1.711361	0.040331
 364	1.8150e-01	14.4958	94.580195	0.000697	6.970524	2.361678	0.055657
 365	1.8200e-01	14.5343	94.842347	0.000657	6.566436	2.224769	0.052430
 366	1.8250e-01	14.5696	95.011737	0.000424	4.242928	1.437543	0.033878
 367	1.8300e-01	14.6065	95.108531	0.000242	2.424530	0.821453	0.019359
 368	1.8350e-01	14.6515	95.330352	0.000556	5.556215	1.882497	0.044364
 369	1.8400e-01	14.6884	95.527973	0.000495	4.950082	1.677133	0.039524
 370	1.8450e-01	14.7301	95.923217	0.000990	9.900165	3.354267	0.079049
 371	1.8500e-01	14.7718	96.076475	0.000384	3.838839	1.300634	0.030652
 372	1.8550e-01	14.8087	96.358792	0.000707	7.071546	2.395905	0.056463
 373	1.8600e-01	14.8568	96.520116	0.000404	4.040884	1.369088	0.032265
 374	1.8650e-01	14.8889	96.641109	0.000303	3.030663	1.026816	0.024199
 375	1.8700e-01	14.9226	96.822598	0.000455	4.545994	1.540224	0.036298
 376	1.8750e-01	14.9579	97.052485	0.000576	5.758259	1.950951	0.045977
 377	1.8800e-01	15.0060	97.242040	0.000475	4.748038	1.608679	0.037911
 378	1.8850e-01	15.0445	97.367066	0.000313	3.131685	1.061044	0.025005
 379	1.8900e-01	15.0862	97.669549	0.000758	7.576657	2.567041	0.060496
 380	1.8950e-01	15.1375	97.980097	0.000778	7.778701	2.635495	0.062110
 381	1.9000e-01	15.1744	98.129322	0.000374	3.737817	1.266407	0.029845
 382	1.9050e-01	15.2145	98.254348	0.000313	3.131685	1.061044	0.025005
 383	1.9100e-01	15.2482	98.480202	0.000566	5.657237	1.916724	0.045171
 384	1.9150e-01	15.2964	98.718154	0.000596	5.960303	2.019405	0.047591
 385	1.9200e-01	15.3413	98.939975	0.000556	5.556215	1.882497	0.044364
 386	1.9250e-01	15.3750	99.048869	0.000273	2.727596	0.924135	0.021779
 387	1.9300e-01	15.4038	99.266656	0.000546	5.455193	1.848269	0.043557
 388	1.9350e-01	15.4552	99.516708	0.000626	6.263370	2.122087	0.050010
 389	1.9400e-01	15.4825	99.786926	0.000677	6.768480	2.293223	0.054044
 390	1.9450e-01	15.5338	99.936150	0.000374	3.737817	1.266407	0.029845
 391	1.9500e-01	15.5739	100.282997	0.000869	8.687900	2.943540	0.069369
 392	1.9550e-01	15.6076	100.492718	0.000525	5.253149	1.779815	0.041944
 393	1.9600e-01	15.6461	100.686307	0.000485	4.849060	1.642906	0.038718
 394	1.9650e-01	15.6958	100.815366	0.000323	3.232707	1.095271	0.025812
 395	1.9700e-01	15.7263	101.057352	0.000606	6.061325	2.053633	0.048397
 396	1.9750e-01	15.7712	101.174312	0.000293	2.929641	0.992589	0.023392
 397	1.9800e-01	15.8161	101.404198	0.000576	5.758259	1.950951	0.045977
 398	1.9850e-01	15.8450	101.613919	0.000525	5.253149	1.779815	0.041944
 399	1.9900e-01	15.8883	101.956733	0.000859	8.586878	2.909313	0.068563
 400	1.9950e-01	15.9252	102.061593	0.000263	2.626574	0.889907	0.020972
 401	2.0000e-01	15.9669	102.210818	0.000374	3.737817	1.266407	0.029845
 402	2.0050e-01	16.0022	102.456837	0.000616	6.162348	2.087860	0.049204
 403	2.0100e-01	16.0503	102.706889	0.000626	6.263370	2.122087	0.050010
 404	2.0150e-01	16.0889	102.876279	0.000424	4.242928	1.437543	0.033878
 405	2.0200e-01	16.1177	103.021471	0.000364	3.636795	1.232180	0.029038
 406	2.0250e-01	16.1642	103.198927	0.000444	4.444972	1.505997	0.035491
 407	2.0300e-01	16.2092	103.311854	0.000283	2.828619	0.958362	0.022585
 408	2.0350e-01	16.2461	103.565939	0.000636	6.364392	2.156314	0.050817
 409	2.0400e-01	16.2814	103.787759	0.000556	5.556215	1.882497	0.044364
 410	2.0450e-01	16.3343	104.106374	0.000798	7.980745	2.703950	0.063723
 411	2.0500e-01	16.3680	104.368526	0.000657	6.566436	2.224769	0.052430
 412	2.0550e-01	16.4129	104.481452	0.000283	2.828619	0.958362	0.022585
 413	2.0600e-01	16.4498	104.650843	0.000424	4.242928	1.437543	0.033878
 414	2.0650e-01	16.4883	104.884762	0.000586	5.859281	1.985178	0.046784
 415	2.0700e-01	16.5284	105.175145	0.000727	7.273591	2.464359	0.058077
 416	2.0750e-01	16.5733	105.441330	0.000667	6.667458	2.258996	0.053237
 417	2.0800e-01	16.6070	105.493760	0.000131	1.313287	0.444954	0.010486
 418	2.0850e-01	16.6503	105.647018	0.000384	3.838839	1.300634	0.030652
 419	2.0900e-01	16.6904	105.828507	0.000455	4.545994	1.540224	0.036298
 420	2.0950e-01	16.7354	106.094692	0.000667	6.667458	2.258996	0.053237
 421	2.1000e-01	16.7771	106.256016	0.000404	4.040884	1.369088	0.032265
 422	2.1050e-01	16.8140	106.518167	0.000657	6.566436	2.224769	0.052430
 423	2.1100e-01	16.8460	106.598829	0.000202	2.020442	0.684544	0.016132
 424	2.1150e-01	16.8974	106.889212	0.000727	7.273591	2.464359	0.058077
 425	2.1200e-01	16.9327	107.102966	0.000535	5.354171	1.814042	0.042751
 426	2.1250e-01	16.9792	107.344952	0.000606	6.061325	2.053633	0.048397
 427	2.1300e-01	17.0113	107.401416	0.000141	1.414309	0.479181	0.011293
 428	2.1350e-01	17.0450	107.760362	0.000899	8.990966	3.046222	0.071789
 429	2.1400e-01	17.0979	107.994281	0.000586	5.859281	1.985178	0.046784
 430	2.1450e-01	17.1332	108.115274	0.000303	3.030663	1.026816	0.024199
 431	2.1500e-01	17.1621	108.264499	0.000374	3.737817	1.266407	0.029845
 432	2.1550e-01	17.2022	108.486319	0.000556	5.556215	1.882497	0.044364
 433	2.1600e-01	17.2551	108.692007	0.000515	5.152127	1.745588	0.041138
 434	2.1650e-01	17.2920	108.889629	0.000495	4.950082	1.677133	0.039524
 435	2.1700e-01	17.3305	109.054986	0.000414	4.141906	1.403316	0.033071
 436	2.1750e-01	17.3722	109.200178	0.000364	3.636795	1.232180	0.029038
 437	2.1800e-01	17.4043	109.454263	0.000636	6.364392	2.156314	0.050817
 438	2.1850e-01	17.4460	109.651885	0.000495	4.950082	1.677133	0.039524
 439	2.1900e-01	17.4974	109.825308	0.000434	4.343950	1.471770	0.034685
 440	2.1950e-01	17.5278	110.083426	0.000647	6.465414	2.190542	0.051624
 441	2.2000e-01	17.5696	110.224585	0.000354	3.535773	1.197952	0.028232
 442	2.2050e-01	17.6145	110.414140	0.000475	4.748038	1.608679	0.037911
 443	2.2100e-01	17.6514	110.704524	0.000727	7.273591	2.464359	0.058077
 444	2.2150e-01	17.6915	110.793252	0.000222	2.222486	0.752999	0.017746
 445	2.2200e-01	17.7284	111.132032	0.000849	8.485856	2.875086	0.067756
 446	2.2250e-01	17.7733	111.265124	0.000333	3.333729	1.129498	0.026618
 447	2.2300e-01	17.8118	111.410316	0.000364	3.636795	1.232180	0.029038
 448	2.2350e-01	17.8471	111.624070	0.000535	5.354171	1.814042	0.042751
 449	2.2400e-01	17.8936	111.829758	0.000515	5.152127	1.745588	0.041138
 450	2.2450e-01	17.9353	112.007214	0.000444	4.444972	1.505997	0.035491
 451	2.2500e-01	17.9754	112.220969	0.000535	5.354171	1.814042	0.042751
 452	2.2550e-01	18.0043	112.462955	0.000606	6.061325	2.053633	0.048397
 453	2.2600e-01	18.0556	112.563782	0.000253	2.525552	0.855680	0.020165
 454	2.2650e-01	18.0925	112.761404	0.000495	4.950082	1.677133	0.039524
 455	2.2700e-01	18.1326	112.967092	0.000515	5.152127	1.745588	0.041138
 456	2.2750e-01	18.1711	113.100184	0.000333	3.333729	1.129498	0.026618
 457	2.2800e-01	18.2064	113.269574	0.000424	4.242928	1.437543	0.033878
 458	2.2850e-01	18.2562	113.624487	0.000889	8.889944	3.011995	0.070983
 459	2.2900e-01	18.2866	113.717248	0.000232	2.323508	0.787226	0.018552
 460	2.2950e-01	18.3252	113.971333	0.000636	6.364392	2.156314	0.050817
 461	2.3000e-01	18.3813	114.144757	0.000434	4.343950	1.471770	0.034685
 462	2.3050e-01	18.4118	114.394809	0.000626	6.263370	2.122087	0.050010
 463	2.3100e-01	18.4535	114.600497	0.000515	5.152127	1.745588	0.041138
 464	2.3150e-01	18.4920	114.717457	0.000293	2.929641	0.992589	0.023392
 465	2.3200e-01	18.5305	114.951376	0.000586	5.859281	1.985178	0.046784
 466	2.3250e-01	18.5770	115.084469	0.000333	3.333729	1.129498	0.026618
 467	2.3300e-01	18.6171	115.282090	0.000495	4.950082	1.677133	0.039524
 468	2.3350e-01	18.6540	115.548275	0.000667	6.667458	2.258996	0.053237
 469	2.3400e-01	18.6973	115.729764	0.000455	4.545994	1.540224	0.036298
 470	2.3450e-01	18.7278	115.915287	0.000465	4.647016	1.574452	0.037105
 471	2.3500e-01	18.7711	116.032247	0.000293	2.929641	0.992589	0.023392
 472	2.3550e-01	18.8225	116.362961	0.000828	8.283811	2.806631	0.066143
 473	2.3600e-01	18.8578	116.492020	0.000323	3.232707	1.095271	0.025812
 474	2.3650e-01	18.8930	116.657377	0.000414	4.141906	1.403316	0.033071
 475	2.3700e-01	18.9316	116.939694	0.000707	7.071546	2.395905	0.056463
 476	2.3750e-01	18.9781	117.125217	0.000465	4.647016	1.574452	0.037105
 477	2.3800e-01	19.0150	117.165547	0.000101	1.010221	0.342272	0.008066
 478	2.3850e-01	19.0551	117.407533	0.000606	6.061325	2.053633	0.048397
 479	2.3900e-01	19.0952	117.617255	0.000525	5.253149	1.779815	0.041944
 480	2.3950e-01	19.1353	117.843108	0.000566	5.657237	1.916724	0.045171
 481	2.4000e-01	19.1642	117.988300	0.000364	3.636795	1.232180	0.029038
 482	2.4050e-01	19.2107	118.149624	0.000404	4.040884	1.369088	0.032265
 483	2.4100e-01	19.2508	118.355312	0.000515	5.152127	1.745588	0.041138
 484	2.4150e-01	19.2973	118.677959	0.000808	8.081767	2.738177	0.064530
 485	2.4200e-01	19.3374	118.827184	0.000374	3.737817	1.266407	0.029845
 486	2.4250e-01	19.3759	119.044971	0.000546	5.455193	1.848269	0.043557
 487	2.4300e-01	19.4096	119.161931	0.000293	2.929641	0.992589	0.023392
 488	2.4350e-01	19.4513	119.315189	0.000384	3.838839	1.300634	0.030652
 489	2.4400e-01	19.4930	119.597506	0.000707	7.071546	2.395905	0.056463
 490	2.4450e-01	19.5380	119.694300	0.000242	2.424530	0.821453	0.019359
 491	2.4500e-01	19.5716	119.831426	0.000343	3.434751	1.163725	0.027425
 492	2.4550e-01	19.6134	120.081478	0.000626	6.263370	2.122087	0.050010
 493	2.4600e-01	19.6519	120.303298	0.000556	5.556215	1.882497	0.044364
 494	2.4650e-01	19.6936	120.383960	0.000202	2.020442	0.684544	0.016132
 495	2.4700e-01	19.7369	120.629979	0.000616	6.162348	2.087860	0.049204
 496	2.4750e-01	19.7706	120.875998	0.000616	6.162348	2.087860	0.049204
 497	2.4800e-01	19.8171	121.138150	0.000657	6.566436	2.224769	0.052430
 498	2.4850e-01	19.8524	121.206712	0.000172	1.717376	0.581863	0.013713
 499	2.4900e-01	19.8989	121.420467	0.000535	5.354171	1.814042	0.042751
 500	2.4950e-01	19.9294	121.501128	0.000202	2.020442	0.684544	0.016132
 501	2.5000e-01	19.9759	121.747148	0.000616	6.162348	2.087860	0.049204
 502	2.5050e-01	19.9791	121.811677	0.000162	1.616353	0.547635	0.012906
 503	2.5100e-01	19.9486	121.521294	0.000727	7.273591	2.464359	-0.058077
 504	2.5150e-01	19.9230	121.682618	-0.000404	-4.040884	-1.369088	0.032265
 505	2.5200e-01	19.8764	121.480963	0.000505	5.051105	1.711361	-0.040331
 506	2.5250e-01	19.8395	121.283341	0.000495	4.950082	1.677133	-0.039524
 507	2.5300e-01	19.7978	121.226878	0.000141	1.414309	0.479181	-0.011293
 508	2.5350e-01	19.7513	121.033289	0.000485	4.849060	1.642906	-0.038718
 509	2.5400e-01	19.7080	120.871965	0.000404	4.040884	1.369088	-0.032265
 510	2.5450e-01	19.6743	120.771138	0.000253	2.525552	0.855680	-0.020165
 511	2.5500e-01	19.6342	120.609814	0.000404	4.040884	1.369088	-0.032265
 512	2.5550e-01	19.5893	120.533185	0.000192	1.919420	0.650317	-0.015326
 513	2.5600e-01	19.5476	120.424291	0.000273	2.727596	0.924135	-0.021779
 514	2.5650e-01	19.5027	120.174239	0.000626	6.263370	2.122087	-0.050010
 515	2.5700e-01	19.4722	120.146007	0.000071	0.707155	0.239590	-0.005646
 516	2.5750e-01	19.4305	119.811260	0.000838	8.384834	2.840859	-0.066949
 517	2.5800e-01	19.3968	119.645903	0.000414	4.141906	1.403316	-0.033071
 518	2.5850e-01	19.3519	119.577340	0.000172	1.717376	0.581863	-0.013713
 519	2.5900e-01	19.3166	119.456348	0.000303	3.030663	1.026816	-0.024199
 520	2.5950e-01	19.2797	119.295024	0.000404	4.040884	1.369088	-0.032265
 521	2.6000e-01	19.2283	119.121600	0.000434	4.343950	1.471770	-0.034685
 522	2.6050e-01	19.1914	118.867515	0.000636	6.364392	2.156314	-0.050817
 523	2.6100e-01	19.1529	118.690059	0.000444	4.444972	1.505997	-0.035491
 524	2.6150e-01	19.1192	118.484371	0.000515	5.152127	1.745588	-0.041138
 525	2.6200e-01	19.0743	118.496470	-0.000030	-0.303066	-0.102682	0.002420
 526	2.6250e-01	19.0262	118.375477	0.000303	3.030663	1.026816	-0.024199
 527	2.6300e-01	18.9989	118.302881	0.000182	1.818398	0.616090	-0.014519
 528	2.6350e-01	18.9540	118.032664	0.000677	6.768480	2.293223	-0.054044
 529	2.6400e-01	18.9187	117.758413	0.000687	6.869502	2.327450	-0.054850
 530	2.6450e-01	18.8898	117.657586	0.000253	2.525552	0.855680	-0.020165
 531	2.6500e-01	18.8401	117.512394	0.000364	3.636795	1.232180	-0.029038
 532	2.6550e-01	18.7920	117.343004	0.000424	4.242928	1.437543	-0.033878
 533	2.6600e-01	18.7535	117.121183	0.000556	5.556215	1.882497	-0.044364
 534	2.6650e-01	18.7118	117.028422	0.000232	2.323508	0.787226	-0.018552
 535	2.6700e-01	18.6765	116.806602	0.000556	5.556215	1.882497	-0.044364
 536	2.6750e-01	18.6316	116.689642	0.000293	2.929641	0.992589	-0.023392
 537	2.6800e-01	18.5995	116.653344	0.000091	0.909199	0.308045	-0.007260
 538	2.6850e-01	18.5513	116.459755	0.000485	4.849060	1.642906	-0.038718
 539	2.6900e-01	18.5161	116.189538	0.000677	6.768480	2.293223	-0.054044
 540	2.6950e-01	18.4808	116.024181	0.000414	4.141906	1.403316	-0.033071
 541	2.7000e-01	18.4407	115.995949	0.000071	0.707155	0.239590	-0.005646
 542	2.7050e-01	18.3989	115.786228	0.000525	5.253149	1.779815	-0.041944
 543	2.7100e-01	18.3492	115.600705	0.000465	4.647016	1.574452	-0.037105
 544	2.7150e-01	18.3107	115.399050	0.000505	5.051105	1.711361	-0.040331
 545	2.7200e-01	18.2674	115.205462	0.000485	4.849060	1.642906	-0.038718
 546	2.7250e-01	18.2289	115.112700	0.000232	2.323508	0.787226	-0.018552
 547	2.7300e-01	18.1888	114.838450	0.000687	6.869502	2.327450	-0.054850
 548	2.7350e-01	18.1519	114.733589	0.000263	2.626574	0.889907	-0.020972
 549	2.7400e-01	18.1038	114.515802	0.000546	5.455193	1.848269	-0.043557
 550	2.7450e-01	18.0733	114.447239	0.000172	1.717376	0.581863	-0.013713
 551	2.7500e-01	18.0412	114.160889	0.000717	7.172568	2.430132	-0.057270
 552	2.7550e-01	17.9931	113.991499	0.000424	4.242928	1.437543	-0.033878
 553	2.7600e-01	17.9610	113.834208	0.000394	3.939862	1.334861	-0.031458
 554	2.7650e-01	17.9177	113.584156	0.000626	6.263370	2.122087	-0.050010
 555	2.7700e-01	17.8744	113.559957	0.000061	0.606133	0.205363	-0.004840
 556	2.7750e-01	17.8407	113.442997	0.000293	2.929641	0.992589	-0.023392
 557	2.7800e-01	17.7942	113.192945	0.000626	6.263370	2.122087	-0.050010
 558	2.7850e-01	17.7492	113.039688	0.000384	3.838839	1.300634	-0.030652
 559	2.7900e-01	17.7091	112.934827	0.000263	2.626574	0.889907	-0.020972
 560	2.7950e-01	17.6802	112.741238	0.000485	4.849060	1.642906	-0.038718
 561	2.8000e-01	17.6385	112.672676	0.000172	1.717376	0.581863	-0.013713
 562	2.8050e-01	17.5888	112.479087	0.000485	4.849060	1.642906	-0.038718
 563	2.8100e-01	17.5583	112.204836	0.000687	6.869502	2.327450	-0.054850
 564	2.8150e-01	17.5134	111.962850	0.000606	6.061325	2.053633	-0.048397
 565	2.8200e-01	17.4733	111.741030	0.000556	5.556215	1.882497	-0.044364
 566	2.8250e-01	17.4348	111.672467	0.000172	1.717376	0.581863	-0.013713
 567	2.8300e-01	17.3931	111.515176	0.000394	3.939862	1.334861	-0.031458
 568	2.8350e-01	17.3482	111.333687	0.000455	4.545994	1.540224	-0.036298
 569	2.8400e-01	17.3017	111.087668	0.000616	6.162348	2.087860	-0.049204
 570	2.8450e-01	17.2792	110.978774	0.000273	2.727596	0.924135	-0.021779
 571	2.8500e-01	17.2295	110.736788	0.000606	6.061325	2.053633	-0.048397
 572	2.8550e-01	17.1910	110.603696	0.000333	3.333729	1.129498	-0.026618
 573	2.8600e-01	17.1444	110.434306	0.000424	4.242928	1.437543	-0.033878
 574	2.8650e-01	17.1188	110.377843	0.000141	1.414309	0.479181	-0.011293
 575	2.8700e-01	17.0755	110.147956	0.000576	5.758259	1.950951	-0.045977
 576	2.8750e-01	17.0353	109.998731	0.000374	3.737817	1.266407	-0.029845
 577	2.8800e-01	16.9904	109.724481	0.000687	6.869502	2.327450	-0.054850
 578	2.8850e-01	16.9487	109.510726	0.000535	5.354171	1.814042	-0.042751
 579	2.8900e-01	16.9054	109.377634	0.000333	3.333729	1.129498	-0.026618
 580	2.8950e-01	16.8685	109.252608	0.000313	3.131685	1.061044	-0.025005
 581	2.9000e-01	16.8252	109.054986	0.000495	4.950082	1.677133	-0.039524
 582	2.9050e-01	16.7931	108.921894	0.000333	3.333729	1.129498	-0.026618
 583	2.9100e-01	16.7418	108.716206	0.000515	5.152127	1.745588	-0.041138
 584	2.9150e-01	16.7145	108.454055	0.000657	6.566436	2.224769	-0.052430
 585	2.9200e-01	16.6728	108.373393	0.000202	2.020442	0.684544	-0.016132
 586	2.9250e-01	16.6279	108.240300	0.000333	3.333729	1.129498	-0.026618
 587	2.9300e-01	16.5910	107.982182	0.000647	6.465414	2.190542	-0.051624
 588	2.9350e-01	16.5605	107.804726	0.000444	4.444972	1.505997	-0.035491
 589	2.9400e-01	16.5108	107.586938	0.000546	5.455193	1.848269	-0.043557
 590	2.9450e-01	16.4739	107.445780	0.000354	3.535773	1.197952	-0.028232
 591	2.9500e-01	16.4386	107.264290	0.000455	4.545994	1.540224	-0.036298
 592	2.9550e-01	16.3937	107.026338	0.000596	5.960303	2.019405	-0.047591
 593	2.9600e-01	16.3535	106.917444	0.000273	2.727596	0.924135	-0.021779
 594	2.9650e-01	16.3183	106.808550	0.000273	2.727596	0.924135	-0.021779
 595	2.9700e-01	16.2637	106.550432	0.000647	6.465414	2.190542	-0.051624
 596	2.9750e-01	16.2332	106.256016	0.000737	7.374613	2.498586	-0.058883
 597	2.9800e-01	16.1931	106.203585	0.000131	1.313287	0.444954	-0.010486
 598	2.9850e-01	16.1482	105.921269	0.000707	7.071546	2.395905	-0.056463
 599	2.9900e-01	16.1113	105.864805	0.000141	1.414309	0.479181	-0.011293
 600	2.9950e-01	16.0648	105.683316	0.000455	4.545994	1.540224	-0.036298
 601	3.0000e-01	16.0359	105.538124	0.000364	3.636795	1.232180	-0.029038
 602	3.0050e-01	15.9942	105.267907	0.000677	6.768480	2.293223	-0.054044
 603	3.0100e-01	15.9461	105.046086	0.000556	5.556215	1.882497	-0.044364
 604	3.0150e-01	15.9236	104.792001	0.000636	6.364392	2.156314	-0.050817
 605	3.0200e-01	15.8707	104.671008	0.000303	3.030663	1.026816	-0.024199
 606	3.0250e-01	15.8402	104.517750	0.000384	3.838839	1.300634	-0.030652
 607	3.0300e-01	15.7905	104.400790	0.000293	2.929641	0.992589	-0.023392
 608	3.0350e-01	15.7488	104.368526	0.000081	0.808177	0.273818	-0.006453
 609	3.0400e-01	15.7119	104.078143	0.000727	7.273591	2.464359	-0.058077
 610	3.0450e-01	15.6718	103.795826	0.000707	7.071546	2.395905	-0.056463
 611	3.0500e-01	15.6365	103.682899	0.000283	2.828619	0.958362	-0.022585
 612	3.0550e-01	15.5964	103.465112	0.000546	5.455193	1.848269	-0.043557
 613	3.0600e-01	15.5546	103.336052	0.000323	3.232707	1.095271	-0.025812
 614	3.0650e-01	15.5161	103.090033	0.000616	6.162348	2.087860	-0.049204
 615	3.0700e-01	15.4825	102.920643	0.000424	4.242928	1.437543	-0.033878
 616	3.0750e-01	15.4295	102.727054	0.000485	4.849060	1.642906	-0.038718
 617	3.0800e-01	15.3878	102.549598	0.000444	4.444972	1.505997	-0.035491
 618	3.0850e-01	15.3541	102.404407	0.000364	3.636795	1.232180	-0.029038
 619	3.0900e-01	15.3028	102.323745	0.000202	2.020442	0.684544	-0.016132
 620	3.0950e-01	15.2659	102.029328	0.000737	7.374613	2.498586	-0.058883
 621	3.1000e-01	15.2338	101.855905	0.000434	4.343950	1.471770	-0.034685
 622	3.1050e-01	15.1905	101.646184	0.000525	5.253149	1.779815	-0.041944
 623	3.1100e-01	15.1520	101.549390	0.000242	2.424530	0.821453	-0.019359
 624	3.1150e-01	15.1167	101.238841	0.000778	7.778701	2.635495	-0.062110
 625	3.1200e-01	15.0734	100.984756	0.000636	6.364392	2.156314	-0.050817
 626	3.1250e-01	15.0349	100.775035	0.000525	5.253149	1.779815	-0.041944
 627	3.1300e-01	14.9948	100.593545	0.000455	4.545994	1.540224	-0.036298
 628	3.1350e-01	14.9643	100.420122	0.000434	4.343950	1.471770	-0.034685
 629	3.1400e-01	14.9081	100.250732	0.000424	4.242928	1.437543	-0.033878
 630	3.1450e-01	14.8728	100.141838	0.000273	2.727596	0.924135	-0.021779
 631	3.1500e-01	14.8359	100.008746	0.000333	3.333729	1.129498	-0.026618
 632	3.1550e-01	14.7878	99.738528	0.000677	6.768480	2.293223	-0.054044
 633	3.1600e-01	14.7541	99.573171	0.000414	4.141906	1.403316	-0.033071
 634	3.1650e-01	14.7172	99.319086	0.000636	6.364392	2.156314	-0.050817
 635	3.1700e-01	14.6691	99.105332	0.000535	5.354171	1.814042	-0.042751
 636	3.1750e-01	14.6242	98.956107	0.000374	3.737817	1.266407	-0.029845
 637	3.1800e-01	14.6017	98.847214	0.000273	2.727596	0.924135	-0.021779
 638	3.1850e-01	14.5536	98.508433	0.000849	8.485856	2.875086	-0.067756
 639	3.1900e-01	14.5103	98.415672	0.000232	2.323508	0.787226	-0.018552
 640	3.1950e-01	14.4702	98.181752	0.000586	5.859281	1.985178	-0.046784
 641	3.2000e-01	14.4365	98.020428	0.000404	4.040884	1.369088	-0.032265
 642	3.2050e-01	14.3900	97.500159	0.001303	13.031850	4.415310	-0.104054
 643	3.2100e-01	14.3547	97.621152	-0.000303	-3.030663	-1.026816	0.024199
 644	3.2150e-01	14.3226	97.423530	0.000495	4.950082	1.677133	-0.039524
 645	3.2200e-01	14.2680	97.383199	0.000101	1.010221	0.342272	-0.008066
 646	3.2250e-01	14.2360	97.125081	0.000647	6.465414	2.190542	-0.051624
 647	3.2300e-01	14.1943	96.915359	0.000525	5.253149	1.779815	-0.041944
 648	3.2350e-01	14.1541	96.745969	0.000424	4.242928	1.437543	-0.033878
 649	3.2400e-01	14.1140	96.568513	0.000444	4.444972	1.505997	-0.035491
 650	3.2450e-01	14.0755	96.286196	0.000707	7.071546	2.395905	-0.056463
 651	3.2500e-01	14.0322	96.108740	0.000444	4.444972	1.505997	-0.035491
 652	3.2550e-01	13.9857	95.975647	0.000333	3.333729	1.129498	-0.026618
 653	3.2600e-01	13.9520	95.894985	0.000202	2.020442	0.684544	-0.016132
 654	3.2650e-01	13.9167	95.560238	0.000838	8.384834	2.840859	-0.066949
 655	3.2700e-01	13.8766	95.334385	0.000566	5.657237	1.916724	-0.045171
 656	3.2750e-01	13.8253	95.245657	0.000222	2.222486	0.752999	-0.017746
 657	3.2800e-01	13.7948	94.991571	0.000636	6.364392	2.156314	-0.050817
 658	3.2850e-01	13.7547	94.717321	0.000687	6.869502	2.327450	-0.054850
 659	3.2900e-01	13.7130	94.475335	0.000606	6.061325	2.053633	-0.048397
 660	3.2950e-01	13.6809	94.297878	0.000444	4.444972	1.505997	-0.035491
 661	3.3000e-01	13.6296	94.205117	0.000232	2.323508	0.787226	-0.018552
 662	3.3050e-01	13.5943	93.955065	0.000626	6.263370	2.122087	-0.050010
 663	3.3100e-01	13.5542	93.648550	0.000768	7.677679	2.601268	-0.061303
 664	3.3150e-01	13.5076	93.571921	0.000192	1.919420	0.650317	-0.015326
 665	3.3200e-01	13.4723	93.499325	0.000182	1.818398	0.616090	-0.014519
 666	3.3250e-01	13.4338	93.249273	0.000626	6.263370	2.122087	-0.050010
 667	3.3300e-01	13.3953	92.878228	0.000929	9.294032	3.148903	-0.074209
 668	3.3350e-01	13.3520	92.813698	0.000162	1.616353	0.547635	-0.012906
 669	3.3400e-01	13.3183	92.612043	0.000505	5.051105	1.711361	-0.040331
 670	3.3450e-01	13.2798	92.333759	0.000697	6.970524	2.361678	-0.055657
 671	3.3500e-01	13.2237	92.148237	0.000465	4.647016	1.574452	-0.037105
 672	3.3550e-01	13.1884	91.974814	0.000434	4.343950	1.471770	-0.034685
 673	3.3600e-01	13.1483	91.861887	0.000283	2.828619	0.958362	-0.022585
 674	3.3650e-01	13.1162	91.712662	0.000374	3.737817	1.266407	-0.029845
 675	3.3700e-01	13.0793	91.462610	0.000626	6.263370	2.122087	-0.050010
 676	3.3750e-01	13.0312	91.168194	0.000737	7.374613	2.498586	-0.058883
 677	3.3800e-01	12.9959	90.954440	0.000535	5.354171	1.814042	-0.042751
 678	3.3850e-01	12.9478	90.918142	0.000091	0.909199	0.308045	-0.007260
 679	3.3900e-01	12.9093	90.498700	0.001051	10.506297	3.559630	-0.083888
 680	3.3950e-01	12.8724	90.418038	0.000202	2.020442	0.684544	-0.016132
 681	3.4000e-01	12.8323	90.236548	0.000455	4.545994	1.540224	-0.036298
 682	3.4050e-01	12.8018	90.079257	0.000394	3.939862	1.334861	-0.031458
 683	3.4100e-01	12.7537	89.784841	0.000737	7.374613	2.498586	-0.058883
 684	3.4150e-01	12.7184	89.546888	0.000596	5.960303	2.019405	-0.047591
 685	3.4200e-01	12.6702	89.337167	0.000525	5.253149	1.779815	-0.041944
 686	3.4250e-01	12.6253	89.107281	0.000576	5.758259	1.950951	-0.045977
 687	3.4300e-01	12.5948	88.941923	0.000414	4.141906	1.403316	-0.033071
 688	3.4350e-01	12.5547	88.780600	0.000404	4.040884	1.369088	-0.032265
 689	3.4400e-01	12.5114	88.514415	0.000667	6.667458	2.258996	-0.053237
 690	3.4450e-01	12.4761	88.466018	0.000121	1.212265	0.410727	-0.009679
 691	3.4500e-01	12.4376	88.151436	0.000788	7.879723	2.669722	-0.062916
 692	3.4550e-01	12.3927	87.986079	0.000414	4.141906	1.403316	-0.033071
 693	3.4600e-01	12.3574	87.691663	0.000737	7.374613	2.498586	-0.058883
 694	3.4650e-01	12.3189	87.449677	0.000606	6.061325	2.053633	-0.048397
 695	3.4700e-01	12.2852	87.413379	0.000091	0.909199	0.308045	-0.007260
 696	3.4750e-01	12.2323	87.235923	0.000444	4.444972	1.505997	-0.035491
 697	3.4800e-01	12.2018	87.014102	0.000556	5.556215	1.882497	-0.044364
 698	3.4850e-01	12.1601	86.671289	0.000859	8.586878	2.909313	-0.068563
 699	3.4900e-01	12.1248	86.437369	0.000586	5.859281	1.985178	-0.046784
 700	3.4950e-01	12.0767	86.151019	0.000717	7.172568	2.430132	-0.057270
 701	3.5000e-01	12.0334	86.070357	0.000202	2.020442	0.684544	-0.016132
 702	3.5050e-01	11.9900	85.816272	0.000636	6.364392	2.156314	-0.050817
 703	3.5100e-01	11.9563	85.598485	0.000546	5.455193	1.848269	-0.043557
 704	3.5150e-01	11.9194	85.421028	0.000444	4.444972	1.505997	-0.035491
 705	3.5200e-01	11.8809	85.239539	0.000455	4.545994	1.540224	-0.036298
 706	3.5250e-01	11.8312	84.993520	0.000616	6.162348	2.087860	-0.049204
 707	3.5300e-01	11.7911	84.892692	0.000253	2.525552	0.855680	-0.020165
 708	3.5350e-01	11.7622	84.634574	0.000647	6.465414	2.190542	-0.051624
 709	3.5400e-01	11.7221	84.263529	0.000929	9.294032	3.148903	-0.074209
 710	3.5450e-01	11.6820	84.110271	0.000384	3.838839	1.300634	-0.030652
 711	3.5500e-01	11.6371	83.993311	0.000293	2.929641	0.992589	-0.023392
 712	3.5550e-01	11.6018	84.001378	-0.000020	-0.202044	-0.068454	0.001613
 713	3.5600e-01	11.5633	83.424645	0.001445	14.446159	4.894491	-0.115347
 714	3.5650e-01	11.5184	83.271387	0.000384	3.838839	1.300634	-0.030652
 715	3.5700e-01	11.4703	83.069732	0.000505	5.051105	1.711361	-0.040331
 716	3.5750e-01	11.4398	82.904375	0.000414	4.141906	1.403316	-0.033071
 717	3.5800e-01	11.3788	82.743051	0.000404	4.040884	1.369088	-0.032265
 718	3.5850e-01	11.3532	82.553495	0.000475	4.748038	1.608679	-0.037911
 719	3.5900e-01	11.3179	82.380072	0.000434	4.343950	1.471770	-0.034685
 720	3.5950e-01	11.2729	82.009027	0.000929	9.294032	3.148903	-0.074209
 721	3.6000e-01	11.2344	81.754942	0.000636	6.364392	2.156314	-0.050817
 722	3.6050e-01	11.1959	81.734776	0.000051	0.505110	0.171136	-0.004033
 723	3.6100e-01	11.1558	81.541188	0.000485	4.849060	1.642906	-0.038718
 724	3.6150e-01	11.1125	81.287102	0.000636	6.364392	2.156314	-0.050817
 725	3.6200e-01	11.0708	81.037050	0.000626	6.263370	2.122087	-0.050010
 726	3.6250e-01	11.0323	80.782965	0.000636	6.364392	2.156314	-0.050817
 727	3.6300e-01	11.0002	80.492582	0.000727	7.273591	2.464359	-0.058077
 728	3.6350e-01	10.9665	80.399821	0.000232	2.323508	0.787226	-0.018552
 729	3.6400e-01	10.9168	80.173967	0.000566	5.657237	1.916724	-0.045171
 730	3.6450e-01	10.8783	79.895683	0.000697	6.970524	2.361678	-0.055657
 731	3.6500e-01	10.8366	79.593201	0.000758	7.576657	2.567041	-0.060496
 732	3.6550e-01	10.7917	79.476241	0.000293	2.929641	0.992589	-0.023392
 733	3.6600e-01	10.7500	79.226189	0.000626	6.263370	2.122087	-0.050010
 734	3.6650e-01	10.7179	79.064865	0.000404	4.040884	1.369088	-0.032265
 735	3.6700e-01	10.6762	78.810780	0.000636	6.364392	2.156314	-0.050817
 736	3.6750e-01	10.6216	78.629290	0.000455	4.545994	1.540224	-0.036298
 737	3.6800e-01	10.6008	78.451834	0.000444	4.444972	1.505997	-0.035491
 738	3.6850e-01	10.5623	78.161451	0.000727	7.273591	2.464359	-0.058077
 739	3.6900e-01	10.5157	77.935597	0.000566	5.657237	1.916724	-0.045171
 740	3.6950e-01	10.4772	77.665380	0.000677	6.768480	2.293223	-0.054044
 741	3.7000e-01	10.4355	77.479857	0.000465	4.647016	1.574452	-0.037105
 742	3.7050e-01	10.3922	77.221739	0.000647	6.465414	2.190542	-0.051624
 743	3.7100e-01	10.3569	77.016051	0.000515	5.152127	1.745588	-0.041138
 744	3.7150e-01	10.3120	76.737767	0.000697	6.970524	2.361678	-0.055657
 745	3.7200e-01	10.2751	76.548211	0.000475	4.748038	1.608679	-0.037911
 746	3.7250e-01	10.2446	76.314292	0.000586	5.859281	1.985178	-0.046784
 747	3.7300e-01	10.1965	76.209431	0.000263	2.626574	0.889907	-0.020972
 748	3.7350e-01	10.1596	76.052140	0.000394	3.939862	1.334861	-0.031458
 749	3.7400e-01	10.1115	75.588334	0.001162	11.617540	3.936129	-0.092761
 750	3.7450e-01	10.0858	75.604466	-0.000040	-0.404088	-0.136909	0.003226
 751	3.7500e-01	10.0329	75.281819	0.000808	8.081767	2.738177	-0.064530
 752	3.7550e-01	9.9896	75.039833	0.000606	6.061325	2.053633	-0.048397
 753	3.7600e-01	9.9543	74.813979	0.000566	5.657237	1.916724	-0.045171
 754	3.7650e-01	9.9110	74.559894	0.000636	6.364392	2.156314	-0.050817
 755	3.7700e-01	9.8724	74.422769	0.000343	3.434751	1.163725	-0.027425
 756	3.7750e-01	9.8243	73.991227	0.001081	10.809364	3.662312	-0.086308
 757	3.7800e-01	9.7987	73.918631	0.000182	1.818398	0.616090	-0.014519
 758	3.7850e-01	9.7569	73.729076	0.000475	4.748038	1.608679	-0.037911
 759	3.7900e-01	9.7056	73.466924	0.000657	6.566436	2.224769	-0.052430
 760	3.7950e-01	9.6767	73.200740	0.000667	6.667458	2.258996	-0.053237
 761	3.8000e-01	9.6334	73.011184	0.000475	4.748038	1.608679	-0.037911
 762	3.8050e-01	9.5949	72.865992	0.000364	3.636795	1.232180	-0.029038
 763	3.8100e-01	9.5564	72.611907	0.000636	6.364392	2.156314	-0.050817
 764	3.8150e-01	9.5147	72.369921	0.000606	6.061325	2.053633	-0.048397
 765	3.8200e-01	9.4698	72.127935	0.000606	6.061325	2.053633	-0.048397
 766	3.8250e-01	9.4233	71.906115	0.000556	5.556215	1.882497	-0.044364
 767	3.8300e-01	9.3944	71.635897	0.000677	6.768480	2.293223	-0.054044
 768	3.8350e-01	9.3591	71.329382	0.000768	7.677679	2.601268	-0.061303
 769	3.8400e-01	9.3126	71.135793	0.000485	4.849060	1.642906	-0.038718
 770	3.8450e-01	9.2837	70.934138	0.000505	5.051105	1.711361	-0.040331
 771	3.8500e-01	9.2356	70.671987	0.000657	6.566436	2.224769	-0.052430
 772	3.8550e-01	9.1842	70.550994	0.000303	3.030663	1.026816	-0.024199
 773	3.8600e-01	9.1538	70.309008	0.000606	6.061325	2.053633	-0.048397
 774	3.8650e-01	9.1088	69.978294	0.000828	8.283811	2.806631	-0.066143
 775	3.8700e-01	9.0767	69.623381	0.000889	8.889944	3.011995	-0.070983
 776	3.8750e-01	9.0318	69.510454	0.000283	2.828619	0.958362	-0.022585
 777	3.8800e-01	8.9933	69.328965	0.000455	4.545994	1.540224	-0.036298
 778	3.8850e-01	8.9468	69.131343	0.000495	4.950082	1.677133	-0.039524
 779	3.8900e-01	8.9147	68.844993	0.000717	7.172568	2.430132	-0.057270
 780	3.8950e-01	8.8746	68.578809	0.000667	6.667458	2.258996	-0.053237
 781	3.9000e-01	8.8313	68.352955	0.000566	5.657237	1.916724	-0.045171
 782	3.9050e-01	8.7880	67.994009	0.000899	8.990966	3.046222	-0.071789
 783	3.9100e-01	8.7687	67.961745	0.000081	0.808177	0.273818	-0.006453
 784	3.9150e-01	8.7142	67.659262	0.000758	7.576657	2.567041	-0.060496
 785	3.9200e-01	8.6725	67.397111	0.000657	6.566436	2.224769	-0.052430
 786	3.9250e-01	8.6356	67.243853	0.000384	3.838839	1.300634	-0.030652
 787	3.9300e-01	8.5923	66.949437	0.000737	7.374613	2.498586	-0.058883
 788	3.9350e-01	8.5666	66.711484	0.000596	5.960303	2.019405	-0.047591
 789	3.9400e-01	8.5153	66.417068	0.000737	7.374613	2.498586	-0.058883
 790	3.9450e-01	8.4800	66.158949	0.000647	6.465414	2.190542	-0.051624
 791	3.9500e-01	8.4318	65.840335	0.000798	7.980745	2.703950	-0.063723
 792	3.9550e-01	8.3933	65.650779	0.000475	4.748038	1.608679	-0.037911
 793	3.9600e-01	8.3629	65.469290	0.000455	4.545994	1.540224	-0.036298
 794	3.9650e-01	8.3131	65.170840	0.000748	7.475635	2.532814	-0.059690
 795	3.9700e-01	8.2730	64.953053	0.000546	5.455193	1.848269	-0.043557
 796	3.9750e-01	8.2377	64.832060	0.000303	3.030663	1.026816	-0.024199
 797	3.9800e-01	8.1960	64.537644	0.000737	7.374613	2.498586	-0.058883
 798	3.9850e-01	8.1575	64.344055	0.000485	4.849060	1.642906	-0.038718
 799	3.9900e-01	8.1158	64.114168	0.000576	5.758259	1.950951	-0.045977
 800	3.9950e-01	8.0757	63.803620	0.000778	7.778701	2.635495	-0.062110
 801	4.0000e-01	8.0340	63.751190	0.000131	1.313287	0.444954	-0.010486
 802	4.0050e-01	7.9939	63.351913	0.001000	10.001187	3.388494	-0.079855
 803	4.0100e-01	7.9554	63.267218	0.000212	2.121464	0.718771	-0.016939
 804	4.0150e-01	7.9153	62.912305	0.000889	8.889944	3.011995	-0.070983
 805	4.0200e-01	7.8672	62.585624	0.000818	8.182789	2.772404	-0.065336
 806	4.0250e-01	7.8399	62.355737	0.000576	5.758259	1.950951	-0.045977
 807	4.0300e-01	7.7934	62.198447	0.000394	3.939862	1.334861	-0.031458
 808	4.0350e-01	7.7549	61.988726	0.000525	5.253149	1.779815	-0.041944
 809	4.0400e-01	7.7083	61.706409	0.000707	7.071546	2.395905	-0.056463
 810	4.0450e-01	7.6666	61.323264	0.000960	9.597099	3.251585	-0.076629
 811	4.0500e-01	7.6281	61.182106	0.000354	3.535773	1.197952	-0.028232
 812	4.0550e-01	7.6025	60.960285	0.000556	5.556215	1.882497	-0.044364
 813	4.0600e-01	7.5511	60.653770	0.000768	7.677679	2.601268	-0.061303
 814	4.0650e-01	7.5094	60.407751	0.000616	6.162348	2.087860	-0.049204
 815	4.0700e-01	7.4741	60.198030	0.000525	5.253149	1.779815	-0.041944
 816	4.0750e-01	7.4388	60.000408	0.000495	4.950082	1.677133	-0.039524
 817	4.0800e-01	7.4003	59.742290	0.000647	6.465414	2.190542	-0.051624
 818	4.0850e-01	7.3458	59.468039	0.000687	6.869502	2.327450	-0.054850
 819	4.0900e-01	7.3057	59.290583	0.000444	4.444972	1.505997	-0.035491
 820	4.0950e-01	7.2688	58.899372	0.000980	9.799143	3.320039	-0.078242
 821	4.1000e-01	7.2319	58.645287	0.000636	6.364392	2.156314	-0.050817
 822	4.1050e-01	7.1918	58.475897	0.000424	4.242928	1.437543	-0.033878
 823	4.1100e-01	7.1613	58.173414	0.000758	7.576657	2.567041	-0.060496
 824	4.1150e-01	7.1132	57.891097	0.000707	7.071546	2.395905	-0.056463
 825	4.1200e-01	7.0763	57.661211	0.000576	5.758259	1.950951	-0.045977
 826	4.1250e-01	7.0249	57.378894	0.000707	7.071546	2.395905	-0.056463
 827	4.1300e-01	6.9912	57.193371	0.000465	4.647016	1.574452	-0.037105
 828	4.1350e-01	6.9592	56.850558	0.000859	8.586878	2.909313	-0.068563
 829	4.1400e-01	6.9078	56.624704	0.000566	5.657237	1.916724	-0.045171
 830	4.1450e-01	6.8661	56.386752	0.000596	5.960303	2.019405	-0.047591
 831	4.1500e-01	6.8292	56.164931	0.000556	5.556215	1.882497	-0.044364
 832	4.1550e-01	6.7907	55.878581	0.000717	7.172568	2.430132	-0.057270
 833	4.1600e-01	6.7586	55.676926	0.000505	5.051105	1.711361	-0.040331
 834	4.1650e-01	6.7137	55.455106	0.000556	5.556215	1.882497	-0.044364
 835	4.1700e-01	6.6800	55.140524	0.000788	7.879723	2.669722	-0.062916
 836	4.1750e-01	6.6303	54.862240	0.000697	6.970524	2.361678	-0.055657
 837	4.1800e-01	6.5870	54.579923	0.000707	7.071546	2.395905	-0.056463
 838	4.1850e-01	6.5517	54.475063	0.000263	2.626574	0.889907	-0.020972
 839	4.1900e-01	6.5148	54.289540	0.000465	4.647016	1.574452	-0.037105
 840	4.1950e-01	6.4699	53.805568	0.001212	12.122651	4.107265	-0.096794
 841	4.2000e-01	6.4346	53.624079	0.000455	4.545994	1.540224	-0.036298
 842	4.2050e-01	6.3961	53.382093	0.000606	6.061325	2.053633	-0.048397
 843	4.2100e-01	6.3544	53.099776	0.000707	7.071546	2.395905	-0.056463
 844	4.2150e-01	6.3111	52.817459	0.000707	7.071546	2.395905	-0.056463
 845	4.2200e-01	6.2693	52.527076	0.000727	7.273591	2.464359	-0.058077
 846	4.2250e-01	6.2292	52.297190	0.000576	5.758259	1.950951	-0.045977
 847	4.2300e-01	6.1923	52.119733	0.000444	4.444972	1.505997	-0.035491
 848	4.2350e-01	6.1506	51.833383	0.000717	7.172568	2.430132	-0.057270
 849	4.2400e-01	6.1121	51.417974	0.001041	10.405275	3.525403	-0.083082
 850	4.2450e-01	6.0704	51.256650	0.000404	4.040884	1.369088	-0.032265
 851	4.2500e-01	6.0464	50.720248	0.001344	13.435938	4.552219	-0.107280
 852	4.2550e-01	5.9966	50.829142	-0.000273	-2.727596	-0.924135	0.021779
 853	4.2600e-01	5.9517	50.502461	0.000818	8.182789	2.772404	-0.065336
 854	4.2650e-01	5.9100	50.304839	0.000495	4.950082	1.677133	-0.039524
 855	4.2700e-01	5.8699	50.070919	0.000586	5.859281	1.985178	-0.046784
 856	4.2750e-01	5.8378	49.643411	0.001071	10.708342	3.628084	-0.085502
 857	4.2800e-01	5.7945	49.409491	0.000586	5.859281	1.985178	-0.046784
 858	4.2850e-01	5.7576	49.191704	0.000546	5.455193	1.848269	-0.043557
 859	4.2900e-01	5.7127	48.925519	0.000667	6.667458	2.258996	-0.053237
 860	4.2950e-01	5.6758	48.663368	0.000657	6.566436	2.224769	-0.052430
 861	4.3000e-01	5.6405	48.393150	0.000677	6.768480	2.293223	-0.054044
 862	4.3050e-01	5.5891	48.231826	0.000404	4.040884	1.369088	-0.032265
 863	4.3100e-01	5.5506	47.985807	0.000616	6.162348	2.087860	-0.049204
 864	4.3150e-01	5.5154	47.638961	0.000869	8.687900	2.943540	-0.069369
 865	4.3200e-01	5.4672	47.284048	0.000889	8.889944	3.011995	-0.070983
 866	4.3250e-01	5.4383	47.058194	0.000566	5.657237	1.916724	-0.045171
 867	4.3300e-01	5.4031	46.812175	0.000616	6.162348	2.087860	-0.049204
 868	4.3350e-01	5.3597	46.489528	0.000808	8.081767	2.738177	-0.064530
 869	4.3400e-01	5.3180	46.340303	0.000374	3.737817	1.266407	-0.029845
 870	4.3450e-01	5.2763	45.961192	0.000950	9.496077	3.217358	-0.075822
 871	4.3500e-01	5.2330	45.590147	0.000929	9.294032	3.148903	-0.074209
 872	4.3550e-01	5.1913	45.332028	0.000647	6.465414	2.190542	-0.051624
 873	4.3600e-01	5.1544	45.211035	0.000303	3.030663	1.026816	-0.024199
 874	4.3650e-01	5.1127	44.876288	0.000838	8.384834	2.840859	-0.066949
 875	4.3700e-01	5.0726	44.670600	0.000515	5.152127	1.745588	-0.041138
 876	4.3750e-01	5.0421	44.376184	0.000737	7.374613	2.498586	-0.058883
 877	4.3800e-01	4.9924	44.178562	0.000495	4.950082	1.677133	-0.039524
 878	4.3850e-01	4.9507	43.726855	0.001131	11.314474	3.833448	-0.090341
 879	4.3900e-01	4.9122	43.480836	0.000616	6.162348	2.087860	-0.049204
 880	4.3950e-01	4.8785	43.166254	0.000788	7.879723	2.669722	-0.062916
 881	4.4000e-01	4.8303	42.928302	0.000596	5.960303	2.019405	-0.047591
 882	4.4050e-01	4.7822	42.650018	0.000697	6.970524	2.361678	-0.055657
 883	4.4100e-01	4.7566	42.408032	0.000606	6.061325	2.053633	-0.048397
 884	4.4150e-01	4.7116	42.145880	0.000657	6.566436	2.224769	-0.052430
 885	4.4200e-01	4.6667	41.956325	0.000475	4.748038	1.608679	-0.037911
 886	4.4250e-01	4.6410	41.710306	0.000616	6.162348	2.087860	-0.049204
 887	4.4300e-01	4.5993	41.371525	0.000849	8.485856	2.875086	-0.067756
 888	4.4350e-01	4.5592	40.952083	0.001051	10.506297	3.559630	-0.083888
 889	4.4400e-01	4.5079	40.726230	0.000566	5.657237	1.916724	-0.045171
 890	4.4450e-01	4.4726	40.435847	0.000727	7.273591	2.464359	-0.058077
 891	4.4500e-01	4.4373	40.209993	0.000566	5.657237	1.916724	-0.045171
 892	4.4550e-01	4.3924	39.943809	0.000667	6.667458	2.258996	-0.053237
 893	4.4600e-01	4.3459	39.609061	0.000838	8.384834	2.840859	-0.066949
 894	4.4650e-01	4.3122	39.367075	0.000606	6.061325	2.053633	-0.048397
 895	4.4700e-01	4.2737	39.141222	0.000566	5.657237	1.916724	-0.045171
 896	4.4750e-01	4.2288	38.875037	0.000667	6.667458	2.258996	-0.053237
 897	4.4800e-01	4.1870	38.649184	0.000566	5.657237	1.916724	-0.045171
 898	4.4850e-01	4.1502	38.374933	0.000687	6.869502	2.327450	-0.054850
 899	4.4900e-01	4.1036	37.955491	0.001051	10.506297	3.559630	-0.083888
 900	4.4950e-01	4.0731	37.624777	0.000828	8.283811	2.806631	-0.066143
 901	4.5000e-01	4.0314	37.439254	0.000465	4.647016	1.574452	-0.037105
 902	4.5050e-01	3.9881	37.144838	0.000737	7.374613	2.498586	-0.058883
 903	4.5100e-01	3.9592	36.822190	0.000808	8.081767	2.738177	-0.064530
 904	4.5150e-01	3.9047	36.523741	0.000748	7.475635	2.532814	-0.059690
 905	4.5200e-01	3.8678	36.293854	0.000576	5.758259	1.950951	-0.045977
 906	4.5250e-01	3.8373	36.031703	0.000657	6.566436	2.224769	-0.052430
 907	4.5300e-01	3.7956	35.713088	0.000798	7.980745	2.703950	-0.063723
 908	4.5350e-01	3.7635	35.402540	0.000778	7.778701	2.635495	-0.062110
 909	4.5400e-01	3.7202	35.063759	0.000849	8.485856	2.875086	-0.067756
 910	4.5450e-01	3.6721	34.797575	0.000667	6.667458	2.258996	-0.053237
 911	4.5500e-01	3.6256	34.656416	0.000354	3.535773	1.197952	-0.028232
 912	4.5550e-01	3.5903	34.321669	0.000838	8.384834	2.840859	-0.066949
 913	4.5600e-01	3.5582	33.898194	0.001061	10.607320	3.593857	-0.084695
 914	4.5650e-01	3.5181	33.688473	0.000525	5.253149	1.779815	-0.041944
 915	4.5700e-01	3.4732	33.313394	0.000940	9.395054	3.183131	-0.075016
 916	4.5750e-01	3.4363	33.107706	0.000515	5.152127	1.745588	-0.041138
 917	4.5800e-01	3.3865	32.885886	0.000556	5.556215	1.882497	-0.044364
 918	4.5850e-01	3.3641	32.615668	0.000677	6.768480	2.293223	-0.054044
 919	4.5900e-01	3.3143	32.147829	0.001172	11.718563	3.970356	-0.093568
 920	4.5950e-01	3.2758	31.905843	0.000606	6.061325	2.053633	-0.048397
 921	4.6000e-01	3.2422	31.760651	0.000364	3.636795	1.232180	-0.029038
 922	4.6050e-01	3.1876	31.252481	0.001273	12.728784	4.312629	-0.101634
 923	4.6100e-01	3.1523	31.062925	0.000475	4.748038	1.608679	-0.037911
 924	4.6150e-01	3.1154	30.716079	0.000869	8.687900	2.943540	-0.069369
 925	4.6200e-01	3.0785	30.369232	0.000869	8.687900	2.943540	-0.069369
 926	4.6250e-01	3.0320	30.171611	0.000495	4.950082	1.677133	-0.039524
 927	4.6300e-01	2.9967	29.885261	0.000717	7.172568	2.430132	-0.057270
 928	4.6350e-01	2.9502	29.655374	0.000576	5.758259	1.950951	-0.045977
 929	4.6400e-01	2.9117	29.393223	0.000657	6.566436	2.224769	-0.052430
 930	4.6450e-01	2.8780	29.147204	0.000616	6.162348	2.087860	-0.049204
 931	4.6500e-01	2.8299	28.703563	0.001111	11.112430	3.764993	-0.088728
 932	4.6550e-01	2.7946	28.445444	0.000647	6.465414	2.190542	-0.051624
 933	4.6600e-01	2.7481	28.159094	0.000717	7.172568	2.430132	-0.057270
 934	4.6650e-01	2.7192	27.804182	0.000889	8.889944	3.011995	-0.070983
 935	4.6700e-01	2.6678	27.586394	0.000546	5.455193	1.848269	-0.043557
 936	4.6750e-01	2.6261	27.287945	0.000748	7.475635	2.532814	-0.059690
 937	4.6800e-01	2.5908	26.884635	0.001010	10.102209	3.422721	-0.080662
 938	4.6850e-01	2.5475	26.537789	0.000869	8.687900	2.943540	-0.069369
 939	4.6900e-01	2.5154	26.271604	0.000667	6.667458	2.258996	-0.053237
 940	4.6950e-01	2.4753	25.952990	0.000798	7.980745	2.703950	-0.063723
 941	4.7000e-01	2.4320	25.598077	0.000889	8.889944	3.011995	-0.070983
 942	4.7050e-01	2.3855	25.372223	0.000566	5.657237	1.916724	-0.045171
 943	4.7100e-01	2.3534	25.061675	0.000778	7.778701	2.635495	-0.062110
 944	4.7150e-01	2.3069	24.763225	0.000748	7.475635	2.532814	-0.059690
 945	4.7200e-01	2.2700	24.404280	0.000899	8.990966	3.046222	-0.071789
 946	4.7250e-01	2.2331	24.150194	0.000636	6.364392	2.156314	-0.050817
 947	4.7300e-01	2.1898	23.831580	0.000798	7.980745	2.703950	-0.063723
 948	4.7350e-01	2.1400	23.537163	0.000737	7.374613	2.498586	-0.058883
 949	4.7400e-01	2.0967	23.234681	0.000758	7.576657	2.567041	-0.060496
 950	4.7450e-01	2.0663	22.932199	0.000758	7.576657	2.567041	-0.060496
 951	4.7500e-01	2.0326	22.557120	0.000940	9.395054	3.183131	-0.075016
 952	4.7550e-01	1.9828	22.424028	0.000333	3.333729	1.129498	-0.026618
 953	4.7600e-01	1.9507	22.081215	0.000859	8.586878	2.909313	-0.068563
 954	4.7650e-01	1.9106	21.770666	0.000778	7.778701	2.635495	-0.062110
 955	4.7700e-01	1.8721	21.379456	0.000980	9.799143	3.320039	-0.078242
 956	4.7750e-01	1.8417	21.004378	0.000940	9.395054	3.183131	-0.075016
 957	4.7800e-01	1.7935	20.709961	0.000737	7.374613	2.498586	-0.058883
 958	4.7850e-01	1.7566	20.536538	0.000434	4.343950	1.471770	-0.034685
 959	4.7900e-01	1.7037	20.157427	0.000950	9.496077	3.217358	-0.075822
 960	4.7950e-01	1.6780	19.875110	0.000707	7.071546	2.395905	-0.056463
 961	4.8000e-01	1.6331	19.475833	0.001000	10.001187	3.388494	-0.079855
 962	4.8050e-01	1.5802	19.229814	0.000616	6.162348	2.087860	-0.049204
 963	4.8100e-01	1.5513	18.903133	0.000818	8.182789	2.772404	-0.065336
 964	4.8150e-01	1.5192	18.669213	0.000586	5.859281	1.985178	-0.046784
 965	4.8200e-01	1.4695	18.249771	0.001051	10.506297	3.559630	-0.083888
 966	4.8250e-01	1.4374	17.826296	0.001061	10.607320	3.593857	-0.084695
 967	4.8300e-01	1.3877	17.664972	0.000404	4.040884	1.369088	-0.032265
 968	4.8350e-01	1.3508	17.301993	0.000909	9.091988	3.080449	-0.072596
 969	4.8400e-01	1.3058	16.991444	0.000778	7.778701	2.635495	-0.062110
 970	4.8450e-01	1.2786	16.632499	0.000899	8.990966	3.046222	-0.071789
 971	4.8500e-01	1.2240	16.430844	0.000505	5.051105	1.711361	-0.040331
 972	4.8550e-01	1.1855	16.152560	0.000697	6.970524	2.361678	-0.055657
 973	4.8600e-01	1.1438	15.721018	0.001081	10.809364	3.662312	-0.086308
 974	4.8650e-01	1.1149	15.438701	0.000707	7.071546	2.395905	-0.056463
 975	4.8700e-01	1.0732	15.031358	0.001020	10.203231	3.456948	-0.081469
 976	4.8750e-01	1.0363	14.696611	0.000838	8.384834	2.840859	-0.066949
 977	4.8800e-01	0.9978	14.438493	0.000647	6.465414	2.190542	-0.051624
 978	4.8850e-01	0.9529	14.123911	0.000788	7.879723	2.669722	-0.062916
 979	4.8900e-01	0.9128	13.805297	0.000798	7.980745	2.703950	-0.063723
 980	4.8950e-01	0.8791	13.482649	0.000808	8.081767	2.738177	-0.064530
 981	4.9000e-01	0.8374	13.131769	0.000879	8.788922	2.977767	-0.070176
 982	4.9050e-01	0.7973	12.853485	0.000697	6.970524	2.361678	-0.055657
 983	4.9100e-01	0.7492	12.587301	0.000667	6.667458	2.258996	-0.053237
 984	4.9150e-01	0.7155	12.147693	0.001101	11.011408	3.730766	-0.087922
 985	4.9200e-01	0.6738	11.837144	0.000778	7.778701	2.635495	-0.062110
 986	4.9250e-01	0.6337	11.554827	0.000707	7.071546	2.395905	-0.056463
 987	4.9300e-01	0.5936	11.183782	0.000929	9.294032	3.148903	-0.074209
 988	4.9350e-01	0.5567	10.816770	0.000919	9.193010	3.114676	-0.073402
 989	4.9400e-01	0.5069	10.607049	0.000525	5.253149	1.779815	-0.041944
 990	4.9450e-01	0.4732	10.304567	0.000758	7.576657	2.567041	-0.060496
 991	4.9500e-01	0.4412	9.985952	0.000798	7.980745	2.703950	-0.063723
 992	4.9550e-01	0.3930	9.566510	0.001051	10.506297	3.559630	-0.083888
 993	4.9600e-01	0.3529	9.284193	0.000707	7.071546	2.395905	-0.056463
 994	4.9650e-01	0.3064	8.864751	0.001051	10.506297	3.559630	-0.083888
 995	4.9700e-01	0.2743	8.562268	0.000758	7.576657	2.567041	-0.060496
 996	4.9750e-01	0.2310	8.171058	0.000980	9.799143	3.320039	-0.078242
 997	4.9800e-01	0.1877	7.933105	0.000596	5.960303	2.019405	-0.047591
 998	4.9850e-01	0.1460	7.586258	0.000869	8.687900	2.943540	-0.069369
 999	4.9900e-01	0.1155	7.287809	0.000748	7.475635	2.532814	-0.059690
1000	4.9950e-01	0.0706	6.868367	0.001051	10.506297	3.559630	-0.083888
1001	5.0000e-01	0.0353	6.396494	0.001182	11.819585	4.004584	-0.094375
1002	5.0050e-01	-0.0048	6.142409	0.000636	6.364392	2.156314	-0.050817
1003	5.0100e-01	-0.0385	5.985118	0.000394	3.939862	1.334861	-0.031458
1004	5.0150e-01	-0.0770	5.654404	0.000828	8.283811	2.806631	-0.066143
1005	5.0200e-01	-0.1219	5.364021	0.000727	7.273591	2.464359	-0.058077
1006	5.0250e-01	-0.1604	4.924413	0.001101	11.011408	3.730766	-0.087922
1007	5.0300e-01	-0.1957	4.609832	0.000788	7.879723	2.669722	-0.062916
1008	5.0350e-01	-0.2422	4.222654	0.000970	9.698121	3.285812	-0.077435
1009	5.0400e-01	-0.2791	3.932271	0.000727	7.273591	2.464359	-0.058077
1010	5.0450e-01	-0.3144	3.589458	0.000859	8.586878	2.909313	-0.068563
1011	5.0500e-01	-0.3626	3.307141	0.000707	7.071546	2.395905	-0.056463
1012	5.0550e-01	-0.4027	2.907864	0.001000	10.001187	3.388494	-0.079855
1013	5.0600e-01	-0.4476	2.694110	0.000535	5.354171	1.814042	-0.042751
1014	5.0650e-01	-0.4813	2.214171	0.001202	12.021629	4.073038	-0.095988
1015	5.0700e-01	-0.5294	2.077046	0.000343	3.434751	1.163725	-0.027425
1016	5.0750e-01	-0.5567	1.673736	0.001010	10.102209	3.422721	-0.080662
1017	5.0800e-01	-0.5952	1.222029	0.001131	11.314474	3.833448	-0.090341
1018	5.0850e-01	-0.6449	0.955844	0.000667	6.667458	2.258996	-0.053237
1019	5.0900e-01	-0.6850	0.536402	0.001051	10.506297	3.559630	-0.083888
1020	5.0950e-01	-0.7219	0.169390	0.000919	9.193010	3.114676	-0.073402
1021	5.1000e-01	-0.7652	-0.133092	0.000758	7.576657	2.567041	-0.060496
1022	5.1050e-01	-0.7941	-0.399277	0.000667	6.667458	2.258996	-0.053237
1023	5.1100e-01	-0.8486	-0.746123	0.000869	8.687900	2.943540	-0.069369
1024	5.1150e-01	-0.8823	-1.052639	0.000768	7.677679	2.601268	-0.061303
1025	5.1200e-01	-0.9208	-1.451915	0.001000	10.001187	3.388494	-0.079855
1026	5.1250e-01	-0.9577	-1.851192	0.001000	10.001187	3.388494	-0.079855
1027	5.1300e-01	-0.9994	-2.161741	0.000778	7.778701	2.635495	-0.062110
1028	5.1350e-01	-1.0411	-2.516654	0.000889	8.889944	3.011995	-0.070983
1029	5.1400e-01	-1.0716	-2.956261	0.001101	11.011408	3.730766	-0.087922
1030	5.1450e-01	-1.1262	-3.165982	0.000525	5.253149	1.779815	-0.041944
1031	5.1500e-01	-1.1679	-3.516862	0.000879	8.788922	2.977767	-0.070176
1032	5.1550e-01	-1.1952	-3.779013	0.000657	6.566436	2.224769	-0.052430
1033	5.1600e-01	-1.2369	-4.150058	0.000929	9.294032	3.148903	-0.074209
1034	5.1650e-01	-1.2818	-4.537236	0.000970	9.698121	3.285812	-0.077435
1035	5.1700e-01	-1.3203	-4.904248	0.000919	9.193010	3.114676	-0.073402
1036	5.1750e-01	-1.3588	-5.234962	0.000828	8.283811	2.806631	-0.066143
1037	5.1800e-01	-1.4037	-5.597941	0.000909	9.091988	3.080449	-0.072596
1038	5.1850e-01	-1.4518	-5.759265	0.000404	4.040884	1.369088	-0.032265
1039	5.1900e-01	-1.4871	-6.065780	0.000768	7.677679	2.601268	-0.061303
1040	5.1950e-01	-1.5224	-6.626381	0.001404	14.042071	4.757582	-0.112120
1041	5.2000e-01	-1.5577	-6.884499	0.000647	6.465414	2.190542	-0.051624
1042	5.2050e-01	-1.6042	-7.316041	0.001081	10.809364	3.662312	-0.086308
1043	5.2100e-01	-1.6395	-7.634656	0.000798	7.980745	2.703950	-0.063723
1044	5.2150e-01	-1.6828	-7.969403	0.000838	8.384834	2.840859	-0.066949
1045	5.2200e-01	-1.7085	-8.296084	0.000818	8.182789	2.772404	-0.065336
1046	5.2250e-01	-1.7614	-8.630831	0.000838	8.384834	2.840859	-0.066949
1047	5.2300e-01	-1.8144	-8.876850	0.000616	6.162348	2.087860	-0.049204
1048	5.2350e-01	-1.8401	-9.147068	0.000677	6.768480	2.293223	-0.054044
1049	5.2400e-01	-1.8818	-9.659271	0.001283	12.829806	4.346856	-0.102441
1050	5.2450e-01	-1.9155	-10.030316	0.000929	9.294032	3.148903	-0.074209
1051	5.2500e-01	-1.9668	-10.272302	0.000606	6.061325	2.053633	-0.048397
1052	5.2550e-01	-2.0069	-10.611082	0.000849	8.485856	2.875086	-0.067756
1053	5.2600e-01	-2.0390	-10.965995	0.000889	8.889944	3.011995	-0.070983
1054	5.2650e-01	-2.0871	-11.236213	0.000677	6.768480	2.293223	-0.054044
1055	5.2700e-01	-2.1224	-11.816979	0.001455	14.547181	4.928718	-0.116153
1056	5.2750e-01	-2.1689	-12.071064	0.000636	6.364392	2.156314	-0.050817
1057	5.2800e-01	-2.2042	-12.317083	0.000616	6.162348	2.087860	-0.049204
1058	5.2850e-01	-2.2427	-12.692161	0.000940	9.395054	3.183131	-0.075016
1059	5.2900e-01	-2.2812	-13.160001	0.001172	11.718563	3.970356	-0.093568
1060	5.2950e-01	-2.3293	-13.329391	0.000424	4.242928	1.437543	-0.033878
1061	5.3000e-01	-2.3630	-13.664138	0.000838	8.384834	2.840859	-0.066949
1062	5.3050e-01	-2.3983	-13.974687	0.000778	7.778701	2.635495	-0.062110
1063	5.3100e-01	-2.4416	-14.337666	0.000909	9.091988	3.080449	-0.072596
1064	5.3150e-01	-2.4753	-14.797439	0.001152	11.516518	3.901902	-0.091955
1065	5.3200e-01	-2.5202	-15.087822	0.000727	7.273591	2.464359	-0.058077
1066	5.3250e-01	-2.5700	-15.168484	0.000202	2.020442	0.684544	-0.016132
1067	5.3300e-01	-2.6101	-15.575827	0.001020	10.203231	3.456948	-0.081469
1068	5.3350e-01	-2.6406	-16.027534	0.001131	11.314474	3.833448	-0.090341
1069	5.3400e-01	-2.6775	-16.451009	0.001061	10.607320	3.593857	-0.084695
1070	5.3450e-01	-2.7256	-16.737359	0.000717	7.172568	2.430132	-0.057270
1071	5.3500e-01	-2.7673	-17.076139	0.000849	8.485856	2.875086	-0.067756
1072	5.3550e-01	-2.7978	-17.370556	0.000737	7.374613	2.498586	-0.058883
1073	5.3600e-01	-2.8507	-17.539946	0.000424	4.242928	1.437543	-0.033878
1074	5.3650e-01	-2.8812	-17.878726	0.000849	8.485856	2.875086	-0.067756
1075	5.3700e-01	-2.9277	-18.350599	0.001182	11.819585	4.004584	-0.094375
1076	5.3750e-01	-2.9534	-18.774074	0.001061	10.607320	3.593857	-0.084695
1077	5.3800e-01	-3.0047	-19.052358	0.000697	6.970524	2.361678	-0.055657
1078	5.3850e-01	-3.0448	-19.383072	0.000828	8.283811	2.806631	-0.066143
1079	5.3900e-01	-3.0785	-19.548429	0.000414	4.141906	1.403316	-0.033071
1080	5.3950e-01	-3.1266	-19.943673	0.000990	9.900165	3.354267	-0.079049
1081	5.4000e-01	-3.1539	-20.346982	0.001010	10.102209	3.422721	-0.080662
1082	5.4050e-01	-3.1940	-20.774491	0.001071	10.708342	3.628084	-0.085502
1083	5.4100e-01	-3.2422	-21.040675	0.000667	6.667458	2.258996	-0.053237
1084	5.4150e-01	-3.2839	-21.379456	0.000849	8.485856	2.875086	-0.067756
1085	5.4200e-01	-3.3159	-21.577078	0.000495	4.950082	1.677133	-0.039524
1086	5.4250e-01	-3.3641	-21.823097	0.000616	6.162348	2.087860	-0.049204
1087	5.4300e-01	-3.4010	-22.077182	0.000636	6.364392	2.156314	-0.050817
1088	5.4350e-01	-3.4395	-22.565187	0.001222	12.223673	4.141493	-0.097601
1089	5.4400e-01	-3.4812	-22.956397	0.000980	9.799143	3.320039	-0.078242
1090	5.4450e-01	-3.5181	-23.287111	0.000828	8.283811	2.806631	-0.066143
1091	5.4500e-01	-3.5598	-23.400038	0.000283	2.828619	0.958362	-0.022585
1092	5.4550e-01	-3.6031	-23.827547	0.001071	10.708342	3.628084	-0.085502
1093	5.4600e-01	-3.6432	-24.069532	0.000606	6.061325	2.053633	-0.048397
1094	5.4650e-01	-3.6801	-24.464776	0.000990	9.900165	3.354267	-0.079049
1095	5.4700e-01	-3.7234	-24.726928	0.000657	6.566436	2.224769	-0.052430
1096	5.4750e-01	-3.7683	-25.110072	0.000960	9.597099	3.251585	-0.076629
1097	5.4800e-01	-3.8052	-25.319793	0.000525	5.253149	1.779815	-0.041944
1098	5.4850e-01	-3.8470	-25.440786	0.000303	3.030663	1.026816	-0.024199
1099	5.4900e-01	-3.8838	-25.864261	0.001061	10.607320	3.593857	-0.084695
1100	5.4950e-01	-3.9223	-26.154644	0.000727	7.273591	2.464359	-0.058077
1101	5.5000e-01	-3.9673	-26.529723	0.000940	9.395054	3.183131	-0.075016
1102	5.5050e-01	-4.0026	-26.880602	0.000879	8.788922	2.977767	-0.070176
1103	5.5100e-01	-4.0491	-27.138720	0.000647	6.465414	2.190542	-0.051624
1104	5.5150e-01	-4.0828	-27.570262	0.001081	10.809364	3.662312	-0.086308
1105	5.5200e-01	-4.1165	-27.824347	0.000636	6.364392	2.156314	-0.050817
1106	5.5250e-01	-4.1598	-28.118763	0.000737	7.374613	2.498586	-0.058883
1107	5.5300e-01	-4.2079	-28.441411	0.000808	8.081767	2.738177	-0.064530
1108	5.5350e-01	-4.2304	-28.800357	0.000899	8.990966	3.046222	-0.071789
1109	5.5400e-01	-4.2801	-28.953615	0.000384	3.838839	1.300634	-0.030652
1110	5.5450e-01	-4.3266	-29.199634	0.000616	6.162348	2.087860	-0.049204
1111	5.5500e-01	-4.3619	-29.530348	0.000828	8.283811	2.806631	-0.066143
1112	5.5550e-01	-4.4052	-29.844930	0.000788	7.879723	2.669722	-0.062916
1113	5.5600e-01	-4.4453	-30.228074	0.000960	9.597099	3.251585	-0.076629
1114	5.5650e-01	-4.4806	-30.449894	0.000556	5.556215	1.882497	-0.044364
1115	5.5700e-01	-4.5127	-30.820940	0.000929	9.294032	3.148903	-0.074209
1116	5.5750e-01	-4.5512	-31.099223	0.000697	6.970524	2.361678	-0.055657
1117	5.5800e-01	-4.6041	-31.361375	0.000657	6.566436	2.224769	-0.052430
1118	5.5850e-01	-4.6362	-31.635625	0.000687	6.869502	2.327450	-0.054850
1119	5.5900e-01	-4.6763	-31.942141	0.000768	7.677679	2.601268	-0.061303
1120	5.5950e-01	-4.7197	-32.248656	0.000768	7.677679	2.601268	-0.061303
1121	5.6000e-01	-4.7630	-32.494675	0.000616	6.162348	2.087860	-0.049204
1122	5.6050e-01	-4.8127	-32.853621	0.000899	8.990966	3.046222	-0.071789
1123	5.6100e-01	-4.8496	-33.047210	0.000485	4.849060	1.642906	-0.038718
1124	5.6150e-01	-4.8801	-33.305328	0.000647	6.465414	2.190542	-0.051624
1125	5.6200e-01	-4.9266	-33.656208	0.000879	8.788922	2.977767	-0.070176
1126	5.6250e-01	-4.9651	-33.962723	0.000768	7.677679	2.601268	-0.061303
1127	5.6300e-01	-5.0036	-34.184544	0.000556	5.556215	1.882497	-0.044364
1128	5.6350e-01	-5.0533	-34.531390	0.000869	8.687900	2.943540	-0.069369
1129	5.6400e-01	-5.0774	-34.753211	0.000556	5.556215	1.882497	-0.044364
1130	5.6450e-01	-5.1207	-35.120223	0.000919	9.193010	3.114676	-0.073402
1131	5.6500e-01	-5.1608	-35.418672	0.000748	7.475635	2.532814	-0.059690
1132	5.6550e-01	-5.1993	-35.737287	0.000798	7.980745	2.703950	-0.063723
1133	5.6600e-01	-5.2490	-35.975240	0.000596	5.960303	2.019405	-0.047591
1134	5.6650e-01	-5.2811	-36.164795	0.000475	4.748038	1.608679	-0.037911
1135	5.6700e-01	-5.3277	-36.443079	0.000697	6.970524	2.361678	-0.055657
1136	5.6750e-01	-5.3662	-36.713297	0.000677	6.768480	2.293223	-0.054044
1137	5.6800e-01	-5.4031	-37.080309	0.000919	9.193010	3.114676	-0.073402
1138	5.6850e-01	-5.4464	-37.427155	0.000869	8.687900	2.943540	-0.069369
1139	5.6900e-01	-5.4849	-37.632843	0.000515	5.152127	1.745588	-0.041138
1140	5.6950e-01	-5.5234	-37.939359	0.000768	7.677679	2.601268	-0.061303
1141	5.7000e-01	-5.5603	-38.145047	0.000515	5.152127	1.745588	-0.041138
1142	5.7050e-01	-5.5988	-38.487860	0.000859	8.586878	2.909313	-0.068563
1143	5.7100e-01	-5.6453	-38.673382	0.000465	4.647016	1.574452	-0.037105
1144	5.7150e-01	-5.6806	-38.975865	0.000758	7.576657	2.567041	-0.060496
1145	5.7200e-01	-5.7239	-39.242049	0.000667	6.667458	2.258996	-0.053237
1146	5.7250e-01	-5.7656	-39.584863	0.000859	8.586878	2.909313	-0.068563
1147	5.7300e-01	-5.7961	-39.830882	0.000616	6.162348	2.087860	-0.049204
1148	5.7350e-01	-5.8442	-40.101099	0.000677	6.768480	2.293223	-0.054044
1149	5.7400e-01	-5.8843	-40.395516	0.000737	7.374613	2.498586	-0.058883
1150	5.7450e-01	-5.9132	-40.504409	0.000273	2.727596	0.924135	-0.021779
1151	5.7500e-01	-5.9549	-40.911752	0.001020	10.203231	3.456948	-0.081469
1152	5.7550e-01	-6.0062	-41.262632	0.000879	8.788922	2.977767	-0.070176
1153	5.7600e-01	-6.0496	-41.403790	0.000354	3.535773	1.197952	-0.028232
1154	5.7650e-01	-6.0752	-41.641743	0.000596	5.960303	2.019405	-0.047591
1155	5.7700e-01	-6.1282	-41.928093	0.000717	7.172568	2.430132	-0.057270
1156	5.7750e-01	-6.1635	-42.303171	0.000940	9.395054	3.183131	-0.075016
1157	5.7800e-01	-6.2068	-42.549190	0.000616	6.162348	2.087860	-0.049204
1158	5.7850e-01	-6.2405	-42.775044	0.000566	5.657237	1.916724	-0.045171
1159	5.7900e-01	-6.2934	-43.089625	0.000788	7.879723	2.669722	-0.062916
1160	5.7950e-01	-6.3239	-43.375975	0.000717	7.172568	2.430132	-0.057270
1161	5.8000e-01	-6.3704	-43.617961	0.000606	6.061325	2.053633	-0.048397
1162	5.8050e-01	-6.4057	-43.742987	0.000313	3.131685	1.061044	-0.025005
1163	5.8100e-01	-6.4506	-44.251158	0.001273	12.728784	4.312629	-0.101634
1164	5.8150e-01	-6.4859	-44.452813	0.000505	5.051105	1.711361	-0.040331
1165	5.8200e-01	-6.5212	-44.622203	0.000424	4.242928	1.437543	-0.033878
1166	5.8250e-01	-6.5629	-44.997281	0.000940	9.395054	3.183131	-0.075016
1167	5.8300e-01	-6.5982	-45.182804	0.000465	4.647016	1.574452	-0.037105
1168	5.8350e-01	-6.6319	-45.561915	0.000950	9.496077	3.217358	-0.075822
1169	5.8400e-01	-6.6784	-45.735338	0.000434	4.343950	1.471770	-0.034685
1170	5.8450e-01	-6.7265	-45.928927	0.000485	4.849060	1.642906	-0.038718
1171	5.8500e-01	-6.7634	-46.223343	0.000737	7.374613	2.498586	-0.058883
1172	5.8550e-01	-6.7923	-46.562123	0.000849	8.485856	2.875086	-0.067756
1173	5.8600e-01	-6.8292	-46.755712	0.000485	4.849060	1.642906	-0.038718
1174	5.8650e-01	-6.8773	-46.888804	0.000333	3.333729	1.129498	-0.026618
1175	5.8700e-01	-6.9239	-47.211452	0.000808	8.081767	2.738177	-0.064530
1176	5.8750e-01	-6.9608	-47.570398	0.000899	8.990966	3.046222	-0.071789
1177	5.8800e-01	-7.0025	-47.723656	0.000384	3.838839	1.300634	-0.030652
1178	5.8850e-01	-7.0362	-48.050337	0.000818	8.182789	2.772404	-0.065336
1179	5.8900e-01	-7.0859	-48.292323	0.000606	6.061325	2.053633	-0.048397
1180	5.8950e-01	-7.1244	-48.550441	0.000647	6.465414	2.190542	-0.051624
1181	5.9000e-01	-7.1677	-48.711765	0.000404	4.040884	1.369088	-0.032265
1182	5.9050e-01	-7.2062	-49.078777	0.000919	9.193010	3.114676	-0.073402
1183	5.9100e-01	-7.2415	-49.328829	0.000626	6.263370	2.122087	-0.050010
1184	5.9150e-01	-7.2800	-49.683742	0.000889	8.889944	3.011995	-0.070983
1185	5.9200e-01	-7.3265	-49.768437	0.000212	2.121464	0.718771	-0.016939
1186	5.9250e-01	-7.3602	-50.038654	0.000677	6.768480	2.293223	-0.054044
1187	5.9300e-01	-7.3987	-50.316938	0.000697	6.970524	2.361678	-0.055657
1188	5.9350e-01	-7.4436	-50.635553	0.000798	7.980745	2.703950	-0.063723
1189	5.9400e-01	-7.4773	-50.841241	0.000515	5.152127	1.745588	-0.041138
1190	5.9450e-01	-7.5255	-51.091293	0.000626	6.263370	2.122087	-0.050010
1191	5.9500e-01	-7.5624	-51.434106	0.000859	8.586878	2.909313	-0.068563
1192	5.9550e-01	-7.5993	-51.639795	0.000515	5.152127	1.745588	-0.041138
1193	5.9600e-01	-7.6378	-51.772887	0.000333	3.333729	1.129498	-0.026618
1194	5.9650e-01	-7.6795	-52.184263	0.001030	10.304253	3.491176	-0.082275
1195	5.9700e-01	-7.7308	-52.357686	0.000434	4.343950	1.471770	-0.034685
1196	5.9750e-01	-7.7613	-52.607738	0.000626	6.263370	2.122087	-0.050010
1197	5.9800e-01	-7.8030	-53.132041	0.001313	13.132872	4.449537	-0.104861
1198	5.9850e-01	-7.8351	-53.204637	0.000182	1.818398	0.616090	-0.014519
1199	5.9900e-01	-7.8752	-53.430490	0.000566	5.657237	1.916724	-0.045171
1200	5.9950e-01	-7.9265	-53.535351	0.000263	2.626574	0.889907	-0.020972
1201	6.0000e-01	-7.9506	-53.870098	0.000838	8.384834	2.840859	-0.066949
1202	6.0050e-01	-8.0083	-54.108051	0.000596	5.960303	2.019405	-0.047591
1203	6.0100e-01	-8.0484	-54.458930	0.000879	8.788922	2.977767	-0.070176
1204	6.0150e-01	-8.0853	-54.652519	0.000485	4.849060	1.642906	-0.038718
1205	6.0200e-01	-8.1190	-54.817876	0.000414	4.141906	1.403316	-0.033071
1206	6.0250e-01	-8.1623	-55.035664	0.000546	5.455193	1.848269	-0.043557
1207	6.0300e-01	-8.1944	-55.249418	0.000535	5.354171	1.814042	-0.042751
1208	6.0350e-01	-8.2393	-55.551900	0.000758	7.576657	2.567041	-0.060496
1209	6.0400e-01	-8.2746	-55.894714	0.000859	8.586878	2.909313	-0.068563
1210	6.0450e-01	-8.3276	-56.152832	0.000647	6.465414	2.190542	-0.051624
1211	6.0500e-01	-8.3645	-56.298023	0.000364	3.636795	1.232180	-0.029038
1212	6.0550e-01	-8.4030	-56.588406	0.000727	7.273591	2.464359	-0.058077
1213	6.0600e-01	-8.4431	-56.854591	0.000667	6.667458	2.258996	-0.053237
1214	6.0650e-01	-8.4880	-57.177239	0.000808	8.081767	2.738177	-0.064530
1215	6.0700e-01	-8.5265	-57.330497	0.000384	3.838839	1.300634	-0.030652
1216	6.0750e-01	-8.5618	-57.620880	0.000727	7.273591	2.464359	-0.058077
1217	6.0800e-01	-8.6035	-57.866899	0.000616	6.162348	2.087860	-0.049204
1218	6.0850e-01	-8.6404	-57.931428	0.000162	1.616353	0.547635	-0.012906
1219	6.0900e-01	-8.6741	-58.302473	0.000929	9.294032	3.148903	-0.074209
1220	6.0950e-01	-8.7206	-58.399268	0.000242	2.424530	0.821453	-0.019359
1221	6.1000e-01	-8.7591	-58.826776	0.001071	10.708342	3.628084	-0.085502
1222	6.1050e-01	-8.8008	-59.004233	0.000444	4.444972	1.505997	-0.035491
1223	6.1100e-01	-8.8377	-59.435774	0.001081	10.809364	3.662312	-0.086308
1224	6.1150e-01	-8.8746	-59.544668	0.000273	2.727596	0.924135	-0.021779
1225	6.1200e-01	-8.9292	-59.714058	0.000424	4.242928	1.437543	-0.033878
1226	6.1250e-01	-8.9645	-60.040739	0.000818	8.182789	2.772404	-0.065336
1227	6.1300e-01	-9.0046	-60.210129	0.000424	4.242928	1.437543	-0.033878
1228	6.1350e-01	-9.0463	-60.444049	0.000586	5.859281	1.985178	-0.046784
1229	6.1400e-01	-9.0767	-60.690068	0.000616	6.162348	2.087860	-0.049204
1230	6.1450e-01	-9.1169	-60.996583	0.000768	7.677679	2.601268	-0.061303
1231	6.1500e-01	-9.1570	-61.315198	0.000798	7.980745	2.703950	-0.063723
1232	6.1550e-01	-9.1987	-61.411992	0.000242	2.424530	0.821453	-0.019359
1233	6.1600e-01	-9.2420	-61.625747	0.000535	5.354171	1.814042	-0.042751
1234	6.1650e-01	-9.2789	-61.871766	0.000616	6.162348	2.087860	-0.049204
1235	6.1700e-01	-9.3190	-62.125851	0.000636	6.364392	2.156314	-0.050817
1236	6.1750e-01	-9.3607	-62.347671	0.000556	5.556215	1.882497	-0.044364
1237	6.1800e-01	-9.3992	-62.605790	0.000647	6.465414	2.190542	-0.051624
1238	6.1850e-01	-9.4409	-62.759047	0.000384	3.838839	1.300634	-0.030652
1239	6.1900e-01	-9.4906	-63.101861	0.000859	8.586878	2.909313	-0.068563
1240	6.1950e-01	-9.5275	-63.255118	0.000384	3.838839	1.300634	-0.030652
1241	6.2000e-01	-9.5644	-63.577766	0.000808	8.081767	2.738177	-0.064530
1242	6.2050e-01	-9.6061	-63.819752	0.000606	6.061325	2.053633	-0.048397
1243	6.2100e-01	-9.6414	-64.033507	0.000535	5.354171	1.814042	-0.042751
1244	6.2150e-01	-9.6767	-64.275492	0.000606	6.061325	2.053633	-0.048397
1245	6.2200e-01	-9.7200	-64.477147	0.000505	5.051105	1.711361	-0.040331
1246	6.2250e-01	-9.7602	-64.739299	0.000657	6.566436	2.224769	-0.052430
1247	6.2300e-01	-9.8003	-64.969185	0.000576	5.758259	1.950951	-0.045977
1248	6.2350e-01	-9.8404	-65.255535	0.000717	7.172568	2.430132	-0.057270
1249	6.2400e-01	-9.8869	-65.497521	0.000606	6.061325	2.053633	-0.048397
1250	6.2450e-01	-9.9158	-65.747573	0.000626	6.263370	2.122087	-0.050010
1251	6.2500e-01	-9.9591	-65.828235	0.000202	2.020442	0.684544	-0.016132
1252	6.2550e-01	-9.9992	-66.082321	0.000636	6.364392	2.156314	-0.050817
1253	6.2600e-01	-10.0425	-66.324307	0.000606	6.061325	2.053633	-0.048397
1254	6.2650e-01	-10.0794	-66.574359	0.000626	6.263370	2.122087	-0.050010
1255	6.2700e-01	-10.1323	-66.739716	0.000414	4.141906	1.403316	-0.033071
1256	6.2750e-01	-10.1612	-67.062364	0.000808	8.081767	2.738177	-0.064530
1257	6.2800e-01	-10.2045	-67.276118	0.000535	5.354171	1.814042	-0.042751
1258	6.2850e-01	-10.2446	-67.489872	0.000535	5.354171	1.814042	-0.042751
1259	6.2900e-01	-10.2847	-67.856884	0.000919	9.193010	3.114676	-0.073402
1260	6.2950e-01	-10.3168	-67.893182	0.000091	0.909199	0.308045	-0.007260
1261	6.3000e-01	-10.3649	-68.070638	0.000444	4.444972	1.505997	-0.035491
1262	6.3050e-01	-10.4051	-68.373121	0.000758	7.576657	2.567041	-0.060496
1263	6.3100e-01	-10.4452	-68.635272	0.000657	6.566436	2.224769	-0.052430
1264	6.3150e-01	-10.4788	-68.978085	0.000859	8.586878	2.909313	-0.068563
1265	6.3200e-01	-10.5190	-69.191840	0.000535	5.354171	1.814042	-0.042751
1266	6.3250e-01	-10.5655	-69.308799	0.000293	2.929641	0.992589	-0.023392
1267	6.3300e-01	-10.6072	-69.566918	0.000647	6.465414	2.190542	-0.051624
1268	6.3350e-01	-10.6409	-69.675811	0.000273	2.727596	0.924135	-0.021779
1269	6.3400e-01	-10.6762	-70.087188	0.001030	10.304253	3.491176	-0.082275
1270	6.3450e-01	-10.7243	-70.192048	0.000263	2.626574	0.889907	-0.020972
1271	6.3500e-01	-10.7676	-70.389670	0.000495	4.950082	1.677133	-0.039524
1272	6.3550e-01	-10.8013	-70.684086	0.000737	7.374613	2.498586	-0.058883
1273	6.3600e-01	-10.8414	-70.881708	0.000495	4.950082	1.677133	-0.039524
1274	6.3650e-01	-10.8831	-71.176124	0.000737	7.374613	2.498586	-0.058883
1275	6.3700e-01	-10.9328	-71.305183	0.000323	3.232707	1.095271	-0.025812
1276	6.3750e-01	-10.9601	-71.518938	0.000535	5.354171	1.814042	-0.042751
1277	6.3800e-01	-10.9938	-71.801254	0.000707	7.071546	2.395905	-0.056463
1278	6.3850e-01	-11.0403	-71.954512	0.000384	3.838839	1.300634	-0.030652
1279	6.3900e-01	-11.0740	-72.212630	0.000647	6.465414	2.190542	-0.051624
1280	6.3950e-01	-11.1157	-72.519146	0.000768	7.677679	2.601268	-0.061303
1281	6.4000e-01	-11.1687	-72.664338	0.000364	3.636795	1.232180	-0.029038
1282	6.4050e-01	-11.2056	-72.934555	0.000677	6.768480	2.293223	-0.054044
1283	6.4100e-01	-11.2393	-73.112011	0.000444	4.444972	1.505997	-0.035491
1284	6.4150e-01	-11.2745	-73.374163	0.000657	6.566436	2.224769	-0.052430
1285	6.4200e-01	-11.3195	-73.676645	0.000758	7.576657	2.567041	-0.060496
1286	6.4250e-01	-11.3612	-73.817804	0.000354	3.535773	1.197952	-0.028232
1287	6.4300e-01	-11.3981	-73.829903	0.000030	0.303066	0.102682	-0.002420
1288	6.4350e-01	-11.4366	-74.301776	0.001182	11.819585	4.004584	-0.094375
1289	6.4400e-01	-11.4847	-74.463099	0.000404	4.040884	1.369088	-0.032265
1290	6.4450e-01	-11.5200	-74.688953	0.000566	5.657237	1.916724	-0.045171
1291	6.4500e-01	-11.5633	-74.862376	0.000434	4.343950	1.471770	-0.034685
1292	6.4550e-01	-11.6050	-75.136627	0.000687	6.869502	2.327450	-0.054850
1293	6.4600e-01	-11.6403	-75.378613	0.000606	6.061325	2.053633	-0.048397
1294	6.4650e-01	-11.6820	-75.568169	0.000475	4.748038	1.608679	-0.037911
1295	6.4700e-01	-11.7221	-75.789989	0.000556	5.556215	1.882497	-0.044364
1296	6.4750e-01	-11.7638	-75.995677	0.000515	5.152127	1.745588	-0.041138
1297	6.4800e-01	-11.8055	-76.201365	0.000515	5.152127	1.745588	-0.041138
1298	6.4850e-01	-11.8489	-76.443351	0.000606	6.061325	2.053633	-0.048397
1299	6.4900e-01	-11.8874	-76.653072	0.000525	5.253149	1.779815	-0.041944
1300	6.4950e-01	-11.9130	-76.911190	0.000647	6.465414	2.190542	-0.051624
1301	6.5000e-01	-11.9628	-77.032183	0.000303	3.030663	1.026816	-0.024199
1302	6.5050e-01	-12.0061	-77.197540	0.000414	4.141906	1.403316	-0.033071
1303	6.5100e-01	-12.0542	-77.383063	0.000465	4.647016	1.574452	-0.037105
1304	6.5150e-01	-12.0815	-77.762174	0.000950	9.496077	3.217358	-0.075822
1305	6.5200e-01	-12.1200	-77.971895	0.000525	5.253149	1.779815	-0.041944
1306	6.5250e-01	-12.1617	-78.149352	0.000444	4.444972	1.505997	-0.035491
1307	6.5300e-01	-12.2034	-78.459900	0.000778	7.778701	2.635495	-0.062110
1308	6.5350e-01	-12.2387	-78.552661	0.000232	2.323508	0.787226	-0.018552
1309	6.5400e-01	-12.2868	-78.871276	0.000798	7.980745	2.703950	-0.063723
1310	6.5450e-01	-12.3269	-79.016468	0.000364	3.636795	1.232180	-0.029038
1311	6.5500e-01	-12.3590	-79.218123	0.000505	5.051105	1.711361	-0.040331
1312	6.5550e-01	-12.3991	-79.464142	0.000616	6.162348	2.087860	-0.049204
1313	6.5600e-01	-12.4537	-79.637565	0.000434	4.343950	1.471770	-0.034685
1314	6.5650e-01	-12.4890	-79.931981	0.000737	7.374613	2.498586	-0.058883
1315	6.5700e-01	-12.5178	-80.153802	0.000556	5.556215	1.882497	-0.044364
1316	6.5750e-01	-12.5595	-80.238497	0.000212	2.121464	0.718771	-0.016939
1317	6.5800e-01	-12.6029	-80.593409	0.000889	8.889944	3.011995	-0.070983
1318	6.5850e-01	-12.6398	-80.795064	0.000505	5.051105	1.711361	-0.040331
1319	6.5900e-01	-12.6783	-81.069315	0.000687	6.869502	2.327450	-0.054850
1320	6.5950e-01	-12.7296	-81.129811	0.000152	1.515331	0.513408	-0.012099
1321	6.6000e-01	-12.7633	-81.347599	0.000546	5.455193	1.848269	-0.043557
1322	6.6050e-01	-12.8002	-81.533121	0.000465	4.647016	1.574452	-0.037105
1323	6.6100e-01	-12.8419	-81.803339	0.000677	6.768480	2.293223	-0.054044
1324	6.6150e-01	-12.8868	-82.182450	0.000950	9.496077	3.217358	-0.075822
1325	6.6200e-01	-12.9125	-82.388138	0.000515	5.152127	1.745588	-0.041138
1326	6.6250e-01	-12.9558	-82.505098	0.000293	2.929641	0.992589	-0.023392
1327	6.6300e-01	-13.0087	-82.630124	0.000313	3.131685	1.061044	-0.025005
1328	6.6350e-01	-13.0424	-82.864044	0.000586	5.859281	1.985178	-0.046784
1329	6.6400e-01	-13.0841	-83.069732	0.000515	5.152127	1.745588	-0.041138
1330	6.6450e-01	-13.1194	-83.255254	0.000465	4.647016	1.574452	-0.037105
1331	6.6500e-01	-13.1675	-83.541604	0.000717	7.172568	2.430132	-0.057270
1332	6.6550e-01	-13.2028	-83.678730	0.000343	3.434751	1.163725	-0.027425
1333	6.6600e-01	-13.2510	-83.884418	0.000515	5.152127	1.745588	-0.041138
1334	6.6650e-01	-13.2702	-83.997345	0.000283	2.828619	0.958362	-0.022585
1335	6.6700e-01	-13.3232	-84.352257	0.000889	8.889944	3.011995	-0.070983
1336	6.6750e-01	-13.3601	-84.561978	0.000525	5.253149	1.779815	-0.041944
1337	6.6800e-01	-13.4066	-84.832196	0.000677	6.768480	2.293223	-0.054044
1338	6.6850e-01	-13.4435	-85.009652	0.000444	4.444972	1.505997	-0.035491
1339	6.6900e-01	-13.4820	-85.134678	0.000313	3.131685	1.061044	-0.025005
1340	6.6950e-01	-13.5173	-85.376664	0.000606	6.061325	2.053633	-0.048397
1341	6.7000e-01	-13.5766	-85.412962	0.000091	0.909199	0.308045	-0.007260
1342	6.7050e-01	-13.6055	-85.800140	0.000970	9.698121	3.285812	-0.077435
1343	6.7100e-01	-13.6344	-85.969530	0.000424	4.242928	1.437543	-0.033878
1344	6.7150e-01	-13.6889	-86.304277	0.000838	8.384834	2.840859	-0.066949
1345	6.7200e-01	-13.7210	-86.437369	0.000333	3.333729	1.129498	-0.026618
1346	6.7250e-01	-13.7579	-86.614826	0.000444	4.444972	1.505997	-0.035491
1347	6.7300e-01	-13.8028	-86.905209	0.000727	7.273591	2.464359	-0.058077
1348	6.7350e-01	-13.8445	-87.010069	0.000263	2.626574	0.889907	-0.020972
1349	6.7400e-01	-13.8878	-87.268188	0.000647	6.465414	2.190542	-0.051624
1350	6.7450e-01	-13.9215	-87.490008	0.000556	5.556215	1.882497	-0.044364
1351	6.7500e-01	-13.9697	-87.699729	0.000525	5.253149	1.779815	-0.041944
1352	6.7550e-01	-14.0017	-87.905417	0.000515	5.152127	1.745588	-0.041138
1353	6.7600e-01	-14.0579	-88.179668	0.000687	6.869502	2.327450	-0.054850
1354	6.7650e-01	-14.0804	-88.397455	0.000546	5.455193	1.848269	-0.043557
1355	6.7700e-01	-14.1189	-88.457952	0.000152	1.515331	0.513408	-0.012099
1356	6.7750e-01	-14.1638	-88.780600	0.000808	8.081767	2.738177	-0.064530
1357	6.7800e-01	-14.2071	-88.885460	0.000263	2.626574	0.889907	-0.020972
1358	6.7850e-01	-14.2424	-89.018552	0.000333	3.333729	1.129498	-0.026618
1359	6.7900e-01	-14.2761	-89.357333	0.000849	8.485856	2.875086	-0.067756
1360	6.7950e-01	-14.3242	-89.494458	0.000343	3.434751	1.163725	-0.027425
1361	6.8000e-01	-14.3675	-89.700146	0.000515	5.152127	1.745588	-0.041138
1362	6.8050e-01	-14.4060	-89.905834	0.000515	5.152127	1.745588	-0.041138
1363	6.8100e-01	-14.4429	-90.176052	0.000677	6.768480	2.293223	-0.054044
1364	6.8150e-01	-14.4878	-90.526931	0.000879	8.788922	2.977767	-0.070176
1365	6.8200e-01	-14.5247	-90.551130	0.000061	0.606133	0.205363	-0.004840
1366	6.8250e-01	-14.5600	-90.958473	0.001020	10.203231	3.456948	-0.081469
1367	6.8300e-01	-14.6049	-91.018969	0.000152	1.515331	0.513408	-0.012099
1368	6.8350e-01	-14.6418	-91.216591	0.000495	4.950082	1.677133	-0.039524
1369	6.8400e-01	-14.6819	-91.502941	0.000717	7.172568	2.430132	-0.057270
1370	6.8450e-01	-14.7204	-91.704596	0.000505	5.051105	1.711361	-0.040331
1371	6.8500e-01	-14.7622	-91.761059	0.000141	1.414309	0.479181	-0.011293
1372	6.8550e-01	-14.8039	-92.003045	0.000606	6.061325	2.053633	-0.048397
1373	6.8600e-01	-14.8440	-92.240998	0.000596	5.960303	2.019405	-0.047591
1374	6.8650e-01	-14.8825	-92.547514	0.000768	7.677679	2.601268	-0.061303
1375	6.8700e-01	-14.9242	-92.765301	0.000546	5.455193	1.848269	-0.043557
1376	6.8750e-01	-14.9643	-92.950823	0.000465	4.647016	1.574452	-0.037105
1377	6.8800e-01	-15.0076	-93.152478	0.000505	5.051105	1.711361	-0.040331
1378	6.8850e-01	-15.0445	-93.309769	0.000394	3.939862	1.334861	-0.031458
1379	6.8900e-01	-15.0862	-93.592086	0.000707	7.071546	2.395905	-0.056463
1380	6.8950e-01	-15.1279	-93.668715	0.000192	1.919420	0.650317	-0.015326
1381	6.9000e-01	-15.1696	-93.987330	0.000798	7.980745	2.703950	-0.063723
1382	6.9050e-01	-15.2145	-94.132521	0.000364	3.636795	1.232180	-0.029038
1383	6.9100e-01	-15.2498	-94.362408	0.000576	5.758259	1.950951	-0.045977
1384	6.9150e-01	-15.2835	-94.600361	0.000596	5.960303	2.019405	-0.047591
1385	6.9200e-01	-15.3172	-94.947207	0.000869	8.687900	2.943540	-0.069369
1386	6.9250e-01	-15.3653	-94.971406	0.000061	0.606133	0.205363	-0.004840
1387	6.9300e-01	-15.4054	-95.177094	0.000515	5.152127	1.745588	-0.041138
1388	6.9350e-01	-15.4391	-95.390848	0.000535	5.354171	1.814042	-0.042751
1389	6.9400e-01	-15.4905	-95.677198	0.000717	7.172568	2.430132	-0.057270
1390	6.9450e-01	-15.5226	-95.802224	0.000313	3.131685	1.061044	-0.025005
1391	6.9500e-01	-15.5627	-96.128905	0.000818	8.182789	2.772404	-0.065336
1392	6.9550e-01	-15.5980	-96.338626	0.000525	5.253149	1.779815	-0.041944
1393	6.9600e-01	-15.6509	-96.495917	0.000394	3.939862	1.334861	-0.031458
1394	6.9650e-01	-15.6814	-96.713704	0.000546	5.455193	1.848269	-0.043557
1395	6.9700e-01	-15.7295	-96.810499	0.000242	2.424530	0.821453	-0.019359
1396	6.9750e-01	-15.7648	-97.036352	0.000566	5.657237	1.916724	-0.045171
1397	6.9800e-01	-15.8049	-97.415464	0.000950	9.496077	3.217358	-0.075822
1398	6.9850e-01	-15.8418	-97.564688	0.000374	3.737817	1.266407	-0.029845
1399	6.9900e-01	-15.8819	-97.786509	0.000556	5.556215	1.882497	-0.044364
1400	6.9950e-01	-15.9252	-98.008329	0.000556	5.556215	1.882497	-0.044364
1401	7.0000e-01	-15.9605	-98.185785	0.000444	4.444972	1.505997	-0.035491
1402	7.0050e-01	-16.0086	-98.383407	0.000495	4.950082	1.677133	-0.039524
1403	7.0100e-01	-16.0375	-98.585062	0.000505	5.051105	1.711361	-0.040331
1404	7.0150e-01	-16.0792	-98.976273	0.000980	9.799143	3.320039	-0.078242
1405	7.0200e-01	-16.1225	-99.065001	0.000222	2.222486	0.752999	-0.017746
1406	7.0250e-01	-16.1562	-99.335219	0.000677	6.768480	2.293223	-0.054044
1407	7.0300e-01	-16.1963	-99.516708	0.000455	4.545994	1.540224	-0.036298
1408	7.0350e-01	-16.2413	-99.665933	0.000374	3.737817	1.266407	-0.029845
1409	7.0400e-01	-16.2878	-99.936150	0.000677	6.768480	2.293223	-0.054044
1410	7.0450e-01	-16.3199	-100.218467	0.000707	7.071546	2.395905	-0.056463
1411	7.0500e-01	-16.3632	-100.347526	0.000323	3.232707	1.095271	-0.025812
1412	7.0550e-01	-16.4017	-100.553214	0.000515	5.152127	1.745588	-0.041138
1413	7.0600e-01	-16.4482	-100.726638	0.000434	4.343950	1.471770	-0.034685
1414	7.0650e-01	-16.4835	-101.065418	0.000849	8.485856	2.875086	-0.067756
1415	7.0700e-01	-16.5220	-101.287238	0.000556	5.556215	1.882497	-0.044364
1416	7.0750e-01	-16.5573	-101.440496	0.000384	3.838839	1.300634	-0.030652
1417	7.0800e-01	-16.6006	-101.593754	0.000384	3.838839	1.300634	-0.030652
1418	7.0850e-01	-16.6471	-101.714747	0.000303	3.030663	1.026816	-0.024199
1419	7.0900e-01	-16.6792	-102.069659	0.000889	8.889944	3.011995	-0.070983
1420	7.0950e-01	-16.7209	-102.368109	0.000748	7.475635	2.532814	-0.059690
1421	7.1000e-01	-16.7610	-102.553631	0.000465	4.647016	1.574452	-0.037105
1422	7.1050e-01	-16.7947	-102.799650	0.000616	6.162348	2.087860	-0.049204
1423	7.1100e-01	-16.8348	-103.001305	0.000505	5.051105	1.711361	-0.040331
1424	7.1150e-01	-16.8765	-103.166662	0.000414	4.141906	1.403316	-0.033071
1425	7.1200e-01	-16.9166	-103.457045	0.000727	7.273591	2.464359	-0.058077
1426	7.1250e-01	-16.9632	-103.674833	0.000546	5.455193	1.848269	-0.043557
1427	7.1300e-01	-17.0017	-103.916819	0.000606	6.061325	2.053633	-0.048397
1428	7.1350e-01	-17.0386	-104.009580	0.000232	2.323508	0.787226	-0.018552
1429	7.1400e-01	-17.0835	-104.183003	0.000434	4.343950	1.471770	-0.034685
1430	7.1450e-01	-17.1220	-104.533883	0.000879	8.788922	2.977767	-0.070176
1431	7.1500e-01	-17.1573	-104.828299	0.000737	7.374613	2.498586	-0.058883
1432	7.1550e-01	-17.2054	-104.921060	0.000232	2.323508	0.787226	-0.018552
1433	7.1600e-01	-17.2471	-105.183212	0.000657	6.566436	2.224769	-0.052430
1434	7.1650e-01	-17.2824	-105.400999	0.000546	5.455193	1.848269	-0.043557
1435	7.1700e-01	-17.3193	-105.614753	0.000535	5.354171	1.814042	-0.042751
1436	7.1750e-01	-17.3754	-105.784143	0.000424	4.242928	1.437543	-0.033878
1437	7.1800e-01	-17.4059	-106.118890	0.000838	8.384834	2.840859	-0.066949
1438	7.1850e-01	-17.4444	-106.292314	0.000434	4.343950	1.471770	-0.034685
1439	7.1900e-01	-17.4813	-106.663359	0.000929	9.294032	3.148903	-0.074209
1440	7.1950e-01	-17.5246	-106.852914	0.000475	4.748038	1.608679	-0.037911
1441	7.2000e-01	-17.5599	-106.937609	0.000212	2.121464	0.718771	-0.016939
1442	7.2050e-01	-17.6000	-107.256224	0.000798	7.980745	2.703950	-0.063723
1443	7.2100e-01	-17.6369	-107.288489	0.000081	0.808177	0.273818	-0.006453
1444	7.2150e-01	-17.6786	-107.651468	0.000909	9.091988	3.080449	-0.072596
1445	7.2200e-01	-17.7284	-107.901520	0.000626	6.263370	2.122087	-0.050010
1446	7.2250e-01	-17.7717	-108.199969	0.000748	7.475635	2.532814	-0.059690
1447	7.2300e-01	-17.8054	-108.413724	0.000535	5.354171	1.814042	-0.042751
1448	7.2350e-01	-17.8343	-108.635544	0.000556	5.556215	1.882497	-0.044364
1449	7.2400e-01	-17.8824	-108.744438	0.000273	2.727596	0.924135	-0.021779
1450	7.2450e-01	-17.9145	-109.050953	0.000768	7.677679	2.601268	-0.061303
1451	7.2500e-01	-17.9626	-109.329237	0.000697	6.970524	2.361678	-0.055657
1452	7.2550e-01	-18.0107	-109.567190	0.000596	5.960303	2.019405	-0.047591
1453	7.2600e-01	-18.0444	-109.704315	0.000343	3.434751	1.163725	-0.027425
1454	7.2650e-01	-18.0861	-110.039062	0.000838	8.384834	2.840859	-0.066949
1455	7.2700e-01	-18.1198	-110.277015	0.000596	5.960303	2.019405	-0.047591
1456	7.2750e-01	-18.1599	-110.611762	0.000838	8.384834	2.840859	-0.066949
1457	7.2800e-01	-18.2129	-110.611762	-0.000000	-0.000000	-0.000000	0.000000
1458	7.2850e-01	-18.2514	-110.926344	0.000788	7.879723	2.669722	-0.062916
1459	7.2900e-01	-18.2947	-111.063469	0.000343	3.434751	1.163725	-0.027425
1460	7.2950e-01	-18.3284	-111.273190	0.000525	5.253149	1.779815	-0.041944
1461	7.3000e-01	-18.3588	-111.563574	0.000727	7.273591	2.464359	-0.058077
1462	7.3050e-01	-18.3989	-111.853957	0.000727	7.273591	2.464359	-0.058077
1463	7.3100e-01	-18.4391	-112.120141	0.000667	6.667458	2.258996	-0.053237
1464	7.3150e-01	-18.4888	-112.305664	0.000465	4.647016	1.574452	-0.037105
1465	7.3200e-01	-18.5273	-112.596047	0.000727	7.273591	2.464359	-0.058077
1466	7.3250e-01	-18.5626	-112.789636	0.000485	4.849060	1.642906	-0.038718
1467	7.3300e-01	-18.6091	-112.995324	0.000515	5.152127	1.745588	-0.041138
1468	7.3350e-01	-18.6396	-113.366369	0.000929	9.294032	3.148903	-0.074209
1469	7.3400e-01	-18.6765	-113.620454	0.000636	6.364392	2.156314	-0.050817
1470	7.3450e-01	-18.7198	-113.886638	0.000667	6.667458	2.258996	-0.053237
1471	7.3500e-01	-18.7679	-114.068128	0.000455	4.545994	1.540224	-0.036298
1472	7.3550e-01	-18.8016	-114.338345	0.000677	6.768480	2.293223	-0.054044
1473	7.3600e-01	-18.8417	-114.475471	0.000343	3.434751	1.163725	-0.027425
1474	7.3650e-01	-18.8866	-114.632762	0.000394	3.939862	1.334861	-0.031458
1475	7.3700e-01	-18.9187	-115.124800	0.001232	12.324695	4.175720	-0.098408
1476	7.3750e-01	-18.9588	-115.261925	0.000343	3.434751	1.163725	-0.027425
1477	7.3800e-01	-19.0118	-115.552308	0.000727	7.273591	2.464359	-0.058077
1478	7.3850e-01	-19.0438	-115.766062	0.000535	5.354171	1.814042	-0.042751
1479	7.3900e-01	-19.0856	-115.951585	0.000465	4.647016	1.574452	-0.037105
1480	7.3950e-01	-19.1353	-116.189538	0.000596	5.960303	2.019405	-0.047591
1481	7.4000e-01	-19.1561	-116.399259	0.000525	5.253149	1.779815	-0.041944
1482	7.4050e-01	-19.2091	-116.758205	0.000899	8.990966	3.046222	-0.071789
1483	7.4100e-01	-19.2364	-116.919528	0.000404	4.040884	1.369088	-0.032265
1484	7.4150e-01	-19.2797	-117.145382	0.000566	5.657237	1.916724	-0.045171
1485	7.4200e-01	-19.3230	-117.681784	0.001344	13.435938	4.552219	-0.107280
1486	7.4250e-01	-19.3663	-117.810843	0.000323	3.232707	1.095271	-0.025812
1487	7.4300e-01	-19.4048	-117.952002	0.000354	3.535773	1.197952	-0.028232
1488	7.4350e-01	-19.4513	-118.306914	0.000889	8.889944	3.011995	-0.070983
1489	7.4400e-01	-19.4738	-118.492437	0.000465	4.647016	1.574452	-0.037105
1490	7.4450e-01	-19.5203	-118.823151	0.000828	8.283811	2.806631	-0.066143
1491	7.4500e-01	-19.5652	-119.028839	0.000515	5.152127	1.745588	-0.041138
1492	7.4550e-01	-19.6085	-119.303090	0.000687	6.869502	2.327450	-0.054850
1493	7.4600e-01	-19.6374	-119.476513	0.000434	4.343950	1.471770	-0.034685
1494	7.4650e-01	-19.6855	-119.649936	0.000434	4.343950	1.471770	-0.034685
1495	7.4700e-01	-19.7160	-120.033081	0.000960	9.597099	3.251585	-0.076629
1496	7.4750e-01	-19.7609	-120.295232	0.000657	6.566436	2.224769	-0.052430
1497	7.4800e-01	-19.8026	-120.549317	0.000636	6.364392	2.156314	-0.050817
1498	7.4850e-01	-19.8395	-120.815502	0.000667	6.667458	2.258996	-0.053237
1499	7.4900e-01	-19.8813	-121.089752	0.000687	6.869502	2.327450	-0.054850
1500	7.4950e-01	-19.9262	-121.291407	0.000505	5.051105	1.711361	-0.040331
1501	7.5000e-01	-19.9663	-121.618088	0.000818	8.182789	2.772404	-0.065336
1502	7.5050e-01	-19.9647	-121.682618	-0.000162	-1.616353	-0.547635	-0.012906
1503	7.5100e-01	-19.9454	-121.682618	0.000000	0.000000	0.000000	0.000000
1504	7.5150e-01	-19.9069	-121.811677	-0.000323	-3.232707	-1.095271	-0.025812
1505	7.5200e-01	-19.8588	-121.710850	0.000253	2.525552	0.855680	0.020165
1506	7.5250e-01	-19.8187	-121.581790	0.000323	3.232707	1.095271	0.025812
1507	7.5300e-01	-19.7786	-121.480963	0.000253	2.525552	0.855680	0.020165
1508	7.5350e-01	-19.7465	-121.493062	-0.000030	-0.303066	-0.102682	-0.002420
1509	7.5400e-01	-19.6984	-121.380136	0.000283	2.828619	0.958362	0.022585
1510	7.5450e-01	-19.6695	-121.368036	0.000030	0.303066	0.102682	0.002420
1511	7.5500e-01	-19.6310	-121.259143	0.000273	2.727596	0.924135	0.021779
1512	7.5550e-01	-19.5781	-121.166381	0.000232	2.323508	0.787226	0.018552
1513	7.5600e-01	-19.5444	-121.105885	0.000152	1.515331	0.513408	0.012099
1514	7.5650e-01	-19.5043	-120.928428	0.000444	4.444972	1.505997	0.035491
1515	7.5700e-01	-19.4706	-120.867932	0.000152	1.515331	0.513408	0.012099
1516	7.5750e-01	-19.4257	-120.815502	0.000131	1.313287	0.444954	0.010486
1517	7.5800e-01	-19.3872	-120.569483	0.000616	6.162348	2.087860	0.049204
1518	7.5850e-01	-19.3422	-120.408159	0.000404	4.040884	1.369088	0.032265
1519	7.5900e-01	-19.3037	-120.400093	0.000020	0.202044	0.068454	0.001613
1520	7.5950e-01	-19.2716	-120.323464	0.000192	1.919420	0.650317	0.015326
1521	7.6000e-01	-19.2203	-120.254901	0.000172	1.717376	0.581863	0.013713
1522	7.6050e-01	-19.1802	-120.045180	0.000525	5.253149	1.779815	0.041944
1523	7.6100e-01	-19.1385	-119.996783	0.000121	1.212265	0.410727	0.009679
1524	7.6150e-01	-19.1064	-119.859657	0.000343	3.434751	1.163725	0.027425
1525	7.6200e-01	-19.0679	-119.754797	0.000263	2.626574	0.889907	0.020972
1526	7.6250e-01	-19.0262	-119.569274	0.000465	4.647016	1.574452	0.037105
1527	7.6300e-01	-18.9925	-119.440215	0.000323	3.232707	1.095271	0.025812
1528	7.6350e-01	-18.9492	-119.319222	0.000303	3.030663	1.026816	0.024199
1529	7.6400e-01	-18.9043	-119.258726	0.000152	1.515331	0.513408	0.012099
1530	7.6450e-01	-18.8706	-119.053038	0.000515	5.152127	1.745588	0.041138
1531	7.6500e-01	-18.8353	-118.843317	0.000525	5.253149	1.779815	0.041944
1532	7.6550e-01	-18.7872	-118.782820	0.000152	1.515331	0.513408	0.012099
1533	7.6600e-01	-18.7439	-118.605364	0.000444	4.444972	1.505997	0.035491
1534	7.6650e-01	-18.7054	-118.536801	0.000172	1.717376	0.581863	0.013713
1535	7.6700e-01	-18.6669	-118.452106	0.000212	2.121464	0.718771	0.016939
1536	7.6750e-01	-18.6316	-118.298848	0.000384	3.838839	1.300634	0.030652
1537	7.6800e-01	-18.5915	-118.202054	0.000242	2.424530	0.821453	0.019359
1538	7.6850e-01	-18.5401	-118.048796	0.000384	3.838839	1.300634	0.030652
1539	7.6900e-01	-18.5128	-117.818909	0.000576	5.758259	1.950951	0.045977
1540	7.6950e-01	-18.4663	-117.697917	0.000303	3.030663	1.026816	0.024199
1541	7.7000e-01	-18.4246	-117.609188	0.000222	2.222486	0.752999	0.017746
1542	7.7050e-01	-18.3909	-117.355103	0.000636	6.364392	2.156314	0.050817
1543	7.7100e-01	-18.3540	-117.383335	-0.000071	-0.707155	-0.239590	-0.005646
1544	7.7150e-01	-18.3027	-116.927595	0.001142	11.415496	3.867675	0.091148
1545	7.7200e-01	-18.2738	-116.996157	-0.000172	-1.717376	-0.581863	-0.013713
1546	7.7250e-01	-18.2273	-116.746105	0.000626	6.263370	2.122087	0.050010
1547	7.7300e-01	-18.1872	-116.738039	0.000020	0.202044	0.068454	0.001613
1548	7.7350e-01	-18.1342	-116.657377	0.000202	2.020442	0.684544	0.016132
1549	7.7400e-01	-18.1070	-116.379093	0.000697	6.970524	2.361678	0.055657
1550	7.7450e-01	-18.0685	-116.395226	-0.000040	-0.404088	-0.136909	-0.003226
1551	7.7500e-01	-18.0268	-116.068545	0.000818	8.182789	2.772404	0.065336
1552	7.7550e-01	-17.9867	-115.899155	0.000424	4.242928	1.437543	0.033878
1553	7.7600e-01	-17.9498	-115.862857	0.000091	0.909199	0.308045	0.007260
1554	7.7650e-01	-17.9000	-115.685400	0.000444	4.444972	1.505997	0.035491
1555	7.7700e-01	-17.8615	-115.532143	0.000384	3.838839	1.300634	0.030652
1556	7.7750e-01	-17.8327	-115.423249	0.000273	2.727596	0.924135	0.021779
1557	7.7800e-01	-17.7958	-115.225627	0.000495	4.950082	1.677133	0.039524
1558	7.7850e-01	-17.7444	-115.100601	0.000313	3.131685	1.061044	0.025005
1559	7.7900e-01	-17.7059	-114.975575	0.000313	3.131685	1.061044	0.025005
1560	7.7950e-01	-17.6658	-114.822317	0.000384	3.838839	1.300634	0.030652
1561	7.8000e-01	-17.6225	-114.624695	0.000495	4.950082	1.677133	0.039524
1562	7.8050e-01	-17.5840	-114.624695	0.000000	0.000000	0.000000	0.000000
1563	7.8100e-01	-17.5455	-114.354478	0.000677	6.768480	2.293223	0.054044
1564	7.8150e-01	-17.5070	-114.136690	0.000546	5.455193	1.848269	0.043557
1565	7.8200e-01	-17.4653	-114.096359	0.000101	1.010221	0.342272	0.008066
1566	7.8250e-01	-17.4348	-113.886638	0.000525	5.253149	1.779815	0.041944
1567	7.8300e-01	-17.3867	-113.757579	0.000323	3.232707	1.095271	0.025812
1568	7.8350e-01	-17.3546	-113.430898	0.000818	8.182789	2.772404	0.065336
1569	7.8400e-01	-17.3081	-113.205045	0.000566	5.657237	1.916724	0.045171
1570	7.8450e-01	-17.2664	-113.289740	-0.000212	-2.121464	-0.718771	-0.016939
1571	7.8500e-01	-17.2311	-113.132449	0.000394	3.939862	1.334861	0.031458
1572	7.8550e-01	-17.1894	-112.959026	0.000434	4.343950	1.471770	0.034685
1573	7.8600e-01	-17.1509	-112.773503	0.000465	4.647016	1.574452	0.037105
1574	7.8650e-01	-17.1027	-112.757371	0.000040	0.404088	0.136909	0.003226
1575	7.8700e-01	-17.0674	-112.483120	0.000687	6.869502	2.327450	0.054850
1576	7.8750e-01	-17.0337	-112.325829	0.000394	3.939862	1.334861	0.031458
1577	7.8800e-01	-16.9856	-112.152406	0.000434	4.343950	1.471770	0.034685
1578	7.8850e-01	-16.9519	-112.003181	0.000374	3.737817	1.266407	0.029845
1579	7.8900e-01	-16.9166	-111.773295	0.000576	5.758259	1.950951	0.045977
1580	7.8950e-01	-16.8669	-111.636169	0.000343	3.434751	1.163725	0.027425
1581	7.9000e-01	-16.8204	-111.616004	0.000051	0.505110	0.171136	0.004033
1582	7.9050e-01	-16.7803	-111.414349	0.000505	5.051105	1.711361	0.040331
1583	7.9100e-01	-16.7450	-111.168330	0.000616	6.162348	2.087860	0.049204
1584	7.9150e-01	-16.7113	-111.019105	0.000374	3.737817	1.266407	0.029845
1585	7.9200e-01	-16.6664	-110.841649	0.000444	4.444972	1.505997	0.035491
1586	7.9250e-01	-16.6263	-110.708557	0.000333	3.333729	1.129498	0.026618
1587	7.9300e-01	-16.5926	-110.587564	0.000303	3.030663	1.026816	0.024199
1588	7.9350e-01	-16.5525	-110.345578	0.000606	6.061325	2.053633	0.048397
1589	7.9400e-01	-16.5076	-110.248783	0.000242	2.424530	0.821453	0.019359
1590	7.9450e-01	-16.4642	-110.119724	0.000323	3.232707	1.095271	0.025812
1591	7.9500e-01	-16.4273	-109.885805	0.000586	5.859281	1.985178	0.046784
1592	7.9550e-01	-16.3921	-109.748679	0.000343	3.434751	1.163725	0.027425
1593	7.9600e-01	-16.3439	-109.740613	0.000020	0.202044	0.068454	0.001613
1594	7.9650e-01	-16.2958	-109.458296	0.000707	7.071546	2.395905	0.056463
1595	7.9700e-01	-16.2765	-109.309071	0.000374	3.737817	1.266407	0.029845
1596	7.9750e-01	-16.2284	-109.184045	0.000313	3.131685	1.061044	0.025005
1597	7.9800e-01	-16.1947	-108.978357	0.000515	5.152127	1.745588	0.041138
1598	7.9850e-01	-16.1450	-108.817033	0.000404	4.040884	1.369088	0.032265
1599	7.9900e-01	-16.1049	-108.566981	0.000626	6.263370	2.122087	0.050010
1600	7.9950e-01	-16.0712	-108.454055	0.000283	2.828619	0.958362	0.022585
1601	8.0000e-01	-16.0247	-108.333062	0.000303	3.030663	1.026816	0.024199
1602	8.0050e-01	-15.9814	-108.212069	0.000303	3.030663	1.026816	0.024199
1603	8.0100e-01	-15.9429	-107.962016	0.000626	6.263370	2.122087	0.050010
1604	8.0150e-01	-15.9060	-107.800693	0.000404	4.040884	1.369088	0.032265
1605	8.0200e-01	-15.8739	-107.647435	0.000384	3.838839	1.300634	0.030652
1606	8.0250e-01	-15.8258	-107.344952	0.000758	7.576657	2.567041	0.060496
1607	8.0300e-01	-15.7985	-107.240092	0.000263	2.626574	0.889907	0.020972
1608	8.0350e-01	-15.7488	-107.147331	0.000232	2.323508	0.787226	0.018552
1609	8.0400e-01	-15.7135	-107.054569	0.000232	2.323508	0.787226	0.018552
1610	8.0450e-01	-15.6653	-106.756120	0.000748	7.475635	2.532814	0.059690
1611	8.0500e-01	-15.6268	-106.578664	0.000444	4.444972	1.505997	0.035491
1612	8.0550e-01	-15.5851	-106.433472	0.000364	3.636795	1.232180	0.029038
1613	8.0600e-01	-15.5466	-106.151155	0.000707	7.071546	2.395905	0.056463
1614	8.0650e-01	-15.5065	-106.147122	0.000010	0.101022	0.034227	0.000807
1615	8.0700e-01	-15.4616	-105.965633	0.000455	4.545994	1.540224	0.036298
1616	8.0750e-01	-15.4247	-105.812375	0.000384	3.838839	1.300634	0.030652
1617	8.0800e-01	-15.3894	-105.667183	0.000364	3.636795	1.232180	0.029038
1618	8.0850e-01	-15.3445	-105.513926	0.000384	3.838839	1.300634	0.030652
1619	8.0900e-01	-15.3060	-105.296138	0.000546	5.455193	1.848269	0.043557
1620	8.0950e-01	-15.2659	-105.098516	0.000495	4.950082	1.677133	0.039524
1621	8.1000e-01	-15.2194	-104.929126	0.000424	4.242928	1.437543	0.033878
1622	8.1050e-01	-15.1857	-104.671008	0.000647	6.465414	2.190542	0.051624
1623	8.1100e-01	-15.1472	-104.618578	0.000131	1.313287	0.444954	0.010486
1624	8.1150e-01	-15.0974	-104.332228	0.000717	7.172568	2.430132	0.057270
1625	8.1200e-01	-15.0589	-104.251566	0.000202	2.020442	0.684544	0.016132
1626	8.1250e-01	-15.0220	-104.118474	0.000333	3.333729	1.129498	0.026618
1627	8.1300e-01	-14.9835	-103.945050	0.000434	4.343950	1.471770	0.034685
1628	8.1350e-01	-14.9531	-103.727263	0.000546	5.455193	1.848269	0.043557
1629	8.1400e-01	-14.9017	-103.565939	0.000404	4.040884	1.369088	0.032265
1630	8.1450e-01	-14.8600	-103.448979	0.000293	2.929641	0.992589	0.023392
1631	8.1500e-01	-14.8215	-103.227159	0.000556	5.556215	1.882497	0.044364
1632	8.1550e-01	-14.7846	-102.981140	0.000616	6.162348	2.087860	0.049204
1633	8.1600e-01	-14.7445	-102.831915	0.000374	3.737817	1.266407	0.029845
1634	8.1650e-01	-14.7092	-102.714955	0.000293	2.929641	0.992589	0.023392
1635	8.1700e-01	-14.6707	-102.557664	0.000394	3.939862	1.334861	0.031458
1636	8.1750e-01	-14.6274	-102.339877	0.000546	5.455193	1.848269	0.043557
1637	8.1800e-01	-14.5889	-102.178553	0.000404	4.040884	1.369088	0.032265
1638	8.1850e-01	-14.5440	-101.980931	0.000495	4.950082	1.677133	0.039524
1639	8.1900e-01	-14.5055	-101.815574	0.000414	4.141906	1.403316	0.033071
1640	8.1950e-01	-14.4702	-101.557456	0.000647	6.465414	2.190542	0.051624
1641	8.2000e-01	-14.4237	-101.521158	0.000091	0.909199	0.308045	0.007260
1642	8.2050e-01	-14.3900	-101.267073	0.000636	6.364392	2.156314	0.050817
1643	8.2100e-01	-14.3402	-101.182378	0.000212	2.121464	0.718771	0.016939
1644	8.2150e-01	-14.3017	-100.871829	0.000778	7.778701	2.635495	0.062110
1645	8.2200e-01	-14.2648	-100.795200	0.000192	1.919420	0.650317	0.015326
1646	8.2250e-01	-14.2376	-100.549181	0.000616	6.162348	2.087860	0.049204
1647	8.2300e-01	-14.1846	-100.383824	0.000414	4.141906	1.403316	0.033071
1648	8.2350e-01	-14.1429	-100.222500	0.000404	4.040884	1.369088	0.032265
1649	8.2400e-01	-14.1108	-100.069243	0.000384	3.838839	1.300634	0.030652
1650	8.2450e-01	-14.0675	-99.835323	0.000586	5.859281	1.985178	0.046784
1651	8.2500e-01	-14.0258	-99.710297	0.000313	3.131685	1.061044	0.025005
1652	8.2550e-01	-13.9905	-99.621569	0.000222	2.222486	0.752999	0.017746
1653	8.2600e-01	-13.9488	-99.343285	0.000697	6.970524	2.361678	0.055657
1654	8.2650e-01	-13.9039	-99.133564	0.000525	5.253149	1.779815	0.041944
1655	8.2700e-01	-13.8574	-99.028703	0.000263	2.626574	0.889907	0.020972
1656	8.2750e-01	-13.8285	-98.839147	0.000475	4.748038	1.608679	0.037911
1657	8.2800e-01	-13.7820	-98.730254	0.000273	2.727596	0.924135	0.021779
1658	8.2850e-01	-13.7419	-98.536665	0.000485	4.849060	1.642906	0.038718
1659	8.2900e-01	-13.7001	-98.343076	0.000485	4.849060	1.642906	0.038718
1660	8.2950e-01	-13.6649	-98.157554	0.000465	4.647016	1.574452	0.037105
1661	8.3000e-01	-13.6328	-97.871204	0.000717	7.172568	2.430132	0.057270
1662	8.3050e-01	-13.5846	-97.726012	0.000364	3.636795	1.232180	0.029038
1663	8.3100e-01	-13.5413	-97.633251	0.000232	2.323508	0.787226	0.018552
1664	8.3150e-01	-13.5012	-97.363033	0.000677	6.768480	2.293223	0.054044
1665	8.3200e-01	-13.4643	-97.076683	0.000717	7.172568	2.430132	0.057270
1666	8.3250e-01	-13.4306	-97.000054	0.000192	1.919420	0.650317	0.015326
1667	8.3300e-01	-13.3825	-96.919393	0.000202	2.020442	0.684544	0.016132
1668	8.3350e-01	-13.3424	-96.665307	0.000636	6.364392	2.156314	0.050817
1669	8.3400e-01	-13.3039	-96.435421	0.000576	5.758259	1.950951	0.045977
1670	8.3450e-01	-13.2622	-96.274097	0.000404	4.040884	1.369088	0.032265
1671	8.3500e-01	-13.2221	-96.068409	0.000515	5.152127	1.745588	0.041138
1672	8.3550e-01	-13.1804	-95.923217	0.000364	3.636795	1.232180	0.029038
1673	8.3600e-01	-13.1467	-95.717529	0.000515	5.152127	1.745588	0.041138
1674	8.3650e-01	-13.0921	-95.499742	0.000546	5.455193	1.848269	0.043557
1675	8.3700e-01	-13.0569	-95.370683	0.000323	3.232707	1.095271	0.025812
1676	8.3750e-01	-13.0280	-95.205326	0.000414	4.141906	1.403316	0.033071
1677	8.3800e-01	-12.9863	-94.923009	0.000707	7.071546	2.395905	0.056463
1678	8.3850e-01	-12.9446	-94.878645	0.000111	1.111243	0.376499	0.008873
1679	8.3900e-01	-12.9061	-94.531798	0.000869	8.687900	2.943540	0.069369
1680	8.3950e-01	-12.8708	-94.507600	0.000061	0.606133	0.205363	0.004840
1681	8.4000e-01	-12.8290	-94.297878	0.000525	5.253149	1.779815	0.041944
1682	8.4050e-01	-12.7857	-94.023628	0.000687	6.869502	2.327450	0.054850
1683	8.4100e-01	-12.7520	-93.922800	0.000253	2.525552	0.855680	0.020165
1684	8.4150e-01	-12.6943	-93.781642	0.000354	3.535773	1.197952	0.028232
1685	8.4200e-01	-12.6702	-93.596119	0.000465	4.647016	1.574452	0.037105
1686	8.4250e-01	-12.6285	-93.398497	0.000495	4.950082	1.677133	0.039524
1687	8.4300e-01	-12.5932	-93.212975	0.000465	4.647016	1.574452	0.037105
1688	8.4350e-01	-12.5403	-92.970989	0.000606	6.061325	2.053633	0.048397
1689	8.4400e-01	-12.5098	-92.660440	0.000778	7.778701	2.635495	0.062110
1690	8.4450e-01	-12.4649	-92.672540	-0.000030	-0.303066	-0.102682	-0.002420
1691	8.4500e-01	-12.4344	-92.491050	0.000455	4.545994	1.540224	0.036298
1692	8.4550e-01	-12.3863	-92.301495	0.000475	4.748038	1.608679	0.037911
1693	8.4600e-01	-12.3510	-91.974814	0.000818	8.182789	2.772404	0.065336
1694	8.4650e-01	-12.3061	-91.777192	0.000495	4.950082	1.677133	0.039524
1695	8.4700e-01	-12.2628	-91.583603	0.000485	4.849060	1.642906	0.038718
1696	8.4750e-01	-12.2275	-91.470676	0.000283	2.828619	0.958362	0.022585
1697	8.4800e-01	-12.1825	-91.285154	0.000465	4.647016	1.574452	0.037105
1698	8.4850e-01	-12.1473	-91.103664	0.000455	4.545994	1.540224	0.036298
1699	8.4900e-01	-12.1039	-90.881844	0.000556	5.556215	1.882497	0.044364
1700	8.4950e-01	-12.0670	-90.700354	0.000455	4.545994	1.540224	0.036298
1701	8.5000e-01	-12.0237	-90.559196	0.000354	3.535773	1.197952	0.028232
1702	8.5050e-01	-11.9836	-90.301078	0.000647	6.465414	2.190542	0.051624
1703	8.5100e-01	-11.9419	-90.163952	0.000343	3.434751	1.163725	0.027425
1704	8.5150e-01	-11.9034	-89.853404	0.000778	7.778701	2.635495	0.062110
1705	8.5200e-01	-11.8665	-89.809040	0.000111	1.111243	0.376499	0.008873
1706	8.5250e-01	-11.8232	-89.538822	0.000677	6.768480	2.293223	0.054044
1707	8.5300e-01	-11.7847	-89.361366	0.000444	4.444972	1.505997	0.035491
1708	8.5350e-01	-11.7478	-89.119380	0.000606	6.061325	2.053633	0.048397
1709	8.5400e-01	-11.7109	-88.974188	0.000364	3.636795	1.232180	0.029038
1710	8.5450e-01	-11.6596	-88.724136	0.000626	6.263370	2.122087	0.050010
1711	8.5500e-01	-11.6227	-88.574912	0.000374	3.737817	1.266407	0.029845
1712	8.5550e-01	-11.5922	-88.357124	0.000546	5.455193	1.848269	0.043557
1713	8.5600e-01	-11.5441	-88.219999	0.000343	3.434751	1.163725	0.027425
1714	8.5650e-01	-11.5007	-88.082873	0.000343	3.434751	1.163725	0.027425
1715	8.5700e-01	-11.4638	-87.836854	0.000616	6.162348	2.087860	0.049204
1716	8.5750e-01	-11.4237	-87.598902	0.000596	5.960303	2.019405	0.047591
1717	8.5800e-01	-11.3820	-87.389181	0.000525	5.253149	1.779815	0.041944
1718	8.5850e-01	-11.3355	-87.248022	0.000354	3.535773	1.197952	0.028232
1719	8.5900e-01	-11.2986	-86.965705	0.000707	7.071546	2.395905	0.056463
1720	8.5950e-01	-11.2649	-86.683388	0.000707	7.071546	2.395905	0.056463
1721	8.6000e-01	-11.2248	-86.546263	0.000343	3.434751	1.163725	0.027425
1722	8.6050e-01	-11.1895	-86.449469	0.000242	2.424530	0.821453	0.019359
1723	8.6100e-01	-11.1478	-86.332509	0.000293	2.929641	0.992589	0.023392
1724	8.6150e-01	-11.0965	-86.086490	0.000616	6.162348	2.087860	0.049204
1725	8.6200e-01	-11.0500	-85.860636	0.000566	5.657237	1.916724	0.045171
1726	8.6250e-01	-11.0211	-85.683180	0.000444	4.444972	1.505997	0.035491
1727	8.6300e-01	-10.9810	-85.465392	0.000546	5.455193	1.848269	0.043557
1728	8.6350e-01	-10.9521	-85.312135	0.000384	3.838839	1.300634	0.030652
1729	8.6400e-01	-10.9024	-85.049983	0.000657	6.566436	2.224769	0.052430
1730	8.6450e-01	-10.8623	-84.888659	0.000404	4.040884	1.369088	0.032265
1731	8.6500e-01	-10.8302	-84.682971	0.000515	5.152127	1.745588	0.041138
1732	8.6550e-01	-10.7756	-84.408721	0.000687	6.869502	2.327450	0.054850
1733	8.6600e-01	-10.7500	-84.182867	0.000566	5.657237	1.916724	0.045171
1734	8.6650e-01	-10.7050	-83.997345	0.000465	4.647016	1.574452	0.037105
1735	8.6700e-01	-10.6617	-83.864252	0.000333	3.333729	1.129498	0.026618
1736	8.6750e-01	-10.6280	-83.646465	0.000546	5.455193	1.848269	0.043557
1737	8.6800e-01	-10.5895	-83.428678	0.000546	5.455193	1.848269	0.043557
1738	8.6850e-01	-10.5510	-83.198791	0.000576	5.758259	1.950951	0.045977
1739	8.6900e-01	-10.4981	-83.110063	0.000222	2.222486	0.752999	0.017746
1740	8.6950e-01	-10.4676	-82.912441	0.000495	4.950082	1.677133	0.039524
1741	8.7000e-01	-10.4307	-82.553495	0.000899	8.990966	3.046222	0.071789
1742	8.7050e-01	-10.3842	-82.327642	0.000566	5.657237	1.916724	0.045171
1743	8.7100e-01	-10.3425	-82.154219	0.000434	4.343950	1.471770	0.034685
1744	8.7150e-01	-10.2960	-81.916266	0.000596	5.960303	2.019405	0.047591
1745	8.7200e-01	-10.2575	-81.823504	0.000232	2.323508	0.787226	0.018552
1746	8.7250e-01	-10.2158	-81.646048	0.000444	4.444972	1.505997	0.035491
1747	8.7300e-01	-10.1869	-81.428261	0.000546	5.455193	1.848269	0.043557
1748	8.7350e-01	-10.1452	-81.258871	0.000424	4.242928	1.437543	0.033878
1749	8.7400e-01	-10.1083	-81.065282	0.000485	4.849060	1.642906	0.038718
1750	8.7450e-01	-10.0601	-80.791031	0.000687	6.869502	2.327450	0.054850
1751	8.7500e-01	-10.0265	-80.540979	0.000626	6.263370	2.122087	0.050010
1752	8.7550e-01	-9.9880	-80.347390	0.000485	4.849060	1.642906	0.038718
1753	8.7600e-01	-9.9462	-80.182033	0.000414	4.141906	1.403316	0.033071
1754	8.7650e-01	-9.9077	-80.012643	0.000424	4.242928	1.437543	0.033878
1755	8.7700e-01	-9.8757	-79.798889	0.000535	5.354171	1.814042	0.042751
1756	8.7750e-01	-9.8211	-79.585135	0.000535	5.354171	1.814042	0.042751
1757	8.7800e-01	-9.7858	-79.439943	0.000364	3.636795	1.232180	0.029038
1758	8.7850e-01	-9.7441	-79.121328	0.000798	7.980745	2.703950	0.063723
1759	8.7900e-01	-9.7072	-78.988236	0.000333	3.333729	1.129498	0.026618
1760	8.7950e-01	-9.6639	-78.677688	0.000778	7.778701	2.635495	0.062110
1761	8.8000e-01	-9.6334	-78.443768	0.000586	5.859281	1.985178	0.046784
1762	8.8050e-01	-9.5837	-78.181616	0.000657	6.566436	2.224769	0.052430
1763	8.8100e-01	-9.5452	-78.096921	0.000212	2.121464	0.718771	0.016939
1764	8.8150e-01	-9.5099	-77.867035	0.000576	5.758259	1.950951	0.045977
1765	8.8200e-01	-9.4650	-77.709744	0.000394	3.939862	1.334861	0.031458
1766	8.8250e-01	-9.4217	-77.463725	0.000616	6.162348	2.087860	0.049204
1767	8.8300e-01	-9.3928	-77.197540	0.000667	6.667458	2.258996	0.053237
1768	8.8350e-01	-9.3511	-77.072514	0.000313	3.131685	1.061044	0.025005
1769	8.8400e-01	-9.2965	-76.911190	0.000404	4.040884	1.369088	0.032265
1770	8.8450e-01	-9.2580	-76.657105	0.000636	6.364392	2.156314	0.050817
1771	8.8500e-01	-9.2340	-76.354623	0.000758	7.576657	2.567041	0.060496
1772	8.8550e-01	-9.1810	-76.209431	0.000364	3.636795	1.232180	0.029038
1773	8.8600e-01	-9.1521	-76.003743	0.000515	5.152127	1.745588	0.041138
1774	8.8650e-01	-9.0992	-75.701261	0.000758	7.576657	2.567041	0.060496
1775	8.8700e-01	-9.0639	-75.435076	0.000667	6.667458	2.258996	0.053237
1776	8.8750e-01	-9.0222	-75.217289	0.000546	5.455193	1.848269	0.043557
1777	8.8800e-01	-8.9821	-75.088230	0.000323	3.232707	1.095271	0.025812
1778	8.8850e-01	-8.9468	-74.991435	0.000242	2.424530	0.821453	0.019359
1779	8.8900e-01	-8.8987	-74.705085	0.000717	7.172568	2.430132	0.057270
1780	8.8950e-01	-8.8666	-74.418735	0.000717	7.172568	2.430132	0.057270
1781	8.9000e-01	-8.8281	-74.168683	0.000626	6.263370	2.122087	0.050010
1782	8.9050e-01	-8.7880	-74.011392	0.000394	3.939862	1.334861	0.031458
1783	8.9100e-01	-8.7415	-73.862168	0.000374	3.737817	1.266407	0.029845
1784	8.9150e-01	-8.7094	-73.604049	0.000647	6.465414	2.190542	0.051624
1785	8.9200e-01	-8.6645	-73.374163	0.000576	5.758259	1.950951	0.045977
1786	8.9250e-01	-8.6276	-73.079747	0.000737	7.374613	2.498586	0.058883
1787	8.9300e-01	-8.5826	-72.958754	0.000303	3.030663	1.026816	0.024199
1788	8.9350e-01	-8.5409	-72.595775	0.000909	9.091988	3.080449	0.072596
1789	8.9400e-01	-8.5056	-72.398153	0.000495	4.950082	1.677133	0.039524
1790	8.9450e-01	-8.4607	-72.228763	0.000424	4.242928	1.437543	0.033878
1791	8.9500e-01	-8.4174	-72.152134	0.000192	1.919420	0.650317	0.015326
1792	8.9550e-01	-8.3789	-71.825453	0.000818	8.182789	2.772404	0.065336
1793	8.9600e-01	-8.3484	-71.502805	0.000808	8.081767	2.738177	0.064530
1794	8.9650e-01	-8.3099	-71.365680	0.000343	3.434751	1.163725	0.027425
1795	8.9700e-01	-8.2634	-71.276952	0.000222	2.222486	0.752999	0.017746
1796	8.9750e-01	-8.2153	-71.043032	0.000586	5.859281	1.985178	0.046784
1797	8.9800e-01	-8.1816	-70.792980	0.000626	6.263370	2.122087	0.050010
1798	8.9850e-01	-8.1495	-70.482431	0.000778	7.778701	2.635495	0.062110
1799	8.9900e-01	-8.1030	-70.280776	0.000505	5.051105	1.711361	0.040331
1800	8.9950e-01	-8.0645	-69.998459	0.000707	7.071546	2.395905	0.056463
1801	9.0000e-01	-8.0292	-69.893599	0.000263	2.626574	0.889907	0.020972
1802	9.0050e-01	-7.9827	-69.647580	0.000616	6.162348	2.087860	0.049204
1803	9.0100e-01	-7.9458	-69.490289	0.000394	3.939862	1.334861	0.031458
1804	9.0150e-01	-7.8928	-69.244270	0.000616	6.162348	2.087860	0.049204
1805	9.0200e-01	-7.8688	-68.961953	0.000707	7.071546	2.395905	0.056463
1806	9.0250e-01	-7.8222	-68.679636	0.000707	7.071546	2.395905	0.056463
1807	9.0300e-01	-7.7837	-68.522345	0.000394	3.939862	1.334861	0.031458
1808	9.0350e-01	-7.7420	-68.365054	0.000394	3.939862	1.334861	0.031458
1809	9.0400e-01	-7.7019	-68.110969	0.000636	6.364392	2.156314	0.050817
1810	9.0450e-01	-7.6602	-67.881083	0.000576	5.758259	1.950951	0.045977
1811	9.0500e-01	-7.6169	-67.554402	0.000818	8.182789	2.772404	0.065336
1812	9.0550e-01	-7.5720	-67.352747	0.000505	5.051105	1.711361	0.040331
1813	9.0600e-01	-7.5431	-67.118827	0.000586	5.859281	1.985178	0.046784
1814	9.0650e-01	-7.5094	-66.913139	0.000515	5.152127	1.745588	0.041138
1815	9.0700e-01	-7.4661	-66.723583	0.000475	4.748038	1.608679	0.037911
1816	9.0750e-01	-7.4388	-66.489664	0.000586	5.859281	1.985178	0.046784
1817	9.0800e-01	-7.3843	-66.223479	0.000667	6.667458	2.258996	0.053237
1818	9.0850e-01	-7.3490	-65.953261	0.000677	6.768480	2.293223	0.054044
1819	9.0900e-01	-7.3009	-65.783871	0.000424	4.242928	1.437543	0.033878
1820	9.0950e-01	-7.2543	-65.658845	0.000313	3.131685	1.061044	0.025005
1821	9.1000e-01	-7.2207	-65.392661	0.000667	6.667458	2.258996	0.053237
1822	9.1050e-01	-7.1870	-65.162774	0.000576	5.758259	1.950951	0.045977
1823	9.1100e-01	-7.1404	-64.936921	0.000566	5.657237	1.916724	0.045171
1824	9.1150e-01	-7.1019	-64.779630	0.000394	3.939862	1.334861	0.031458
1825	9.1200e-01	-7.0682	-64.412618	0.000919	9.193010	3.114676	0.073402
1826	9.1250e-01	-7.0233	-64.202897	0.000525	5.253149	1.779815	0.041944
1827	9.1300e-01	-6.9832	-63.924613	0.000697	6.970524	2.361678	0.055657
1828	9.1350e-01	-6.9367	-63.722958	0.000505	5.051105	1.711361	0.040331
1829	9.1400e-01	-6.9030	-63.497104	0.000566	5.657237	1.916724	0.045171
1830	9.1450e-01	-6.8565	-63.174457	0.000808	8.081767	2.738177	0.064530
1831	9.1500e-01	-6.8196	-63.049430	0.000313	3.131685	1.061044	0.025005
1832	9.1550e-01	-6.7843	-62.771147	0.000697	6.970524	2.361678	0.055657
1833	9.1600e-01	-6.7330	-62.597723	0.000434	4.343950	1.471770	0.034685
1834	9.1650e-01	-6.7009	-62.452532	0.000364	3.636795	1.232180	0.029038
1835	9.1700e-01	-6.6608	-61.976626	0.001192	11.920607	4.038811	0.095181
1836	9.1750e-01	-6.6191	-61.851600	0.000313	3.131685	1.061044	0.025005
1837	9.1800e-01	-6.5854	-61.637846	0.000535	5.354171	1.814042	0.042751
1838	9.1850e-01	-6.5389	-61.282933	0.000889	8.889944	3.011995	0.070983
1839	9.1900e-01	-6.5068	-61.157907	0.000313	3.131685	1.061044	0.025005
1840	9.1950e-01	-6.4635	-60.802995	0.000889	8.889944	3.011995	0.070983
1841	9.2000e-01	-6.4250	-60.682002	0.000303	3.030663	1.026816	0.024199
1842	9.2050e-01	-6.3961	-60.415817	0.000667	6.667458	2.258996	0.053237
1843	9.2100e-01	-6.3415	-60.193997	0.000556	5.556215	1.882497	0.044364
1844	9.2150e-01	-6.3094	-60.004441	0.000475	4.748038	1.608679	0.037911
1845	9.2200e-01	-6.2693	-59.730190	0.000687	6.869502	2.327450	0.054850
1846	9.2250e-01	-6.2276	-59.455940	0.000687	6.869502	2.327450	0.054850
1847	9.2300e-01	-6.1827	-59.242185	0.000535	5.354171	1.814042	0.042751
1848	9.2350e-01	-6.1458	-58.931637	0.000778	7.778701	2.635495	0.062110
1849	9.2400e-01	-6.1089	-58.649320	0.000707	7.071546	2.395905	0.056463
1850	9.2450e-01	-6.0720	-58.375069	0.000687	6.869502	2.327450	0.054850
1851	9.2500e-01	-6.0223	-58.197613	0.000444	4.444972	1.505997	0.035491
1852	9.2550e-01	-5.9822	-57.979826	0.000546	5.455193	1.848269	0.043557
1853	9.2600e-01	-5.9357	-57.729773	0.000626	6.263370	2.122087	0.050010
1854	9.2650e-01	-5.9132	-57.540218	0.000475	4.748038	1.608679	0.037911
1855	9.2700e-01	-5.8715	-57.165140	0.000940	9.395054	3.183131	0.075016
1856	9.2750e-01	-5.8330	-56.907021	0.000647	6.465414	2.190542	0.051624
1857	9.2800e-01	-5.7945	-56.769896	0.000343	3.434751	1.163725	0.027425
1858	9.2850e-01	-5.7496	-56.576307	0.000485	4.849060	1.642906	0.038718
1859	9.2900e-01	-5.7111	-56.168964	0.001020	10.203231	3.456948	0.081469
1860	9.2950e-01	-5.6629	-55.971342	0.000495	4.950082	1.677133	0.039524
1861	9.3000e-01	-5.6309	-55.745489	0.000566	5.657237	1.916724	0.045171
1862	9.3050e-01	-5.5747	-55.491404	0.000636	6.364392	2.156314	0.050817
1863	9.3100e-01	-5.5490	-55.245385	0.000616	6.162348	2.087860	0.049204
1864	9.3150e-01	-5.5041	-54.975167	0.000677	6.768480	2.293223	0.054044
1865	9.3200e-01	-5.4688	-54.688817	0.000717	7.172568	2.430132	0.057270
1866	9.3250e-01	-5.4319	-54.414566	0.000687	6.869502	2.327450	0.054850
1867	9.3300e-01	-5.3870	-54.208878	0.000515	5.152127	1.745588	0.041138
1868	9.3350e-01	-5.3421	-54.019323	0.000475	4.748038	1.608679	0.037911
1869	9.3400e-01	-5.3132	-53.757171	0.000657	6.566436	2.224769	0.052430
1870	9.3450e-01	-5.2763	-53.495020	0.000657	6.566436	2.224769	0.052430
1871	9.3500e-01	-5.2346	-53.261100	0.000586	5.859281	1.985178	0.046784
1872	9.3550e-01	-5.1865	-53.123975	0.000343	3.434751	1.163725	0.027425
1873	9.3600e-01	-5.1512	-52.869890	0.000636	6.364392	2.156314	0.050817
1874	9.3650e-01	-5.1095	-52.559341	0.000778	7.778701	2.635495	0.062110
1875	9.3700e-01	-5.0662	-52.260892	0.000748	7.475635	2.532814	0.059690
1876	9.3750e-01	-5.0277	-52.051171	0.000525	5.253149	1.779815	0.041944
1877	9.3800e-01	-4.9860	-51.728523	0.000808	8.081767	2.738177	0.064530
1878	9.3850e-01	-4.9426	-51.474437	0.000636	6.364392	2.156314	0.050817
1879	9.3900e-01	-4.8993	-51.208253	0.000667	6.667458	2.258996	0.053237
1880	9.3950e-01	-4.8753	-50.974333	0.000586	5.859281	1.985178	0.046784
1881	9.4000e-01	-4.8319	-50.679917	0.000737	7.374613	2.498586	0.058883
1882	9.4050e-01	-4.7838	-50.421799	0.000647	6.465414	2.190542	0.051624
1883	9.4100e-01	-4.7405	-50.175780	0.000616	6.162348	2.087860	0.049204
1884	9.4150e-01	-4.7004	-49.905562	0.000677	6.768480	2.293223	0.054044
1885	9.4200e-01	-4.6619	-49.736172	0.000424	4.242928	1.437543	0.033878
1886	9.4250e-01	-4.6218	-49.417557	0.000798	7.980745	2.703950	0.063723
1887	9.4300e-01	-4.5801	-49.171538	0.000616	6.162348	2.087860	0.049204
1888	9.4350e-01	-4.5480	-48.804526	0.000919	9.193010	3.114676	0.073402
1889	9.4400e-01	-4.5063	-48.469779	0.000838	8.384834	2.840859	0.066949
1890	9.4450e-01	-4.4662	-48.320554	0.000374	3.737817	1.266407	0.029845
1891	9.4500e-01	-4.4325	-48.098734	0.000556	5.556215	1.882497	0.044364
1892	9.4550e-01	-4.3747	-47.776086	0.000808	8.081767	2.738177	0.064530
1893	9.4600e-01	-4.3491	-47.699457	0.000192	1.919420	0.650317	0.015326
1894	9.4650e-01	-4.3074	-47.288081	0.001030	10.304253	3.491176	0.082275
1895	9.4700e-01	-4.2608	-46.957367	0.000828	8.283811	2.806631	0.066143
1896	9.4750e-01	-4.2272	-46.937202	0.000051	0.505110	0.171136	0.004033
1897	9.4800e-01	-4.1854	-46.654885	0.000707	7.071546	2.395905	0.056463
1898	9.4850e-01	-4.1421	-46.191078	0.001162	11.617540	3.936129	0.092761
1899	9.4900e-01	-4.1116	-45.969258	0.000556	5.556215	1.882497	0.044364
1900	9.4950e-01	-4.0619	-45.690974	0.000697	6.970524	2.361678	0.055657
1901	9.5000e-01	-4.0330	-45.465121	0.000566	5.657237	1.916724	0.045171
1902	9.5050e-01	-3.9865	-45.235234	0.000576	5.758259	1.950951	0.045977
1903	9.5100e-01	-3.9480	-44.900487	0.000838	8.384834	2.840859	0.066949
1904	9.5150e-01	-3.9079	-44.630269	0.000677	6.768480	2.293223	0.054044
1905	9.5200e-01	-3.8598	-44.388283	0.000606	6.061325	2.053633	0.048397
1906	9.5250e-01	-3.8277	-43.960775	0.001071	10.708342	3.628084	0.085502
1907	9.5300e-01	-3.7828	-43.747021	0.000535	5.354171	1.814042	0.042751
1908	9.5350e-01	-3.7475	-43.529233	0.000546	5.455193	1.848269	0.043557
1909	9.5400e-01	-3.7074	-43.242883	0.000717	7.172568	2.430132	0.057270
1910	9.5450e-01	-3.6689	-43.117857	0.000313	3.131685	1.061044	0.025005
1911	9.5500e-01	-3.6352	-42.714547	0.001010	10.102209	3.422721	0.080662
1912	9.5550e-01	-3.5823	-42.460462	0.000636	6.364392	2.156314	0.050817
1913	9.5600e-01	-3.5454	-42.145880	0.000788	7.879723	2.669722	0.062916
1914	9.5650e-01	-3.5117	-42.041020	0.000263	2.626574	0.889907	0.020972
1915	9.5700e-01	-3.4716	-41.637710	0.001010	10.102209	3.422721	0.080662
1916	9.5750e-01	-3.4234	-41.282797	0.000889	8.889944	3.011995	0.070983
1917	9.5800e-01	-3.3721	-41.069043	0.000535	5.354171	1.814042	0.042751
1918	9.5850e-01	-3.3480	-40.689932	0.000950	9.496077	3.217358	0.075822
1919	9.5900e-01	-3.2935	-40.439880	0.000626	6.263370	2.122087	0.050010
1920	9.5950e-01	-3.2662	-40.250324	0.000475	4.748038	1.608679	0.037911
1921	9.6000e-01	-3.2229	-39.931709	0.000798	7.980745	2.703950	0.063723
1922	9.6050e-01	-3.1796	-39.532432	0.001000	10.001187	3.388494	0.079855
1923	9.6100e-01	-3.1363	-39.500168	0.000081	0.808177	0.273818	0.006453
1924	9.6150e-01	-3.1058	-39.121056	0.000950	9.496077	3.217358	0.075822
1925	9.6200e-01	-3.0625	-38.790342	0.000828	8.283811	2.806631	0.066143
1926	9.6250e-01	-3.0272	-38.520125	0.000677	6.768480	2.293223	0.054044
1927	9.6300e-01	-2.9839	-38.245874	0.000687	6.869502	2.327450	0.054850
1928	9.6350e-01	-2.9470	-37.951458	0.000737	7.374613	2.498586	0.058883
1929	9.6400e-01	-2.9085	-37.713505	0.000596	5.960303	2.019405	0.047591
1930	9.6450e-01	-2.8700	-37.362625	0.000879	8.788922	2.977767	0.070176
1931	9.6500e-01	-2.8315	-37.152904	0.000525	5.253149	1.779815	0.041944
1932	9.6550e-01	-2.7817	-36.963349	0.000475	4.748038	1.608679	0.037911
1933	9.6600e-01	-2.7529	-36.535840	0.001071	10.708342	3.628084	0.085502
1934	9.6650e-01	-2.7128	-36.128497	0.001020	10.203231	3.456948	0.081469
1935	9.6700e-01	-2.6646	-35.914743	0.000535	5.354171	1.814042	0.042751
1936	9.6750e-01	-2.6197	-35.713088	0.000505	5.051105	1.711361	0.040331
1937	9.6800e-01	-2.5876	-35.446904	0.000667	6.667458	2.258996	0.053237
1938	9.6850e-01	-2.5443	-35.091991	0.000889	8.889944	3.011995	0.070983
1939	9.6900e-01	-2.5026	-34.829840	0.000657	6.566436	2.224769	0.052430
1940	9.6950e-01	-2.4721	-34.559622	0.000677	6.768480	2.293223	0.054044
1941	9.7000e-01	-2.4288	-34.305537	0.000636	6.364392	2.156314	0.050817
1942	9.7050e-01	-2.3951	-33.958690	0.000869	8.687900	2.943540	0.069369
1943	9.7100e-01	-2.3438	-33.615877	0.000859	8.586878	2.909313	0.068563
1944	9.7150e-01	-2.3085	-33.333560	0.000707	7.071546	2.395905	0.056463
1945	9.7200e-01	-2.2620	-33.063342	0.000677	6.768480	2.293223	0.054044
1946	9.7250e-01	-2.2219	-32.595503	0.001172	11.718563	3.970356	0.093568
1947	9.7300e-01	-2.1850	-32.365616	0.000576	5.758259	1.950951	0.045977
1948	9.7350e-01	-2.1481	-32.103465	0.000657	6.566436	2.224769	0.052430
1949	9.7400e-01	-2.1031	-31.845347	0.000647	6.465414	2.190542	0.051624
1950	9.7450e-01	-2.0598	-31.684023	0.000404	4.040884	1.369088	0.032265
1951	9.7500e-01	-2.0229	-31.284746	0.001000	10.001187	3.388494	0.079855
1952	9.7550e-01	-1.9909	-30.925800	0.000899	8.990966	3.046222	0.071789
1953	9.7600e-01	-1.9379	-30.663649	0.000657	6.566436	2.224769	0.052430
1954	9.7650e-01	-1.9010	-30.357133	0.000768	7.677679	2.601268	0.061303
1955	9.7700e-01	-1.8625	-29.901393	0.001142	11.415496	3.867675	0.091148
1956	9.7750e-01	-1.8240	-29.744102	0.000394	3.939862	1.334861	0.031458
1957	9.7800e-01	-1.8016	-29.405322	0.000849	8.485856	2.875086	0.067756
1958	9.7850e-01	-1.7502	-29.139137	0.000667	6.667458	2.258996	0.053237
1959	9.7900e-01	-1.7053	-28.574504	0.001414	14.143093	4.791810	0.112927
1960	9.7950e-01	-1.6716	-28.388981	0.000465	4.647016	1.574452	0.037105
1961	9.8000e-01	-1.6219	-28.013903	0.000940	9.395054	3.183131	0.075016
1962	9.8050e-01	-1.5866	-27.767884	0.000616	6.162348	2.087860	0.049204
1963	9.8100e-01	-1.5545	-27.485567	0.000707	7.071546	2.395905	0.056463
1964	9.8150e-01	-1.5016	-27.219382	0.000667	6.667458	2.258996	0.053237
1965	9.8200e-01	-1.4679	-26.912867	0.000768	7.677679	2.601268	0.061303
1966	9.8250e-01	-1.4278	-26.606351	0.000768	7.677679	2.601268	0.061303
1967	9.8300e-01	-1.3812	-26.263538	0.000859	8.586878	2.909313	0.068563
1968	9.8350e-01	-1.3443	-25.961056	0.000758	7.576657	2.567041	0.060496
1969	9.8400e-01	-1.3074	-25.569845	0.000980	9.799143	3.320039	0.078242
1970	9.8450e-01	-1.2593	-25.210899	0.000899	8.990966	3.046222	0.071789
1971	9.8500e-01	-1.2337	-24.892285	0.000798	7.980745	2.703950	0.063723
1972	9.8550e-01	-1.1871	-24.460743	0.001081	10.809364	3.662312	0.086308
1973	9.8600e-01	-1.1502	-24.242956	0.000546	5.455193	1.848269	0.043557
1974	9.8650e-01	-1.1053	-24.009036	0.000586	5.859281	1.985178	0.046784
1975	9.8700e-01	-1.0636	-23.686388	0.000808	8.081767	2.738177	0.064530
1976	9.8750e-01	-1.0203	-23.319376	0.000919	9.193010	3.114676	0.073402
1977	9.8800e-01	-0.9770	-23.000761	0.000798	7.980745	2.703950	0.063723
1978	9.8850e-01	-0.9465	-22.633749	0.000919	9.193010	3.114676	0.073402
1979	9.8900e-01	-0.9016	-22.383697	0.000626	6.263370	2.122087	0.050010
1980	9.8950e-01	-0.8663	-22.028785	0.000889	8.889944	3.011995	0.070983
1981	9.9000e-01	-0.8262	-21.746468	0.000707	7.071546	2.395905	0.056463
1982	9.9050e-01	-0.7861	-21.419787	0.000818	8.182789	2.772404	0.065336
1983	9.9100e-01	-0.7428	-21.113271	0.000768	7.677679	2.601268	0.061303
1984	9.9150e-01	-0.7123	-20.685763	0.001071	10.708342	3.628084	0.085502
1985	9.9200e-01	-0.6690	-20.346982	0.000849	8.485856	2.875086	0.067756
1986	9.9250e-01	-0.6192	-20.028368	0.000798	7.980745	2.703950	0.063723
1987	9.9300e-01	-0.5871	-19.737985	0.000727	7.273591	2.464359	0.058077
1988	9.9350e-01	-0.5422	-19.427436	0.000778	7.778701	2.635495	0.062110
1989	9.9400e-01	-0.5021	-19.124954	0.000758	7.576657	2.567041	0.060496
1990	9.9450e-01	-0.4732	-18.628882	0.001243	12.425717	4.209947	0.099214
1991	9.9500e-01	-0.4251	-18.382863	0.000616	6.162348	2.087860	0.049204
1992	9.9550e-01	-0.3818	-17.983587	0.001000	10.001187	3.388494	0.079855
1993	9.9600e-01	-0.3497	-17.705303	0.000697	6.970524	2.361678	0.055657
1994	9.9650e-01	-0.3016	-17.402820	0.000758	7.576657	2.567041	0.060496
1995	9.9700e-01	-0.2711	-17.051941	0.000879	8.788922	2.977767	0.070176
1996	9.9750e-01	-0.2246	-16.656697	0.000990	9.900165	3.354267	0.079049
1997	9.9800e-01	-0.1861	-16.374380	0.000707	7.071546	2.395905	0.056463
1998	9.9850e-01	-0.1396	-16.051732	0.000808	8.081767	2.738177	0.064530
1999	9.9900e-01	-0.1043	-15.721018	0.000828	8.283811	2.806631	0.066143
2000	9.9950e-01	-0.0674	-15.333841	0.000970	9.698121	3.285812	0.077435
2001	1.0000e+00	-0.0241	-14.970862	0.000970	9.698121	3.285812	0.072596

Center data before PMax,+/-Pr and +/-Vc Calc.

PMax (uC/cm2):	1.22e+02
Pr (uC/cm2):	6.17e+00
-Pr (uC/cm2):	-1.50e+01
PLoss (uC/cm2):	-1.25e+01
Vc:	3.78e-01
-Vc:	-7.46e-01
C (Max-Eff) (nF):	6.10e-01
K (Eff):	2.07e+03
Vert. (+/-Pr) Shift (uC/cm2):	-4.40e+00
Horiz. Shift (+/-Vc):	-1.84e-01
Offset (uC/cm2):	2.39e+00

A (Loop Area - uC/cm2·Volts):	-1.89e-01



Hysteresis Version: 5.48.1 - Radiant Technologies, Inc., 1999 - 9/12/24

