»»»»»»»»»»»»»»»»»»»»»»»»»»»»»»»»»»»» Hysteresis ««««««««««««««««««««««««««««««««««««
»»»  Executed Version:	5.48.1
»»»  Vision Version:	5.48.4 (R)
»»»  Vision Compiled:	9/18/24
»»»  Driver Version:	5.47.0
»»»  Windows Version:	Windows 8 or 8.1
»»»  Processor Information:	x86 (AMD or Intel) - 32 Processors
»»»  Tester Name:	PMF21124-494 (100V)
»»»  Tester S/N:	PMF21124-494
»»»  Internal Amp Type:	100V RevK 270k
»»»  Internal Amp S/N:	iAB2-596/K     
»»»  Execution Count:	1
»»»»»»»»»»»»»»»»»»»»»»»»»»»»»»»»»»»»»»»»»»««««««««««««««««««««««««««««««««««««««««««

Stored:	6/5/2025 - 14:14:29
Configured:	06/05/25 01:31:43 PM
Executed:	06/05/25 02:13:52 PM

»»»»»»»»»»»»»»»»»»»»»»»»»»»»»»»»»»» Sample Info ««««««««««««««««««««««««««««««««««««
Sample Name:	
Lot Name:	
Wafer Name:	
Die Row/Column:	0/0
Capacitor Number:	0
Sample Area (cm2):	1.00e-04
Sample Thickness (microns):	3.00e-01

Amplifier:	Internal

»»»»»»»»»»»»»»»»»»»»»»»»»»»»»»»»»»» Tester Info «««««««««««««««««««««««««««««««««««
Tester Name:	PMF21124-494 (100V)
Tester Serial Number:	PMF21124-494
Return Signal Amp. Level:	0.19 [Index: 3]

»»»»»»»»»»»»»»»»»»»»»»»»»»»»»»»» Hysteresis Info ««««««««««««««««««««««««««««««««««
Task Name:	Hyst-303
Volts:	20.00
Field:	666.67 (kV/cm)
DCBias:	0.00
DCField:	0.00 (kV/cm)
Hysteresis Period (ms):	2.00e+02
Preset:	Enabled
Preset Delay (ms):	1.00e+03
Profile:	Standard Bipolar

»»»»»»»»»»»»»»»»»»»»»»»»»»»»»»»»»»»»»» Data «««««««««««««««««««««««««««««««««««««««
Points:	2009

Valid Data

Point	Time (ms)	Drive Voltage	Measured Polarization (uC/cm2)	Capacitance (uF)	Normalized Capacitance (uF/cm2)	Dielectric Constant	Instantaneous Current (mA)
   1	0.0000e+00	-0.0032	-5.738788	0.000547	5.470187	1.853349	0.000219
   2	9.9500e-02	0.0321	-5.520783	0.000547	5.470187	1.853349	0.000219
   3	1.9900e-01	0.0658	-5.250295	0.000679	6.787084	2.299526	0.000272
   4	2.9850e-01	0.1091	-4.939436	0.000780	7.800081	2.642739	0.000312
   5	3.9800e-01	0.1460	-4.604353	0.000841	8.407880	2.848667	0.000337
   6	4.9750e-01	0.1925	-4.345977	0.000648	6.483184	2.196562	0.000260
   7	5.9700e-01	0.2230	-3.998783	0.000871	8.711779	2.951631	0.000349
   8	6.9650e-01	0.2759	-3.704072	0.000739	7.394882	2.505454	0.000296
   9	7.9600e-01	0.3064	-3.397250	0.000770	7.698781	2.608418	0.000308
  10	8.9550e-01	0.3529	-3.102539	0.000739	7.394882	2.505454	0.000296
  11	9.9500e-01	0.3946	-2.763419	0.000851	8.509180	2.882988	0.000341
  12	1.0945e+00	0.4283	-2.440449	0.000810	8.103981	2.745703	0.000325
  13	1.1940e+00	0.4684	-2.101329	0.000851	8.509180	2.882988	0.000341
  14	1.2935e+00	0.5150	-1.750098	0.000881	8.813079	2.985952	0.000353
  15	1.3930e+00	0.5422	-1.439239	0.000780	7.800081	2.642739	0.000312
  16	1.4925e+00	0.5839	-1.136454	0.000760	7.597482	2.574096	0.000304
  17	1.5920e+00	0.6321	-0.805409	0.000831	8.306580	2.814345	0.000333
  18	1.6915e+00	0.6722	-0.478401	0.000821	8.205280	2.780024	0.000329
  19	1.7910e+00	0.7043	-0.195801	0.000709	7.090983	2.402490	0.000284
  20	1.8905e+00	0.7396	0.127170	0.000810	8.103981	2.745703	0.000325
  21	1.9900e+00	0.7909	0.490512	0.000912	9.116978	3.088916	0.000365
  22	2.0895e+00	0.8326	0.817520	0.000821	8.205280	2.780024	0.000329
  23	2.1890e+00	0.8567	1.156639	0.000851	8.509180	2.882988	0.000341
  24	2.2885e+00	0.9096	1.443276	0.000719	7.192283	2.436811	0.000288
  25	2.3880e+00	0.9481	1.802581	0.000902	9.015678	3.054595	0.000361
  26	2.4875e+00	0.9850	2.121515	0.000800	8.002681	2.711382	0.000321
  27	2.5870e+00	1.0187	2.472746	0.000881	8.813079	2.985952	0.000353
  28	2.6865e+00	1.0700	2.803791	0.000831	8.306580	2.814345	0.000333
  29	2.7860e+00	1.1085	3.118687	0.000790	7.901381	2.677060	0.000316
  30	2.8855e+00	1.1534	3.473955	0.000891	8.914379	3.020273	0.000357
  31	2.9850e+00	1.1887	3.817112	0.000861	8.610479	2.917309	0.000345
  32	3.0845e+00	1.2208	4.140083	0.000810	8.103981	2.745703	0.000325
  33	3.1840e+00	1.2641	4.471128	0.000831	8.306580	2.814345	0.000333
  34	3.2835e+00	1.3010	4.798136	0.000821	8.205280	2.780024	0.000329
  35	3.3830e+00	1.3508	5.137255	0.000851	8.509180	2.882988	0.000341
  36	3.4825e+00	1.3796	5.464263	0.000821	8.205280	2.780024	0.000329
  37	3.5820e+00	1.4246	5.791271	0.000821	8.205280	2.780024	0.000329
  38	3.6815e+00	1.4647	6.154613	0.000912	9.116978	3.088916	0.000365
  39	3.7810e+00	1.4967	6.497770	0.000861	8.610479	2.917309	0.000345
  40	3.8805e+00	1.5465	6.800555	0.000760	7.597482	2.574096	0.000304
  41	3.9800e+00	1.5866	7.155823	0.000891	8.914379	3.020273	0.000357
  42	4.0795e+00	1.6219	7.434385	0.000699	6.989683	2.368169	0.000280
  43	4.1790e+00	1.6700	7.830025	0.000993	9.927376	3.363486	0.000398
  44	4.2785e+00	1.7005	8.144921	0.000790	7.901381	2.677060	0.000316
  45	4.3780e+00	1.7438	8.532486	0.000972	9.724777	3.294844	0.000390
  46	4.4775e+00	1.7871	8.794900	0.000658	6.584484	2.230884	0.000264
  47	4.5770e+00	1.8224	9.134020	0.000851	8.509180	2.882988	0.000341
  48	4.6765e+00	1.8737	9.456990	0.000810	8.103981	2.745703	0.000325
  49	4.7760e+00	1.8994	9.840518	0.000962	9.623477	3.260522	0.000385
  50	4.8755e+00	1.9331	10.175601	0.000841	8.407880	2.848667	0.000337
  51	4.9750e+00	1.9796	10.470312	0.000739	7.394882	2.505454	0.000296
  52	5.0745e+00	2.0229	10.829617	0.000902	9.015678	3.054595	0.000361
  53	5.1740e+00	2.0711	11.156625	0.000821	8.205280	2.780024	0.000329
  54	5.2735e+00	2.1031	11.463447	0.000770	7.698781	2.608418	0.000308
  55	5.3730e+00	2.1433	11.830826	0.000922	9.218278	3.123237	0.000369
  56	5.4725e+00	2.1914	12.133611	0.000760	7.597482	2.574096	0.000304
  57	5.5720e+00	2.2170	12.533288	0.001003	10.028676	3.397807	0.000402
  58	5.6715e+00	2.2684	12.868370	0.000841	8.407880	2.848667	0.000337
  59	5.7710e+00	2.2989	13.203452	0.000841	8.407880	2.848667	0.000337
  60	5.8705e+00	2.3342	13.502200	0.000750	7.496182	2.539775	0.000300
  61	5.9700e+00	2.3871	13.861506	0.000902	9.015678	3.054595	0.000361
  62	6.0695e+00	2.4176	14.184476	0.000810	8.103981	2.745703	0.000325
  63	6.1690e+00	2.4625	14.527633	0.000861	8.610479	2.917309	0.000345
  64	6.2685e+00	2.5026	14.890975	0.000912	9.116978	3.088916	0.000365
  65	6.3680e+00	2.5347	15.222020	0.000831	8.306580	2.814345	0.000333
  66	6.4675e+00	2.5764	15.553065	0.000831	8.306580	2.814345	0.000333
  67	6.5670e+00	2.6229	15.880073	0.000821	8.205280	2.780024	0.000329
  68	6.6665e+00	2.6566	16.215156	0.000841	8.407880	2.848667	0.000337
  69	6.7660e+00	2.6999	16.534089	0.000800	8.002681	2.711382	0.000321
  70	6.8655e+00	2.7416	16.881283	0.000871	8.711779	2.951631	0.000349
  71	6.9650e+00	2.7785	17.212328	0.000831	8.306580	2.814345	0.000333
  72	7.0645e+00	2.8202	17.571633	0.000902	9.015678	3.054595	0.000361
  73	7.1640e+00	2.8539	17.898641	0.000821	8.205280	2.780024	0.000329
  74	7.2635e+00	2.9005	18.225649	0.000821	8.205280	2.780024	0.000329
  75	7.3630e+00	2.9325	18.540546	0.000790	7.901381	2.677060	0.000316
  76	7.4625e+00	2.9775	18.887740	0.000871	8.711779	2.951631	0.000349
  77	7.5620e+00	3.0127	19.186488	0.000750	7.496182	2.539775	0.000300
  78	7.6615e+00	3.0545	19.513496	0.000821	8.205280	2.780024	0.000329
  79	7.7610e+00	3.0946	19.901061	0.000972	9.724777	3.294844	0.000390
  80	7.8605e+00	3.1379	20.224031	0.000810	8.103981	2.745703	0.000325
  81	7.9600e+00	3.1732	20.518742	0.000739	7.394882	2.505454	0.000296
  82	8.0595e+00	3.2229	20.853825	0.000841	8.407880	2.848667	0.000337
  83	8.1590e+00	3.2534	21.196981	0.000861	8.610479	2.917309	0.000345
  84	8.2585e+00	3.2999	21.519952	0.000810	8.103981	2.745703	0.000325
  85	8.3580e+00	3.3416	21.863109	0.000861	8.610479	2.917309	0.000345
  86	8.4575e+00	3.3737	22.182042	0.000800	8.002681	2.711382	0.000321
  87	8.5570e+00	3.4250	22.496939	0.000790	7.901381	2.677060	0.000316
  88	8.6565e+00	3.4651	22.876430	0.000952	9.522177	3.226201	0.000381
  89	8.7560e+00	3.4940	23.215549	0.000851	8.509180	2.882988	0.000341
  90	8.8555e+00	3.5373	23.514297	0.000750	7.496182	2.539775	0.000300
  91	8.9550e+00	3.5726	23.849379	0.000841	8.407880	2.848667	0.000337
  92	9.0545e+00	3.6143	24.204647	0.000891	8.914379	3.020273	0.000357
  93	9.1540e+00	3.6560	24.511470	0.000770	7.698781	2.608418	0.000308
  94	9.2535e+00	3.6945	24.798106	0.000719	7.192283	2.436811	0.000288
  95	9.3530e+00	3.7298	25.145300	0.000871	8.711779	2.951631	0.000349
  96	9.4525e+00	3.7748	25.488456	0.000861	8.610479	2.917309	0.000345
  97	9.5520e+00	3.8165	25.827576	0.000851	8.509180	2.882988	0.000341
  98	9.6515e+00	3.8582	26.085953	0.000648	6.483184	2.196562	0.000260
  99	9.7510e+00	3.9015	26.461406	0.000942	9.420877	3.191880	0.000377
 100	9.8505e+00	3.9368	26.776303	0.000790	7.901381	2.677060	0.000316
 101	9.9500e+00	3.9849	27.139645	0.000912	9.116978	3.088916	0.000365
 102	1.0050e+01	4.0138	27.398022	0.000648	6.483184	2.196562	0.000260
 103	1.0149e+01	4.0555	27.737141	0.000851	8.509180	2.882988	0.000341
 104	1.0248e+01	4.0956	28.100483	0.000912	9.116978	3.088916	0.000365
 105	1.0348e+01	4.1373	28.358860	0.000648	6.483184	2.196562	0.000260
 106	1.0447e+01	4.1726	28.718165	0.000902	9.015678	3.054595	0.000361
 107	1.0547e+01	4.2207	29.053247	0.000841	8.407880	2.848667	0.000337
 108	1.0646e+01	4.2560	29.380255	0.000821	8.205280	2.780024	0.000329
 109	1.0746e+01	4.2913	29.695152	0.000790	7.901381	2.677060	0.000316
 110	1.0845e+01	4.3298	30.001974	0.000770	7.698781	2.608418	0.000308
 111	1.0945e+01	4.3780	30.320908	0.000800	8.002681	2.711382	0.000321
 112	1.1044e+01	4.4181	30.643879	0.000810	8.103981	2.745703	0.000325
 113	1.1144e+01	4.4453	30.934553	0.000729	7.293582	2.471133	0.000292
 114	1.1243e+01	4.4935	31.285783	0.000881	8.813079	2.985952	0.000353
 115	1.1343e+01	4.5384	31.596643	0.000780	7.800081	2.642739	0.000312
 116	1.1443e+01	4.5689	31.903465	0.000770	7.698781	2.608418	0.000308
 117	1.1542e+01	4.6186	32.254696	0.000881	8.813079	2.985952	0.000353
 118	1.1642e+01	4.6539	32.565555	0.000780	7.800081	2.642739	0.000312
 119	1.1741e+01	4.6988	32.880452	0.000790	7.901381	2.677060	0.000316
 120	1.1841e+01	4.7293	33.223609	0.000861	8.610479	2.917309	0.000345
 121	1.1940e+01	4.7726	33.477948	0.000638	6.381885	2.162241	0.000256
 122	1.2040e+01	4.8175	33.845327	0.000922	9.218278	3.123237	0.000369
 123	1.2139e+01	4.8480	34.127927	0.000709	7.090983	2.402490	0.000284
 124	1.2239e+01	4.8929	34.471083	0.000861	8.610479	2.917309	0.000345
 125	1.2338e+01	4.9298	34.785980	0.000790	7.901381	2.677060	0.000316
 126	1.2438e+01	4.9715	35.072617	0.000719	7.192283	2.436811	0.000288
 127	1.2537e+01	5.0052	35.415773	0.000861	8.610479	2.917309	0.000345
 128	1.2636e+01	5.0598	35.734707	0.000800	8.002681	2.711382	0.000321
 129	1.2736e+01	5.0902	36.037492	0.000760	7.597482	2.574096	0.000304
 130	1.2835e+01	5.1287	36.360463	0.000810	8.103981	2.745703	0.000325
 131	1.2935e+01	5.1672	36.651137	0.000729	7.293582	2.471133	0.000292
 132	1.3034e+01	5.2122	36.986219	0.000841	8.407880	2.848667	0.000337
 133	1.3134e+01	5.2458	37.337450	0.000881	8.813079	2.985952	0.000353
 134	1.3233e+01	5.2924	37.567567	0.000577	5.774086	1.956313	0.000231
 135	1.3333e+01	5.3244	37.914760	0.000871	8.711779	2.951631	0.000349
 136	1.3432e+01	5.3774	38.229657	0.000790	7.901381	2.677060	0.000316
 137	1.3532e+01	5.4079	38.556665	0.000821	8.205280	2.780024	0.000329
 138	1.3632e+01	5.4464	38.815042	0.000648	6.483184	2.196562	0.000260
 139	1.3731e+01	5.4945	39.158198	0.000861	8.610479	2.917309	0.000345
 140	1.3831e+01	5.5330	39.485206	0.000821	8.205280	2.780024	0.000329
 141	1.3930e+01	5.5795	39.828363	0.000861	8.610479	2.917309	0.000345
 142	1.4030e+01	5.6084	40.058479	0.000577	5.774086	1.956313	0.000231
 143	1.4129e+01	5.6485	40.377413	0.000800	8.002681	2.711382	0.000321
 144	1.4229e+01	5.6934	40.660013	0.000709	7.090983	2.402490	0.000284
 145	1.4328e+01	5.7303	40.966835	0.000770	7.698781	2.608418	0.000308
 146	1.4428e+01	5.7736	41.297880	0.000831	8.306580	2.814345	0.000333
 147	1.4527e+01	5.8089	41.588554	0.000729	7.293582	2.471133	0.000292
 148	1.4627e+01	5.8378	41.927673	0.000851	8.509180	2.882988	0.000341
 149	1.4726e+01	5.8907	42.250644	0.000810	8.103981	2.745703	0.000325
 150	1.4825e+01	5.9325	42.533244	0.000709	7.090983	2.402490	0.000284
 151	1.4925e+01	5.9694	42.836029	0.000760	7.597482	2.574096	0.000304
 152	1.5024e+01	6.0111	43.142851	0.000770	7.698781	2.608418	0.000308
 153	1.5124e+01	6.0544	43.449673	0.000770	7.698781	2.608418	0.000308
 154	1.5223e+01	6.0800	43.752459	0.000760	7.597482	2.574096	0.000304
 155	1.5323e+01	6.1282	44.079467	0.000821	8.205280	2.780024	0.000329
 156	1.5422e+01	6.1699	44.353992	0.000689	6.888383	2.333847	0.000276
 157	1.5522e+01	6.2036	44.660814	0.000770	7.698781	2.608418	0.000308
 158	1.5621e+01	6.2469	44.951488	0.000729	7.293582	2.471133	0.000292
 159	1.5721e+01	6.2854	45.258310	0.000770	7.698781	2.608418	0.000308
 160	1.5820e+01	6.3271	45.561095	0.000760	7.597482	2.574096	0.000304
 161	1.5920e+01	6.3544	45.871955	0.000780	7.800081	2.642739	0.000312
 162	1.6020e+01	6.4169	46.166666	0.000739	7.394882	2.505454	0.000296
 163	1.6119e+01	6.4522	46.485599	0.000800	8.002681	2.711382	0.000321
 164	1.6218e+01	6.4811	46.748013	0.000658	6.584484	2.230884	0.000264
 165	1.6318e+01	6.5324	47.026576	0.000699	6.989683	2.368169	0.000280
 166	1.6418e+01	6.5597	47.353584	0.000821	8.205280	2.780024	0.000329
 167	1.6517e+01	6.6062	47.640220	0.000719	7.192283	2.436811	0.000288
 168	1.6616e+01	6.6463	47.930894	0.000729	7.293582	2.471133	0.000292
 169	1.6716e+01	6.6800	48.213494	0.000709	7.090983	2.402490	0.000284
 170	1.6816e+01	6.7249	48.528390	0.000790	7.901381	2.677060	0.000316
 171	1.6915e+01	6.7618	48.815027	0.000719	7.192283	2.436811	0.000288
 172	1.7015e+01	6.7987	49.117812	0.000760	7.597482	2.574096	0.000304
 173	1.7114e+01	6.8388	49.440783	0.000810	8.103981	2.745703	0.000325
 174	1.7213e+01	6.8838	49.707234	0.000669	6.685784	2.265205	0.000268
 175	1.7313e+01	6.9142	49.977722	0.000679	6.787084	2.299526	0.000272
 176	1.7413e+01	6.9640	50.320878	0.000861	8.610479	2.917309	0.000345
 177	1.7512e+01	6.9993	50.619626	0.000750	7.496182	2.539775	0.000300
 178	1.7611e+01	7.0265	50.878003	0.000648	6.483184	2.196562	0.000260
 179	1.7711e+01	7.0779	51.168677	0.000729	7.293582	2.471133	0.000292
 180	1.7811e+01	7.1228	51.455314	0.000719	7.192283	2.436811	0.000288
 181	1.7910e+01	7.1565	51.737913	0.000709	7.090983	2.402490	0.000284
 182	1.8009e+01	7.2062	52.000327	0.000658	6.584484	2.230884	0.000264
 183	1.8109e+01	7.2383	52.315223	0.000790	7.901381	2.677060	0.000316
 184	1.8209e+01	7.2768	52.634157	0.000800	8.002681	2.711382	0.000321
 185	1.8308e+01	7.3169	52.912720	0.000699	6.989683	2.368169	0.000280
 186	1.8407e+01	7.3554	53.163022	0.000628	6.280585	2.127920	0.000252
 187	1.8507e+01	7.4083	53.498104	0.000841	8.407880	2.848667	0.000337
 188	1.8607e+01	7.4324	53.748407	0.000628	6.280585	2.127920	0.000252
 189	1.8706e+01	7.4854	54.026969	0.000699	6.989683	2.368169	0.000280
 190	1.8805e+01	7.5094	54.374163	0.000871	8.711779	2.951631	0.000349
 191	1.8905e+01	7.5607	54.652725	0.000699	6.989683	2.368169	0.000280
 192	1.9005e+01	7.5993	54.927250	0.000689	6.888383	2.333847	0.000276
 193	1.9104e+01	7.6410	55.230035	0.000760	7.597482	2.574096	0.000304
 194	1.9203e+01	7.6827	55.496486	0.000669	6.685784	2.265205	0.000268
 195	1.9303e+01	7.7196	55.783123	0.000719	7.192283	2.436811	0.000288
 196	1.9402e+01	7.7629	56.081871	0.000750	7.496182	2.539775	0.000300
 197	1.9502e+01	7.7966	56.388693	0.000770	7.698781	2.608418	0.000308
 198	1.9602e+01	7.8351	56.663219	0.000689	6.888383	2.333847	0.000276
 199	1.9701e+01	7.8848	56.929670	0.000669	6.685784	2.265205	0.000268
 200	1.9800e+01	7.9153	57.240529	0.000780	7.800081	2.642739	0.000312
 201	1.9900e+01	7.9650	57.515054	0.000689	6.888383	2.333847	0.000276
 202	2.0000e+01	7.9987	57.793617	0.000699	6.989683	2.368169	0.000280
 203	2.0099e+01	8.0372	58.104476	0.000780	7.800081	2.642739	0.000312
 204	2.0198e+01	8.0757	58.342667	0.000598	5.976686	2.024956	0.000239
 205	2.0298e+01	8.1190	58.609118	0.000669	6.685784	2.265205	0.000268
 206	2.0398e+01	8.1511	58.948237	0.000851	8.509180	2.882988	0.000341
 207	2.0497e+01	8.1896	59.182391	0.000588	5.875386	1.990635	0.000235
 208	2.0596e+01	8.2329	59.473065	0.000729	7.293582	2.471133	0.000292
 209	2.0696e+01	8.2794	59.759702	0.000719	7.192283	2.436811	0.000288
 210	2.0796e+01	8.3147	60.050376	0.000729	7.293582	2.471133	0.000292
 211	2.0895e+01	8.3564	60.308752	0.000648	6.483184	2.196562	0.000260
 212	2.0994e+01	8.3966	60.603463	0.000739	7.394882	2.505454	0.000296
 213	2.1094e+01	8.4383	60.869914	0.000669	6.685784	2.265205	0.000268
 214	2.1194e+01	8.4800	61.152514	0.000709	7.090983	2.402490	0.000284
 215	2.1293e+01	8.5105	61.423002	0.000679	6.787084	2.299526	0.000272
 216	2.1392e+01	8.5586	61.705601	0.000709	7.090983	2.402490	0.000284
 217	2.1492e+01	8.6003	61.972052	0.000669	6.685784	2.265205	0.000268
 218	2.1591e+01	8.6436	62.238503	0.000669	6.685784	2.265205	0.000268
 219	2.1691e+01	8.6757	62.513028	0.000689	6.888383	2.333847	0.000276
 220	2.1791e+01	8.7062	62.775442	0.000658	6.584484	2.230884	0.000264
 221	2.1890e+01	8.7591	63.054005	0.000699	6.989683	2.368169	0.000280
 222	2.1989e+01	8.7944	63.304307	0.000628	6.280585	2.127920	0.000252
 223	2.2089e+01	8.8377	63.594981	0.000729	7.293582	2.471133	0.000292
 224	2.2189e+01	8.8842	63.849320	0.000638	6.381885	2.162241	0.000256
 225	2.2288e+01	8.9131	64.144031	0.000739	7.394882	2.505454	0.000296
 226	2.2387e+01	8.9516	64.414519	0.000679	6.787084	2.299526	0.000272
 227	2.2487e+01	8.9981	64.717304	0.000760	7.597482	2.574096	0.000304
 228	2.2587e+01	9.0270	64.995867	0.000699	6.989683	2.368169	0.000280
 229	2.2686e+01	9.0767	65.246169	0.000628	6.280585	2.127920	0.000252
 230	2.2785e+01	9.1072	65.520694	0.000689	6.888383	2.333847	0.000276
 231	2.2885e+01	9.1521	65.758885	0.000598	5.976686	2.024956	0.000239
 232	2.2985e+01	9.1987	66.065708	0.000770	7.698781	2.608418	0.000308
 233	2.3084e+01	9.2388	66.324084	0.000648	6.483184	2.196562	0.000260
 234	2.3183e+01	9.2725	66.602647	0.000699	6.989683	2.368169	0.000280
 235	2.3283e+01	9.3094	66.852949	0.000628	6.280585	2.127920	0.000252
 236	2.3383e+01	9.3511	67.131512	0.000699	6.989683	2.368169	0.000280
 237	2.3482e+01	9.3960	67.410074	0.000699	6.989683	2.368169	0.000280
 238	2.3581e+01	9.4345	67.672488	0.000658	6.584484	2.230884	0.000264
 239	2.3681e+01	9.4762	67.918753	0.000618	6.179285	2.093598	0.000248
 240	2.3780e+01	9.5195	68.217501	0.000750	7.496182	2.539775	0.000300
 241	2.3880e+01	9.5548	68.483952	0.000669	6.685784	2.265205	0.000268
 242	2.3980e+01	9.5949	68.746366	0.000658	6.584484	2.230884	0.000264
 243	2.4079e+01	9.6302	69.004743	0.000648	6.483184	2.196562	0.000260
 244	2.4178e+01	9.6703	69.283305	0.000699	6.989683	2.368169	0.000280
 245	2.4278e+01	9.7088	69.586090	0.000760	7.597482	2.574096	0.000304
 246	2.4378e+01	9.7505	69.840430	0.000638	6.381885	2.162241	0.000256
 247	2.4477e+01	9.7906	70.078621	0.000598	5.976686	2.024956	0.000239
 248	2.4576e+01	9.8307	70.385443	0.000770	7.698781	2.608418	0.000308
 249	2.4676e+01	9.8644	70.591337	0.000517	5.166288	1.750386	0.000207
 250	2.4776e+01	9.9061	70.841639	0.000628	6.280585	2.127920	0.000252
 251	2.4875e+01	9.9495	71.148462	0.000770	7.698781	2.608418	0.000308
 252	2.4974e+01	9.9928	71.394727	0.000618	6.179285	2.093598	0.000248
 253	2.5074e+01	10.0361	71.677326	0.000709	7.090983	2.402490	0.000284
 254	2.5174e+01	10.0746	71.911480	0.000588	5.875386	1.990635	0.000235
 255	2.5273e+01	10.1259	72.206191	0.000739	7.394882	2.505454	0.000296
 256	2.5372e+01	10.1580	72.476679	0.000679	6.787084	2.299526	0.000272
 257	2.5472e+01	10.1885	72.722945	0.000618	6.179285	2.093598	0.000248
 258	2.5572e+01	10.2270	72.969210	0.000618	6.179285	2.093598	0.000248
 259	2.5671e+01	10.2735	73.223549	0.000638	6.381885	2.162241	0.000256
 260	2.5770e+01	10.3152	73.550557	0.000821	8.205280	2.780024	0.000329
 261	2.5870e+01	10.3393	73.752414	0.000506	5.064988	1.716064	0.000203
 262	2.5970e+01	10.3954	74.026939	0.000689	6.888383	2.333847	0.000276
 263	2.6069e+01	10.4291	74.265130	0.000598	5.976686	2.024956	0.000239
 264	2.6169e+01	10.4708	74.567916	0.000760	7.597482	2.574096	0.000304
 265	2.6268e+01	10.5125	74.814181	0.000618	6.179285	2.093598	0.000248
 266	2.6367e+01	10.5526	75.064483	0.000628	6.280585	2.127920	0.000252
 267	2.6467e+01	10.5863	75.334971	0.000679	6.787084	2.299526	0.000272
 268	2.6567e+01	10.6280	75.605460	0.000679	6.787084	2.299526	0.000272
 269	2.6666e+01	10.6762	75.851725	0.000618	6.179285	2.093598	0.000248
 270	2.6765e+01	10.7050	76.069730	0.000547	5.470187	1.853349	0.000219
 271	2.6865e+01	10.7468	76.356367	0.000719	7.192283	2.436811	0.000288
 272	2.6965e+01	10.7853	76.602632	0.000618	6.179285	2.093598	0.000248
 273	2.7064e+01	10.8222	76.861009	0.000648	6.483184	2.196562	0.000260
 274	2.7163e+01	10.8655	77.127460	0.000669	6.685784	2.265205	0.000268
 275	2.7263e+01	10.9056	77.385836	0.000648	6.483184	2.196562	0.000260
 276	2.7363e+01	10.9521	77.648250	0.000658	6.584484	2.230884	0.000264
 277	2.7462e+01	10.9874	77.902590	0.000638	6.381885	2.162241	0.000256
 278	2.7561e+01	11.0307	78.156929	0.000638	6.381885	2.162241	0.000256
 279	2.7661e+01	11.0596	78.378972	0.000557	5.571487	1.887671	0.000223
 280	2.7761e+01	11.1045	78.633311	0.000638	6.381885	2.162241	0.000256
 281	2.7860e+01	11.1478	78.887651	0.000638	6.381885	2.162241	0.000256
 282	2.7959e+01	11.1863	79.146028	0.000648	6.483184	2.196562	0.000260
 283	2.8059e+01	11.2328	79.392293	0.000618	6.179285	2.093598	0.000248
 284	2.8159e+01	11.2681	79.638558	0.000618	6.179285	2.093598	0.000248
 285	2.8258e+01	11.2890	79.925195	0.000719	7.192283	2.436811	0.000288
 286	2.8358e+01	11.3532	80.147237	0.000557	5.571487	1.887671	0.000223
 287	2.8457e+01	11.3868	80.405614	0.000648	6.483184	2.196562	0.000260
 288	2.8556e+01	11.4302	80.655916	0.000628	6.280585	2.127920	0.000252
 289	2.8656e+01	11.4735	80.898144	0.000608	6.077985	2.059277	0.000243
 290	2.8756e+01	11.5072	81.168633	0.000679	6.787084	2.299526	0.000272
 291	2.8855e+01	11.5505	81.431046	0.000658	6.584484	2.230884	0.000264
 292	2.8954e+01	11.5810	81.661163	0.000577	5.774086	1.956313	0.000231
 293	2.9054e+01	11.6275	81.919540	0.000648	6.483184	2.196562	0.000260
 294	2.9154e+01	11.6772	82.125434	0.000517	5.166288	1.750386	0.000207
 295	2.9253e+01	11.7061	82.424182	0.000750	7.496182	2.539775	0.000300
 296	2.9352e+01	11.7462	82.670447	0.000618	6.179285	2.093598	0.000248
 297	2.9452e+01	11.7815	82.936898	0.000669	6.685784	2.265205	0.000268
 298	2.9552e+01	11.8232	83.154903	0.000547	5.470187	1.853349	0.000219
 299	2.9651e+01	11.8681	83.429429	0.000689	6.888383	2.333847	0.000276
 300	2.9750e+01	11.9082	83.671657	0.000608	6.077985	2.059277	0.000243
 301	2.9850e+01	11.9387	83.909848	0.000598	5.976686	2.024956	0.000239
 302	2.9950e+01	11.9868	84.152076	0.000608	6.077985	2.059277	0.000243
 303	3.0049e+01	12.0269	84.422564	0.000679	6.787084	2.299526	0.000272
 304	3.0148e+01	12.0654	84.672866	0.000628	6.280585	2.127920	0.000252
 305	3.0248e+01	12.0991	84.923169	0.000628	6.280585	2.127920	0.000252
 306	3.0348e+01	12.1408	85.173471	0.000628	6.280585	2.127920	0.000252
 307	3.0447e+01	12.1841	85.395514	0.000557	5.571487	1.887671	0.000223
 308	3.0547e+01	12.2307	85.674076	0.000699	6.989683	2.368169	0.000280
 309	3.0646e+01	12.2756	85.896119	0.000557	5.571487	1.887671	0.000223
 310	3.0745e+01	12.2997	86.170644	0.000689	6.888383	2.333847	0.000276
 311	3.0845e+01	12.3446	86.376538	0.000517	5.166288	1.750386	0.000207
 312	3.0945e+01	12.3751	86.634914	0.000648	6.483184	2.196562	0.000260
 313	3.1044e+01	12.4280	86.893291	0.000648	6.483184	2.196562	0.000260
 314	3.1143e+01	12.4633	87.123408	0.000577	5.774086	1.956313	0.000231
 315	3.1243e+01	12.5082	87.337376	0.000537	5.368887	1.819028	0.000215
 316	3.1343e+01	12.5355	87.619975	0.000709	7.090983	2.402490	0.000284
 317	3.1442e+01	12.5788	87.829907	0.000527	5.267587	1.784707	0.000211
 318	3.1541e+01	12.6221	88.092320	0.000658	6.584484	2.230884	0.000264
 319	3.1641e+01	12.6558	88.338586	0.000618	6.179285	2.093598	0.000248
 320	3.1741e+01	12.7055	88.572740	0.000588	5.875386	1.990635	0.000235
 321	3.1840e+01	12.7408	88.798819	0.000567	5.672786	1.921992	0.000227
 322	3.1939e+01	12.7873	89.049122	0.000628	6.280585	2.127920	0.000252
 323	3.2039e+01	12.8258	89.267127	0.000547	5.470187	1.853349	0.000219
 324	3.2139e+01	12.8627	89.541652	0.000689	6.888383	2.333847	0.000276
 325	3.2238e+01	12.8980	89.775806	0.000588	5.875386	1.990635	0.000235
 326	3.2337e+01	12.9397	89.997848	0.000557	5.571487	1.887671	0.000223
 327	3.2437e+01	12.9750	90.264299	0.000669	6.685784	2.265205	0.000268
 328	3.2536e+01	13.0216	90.494416	0.000577	5.774086	1.956313	0.000231
 329	3.2636e+01	13.0585	90.752793	0.000648	6.483184	2.196562	0.000260
 330	3.2736e+01	13.0937	90.978872	0.000567	5.672786	1.921992	0.000227
 331	3.2835e+01	13.1403	91.200915	0.000557	5.571487	1.887671	0.000223
 332	3.2934e+01	13.1820	91.431032	0.000577	5.774086	1.956313	0.000231
 333	3.3034e+01	13.2028	91.685371	0.000638	6.381885	2.162241	0.000256
 334	3.3133e+01	13.2590	91.919525	0.000588	5.875386	1.990635	0.000235
 335	3.3233e+01	13.2975	92.161753	0.000608	6.077985	2.059277	0.000243
 336	3.3333e+01	13.3328	92.412056	0.000628	6.280585	2.127920	0.000252
 337	3.3432e+01	13.3761	92.658321	0.000618	6.179285	2.093598	0.000248
 338	3.3532e+01	13.4226	92.839992	0.000456	4.558489	1.544458	0.000183
 339	3.3631e+01	13.4483	93.086257	0.000618	6.179285	2.093598	0.000248
 340	3.3730e+01	13.4948	93.328485	0.000608	6.077985	2.059277	0.000243
 341	3.3830e+01	13.5333	93.570714	0.000608	6.077985	2.059277	0.000243
 342	3.3929e+01	13.5718	93.792756	0.000557	5.571487	1.887671	0.000223
 343	3.4029e+01	13.6199	94.051133	0.000648	6.483184	2.196562	0.000260
 344	3.4129e+01	13.6536	94.277212	0.000567	5.672786	1.921992	0.000227
 345	3.4228e+01	13.6841	94.539626	0.000658	6.584484	2.230884	0.000264
 346	3.4328e+01	13.7354	94.789929	0.000628	6.280585	2.127920	0.000252
 347	3.4427e+01	13.7804	94.983711	0.000486	4.862388	1.647422	0.000195
 348	3.4526e+01	13.8189	95.229976	0.000618	6.179285	2.093598	0.000248
 349	3.4626e+01	13.8558	95.452019	0.000557	5.571487	1.887671	0.000223
 350	3.4725e+01	13.8927	95.678098	0.000567	5.672786	1.921992	0.000227
 351	3.4825e+01	13.9392	95.912252	0.000588	5.875386	1.990635	0.000235
 352	3.4925e+01	13.9713	96.134295	0.000557	5.571487	1.887671	0.000223
 353	3.5024e+01	14.0162	96.384597	0.000628	6.280585	2.127920	0.000252
 354	3.5123e+01	14.0499	96.582417	0.000496	4.963688	1.681743	0.000199
 355	3.5223e+01	14.0964	96.816571	0.000588	5.875386	1.990635	0.000235
 356	3.5322e+01	14.1317	97.107244	0.000729	7.293582	2.471133	0.000292
 357	3.5422e+01	14.1782	97.337361	0.000577	5.774086	1.956313	0.000231
 358	3.5522e+01	14.2071	97.510958	0.000436	4.355890	1.475815	0.000174
 359	3.5621e+01	14.2472	97.777409	0.000669	6.685784	2.265205	0.000268
 360	3.5721e+01	14.2985	98.019637	0.000608	6.077985	2.059277	0.000243
 361	3.5820e+01	14.3338	98.265902	0.000618	6.179285	2.093598	0.000248
 362	3.5919e+01	14.3803	98.443536	0.000446	4.457189	1.510137	0.000179
 363	3.6019e+01	14.4156	98.730173	0.000719	7.192283	2.436811	0.000288
 364	3.6118e+01	14.4606	98.980475	0.000628	6.280585	2.127920	0.000252
 365	3.6218e+01	14.4926	99.206555	0.000567	5.672786	1.921992	0.000227
 366	3.6318e+01	14.5343	99.436672	0.000577	5.774086	1.956313	0.000231
 367	3.6417e+01	14.5600	99.654677	0.000547	5.470187	1.853349	0.000219
 368	3.6517e+01	14.6162	99.913054	0.000648	6.483184	2.196562	0.000260
 369	3.6616e+01	14.6499	100.106836	0.000486	4.862388	1.647422	0.000195
 370	3.6715e+01	14.7028	100.345027	0.000598	5.976686	2.024956	0.000239
 371	3.6815e+01	14.7333	100.534773	0.000476	4.761089	1.613100	0.000191
 372	3.6914e+01	14.7718	100.785075	0.000628	6.280585	2.127920	0.000252
 373	3.7014e+01	14.8071	101.027303	0.000608	6.077985	2.059277	0.000243
 374	3.7114e+01	14.8472	101.265494	0.000598	5.976686	2.024956	0.000239
 375	3.7213e+01	14.8953	101.499648	0.000588	5.875386	1.990635	0.000235
 376	3.7313e+01	14.9338	101.733802	0.000588	5.875386	1.990635	0.000235
 377	3.7412e+01	14.9723	101.919510	0.000466	4.659789	1.578779	0.000187
 378	3.7511e+01	15.0076	102.121367	0.000506	5.064988	1.716064	0.000203
 379	3.7611e+01	15.0493	102.391855	0.000679	6.787084	2.299526	0.000272
 380	3.7711e+01	15.0814	102.569489	0.000446	4.457189	1.510137	0.000179
 381	3.7810e+01	15.1279	102.819792	0.000628	6.280585	2.127920	0.000252
 382	3.7910e+01	15.1744	103.041834	0.000557	5.571487	1.887671	0.000223
 383	3.8009e+01	15.2033	103.292136	0.000628	6.280585	2.127920	0.000252
 384	3.8108e+01	15.2514	103.453622	0.000405	4.051990	1.372851	0.000162
 385	3.8208e+01	15.2867	103.691813	0.000598	5.976686	2.024956	0.000239
 386	3.8307e+01	15.3284	103.962301	0.000679	6.787084	2.299526	0.000272
 387	3.8407e+01	15.3702	104.164158	0.000506	5.064988	1.716064	0.000203
 388	3.8507e+01	15.4135	104.357940	0.000486	4.862388	1.647422	0.000195
 389	3.8606e+01	15.4407	104.588057	0.000577	5.774086	1.956313	0.000231
 390	3.8706e+01	15.4841	104.838359	0.000628	6.280585	2.127920	0.000252
 391	3.8805e+01	15.5322	105.096736	0.000648	6.483184	2.196562	0.000260
 392	3.8904e+01	15.5739	105.282444	0.000466	4.659789	1.578779	0.000187
 393	3.9004e+01	15.6076	105.500450	0.000547	5.470187	1.853349	0.000219
 394	3.9103e+01	15.6429	105.670009	0.000425	4.254590	1.441494	0.000170
 395	3.9203e+01	15.6910	105.956646	0.000719	7.192283	2.436811	0.000288
 396	3.9303e+01	15.7311	106.170614	0.000537	5.368887	1.819028	0.000215
 397	3.9402e+01	15.7760	106.404768	0.000588	5.875386	1.990635	0.000235
 398	3.9502e+01	15.8113	106.598551	0.000486	4.862388	1.647422	0.000195
 399	3.9601e+01	15.8466	106.828667	0.000577	5.774086	1.956313	0.000231
 400	3.9700e+01	15.8883	107.058784	0.000577	5.774086	1.956313	0.000231
 401	3.9800e+01	15.9268	107.276789	0.000547	5.470187	1.853349	0.000219
 402	3.9900e+01	15.9653	107.470572	0.000486	4.862388	1.647422	0.000195
 403	3.9999e+01	16.0151	107.704726	0.000588	5.875386	1.990635	0.000235
 404	4.0099e+01	16.0503	107.959065	0.000638	6.381885	2.162241	0.000256
 405	4.0198e+01	16.0840	108.164959	0.000517	5.166288	1.750386	0.000207
 406	4.0297e+01	16.1209	108.382965	0.000547	5.470187	1.853349	0.000219
 407	4.0397e+01	16.1626	108.580784	0.000496	4.963688	1.681743	0.000199
 408	4.0496e+01	16.2028	108.831087	0.000628	6.280585	2.127920	0.000252
 409	4.0596e+01	16.2429	109.028906	0.000496	4.963688	1.681743	0.000199
 410	4.0696e+01	16.2830	109.263060	0.000588	5.875386	1.990635	0.000235
 411	4.0795e+01	16.3247	109.444731	0.000456	4.558489	1.544458	0.000183
 412	4.0895e+01	16.3712	109.695034	0.000628	6.280585	2.127920	0.000252
 413	4.0994e+01	16.4145	109.929188	0.000588	5.875386	1.990635	0.000235
 414	4.1093e+01	16.4562	110.151230	0.000557	5.571487	1.887671	0.000223
 415	4.1193e+01	16.4803	110.328864	0.000446	4.457189	1.510137	0.000179
 416	4.1292e+01	16.5188	110.563018	0.000588	5.875386	1.990635	0.000235
 417	4.1392e+01	16.5621	110.748726	0.000466	4.659789	1.578779	0.000187
 418	4.1492e+01	16.6102	111.023251	0.000689	6.888383	2.333847	0.000276
 419	4.1591e+01	16.6487	111.229145	0.000517	5.166288	1.750386	0.000207
 420	4.1691e+01	16.6888	111.431002	0.000506	5.064988	1.716064	0.000203
 421	4.1790e+01	16.7257	111.673230	0.000608	6.077985	2.059277	0.000243
 422	4.1889e+01	16.7578	111.871050	0.000496	4.963688	1.681743	0.000199
 423	4.1989e+01	16.8140	112.121352	0.000628	6.280585	2.127920	0.000252
 424	4.2089e+01	16.8428	112.327246	0.000517	5.166288	1.750386	0.000207
 425	4.2188e+01	16.8894	112.525066	0.000496	4.963688	1.681743	0.000199
 426	4.2288e+01	16.9263	112.775368	0.000628	6.280585	2.127920	0.000252
 427	4.2387e+01	16.9632	112.977225	0.000506	5.064988	1.716064	0.000203
 428	4.2486e+01	17.0049	113.166970	0.000476	4.761089	1.613100	0.000191
 429	4.2586e+01	17.0370	113.384976	0.000547	5.470187	1.853349	0.000219
 430	4.2685e+01	17.0867	113.623167	0.000598	5.976686	2.024956	0.000239
 431	4.2785e+01	17.1268	113.825024	0.000506	5.064988	1.716064	0.000203
 432	4.2885e+01	17.1717	114.055140	0.000577	5.774086	1.956313	0.000231
 433	4.2984e+01	17.2070	114.261034	0.000517	5.166288	1.750386	0.000207
 434	4.3084e+01	17.2439	114.475002	0.000537	5.368887	1.819028	0.000215
 435	4.3183e+01	17.2776	114.709156	0.000588	5.875386	1.990635	0.000235
 436	4.3282e+01	17.3177	114.886790	0.000446	4.457189	1.510137	0.000179
 437	4.3382e+01	17.3594	115.137093	0.000628	6.280585	2.127920	0.000252
 438	4.3481e+01	17.4059	115.330875	0.000486	4.862388	1.647422	0.000195
 439	4.3581e+01	17.4428	115.597326	0.000669	6.685784	2.265205	0.000268
 440	4.3681e+01	17.4861	115.795146	0.000496	4.963688	1.681743	0.000199
 441	4.3780e+01	17.5262	116.001040	0.000517	5.166288	1.750386	0.000207
 442	4.3880e+01	17.5583	116.194822	0.000486	4.862388	1.647422	0.000195
 443	4.3979e+01	17.6016	116.412828	0.000547	5.470187	1.853349	0.000219
 444	4.4078e+01	17.6305	116.610647	0.000496	4.963688	1.681743	0.000199
 445	4.4178e+01	17.6754	116.824615	0.000537	5.368887	1.819028	0.000215
 446	4.4278e+01	17.7204	117.038584	0.000537	5.368887	1.819028	0.000215
 447	4.4377e+01	17.7621	117.256589	0.000547	5.470187	1.853349	0.000219
 448	4.4477e+01	17.8006	117.430186	0.000436	4.355890	1.475815	0.000174
 449	4.4576e+01	17.8407	117.676451	0.000618	6.179285	2.093598	0.000248
 450	4.4675e+01	17.8888	117.890419	0.000537	5.368887	1.819028	0.000215
 451	4.4775e+01	17.9177	118.108425	0.000547	5.470187	1.853349	0.000219
 452	4.4874e+01	17.9546	118.290096	0.000456	4.558489	1.544458	0.000183
 453	4.4974e+01	17.9979	118.500027	0.000527	5.267587	1.784707	0.000211
 454	4.5074e+01	18.0460	118.738218	0.000598	5.976686	2.024956	0.000239
 455	4.5173e+01	18.0829	118.960260	0.000557	5.571487	1.887671	0.000223
 456	4.5273e+01	18.1086	119.186340	0.000567	5.672786	1.921992	0.000227
 457	4.5372e+01	18.1519	119.388197	0.000506	5.064988	1.716064	0.000203
 458	4.5471e+01	18.1920	119.598128	0.000527	5.267587	1.784707	0.000211
 459	4.5571e+01	18.2385	119.824207	0.000567	5.672786	1.921992	0.000227
 460	4.5670e+01	18.2883	120.050287	0.000567	5.672786	1.921992	0.000227
 461	4.5770e+01	18.3139	120.244069	0.000486	4.862388	1.647422	0.000195
 462	4.5870e+01	18.3685	120.445926	0.000506	5.064988	1.716064	0.000203
 463	4.5969e+01	18.3941	120.667969	0.000557	5.571487	1.887671	0.000223
 464	4.6069e+01	18.4342	120.894048	0.000567	5.672786	1.921992	0.000227
 465	4.6168e+01	18.4759	121.075719	0.000456	4.558489	1.544458	0.000183
 466	4.6267e+01	18.5161	121.334096	0.000648	6.483184	2.196562	0.000260
 467	4.6367e+01	18.5562	121.539990	0.000517	5.166288	1.750386	0.000207
 468	4.6467e+01	18.6011	121.741847	0.000506	5.064988	1.716064	0.000203
 469	4.6566e+01	18.6428	121.955815	0.000537	5.368887	1.819028	0.000215
 470	4.6666e+01	18.6749	122.194006	0.000598	5.976686	2.024956	0.000239
 471	4.6765e+01	18.7118	122.391826	0.000496	4.963688	1.681743	0.000199
 472	4.6864e+01	18.7567	122.605794	0.000537	5.368887	1.819028	0.000215
 473	4.6964e+01	18.7968	122.823799	0.000547	5.470187	1.853349	0.000219
 474	4.7063e+01	18.8401	123.029693	0.000517	5.166288	1.750386	0.000207
 475	4.7163e+01	18.8690	123.231550	0.000506	5.064988	1.716064	0.000203
 476	4.7263e+01	18.9219	123.461667	0.000577	5.774086	1.956313	0.000231
 477	4.7362e+01	18.9508	123.671598	0.000527	5.267587	1.784707	0.000211
 478	4.7462e+01	18.9973	123.881529	0.000527	5.267587	1.784707	0.000211
 479	4.7561e+01	19.0390	124.067237	0.000466	4.659789	1.578779	0.000187
 480	4.7660e+01	19.0711	124.297354	0.000577	5.774086	1.956313	0.000231
 481	4.7760e+01	19.1225	124.487099	0.000476	4.761089	1.613100	0.000191
 482	4.7859e+01	19.1642	124.697030	0.000527	5.267587	1.784707	0.000211
 483	4.7959e+01	19.1930	124.894850	0.000496	4.963688	1.681743	0.000199
 484	4.8059e+01	19.2412	125.133041	0.000598	5.976686	2.024956	0.000239
 485	4.8158e+01	19.2765	125.338935	0.000517	5.166288	1.750386	0.000207
 486	4.8258e+01	19.3166	125.548866	0.000527	5.267587	1.784707	0.000211
 487	4.8357e+01	19.3519	125.734574	0.000466	4.659789	1.578779	0.000187
 488	4.8456e+01	19.4016	125.976802	0.000608	6.077985	2.059277	0.000243
 489	4.8556e+01	19.4321	126.150399	0.000436	4.355890	1.475815	0.000174
 490	4.8656e+01	19.4738	126.364367	0.000537	5.368887	1.819028	0.000215
 491	4.8755e+01	19.5027	126.586410	0.000557	5.571487	1.887671	0.000223
 492	4.8855e+01	19.5444	126.796341	0.000527	5.267587	1.784707	0.000211
 493	4.8954e+01	19.5925	126.998197	0.000506	5.064988	1.716064	0.000203
 494	4.9053e+01	19.6294	127.212166	0.000537	5.368887	1.819028	0.000215
 495	4.9153e+01	19.6679	127.397874	0.000466	4.659789	1.578779	0.000187
 496	4.9252e+01	19.7256	127.611842	0.000537	5.368887	1.819028	0.000215
 497	4.9352e+01	19.7561	127.862145	0.000628	6.280585	2.127920	0.000252
 498	4.9452e+01	19.7882	128.064001	0.000506	5.064988	1.716064	0.000203
 499	4.9551e+01	19.8203	128.273932	0.000527	5.267587	1.784707	0.000211
 500	4.9651e+01	19.8732	128.479826	0.000517	5.166288	1.750386	0.000207
 501	4.9750e+01	19.9101	128.677646	0.000496	4.963688	1.681743	0.000199
 502	4.9849e+01	19.9486	128.883540	0.000517	5.166288	1.750386	0.000207
 503	4.9949e+01	19.9968	129.089434	0.000517	5.166288	1.750386	0.000207
 504	5.0048e+01	19.9551	128.960245	0.000324	3.241592	1.098281	-0.000130
 505	5.0148e+01	19.9053	128.879503	0.000203	2.025995	0.686426	-0.000081
 506	5.0248e+01	19.8797	128.770500	0.000274	2.735093	0.926675	-0.000110
 507	5.0347e+01	19.8347	128.592866	0.000446	4.457189	1.510137	-0.000179
 508	5.0447e+01	19.7946	128.467715	0.000314	3.140292	1.063960	-0.000126
 509	5.0546e+01	19.7481	128.366786	0.000253	2.532494	0.858032	-0.000101
 510	5.0645e+01	19.7160	128.205301	0.000405	4.051990	1.372851	-0.000162
 511	5.0745e+01	19.6663	128.059964	0.000365	3.646791	1.235566	-0.000146
 512	5.0844e+01	19.6294	127.946924	0.000284	2.836393	0.960996	-0.000114
 513	5.0944e+01	19.5909	127.781402	0.000415	4.153290	1.407173	-0.000166
 514	5.1044e+01	19.5460	127.640102	0.000355	3.545491	1.201245	-0.000142
 515	5.1143e+01	19.5123	127.486691	0.000385	3.849391	1.304209	-0.000154
 516	5.1242e+01	19.4770	127.357503	0.000324	3.241592	1.098281	-0.000130
 517	5.1342e+01	19.4369	127.220240	0.000344	3.444192	1.166924	-0.000138
 518	5.1441e+01	19.3904	127.066829	0.000385	3.849391	1.304209	-0.000154
 519	5.1541e+01	19.3599	126.901306	0.000415	4.153290	1.407173	-0.000166
 520	5.1641e+01	19.3182	126.780192	0.000304	3.038993	1.029639	-0.000122
 521	5.1740e+01	19.2700	126.634855	0.000365	3.646791	1.235566	-0.000146
 522	5.1840e+01	19.2380	126.477407	0.000395	3.950691	1.338530	-0.000158
 523	5.1939e+01	19.1850	126.332070	0.000365	3.646791	1.235566	-0.000146
 524	5.2038e+01	19.1545	126.166548	0.000415	4.153290	1.407173	-0.000166
 525	5.2138e+01	19.1176	126.013136	0.000385	3.849391	1.304209	-0.000154
 526	5.2237e+01	19.0775	125.887985	0.000314	3.140292	1.063960	-0.000126
 527	5.2337e+01	19.0326	125.682091	0.000517	5.166288	1.750386	-0.000207
 528	5.2437e+01	18.9909	125.560977	0.000304	3.038993	1.029639	-0.000122
 529	5.2536e+01	18.9476	125.383343	0.000446	4.457189	1.510137	-0.000179
 530	5.2636e+01	18.9187	125.246081	0.000344	3.444192	1.166924	-0.000138
 531	5.2735e+01	18.8834	125.112855	0.000334	3.342892	1.132602	-0.000134
 532	5.2834e+01	18.8369	124.939258	0.000436	4.355890	1.475815	-0.000174
 533	5.2934e+01	18.7968	124.785847	0.000385	3.849391	1.304209	-0.000154
 534	5.3033e+01	18.7615	124.620325	0.000415	4.153290	1.407173	-0.000166
 535	5.3133e+01	18.7246	124.519396	0.000253	2.532494	0.858032	-0.000101
 536	5.3233e+01	18.6845	124.321576	0.000496	4.963688	1.681743	-0.000199
 537	5.3332e+01	18.6380	124.156054	0.000415	4.153290	1.407173	-0.000166
 538	5.3431e+01	18.6011	123.978420	0.000446	4.457189	1.510137	-0.000179
 539	5.3531e+01	18.5562	123.849232	0.000324	3.241592	1.098281	-0.000130
 540	5.3630e+01	18.5209	123.671598	0.000446	4.457189	1.510137	-0.000179
 541	5.3730e+01	18.4856	123.506075	0.000415	4.153290	1.407173	-0.000166
 542	5.3830e+01	18.4423	123.352664	0.000385	3.849391	1.304209	-0.000154
 543	5.3929e+01	18.4022	123.191178	0.000405	4.051990	1.372851	-0.000162
 544	5.4029e+01	18.3653	122.997396	0.000486	4.862388	1.647422	-0.000195
 545	5.4128e+01	18.3187	122.852059	0.000365	3.646791	1.235566	-0.000146
 546	5.4227e+01	18.2706	122.678462	0.000436	4.355890	1.475815	-0.000174
 547	5.4327e+01	18.2353	122.468531	0.000527	5.267587	1.784707	-0.000211
 548	5.4426e+01	18.2048	122.294934	0.000436	4.355890	1.475815	-0.000174
 549	5.4526e+01	18.1567	122.173820	0.000304	3.038993	1.029639	-0.000122
 550	5.4626e+01	18.1086	122.000223	0.000436	4.355890	1.475815	-0.000174
 551	5.4725e+01	18.0749	121.846812	0.000385	3.849391	1.304209	-0.000154
 552	5.4825e+01	18.0412	121.620733	0.000567	5.672786	1.921992	-0.000227
 553	5.4924e+01	18.0059	121.463284	0.000395	3.950691	1.338530	-0.000158
 554	5.5023e+01	17.9626	121.313910	0.000375	3.748091	1.269888	-0.000150
 555	5.5123e+01	17.9193	121.120128	0.000486	4.862388	1.647422	-0.000195
 556	5.5222e+01	17.8840	120.999014	0.000304	3.038993	1.029639	-0.000122
 557	5.5322e+01	17.8407	120.813306	0.000466	4.659789	1.578779	-0.000187
 558	5.5422e+01	17.7942	120.647783	0.000415	4.153290	1.407173	-0.000166
 559	5.5521e+01	17.7524	120.478223	0.000425	4.254590	1.441494	-0.000170
 560	5.5620e+01	17.7204	120.288478	0.000476	4.761089	1.613100	-0.000191
 561	5.5720e+01	17.6931	120.143141	0.000365	3.646791	1.235566	-0.000146
 562	5.5819e+01	17.6417	119.941284	0.000506	5.064988	1.716064	-0.000203
 563	5.5919e+01	17.5872	119.791910	0.000375	3.748091	1.269888	-0.000150
 564	5.6019e+01	17.5615	119.614276	0.000446	4.457189	1.510137	-0.000179
 565	5.6118e+01	17.5278	119.448754	0.000415	4.153290	1.407173	-0.000166
 566	5.6218e+01	17.4781	119.226711	0.000557	5.571487	1.887671	-0.000223
 567	5.6317e+01	17.4412	119.097523	0.000324	3.241592	1.098281	-0.000130
 568	5.6416e+01	17.4043	118.903740	0.000486	4.862388	1.647422	-0.000195
 569	5.6516e+01	17.3594	118.770515	0.000334	3.342892	1.132602	-0.000134
 570	5.6615e+01	17.3257	118.568658	0.000506	5.064988	1.716064	-0.000203
 571	5.6715e+01	17.2840	118.415247	0.000385	3.849391	1.304209	-0.000154
 572	5.6815e+01	17.2327	118.205316	0.000527	5.267587	1.784707	-0.000211
 573	5.6914e+01	17.2070	118.015570	0.000476	4.761089	1.613100	-0.000191
 574	5.7014e+01	17.1541	117.874271	0.000355	3.545491	1.201245	-0.000142
 575	5.7113e+01	17.1236	117.680488	0.000486	4.862388	1.647422	-0.000195
 576	5.7212e+01	17.0787	117.494780	0.000466	4.659789	1.578779	-0.000187
 577	5.7312e+01	17.0370	117.357517	0.000344	3.444192	1.166924	-0.000138
 578	5.7411e+01	17.0065	117.151623	0.000517	5.166288	1.750386	-0.000207
 579	5.7511e+01	16.9551	116.978027	0.000436	4.355890	1.475815	-0.000174
 580	5.7611e+01	16.9295	116.812504	0.000415	4.153290	1.407173	-0.000166
 581	5.7710e+01	16.8846	116.646981	0.000415	4.153290	1.407173	-0.000166
 582	5.7809e+01	16.8444	116.445125	0.000506	5.064988	1.716064	-0.000203
 583	5.7909e+01	16.8027	116.299788	0.000365	3.646791	1.235566	-0.000146
 584	5.8008e+01	16.7594	116.142339	0.000395	3.950691	1.338530	-0.000158
 585	5.8108e+01	16.7209	115.920297	0.000557	5.571487	1.887671	-0.000223
 586	5.8208e+01	16.6856	115.734589	0.000466	4.659789	1.578779	-0.000187
 587	5.8307e+01	16.6455	115.573103	0.000405	4.051990	1.372851	-0.000162
 588	5.8407e+01	16.6054	115.423729	0.000375	3.748091	1.269888	-0.000150
 589	5.8506e+01	16.5685	115.205724	0.000547	5.470187	1.853349	-0.000219
 590	5.8605e+01	16.5236	115.032127	0.000436	4.355890	1.475815	-0.000174
 591	5.8705e+01	16.4899	114.822196	0.000527	5.267587	1.784707	-0.000211
 592	5.8804e+01	16.4498	114.676859	0.000365	3.646791	1.235566	-0.000146
 593	5.8904e+01	16.4001	114.483077	0.000486	4.862388	1.647422	-0.000195
 594	5.9004e+01	16.3664	114.301406	0.000456	4.558489	1.544458	-0.000183
 595	5.9103e+01	16.3295	114.099549	0.000506	5.064988	1.716064	-0.000203
 596	5.9203e+01	16.2862	113.990546	0.000274	2.735093	0.926675	-0.000110
 597	5.9302e+01	16.2429	113.752355	0.000598	5.976686	2.024956	-0.000239
 598	5.9401e+01	16.2060	113.611055	0.000355	3.545491	1.201245	-0.000142
 599	5.9501e+01	16.1642	113.401124	0.000527	5.267587	1.784707	-0.000211
 600	5.9600e+01	16.1209	113.215416	0.000466	4.659789	1.578779	-0.000187
 601	5.9700e+01	16.0856	113.053931	0.000405	4.051990	1.372851	-0.000162
 602	5.9800e+01	16.0503	112.880334	0.000436	4.355890	1.475815	-0.000174
 603	5.9899e+01	16.0086	112.666366	0.000537	5.368887	1.819028	-0.000215
 604	5.9998e+01	15.9653	112.464509	0.000506	5.064988	1.716064	-0.000203
 605	6.0098e+01	15.9316	112.323209	0.000355	3.545491	1.201245	-0.000142
 606	6.0197e+01	15.8931	112.121352	0.000506	5.064988	1.716064	-0.000203
 607	6.0297e+01	15.8498	111.955830	0.000415	4.153290	1.407173	-0.000166
 608	6.0397e+01	15.8129	111.766084	0.000476	4.761089	1.613100	-0.000191
 609	6.0496e+01	15.7696	111.596525	0.000425	4.254590	1.441494	-0.000170
 610	6.0596e+01	15.7311	111.382556	0.000537	5.368887	1.819028	-0.000215
 611	6.0695e+01	15.6926	111.217034	0.000415	4.153290	1.407173	-0.000166
 612	6.0794e+01	15.6573	110.986917	0.000577	5.774086	1.956313	-0.000231
 613	6.0894e+01	15.6108	110.833506	0.000385	3.849391	1.304209	-0.000154
 614	6.0993e+01	15.5691	110.627612	0.000517	5.166288	1.750386	-0.000207
 615	6.1093e+01	15.5226	110.466127	0.000405	4.051990	1.372851	-0.000162
 616	6.1193e+01	15.4921	110.260233	0.000517	5.166288	1.750386	-0.000207
 617	6.1292e+01	15.4552	110.118933	0.000355	3.545491	1.201245	-0.000142
 618	6.1392e+01	15.4119	109.904965	0.000537	5.368887	1.819028	-0.000215
 619	6.1491e+01	15.3669	109.715219	0.000476	4.761089	1.613100	-0.000191
 620	6.1590e+01	15.3252	109.501251	0.000537	5.368887	1.819028	-0.000215
 621	6.1690e+01	15.2915	109.327654	0.000436	4.355890	1.475815	-0.000174
 622	6.1789e+01	15.2450	109.129835	0.000496	4.963688	1.681743	-0.000199
 623	6.1889e+01	15.2033	108.948164	0.000456	4.558489	1.544458	-0.000183
 624	6.1989e+01	15.1696	108.742270	0.000517	5.166288	1.750386	-0.000207
 625	6.2088e+01	15.1311	108.568673	0.000436	4.355890	1.475815	-0.000174
 626	6.2188e+01	15.0974	108.358742	0.000527	5.267587	1.784707	-0.000211
 627	6.2287e+01	15.0445	108.201293	0.000395	3.950691	1.338530	-0.000158
 628	6.2386e+01	15.0124	108.011548	0.000476	4.761089	1.613100	-0.000191
 629	6.2486e+01	14.9643	107.821803	0.000476	4.761089	1.613100	-0.000191
 630	6.2586e+01	14.9290	107.619946	0.000506	5.064988	1.716064	-0.000203
 631	6.2685e+01	14.8921	107.442312	0.000446	4.457189	1.510137	-0.000179
 632	6.2785e+01	14.8568	107.272752	0.000425	4.254590	1.441494	-0.000170
 633	6.2884e+01	14.8087	107.046673	0.000567	5.672786	1.921992	-0.000227
 634	6.2983e+01	14.7734	106.881150	0.000415	4.153290	1.407173	-0.000166
 635	6.3083e+01	14.7285	106.683330	0.000496	4.963688	1.681743	-0.000199
 636	6.3182e+01	14.6916	106.493585	0.000476	4.761089	1.613100	-0.000191
 637	6.3282e+01	14.6499	106.299803	0.000486	4.862388	1.647422	-0.000195
 638	6.3382e+01	14.6146	106.138317	0.000405	4.051990	1.372851	-0.000162
 639	6.3481e+01	14.5729	105.952609	0.000466	4.659789	1.578779	-0.000187
 640	6.3581e+01	14.5376	105.770938	0.000456	4.558489	1.544458	-0.000183
 641	6.3680e+01	14.4975	105.552932	0.000547	5.470187	1.853349	-0.000219
 642	6.3779e+01	14.4525	105.399521	0.000385	3.849391	1.304209	-0.000154
 643	6.3879e+01	14.4060	105.165367	0.000588	5.875386	1.990635	-0.000235
 644	6.3978e+01	14.3755	104.971585	0.000486	4.862388	1.647422	-0.000195
 645	6.4078e+01	14.3322	104.814137	0.000395	3.950691	1.338530	-0.000158
 646	6.4177e+01	14.2889	104.584020	0.000577	5.774086	1.956313	-0.000231
 647	6.4277e+01	14.2520	104.414460	0.000425	4.254590	1.441494	-0.000170
 648	6.4376e+01	14.2199	104.176269	0.000598	5.976686	2.024956	-0.000239
 649	6.4476e+01	14.1734	104.006709	0.000425	4.254590	1.441494	-0.000170
 650	6.4576e+01	14.1317	103.816964	0.000476	4.761089	1.613100	-0.000191
 651	6.4675e+01	14.0884	103.623182	0.000486	4.862388	1.647422	-0.000195
 652	6.4775e+01	14.0595	103.413250	0.000527	5.267587	1.784707	-0.000211
 653	6.4874e+01	14.0050	103.203319	0.000527	5.267587	1.784707	-0.000211
 654	6.4974e+01	13.9793	103.029723	0.000436	4.355890	1.475815	-0.000174
 655	6.5073e+01	13.9360	102.827866	0.000506	5.064988	1.716064	-0.000203
 656	6.5172e+01	13.8927	102.605823	0.000557	5.571487	1.887671	-0.000223
 657	6.5272e+01	13.8526	102.456449	0.000375	3.748091	1.269888	-0.000150
 658	6.5371e+01	13.8205	102.246518	0.000527	5.267587	1.784707	-0.000211
 659	6.5471e+01	13.7659	102.056773	0.000476	4.761089	1.613100	-0.000191
 660	6.5570e+01	13.7306	101.842805	0.000537	5.368887	1.819028	-0.000215
 661	6.5670e+01	13.6905	101.636911	0.000517	5.166288	1.750386	-0.000207
 662	6.5769e+01	13.6649	101.463314	0.000436	4.355890	1.475815	-0.000174
 663	6.5869e+01	13.6135	101.261457	0.000506	5.064988	1.716064	-0.000203
 664	6.5969e+01	13.5750	101.031340	0.000577	5.774086	1.956313	-0.000231
 665	6.6068e+01	13.5365	100.886004	0.000365	3.646791	1.235566	-0.000146
 666	6.6168e+01	13.4980	100.692221	0.000486	4.862388	1.647422	-0.000195
 667	6.6267e+01	13.4515	100.458067	0.000588	5.875386	1.990635	-0.000235
 668	6.6367e+01	13.4162	100.248136	0.000527	5.267587	1.784707	-0.000211
 669	6.6466e+01	13.3761	100.066465	0.000456	4.558489	1.544458	-0.000183
 670	6.6566e+01	13.3328	99.856534	0.000527	5.267587	1.784707	-0.000211
 671	6.6665e+01	13.2975	99.678900	0.000446	4.457189	1.510137	-0.000179
 672	6.6764e+01	13.2590	99.485117	0.000486	4.862388	1.647422	-0.000195
 673	6.6864e+01	13.2157	99.279224	0.000517	5.166288	1.750386	-0.000207
 674	6.6963e+01	13.1724	99.053144	0.000567	5.672786	1.921992	-0.000227
 675	6.7063e+01	13.1387	98.863399	0.000476	4.761089	1.613100	-0.000191
 676	6.7162e+01	13.1002	98.681727	0.000456	4.558489	1.544458	-0.000183
 677	6.7262e+01	13.0569	98.439499	0.000608	6.077985	2.059277	-0.000243
 678	6.7362e+01	13.0119	98.245717	0.000486	4.862388	1.647422	-0.000195
 679	6.7461e+01	12.9798	98.055971	0.000476	4.761089	1.613100	-0.000191
 680	6.7561e+01	12.9333	97.866226	0.000476	4.761089	1.613100	-0.000191
 681	6.7660e+01	12.9061	97.672443	0.000486	4.862388	1.647422	-0.000195
 682	6.7760e+01	12.8563	97.462512	0.000527	5.267587	1.784707	-0.000211
 683	6.7859e+01	12.8242	97.264693	0.000496	4.963688	1.681743	-0.000199
 684	6.7959e+01	12.7841	97.074947	0.000476	4.761089	1.613100	-0.000191
 685	6.8058e+01	12.7440	96.836756	0.000598	5.976686	2.024956	-0.000239
 686	6.8157e+01	12.7023	96.663160	0.000436	4.355890	1.475815	-0.000174
 687	6.8257e+01	12.6686	96.453228	0.000527	5.267587	1.784707	-0.000211
 688	6.8356e+01	12.6285	96.235223	0.000547	5.470187	1.853349	-0.000219
 689	6.8456e+01	12.5836	96.017218	0.000547	5.470187	1.853349	-0.000219
 690	6.8555e+01	12.5483	95.819398	0.000496	4.963688	1.681743	-0.000199
 691	6.8655e+01	12.5098	95.597356	0.000557	5.571487	1.887671	-0.000223
 692	6.8754e+01	12.4697	95.411647	0.000466	4.659789	1.578779	-0.000187
 693	6.8854e+01	12.4248	95.234013	0.000446	4.457189	1.510137	-0.000179
 694	6.8954e+01	12.3783	94.999860	0.000588	5.875386	1.990635	-0.000235
 695	6.9053e+01	12.3414	94.785891	0.000537	5.368887	1.819028	-0.000215
 696	6.9153e+01	12.3141	94.567886	0.000547	5.470187	1.853349	-0.000219
 697	6.9252e+01	12.2612	94.398326	0.000425	4.254590	1.441494	-0.000170
 698	6.9352e+01	12.2307	94.192432	0.000517	5.166288	1.750386	-0.000207
 699	6.9451e+01	12.1777	93.946167	0.000618	6.179285	2.093598	-0.000248
 700	6.9550e+01	12.1521	93.748348	0.000496	4.963688	1.681743	-0.000199
 701	6.9650e+01	12.1023	93.542454	0.000517	5.166288	1.750386	-0.000207
 702	6.9749e+01	12.0654	93.360783	0.000456	4.558489	1.544458	-0.000183
 703	6.9849e+01	12.0253	93.146814	0.000537	5.368887	1.819028	-0.000215
 704	6.9948e+01	11.9884	92.928809	0.000547	5.470187	1.853349	-0.000219
 705	7.0048e+01	11.9483	92.674469	0.000638	6.381885	2.162241	-0.000256
 706	7.0147e+01	11.9098	92.529133	0.000365	3.646791	1.235566	-0.000146
 707	7.0247e+01	11.8842	92.303053	0.000567	5.672786	1.921992	-0.000227
 708	7.0347e+01	11.8264	92.036602	0.000669	6.685784	2.265205	-0.000268
 709	7.0446e+01	11.7831	91.875117	0.000405	4.051990	1.372851	-0.000162
 710	7.0546e+01	11.7510	91.649037	0.000567	5.672786	1.921992	-0.000227
 711	7.0645e+01	11.6997	91.447180	0.000506	5.064988	1.716064	-0.000203
 712	7.0745e+01	11.6692	91.196878	0.000628	6.280585	2.127920	-0.000252
 713	7.0844e+01	11.6275	91.011170	0.000466	4.659789	1.578779	-0.000187
 714	7.0944e+01	11.5810	90.813350	0.000496	4.963688	1.681743	-0.000199
 715	7.1043e+01	11.5457	90.619567	0.000486	4.862388	1.647422	-0.000195
 716	7.1142e+01	11.5088	90.381376	0.000598	5.976686	2.024956	-0.000239
 717	7.1242e+01	11.4622	90.175482	0.000517	5.166288	1.750386	-0.000207
 718	7.1341e+01	11.4253	89.949403	0.000567	5.672786	1.921992	-0.000227
 719	7.1441e+01	11.3901	89.707175	0.000608	6.077985	2.059277	-0.000243
 720	7.1540e+01	11.3451	89.525504	0.000456	4.558489	1.544458	-0.000183
 721	7.1640e+01	11.3034	89.311535	0.000537	5.368887	1.819028	-0.000215
 722	7.1740e+01	11.2665	89.089493	0.000557	5.571487	1.887671	-0.000223
 723	7.1839e+01	11.2232	88.867450	0.000557	5.571487	1.887671	-0.000223
 724	7.1939e+01	11.1831	88.693854	0.000436	4.355890	1.475815	-0.000174
 725	7.2038e+01	11.1446	88.415291	0.000699	6.989683	2.368169	-0.000280
 726	7.2138e+01	11.1061	88.221509	0.000486	4.862388	1.647422	-0.000195
 727	7.2237e+01	11.0676	87.983318	0.000598	5.976686	2.024956	-0.000239
 728	7.2337e+01	11.0291	87.777424	0.000517	5.166288	1.750386	-0.000207
 729	7.2436e+01	10.9858	87.563456	0.000537	5.368887	1.819028	-0.000215
 730	7.2535e+01	10.9489	87.333339	0.000577	5.774086	1.956313	-0.000231
 731	7.2635e+01	10.9168	87.119371	0.000537	5.368887	1.819028	-0.000215
 732	7.2734e+01	10.8591	86.901365	0.000547	5.470187	1.853349	-0.000219
 733	7.2834e+01	10.8286	86.667211	0.000588	5.875386	1.990635	-0.000235
 734	7.2933e+01	10.7869	86.457280	0.000527	5.267587	1.784707	-0.000211
 735	7.3033e+01	10.7516	86.271572	0.000466	4.659789	1.578779	-0.000187
 736	7.3132e+01	10.7066	86.021270	0.000628	6.280585	2.127920	-0.000252
 737	7.3232e+01	10.6698	85.791153	0.000577	5.774086	1.956313	-0.000231
 738	7.3332e+01	10.6232	85.605445	0.000466	4.659789	1.578779	-0.000187
 739	7.3431e+01	10.5944	85.363217	0.000608	6.077985	2.059277	-0.000243
 740	7.3531e+01	10.5478	85.173471	0.000476	4.761089	1.613100	-0.000191
 741	7.3630e+01	10.5093	84.935280	0.000598	5.976686	2.024956	-0.000239
 742	7.3730e+01	10.4740	84.701126	0.000588	5.875386	1.990635	-0.000235
 743	7.3829e+01	10.4323	84.446787	0.000638	6.381885	2.162241	-0.000256
 744	7.3928e+01	10.3890	84.220707	0.000567	5.672786	1.921992	-0.000227
 745	7.4028e+01	10.3473	84.014813	0.000517	5.166288	1.750386	-0.000207
 746	7.4127e+01	10.3184	83.804882	0.000527	5.267587	1.784707	-0.000211
 747	7.4227e+01	10.2703	83.566691	0.000598	5.976686	2.024956	-0.000239
 748	7.4326e+01	10.2302	83.360797	0.000517	5.166288	1.750386	-0.000207
 749	7.4426e+01	10.1869	83.138755	0.000557	5.571487	1.887671	-0.000223
 750	7.4525e+01	10.1532	82.916712	0.000557	5.571487	1.887671	-0.000223
 751	7.4625e+01	10.1067	82.654299	0.000658	6.584484	2.230884	-0.000264
 752	7.4725e+01	10.0698	82.456479	0.000496	4.963688	1.681743	-0.000199
 753	7.4824e+01	10.0249	82.214251	0.000608	6.077985	2.059277	-0.000243
 754	7.4924e+01	9.9896	81.984134	0.000577	5.774086	1.956313	-0.000231
 755	7.5023e+01	9.9591	81.818611	0.000415	4.153290	1.407173	-0.000166
 756	7.5123e+01	9.9110	81.552160	0.000669	6.685784	2.265205	-0.000268
 757	7.5222e+01	9.8757	81.322044	0.000577	5.774086	1.956313	-0.000231
 758	7.5322e+01	9.8323	81.087890	0.000588	5.875386	1.990635	-0.000235
 759	7.5421e+01	9.7970	80.857773	0.000577	5.774086	1.956313	-0.000231
 760	7.5520e+01	9.7553	80.619582	0.000598	5.976686	2.024956	-0.000239
 761	7.5620e+01	9.7104	80.369280	0.000628	6.280585	2.127920	-0.000252
 762	7.5719e+01	9.6848	80.191646	0.000446	4.457189	1.510137	-0.000179
 763	7.5819e+01	9.6302	79.953455	0.000598	5.976686	2.024956	-0.000239
 764	7.5918e+01	9.5997	79.743524	0.000527	5.267587	1.784707	-0.000211
 765	7.6018e+01	9.5628	79.517444	0.000567	5.672786	1.921992	-0.000227
 766	7.6118e+01	9.5163	79.263105	0.000638	6.381885	2.162241	-0.000256
 767	7.6217e+01	9.4810	79.016839	0.000618	6.179285	2.093598	-0.000248
 768	7.6317e+01	9.4377	78.802871	0.000537	5.368887	1.819028	-0.000215
 769	7.6416e+01	9.3832	78.548531	0.000638	6.381885	2.162241	-0.000256
 770	7.6516e+01	9.3623	78.366860	0.000456	4.558489	1.544458	-0.000183
 771	7.6615e+01	9.3190	78.096372	0.000679	6.787084	2.299526	-0.000272
 772	7.6715e+01	9.2805	77.918738	0.000446	4.457189	1.510137	-0.000179
 773	7.6814e+01	9.2372	77.668436	0.000628	6.280585	2.127920	-0.000252
 774	7.6913e+01	9.2035	77.422171	0.000618	6.179285	2.093598	-0.000248
 775	7.7013e+01	9.1586	77.200128	0.000557	5.571487	1.887671	-0.000223
 776	7.7112e+01	9.1104	76.925603	0.000689	6.888383	2.333847	-0.000276
 777	7.7212e+01	9.0639	76.743932	0.000456	4.558489	1.544458	-0.000183
 778	7.7311e+01	9.0302	76.481518	0.000658	6.584484	2.230884	-0.000264
 779	7.7411e+01	8.9885	76.239290	0.000608	6.077985	2.059277	-0.000243
 780	7.7510e+01	8.9564	75.988987	0.000628	6.280585	2.127920	-0.000252
 781	7.7610e+01	8.9147	75.738685	0.000628	6.280585	2.127920	-0.000252
 782	7.7710e+01	8.8762	75.532791	0.000517	5.166288	1.750386	-0.000207
 783	7.7809e+01	8.8329	75.302674	0.000577	5.774086	1.956313	-0.000231
 784	7.7909e+01	8.7912	75.080632	0.000557	5.571487	1.887671	-0.000223
 785	7.8008e+01	8.7591	74.802070	0.000699	6.989683	2.368169	-0.000280
 786	7.8108e+01	8.7238	74.559841	0.000608	6.077985	2.059277	-0.000243
 787	7.8207e+01	8.6789	74.305502	0.000638	6.381885	2.162241	-0.000256
 788	7.8306e+01	8.6340	74.083459	0.000557	5.571487	1.887671	-0.000223
 789	7.8406e+01	8.5891	73.865454	0.000547	5.470187	1.853349	-0.000219
 790	7.8505e+01	8.5698	73.607077	0.000648	6.483184	2.196562	-0.000260
 791	7.8605e+01	8.5137	73.372923	0.000588	5.875386	1.990635	-0.000235
 792	7.8704e+01	8.4832	73.162992	0.000527	5.267587	1.784707	-0.000211
 793	7.8804e+01	8.4415	72.928839	0.000588	5.875386	1.990635	-0.000235
 794	7.8903e+01	8.3998	72.654313	0.000689	6.888383	2.333847	-0.000276
 795	7.9003e+01	8.3532	72.432271	0.000557	5.571487	1.887671	-0.000223
 796	7.9103e+01	8.3179	72.181968	0.000628	6.280585	2.127920	-0.000252
 797	7.9202e+01	8.2859	71.943777	0.000598	5.976686	2.024956	-0.000239
 798	7.9302e+01	8.2409	71.717698	0.000567	5.672786	1.921992	-0.000227
 799	7.9401e+01	8.1912	71.475470	0.000608	6.077985	2.059277	-0.000243
 800	7.9501e+01	8.1623	71.217093	0.000648	6.483184	2.196562	-0.000260
 801	7.9600e+01	8.1142	70.954679	0.000658	6.584484	2.230884	-0.000264
 802	7.9700e+01	8.0789	70.781082	0.000436	4.355890	1.475815	-0.000174
 803	7.9799e+01	8.0500	70.514631	0.000669	6.685784	2.265205	-0.000268
 804	7.9898e+01	8.0035	70.256255	0.000648	6.483184	2.196562	-0.000260
 805	7.9998e+01	7.9682	70.066509	0.000476	4.761089	1.613100	-0.000191
 806	8.0097e+01	7.9249	69.755650	0.000780	7.800081	2.642739	-0.000312
 807	8.0197e+01	7.8752	69.561867	0.000486	4.862388	1.647422	-0.000195
 808	8.0296e+01	7.8351	69.319639	0.000608	6.077985	2.059277	-0.000243
 809	8.0396e+01	7.8030	69.049151	0.000679	6.787084	2.299526	-0.000272
 810	8.0496e+01	7.7645	68.814997	0.000588	5.875386	1.990635	-0.000235
 811	8.0595e+01	7.7228	68.568732	0.000618	6.179285	2.093598	-0.000248
 812	8.0695e+01	7.6843	68.330541	0.000598	5.976686	2.024956	-0.000239
 813	8.0794e+01	7.6442	68.076201	0.000638	6.381885	2.162241	-0.000256
 814	8.0894e+01	7.6009	67.793602	0.000709	7.090983	2.402490	-0.000284
 815	8.0993e+01	7.5527	67.555411	0.000598	5.976686	2.024956	-0.000239
 816	8.1093e+01	7.5190	67.337406	0.000547	5.470187	1.853349	-0.000219
 817	8.1192e+01	7.4757	67.079029	0.000648	6.483184	2.196562	-0.000260
 818	8.1291e+01	7.4404	66.816615	0.000658	6.584484	2.230884	-0.000264
 819	8.1391e+01	7.3987	66.602647	0.000537	5.368887	1.819028	-0.000215
 820	8.1490e+01	7.3602	66.360419	0.000608	6.077985	2.059277	-0.000243
 821	8.1590e+01	7.3233	66.093968	0.000669	6.685784	2.265205	-0.000268
 822	8.1689e+01	7.2848	65.827517	0.000669	6.685784	2.265205	-0.000268
 823	8.1789e+01	7.2319	65.565103	0.000658	6.584484	2.230884	-0.000264
 824	8.1888e+01	7.1966	65.347098	0.000547	5.470187	1.853349	-0.000219
 825	8.1988e+01	7.1629	65.064498	0.000709	7.090983	2.402490	-0.000284
 826	8.2088e+01	7.1164	64.834381	0.000577	5.774086	1.956313	-0.000231
 827	8.2187e+01	7.0875	64.612339	0.000557	5.571487	1.887671	-0.000223
 828	8.2287e+01	7.0474	64.313591	0.000750	7.496182	2.539775	-0.000300
 829	8.2386e+01	7.0041	64.087511	0.000567	5.672786	1.921992	-0.000227
 830	8.2486e+01	6.9576	63.829135	0.000648	6.483184	2.196562	-0.000260
 831	8.2585e+01	6.9175	63.578832	0.000628	6.280585	2.127920	-0.000252
 832	8.2684e+01	6.8773	63.308344	0.000679	6.787084	2.299526	-0.000272
 833	8.2784e+01	6.8501	63.054005	0.000638	6.381885	2.162241	-0.000256
 834	8.2883e+01	6.8036	62.811776	0.000608	6.077985	2.059277	-0.000243
 835	8.2983e+01	6.7731	62.561474	0.000628	6.280585	2.127920	-0.000252
 836	8.3082e+01	6.7249	62.311172	0.000628	6.280585	2.127920	-0.000252
 837	8.3182e+01	6.6864	62.056832	0.000638	6.381885	2.162241	-0.000256
 838	8.3281e+01	6.6399	61.790381	0.000669	6.685784	2.265205	-0.000268
 839	8.3381e+01	6.5966	61.552190	0.000598	5.976686	2.024956	-0.000239
 840	8.3481e+01	6.5693	61.313999	0.000598	5.976686	2.024956	-0.000239
 841	8.3580e+01	6.5324	60.991028	0.000810	8.103981	2.745703	-0.000325
 842	8.3680e+01	6.4891	60.760911	0.000577	5.774086	1.956313	-0.000231
 843	8.3779e+01	6.4442	60.514646	0.000618	6.179285	2.093598	-0.000248
 844	8.3879e+01	6.4105	60.260307	0.000638	6.381885	2.162241	-0.000256
 845	8.3978e+01	6.3624	59.989818	0.000679	6.787084	2.299526	-0.000272
 846	8.4078e+01	6.3255	59.727405	0.000658	6.584484	2.230884	-0.000264
 847	8.4177e+01	6.2886	59.489214	0.000598	5.976686	2.024956	-0.000239
 848	8.4276e+01	6.2421	59.182391	0.000770	7.698781	2.608418	-0.000308
 849	8.4376e+01	6.2164	58.948237	0.000588	5.875386	1.990635	-0.000235
 850	8.4475e+01	6.1603	58.661601	0.000719	7.192283	2.436811	-0.000288
 851	8.4575e+01	6.1234	58.435521	0.000567	5.672786	1.921992	-0.000227
 852	8.4674e+01	6.0929	58.189256	0.000618	6.179285	2.093598	-0.000248
 853	8.4774e+01	6.0512	57.894545	0.000739	7.394882	2.505454	-0.000296
 854	8.4874e+01	6.0046	57.644243	0.000628	6.280585	2.127920	-0.000252
 855	8.4973e+01	5.9629	57.365680	0.000699	6.989683	2.368169	-0.000280
 856	8.5073e+01	5.9341	57.103266	0.000658	6.584484	2.230884	-0.000264
 857	8.5172e+01	5.8956	56.828741	0.000689	6.888383	2.333847	-0.000276
 858	8.5272e+01	5.8490	56.578439	0.000628	6.280585	2.127920	-0.000252
 859	8.5371e+01	5.8121	56.332174	0.000618	6.179285	2.093598	-0.000248
 860	8.5471e+01	5.7624	56.049574	0.000709	7.090983	2.402490	-0.000284
 861	8.5570e+01	5.7367	55.779086	0.000679	6.787084	2.299526	-0.000272
 862	8.5669e+01	5.6854	55.540895	0.000598	5.976686	2.024956	-0.000239
 863	8.5769e+01	5.6565	55.221961	0.000800	8.002681	2.711382	-0.000321
 864	8.5868e+01	5.6196	55.003956	0.000547	5.470187	1.853349	-0.000219
 865	8.5968e+01	5.5683	54.729431	0.000689	6.888383	2.333847	-0.000276
 866	8.6067e+01	5.5298	54.471054	0.000648	6.483184	2.196562	-0.000260
 867	8.6167e+01	5.4961	54.164232	0.000770	7.698781	2.608418	-0.000308
 868	8.6266e+01	5.4448	53.926041	0.000598	5.976686	2.024956	-0.000239
 869	8.6366e+01	5.4095	53.663627	0.000658	6.584484	2.230884	-0.000264
 870	8.6466e+01	5.3646	53.356804	0.000770	7.698781	2.608418	-0.000308
 871	8.6565e+01	5.3244	53.130725	0.000567	5.672786	1.921992	-0.000227
 872	8.6665e+01	5.2811	52.856200	0.000689	6.888383	2.333847	-0.000276
 873	8.6764e+01	5.2507	52.605897	0.000628	6.280585	2.127920	-0.000252
 874	8.6864e+01	5.2089	52.323298	0.000709	7.090983	2.402490	-0.000284
 875	8.6963e+01	5.1688	52.052810	0.000679	6.787084	2.299526	-0.000272
 876	8.7063e+01	5.1271	51.790396	0.000658	6.584484	2.230884	-0.000264
 877	8.7162e+01	5.0854	51.487611	0.000760	7.597482	2.574096	-0.000304
 878	8.7261e+01	5.0501	51.221160	0.000669	6.685784	2.265205	-0.000268
 879	8.7361e+01	5.0148	50.926449	0.000739	7.394882	2.505454	-0.000296
 880	8.7460e+01	4.9747	50.655961	0.000679	6.787084	2.299526	-0.000272
 881	8.7560e+01	4.9282	50.361250	0.000739	7.394882	2.505454	-0.000296
 882	8.7659e+01	4.8961	50.074613	0.000719	7.192283	2.436811	-0.000288
 883	8.7759e+01	4.8480	49.816236	0.000648	6.483184	2.196562	-0.000260
 884	8.7859e+01	4.8175	49.533637	0.000709	7.090983	2.402490	-0.000284
 885	8.7958e+01	4.7758	49.267186	0.000669	6.685784	2.265205	-0.000268
 886	8.8058e+01	4.7325	48.980549	0.000719	7.192283	2.436811	-0.000288
 887	8.8157e+01	4.6940	48.706024	0.000689	6.888383	2.333847	-0.000276
 888	8.8257e+01	4.6523	48.431499	0.000689	6.888383	2.333847	-0.000276
 889	8.8356e+01	4.6186	48.128714	0.000760	7.597482	2.574096	-0.000304
 890	8.8456e+01	4.5705	47.926857	0.000506	5.064988	1.716064	-0.000203
 891	8.8555e+01	4.5400	47.607923	0.000800	8.002681	2.711382	-0.000321
 892	8.8654e+01	4.4967	47.293027	0.000790	7.901381	2.677060	-0.000316
 893	8.8754e+01	4.4550	47.022539	0.000679	6.787084	2.299526	-0.000272
 894	8.8853e+01	4.4132	46.764162	0.000648	6.483184	2.196562	-0.000260
 895	8.8953e+01	4.3747	46.437154	0.000821	8.205280	2.780024	-0.000329
 896	8.9052e+01	4.3282	46.158591	0.000699	6.989683	2.368169	-0.000280
 897	8.9152e+01	4.2961	45.892141	0.000669	6.685784	2.265205	-0.000268
 898	8.9251e+01	4.2480	45.605504	0.000719	7.192283	2.436811	-0.000288
 899	8.9351e+01	4.2063	45.322904	0.000709	7.090983	2.402490	-0.000284
 900	8.9451e+01	4.1854	45.060491	0.000658	6.584484	2.230884	-0.000264
 901	8.9550e+01	4.1373	44.717334	0.000861	8.610479	2.917309	-0.000345
 902	8.9650e+01	4.0988	44.483180	0.000588	5.875386	1.990635	-0.000235
 903	8.9749e+01	4.0443	44.200581	0.000709	7.090983	2.402490	-0.000284
 904	8.9849e+01	4.0122	43.938167	0.000658	6.584484	2.230884	-0.000264
 905	8.9948e+01	3.9769	43.619233	0.000800	8.002681	2.711382	-0.000321
 906	9.0047e+01	3.9416	43.312411	0.000770	7.698781	2.608418	-0.000308
 907	9.0147e+01	3.8919	43.033848	0.000699	6.989683	2.368169	-0.000280
 908	9.0246e+01	3.8518	42.759323	0.000689	6.888383	2.333847	-0.000276
 909	9.0346e+01	3.8133	42.488835	0.000679	6.787084	2.299526	-0.000272
 910	9.0445e+01	3.7748	42.177976	0.000780	7.800081	2.642739	-0.000312
 911	9.0545e+01	3.7427	41.891339	0.000719	7.192283	2.436811	-0.000288
 912	9.0644e+01	3.7010	41.612777	0.000699	6.989683	2.368169	-0.000280
 913	9.0744e+01	3.6544	41.309991	0.000760	7.597482	2.574096	-0.000304
 914	9.0844e+01	3.6191	41.011243	0.000750	7.496182	2.539775	-0.000300
 915	9.0943e+01	3.5823	40.720570	0.000729	7.293582	2.471133	-0.000292
 916	9.1043e+01	3.5293	40.405673	0.000790	7.901381	2.677060	-0.000316
 917	9.1142e+01	3.4956	40.151333	0.000638	6.381885	2.162241	-0.000256
 918	9.1242e+01	3.4539	39.852585	0.000750	7.496182	2.539775	-0.000300
 919	9.1341e+01	3.4122	39.561912	0.000729	7.293582	2.471133	-0.000292
 920	9.1441e+01	3.3721	39.255089	0.000770	7.698781	2.608418	-0.000308
 921	9.1540e+01	3.3320	38.952304	0.000760	7.597482	2.574096	-0.000304
 922	9.1639e+01	3.2887	38.665668	0.000719	7.192283	2.436811	-0.000288
 923	9.1739e+01	3.2598	38.407291	0.000648	6.483184	2.196562	-0.000260
 924	9.1838e+01	3.2213	38.096431	0.000780	7.800081	2.642739	-0.000312
 925	9.1938e+01	3.1812	37.809795	0.000719	7.192283	2.436811	-0.000288
 926	9.2037e+01	3.1347	37.470675	0.000851	8.509180	2.882988	-0.000341
 927	9.2137e+01	3.0978	37.175964	0.000739	7.394882	2.505454	-0.000296
 928	9.2237e+01	3.0721	36.917588	0.000648	6.483184	2.196562	-0.000260
 929	9.2336e+01	3.0127	36.630951	0.000719	7.192283	2.436811	-0.000288
 930	9.2436e+01	2.9678	36.312017	0.000800	8.002681	2.711382	-0.000321
 931	9.2535e+01	2.9341	36.017306	0.000739	7.394882	2.505454	-0.000296
 932	9.2635e+01	2.9085	35.726633	0.000729	7.293582	2.471133	-0.000292
 933	9.2734e+01	2.8620	35.439996	0.000719	7.192283	2.436811	-0.000288
 934	9.2834e+01	2.8154	35.117025	0.000810	8.103981	2.745703	-0.000325
 935	9.2933e+01	2.7801	34.846537	0.000679	6.787084	2.299526	-0.000272
 936	9.3032e+01	2.7400	34.539715	0.000770	7.698781	2.608418	-0.000308
 937	9.3132e+01	2.7047	34.249041	0.000729	7.293582	2.471133	-0.000292
 938	9.3231e+01	2.6550	33.922033	0.000821	8.205280	2.780024	-0.000329
 939	9.3331e+01	2.6325	33.619248	0.000760	7.597482	2.574096	-0.000304
 940	9.3430e+01	2.5796	33.308388	0.000780	7.800081	2.642739	-0.000312
 941	9.3530e+01	2.5347	32.993492	0.000790	7.901381	2.677060	-0.000316
 942	9.3629e+01	2.4962	32.743189	0.000628	6.280585	2.127920	-0.000252
 943	9.3729e+01	2.4609	32.391959	0.000881	8.813079	2.985952	-0.000353
 944	9.3829e+01	2.4256	32.105322	0.000719	7.192283	2.436811	-0.000288
 945	9.3928e+01	2.3759	31.814648	0.000729	7.293582	2.471133	-0.000292
 946	9.4028e+01	2.3438	31.511863	0.000760	7.597482	2.574096	-0.000304
 947	9.4127e+01	2.3069	31.213115	0.000750	7.496182	2.539775	-0.000300
 948	9.4227e+01	2.2572	30.898218	0.000790	7.901381	2.677060	-0.000316
 949	9.4326e+01	2.2251	30.583322	0.000790	7.901381	2.677060	-0.000316
 950	9.4425e+01	2.1769	30.256314	0.000821	8.205280	2.780024	-0.000329
 951	9.4525e+01	2.1352	29.957566	0.000750	7.496182	2.539775	-0.000300
 952	9.4624e+01	2.0967	29.654781	0.000760	7.597482	2.574096	-0.000304
 953	9.4724e+01	2.0679	29.323735	0.000831	8.306580	2.814345	-0.000333
 954	9.4823e+01	2.0181	28.996727	0.000821	8.205280	2.780024	-0.000329
 955	9.4923e+01	1.9812	28.689905	0.000770	7.698781	2.608418	-0.000308
 956	9.5022e+01	1.9443	28.383083	0.000770	7.698781	2.608418	-0.000308
 957	9.5122e+01	1.8994	28.124706	0.000648	6.483184	2.196562	-0.000260
 958	9.5222e+01	1.8705	27.761364	0.000912	9.116978	3.088916	-0.000365
 959	9.5321e+01	1.8240	27.470690	0.000729	7.293582	2.471133	-0.000292
 960	9.5421e+01	1.7871	27.159831	0.000780	7.800081	2.642739	-0.000312
 961	9.5520e+01	1.7406	26.873194	0.000719	7.192283	2.436811	-0.000288
 962	9.5620e+01	1.7101	26.530038	0.000861	8.610479	2.917309	-0.000345
 963	9.5719e+01	1.6700	26.243401	0.000719	7.192283	2.436811	-0.000288
 964	9.5819e+01	1.6251	25.908319	0.000841	8.407880	2.848667	-0.000337
 965	9.5918e+01	1.5866	25.617645	0.000729	7.293582	2.471133	-0.000292
 966	9.6017e+01	1.5401	25.310823	0.000770	7.698781	2.608418	-0.000308
 967	9.6117e+01	1.5016	24.987852	0.000810	8.103981	2.745703	-0.000325
 968	9.6216e+01	1.4679	24.636621	0.000881	8.813079	2.985952	-0.000353
 969	9.6316e+01	1.4262	24.378244	0.000648	6.483184	2.196562	-0.000260
 970	9.6415e+01	1.3861	24.071422	0.000770	7.698781	2.608418	-0.000308
 971	9.6515e+01	1.3460	23.756525	0.000790	7.901381	2.677060	-0.000316
 972	9.6615e+01	1.3091	23.425480	0.000831	8.306580	2.814345	-0.000333
 973	9.6714e+01	1.2689	23.086361	0.000851	8.509180	2.882988	-0.000341
 974	9.6814e+01	1.2224	22.771464	0.000790	7.901381	2.677060	-0.000316
 975	9.6913e+01	1.1903	22.472716	0.000750	7.496182	2.539775	-0.000300
 976	9.7013e+01	1.1502	22.113411	0.000902	9.015678	3.054595	-0.000361
 977	9.7112e+01	1.0925	21.830812	0.000709	7.090983	2.402490	-0.000284
 978	9.7212e+01	1.0748	21.491692	0.000851	8.509180	2.882988	-0.000341
 979	9.7311e+01	1.0331	21.184870	0.000770	7.698781	2.608418	-0.000308
 980	9.7410e+01	0.9914	20.890159	0.000739	7.394882	2.505454	-0.000296
 981	9.7510e+01	0.9433	20.559114	0.000831	8.306580	2.814345	-0.000333
 982	9.7609e+01	0.8984	20.228069	0.000831	8.306580	2.814345	-0.000333
 983	9.7709e+01	0.8695	19.913172	0.000790	7.901381	2.677060	-0.000316
 984	9.7808e+01	0.8198	19.565978	0.000871	8.711779	2.951631	-0.000349
 985	9.7908e+01	0.7909	19.255119	0.000780	7.800081	2.642739	-0.000312
 986	9.8007e+01	0.7572	18.936185	0.000800	8.002681	2.711382	-0.000321
 987	9.8107e+01	0.7059	18.661660	0.000689	6.888383	2.333847	-0.000276
 988	9.8207e+01	0.6625	18.261984	0.001003	10.028676	3.397807	-0.000402
 989	9.8306e+01	0.6257	17.967273	0.000739	7.394882	2.505454	-0.000296
 990	9.8406e+01	0.5904	17.660450	0.000770	7.698781	2.608418	-0.000308
 991	9.8505e+01	0.5390	17.301145	0.000902	9.015678	3.054595	-0.000361
 992	9.8605e+01	0.5053	17.006434	0.000739	7.394882	2.505454	-0.000296
 993	9.8704e+01	0.4652	16.651166	0.000891	8.914379	3.020273	-0.000357
 994	9.8803e+01	0.4315	16.372604	0.000699	6.989683	2.368169	-0.000280
 995	9.8903e+01	0.3882	16.013299	0.000902	9.015678	3.054595	-0.000361
 996	9.9002e+01	0.3385	15.678217	0.000841	8.407880	2.848667	-0.000337
 997	9.9102e+01	0.3160	15.351209	0.000821	8.205280	2.780024	-0.000329
 998	9.9201e+01	0.2583	15.016126	0.000841	8.407880	2.848667	-0.000337
 999	9.9301e+01	0.2374	14.689118	0.000821	8.205280	2.780024	-0.000329
1000	9.9400e+01	0.1925	14.390370	0.000750	7.496182	2.539775	-0.000300
1001	9.9500e+01	0.1460	14.031065	0.000902	9.015678	3.054595	-0.000361
1002	9.9600e+01	0.1043	13.687909	0.000861	8.610479	2.917309	-0.000345
1003	9.9699e+01	0.0626	13.356864	0.000831	8.306580	2.814345	-0.000333
1004	9.9799e+01	0.0209	13.009670	0.000871	8.711779	2.951631	-0.000349
1005	9.9898e+01	0.0032	12.795702	0.000537	5.368887	1.819028	-0.000215
1006	9.9998e+01	-0.0449	12.404100	0.000983	9.826076	3.329165	-0.000394
1007	1.0010e+02	-0.0802	12.113426	0.000729	7.293582	2.471133	-0.000292
1008	1.0020e+02	-0.1283	11.778344	0.000841	8.407880	2.848667	-0.000337
1009	1.0030e+02	-0.1636	11.439224	0.000851	8.509180	2.882988	-0.000341
1010	1.0040e+02	-0.2005	11.079919	0.000902	9.015678	3.054595	-0.000361
1011	1.0050e+02	-0.2374	10.756948	0.000810	8.103981	2.745703	-0.000325
1012	1.0059e+02	-0.2791	10.425903	0.000831	8.306580	2.814345	-0.000333
1013	1.0069e+02	-0.3176	10.102932	0.000810	8.103981	2.745703	-0.000325
1014	1.0079e+02	-0.3529	9.735553	0.000922	9.218278	3.123237	-0.000369
1015	1.0089e+02	-0.4011	9.396433	0.000851	8.509180	2.882988	-0.000341
1016	1.0099e+02	-0.4412	9.065388	0.000831	8.306580	2.814345	-0.000333
1017	1.0109e+02	-0.4781	8.734343	0.000831	8.306580	2.814345	-0.000333
1018	1.0119e+02	-0.5182	8.403298	0.000831	8.306580	2.814345	-0.000333
1019	1.0129e+02	-0.5599	8.080327	0.000810	8.103981	2.745703	-0.000325
1020	1.0139e+02	-0.6000	7.725059	0.000891	8.914379	3.020273	-0.000357
1021	1.0149e+02	-0.6305	7.381903	0.000861	8.610479	2.917309	-0.000345
1022	1.0159e+02	-0.6850	7.050858	0.000831	8.306580	2.814345	-0.000333
1023	1.0169e+02	-0.7187	6.703664	0.000871	8.711779	2.951631	-0.000349
1024	1.0179e+02	-0.7556	6.360507	0.000861	8.610479	2.917309	-0.000345
1025	1.0189e+02	-0.8053	6.013314	0.000871	8.711779	2.951631	-0.000349
1026	1.0199e+02	-0.8390	5.666120	0.000871	8.711779	2.951631	-0.000349
1027	1.0209e+02	-0.8759	5.343149	0.000810	8.103981	2.745703	-0.000325
1028	1.0219e+02	-0.9256	5.004030	0.000851	8.509180	2.882988	-0.000341
1029	1.0229e+02	-0.9625	4.660873	0.000861	8.610479	2.917309	-0.000345
1030	1.0239e+02	-1.0026	4.317717	0.000861	8.610479	2.917309	-0.000345
1031	1.0248e+02	-1.0444	3.946300	0.000932	9.319578	3.157558	-0.000373
1032	1.0258e+02	-1.0732	3.651589	0.000739	7.394882	2.505454	-0.000296
1033	1.0268e+02	-1.1085	3.272099	0.000952	9.522177	3.226201	-0.000381
1034	1.0278e+02	-1.1615	2.957202	0.000790	7.901381	2.677060	-0.000316
1035	1.0288e+02	-1.2000	2.593860	0.000912	9.116978	3.088916	-0.000365
1036	1.0298e+02	-1.2369	2.258777	0.000841	8.407880	2.848667	-0.000337
1037	1.0308e+02	-1.2722	1.927732	0.000831	8.306580	2.814345	-0.000333
1038	1.0318e+02	-1.3187	1.544204	0.000962	9.623477	3.260522	-0.000385
1039	1.0328e+02	-1.3508	1.217196	0.000821	8.205280	2.780024	-0.000329
1040	1.0338e+02	-1.4021	0.906337	0.000780	7.800081	2.642739	-0.000312
1041	1.0348e+02	-1.4342	0.563180	0.000861	8.610479	2.917309	-0.000345
1042	1.0358e+02	-1.4775	0.211950	0.000881	8.813079	2.985952	-0.000353
1043	1.0368e+02	-1.5144	-0.167541	0.000952	9.522177	3.226201	-0.000381
1044	1.0378e+02	-1.5561	-0.506661	0.000851	8.509180	2.882988	-0.000341
1045	1.0388e+02	-1.6042	-0.853854	0.000871	8.711779	2.951631	-0.000349
1046	1.0398e+02	-1.6267	-1.180862	0.000821	8.205280	2.780024	-0.000329
1047	1.0408e+02	-1.6844	-1.548242	0.000922	9.218278	3.123237	-0.000369
1048	1.0418e+02	-1.7165	-1.895435	0.000871	8.711779	2.951631	-0.000349
1049	1.0428e+02	-1.7647	-2.218406	0.000810	8.103981	2.745703	-0.000325
1050	1.0438e+02	-1.7887	-2.549451	0.000831	8.306580	2.814345	-0.000333
1051	1.0447e+02	-1.8385	-2.916831	0.000922	9.218278	3.123237	-0.000369
1052	1.0457e+02	-1.8721	-3.268061	0.000881	8.813079	2.985952	-0.000353
1053	1.0467e+02	-1.9235	-3.570847	0.000760	7.597482	2.574096	-0.000304
1054	1.0477e+02	-1.9556	-3.954374	0.000962	9.623477	3.260522	-0.000385
1055	1.0487e+02	-1.9973	-4.354051	0.001003	10.028676	3.397807	-0.000402
1056	1.0497e+02	-2.0374	-4.660873	0.000770	7.698781	2.608418	-0.000308
1057	1.0507e+02	-2.0775	-4.987881	0.000821	8.205280	2.780024	-0.000329
1058	1.0517e+02	-2.1176	-5.322963	0.000841	8.407880	2.848667	-0.000337
1059	1.0527e+02	-2.1529	-5.662083	0.000851	8.509180	2.882988	-0.000341
1060	1.0537e+02	-2.2010	-6.049648	0.000972	9.724777	3.294844	-0.000390
1061	1.0547e+02	-2.2347	-6.392804	0.000861	8.610479	2.917309	-0.000345
1062	1.0557e+02	-2.2732	-6.711738	0.000800	8.002681	2.711382	-0.000321
1063	1.0567e+02	-2.3149	-7.075080	0.000912	9.116978	3.088916	-0.000365
1064	1.0577e+02	-2.3454	-7.414200	0.000851	8.509180	2.882988	-0.000341
1065	1.0587e+02	-2.3951	-7.725059	0.000780	7.800081	2.642739	-0.000312
1066	1.0597e+02	-2.4368	-8.064179	0.000851	8.509180	2.882988	-0.000341
1067	1.0607e+02	-2.4689	-8.419447	0.000891	8.914379	3.020273	-0.000357
1068	1.0617e+02	-2.5219	-8.742417	0.000810	8.103981	2.745703	-0.000325
1069	1.0627e+02	-2.5507	-9.061351	0.000800	8.002681	2.711382	-0.000321
1070	1.0637e+02	-2.5940	-9.501399	0.001104	11.041673	3.741020	-0.000442
1071	1.0647e+02	-2.6325	-9.739590	0.000598	5.976686	2.024956	-0.000239
1072	1.0656e+02	-2.6646	-10.127155	0.000972	9.724777	3.294844	-0.000390
1073	1.0666e+02	-2.7095	-10.433977	0.000770	7.698781	2.608418	-0.000308
1074	1.0676e+02	-2.7641	-10.801357	0.000922	9.218278	3.123237	-0.000369
1075	1.0686e+02	-2.7930	-11.160662	0.000902	9.015678	3.054595	-0.000361
1076	1.0696e+02	-2.8299	-11.451336	0.000729	7.293582	2.471133	-0.000292
1077	1.0706e+02	-2.8716	-11.790455	0.000851	8.509180	2.882988	-0.000341
1078	1.0716e+02	-2.9117	-12.125537	0.000841	8.407880	2.848667	-0.000337
1079	1.0726e+02	-2.9550	-12.500991	0.000942	9.420877	3.191880	-0.000377
1080	1.0736e+02	-3.0015	-12.819925	0.000800	8.002681	2.711382	-0.000321
1081	1.0746e+02	-3.0320	-13.175192	0.000891	8.914379	3.020273	-0.000357
1082	1.0756e+02	-3.0609	-13.486052	0.000780	7.800081	2.642739	-0.000312
1083	1.0766e+02	-3.1090	-13.825171	0.000851	8.509180	2.882988	-0.000341
1084	1.0776e+02	-3.1475	-14.180439	0.000891	8.914379	3.020273	-0.000357
1085	1.0786e+02	-3.1892	-14.479187	0.000750	7.496182	2.539775	-0.000300
1086	1.0796e+02	-3.2357	-14.822344	0.000861	8.610479	2.917309	-0.000345
1087	1.0806e+02	-3.2710	-15.141278	0.000800	8.002681	2.711382	-0.000321
1088	1.0816e+02	-3.3031	-15.468286	0.000821	8.205280	2.780024	-0.000329
1089	1.0826e+02	-3.3400	-15.815479	0.000871	8.711779	2.951631	-0.000349
1090	1.0836e+02	-3.3897	-16.077893	0.000658	6.584484	2.230884	-0.000264
1091	1.0845e+02	-3.4347	-16.485644	0.001023	10.231275	3.466450	-0.000410
1092	1.0855e+02	-3.4603	-16.776318	0.000729	7.293582	2.471133	-0.000292
1093	1.0865e+02	-3.5101	-17.115437	0.000851	8.509180	2.882988	-0.000341
1094	1.0875e+02	-3.5486	-17.434371	0.000800	8.002681	2.711382	-0.000321
1095	1.0885e+02	-3.5999	-17.733119	0.000750	7.496182	2.539775	-0.000300
1096	1.0895e+02	-3.6256	-18.100498	0.000922	9.218278	3.123237	-0.000369
1097	1.0905e+02	-3.6721	-18.415395	0.000790	7.901381	2.677060	-0.000316
1098	1.0915e+02	-3.7154	-18.710106	0.000739	7.394882	2.505454	-0.000296
1099	1.0925e+02	-3.7507	-19.069411	0.000902	9.015678	3.054595	-0.000361
1100	1.0935e+02	-3.7972	-19.372196	0.000760	7.597482	2.574096	-0.000304
1101	1.0945e+02	-3.8293	-19.699204	0.000821	8.205280	2.780024	-0.000329
1102	1.0955e+02	-3.8694	-19.993915	0.000739	7.394882	2.505454	-0.000296
1103	1.0965e+02	-3.9095	-20.369368	0.000942	9.420877	3.191880	-0.000377
1104	1.0975e+02	-3.9512	-20.651968	0.000709	7.090983	2.402490	-0.000284
1105	1.0985e+02	-3.9865	-20.991087	0.000851	8.509180	2.882988	-0.000341
1106	1.0995e+02	-4.0298	-21.289835	0.000750	7.496182	2.539775	-0.000300
1107	1.1005e+02	-4.0667	-21.637029	0.000871	8.711779	2.951631	-0.000349
1108	1.1015e+02	-4.1084	-21.939814	0.000760	7.597482	2.574096	-0.000304
1109	1.1025e+02	-4.1550	-22.258748	0.000800	8.002681	2.711382	-0.000321
1110	1.1035e+02	-4.1967	-22.601904	0.000861	8.610479	2.917309	-0.000345
1111	1.1044e+02	-4.2288	-22.864318	0.000658	6.584484	2.230884	-0.000264
1112	1.1054e+02	-4.2721	-23.231698	0.000922	9.218278	3.123237	-0.000369
1113	1.1064e+02	-4.3122	-23.502186	0.000679	6.787084	2.299526	-0.000272
1114	1.1074e+02	-4.3427	-23.845342	0.000861	8.610479	2.917309	-0.000345
1115	1.1084e+02	-4.3876	-24.144090	0.000750	7.496182	2.539775	-0.000300
1116	1.1094e+02	-4.4213	-24.475135	0.000831	8.306580	2.814345	-0.000333
1117	1.1104e+02	-4.4582	-24.785995	0.000780	7.800081	2.642739	-0.000312
1118	1.1114e+02	-4.4983	-25.084743	0.000750	7.496182	2.539775	-0.000300
1119	1.1124e+02	-4.5576	-25.423862	0.000851	8.509180	2.882988	-0.000341
1120	1.1134e+02	-4.5833	-25.714536	0.000729	7.293582	2.471133	-0.000292
1121	1.1144e+02	-4.6234	-26.053655	0.000851	8.509180	2.882988	-0.000341
1122	1.1154e+02	-4.6587	-26.356441	0.000760	7.597482	2.574096	-0.000304
1123	1.1164e+02	-4.7084	-26.635003	0.000699	6.989683	2.368169	-0.000280
1124	1.1174e+02	-4.7453	-26.925677	0.000729	7.293582	2.471133	-0.000292
1125	1.1184e+02	-4.7790	-27.284982	0.000902	9.015678	3.054595	-0.000361
1126	1.1194e+02	-4.8255	-27.567581	0.000709	7.090983	2.402490	-0.000284
1127	1.1204e+02	-4.8608	-27.906701	0.000851	8.509180	2.882988	-0.000341
1128	1.1214e+02	-4.9090	-28.209486	0.000760	7.597482	2.574096	-0.000304
1129	1.1224e+02	-4.9426	-28.463826	0.000638	6.381885	2.162241	-0.000256
1130	1.1234e+02	-4.9860	-28.806982	0.000861	8.610479	2.917309	-0.000345
1131	1.1244e+02	-5.0277	-29.073433	0.000669	6.685784	2.265205	-0.000268
1132	1.1253e+02	-5.0678	-29.364107	0.000729	7.293582	2.471133	-0.000292
1133	1.1263e+02	-5.1111	-29.715338	0.000881	8.813079	2.985952	-0.000353
1134	1.1273e+02	-5.1480	-29.969677	0.000638	6.381885	2.162241	-0.000256
1135	1.1283e+02	-5.1881	-30.268425	0.000750	7.496182	2.539775	-0.000300
1136	1.1293e+02	-5.2202	-30.587359	0.000800	8.002681	2.711382	-0.000321
1137	1.1303e+02	-5.2715	-30.869958	0.000709	7.090983	2.402490	-0.000284
1138	1.1313e+02	-5.2988	-31.192929	0.000810	8.103981	2.745703	-0.000325
1139	1.1323e+02	-5.3357	-31.503789	0.000780	7.800081	2.642739	-0.000312
1140	1.1333e+02	-5.3870	-31.790425	0.000719	7.192283	2.436811	-0.000288
1141	1.1343e+02	-5.4223	-32.085136	0.000739	7.394882	2.505454	-0.000296
1142	1.1353e+02	-5.4640	-32.359662	0.000689	6.888383	2.333847	-0.000276
1143	1.1363e+02	-5.4961	-32.690707	0.000831	8.306580	2.814345	-0.000333
1144	1.1373e+02	-5.5426	-32.936972	0.000618	6.179285	2.093598	-0.000248
1145	1.1383e+02	-5.5908	-33.276091	0.000851	8.509180	2.882988	-0.000341
1146	1.1393e+02	-5.6196	-33.546579	0.000679	6.787084	2.299526	-0.000272
1147	1.1403e+02	-5.6597	-33.873587	0.000821	8.205280	2.780024	-0.000329
1148	1.1413e+02	-5.6982	-34.140038	0.000669	6.685784	2.265205	-0.000268
1149	1.1423e+02	-5.7351	-34.450898	0.000780	7.800081	2.642739	-0.000312
1150	1.1433e+02	-5.7817	-34.709275	0.000648	6.483184	2.196562	-0.000260
1151	1.1442e+02	-5.8153	-35.036283	0.000821	8.205280	2.780024	-0.000329
1152	1.1452e+02	-5.8603	-35.330993	0.000739	7.394882	2.505454	-0.000296
1153	1.1462e+02	-5.9036	-35.641853	0.000780	7.800081	2.642739	-0.000312
1154	1.1472e+02	-5.9389	-35.876007	0.000588	5.875386	1.990635	-0.000235
1155	1.1482e+02	-5.9790	-36.166681	0.000729	7.293582	2.471133	-0.000292
1156	1.1492e+02	-6.0143	-36.509837	0.000861	8.610479	2.917309	-0.000345
1157	1.1502e+02	-6.0608	-36.752065	0.000608	6.077985	2.059277	-0.000243
1158	1.1512e+02	-6.1025	-37.083110	0.000831	8.306580	2.814345	-0.000333
1159	1.1522e+02	-6.1458	-37.373784	0.000729	7.293582	2.471133	-0.000292
1160	1.1532e+02	-6.1875	-37.688681	0.000790	7.901381	2.677060	-0.000316
1161	1.1542e+02	-6.2196	-37.955132	0.000669	6.685784	2.265205	-0.000268
1162	1.1552e+02	-6.2629	-38.209471	0.000638	6.381885	2.162241	-0.000256
1163	1.1562e+02	-6.2982	-38.560702	0.000881	8.813079	2.985952	-0.000353
1164	1.1572e+02	-6.3415	-38.823116	0.000658	6.584484	2.230884	-0.000264
1165	1.1582e+02	-6.3752	-39.093604	0.000679	6.787084	2.299526	-0.000272
1166	1.1592e+02	-6.4298	-39.388315	0.000739	7.394882	2.505454	-0.000296
1167	1.1602e+02	-6.4570	-39.654766	0.000669	6.685784	2.265205	-0.000268
1168	1.1612e+02	-6.4955	-39.953514	0.000750	7.496182	2.539775	-0.000300
1169	1.1622e+02	-6.5260	-40.215928	0.000658	6.584484	2.230884	-0.000264
1170	1.1632e+02	-6.5790	-40.538899	0.000810	8.103981	2.745703	-0.000325
1171	1.1642e+02	-6.6143	-40.829572	0.000729	7.293582	2.471133	-0.000292
1172	1.1651e+02	-6.6544	-41.051615	0.000557	5.571487	1.887671	-0.000223
1173	1.1661e+02	-6.6897	-41.330177	0.000699	6.989683	2.368169	-0.000280
1174	1.1671e+02	-6.7314	-41.653148	0.000810	8.103981	2.745703	-0.000325
1175	1.1681e+02	-6.7763	-41.939785	0.000719	7.192283	2.436811	-0.000288
1176	1.1691e+02	-6.8180	-42.242570	0.000760	7.597482	2.574096	-0.000304
1177	1.1701e+02	-6.8533	-42.529206	0.000719	7.192283	2.436811	-0.000288
1178	1.1711e+02	-6.8902	-42.743175	0.000537	5.368887	1.819028	-0.000215
1179	1.1721e+02	-6.9431	-43.062108	0.000800	8.002681	2.711382	-0.000321
1180	1.1731e+02	-6.9688	-43.393153	0.000831	8.306580	2.814345	-0.000333
1181	1.1741e+02	-7.0121	-43.671716	0.000699	6.989683	2.368169	-0.000280
1182	1.1751e+02	-7.0570	-43.901833	0.000577	5.774086	1.956313	-0.000231
1183	1.1761e+02	-7.0939	-44.204618	0.000760	7.597482	2.574096	-0.000304
1184	1.1771e+02	-7.1340	-44.442809	0.000598	5.976686	2.024956	-0.000239
1185	1.1781e+02	-7.1805	-44.806151	0.000912	9.116978	3.088916	-0.000365
1186	1.1791e+02	-7.2062	-45.028193	0.000557	5.571487	1.887671	-0.000223
1187	1.1801e+02	-7.2592	-45.322904	0.000739	7.394882	2.505454	-0.000296
1188	1.1811e+02	-7.2896	-45.629727	0.000770	7.698781	2.608418	-0.000308
1189	1.1821e+02	-7.3346	-45.888103	0.000648	6.483184	2.196562	-0.000260
1190	1.1831e+02	-7.3650	-46.198963	0.000780	7.800081	2.642739	-0.000312
1191	1.1841e+02	-7.4132	-46.408894	0.000527	5.267587	1.784707	-0.000211
1192	1.1850e+02	-7.4517	-46.756088	0.000871	8.711779	2.951631	-0.000349
1193	1.1860e+02	-7.4934	-47.038687	0.000709	7.090983	2.402490	-0.000284
1194	1.1870e+02	-7.5367	-47.268804	0.000577	5.774086	1.956313	-0.000231
1195	1.1880e+02	-7.5688	-47.575626	0.000770	7.698781	2.608418	-0.000308
1196	1.1890e+02	-7.6137	-47.821891	0.000618	6.179285	2.093598	-0.000248
1197	1.1900e+02	-7.6634	-48.112565	0.000729	7.293582	2.471133	-0.000292
1198	1.1910e+02	-7.6987	-48.379016	0.000669	6.685784	2.265205	-0.000268
1199	1.1920e+02	-7.7324	-48.653541	0.000689	6.888383	2.333847	-0.000276
1200	1.1930e+02	-7.7661	-48.932104	0.000699	6.989683	2.368169	-0.000280
1201	1.1940e+02	-7.8174	-49.198555	0.000669	6.685784	2.265205	-0.000268
1202	1.1950e+02	-7.8543	-49.489228	0.000729	7.293582	2.471133	-0.000292
1203	1.1960e+02	-7.8864	-49.779902	0.000729	7.293582	2.471133	-0.000292
1204	1.1970e+02	-7.9281	-50.022130	0.000608	6.077985	2.059277	-0.000243
1205	1.1980e+02	-7.9730	-50.296656	0.000689	6.888383	2.333847	-0.000276
1206	1.1990e+02	-8.0067	-50.595404	0.000750	7.496182	2.539775	-0.000300
1207	1.2000e+02	-8.0500	-50.845706	0.000628	6.280585	2.127920	-0.000252
1208	1.2010e+02	-8.0821	-51.144454	0.000750	7.496182	2.539775	-0.000300
1209	1.2020e+02	-8.1367	-51.427054	0.000709	7.090983	2.402490	-0.000284
1210	1.2030e+02	-8.1720	-51.677356	0.000628	6.280585	2.127920	-0.000252
1211	1.2039e+02	-8.2121	-51.943807	0.000669	6.685784	2.265205	-0.000268
1212	1.2049e+02	-8.2506	-52.210258	0.000669	6.685784	2.265205	-0.000268
1213	1.2059e+02	-8.2923	-52.492857	0.000709	7.090983	2.402490	-0.000284
1214	1.2069e+02	-8.3292	-52.771420	0.000699	6.989683	2.368169	-0.000280
1215	1.2079e+02	-8.3725	-53.062094	0.000729	7.293582	2.471133	-0.000292
1216	1.2089e+02	-8.4142	-53.348730	0.000719	7.192283	2.436811	-0.000288
1217	1.2099e+02	-8.4575	-53.615181	0.000669	6.685784	2.265205	-0.000268
1218	1.2109e+02	-8.4896	-53.853372	0.000598	5.976686	2.024956	-0.000239
1219	1.2119e+02	-8.5281	-54.148083	0.000739	7.394882	2.505454	-0.000296
1220	1.2129e+02	-8.5714	-54.378200	0.000577	5.774086	1.956313	-0.000231
1221	1.2139e+02	-8.6083	-54.676948	0.000750	7.496182	2.539775	-0.000300
1222	1.2149e+02	-8.6468	-54.967622	0.000729	7.293582	2.471133	-0.000292
1223	1.2159e+02	-8.6885	-55.254258	0.000719	7.192283	2.436811	-0.000288
1224	1.2169e+02	-8.7270	-55.520709	0.000669	6.685784	2.265205	-0.000268
1225	1.2179e+02	-8.7607	-55.771012	0.000628	6.280585	2.127920	-0.000252
1226	1.2189e+02	-8.8040	-56.061685	0.000729	7.293582	2.471133	-0.000292
1227	1.2199e+02	-8.8506	-56.332174	0.000679	6.787084	2.299526	-0.000272
1228	1.2209e+02	-8.8842	-56.562290	0.000577	5.774086	1.956313	-0.000231
1229	1.2219e+02	-8.9324	-56.852964	0.000729	7.293582	2.471133	-0.000292
1230	1.2229e+02	-8.9709	-57.155749	0.000760	7.597482	2.574096	-0.000304
1231	1.2239e+02	-9.0174	-57.349532	0.000486	4.862388	1.647422	-0.000195
1232	1.2248e+02	-9.0415	-57.640205	0.000729	7.293582	2.471133	-0.000292
1233	1.2258e+02	-9.0848	-57.934916	0.000739	7.394882	2.505454	-0.000296
1234	1.2268e+02	-9.1345	-58.193293	0.000648	6.483184	2.196562	-0.000260
1235	1.2278e+02	-9.1778	-58.415336	0.000557	5.571487	1.887671	-0.000223
1236	1.2288e+02	-9.2035	-58.718121	0.000760	7.597482	2.574096	-0.000304
1237	1.2298e+02	-9.2548	-59.020906	0.000760	7.597482	2.574096	-0.000304
1238	1.2308e+02	-9.2853	-59.279283	0.000648	6.483184	2.196562	-0.000260
1239	1.2318e+02	-9.3222	-59.541696	0.000658	6.584484	2.230884	-0.000264
1240	1.2328e+02	-9.3591	-59.783925	0.000608	6.077985	2.059277	-0.000243
1241	1.2338e+02	-9.4185	-60.062487	0.000699	6.989683	2.368169	-0.000280
1242	1.2348e+02	-9.4505	-60.316826	0.000638	6.381885	2.162241	-0.000256
1243	1.2358e+02	-9.4762	-60.587315	0.000679	6.787084	2.299526	-0.000272
1244	1.2368e+02	-9.5324	-60.853766	0.000669	6.685784	2.265205	-0.000268
1245	1.2378e+02	-9.5660	-61.104068	0.000628	6.280585	2.127920	-0.000252
1246	1.2388e+02	-9.6029	-61.386667	0.000709	7.090983	2.402490	-0.000284
1247	1.2398e+02	-9.6511	-61.636970	0.000628	6.280585	2.127920	-0.000252
1248	1.2408e+02	-9.6848	-61.842864	0.000517	5.166288	1.750386	-0.000207
1249	1.2418e+02	-9.7345	-62.169872	0.000821	8.205280	2.780024	-0.000329
1250	1.2428e+02	-9.7618	-62.391914	0.000557	5.571487	1.887671	-0.000223
1251	1.2438e+02	-9.8083	-62.714885	0.000810	8.103981	2.745703	-0.000325
1252	1.2447e+02	-9.8420	-62.900593	0.000466	4.659789	1.578779	-0.000187
1253	1.2457e+02	-9.8805	-63.215490	0.000790	7.901381	2.677060	-0.000316
1254	1.2467e+02	-9.9222	-63.465792	0.000628	6.280585	2.127920	-0.000252
1255	1.2477e+02	-9.9735	-63.744355	0.000699	6.989683	2.368169	-0.000280
1256	1.2487e+02	-10.0040	-63.942174	0.000496	4.963688	1.681743	-0.000199
1257	1.2497e+02	-10.0505	-64.228811	0.000719	7.192283	2.436811	-0.000288
1258	1.2507e+02	-10.0810	-64.511411	0.000709	7.090983	2.402490	-0.000284
1259	1.2517e+02	-10.1131	-64.757676	0.000618	6.179285	2.093598	-0.000248
1260	1.2527e+02	-10.1660	-65.012015	0.000638	6.381885	2.162241	-0.000256
1261	1.2537e+02	-10.2093	-65.246169	0.000588	5.875386	1.990635	-0.000235
1262	1.2547e+02	-10.2462	-65.544917	0.000750	7.496182	2.539775	-0.000300
1263	1.2557e+02	-10.2735	-65.835591	0.000729	7.293582	2.471133	-0.000292
1264	1.2567e+02	-10.3297	-66.057634	0.000557	5.571487	1.887671	-0.000223
1265	1.2577e+02	-10.3698	-66.279676	0.000557	5.571487	1.887671	-0.000223
1266	1.2587e+02	-10.3954	-66.586498	0.000770	7.698781	2.608418	-0.000308
1267	1.2597e+02	-10.4387	-66.816615	0.000577	5.774086	1.956313	-0.000231
1268	1.2607e+02	-10.4821	-67.091140	0.000689	6.888383	2.333847	-0.000276
1269	1.2617e+02	-10.5254	-67.321257	0.000577	5.774086	1.956313	-0.000231
1270	1.2627e+02	-10.5591	-67.575597	0.000638	6.381885	2.162241	-0.000256
1271	1.2636e+02	-10.5944	-67.870307	0.000739	7.394882	2.505454	-0.000296
1272	1.2646e+02	-10.6329	-68.104461	0.000588	5.875386	1.990635	-0.000235
1273	1.2656e+02	-10.6794	-68.407247	0.000760	7.597482	2.574096	-0.000304
1274	1.2666e+02	-10.7227	-68.633326	0.000567	5.672786	1.921992	-0.000227
1275	1.2676e+02	-10.7532	-68.859406	0.000567	5.672786	1.921992	-0.000227
1276	1.2686e+02	-10.7917	-69.129894	0.000679	6.787084	2.299526	-0.000272
1277	1.2696e+02	-10.8382	-69.368085	0.000598	5.976686	2.024956	-0.000239
1278	1.2706e+02	-10.8783	-69.646647	0.000699	6.989683	2.368169	-0.000280
1279	1.2716e+02	-10.9168	-69.880801	0.000588	5.875386	1.990635	-0.000235
1280	1.2726e+02	-10.9569	-70.151289	0.000679	6.787084	2.299526	-0.000272
1281	1.2736e+02	-10.9986	-70.405629	0.000638	6.381885	2.162241	-0.000256
1282	1.2746e+02	-11.0435	-70.692265	0.000719	7.192283	2.436811	-0.000288
1283	1.2756e+02	-11.0820	-70.898159	0.000517	5.166288	1.750386	-0.000207
1284	1.2766e+02	-11.1270	-71.128276	0.000577	5.774086	1.956313	-0.000231
1285	1.2776e+02	-11.1671	-71.402801	0.000689	6.888383	2.333847	-0.000276
1286	1.2786e+02	-11.1975	-71.685401	0.000709	7.090983	2.402490	-0.000284
1287	1.2796e+02	-11.2425	-71.931666	0.000618	6.179285	2.093598	-0.000248
1288	1.2806e+02	-11.2810	-72.149671	0.000547	5.470187	1.853349	-0.000219
1289	1.2816e+02	-11.3243	-72.448419	0.000750	7.496182	2.539775	-0.000300
1290	1.2826e+02	-11.3564	-72.694685	0.000618	6.179285	2.093598	-0.000248
1291	1.2835e+02	-11.4029	-72.916727	0.000557	5.571487	1.887671	-0.000223
1292	1.2845e+02	-11.4318	-73.215475	0.000750	7.496182	2.539775	-0.000300
1293	1.2855e+02	-11.4767	-73.445592	0.000577	5.774086	1.956313	-0.000231
1294	1.2865e+02	-11.5200	-73.699931	0.000638	6.381885	2.162241	-0.000256
1295	1.2875e+02	-11.5601	-73.926011	0.000567	5.672786	1.921992	-0.000227
1296	1.2885e+02	-11.5986	-74.184388	0.000648	6.483184	2.196562	-0.000260
1297	1.2895e+02	-11.6435	-74.450839	0.000669	6.685784	2.265205	-0.000268
1298	1.2905e+02	-11.6692	-74.676918	0.000567	5.672786	1.921992	-0.000227
1299	1.2915e+02	-11.7253	-74.935295	0.000648	6.483184	2.196562	-0.000260
1300	1.2925e+02	-11.7510	-75.149263	0.000537	5.368887	1.819028	-0.000215
1301	1.2935e+02	-11.7911	-75.415714	0.000669	6.685784	2.265205	-0.000268
1302	1.2945e+02	-11.8408	-75.666017	0.000628	6.280585	2.127920	-0.000252
1303	1.2955e+02	-11.8745	-75.904208	0.000598	5.976686	2.024956	-0.000239
1304	1.2965e+02	-11.9098	-76.150473	0.000618	6.179285	2.093598	-0.000248
1305	1.2975e+02	-11.9596	-76.396738	0.000618	6.179285	2.093598	-0.000248
1306	1.2985e+02	-11.9884	-76.602632	0.000517	5.166288	1.750386	-0.000207
1307	1.2995e+02	-12.0462	-76.881194	0.000699	6.989683	2.368169	-0.000280
1308	1.3005e+02	-12.0767	-77.151683	0.000679	6.787084	2.299526	-0.000272
1309	1.3015e+02	-12.1136	-77.357576	0.000517	5.166288	1.750386	-0.000207
1310	1.3025e+02	-12.1585	-77.624027	0.000669	6.685784	2.265205	-0.000268
1311	1.3034e+02	-12.1970	-77.837996	0.000537	5.368887	1.819028	-0.000215
1312	1.3044e+02	-12.2387	-78.104447	0.000669	6.685784	2.265205	-0.000268
1313	1.3054e+02	-12.2724	-78.338600	0.000588	5.875386	1.990635	-0.000235
1314	1.3064e+02	-12.3173	-78.588903	0.000628	6.280585	2.127920	-0.000252
1315	1.3074e+02	-12.3638	-78.843242	0.000638	6.381885	2.162241	-0.000256
1316	1.3084e+02	-12.4023	-79.069322	0.000567	5.672786	1.921992	-0.000227
1317	1.3094e+02	-12.4392	-79.287327	0.000547	5.470187	1.853349	-0.000219
1318	1.3104e+02	-12.4713	-79.578001	0.000729	7.293582	2.471133	-0.000292
1319	1.3114e+02	-12.5162	-79.767746	0.000476	4.761089	1.613100	-0.000191
1320	1.3124e+02	-12.5483	-80.054383	0.000719	7.192283	2.436811	-0.000288
1321	1.3134e+02	-12.5900	-80.308723	0.000638	6.381885	2.162241	-0.000256
1322	1.3144e+02	-12.6349	-80.546914	0.000598	5.976686	2.024956	-0.000239
1323	1.3154e+02	-12.6750	-80.805290	0.000648	6.483184	2.196562	-0.000260
1324	1.3164e+02	-12.7184	-81.023296	0.000547	5.470187	1.853349	-0.000219
1325	1.3174e+02	-12.7504	-81.249375	0.000567	5.672786	1.921992	-0.000227
1326	1.3184e+02	-12.7922	-81.499678	0.000628	6.280585	2.127920	-0.000252
1327	1.3194e+02	-12.8290	-81.758054	0.000648	6.483184	2.196562	-0.000260
1328	1.3204e+02	-12.8756	-81.984134	0.000567	5.672786	1.921992	-0.000227
1329	1.3214e+02	-12.9157	-82.202139	0.000547	5.470187	1.853349	-0.000219
1330	1.3224e+02	-12.9574	-82.448405	0.000618	6.179285	2.093598	-0.000248
1331	1.3234e+02	-12.9911	-82.702744	0.000638	6.381885	2.162241	-0.000256
1332	1.3243e+02	-13.0312	-82.924787	0.000557	5.571487	1.887671	-0.000223
1333	1.3253e+02	-13.0681	-83.167015	0.000608	6.077985	2.059277	-0.000243
1334	1.3263e+02	-13.1066	-83.441540	0.000689	6.888383	2.333847	-0.000276
1335	1.3273e+02	-13.1515	-83.671657	0.000577	5.774086	1.956313	-0.000231
1336	1.3283e+02	-13.1932	-83.901773	0.000577	5.774086	1.956313	-0.000231
1337	1.3293e+02	-13.2333	-84.127853	0.000567	5.672786	1.921992	-0.000227
1338	1.3303e+02	-13.2718	-84.394304	0.000669	6.685784	2.265205	-0.000268
1339	1.3313e+02	-13.3119	-84.648644	0.000638	6.381885	2.162241	-0.000256
1340	1.3323e+02	-13.3424	-84.838389	0.000476	4.761089	1.613100	-0.000191
1341	1.3333e+02	-13.3921	-85.129063	0.000729	7.293582	2.471133	-0.000292
1342	1.3343e+02	-13.4290	-85.318808	0.000476	4.761089	1.613100	-0.000191
1343	1.3353e+02	-13.4740	-85.569111	0.000628	6.280585	2.127920	-0.000252
1344	1.3363e+02	-13.5108	-85.831524	0.000658	6.584484	2.230884	-0.000264
1345	1.3373e+02	-13.5445	-86.085864	0.000638	6.381885	2.162241	-0.000256
1346	1.3383e+02	-13.5927	-86.291758	0.000517	5.166288	1.750386	-0.000207
1347	1.3393e+02	-13.6312	-86.546097	0.000638	6.381885	2.162241	-0.000256
1348	1.3403e+02	-13.6633	-86.792363	0.000618	6.179285	2.093598	-0.000248
1349	1.3413e+02	-13.7098	-87.038628	0.000618	6.179285	2.093598	-0.000248
1350	1.3423e+02	-13.7499	-87.244522	0.000517	5.166288	1.750386	-0.000207
1351	1.3432e+02	-13.7980	-87.523084	0.000699	6.989683	2.368169	-0.000280
1352	1.3442e+02	-13.8349	-87.737052	0.000537	5.368887	1.819028	-0.000215
1353	1.3452e+02	-13.8670	-87.979281	0.000608	6.077985	2.059277	-0.000243
1354	1.3462e+02	-13.9023	-88.193249	0.000537	5.368887	1.819028	-0.000215
1355	1.3472e+02	-13.9536	-88.467774	0.000689	6.888383	2.333847	-0.000276
1356	1.3482e+02	-13.9905	-88.669631	0.000506	5.064988	1.716064	-0.000203
1357	1.3492e+02	-14.0274	-88.919933	0.000628	6.280585	2.127920	-0.000252
1358	1.3502e+02	-14.0643	-89.150050	0.000577	5.774086	1.956313	-0.000231
1359	1.3512e+02	-14.1092	-89.392278	0.000608	6.077985	2.059277	-0.000243
1360	1.3522e+02	-14.1525	-89.642580	0.000628	6.280585	2.127920	-0.000252
1361	1.3532e+02	-14.1846	-89.876734	0.000588	5.875386	1.990635	-0.000235
1362	1.3542e+02	-14.2279	-90.110888	0.000588	5.875386	1.990635	-0.000235
1363	1.3552e+02	-14.2632	-90.345042	0.000588	5.875386	1.990635	-0.000235
1364	1.3562e+02	-14.3017	-90.595345	0.000628	6.280585	2.127920	-0.000252
1365	1.3572e+02	-14.3595	-90.825461	0.000577	5.774086	1.956313	-0.000231
1366	1.3582e+02	-14.3836	-91.112098	0.000719	7.192283	2.436811	-0.000288
1367	1.3592e+02	-14.4349	-91.301843	0.000476	4.761089	1.613100	-0.000191
1368	1.3602e+02	-14.4638	-91.568294	0.000669	6.685784	2.265205	-0.000268
1369	1.3612e+02	-14.5071	-91.741891	0.000436	4.355890	1.475815	-0.000174
1370	1.3622e+02	-14.5472	-92.024491	0.000709	7.090983	2.402490	-0.000284
1371	1.3631e+02	-14.5857	-92.262682	0.000598	5.976686	2.024956	-0.000239
1372	1.3641e+02	-14.6242	-92.464538	0.000506	5.064988	1.716064	-0.000203
1373	1.3651e+02	-14.6595	-92.730989	0.000669	6.685784	2.265205	-0.000268
1374	1.3661e+02	-14.6980	-92.969180	0.000598	5.976686	2.024956	-0.000239
1375	1.3671e+02	-14.7525	-93.162963	0.000486	4.862388	1.647422	-0.000195
1376	1.3681e+02	-14.7894	-93.421340	0.000648	6.483184	2.196562	-0.000260
1377	1.3691e+02	-14.8247	-93.631271	0.000527	5.267587	1.784707	-0.000211
1378	1.3701e+02	-14.8664	-93.885610	0.000638	6.381885	2.162241	-0.000256
1379	1.3711e+02	-14.9065	-94.103615	0.000547	5.470187	1.853349	-0.000219
1380	1.3721e+02	-14.9290	-94.357955	0.000638	6.381885	2.162241	-0.000256
1381	1.3731e+02	-14.9883	-94.584035	0.000567	5.672786	1.921992	-0.000227
1382	1.3741e+02	-15.0268	-94.858560	0.000689	6.888383	2.333847	-0.000276
1383	1.3751e+02	-15.0637	-95.092714	0.000588	5.875386	1.990635	-0.000235
1384	1.3761e+02	-15.0990	-95.302645	0.000527	5.267587	1.784707	-0.000211
1385	1.3771e+02	-15.1359	-95.569096	0.000669	6.685784	2.265205	-0.000268
1386	1.3781e+02	-15.1825	-95.799212	0.000577	5.774086	1.956313	-0.000231
1387	1.3791e+02	-15.2226	-96.045478	0.000618	6.179285	2.093598	-0.000248
1388	1.3801e+02	-15.2611	-96.287706	0.000608	6.077985	2.059277	-0.000243
1389	1.3811e+02	-15.3044	-96.542045	0.000638	6.381885	2.162241	-0.000256
1390	1.3821e+02	-15.3477	-96.784274	0.000608	6.077985	2.059277	-0.000243
1391	1.3831e+02	-15.3862	-97.026502	0.000608	6.077985	2.059277	-0.000243
1392	1.3840e+02	-15.4311	-97.260656	0.000588	5.875386	1.990635	-0.000235
1393	1.3850e+02	-15.4536	-97.482698	0.000557	5.571487	1.887671	-0.000223
1394	1.3860e+02	-15.4985	-97.737038	0.000638	6.381885	2.162241	-0.000256
1395	1.3870e+02	-15.5434	-97.983303	0.000618	6.179285	2.093598	-0.000248
1396	1.3880e+02	-15.5755	-98.245717	0.000658	6.584484	2.230884	-0.000264
1397	1.3890e+02	-15.6252	-98.443536	0.000496	4.963688	1.681743	-0.000199
1398	1.3900e+02	-15.6589	-98.722099	0.000699	6.989683	2.368169	-0.000280
1399	1.3910e+02	-15.7054	-98.960290	0.000598	5.976686	2.024956	-0.000239
1400	1.3920e+02	-15.7407	-99.162147	0.000506	5.064988	1.716064	-0.000203
1401	1.3930e+02	-15.7808	-99.412449	0.000628	6.280585	2.127920	-0.000252
1402	1.3940e+02	-15.8193	-99.666789	0.000638	6.381885	2.162241	-0.000256
1403	1.3950e+02	-15.8627	-99.929202	0.000658	6.584484	2.230884	-0.000264
1404	1.3960e+02	-15.8979	-100.102799	0.000436	4.355890	1.475815	-0.000174
1405	1.3970e+02	-15.9413	-100.417696	0.000790	7.901381	2.677060	-0.000316
1406	1.3980e+02	-15.9830	-100.659924	0.000608	6.077985	2.059277	-0.000243
1407	1.3990e+02	-16.0263	-100.894078	0.000588	5.875386	1.990635	-0.000235
1408	1.4000e+02	-16.0568	-101.156492	0.000658	6.584484	2.230884	-0.000264
1409	1.4010e+02	-16.1033	-101.394683	0.000598	5.976686	2.024956	-0.000239
1410	1.4020e+02	-16.1402	-101.604614	0.000527	5.267587	1.784707	-0.000211
1411	1.4029e+02	-16.1835	-101.871065	0.000669	6.685784	2.265205	-0.000268
1412	1.4039e+02	-16.2236	-102.101181	0.000577	5.774086	1.956313	-0.000231
1413	1.4049e+02	-16.2541	-102.315150	0.000537	5.368887	1.819028	-0.000215
1414	1.4059e+02	-16.2974	-102.642158	0.000821	8.205280	2.780024	-0.000329
1415	1.4069e+02	-16.3423	-102.872274	0.000577	5.774086	1.956313	-0.000231
1416	1.4079e+02	-16.3808	-103.102391	0.000577	5.774086	1.956313	-0.000231
1417	1.4089e+02	-16.4209	-103.360768	0.000648	6.483184	2.196562	-0.000260
1418	1.4099e+02	-16.4578	-103.582810	0.000557	5.571487	1.887671	-0.000223
1419	1.4109e+02	-16.4963	-103.837150	0.000638	6.381885	2.162241	-0.000256
1420	1.4119e+02	-16.5380	-104.091489	0.000638	6.381885	2.162241	-0.000256
1421	1.4129e+02	-16.5830	-104.341792	0.000628	6.280585	2.127920	-0.000252
1422	1.4139e+02	-16.6134	-104.604206	0.000658	6.584484	2.230884	-0.000264
1423	1.4149e+02	-16.6455	-104.890842	0.000719	7.192283	2.436811	-0.000288
1424	1.4159e+02	-16.7033	-105.096736	0.000517	5.166288	1.750386	-0.000207
1425	1.4169e+02	-16.7402	-105.334927	0.000598	5.976686	2.024956	-0.000239
1426	1.4179e+02	-16.7963	-105.617527	0.000709	7.090983	2.402490	-0.000284
1427	1.4189e+02	-16.8268	-105.875903	0.000648	6.483184	2.196562	-0.000260
1428	1.4199e+02	-16.8525	-106.118131	0.000608	6.077985	2.059277	-0.000243
1429	1.4209e+02	-16.9022	-106.376508	0.000648	6.483184	2.196562	-0.000260
1430	1.4219e+02	-16.9343	-106.630848	0.000638	6.381885	2.162241	-0.000256
1431	1.4228e+02	-16.9808	-106.913447	0.000709	7.090983	2.402490	-0.000284
1432	1.4238e+02	-17.0129	-107.163750	0.000628	6.280585	2.127920	-0.000252
1433	1.4248e+02	-17.0546	-107.426163	0.000658	6.584484	2.230884	-0.000264
1434	1.4258e+02	-17.0931	-107.684540	0.000648	6.483184	2.196562	-0.000260
1435	1.4268e+02	-17.1348	-107.934843	0.000628	6.280585	2.127920	-0.000252
1436	1.4278e+02	-17.1845	-108.144774	0.000527	5.267587	1.784707	-0.000211
1437	1.4288e+02	-17.2166	-108.435447	0.000729	7.293582	2.471133	-0.000292
1438	1.4298e+02	-17.2487	-108.661527	0.000567	5.672786	1.921992	-0.000227
1439	1.4308e+02	-17.2888	-108.980461	0.000800	8.002681	2.711382	-0.000321
1440	1.4318e+02	-17.3418	-109.194429	0.000537	5.368887	1.819028	-0.000215
1441	1.4328e+02	-17.3722	-109.481066	0.000719	7.192283	2.436811	-0.000288
1442	1.4338e+02	-17.4172	-109.751554	0.000679	6.787084	2.299526	-0.000272
1443	1.4348e+02	-17.4637	-109.989745	0.000598	5.976686	2.024956	-0.000239
1444	1.4358e+02	-17.4893	-110.236010	0.000618	6.179285	2.093598	-0.000248
1445	1.4368e+02	-17.5423	-110.530721	0.000739	7.394882	2.505454	-0.000296
1446	1.4378e+02	-17.5776	-110.785060	0.000638	6.381885	2.162241	-0.000256
1447	1.4388e+02	-17.6225	-111.043437	0.000648	6.483184	2.196562	-0.000260
1448	1.4398e+02	-17.6562	-111.346222	0.000760	7.597482	2.574096	-0.000304
1449	1.4408e+02	-17.6995	-111.620747	0.000689	6.888383	2.333847	-0.000276
1450	1.4418e+02	-17.7348	-111.867013	0.000618	6.179285	2.093598	-0.000248
1451	1.4428e+02	-17.7765	-112.157687	0.000729	7.293582	2.471133	-0.000292
1452	1.4437e+02	-17.8118	-112.436249	0.000699	6.989683	2.368169	-0.000280
1453	1.4447e+02	-17.8615	-112.670403	0.000588	5.875386	1.990635	-0.000235
1454	1.4457e+02	-17.8888	-112.961077	0.000729	7.293582	2.471133	-0.000292
1455	1.4467e+02	-17.9305	-113.263862	0.000760	7.597482	2.574096	-0.000304
1456	1.4477e+02	-17.9754	-113.514164	0.000628	6.280585	2.127920	-0.000252
1457	1.4487e+02	-18.0155	-113.796764	0.000709	7.090983	2.402490	-0.000284
1458	1.4497e+02	-18.0524	-114.083400	0.000719	7.192283	2.436811	-0.000288
1459	1.4507e+02	-18.0974	-114.353888	0.000679	6.787084	2.299526	-0.000272
1460	1.4517e+02	-18.1310	-114.648599	0.000739	7.394882	2.505454	-0.000296
1461	1.4527e+02	-18.1776	-114.906976	0.000648	6.483184	2.196562	-0.000260
1462	1.4537e+02	-18.2113	-115.193613	0.000719	7.192283	2.436811	-0.000288
1463	1.4547e+02	-18.2514	-115.447952	0.000638	6.381885	2.162241	-0.000256
1464	1.4557e+02	-18.2947	-115.791109	0.000861	8.610479	2.917309	-0.000345
1465	1.4567e+02	-18.3300	-116.021225	0.000577	5.774086	1.956313	-0.000231
1466	1.4577e+02	-18.3685	-116.352271	0.000831	8.306580	2.814345	-0.000333
1467	1.4587e+02	-18.4086	-116.646981	0.000739	7.394882	2.505454	-0.000296
1468	1.4597e+02	-18.4503	-116.945729	0.000750	7.496182	2.539775	-0.000300
1469	1.4607e+02	-18.4920	-117.200069	0.000638	6.381885	2.162241	-0.000256
1470	1.4617e+02	-18.5321	-117.478631	0.000699	6.989683	2.368169	-0.000280
1471	1.4626e+02	-18.5690	-117.785454	0.000770	7.698781	2.608418	-0.000308
1472	1.4636e+02	-18.6139	-118.031719	0.000618	6.179285	2.093598	-0.000248
1473	1.4646e+02	-18.6476	-118.338541	0.000770	7.698781	2.608418	-0.000308
1474	1.4656e+02	-18.6941	-118.641327	0.000760	7.597482	2.574096	-0.000304
1475	1.4666e+02	-18.7214	-118.911815	0.000679	6.787084	2.299526	-0.000272
1476	1.4676e+02	-18.7647	-119.222674	0.000780	7.800081	2.642739	-0.000312
1477	1.4686e+02	-18.8128	-119.485088	0.000658	6.584484	2.230884	-0.000264
1478	1.4696e+02	-18.8545	-119.787873	0.000760	7.597482	2.574096	-0.000304
1479	1.4706e+02	-18.8866	-120.102770	0.000790	7.901381	2.677060	-0.000316
1480	1.4716e+02	-18.9348	-120.417666	0.000790	7.901381	2.677060	-0.000316
1481	1.4726e+02	-18.9733	-120.700266	0.000709	7.090983	2.402490	-0.000284
1482	1.4736e+02	-19.0070	-121.011125	0.000780	7.800081	2.642739	-0.000312
1483	1.4746e+02	-19.0406	-121.285650	0.000689	6.888383	2.333847	-0.000276
1484	1.4756e+02	-19.0872	-121.608621	0.000810	8.103981	2.745703	-0.000325
1485	1.4766e+02	-19.1321	-121.923518	0.000790	7.901381	2.677060	-0.000316
1486	1.4776e+02	-19.1706	-122.278786	0.000891	8.914379	3.020273	-0.000357
1487	1.4786e+02	-19.2059	-122.508903	0.000577	5.774086	1.956313	-0.000231
1488	1.4796e+02	-19.2460	-122.912616	0.001013	10.129976	3.432129	-0.000406
1489	1.4806e+02	-19.2925	-123.175030	0.000658	6.584484	2.230884	-0.000264
1490	1.4816e+02	-19.3230	-123.502038	0.000821	8.205280	2.780024	-0.000329
1491	1.4825e+02	-19.3647	-123.816935	0.000790	7.901381	2.677060	-0.000316
1492	1.4835e+02	-19.4096	-124.095497	0.000699	6.989683	2.368169	-0.000280
1493	1.4845e+02	-19.4497	-124.454802	0.000902	9.015678	3.054595	-0.000361
1494	1.4855e+02	-19.4866	-124.729327	0.000689	6.888383	2.333847	-0.000276
1495	1.4865e+02	-19.5347	-125.060372	0.000831	8.306580	2.814345	-0.000333
1496	1.4875e+02	-19.5540	-125.371232	0.000780	7.800081	2.642739	-0.000312
1497	1.4885e+02	-19.6117	-125.750723	0.000952	9.522177	3.226201	-0.000381
1498	1.4895e+02	-19.6438	-126.037359	0.000719	7.192283	2.436811	-0.000288
1499	1.4905e+02	-19.6839	-126.388590	0.000881	8.813079	2.985952	-0.000353
1500	1.4915e+02	-19.7144	-126.687338	0.000750	7.496182	2.539775	-0.000300
1501	1.4925e+02	-19.7706	-127.054717	0.000922	9.218278	3.123237	-0.000369
1502	1.4935e+02	-19.7978	-127.381725	0.000821	8.205280	2.780024	-0.000329
1503	1.4945e+02	-19.8460	-127.680473	0.000750	7.496182	2.539775	-0.000300
1504	1.4955e+02	-19.8764	-128.047853	0.000922	9.218278	3.123237	-0.000369
1505	1.4965e+02	-19.9214	-128.403121	0.000891	8.914379	3.020273	-0.000357
1506	1.4975e+02	-19.9663	-128.701869	0.000750	7.496182	2.539775	-0.000300
1507	1.4985e+02	-20.0112	-129.036951	0.000841	8.407880	2.848667	-0.000337
1508	1.4995e+02	-19.9663	-129.085397	-0.000122	-1.215597	-0.411855	-0.000049
1509	1.5005e+02	-19.9198	-129.089434	-0.000010	-0.101300	-0.034321	-0.000004
1510	1.5015e+02	-19.8797	-129.089434	0.000000	0.000000	0.000000	0.000000
1511	1.5025e+02	-19.8412	-129.089434	0.000000	0.000000	0.000000	0.000000
1512	1.5034e+02	-19.8059	-129.065211	0.000061	0.607799	0.205928	0.000024
1513	1.5044e+02	-19.7609	-129.089434	-0.000061	-0.607799	-0.205928	-0.000024
1514	1.5054e+02	-19.7273	-129.045025	0.000111	1.114297	0.377534	0.000045
1515	1.5064e+02	-19.6871	-129.000617	0.000111	1.114297	0.377534	0.000045
1516	1.5074e+02	-19.6438	-128.988505	0.000030	0.303899	0.102964	0.000012
1517	1.5084e+02	-19.6053	-128.944097	0.000111	1.114297	0.377534	0.000045
1518	1.5094e+02	-19.5668	-128.879503	0.000162	1.620796	0.549141	0.000065
1519	1.5104e+02	-19.5267	-128.822983	0.000142	1.418197	0.480498	0.000057
1520	1.5114e+02	-19.4834	-128.746277	0.000192	1.924695	0.652104	0.000077
1521	1.5124e+02	-19.4417	-128.701869	0.000111	1.114297	0.377534	0.000045
1522	1.5134e+02	-19.4128	-128.633237	0.000172	1.722096	0.583462	0.000069
1523	1.5144e+02	-19.3743	-128.560569	0.000182	1.823396	0.617783	0.000073
1524	1.5154e+02	-19.3246	-128.479826	0.000203	2.025995	0.686426	0.000081
1525	1.5164e+02	-19.2973	-128.415232	0.000162	1.620796	0.549141	0.000065
1526	1.5174e+02	-19.2476	-128.354675	0.000152	1.519496	0.514819	0.000061
1527	1.5184e+02	-19.2107	-128.286044	0.000172	1.722096	0.583462	0.000069
1528	1.5194e+02	-19.1722	-128.221450	0.000162	1.620796	0.549141	0.000065
1529	1.5204e+02	-19.1321	-128.100336	0.000304	3.038993	1.029639	0.000122
1530	1.5214e+02	-19.0920	-128.035741	0.000162	1.620796	0.549141	0.000065
1531	1.5224e+02	-19.0599	-127.959036	0.000192	1.924695	0.652104	0.000077
1532	1.5233e+02	-19.0150	-127.829847	0.000324	3.241592	1.098281	0.000130
1533	1.5243e+02	-18.9701	-127.761216	0.000172	1.722096	0.583462	0.000069
1534	1.5253e+02	-18.9299	-127.632028	0.000324	3.241592	1.098281	0.000130
1535	1.5263e+02	-18.8834	-127.547248	0.000213	2.127295	0.720747	0.000085
1536	1.5273e+02	-18.8529	-127.450357	0.000243	2.431194	0.823711	0.000097
1537	1.5283e+02	-18.8160	-127.353465	0.000243	2.431194	0.823711	0.000097
1538	1.5293e+02	-18.7679	-127.196017	0.000395	3.950691	1.338530	0.000158
1539	1.5303e+02	-18.7310	-127.091052	0.000263	2.633794	0.892353	0.000105
1540	1.5313e+02	-18.6797	-126.986086	0.000263	2.633794	0.892353	0.000105
1541	1.5323e+02	-18.6524	-126.901306	0.000213	2.127295	0.720747	0.000085
1542	1.5333e+02	-18.6059	-126.784229	0.000294	2.937693	0.995317	0.000118
1543	1.5343e+02	-18.5754	-126.618707	0.000415	4.153290	1.407173	0.000166
1544	1.5353e+02	-18.5337	-126.525853	0.000233	2.329894	0.789390	0.000093
1545	1.5363e+02	-18.4888	-126.412813	0.000284	2.836393	0.960996	0.000114
1546	1.5373e+02	-18.4519	-126.299773	0.000284	2.836393	0.960996	0.000114
1547	1.5383e+02	-18.4150	-126.162510	0.000344	3.444192	1.166924	0.000138
1548	1.5393e+02	-18.3749	-126.045433	0.000294	2.937693	0.995317	0.000118
1549	1.5403e+02	-18.3300	-125.912208	0.000334	3.342892	1.132602	0.000134
1550	1.5413e+02	-18.2931	-125.795131	0.000294	2.937693	0.995317	0.000118
1551	1.5422e+02	-18.2546	-125.690166	0.000263	2.633794	0.892353	0.000105
1552	1.5432e+02	-18.2113	-125.597311	0.000233	2.329894	0.789390	0.000093
1553	1.5442e+02	-18.1792	-125.415640	0.000456	4.558489	1.544458	0.000183
1554	1.5452e+02	-18.1230	-125.302600	0.000284	2.836393	0.960996	0.000114
1555	1.5462e+02	-18.0893	-125.177449	0.000314	3.140292	1.063960	0.000126
1556	1.5472e+02	-18.0524	-125.032112	0.000365	3.646791	1.235566	0.000146
1557	1.5482e+02	-18.0187	-124.931184	0.000253	2.532494	0.858032	0.000101
1558	1.5492e+02	-17.9770	-124.777773	0.000385	3.849391	1.304209	0.000154
1559	1.5502e+02	-17.9273	-124.648584	0.000324	3.241592	1.098281	0.000130
1560	1.5512e+02	-17.8904	-124.511322	0.000344	3.444192	1.166924	0.000138
1561	1.5522e+02	-17.8535	-124.406356	0.000263	2.633794	0.892353	0.000105
1562	1.5532e+02	-17.8150	-124.301391	0.000263	2.633794	0.892353	0.000105
1563	1.5542e+02	-17.7717	-124.147980	0.000385	3.849391	1.304209	0.000154
1564	1.5552e+02	-17.7348	-123.990531	0.000395	3.950691	1.338530	0.000158
1565	1.5562e+02	-17.6963	-123.873454	0.000294	2.937693	0.995317	0.000118
1566	1.5572e+02	-17.6514	-123.732155	0.000355	3.545491	1.201245	0.000142
1567	1.5582e+02	-17.6113	-123.574706	0.000395	3.950691	1.338530	0.000158
1568	1.5592e+02	-17.5776	-123.449555	0.000314	3.140292	1.063960	0.000126
1569	1.5602e+02	-17.5343	-123.263847	0.000466	4.659789	1.578779	0.000187
1570	1.5612e+02	-17.4877	-123.134659	0.000324	3.241592	1.098281	0.000130
1571	1.5622e+02	-17.4524	-122.993359	0.000355	3.545491	1.201245	0.000142
1572	1.5631e+02	-17.4220	-122.872245	0.000304	3.038993	1.029639	0.000122
1573	1.5641e+02	-17.3754	-122.694611	0.000446	4.457189	1.510137	0.000179
1574	1.5651e+02	-17.3305	-122.585608	0.000274	2.735093	0.926675	0.000110
1575	1.5661e+02	-17.3000	-122.452383	0.000334	3.342892	1.132602	0.000134
1576	1.5671e+02	-17.2583	-122.278786	0.000436	4.355890	1.475815	0.000174
1577	1.5681e+02	-17.2198	-122.125375	0.000385	3.849391	1.304209	0.000154
1578	1.5691e+02	-17.1701	-121.980038	0.000365	3.646791	1.235566	0.000146
1579	1.5701e+02	-17.1348	-121.858924	0.000304	3.038993	1.029639	0.000122
1580	1.5711e+02	-17.0979	-121.697438	0.000405	4.051990	1.372851	0.000162
1581	1.5721e+02	-17.0610	-121.572287	0.000314	3.140292	1.063960	0.000126
1582	1.5731e+02	-17.0097	-121.398690	0.000436	4.355890	1.475815	0.000174
1583	1.5741e+02	-16.9808	-121.261428	0.000344	3.444192	1.166924	0.000138
1584	1.5751e+02	-16.9391	-121.095905	0.000415	4.153290	1.407173	0.000166
1585	1.5761e+02	-16.8974	-120.934420	0.000405	4.051990	1.372851	0.000162
1586	1.5771e+02	-16.8541	-120.772934	0.000405	4.051990	1.372851	0.000162
1587	1.5781e+02	-16.8124	-120.647783	0.000314	3.140292	1.063960	0.000126
1588	1.5791e+02	-16.7690	-120.445926	0.000506	5.064988	1.716064	0.000203
1589	1.5801e+02	-16.7434	-120.328849	0.000294	2.937693	0.995317	0.000118
1590	1.5811e+02	-16.7001	-120.171401	0.000395	3.950691	1.338530	0.000158
1591	1.5821e+02	-16.6567	-120.005878	0.000415	4.153290	1.407173	0.000166
1592	1.5830e+02	-16.6166	-119.880727	0.000314	3.140292	1.063960	0.000126
1593	1.5840e+02	-16.5749	-119.731353	0.000375	3.748091	1.269888	0.000150
1594	1.5850e+02	-16.5509	-119.581979	0.000375	3.748091	1.269888	0.000150
1595	1.5860e+02	-16.4947	-119.384159	0.000496	4.963688	1.681743	0.000199
1596	1.5870e+02	-16.4578	-119.226711	0.000395	3.950691	1.338530	0.000158
1597	1.5880e+02	-16.4257	-119.109634	0.000294	2.937693	0.995317	0.000118
1598	1.5890e+02	-16.3792	-118.867406	0.000608	6.077985	2.059277	0.000243
1599	1.5900e+02	-16.3423	-118.754366	0.000284	2.836393	0.960996	0.000114
1600	1.5910e+02	-16.2974	-118.645364	0.000274	2.735093	0.926675	0.000110
1601	1.5920e+02	-16.2637	-118.407173	0.000598	5.976686	2.024956	0.000239
1602	1.5930e+02	-16.2236	-118.302207	0.000263	2.633794	0.892353	0.000105
1603	1.5940e+02	-16.1819	-118.116499	0.000466	4.659789	1.578779	0.000187
1604	1.5950e+02	-16.1354	-118.003459	0.000284	2.836393	0.960996	0.000114
1605	1.5960e+02	-16.1049	-117.809677	0.000486	4.862388	1.647422	0.000195
1606	1.5970e+02	-16.0616	-117.644154	0.000415	4.153290	1.407173	0.000166
1607	1.5980e+02	-16.0199	-117.498817	0.000365	3.646791	1.235566	0.000146
1608	1.5990e+02	-15.9814	-117.325220	0.000436	4.355890	1.475815	0.000174
1609	1.6000e+02	-15.9477	-117.175846	0.000375	3.748091	1.269888	0.000150
1610	1.6010e+02	-15.9060	-116.982064	0.000486	4.862388	1.647422	0.000195
1611	1.6019e+02	-15.8627	-116.832690	0.000375	3.748091	1.269888	0.000150
1612	1.6029e+02	-15.8209	-116.675241	0.000395	3.950691	1.338530	0.000158
1613	1.6039e+02	-15.7824	-116.521830	0.000385	3.849391	1.304209	0.000154
1614	1.6049e+02	-15.7407	-116.336122	0.000466	4.659789	1.578779	0.000187
1615	1.6059e+02	-15.7038	-116.174637	0.000405	4.051990	1.372851	0.000162
1616	1.6069e+02	-15.6637	-116.025263	0.000375	3.748091	1.269888	0.000150
1617	1.6079e+02	-15.6284	-115.863777	0.000405	4.051990	1.372851	0.000162
1618	1.6089e+02	-15.5739	-115.698255	0.000415	4.153290	1.407173	0.000166
1619	1.6099e+02	-15.5450	-115.512546	0.000466	4.659789	1.578779	0.000187
1620	1.6109e+02	-15.5017	-115.379321	0.000334	3.342892	1.132602	0.000134
1621	1.6119e+02	-15.4584	-115.221873	0.000395	3.950691	1.338530	0.000158
1622	1.6129e+02	-15.4231	-115.064424	0.000395	3.950691	1.338530	0.000158
1623	1.6139e+02	-15.3878	-114.898902	0.000415	4.153290	1.407173	0.000166
1624	1.6149e+02	-15.3509	-114.713193	0.000466	4.659789	1.578779	0.000187
1625	1.6159e+02	-15.3108	-114.527485	0.000466	4.659789	1.578779	0.000187
1626	1.6169e+02	-15.2563	-114.370037	0.000395	3.950691	1.338530	0.000158
1627	1.6179e+02	-15.2210	-114.204514	0.000415	4.153290	1.407173	0.000166
1628	1.6189e+02	-15.1937	-114.026880	0.000446	4.457189	1.510137	0.000179
1629	1.6199e+02	-15.1456	-113.877506	0.000375	3.748091	1.269888	0.000150
1630	1.6209e+02	-15.0958	-113.675650	0.000506	5.064988	1.716064	0.000203
1631	1.6219e+02	-15.0605	-113.526276	0.000375	3.748091	1.269888	0.000150
1632	1.6228e+02	-15.0236	-113.380939	0.000365	3.646791	1.235566	0.000146
1633	1.6238e+02	-14.9835	-113.162933	0.000547	5.470187	1.853349	0.000219
1634	1.6248e+02	-14.9466	-113.009522	0.000385	3.849391	1.304209	0.000154
1635	1.6258e+02	-14.9081	-112.860148	0.000375	3.748091	1.269888	0.000150
1636	1.6268e+02	-14.8680	-112.694626	0.000415	4.153290	1.407173	0.000166
1637	1.6278e+02	-14.8311	-112.492769	0.000506	5.064988	1.716064	0.000203
1638	1.6288e+02	-14.7926	-112.282838	0.000527	5.267587	1.784707	0.000211
1639	1.6298e+02	-14.7429	-112.085018	0.000496	4.963688	1.681743	0.000199
1640	1.6308e+02	-14.7172	-111.971978	0.000284	2.836393	0.960996	0.000114
1641	1.6318e+02	-14.6627	-111.798381	0.000436	4.355890	1.475815	0.000174
1642	1.6328e+02	-14.6226	-111.616710	0.000456	4.558489	1.544458	0.000183
1643	1.6338e+02	-14.5937	-111.435039	0.000456	4.558489	1.544458	0.000183
1644	1.6348e+02	-14.5504	-111.277591	0.000395	3.950691	1.338530	0.000158
1645	1.6358e+02	-14.5055	-111.075734	0.000506	5.064988	1.716064	0.000203
1646	1.6368e+02	-14.4686	-110.926360	0.000375	3.748091	1.269888	0.000150
1647	1.6378e+02	-14.4237	-110.772949	0.000385	3.849391	1.304209	0.000154
1648	1.6388e+02	-14.3852	-110.550906	0.000557	5.571487	1.887671	0.000223
1649	1.6398e+02	-14.3483	-110.349050	0.000506	5.064988	1.716064	0.000203
1650	1.6408e+02	-14.3178	-110.236010	0.000284	2.836393	0.960996	0.000114
1651	1.6418e+02	-14.2680	-110.042227	0.000486	4.862388	1.647422	0.000195
1652	1.6427e+02	-14.2231	-109.844408	0.000496	4.963688	1.681743	0.000199
1653	1.6437e+02	-14.1846	-109.662737	0.000456	4.558489	1.544458	0.000183
1654	1.6447e+02	-14.1590	-109.529511	0.000334	3.342892	1.132602	0.000134
1655	1.6457e+02	-14.1060	-109.327654	0.000506	5.064988	1.716064	0.000203
1656	1.6467e+02	-14.0659	-109.145983	0.000456	4.558489	1.544458	0.000183
1657	1.6477e+02	-14.0258	-108.952201	0.000486	4.862388	1.647422	0.000195
1658	1.6487e+02	-13.9825	-108.802827	0.000375	3.748091	1.269888	0.000150
1659	1.6497e+02	-13.9600	-108.621156	0.000456	4.558489	1.544458	0.000183
1660	1.6507e+02	-13.9103	-108.407187	0.000537	5.368887	1.819028	0.000215
1661	1.6517e+02	-13.8702	-108.261851	0.000365	3.646791	1.235566	0.000146
1662	1.6527e+02	-13.8269	-108.084217	0.000446	4.457189	1.510137	0.000179
1663	1.6537e+02	-13.7900	-107.890434	0.000486	4.862388	1.647422	0.000195
1664	1.6547e+02	-13.7467	-107.696652	0.000486	4.862388	1.647422	0.000195
1665	1.6557e+02	-13.7001	-107.551315	0.000365	3.646791	1.235566	0.000146
1666	1.6567e+02	-13.6649	-107.361569	0.000476	4.761089	1.613100	0.000191
1667	1.6577e+02	-13.6296	-107.163750	0.000496	4.963688	1.681743	0.000199
1668	1.6587e+02	-13.5911	-106.961893	0.000506	5.064988	1.716064	0.000203
1669	1.6597e+02	-13.5542	-106.840779	0.000304	3.038993	1.029639	0.000122
1670	1.6607e+02	-13.5157	-106.578365	0.000658	6.584484	2.230884	0.000264
1671	1.6616e+02	-13.4707	-106.441102	0.000344	3.444192	1.166924	0.000138
1672	1.6626e+02	-13.4274	-106.231171	0.000527	5.267587	1.784707	0.000211
1673	1.6636e+02	-13.3921	-106.097946	0.000334	3.342892	1.132602	0.000134
1674	1.6646e+02	-13.3536	-105.867829	0.000577	5.774086	1.956313	0.000231
1675	1.6656e+02	-13.3087	-105.706344	0.000405	4.051990	1.372851	0.000162
1676	1.6666e+02	-13.2702	-105.492375	0.000537	5.368887	1.819028	0.000215
1677	1.6676e+02	-13.2317	-105.330890	0.000405	4.051990	1.372851	0.000162
1678	1.6686e+02	-13.1964	-105.124996	0.000517	5.166288	1.750386	0.000207
1679	1.6696e+02	-13.1515	-104.963511	0.000405	4.051990	1.372851	0.000162
1680	1.6706e+02	-13.1130	-104.814137	0.000375	3.748091	1.269888	0.000150
1681	1.6716e+02	-13.0713	-104.600168	0.000537	5.368887	1.819028	0.000215
1682	1.6726e+02	-13.0392	-104.374089	0.000567	5.672786	1.921992	0.000227
1683	1.6736e+02	-12.9895	-104.204529	0.000425	4.254590	1.441494	0.000170
1684	1.6746e+02	-12.9462	-103.990561	0.000537	5.368887	1.819028	0.000215
1685	1.6756e+02	-12.9173	-103.812927	0.000446	4.457189	1.510137	0.000179
1686	1.6766e+02	-12.8756	-103.667590	0.000365	3.646791	1.235566	0.000146
1687	1.6776e+02	-12.8355	-103.449585	0.000547	5.470187	1.853349	0.000219
1688	1.6786e+02	-12.7986	-103.275988	0.000436	4.355890	1.475815	0.000174
1689	1.6796e+02	-12.7633	-103.102391	0.000436	4.355890	1.475815	0.000174
1690	1.6806e+02	-12.7087	-102.924757	0.000446	4.457189	1.510137	0.000179
1691	1.6816e+02	-12.6734	-102.714826	0.000527	5.267587	1.784707	0.000211
1692	1.6825e+02	-12.6365	-102.496821	0.000547	5.470187	1.853349	0.000219
1693	1.6835e+02	-12.5932	-102.355521	0.000355	3.545491	1.201245	0.000142
1694	1.6845e+02	-12.5547	-102.181924	0.000436	4.355890	1.475815	0.000174
1695	1.6855e+02	-12.5194	-101.984104	0.000496	4.963688	1.681743	0.000199
1696	1.6865e+02	-12.4697	-101.806470	0.000446	4.457189	1.510137	0.000179
1697	1.6875e+02	-12.4360	-101.604614	0.000506	5.064988	1.716064	0.000203
1698	1.6885e+02	-12.3975	-101.398720	0.000517	5.166288	1.750386	0.000207
1699	1.6895e+02	-12.3590	-101.196863	0.000506	5.064988	1.716064	0.000203
1700	1.6905e+02	-12.3125	-100.999043	0.000496	4.963688	1.681743	0.000199
1701	1.6915e+02	-12.2724	-100.813335	0.000466	4.659789	1.578779	0.000187
1702	1.6925e+02	-12.2387	-100.631664	0.000456	4.558489	1.544458	0.000183
1703	1.6935e+02	-12.2002	-100.437881	0.000486	4.862388	1.647422	0.000195
1704	1.6945e+02	-12.1489	-100.236025	0.000506	5.064988	1.716064	0.000203
1705	1.6955e+02	-12.1152	-100.034168	0.000506	5.064988	1.716064	0.000203
1706	1.6965e+02	-12.0783	-99.852497	0.000456	4.558489	1.544458	0.000183
1707	1.6975e+02	-12.0430	-99.678900	0.000436	4.355890	1.475815	0.000174
1708	1.6985e+02	-11.9997	-99.452820	0.000567	5.672786	1.921992	0.000227
1709	1.6995e+02	-11.9563	-99.279224	0.000436	4.355890	1.475815	0.000174
1710	1.7005e+02	-11.9114	-99.089478	0.000476	4.761089	1.613100	0.000191
1711	1.7015e+02	-11.8681	-98.839176	0.000628	6.280585	2.127920	0.000252
1712	1.7024e+02	-11.8489	-98.701913	0.000344	3.444192	1.166924	0.000138
1713	1.7034e+02	-11.7943	-98.479871	0.000557	5.571487	1.887671	0.000223
1714	1.7044e+02	-11.7622	-98.233605	0.000618	6.179285	2.093598	0.000248
1715	1.7054e+02	-11.7157	-98.088268	0.000365	3.646791	1.235566	0.000146
1716	1.7064e+02	-11.6740	-97.902560	0.000466	4.659789	1.578779	0.000187
1717	1.7074e+02	-11.6355	-97.696666	0.000517	5.166288	1.750386	0.000207
1718	1.7084e+02	-11.6050	-97.506921	0.000476	4.761089	1.613100	0.000191
1719	1.7094e+02	-11.5585	-97.313138	0.000486	4.862388	1.647422	0.000195
1720	1.7104e+02	-11.5216	-97.099170	0.000537	5.368887	1.819028	0.000215
1721	1.7114e+02	-11.4831	-96.905388	0.000486	4.862388	1.647422	0.000195
1722	1.7124e+02	-11.4366	-96.719679	0.000466	4.659789	1.578779	0.000187
1723	1.7134e+02	-11.3901	-96.485526	0.000588	5.875386	1.990635	0.000235
1724	1.7144e+02	-11.3660	-96.299817	0.000466	4.659789	1.578779	0.000187
1725	1.7154e+02	-11.3130	-96.122183	0.000446	4.457189	1.510137	0.000179
1726	1.7164e+02	-11.2842	-95.916289	0.000517	5.166288	1.750386	0.000207
1727	1.7174e+02	-11.2360	-95.722507	0.000486	4.862388	1.647422	0.000195
1728	1.7184e+02	-11.2040	-95.504502	0.000547	5.470187	1.853349	0.000219
1729	1.7194e+02	-11.1558	-95.351090	0.000385	3.849391	1.304209	0.000154
1730	1.7204e+02	-11.1205	-95.076565	0.000689	6.888383	2.333847	0.000276
1731	1.7213e+02	-11.0740	-94.943340	0.000334	3.342892	1.132602	0.000134
1732	1.7223e+02	-11.0355	-94.765706	0.000446	4.457189	1.510137	0.000179
1733	1.7233e+02	-11.0002	-94.515403	0.000628	6.280585	2.127920	0.000252
1734	1.7243e+02	-10.9649	-94.325658	0.000476	4.761089	1.613100	0.000191
1735	1.7253e+02	-10.9232	-94.180321	0.000365	3.646791	1.235566	0.000146
1736	1.7263e+02	-10.8799	-93.917907	0.000658	6.584484	2.230884	0.000264
1737	1.7273e+02	-10.8446	-93.707976	0.000527	5.267587	1.784707	0.000211
1738	1.7283e+02	-10.7965	-93.530342	0.000446	4.457189	1.510137	0.000179
1739	1.7293e+02	-10.7564	-93.304263	0.000567	5.672786	1.921992	0.000227
1740	1.7303e+02	-10.7179	-93.094332	0.000527	5.267587	1.784707	0.000211
1741	1.7313e+02	-10.6858	-92.920735	0.000436	4.355890	1.475815	0.000174
1742	1.7323e+02	-10.6377	-92.743101	0.000446	4.457189	1.510137	0.000179
1743	1.7333e+02	-10.6056	-92.521058	0.000557	5.571487	1.887671	0.000223
1744	1.7343e+02	-10.5607	-92.307090	0.000537	5.368887	1.819028	0.000215
1745	1.7353e+02	-10.5206	-92.125419	0.000456	4.558489	1.544458	0.000183
1746	1.7363e+02	-10.4837	-91.887228	0.000598	5.976686	2.024956	0.000239
1747	1.7373e+02	-10.4468	-91.689408	0.000496	4.963688	1.681743	0.000199
1748	1.7383e+02	-10.4034	-91.447180	0.000608	6.077985	2.059277	0.000243
1749	1.7393e+02	-10.3569	-91.289732	0.000395	3.950691	1.338530	0.000158
1750	1.7403e+02	-10.3297	-91.059615	0.000577	5.774086	1.956313	0.000231
1751	1.7413e+02	-10.2863	-90.853721	0.000517	5.166288	1.750386	0.000207
1752	1.7422e+02	-10.2414	-90.655902	0.000496	4.963688	1.681743	0.000199
1753	1.7432e+02	-10.1965	-90.466156	0.000476	4.761089	1.613100	0.000191
1754	1.7442e+02	-10.1676	-90.227965	0.000598	5.976686	2.024956	0.000239
1755	1.7452e+02	-10.1259	-89.969588	0.000648	6.483184	2.196562	0.000260
1756	1.7462e+02	-10.0746	-89.804066	0.000415	4.153290	1.407173	0.000166
1757	1.7472e+02	-10.0553	-89.602209	0.000506	5.064988	1.716064	0.000203
1758	1.7482e+02	-10.0008	-89.376130	0.000567	5.672786	1.921992	0.000227
1759	1.7492e+02	-9.9719	-89.182347	0.000486	4.862388	1.647422	0.000195
1760	1.7502e+02	-9.9206	-88.972416	0.000527	5.267587	1.784707	0.000211
1761	1.7512e+02	-9.8949	-88.722114	0.000628	6.280585	2.127920	0.000252
1762	1.7522e+02	-9.8404	-88.532368	0.000476	4.761089	1.613100	0.000191
1763	1.7532e+02	-9.8035	-88.318400	0.000537	5.368887	1.819028	0.000215
1764	1.7542e+02	-9.7650	-88.136729	0.000456	4.558489	1.544458	0.000183
1765	1.7552e+02	-9.7200	-87.926798	0.000527	5.267587	1.784707	0.000211
1766	1.7562e+02	-9.6880	-87.672458	0.000638	6.381885	2.162241	0.000256
1767	1.7572e+02	-9.6430	-87.458490	0.000537	5.368887	1.819028	0.000215
1768	1.7582e+02	-9.6078	-87.276819	0.000456	4.558489	1.544458	0.000183
1769	1.7592e+02	-9.5725	-87.046702	0.000577	5.774086	1.956313	0.000231
1770	1.7602e+02	-9.5227	-86.852920	0.000486	4.862388	1.647422	0.000195
1771	1.7612e+02	-9.4955	-86.610692	0.000608	6.077985	2.059277	0.000243
1772	1.7621e+02	-9.4441	-86.433058	0.000446	4.457189	1.510137	0.000179
1773	1.7631e+02	-9.4024	-86.154495	0.000699	6.989683	2.368169	0.000280
1774	1.7641e+02	-9.3687	-85.988973	0.000415	4.153290	1.407173	0.000166
1775	1.7651e+02	-9.3382	-85.750782	0.000598	5.976686	2.024956	0.000239
1776	1.7661e+02	-9.2917	-85.488368	0.000658	6.584484	2.230884	0.000264
1777	1.7671e+02	-9.2420	-85.326882	0.000405	4.051990	1.372851	0.000162
1778	1.7681e+02	-9.2067	-85.088691	0.000598	5.976686	2.024956	0.000239
1779	1.7691e+02	-9.1730	-84.874723	0.000537	5.368887	1.819028	0.000215
1780	1.7701e+02	-9.1233	-84.660755	0.000537	5.368887	1.819028	0.000215
1781	1.7711e+02	-9.0864	-84.450824	0.000527	5.267587	1.784707	0.000211
1782	1.7721e+02	-9.0479	-84.212633	0.000598	5.976686	2.024956	0.000239
1783	1.7731e+02	-9.0094	-84.018850	0.000486	4.862388	1.647422	0.000195
1784	1.7741e+02	-8.9709	-83.764511	0.000638	6.381885	2.162241	0.000256
1785	1.7751e+02	-8.9243	-83.574765	0.000476	4.761089	1.613100	0.000191
1786	1.7761e+02	-8.8923	-83.368872	0.000517	5.166288	1.750386	0.000207
1787	1.7771e+02	-8.8506	-83.126643	0.000608	6.077985	2.059277	0.000243
1788	1.7781e+02	-8.8088	-82.920749	0.000517	5.166288	1.750386	0.000207
1789	1.7791e+02	-8.7735	-82.702744	0.000547	5.470187	1.853349	0.000219
1790	1.7801e+02	-8.7270	-82.512999	0.000476	4.761089	1.613100	0.000191
1791	1.7810e+02	-8.6901	-82.246548	0.000669	6.685784	2.265205	0.000268
1792	1.7820e+02	-8.6484	-82.008357	0.000598	5.976686	2.024956	0.000239
1793	1.7830e+02	-8.6131	-81.826686	0.000456	4.558489	1.544458	0.000183
1794	1.7840e+02	-8.5650	-81.600606	0.000567	5.672786	1.921992	0.000227
1795	1.7850e+02	-8.5329	-81.342229	0.000648	6.483184	2.196562	0.000260
1796	1.7860e+02	-8.4912	-81.132298	0.000527	5.267587	1.784707	0.000211
1797	1.7870e+02	-8.4431	-80.954664	0.000446	4.457189	1.510137	0.000179
1798	1.7880e+02	-8.4190	-80.700325	0.000638	6.381885	2.162241	0.000256
1799	1.7890e+02	-8.3709	-80.417725	0.000709	7.090983	2.402490	0.000284
1800	1.7900e+02	-8.3324	-80.236054	0.000456	4.558489	1.544458	0.000183
1801	1.7910e+02	-8.3019	-79.997863	0.000598	5.976686	2.024956	0.000239
1802	1.7920e+02	-8.2506	-79.755635	0.000608	6.077985	2.059277	0.000243
1803	1.7930e+02	-8.2040	-79.578001	0.000446	4.457189	1.510137	0.000179
1804	1.7940e+02	-8.1720	-79.311550	0.000669	6.685784	2.265205	0.000268
1805	1.7950e+02	-8.1447	-79.081433	0.000577	5.774086	1.956313	0.000231
1806	1.7960e+02	-8.0918	-78.863428	0.000547	5.470187	1.853349	0.000219
1807	1.7970e+02	-8.0532	-78.625237	0.000598	5.976686	2.024956	0.000239
1808	1.7980e+02	-8.0083	-78.431455	0.000486	4.862388	1.647422	0.000195
1809	1.7990e+02	-7.9730	-78.140781	0.000729	7.293582	2.471133	0.000292
1810	1.8000e+02	-7.9345	-77.870293	0.000679	6.787084	2.299526	0.000272
1811	1.8009e+02	-7.8944	-77.664399	0.000517	5.166288	1.750386	0.000207
1812	1.8019e+02	-7.8463	-77.470616	0.000486	4.862388	1.647422	0.000195
1813	1.8029e+02	-7.8094	-77.216277	0.000638	6.381885	2.162241	0.000256
1814	1.8039e+02	-7.7757	-76.974049	0.000608	6.077985	2.059277	0.000243
1815	1.8049e+02	-7.7340	-76.727783	0.000618	6.179285	2.093598	0.000248
1816	1.8059e+02	-7.6923	-76.509778	0.000547	5.470187	1.853349	0.000219
1817	1.8069e+02	-7.6570	-76.275624	0.000588	5.875386	1.990635	0.000235
1818	1.8079e+02	-7.6105	-76.057619	0.000547	5.470187	1.853349	0.000219
1819	1.8089e+02	-7.5656	-75.807316	0.000628	6.280585	2.127920	0.000252
1820	1.8099e+02	-7.5431	-75.605460	0.000506	5.064988	1.716064	0.000203
1821	1.8109e+02	-7.4918	-75.334971	0.000679	6.787084	2.299526	0.000272
1822	1.8119e+02	-7.4517	-75.121003	0.000537	5.368887	1.819028	0.000215
1823	1.8129e+02	-7.4035	-74.858589	0.000658	6.584484	2.230884	0.000264
1824	1.8139e+02	-7.3634	-74.640584	0.000547	5.470187	1.853349	0.000219
1825	1.8149e+02	-7.3410	-74.454876	0.000466	4.659789	1.578779	0.000187
1826	1.8159e+02	-7.2977	-74.192462	0.000658	6.584484	2.230884	0.000264
1827	1.8169e+02	-7.2592	-73.917937	0.000689	6.888383	2.333847	0.000276
1828	1.8179e+02	-7.2078	-73.687820	0.000577	5.774086	1.956313	0.000231
1829	1.8189e+02	-7.1741	-73.417332	0.000679	6.787084	2.299526	0.000272
1830	1.8199e+02	-7.1340	-73.207401	0.000527	5.267587	1.784707	0.000211
1831	1.8209e+02	-7.0939	-72.949024	0.000648	6.483184	2.196562	0.000260
1832	1.8218e+02	-7.0586	-72.751205	0.000496	4.963688	1.681743	0.000199
1833	1.8228e+02	-7.0249	-72.480716	0.000679	6.787084	2.299526	0.000272
1834	1.8238e+02	-6.9704	-72.242525	0.000598	5.976686	2.024956	0.000239
1835	1.8248e+02	-6.9383	-72.008372	0.000588	5.875386	1.990635	0.000235
1836	1.8258e+02	-6.8918	-71.758069	0.000628	6.280585	2.127920	0.000252
1837	1.8268e+02	-6.8581	-71.519878	0.000598	5.976686	2.024956	0.000239
1838	1.8278e+02	-6.8036	-71.289761	0.000577	5.774086	1.956313	0.000231
1839	1.8288e+02	-6.7779	-71.067719	0.000557	5.571487	1.887671	0.000223
1840	1.8298e+02	-6.7362	-70.760897	0.000770	7.698781	2.608418	0.000308
1841	1.8308e+02	-6.6913	-70.534817	0.000567	5.672786	1.921992	0.000227
1842	1.8318e+02	-6.6624	-70.316812	0.000547	5.470187	1.853349	0.000219
1843	1.8328e+02	-6.6191	-70.058435	0.000648	6.483184	2.196562	0.000260
1844	1.8338e+02	-6.5613	-69.824281	0.000588	5.875386	1.990635	0.000235
1845	1.8348e+02	-6.5372	-69.513422	0.000780	7.800081	2.642739	0.000312
1846	1.8358e+02	-6.4907	-69.291379	0.000557	5.571487	1.887671	0.000223
1847	1.8368e+02	-6.4554	-69.061263	0.000577	5.774086	1.956313	0.000231
1848	1.8378e+02	-6.4169	-68.839220	0.000557	5.571487	1.887671	0.000223
1849	1.8388e+02	-6.3816	-68.588918	0.000628	6.280585	2.127920	0.000252
1850	1.8398e+02	-6.3447	-68.334578	0.000638	6.381885	2.162241	0.000256
1851	1.8407e+02	-6.2982	-68.100424	0.000588	5.875386	1.990635	0.000235
1852	1.8417e+02	-6.2597	-67.878382	0.000557	5.571487	1.887671	0.000223
1853	1.8427e+02	-6.2164	-67.571559	0.000770	7.698781	2.608418	0.000308
1854	1.8437e+02	-6.1875	-67.361628	0.000527	5.267587	1.784707	0.000211
1855	1.8447e+02	-6.1442	-67.099215	0.000658	6.584484	2.230884	0.000264
1856	1.8457e+02	-6.1089	-66.881209	0.000547	5.470187	1.853349	0.000219
1857	1.8467e+02	-6.0720	-66.622833	0.000648	6.483184	2.196562	0.000260
1858	1.8477e+02	-6.0239	-66.364456	0.000648	6.483184	2.196562	0.000260
1859	1.8487e+02	-5.9758	-66.065708	0.000750	7.496182	2.539775	0.000300
1860	1.8497e+02	-5.9437	-65.835591	0.000577	5.774086	1.956313	0.000231
1861	1.8507e+02	-5.9020	-65.593363	0.000608	6.077985	2.059277	0.000243
1862	1.8517e+02	-5.8619	-65.359209	0.000588	5.875386	1.990635	0.000235
1863	1.8527e+02	-5.8186	-65.104869	0.000638	6.381885	2.162241	0.000256
1864	1.8537e+02	-5.7865	-64.834381	0.000679	6.787084	2.299526	0.000272
1865	1.8547e+02	-5.7464	-64.563893	0.000679	6.787084	2.299526	0.000272
1866	1.8557e+02	-5.7079	-64.313591	0.000628	6.280585	2.127920	0.000252
1867	1.8567e+02	-5.6613	-64.030991	0.000709	7.090983	2.402490	0.000284
1868	1.8577e+02	-5.6148	-63.804912	0.000567	5.672786	1.921992	0.000227
1869	1.8587e+02	-5.5827	-63.558646	0.000618	6.179285	2.093598	0.000248
1870	1.8597e+02	-5.5378	-63.280084	0.000699	6.989683	2.368169	0.000280
1871	1.8606e+02	-5.5121	-62.989410	0.000729	7.293582	2.471133	0.000292
1872	1.8616e+02	-5.4608	-62.755256	0.000588	5.875386	1.990635	0.000235
1873	1.8626e+02	-5.4271	-62.537251	0.000547	5.470187	1.853349	0.000219
1874	1.8636e+02	-5.3822	-62.198132	0.000851	8.509180	2.882988	0.000341
1875	1.8646e+02	-5.3469	-61.992238	0.000517	5.166288	1.750386	0.000207
1876	1.8656e+02	-5.3084	-61.701564	0.000729	7.293582	2.471133	0.000292
1877	1.8666e+02	-5.2667	-61.455299	0.000618	6.179285	2.093598	0.000248
1878	1.8676e+02	-5.2250	-61.188848	0.000669	6.685784	2.265205	0.000268
1879	1.8686e+02	-5.1801	-60.910285	0.000699	6.989683	2.368169	0.000280
1880	1.8696e+02	-5.1400	-60.639797	0.000679	6.787084	2.299526	0.000272
1881	1.8706e+02	-5.0934	-60.446015	0.000486	4.862388	1.647422	0.000195
1882	1.8716e+02	-5.0630	-60.151304	0.000739	7.394882	2.505454	0.000296
1883	1.8726e+02	-5.0261	-59.836407	0.000790	7.901381	2.677060	0.000316
1884	1.8736e+02	-4.9811	-59.622439	0.000537	5.368887	1.819028	0.000215
1885	1.8746e+02	-4.9394	-59.335803	0.000719	7.192283	2.436811	0.000288
1886	1.8756e+02	-4.9041	-59.097612	0.000598	5.976686	2.024956	0.000239
1887	1.8766e+02	-4.8688	-58.815012	0.000709	7.090983	2.402490	0.000284
1888	1.8776e+02	-4.8223	-58.512227	0.000760	7.597482	2.574096	0.000304
1889	1.8786e+02	-4.7886	-58.253850	0.000648	6.483184	2.196562	0.000260
1890	1.8796e+02	-4.7373	-58.027771	0.000567	5.672786	1.921992	0.000227
1891	1.8806e+02	-4.7180	-57.761320	0.000669	6.685784	2.265205	0.000268
1892	1.8815e+02	-4.6715	-57.478720	0.000709	7.090983	2.402490	0.000284
1893	1.8825e+02	-4.6250	-57.208232	0.000679	6.787084	2.299526	0.000272
1894	1.8835e+02	-4.5801	-56.905447	0.000760	7.597482	2.574096	0.000304
1895	1.8845e+02	-4.5512	-56.683404	0.000557	5.571487	1.887671	0.000223
1896	1.8855e+02	-4.5015	-56.384656	0.000750	7.496182	2.539775	0.000300
1897	1.8865e+02	-4.4694	-56.166651	0.000547	5.470187	1.853349	0.000219
1898	1.8875e+02	-4.4277	-55.855792	0.000780	7.800081	2.642739	0.000312
1899	1.8885e+02	-4.3940	-55.589341	0.000669	6.685784	2.265205	0.000268
1900	1.8895e+02	-4.3539	-55.326927	0.000658	6.584484	2.230884	0.000264
1901	1.8905e+02	-4.3074	-55.016067	0.000780	7.800081	2.642739	0.000312
1902	1.8915e+02	-4.2737	-54.781913	0.000588	5.875386	1.990635	0.000235
1903	1.8925e+02	-4.2239	-54.467017	0.000790	7.901381	2.677060	0.000316
1904	1.8935e+02	-4.1838	-54.240937	0.000567	5.672786	1.921992	0.000227
1905	1.8945e+02	-4.1485	-53.950263	0.000729	7.293582	2.471133	0.000292
1906	1.8955e+02	-4.1116	-53.659590	0.000729	7.293582	2.471133	0.000292
1907	1.8965e+02	-4.0731	-53.397176	0.000658	6.584484	2.230884	0.000264
1908	1.8975e+02	-4.0362	-53.094391	0.000760	7.597482	2.574096	0.000304
1909	1.8985e+02	-3.9881	-52.823903	0.000679	6.787084	2.299526	0.000272
1910	1.8995e+02	-3.9464	-52.545340	0.000699	6.989683	2.368169	0.000280
1911	1.9004e+02	-3.9095	-52.282926	0.000658	6.584484	2.230884	0.000264
1912	1.9014e+02	-3.8710	-52.012438	0.000679	6.787084	2.299526	0.000272
1913	1.9024e+02	-3.8277	-51.721765	0.000729	7.293582	2.471133	0.000292
1914	1.9034e+02	-3.7876	-51.447239	0.000689	6.888383	2.333847	0.000276
1915	1.9044e+02	-3.7395	-51.152528	0.000739	7.394882	2.505454	0.000296
1916	1.9054e+02	-3.7042	-50.857817	0.000739	7.394882	2.505454	0.000296
1917	1.9064e+02	-3.6673	-50.607515	0.000628	6.280585	2.127920	0.000252
1918	1.9074e+02	-3.6240	-50.320878	0.000719	7.192283	2.436811	0.000288
1919	1.9084e+02	-3.5951	-50.005982	0.000790	7.901381	2.677060	0.000316
1920	1.9094e+02	-3.5438	-49.719345	0.000719	7.192283	2.436811	0.000288
1921	1.9104e+02	-3.5165	-49.448857	0.000679	6.787084	2.299526	0.000272
1922	1.9114e+02	-3.4684	-49.170295	0.000699	6.989683	2.368169	0.000280
1923	1.9124e+02	-3.4282	-48.867510	0.000760	7.597482	2.574096	0.000304
1924	1.9134e+02	-3.3881	-48.580873	0.000719	7.192283	2.436811	0.000288
1925	1.9144e+02	-3.3464	-48.278088	0.000760	7.597482	2.574096	0.000304
1926	1.9154e+02	-3.3127	-48.007600	0.000679	6.787084	2.299526	0.000272
1927	1.9164e+02	-3.2807	-47.684629	0.000810	8.103981	2.745703	0.000325
1928	1.9174e+02	-3.2373	-47.470661	0.000537	5.368887	1.819028	0.000215
1929	1.9184e+02	-3.1940	-47.111355	0.000902	9.015678	3.054595	0.000361
1930	1.9194e+02	-3.1555	-46.885276	0.000567	5.672786	1.921992	0.000227
1931	1.9203e+02	-3.1122	-46.554231	0.000831	8.306580	2.814345	0.000333
1932	1.9213e+02	-3.0657	-46.235297	0.000800	8.002681	2.711382	0.000321
1933	1.9223e+02	-3.0256	-45.960772	0.000689	6.888383	2.333847	0.000276
1934	1.9233e+02	-2.9903	-45.682209	0.000699	6.989683	2.368169	0.000280
1935	1.9243e+02	-2.9550	-45.383461	0.000750	7.496182	2.539775	0.000300
1936	1.9253e+02	-2.9117	-45.048379	0.000841	8.407880	2.848667	0.000337
1937	1.9263e+02	-2.8764	-44.798077	0.000628	6.280585	2.127920	0.000252
1938	1.9273e+02	-2.8218	-44.438772	0.000902	9.015678	3.054595	0.000361
1939	1.9283e+02	-2.7962	-44.168284	0.000679	6.787084	2.299526	0.000272
1940	1.9293e+02	-2.7561	-43.861461	0.000770	7.698781	2.608418	0.000308
1941	1.9303e+02	-2.7224	-43.578862	0.000709	7.090983	2.402490	0.000284
1942	1.9313e+02	-2.6694	-43.288188	0.000729	7.293582	2.471133	0.000292
1943	1.9323e+02	-2.6293	-42.949069	0.000851	8.509180	2.882988	0.000341
1944	1.9333e+02	-2.5973	-42.710878	0.000598	5.976686	2.024956	0.000239
1945	1.9343e+02	-2.5507	-42.327350	0.000962	9.623477	3.260522	0.000385
1946	1.9353e+02	-2.5202	-42.068973	0.000648	6.483184	2.196562	0.000260
1947	1.9363e+02	-2.4721	-41.741965	0.000821	8.205280	2.780024	0.000329
1948	1.9373e+02	-2.4336	-41.459365	0.000709	7.090983	2.402490	0.000284
1949	1.9383e+02	-2.3983	-41.164655	0.000739	7.394882	2.505454	0.000296
1950	1.9393e+02	-2.3566	-40.837647	0.000821	8.205280	2.780024	0.000329
1951	1.9403e+02	-2.3101	-40.546973	0.000729	7.293582	2.471133	0.000292
1952	1.9412e+02	-2.2732	-40.280522	0.000669	6.685784	2.265205	0.000268
1953	1.9422e+02	-2.2363	-39.933328	0.000871	8.711779	2.951631	0.000349
1954	1.9432e+02	-2.1994	-39.610357	0.000810	8.103981	2.745703	0.000325
1955	1.9442e+02	-2.1529	-39.303535	0.000770	7.698781	2.608418	0.000308
1956	1.9452e+02	-2.1144	-39.020935	0.000709	7.090983	2.402490	0.000284
1957	1.9462e+02	-2.0791	-38.673742	0.000871	8.711779	2.951631	0.000349
1958	1.9472e+02	-2.0374	-38.346734	0.000821	8.205280	2.780024	0.000329
1959	1.9482e+02	-1.9957	-38.068171	0.000699	6.989683	2.368169	0.000280
1960	1.9492e+02	-1.9524	-37.749238	0.000800	8.002681	2.711382	0.000321
1961	1.9502e+02	-1.9155	-37.450490	0.000750	7.496182	2.539775	0.000300
1962	1.9512e+02	-1.8802	-37.083110	0.000922	9.218278	3.123237	0.000369
1963	1.9522e+02	-1.8352	-36.784362	0.000750	7.496182	2.539775	0.000300
1964	1.9532e+02	-1.7983	-36.425057	0.000902	9.015678	3.054595	0.000361
1965	1.9542e+02	-1.7631	-36.130346	0.000739	7.394882	2.505454	0.000296
1966	1.9552e+02	-1.7181	-35.843710	0.000719	7.192283	2.436811	0.000288
1967	1.9562e+02	-1.6828	-35.540924	0.000760	7.597482	2.574096	0.000304
1968	1.9572e+02	-1.6347	-35.217954	0.000810	8.103981	2.745703	0.000325
1969	1.9582e+02	-1.5946	-34.870760	0.000871	8.711779	2.951631	0.000349
1970	1.9592e+02	-1.5529	-34.515492	0.000891	8.914379	3.020273	0.000357
1971	1.9601e+02	-1.5224	-34.236930	0.000699	6.989683	2.368169	0.000280
1972	1.9611e+02	-1.4823	-33.889736	0.000871	8.711779	2.951631	0.000349
1973	1.9621e+02	-1.4326	-33.530431	0.000902	9.015678	3.054595	0.000361
1974	1.9631e+02	-1.3877	-33.207460	0.000810	8.103981	2.745703	0.000325
1975	1.9641e+02	-1.3508	-32.880452	0.000821	8.205280	2.780024	0.000329
1976	1.9651e+02	-1.3267	-32.585741	0.000739	7.394882	2.505454	0.000296
1977	1.9661e+02	-1.2754	-32.198176	0.000972	9.724777	3.294844	0.000390
1978	1.9671e+02	-1.2337	-31.883279	0.000790	7.901381	2.677060	0.000316
1979	1.9681e+02	-1.1952	-31.564346	0.000800	8.002681	2.711382	0.000321
1980	1.9691e+02	-1.1550	-31.225226	0.000851	8.509180	2.882988	0.000341
1981	1.9701e+02	-1.1262	-30.865921	0.000902	9.015678	3.054595	0.000361
1982	1.9711e+02	-1.0861	-30.514690	0.000881	8.813079	2.985952	0.000353
1983	1.9721e+02	-1.0331	-30.244202	0.000679	6.787084	2.299526	0.000272
1984	1.9731e+02	-0.9994	-29.876823	0.000922	9.218278	3.123237	0.000369
1985	1.9741e+02	-0.9609	-29.525592	0.000881	8.813079	2.985952	0.000353
1986	1.9751e+02	-0.9208	-29.190510	0.000841	8.407880	2.848667	0.000337
1987	1.9761e+02	-0.8887	-28.827168	0.000912	9.116978	3.088916	0.000365
1988	1.9771e+02	-0.8438	-28.520345	0.000770	7.698781	2.608418	0.000308
1989	1.9781e+02	-0.7989	-28.157003	0.000912	9.116978	3.088916	0.000365
1990	1.9791e+02	-0.7588	-27.821921	0.000841	8.407880	2.848667	0.000337
1991	1.9800e+02	-0.7139	-27.466653	0.000891	8.914379	3.020273	0.000357
1992	1.9810e+02	-0.6818	-27.151756	0.000790	7.901381	2.677060	0.000316
1993	1.9820e+02	-0.6369	-26.804563	0.000871	8.711779	2.951631	0.000349
1994	1.9830e+02	-0.6048	-26.425072	0.000952	9.522177	3.226201	0.000381
1995	1.9840e+02	-0.5567	-26.089990	0.000841	8.407880	2.848667	0.000337
1996	1.9850e+02	-0.5230	-25.762982	0.000821	8.205280	2.780024	0.000329
1997	1.9860e+02	-0.4813	-25.347157	0.001043	10.433875	3.535093	0.000418
1998	1.9870e+02	-0.4412	-25.028223	0.000800	8.002681	2.711382	0.000321
1999	1.9880e+02	-0.3995	-24.697178	0.000831	8.306580	2.814345	0.000333
2000	1.9890e+02	-0.3481	-24.321724	0.000942	9.420877	3.191880	0.000377
2001	1.9900e+02	-0.3273	-23.974531	0.000871	8.711779	2.951631	0.000349
2002	1.9910e+02	-0.2775	-23.627337	0.000871	8.711779	2.951631	0.000349
2003	1.9920e+02	-0.2438	-23.255920	0.000932	9.319578	3.157558	0.000373
2004	1.9930e+02	-0.1989	-22.904690	0.000881	8.813079	2.985952	0.000353
2005	1.9940e+02	-0.1684	-22.581719	0.000810	8.103981	2.745703	0.000325
2006	1.9950e+02	-0.1155	-22.190117	0.000983	9.826076	3.329165	0.000394
2007	1.9960e+02	-0.0850	-21.830812	0.000902	9.015678	3.054595	0.000361
2008	1.9970e+02	-0.0433	-21.487655	0.000861	8.610479	2.917309	0.000345
2009	1.9980e+02	0.0064	-21.136424	0.000861	8.610479	2.917309	0.000353

Center data before PMax,+/-Pr and +/-Vc Calc.

PMax (uC/cm2):	1.29e+02
Pr (uC/cm2):	1.28e+01
-Pr (uC/cm2):	-2.11e+01
PLoss (uC/cm2):	-1.54e+01
Vc:	7.26e-01
-Vc:	-1.50e+00
C (Max-Eff) (nF):	6.46e-01
K (Eff):	2.19e+03
Vert. (+/-Pr) Shift (uC/cm2):	-4.18e+00
Horiz. Shift (+/-Vc):	-3.86e-01
Offset (uC/cm2):	5.74e+00

A (Loop Area - uC/cm2·Volts):	2.08e-01



Hysteresis Version: 5.48.1 - Radiant Technologies, Inc., 1999 - 9/12/24

