»»»»»»»»»»»»»»»»»»»»»»»»»»»»»»»»»»»» Hysteresis ««««««««««««««««««««««««««««««««««««
»»»  Executed Version:	5.48.1
»»»  Vision Version:	5.48.4 (R)
»»»  Vision Compiled:	9/18/24
»»»  Driver Version:	5.47.0
»»»  Windows Version:	Windows 8 or 8.1
»»»  Processor Information:	x86 (AMD or Intel) - 32 Processors
»»»  Tester Name:	PMF21124-494 (100V)
»»»  Tester S/N:	PMF21124-494
»»»  Internal Amp Type:	100V RevK 270k
»»»  Internal Amp S/N:	iAB2-596/K     
»»»  Execution Count:	1
»»»»»»»»»»»»»»»»»»»»»»»»»»»»»»»»»»»»»»»»»»««««««««««««««««««««««««««««««««««««««««««

Stored:	6/5/2025 - 13:34:44
Configured:	06/05/25 01:31:43 PM
Executed:	06/05/25 01:33:48 PM

»»»»»»»»»»»»»»»»»»»»»»»»»»»»»»»»»»» Sample Info ««««««««««««««««««««««««««««««««««««
Sample Name:	
Lot Name:	
Wafer Name:	
Die Row/Column:	0/0
Capacitor Number:	0
Sample Area (cm2):	1.00e-04
Sample Thickness (microns):	3.00e-01

Amplifier:	Internal

»»»»»»»»»»»»»»»»»»»»»»»»»»»»»»»»»»» Tester Info «««««««««««««««««««««««««««««««««««
Tester Name:	PMF21124-494 (100V)
Tester Serial Number:	PMF21124-494
Return Signal Amp. Level:	0.19 [Index: 3]

»»»»»»»»»»»»»»»»»»»»»»»»»»»»»»»» Hysteresis Info ««««««««««««««««««««««««««««««««««
Task Name:	Hyst-303
Volts:	20.00
Field:	666.67 (kV/cm)
DCBias:	0.00
DCField:	0.00 (kV/cm)
Hysteresis Period (ms):	2.00e+02
Preset:	Enabled
Preset Delay (ms):	1.00e+03
Profile:	Standard Bipolar

»»»»»»»»»»»»»»»»»»»»»»»»»»»»»»»»»»»»»» Data «««««««««««««««««««««««««««««««««««««««
Points:	2009

Valid Data

Point	Time (ms)	Drive Voltage	Measured Polarization (uC/cm2)	Capacitance (uF)	Normalized Capacitance (uF/cm2)	Dielectric Constant	Instantaneous Current (mA)
   1	0.0000e+00	-0.0225	-8.425502	0.000243	2.431925	0.823959	0.000097
   2	9.9500e-02	0.0064	-8.328611	0.000243	2.431925	0.823959	0.000097
   3	1.9900e-01	0.0417	-8.243831	0.000213	2.127935	0.720964	0.000085
   4	2.9850e-01	0.0818	-8.078309	0.000415	4.154539	1.407596	0.000166
   5	3.9800e-01	0.1283	-7.941046	0.000345	3.445228	1.167275	0.000138
   6	4.9750e-01	0.1749	-7.791672	0.000375	3.749218	1.270270	0.000150
   7	5.9700e-01	0.2102	-7.646335	0.000365	3.647888	1.235938	0.000146
   8	6.9650e-01	0.2487	-7.488887	0.000395	3.951879	1.338933	0.000158
   9	7.9600e-01	0.2936	-7.347587	0.000355	3.546558	1.201606	0.000142
  10	8.9550e-01	0.3321	-7.161879	0.000466	4.661190	1.579254	0.000187
  11	9.9500e-01	0.3626	-7.024616	0.000345	3.445228	1.167275	0.000138
  12	1.0945e+00	0.4027	-6.851019	0.000436	4.357200	1.476259	0.000174
  13	1.1940e+00	0.4476	-6.681460	0.000426	4.255870	1.441928	0.000170
  14	1.2935e+00	0.4973	-6.519974	0.000405	4.053209	1.373264	0.000162
  15	1.3930e+00	0.5342	-6.362526	0.000395	3.951879	1.338933	0.000158
  16	1.4925e+00	0.5631	-6.156632	0.000517	5.167842	1.750912	0.000207
  17	1.5920e+00	0.5952	-5.999184	0.000395	3.951879	1.338933	0.000158
  18	1.6915e+00	0.6529	-5.817513	0.000456	4.559860	1.544922	0.000183
  19	1.7910e+00	0.6850	-5.651990	0.000415	4.154539	1.407596	0.000166
  20	1.8905e+00	0.7235	-5.442059	0.000527	5.269172	1.785244	0.000211
  21	1.9900e+00	0.7652	-5.276536	0.000415	4.154539	1.407596	0.000166
  22	2.0895e+00	0.8053	-5.131200	0.000365	3.647888	1.235938	0.000146
  23	2.1890e+00	0.8390	-4.905120	0.000567	5.674493	1.922570	0.000227
  24	2.2885e+00	0.8743	-4.731523	0.000436	4.357200	1.476259	0.000174
  25	2.3880e+00	0.9128	-4.529666	0.000507	5.066511	1.716581	0.000203
  26	2.4875e+00	0.9593	-4.360107	0.000426	4.255870	1.441928	0.000170
  27	2.5870e+00	0.9994	-4.166324	0.000486	4.863851	1.647917	0.000195
  28	2.6865e+00	1.0444	-3.996764	0.000426	4.255870	1.441928	0.000170
  29	2.7860e+00	1.0845	-3.790870	0.000517	5.167842	1.750912	0.000207
  30	2.8855e+00	1.1262	-3.621311	0.000426	4.255870	1.441928	0.000170
  31	2.9850e+00	1.1679	-3.399268	0.000557	5.573162	1.888239	0.000223
  32	3.0845e+00	1.2000	-3.197412	0.000507	5.066511	1.716581	0.000203
  33	3.1840e+00	1.2417	-3.023815	0.000436	4.357200	1.476259	0.000174
  34	3.2835e+00	1.2834	-2.830032	0.000486	4.863851	1.647917	0.000195
  35	3.3830e+00	1.3203	-2.628175	0.000507	5.066511	1.716581	0.000203
  36	3.4825e+00	1.3652	-2.398059	0.000578	5.775823	1.956902	0.000231
  37	3.5820e+00	1.3941	-2.240610	0.000395	3.951879	1.338933	0.000158
  38	3.6815e+00	1.4438	-2.038754	0.000507	5.066511	1.716581	0.000203
  39	3.7810e+00	1.4807	-1.800563	0.000598	5.978483	2.025565	0.000239
  40	3.8805e+00	1.5272	-1.631003	0.000426	4.255870	1.441928	0.000170
  41	3.9800e+00	1.5609	-1.425109	0.000517	5.167842	1.750912	0.000207
  42	4.0795e+00	1.6010	-1.227289	0.000497	4.965181	1.682249	0.000199
  43	4.1790e+00	1.6427	-1.005247	0.000557	5.573162	1.888239	0.000223
  44	4.2785e+00	1.6796	-0.795316	0.000527	5.269172	1.785244	0.000211
  45	4.3780e+00	1.7229	-0.609607	0.000466	4.661190	1.579254	0.000187
  46	4.4775e+00	1.7566	-0.415825	0.000486	4.863851	1.647917	0.000195
  47	4.5770e+00	1.8016	-0.185708	0.000578	5.775823	1.956902	0.000231
  48	4.6765e+00	1.8385	0.044408	0.000578	5.775823	1.956902	0.000231
  49	4.7760e+00	1.8753	0.193783	0.000375	3.749218	1.270270	0.000150
  50	4.8755e+00	1.9187	0.448122	0.000638	6.383804	2.162891	0.000256
  51	4.9750e+00	1.9572	0.645942	0.000497	4.965181	1.682249	0.000199
  52	5.0745e+00	2.0069	0.884133	0.000598	5.978483	2.025565	0.000239
  53	5.1740e+00	2.0390	1.065804	0.000456	4.559860	1.544922	0.000183
  54	5.2735e+00	2.0839	1.259586	0.000486	4.863851	1.647917	0.000195
  55	5.3730e+00	2.1224	1.453369	0.000486	4.863851	1.647917	0.000195
  56	5.4725e+00	2.1641	1.695597	0.000608	6.079814	2.059897	0.000243
  57	5.5720e+00	2.1978	1.889380	0.000486	4.863851	1.647917	0.000195
  58	5.6715e+00	2.2411	2.143719	0.000638	6.383804	2.162891	0.000256
  59	5.7710e+00	2.2892	2.345576	0.000507	5.066511	1.716581	0.000203
  60	5.8705e+00	2.3181	2.591841	0.000618	6.181144	2.094228	0.000248
  61	5.9700e+00	2.3582	2.757364	0.000415	4.154539	1.407596	0.000166
  62	6.0695e+00	2.3983	2.991518	0.000588	5.877153	1.991233	0.000235
  63	6.1690e+00	2.4336	3.205486	0.000537	5.370502	1.819575	0.000215
  64	6.2685e+00	2.4801	3.435603	0.000578	5.775823	1.956902	0.000231
  65	6.3680e+00	2.5219	3.665719	0.000578	5.775823	1.956902	0.000231
  66	6.4675e+00	2.5684	3.839316	0.000436	4.357200	1.476259	0.000174
  67	6.5670e+00	2.6021	4.073470	0.000588	5.877153	1.991233	0.000235
  68	6.6665e+00	2.6406	4.287438	0.000537	5.370502	1.819575	0.000215
  69	6.7660e+00	2.6743	4.513518	0.000567	5.674493	1.922570	0.000227
  70	6.8655e+00	2.7160	4.759783	0.000618	6.181144	2.094228	0.000248
  71	6.9650e+00	2.7513	4.961640	0.000507	5.066511	1.716581	0.000203
  72	7.0645e+00	2.7898	5.171571	0.000527	5.269172	1.785244	0.000211
  73	7.1640e+00	2.8443	5.397650	0.000567	5.674493	1.922570	0.000227
  74	7.2635e+00	2.8764	5.676213	0.000699	6.991786	2.368881	0.000280
  75	7.3630e+00	2.9101	5.853847	0.000446	4.458530	1.510591	0.000179
  76	7.4625e+00	2.9518	6.083964	0.000578	5.775823	1.956902	0.000231
  77	7.5620e+00	2.9903	6.297932	0.000537	5.370502	1.819575	0.000215
  78	7.6615e+00	3.0352	6.515937	0.000547	5.471832	1.853907	0.000219
  79	7.7610e+00	3.0721	6.770277	0.000638	6.383804	2.162891	0.000256
  80	7.8605e+00	3.1122	7.000393	0.000578	5.775823	1.956902	0.000231
  81	7.9600e+00	3.1507	7.242622	0.000608	6.079814	2.059897	0.000243
  82	8.0595e+00	3.1972	7.464664	0.000557	5.573162	1.888239	0.000223
  83	8.1590e+00	3.2293	7.698818	0.000588	5.877153	1.991233	0.000235
  84	8.2585e+00	3.2807	7.896638	0.000497	4.965181	1.682249	0.000199
  85	8.3580e+00	3.3159	8.142903	0.000618	6.181144	2.094228	0.000248
  86	8.4575e+00	3.3448	8.389168	0.000618	6.181144	2.094228	0.000248
  87	8.5570e+00	3.3930	8.582951	0.000486	4.863851	1.647917	0.000195
  88	8.6565e+00	3.4315	8.849402	0.000669	6.687795	2.265886	0.000268
  89	8.7560e+00	3.4700	9.063370	0.000537	5.370502	1.819575	0.000215
  90	8.8555e+00	3.5133	9.309635	0.000618	6.181144	2.094228	0.000248
  91	8.9550e+00	3.5598	9.543789	0.000588	5.877153	1.991233	0.000235
  92	9.0545e+00	3.6015	9.761794	0.000547	5.471832	1.853907	0.000219
  93	9.1540e+00	3.6320	10.008059	0.000618	6.181144	2.094228	0.000248
  94	9.2535e+00	3.6817	10.201842	0.000486	4.863851	1.647917	0.000195
  95	9.3530e+00	3.7170	10.480404	0.000699	6.991786	2.368881	0.000280
  96	9.4525e+00	3.7603	10.698410	0.000547	5.471832	1.853907	0.000219
  97	9.5520e+00	3.7956	10.956786	0.000649	6.485134	2.197223	0.000260
  98	9.6515e+00	3.8341	11.158643	0.000507	5.066511	1.716581	0.000203
  99	9.7510e+00	3.8822	11.421057	0.000659	6.586465	2.231555	0.000264
 100	9.8505e+00	3.9031	11.639062	0.000547	5.471832	1.853907	0.000219
 101	9.9500e+00	3.9609	11.901476	0.000659	6.586465	2.231555	0.000264
 102	1.0050e+01	3.9945	12.079110	0.000446	4.458530	1.510591	0.000179
 103	1.0149e+01	4.0298	12.313264	0.000588	5.877153	1.991233	0.000235
 104	1.0248e+01	4.0731	12.559529	0.000618	6.181144	2.094228	0.000248
 105	1.0348e+01	4.1165	12.801757	0.000608	6.079814	2.059897	0.000243
 106	1.0447e+01	4.1437	13.076283	0.000689	6.890455	2.334549	0.000276
 107	1.0547e+01	4.1887	13.245842	0.000426	4.255870	1.441928	0.000170
 108	1.0646e+01	4.2255	13.500182	0.000638	6.383804	2.162891	0.000256
 109	1.0746e+01	4.2689	13.742410	0.000608	6.079814	2.059897	0.000243
 110	1.0845e+01	4.3154	13.996750	0.000638	6.383804	2.162891	0.000256
 111	1.0945e+01	4.3491	14.218792	0.000557	5.573162	1.888239	0.000223
 112	1.1044e+01	4.3892	14.477169	0.000649	6.485134	2.197223	0.000260
 113	1.1144e+01	4.4357	14.699211	0.000557	5.573162	1.888239	0.000223
 114	1.1243e+01	4.4710	14.913179	0.000537	5.370502	1.819575	0.000215
 115	1.1343e+01	4.5111	15.143296	0.000578	5.775823	1.956902	0.000231
 116	1.1443e+01	4.5544	15.373413	0.000578	5.775823	1.956902	0.000231
 117	1.1542e+01	4.5945	15.656012	0.000709	7.093116	2.403213	0.000284
 118	1.1642e+01	4.6282	15.898241	0.000608	6.079814	2.059897	0.000243
 119	1.1741e+01	4.6699	16.092023	0.000486	4.863851	1.647917	0.000195
 120	1.1841e+01	4.7116	16.334251	0.000608	6.079814	2.059897	0.000243
 121	1.1940e+01	4.7485	16.560331	0.000567	5.674493	1.922570	0.000227
 122	1.2040e+01	4.7967	16.798522	0.000598	5.978483	2.025565	0.000239
 123	1.2139e+01	4.8368	17.069010	0.000679	6.789125	2.300218	0.000272
 124	1.2239e+01	4.8688	17.291052	0.000557	5.573162	1.888239	0.000223
 125	1.2338e+01	4.9025	17.521169	0.000578	5.775823	1.956902	0.000231
 126	1.2438e+01	4.9442	17.747249	0.000567	5.674493	1.922570	0.000227
 127	1.2537e+01	4.9924	17.997551	0.000628	6.282474	2.128560	0.000252
 128	1.2636e+01	5.0325	18.215556	0.000547	5.471832	1.853907	0.000219
 129	1.2736e+01	5.0726	18.441636	0.000567	5.674493	1.922570	0.000227
 130	1.2835e+01	5.1095	18.720198	0.000699	6.991786	2.368881	0.000280
 131	1.2935e+01	5.1432	18.889758	0.000426	4.255870	1.441928	0.000170
 132	1.3034e+01	5.1833	19.156209	0.000669	6.687795	2.265886	0.000268
 133	1.3134e+01	5.2330	19.406511	0.000628	6.282474	2.128560	0.000252
 134	1.3233e+01	5.2651	19.664888	0.000649	6.485134	2.197223	0.000260
 135	1.3333e+01	5.3196	19.882894	0.000547	5.471832	1.853907	0.000219
 136	1.3432e+01	5.3533	20.121085	0.000598	5.978483	2.025565	0.000239
 137	1.3532e+01	5.3902	20.375424	0.000638	6.383804	2.162891	0.000256
 138	1.3632e+01	5.4207	20.593429	0.000547	5.471832	1.853907	0.000219
 139	1.3731e+01	5.4688	20.835658	0.000608	6.079814	2.059897	0.000243
 140	1.3831e+01	5.5057	21.077886	0.000608	6.079814	2.059897	0.000243
 141	1.3930e+01	5.5458	21.320114	0.000608	6.079814	2.059897	0.000243
 142	1.4030e+01	5.5843	21.538119	0.000547	5.471832	1.853907	0.000219
 143	1.4129e+01	5.6228	21.824756	0.000719	7.194446	2.437544	0.000288
 144	1.4229e+01	5.6597	22.038724	0.000537	5.370502	1.819575	0.000215
 145	1.4328e+01	5.7111	22.280952	0.000608	6.079814	2.059897	0.000243
 146	1.4428e+01	5.7496	22.551440	0.000679	6.789125	2.300218	0.000272
 147	1.4527e+01	5.7945	22.745223	0.000486	4.863851	1.647917	0.000195
 148	1.4627e+01	5.8234	23.011674	0.000669	6.687795	2.265886	0.000268
 149	1.4726e+01	5.8635	23.257939	0.000618	6.181144	2.094228	0.000248
 150	1.4825e+01	5.9004	23.484019	0.000567	5.674493	1.922570	0.000227
 151	1.4925e+01	5.9421	23.734321	0.000628	6.282474	2.128560	0.000252
 152	1.5024e+01	5.9854	23.980586	0.000618	6.181144	2.094228	0.000248
 153	1.5124e+01	6.0111	24.182443	0.000507	5.066511	1.716581	0.000203
 154	1.5223e+01	6.0576	24.432745	0.000628	6.282474	2.128560	0.000252
 155	1.5323e+01	6.1121	24.683048	0.000628	6.282474	2.128560	0.000252
 156	1.5422e+01	6.1410	24.917202	0.000588	5.877153	1.991233	0.000235
 157	1.5522e+01	6.1811	25.159430	0.000608	6.079814	2.059897	0.000243
 158	1.5621e+01	6.2276	25.397621	0.000598	5.978483	2.025565	0.000239
 159	1.5721e+01	6.2726	25.611589	0.000537	5.370502	1.819575	0.000215
 160	1.5820e+01	6.2982	25.861892	0.000628	6.282474	2.128560	0.000252
 161	1.5920e+01	6.3399	26.079897	0.000547	5.471832	1.853907	0.000219
 162	1.6020e+01	6.3913	26.334236	0.000638	6.383804	2.162891	0.000256
 163	1.6119e+01	6.4362	26.544167	0.000527	5.269172	1.785244	0.000211
 164	1.6218e+01	6.4602	26.802544	0.000649	6.485134	2.197223	0.000260
 165	1.6318e+01	6.5020	27.016512	0.000537	5.370502	1.819575	0.000215
 166	1.6418e+01	6.5437	27.274889	0.000649	6.485134	2.197223	0.000260
 167	1.6517e+01	6.5774	27.533266	0.000649	6.485134	2.197223	0.000260
 168	1.6616e+01	6.6303	27.739160	0.000517	5.167842	1.750912	0.000207
 169	1.6716e+01	6.6592	27.953128	0.000537	5.370502	1.819575	0.000215
 170	1.6816e+01	6.7025	28.211505	0.000649	6.485134	2.197223	0.000260
 171	1.6915e+01	6.7394	28.469881	0.000649	6.485134	2.197223	0.000260
 172	1.7015e+01	6.7891	28.663664	0.000486	4.863851	1.647917	0.000195
 173	1.7114e+01	6.8228	28.889743	0.000567	5.674493	1.922570	0.000227
 174	1.7213e+01	6.8597	29.131971	0.000608	6.079814	2.059897	0.000243
 175	1.7313e+01	6.9014	29.406497	0.000689	6.890455	2.334549	0.000276
 176	1.7413e+01	6.9383	29.596242	0.000476	4.762521	1.613586	0.000191
 177	1.7512e+01	6.9848	29.866730	0.000679	6.789125	2.300218	0.000272
 178	1.7611e+01	7.0249	30.072624	0.000517	5.167842	1.750912	0.000207
 179	1.7711e+01	7.0554	30.302741	0.000578	5.775823	1.956902	0.000231
 180	1.7811e+01	7.1003	30.540932	0.000598	5.978483	2.025565	0.000239
 181	1.7910e+01	7.1485	30.767011	0.000567	5.674493	1.922570	0.000227
 182	1.8009e+01	7.1838	31.025388	0.000649	6.485134	2.197223	0.000260
 183	1.8109e+01	7.2110	31.251468	0.000567	5.674493	1.922570	0.000227
 184	1.8209e+01	7.2672	31.497733	0.000618	6.181144	2.094228	0.000248
 185	1.8308e+01	7.3025	31.752073	0.000638	6.383804	2.162891	0.000256
 186	1.8407e+01	7.3313	31.982189	0.000578	5.775823	1.956902	0.000231
 187	1.8507e+01	7.3795	32.244603	0.000659	6.586465	2.231555	0.000264
 188	1.8607e+01	7.4196	32.446460	0.000507	5.066511	1.716581	0.000203
 189	1.8706e+01	7.4533	32.676577	0.000578	5.775823	1.956902	0.000231
 190	1.8805e+01	7.5046	32.898619	0.000557	5.573162	1.888239	0.000223
 191	1.8905e+01	7.5383	33.132773	0.000588	5.877153	1.991233	0.000235
 192	1.9005e+01	7.5752	33.350778	0.000547	5.471832	1.853907	0.000219
 193	1.9104e+01	7.6185	33.621266	0.000679	6.789125	2.300218	0.000272
 194	1.9203e+01	7.6634	33.887717	0.000669	6.687795	2.265886	0.000268
 195	1.9303e+01	7.7003	34.057277	0.000426	4.255870	1.441928	0.000170
 196	1.9402e+01	7.7340	34.331802	0.000689	6.890455	2.334549	0.000276
 197	1.9502e+01	7.7789	34.553845	0.000557	5.573162	1.888239	0.000223
 198	1.9602e+01	7.8254	34.812221	0.000649	6.485134	2.197223	0.000260
 199	1.9701e+01	7.8543	35.034264	0.000557	5.573162	1.888239	0.000223
 200	1.9800e+01	7.8976	35.248232	0.000537	5.370502	1.819575	0.000215
 201	1.9900e+01	7.9377	35.486423	0.000598	5.978483	2.025565	0.000239
 202	2.0000e+01	7.9795	35.773060	0.000719	7.194446	2.437544	0.000288
 203	2.0099e+01	8.0228	35.938582	0.000415	4.154539	1.407596	0.000166
 204	2.0198e+01	8.0484	36.196959	0.000649	6.485134	2.197223	0.000260
 205	2.0298e+01	8.0966	36.471484	0.000689	6.890455	2.334549	0.000276
 206	2.0398e+01	8.1399	36.689490	0.000547	5.471832	1.853907	0.000219
 207	2.0497e+01	8.1655	36.919606	0.000578	5.775823	1.956902	0.000231
 208	2.0596e+01	8.2121	37.177983	0.000649	6.485134	2.197223	0.000260
 209	2.0696e+01	8.2618	37.420211	0.000608	6.079814	2.059897	0.000243
 210	2.0796e+01	8.2939	37.609957	0.000476	4.762521	1.613586	0.000191
 211	2.0895e+01	8.3260	37.852185	0.000608	6.079814	2.059897	0.000243
 212	2.0994e+01	8.3869	38.122673	0.000679	6.789125	2.300218	0.000272
 213	2.1094e+01	8.4142	38.328567	0.000517	5.167842	1.750912	0.000207
 214	2.1194e+01	8.4511	38.562721	0.000588	5.877153	1.991233	0.000235
 215	2.1293e+01	8.4912	38.784763	0.000557	5.573162	1.888239	0.000223
 216	2.1392e+01	8.5409	39.031028	0.000618	6.181144	2.094228	0.000248
 217	2.1492e+01	8.5746	39.236922	0.000517	5.167842	1.750912	0.000207
 218	2.1591e+01	8.6163	39.507410	0.000679	6.789125	2.300218	0.000272
 219	2.1691e+01	8.6596	39.749638	0.000608	6.079814	2.059897	0.000243
 220	2.1791e+01	8.6949	39.947458	0.000497	4.965181	1.682249	0.000199
 221	2.1890e+01	8.7318	40.209872	0.000659	6.586465	2.231555	0.000264
 222	2.1989e+01	8.7752	40.427877	0.000547	5.471832	1.853907	0.000219
 223	2.2089e+01	8.8137	40.637808	0.000527	5.269172	1.785244	0.000211
 224	2.2189e+01	8.8570	40.880036	0.000608	6.079814	2.059897	0.000243
 225	2.2288e+01	8.8907	41.150525	0.000679	6.789125	2.300218	0.000272
 226	2.2387e+01	8.9340	41.360456	0.000527	5.269172	1.785244	0.000211
 227	2.2487e+01	8.9741	41.590572	0.000578	5.775823	1.956902	0.000231
 228	2.2587e+01	9.0142	41.857023	0.000669	6.687795	2.265886	0.000268
 229	2.2686e+01	9.0559	42.042732	0.000466	4.661190	1.579254	0.000187
 230	2.2785e+01	9.0928	42.284960	0.000608	6.079814	2.059897	0.000243
 231	2.2885e+01	9.1313	42.527188	0.000608	6.079814	2.059897	0.000243
 232	2.2985e+01	9.1746	42.737119	0.000527	5.269172	1.785244	0.000211
 233	2.3084e+01	9.2115	42.995496	0.000649	6.485134	2.197223	0.000260
 234	2.3183e+01	9.2548	43.213501	0.000547	5.471832	1.853907	0.000219
 235	2.3283e+01	9.2869	43.471878	0.000649	6.485134	2.197223	0.000260
 236	2.3383e+01	9.3334	43.701994	0.000578	5.775823	1.956902	0.000231
 237	2.3482e+01	9.3703	43.875591	0.000436	4.357200	1.476259	0.000174
 238	2.3581e+01	9.4088	44.158191	0.000709	7.093116	2.403213	0.000284
 239	2.3681e+01	9.4521	44.404456	0.000618	6.181144	2.094228	0.000248
 240	2.3780e+01	9.4890	44.630536	0.000567	5.674493	1.922570	0.000227
 241	2.3880e+01	9.5324	44.836430	0.000517	5.167842	1.750912	0.000207
 242	2.3980e+01	9.5709	45.070583	0.000588	5.877153	1.991233	0.000235
 243	2.4079e+01	9.6110	45.312812	0.000608	6.079814	2.059897	0.000243
 244	2.4178e+01	9.6559	45.538891	0.000567	5.674493	1.922570	0.000227
 245	2.4278e+01	9.6880	45.760934	0.000557	5.573162	1.888239	0.000223
 246	2.4378e+01	9.7281	46.011236	0.000628	6.282474	2.128560	0.000252
 247	2.4477e+01	9.7730	46.237316	0.000567	5.674493	1.922570	0.000227
 248	2.4576e+01	9.8131	46.467432	0.000578	5.775823	1.956902	0.000231
 249	2.4676e+01	9.8548	46.705623	0.000598	5.978483	2.025565	0.000239
 250	2.4776e+01	9.8933	46.943814	0.000598	5.978483	2.025565	0.000239
 251	2.4875e+01	9.9222	47.182005	0.000598	5.978483	2.025565	0.000239
 252	2.4974e+01	9.9671	47.428271	0.000618	6.181144	2.094228	0.000248
 253	2.5074e+01	10.0104	47.654350	0.000567	5.674493	1.922570	0.000227
 254	2.5174e+01	10.0666	47.892541	0.000598	5.978483	2.025565	0.000239
 255	2.5273e+01	10.0938	48.134769	0.000608	6.079814	2.059897	0.000243
 256	2.5372e+01	10.1275	48.344700	0.000527	5.269172	1.785244	0.000211
 257	2.5472e+01	10.1612	48.595003	0.000628	6.282474	2.128560	0.000252
 258	2.5572e+01	10.2077	48.780711	0.000466	4.661190	1.579254	0.000187
 259	2.5671e+01	10.2462	49.071385	0.000730	7.295776	2.471876	0.000292
 260	2.5770e+01	10.2895	49.285353	0.000537	5.370502	1.819575	0.000215
 261	2.5870e+01	10.3248	49.531618	0.000618	6.181144	2.094228	0.000248
 262	2.5970e+01	10.3682	49.789995	0.000649	6.485134	2.197223	0.000260
 263	2.6069e+01	10.4099	49.999926	0.000527	5.269172	1.785244	0.000211
 264	2.6169e+01	10.4452	50.246191	0.000618	6.181144	2.094228	0.000248
 265	2.6268e+01	10.4853	50.476308	0.000578	5.775823	1.956902	0.000231
 266	2.6367e+01	10.5222	50.706425	0.000578	5.775823	1.956902	0.000231
 267	2.6467e+01	10.5719	50.900207	0.000486	4.863851	1.647917	0.000195
 268	2.6567e+01	10.6072	51.146473	0.000618	6.181144	2.094228	0.000248
 269	2.6666e+01	10.6457	51.348329	0.000507	5.066511	1.716581	0.000203
 270	2.6765e+01	10.6922	51.602669	0.000638	6.383804	2.162891	0.000256
 271	2.6865e+01	10.7243	51.820674	0.000547	5.471832	1.853907	0.000219
 272	2.6965e+01	10.7676	52.058865	0.000598	5.978483	2.025565	0.000239
 273	2.7064e+01	10.7981	52.276871	0.000547	5.471832	1.853907	0.000219
 274	2.7163e+01	10.8526	52.519099	0.000608	6.079814	2.059897	0.000243
 275	2.7263e+01	10.8783	52.733067	0.000537	5.370502	1.819575	0.000215
 276	2.7363e+01	10.9280	53.003555	0.000679	6.789125	2.300218	0.000272
 277	2.7462e+01	10.9681	53.201375	0.000497	4.965181	1.682249	0.000199
 278	2.7561e+01	11.0131	53.443603	0.000608	6.079814	2.059897	0.000243
 279	2.7661e+01	11.0387	53.641423	0.000497	4.965181	1.682249	0.000199
 280	2.7761e+01	11.0804	53.911911	0.000679	6.789125	2.300218	0.000272
 281	2.7860e+01	11.1238	54.125879	0.000537	5.370502	1.819575	0.000215
 282	2.7959e+01	11.1687	54.384256	0.000649	6.485134	2.197223	0.000260
 283	2.8059e+01	11.2056	54.586112	0.000507	5.066511	1.716581	0.000203
 284	2.8159e+01	11.2441	54.804118	0.000547	5.471832	1.853907	0.000219
 285	2.8258e+01	11.2874	55.050383	0.000618	6.181144	2.094228	0.000248
 286	2.8358e+01	11.3307	55.292611	0.000608	6.079814	2.059897	0.000243
 287	2.8457e+01	11.3676	55.482356	0.000476	4.762521	1.613586	0.000191
 288	2.8556e+01	11.4125	55.740733	0.000649	6.485134	2.197223	0.000260
 289	2.8656e+01	11.4414	55.958738	0.000547	5.471832	1.853907	0.000219
 290	2.8756e+01	11.4879	56.180781	0.000557	5.573162	1.888239	0.000223
 291	2.8855e+01	11.5232	56.410898	0.000578	5.775823	1.956902	0.000231
 292	2.8954e+01	11.5569	56.641014	0.000578	5.775823	1.956902	0.000231
 293	2.9054e+01	11.6034	56.871131	0.000578	5.775823	1.956902	0.000231
 294	2.9154e+01	11.6451	57.068951	0.000497	4.965181	1.682249	0.000199
 295	2.9253e+01	11.6884	57.315216	0.000618	6.181144	2.094228	0.000248
 296	2.9352e+01	11.7302	57.549370	0.000588	5.877153	1.991233	0.000235
 297	2.9452e+01	11.7606	57.739115	0.000476	4.762521	1.613586	0.000191
 298	2.9552e+01	11.7975	57.993455	0.000638	6.383804	2.162891	0.000256
 299	2.9651e+01	11.8424	58.211460	0.000547	5.471832	1.853907	0.000219
 300	2.9750e+01	11.8842	58.405243	0.000486	4.863851	1.647917	0.000195
 301	2.9850e+01	11.9259	58.671694	0.000669	6.687795	2.265886	0.000268
 302	2.9950e+01	11.9660	58.885662	0.000537	5.370502	1.819575	0.000215
 303	3.0049e+01	12.0013	59.111741	0.000567	5.674493	1.922570	0.000227
 304	3.0148e+01	12.0430	59.325710	0.000537	5.370502	1.819575	0.000215
 305	3.0248e+01	12.0831	59.576012	0.000628	6.282474	2.128560	0.000252
 306	3.0348e+01	12.1248	59.769795	0.000486	4.863851	1.647917	0.000195
 307	3.0447e+01	12.1633	60.036246	0.000669	6.687795	2.265886	0.000268
 308	3.0547e+01	12.1970	60.238102	0.000507	5.066511	1.716581	0.000203
 309	3.0646e+01	12.2371	60.476293	0.000598	5.978483	2.025565	0.000239
 310	3.0745e+01	12.2756	60.706410	0.000578	5.775823	1.956902	0.000231
 311	3.0845e+01	12.3141	60.928453	0.000557	5.573162	1.888239	0.000223
 312	3.0945e+01	12.3654	61.150495	0.000557	5.573162	1.888239	0.000223
 313	3.1044e+01	12.3975	61.404835	0.000638	6.383804	2.162891	0.000256
 314	3.1143e+01	12.4344	61.618803	0.000537	5.370502	1.819575	0.000215
 315	3.1243e+01	12.4825	61.869105	0.000628	6.282474	2.128560	0.000252
 316	3.1343e+01	12.5226	62.091148	0.000557	5.573162	1.888239	0.000223
 317	3.1442e+01	12.5563	62.272819	0.000456	4.559860	1.544922	0.000183
 318	3.1541e+01	12.5932	62.502935	0.000578	5.775823	1.956902	0.000231
 319	3.1641e+01	12.6398	62.708829	0.000517	5.167842	1.750912	0.000207
 320	3.1741e+01	12.6847	62.930872	0.000557	5.573162	1.888239	0.000223
 321	3.1840e+01	12.7119	63.181174	0.000628	6.282474	2.128560	0.000252
 322	3.1939e+01	12.7633	63.395142	0.000537	5.370502	1.819575	0.000215
 323	3.2039e+01	12.7986	63.637371	0.000608	6.079814	2.059897	0.000243
 324	3.2139e+01	12.8387	63.863450	0.000567	5.674493	1.922570	0.000227
 325	3.2238e+01	12.8788	64.073381	0.000527	5.269172	1.785244	0.000211
 326	3.2337e+01	12.9205	64.295424	0.000557	5.573162	1.888239	0.000223
 327	3.2437e+01	12.9606	64.469021	0.000436	4.357200	1.476259	0.000174
 328	3.2536e+01	12.9959	64.682989	0.000537	5.370502	1.819575	0.000215
 329	3.2636e+01	13.0280	64.929254	0.000618	6.181144	2.094228	0.000248
 330	3.2736e+01	13.0697	65.131111	0.000507	5.066511	1.716581	0.000203
 331	3.2835e+01	13.1114	65.381413	0.000628	6.282474	2.128560	0.000252
 332	3.2934e+01	13.1483	65.563084	0.000456	4.559860	1.544922	0.000183
 333	3.3034e+01	13.1932	65.785127	0.000557	5.573162	1.888239	0.000223
 334	3.3133e+01	13.2381	66.047541	0.000659	6.586465	2.231555	0.000264
 335	3.3233e+01	13.2750	66.221138	0.000436	4.357200	1.476259	0.000174
 336	3.3333e+01	13.3135	66.463366	0.000608	6.079814	2.059897	0.000243
 337	3.3432e+01	13.3601	66.677334	0.000537	5.370502	1.819575	0.000215
 338	3.3532e+01	13.3969	66.931673	0.000638	6.383804	2.162891	0.000256
 339	3.3631e+01	13.4322	67.121419	0.000476	4.762521	1.613586	0.000191
 340	3.3730e+01	13.4675	67.331350	0.000527	5.269172	1.785244	0.000211
 341	3.3830e+01	13.5157	67.553392	0.000557	5.573162	1.888239	0.000223
 342	3.3929e+01	13.5574	67.779472	0.000567	5.674493	1.922570	0.000227
 343	3.4029e+01	13.5814	68.013626	0.000588	5.877153	1.991233	0.000235
 344	3.4129e+01	13.6328	68.227594	0.000537	5.370502	1.819575	0.000215
 345	3.4228e+01	13.6825	68.409265	0.000456	4.559860	1.544922	0.000183
 346	3.4328e+01	13.7194	68.643419	0.000588	5.877153	1.991233	0.000235
 347	3.4427e+01	13.7547	68.877573	0.000588	5.877153	1.991233	0.000235
 348	3.4526e+01	13.7948	69.063281	0.000466	4.661190	1.579254	0.000187
 349	3.4626e+01	13.8285	69.313583	0.000628	6.282474	2.128560	0.000252
 350	3.4725e+01	13.8782	69.535626	0.000557	5.573162	1.888239	0.000223
 351	3.4825e+01	13.9231	69.733446	0.000497	4.965181	1.682249	0.000199
 352	3.4925e+01	13.9504	69.983748	0.000628	6.282474	2.128560	0.000252
 353	3.5024e+01	13.9969	70.181568	0.000497	4.965181	1.682249	0.000199
 354	3.5123e+01	14.0290	70.407647	0.000567	5.674493	1.922570	0.000227
 355	3.5223e+01	14.0739	70.637764	0.000578	5.775823	1.956902	0.000231
 356	3.5322e+01	14.1156	70.851732	0.000537	5.370502	1.819575	0.000215
 357	3.5422e+01	14.1509	71.057626	0.000517	5.167842	1.750912	0.000207
 358	3.5522e+01	14.1894	71.227186	0.000426	4.255870	1.441928	0.000170
 359	3.5621e+01	14.2344	71.485563	0.000649	6.485134	2.197223	0.000260
 360	3.5721e+01	14.2713	71.679345	0.000486	4.863851	1.647917	0.000195
 361	3.5820e+01	14.3210	71.889276	0.000527	5.269172	1.785244	0.000211
 362	3.5919e+01	14.3467	72.123430	0.000588	5.877153	1.991233	0.000235
 363	3.6019e+01	14.3868	72.341435	0.000547	5.471832	1.853907	0.000219
 364	3.6118e+01	14.4333	72.559441	0.000547	5.471832	1.853907	0.000219
 365	3.6218e+01	14.4654	72.753223	0.000486	4.863851	1.647917	0.000195
 366	3.6318e+01	14.5151	72.987377	0.000588	5.877153	1.991233	0.000235
 367	3.6417e+01	14.5504	73.209419	0.000557	5.573162	1.888239	0.000223
 368	3.6517e+01	14.5857	73.411276	0.000507	5.066511	1.716581	0.000203
 369	3.6616e+01	14.6322	73.649467	0.000598	5.978483	2.025565	0.000239
 370	3.6715e+01	14.6787	73.867473	0.000547	5.471832	1.853907	0.000219
 371	3.6815e+01	14.7044	74.097589	0.000578	5.775823	1.956902	0.000231
 372	3.6914e+01	14.7509	74.335780	0.000598	5.978483	2.025565	0.000239
 373	3.7014e+01	14.7926	74.473043	0.000345	3.445228	1.167275	0.000138
 374	3.7114e+01	14.8247	74.747568	0.000689	6.890455	2.334549	0.000276
 375	3.7213e+01	14.8616	74.937314	0.000476	4.762521	1.613586	0.000191
 376	3.7313e+01	14.9065	75.147245	0.000527	5.269172	1.785244	0.000211
 377	3.7412e+01	14.9482	75.381399	0.000588	5.877153	1.991233	0.000235
 378	3.7511e+01	14.9948	75.587292	0.000517	5.167842	1.750912	0.000207
 379	3.7611e+01	15.0252	75.825483	0.000598	5.978483	2.025565	0.000239
 380	3.7711e+01	15.0654	76.043489	0.000547	5.471832	1.853907	0.000219
 381	3.7810e+01	15.1135	76.213048	0.000426	4.255870	1.441928	0.000170
 382	3.7910e+01	15.1536	76.467388	0.000638	6.383804	2.162891	0.000256
 383	3.8009e+01	15.1873	76.653096	0.000466	4.661190	1.579254	0.000187
 384	3.8108e+01	15.2226	76.895324	0.000608	6.079814	2.059897	0.000243
 385	3.8208e+01	15.2627	77.117367	0.000557	5.573162	1.888239	0.000223
 386	3.8307e+01	15.3044	77.303075	0.000466	4.661190	1.579254	0.000187
 387	3.8407e+01	15.3525	77.541266	0.000598	5.978483	2.025565	0.000239
 388	3.8507e+01	15.3894	77.735049	0.000486	4.863851	1.647917	0.000195
 389	3.8606e+01	15.4279	77.932868	0.000497	4.965181	1.682249	0.000199
 390	3.8706e+01	15.4648	78.171059	0.000598	5.978483	2.025565	0.000239
 391	3.8805e+01	15.5049	78.376953	0.000517	5.167842	1.750912	0.000207
 392	3.8904e+01	15.5450	78.578810	0.000507	5.066511	1.716581	0.000203
 393	3.9004e+01	15.5867	78.784704	0.000517	5.167842	1.750912	0.000207
 394	3.9103e+01	15.6236	79.006746	0.000557	5.573162	1.888239	0.000223
 395	3.9203e+01	15.6637	79.216677	0.000527	5.269172	1.785244	0.000211
 396	3.9303e+01	15.7054	79.471017	0.000638	6.383804	2.162891	0.000256
 397	3.9402e+01	15.7488	79.628465	0.000395	3.951879	1.338933	0.000158
 398	3.9502e+01	15.7921	79.874731	0.000618	6.181144	2.094228	0.000248
 399	3.9601e+01	15.8258	80.068513	0.000486	4.863851	1.647917	0.000195
 400	3.9700e+01	15.8643	80.258258	0.000476	4.762521	1.613586	0.000191
 401	3.9800e+01	15.9060	80.500487	0.000608	6.079814	2.059897	0.000243
 402	3.9900e+01	15.9461	80.702343	0.000507	5.066511	1.716581	0.000203
 403	3.9999e+01	15.9878	80.912274	0.000527	5.269172	1.785244	0.000211
 404	4.0099e+01	16.0215	81.122206	0.000527	5.269172	1.785244	0.000211
 405	4.0198e+01	16.0616	81.328099	0.000517	5.167842	1.750912	0.000207
 406	4.0297e+01	16.1001	81.533993	0.000517	5.167842	1.750912	0.000207
 407	4.0397e+01	16.1354	81.768147	0.000588	5.877153	1.991233	0.000235
 408	4.0496e+01	16.1835	81.957893	0.000476	4.762521	1.613586	0.000191
 409	4.0596e+01	16.2284	82.171861	0.000537	5.370502	1.819575	0.000215
 410	4.0696e+01	16.2573	82.369680	0.000497	4.965181	1.682249	0.000199
 411	4.0795e+01	16.3038	82.603834	0.000588	5.877153	1.991233	0.000235
 412	4.0895e+01	16.3359	82.789543	0.000466	4.661190	1.579254	0.000187
 413	4.0994e+01	16.3824	83.051956	0.000659	6.586465	2.231555	0.000264
 414	4.1093e+01	16.4289	83.221516	0.000426	4.255870	1.441928	0.000170
 415	4.1193e+01	16.4578	83.459707	0.000598	5.978483	2.025565	0.000239
 416	4.1292e+01	16.5011	83.669638	0.000527	5.269172	1.785244	0.000211
 417	4.1392e+01	16.5461	83.895718	0.000567	5.674493	1.922570	0.000227
 418	4.1492e+01	16.5830	84.085463	0.000476	4.762521	1.613586	0.000191
 419	4.1591e+01	16.6215	84.299431	0.000537	5.370502	1.819575	0.000215
 420	4.1691e+01	16.6519	84.517437	0.000547	5.471832	1.853907	0.000219
 421	4.1790e+01	16.6985	84.731405	0.000537	5.370502	1.819575	0.000215
 422	4.1889e+01	16.7418	84.933262	0.000507	5.066511	1.716581	0.000203
 423	4.1989e+01	16.7819	85.171453	0.000598	5.978483	2.025565	0.000239
 424	4.2089e+01	16.8268	85.332938	0.000405	4.053209	1.373264	0.000162
 425	4.2188e+01	16.8605	85.615538	0.000709	7.093116	2.403213	0.000284
 426	4.2288e+01	16.8974	85.764912	0.000375	3.749218	1.270270	0.000150
 427	4.2387e+01	16.9439	86.007140	0.000608	6.079814	2.059897	0.000243
 428	4.2486e+01	16.9776	86.221108	0.000537	5.370502	1.819575	0.000215
 429	4.2586e+01	17.0209	86.406816	0.000466	4.661190	1.579254	0.000187
 430	4.2685e+01	17.0626	86.636933	0.000578	5.775823	1.956902	0.000231
 431	4.2785e+01	17.1011	86.834753	0.000497	4.965181	1.682249	0.000199
 432	4.2885e+01	17.1444	87.036609	0.000507	5.066511	1.716581	0.000203
 433	4.2984e+01	17.1878	87.258652	0.000557	5.573162	1.888239	0.000223
 434	4.3084e+01	17.2311	87.476657	0.000547	5.471832	1.853907	0.000219
 435	4.3183e+01	17.2615	87.702737	0.000567	5.674493	1.922570	0.000227
 436	4.3282e+01	17.3000	87.908631	0.000517	5.167842	1.750912	0.000207
 437	4.3382e+01	17.3402	88.098376	0.000476	4.762521	1.613586	0.000191
 438	4.3481e+01	17.3899	88.280047	0.000456	4.559860	1.544922	0.000183
 439	4.3581e+01	17.4188	88.526312	0.000618	6.181144	2.094228	0.000248
 440	4.3681e+01	17.4637	88.736244	0.000527	5.269172	1.785244	0.000211
 441	4.3780e+01	17.5038	88.934063	0.000497	4.965181	1.682249	0.000199
 442	4.3880e+01	17.5327	89.119771	0.000466	4.661190	1.579254	0.000187
 443	4.3979e+01	17.5760	89.353925	0.000588	5.877153	1.991233	0.000235
 444	4.4078e+01	17.6145	89.547708	0.000486	4.863851	1.647917	0.000195
 445	4.4178e+01	17.6610	89.737453	0.000476	4.762521	1.613586	0.000191
 446	4.4278e+01	17.6883	89.955459	0.000547	5.471832	1.853907	0.000219
 447	4.4377e+01	17.7380	90.181538	0.000567	5.674493	1.922570	0.000227
 448	4.4477e+01	17.7733	90.367246	0.000466	4.661190	1.579254	0.000187
 449	4.4576e+01	17.8214	90.589289	0.000557	5.573162	1.888239	0.000223
 450	4.4675e+01	17.8551	90.779034	0.000476	4.762521	1.613586	0.000191
 451	4.4775e+01	17.8984	90.980891	0.000507	5.066511	1.716581	0.000203
 452	4.4874e+01	17.9257	91.182748	0.000507	5.066511	1.716581	0.000203
 453	4.4974e+01	17.9722	91.408827	0.000567	5.674493	1.922570	0.000227
 454	4.5074e+01	18.0123	91.574350	0.000415	4.154539	1.407596	0.000166
 455	4.5173e+01	18.0572	91.804467	0.000578	5.775823	1.956902	0.000231
 456	4.5273e+01	18.1006	92.022472	0.000547	5.471832	1.853907	0.000219
 457	4.5372e+01	18.1391	92.236440	0.000537	5.370502	1.819575	0.000215
 458	4.5471e+01	18.1808	92.410037	0.000436	4.357200	1.476259	0.000174
 459	4.5571e+01	18.2080	92.636117	0.000567	5.674493	1.922570	0.000227
 460	4.5670e+01	18.2594	92.817788	0.000456	4.559860	1.544922	0.000183
 461	4.5770e+01	18.3027	93.039830	0.000557	5.573162	1.888239	0.000223
 462	4.5870e+01	18.3348	93.253798	0.000537	5.370502	1.819575	0.000215
 463	4.5969e+01	18.3781	93.451618	0.000497	4.965181	1.682249	0.000199
 464	4.6069e+01	18.4150	93.649438	0.000497	4.965181	1.682249	0.000199
 465	4.6168e+01	18.4583	93.835146	0.000466	4.661190	1.579254	0.000187
 466	4.6267e+01	18.4984	94.057188	0.000557	5.573162	1.888239	0.000223
 467	4.6367e+01	18.5321	94.259045	0.000507	5.066511	1.716581	0.000203
 468	4.6467e+01	18.5818	94.452828	0.000486	4.863851	1.647917	0.000195
 469	4.6566e+01	18.6171	94.678907	0.000567	5.674493	1.922570	0.000227
 470	4.6666e+01	18.6492	94.884801	0.000517	5.167842	1.750912	0.000207
 471	4.6765e+01	18.6909	95.058398	0.000436	4.357200	1.476259	0.000174
 472	4.6864e+01	18.7294	95.280441	0.000557	5.573162	1.888239	0.000223
 473	4.6964e+01	18.7759	95.490372	0.000527	5.269172	1.785244	0.000211
 474	4.7063e+01	18.8225	95.684154	0.000486	4.863851	1.647917	0.000195
 475	4.7163e+01	18.8513	95.890048	0.000517	5.167842	1.750912	0.000207
 476	4.7263e+01	18.9043	96.095942	0.000517	5.167842	1.750912	0.000207
 477	4.7362e+01	18.9348	96.305873	0.000527	5.269172	1.785244	0.000211
 478	4.7462e+01	18.9813	96.491581	0.000466	4.661190	1.579254	0.000187
 479	4.7561e+01	19.0086	96.701512	0.000527	5.269172	1.785244	0.000211
 480	4.7660e+01	19.0519	96.891258	0.000476	4.762521	1.613586	0.000191
 481	4.7760e+01	19.0968	97.101189	0.000527	5.269172	1.785244	0.000211
 482	4.7859e+01	19.1401	97.311120	0.000527	5.269172	1.785244	0.000211
 483	4.7959e+01	19.1722	97.512977	0.000507	5.066511	1.716581	0.000203
 484	4.8059e+01	19.2171	97.690611	0.000446	4.458530	1.510591	0.000179
 485	4.8158e+01	19.2572	97.912653	0.000557	5.573162	1.888239	0.000223
 486	4.8258e+01	19.2957	98.130658	0.000547	5.471832	1.853907	0.000219
 487	4.8357e+01	19.3294	98.304255	0.000436	4.357200	1.476259	0.000174
 488	4.8456e+01	19.3743	98.498038	0.000486	4.863851	1.647917	0.000195
 489	4.8556e+01	19.4080	98.716043	0.000547	5.471832	1.853907	0.000219
 490	4.8656e+01	19.4465	98.913863	0.000497	4.965181	1.682249	0.000199
 491	4.8755e+01	19.4946	99.103608	0.000476	4.762521	1.613586	0.000191
 492	4.8855e+01	19.5251	99.301428	0.000497	4.965181	1.682249	0.000199
 493	4.8954e+01	19.5797	99.531544	0.000578	5.775823	1.956902	0.000231
 494	4.9053e+01	19.6134	99.676881	0.000365	3.647888	1.235938	0.000146
 495	4.9153e+01	19.6519	99.915072	0.000598	5.978483	2.025565	0.000239
 496	4.9252e+01	19.6936	100.056372	0.000355	3.546558	1.201606	0.000142
 497	4.9352e+01	19.7305	100.294563	0.000598	5.978483	2.025565	0.000239
 498	4.9452e+01	19.7722	100.496420	0.000507	5.066511	1.716581	0.000203
 499	4.9551e+01	19.8091	100.670017	0.000436	4.357200	1.476259	0.000174
 500	4.9651e+01	19.8412	100.916282	0.000618	6.181144	2.094228	0.000248
 501	4.9750e+01	19.8813	101.077767	0.000405	4.053209	1.373264	0.000162
 502	4.9849e+01	19.9358	101.263476	0.000466	4.661190	1.579254	0.000187
 503	4.9949e+01	19.9647	101.481481	0.000547	5.471832	1.853907	0.000219
 504	5.0048e+01	19.9326	101.525890	-0.000111	-1.114632	-0.377648	0.000045
 505	5.0148e+01	19.8957	101.517815	0.000020	0.202660	0.068663	-0.000008
 506	5.0248e+01	19.8508	101.517815	-0.000000	-0.000000	-0.000000	0.000000
 507	5.0347e+01	19.8075	101.562224	-0.000111	-1.114632	-0.377648	0.000045
 508	5.0447e+01	19.7674	101.538001	0.000061	0.607981	0.205990	-0.000024
 509	5.0546e+01	19.7289	101.562224	-0.000061	-0.607981	-0.205990	0.000024
 510	5.0645e+01	19.6871	101.546075	0.000041	0.405321	0.137326	-0.000016
 511	5.0745e+01	19.6551	101.505704	0.000101	1.013302	0.343316	-0.000041
 512	5.0844e+01	19.6101	101.485518	0.000051	0.506651	0.171658	-0.000020
 513	5.0944e+01	19.5732	101.501667	-0.000041	-0.405321	-0.137326	0.000016
 514	5.1044e+01	19.5396	101.481481	0.000051	0.506651	0.171658	-0.000020
 515	5.1143e+01	19.4978	101.437073	0.000111	1.114632	0.377648	-0.000045
 516	5.1242e+01	19.4561	101.404775	0.000081	0.810642	0.274653	-0.000032
 517	5.1342e+01	19.4064	101.336144	0.000172	1.722614	0.583637	-0.000069
 518	5.1441e+01	19.3695	101.348256	-0.000030	-0.303991	-0.102995	0.000012
 519	5.1541e+01	19.3278	101.315958	0.000081	0.810642	0.274653	-0.000032
 520	5.1641e+01	19.2957	101.275587	0.000101	1.013302	0.343316	-0.000041
 521	5.1740e+01	19.2556	101.227141	0.000122	1.215963	0.411979	-0.000049
 522	5.1840e+01	19.2155	101.202919	0.000061	0.607981	0.205990	-0.000024
 523	5.1939e+01	19.1818	101.170622	0.000081	0.810642	0.274653	-0.000032
 524	5.2038e+01	19.1337	101.097953	0.000182	1.823944	0.617969	-0.000073
 525	5.2138e+01	19.0936	101.085842	0.000030	0.303991	0.102995	-0.000012
 526	5.2237e+01	19.0519	101.041433	0.000111	1.114632	0.377648	-0.000045
 527	5.2337e+01	19.0198	100.960691	0.000203	2.026605	0.686632	-0.000081
 528	5.2437e+01	18.9813	100.968765	-0.000020	-0.202660	-0.068663	0.000008
 529	5.2536e+01	18.9283	100.888022	0.000203	2.026605	0.686632	-0.000081
 530	5.2636e+01	18.8979	100.811317	0.000193	1.925274	0.652301	-0.000077
 531	5.2735e+01	18.8545	100.787094	0.000061	0.607981	0.205990	-0.000024
 532	5.2834e+01	18.8128	100.738648	0.000122	1.215963	0.411979	-0.000049
 533	5.2934e+01	18.7791	100.678091	0.000152	1.519953	0.514974	-0.000061
 534	5.3033e+01	18.7406	100.601385	0.000193	1.925274	0.652301	-0.000077
 535	5.3133e+01	18.6861	100.565051	0.000091	0.911972	0.308984	-0.000037
 536	5.3233e+01	18.6492	100.508531	0.000142	1.418623	0.480643	-0.000057
 537	5.3332e+01	18.6139	100.399529	0.000274	2.735916	0.926953	-0.000110
 538	5.3431e+01	18.5722	100.411640	-0.000030	-0.303991	-0.102995	0.000012
 539	5.3531e+01	18.5401	100.318786	0.000233	2.330595	0.789627	-0.000093
 540	5.3630e+01	18.4984	100.234006	0.000213	2.127935	0.720964	-0.000085
 541	5.3730e+01	18.4567	100.189598	0.000111	1.114632	0.377648	-0.000045
 542	5.3830e+01	18.4182	100.125003	0.000162	1.621284	0.549306	-0.000065
 543	5.3929e+01	18.3781	100.060409	0.000162	1.621284	0.549306	-0.000065
 544	5.4029e+01	18.3316	99.967555	0.000233	2.330595	0.789627	-0.000093
 545	5.4128e+01	18.2963	99.902961	0.000162	1.621284	0.549306	-0.000065
 546	5.4227e+01	18.2626	99.858552	0.000111	1.114632	0.377648	-0.000045
 547	5.4327e+01	18.2096	99.753587	0.000263	2.634586	0.892622	-0.000105
 548	5.4426e+01	18.1760	99.725327	0.000071	0.709312	0.240321	-0.000028
 549	5.4526e+01	18.1407	99.620361	0.000263	2.634586	0.892622	-0.000105
 550	5.4626e+01	18.0974	99.547693	0.000182	1.823944	0.617969	-0.000073
 551	5.4725e+01	18.0572	99.487136	0.000152	1.519953	0.514974	-0.000061
 552	5.4825e+01	18.0171	99.422542	0.000162	1.621284	0.549306	-0.000065
 553	5.4924e+01	17.9834	99.305465	0.000294	2.938577	0.995617	-0.000118
 554	5.5023e+01	17.9337	99.265094	0.000101	1.013302	0.343316	-0.000041
 555	5.5123e+01	17.9000	99.200499	0.000162	1.621284	0.549306	-0.000065
 556	5.5222e+01	17.8583	99.079385	0.000304	3.039907	1.029948	-0.000122
 557	5.5322e+01	17.8214	99.043051	0.000091	0.911972	0.308984	-0.000037
 558	5.5422e+01	17.7701	98.950197	0.000233	2.330595	0.789627	-0.000093
 559	5.5521e+01	17.7364	98.845231	0.000263	2.634586	0.892622	-0.000105
 560	5.5620e+01	17.7011	98.760452	0.000213	2.127935	0.720964	-0.000085
 561	5.5720e+01	17.6626	98.687783	0.000182	1.823944	0.617969	-0.000073
 562	5.5819e+01	17.6113	98.627226	0.000152	1.519953	0.514974	-0.000061
 563	5.5919e+01	17.5808	98.542446	0.000213	2.127935	0.720964	-0.000085
 564	5.6019e+01	17.5455	98.437481	0.000263	2.634586	0.892622	-0.000105
 565	5.6118e+01	17.4990	98.348664	0.000223	2.229265	0.755295	-0.000089
 566	5.6218e+01	17.4637	98.263884	0.000213	2.127935	0.720964	-0.000085
 567	5.6317e+01	17.4204	98.138733	0.000314	3.141237	1.064280	-0.000126
 568	5.6416e+01	17.3690	98.114510	0.000061	0.607981	0.205990	-0.000024
 569	5.6516e+01	17.3337	98.021656	0.000233	2.330595	0.789627	-0.000093
 570	5.6615e+01	17.3033	97.924764	0.000243	2.431925	0.823959	-0.000097
 571	5.6715e+01	17.2535	97.795576	0.000324	3.242567	1.098612	-0.000130
 572	5.6815e+01	17.2230	97.730982	0.000162	1.621284	0.549306	-0.000065
 573	5.6914e+01	17.1829	97.630054	0.000253	2.533256	0.858290	-0.000101
 574	5.7014e+01	17.1412	97.557385	0.000182	1.823944	0.617969	-0.000073
 575	5.7113e+01	17.0931	97.464531	0.000233	2.330595	0.789627	-0.000093
 576	5.7212e+01	17.0658	97.371677	0.000233	2.330595	0.789627	-0.000093
 577	5.7312e+01	17.0225	97.246526	0.000314	3.141237	1.064280	-0.000126
 578	5.7411e+01	16.9776	97.181931	0.000162	1.621284	0.549306	-0.000065
 579	5.7511e+01	16.9423	97.076966	0.000263	2.634586	0.892622	-0.000105
 580	5.7611e+01	16.8958	96.984112	0.000233	2.330595	0.789627	-0.000093
 581	5.7710e+01	16.8621	96.903369	0.000203	2.026605	0.686632	-0.000081
 582	5.7809e+01	16.8220	96.794366	0.000274	2.735916	0.926953	-0.000110
 583	5.7909e+01	16.7706	96.717661	0.000193	1.925274	0.652301	-0.000077
 584	5.8008e+01	16.7434	96.640955	0.000193	1.925274	0.652301	-0.000077
 585	5.8108e+01	16.7033	96.535990	0.000263	2.634586	0.892622	-0.000105
 586	5.8208e+01	16.6600	96.431024	0.000263	2.634586	0.892622	-0.000105
 587	5.8307e+01	16.6247	96.366430	0.000162	1.621284	0.549306	-0.000065
 588	5.8407e+01	16.5894	96.225130	0.000355	3.546558	1.201606	-0.000142
 589	5.8506e+01	16.5428	96.144388	0.000203	2.026605	0.686632	-0.000081
 590	5.8605e+01	16.5011	96.019236	0.000314	3.141237	1.064280	-0.000126
 591	5.8705e+01	16.4642	95.958679	0.000152	1.519953	0.514974	-0.000061
 592	5.8804e+01	16.4241	95.877937	0.000203	2.026605	0.686632	-0.000081
 593	5.8904e+01	16.3760	95.744711	0.000334	3.343897	1.132943	-0.000134
 594	5.9004e+01	16.3423	95.643783	0.000253	2.533256	0.858290	-0.000101
 595	5.9103e+01	16.3150	95.522669	0.000304	3.039907	1.029948	-0.000122
 596	5.9203e+01	16.2669	95.433852	0.000223	2.229265	0.755295	-0.000089
 597	5.9302e+01	16.2172	95.304663	0.000324	3.242567	1.098612	-0.000130
 598	5.9401e+01	16.1851	95.203735	0.000253	2.533256	0.858290	-0.000101
 599	5.9501e+01	16.1514	95.151252	0.000132	1.317293	0.446311	-0.000053
 600	5.9600e+01	16.1065	95.034175	0.000294	2.938577	0.995617	-0.000118
 601	5.9700e+01	16.0680	94.925173	0.000274	2.735916	0.926953	-0.000110
 602	5.9800e+01	16.0407	94.828281	0.000243	2.431925	0.823959	-0.000097
 603	5.9899e+01	15.9830	94.691019	0.000345	3.445228	1.167275	-0.000138
 604	5.9998e+01	15.9445	94.561830	0.000324	3.242567	1.098612	-0.000130
 605	6.0098e+01	15.9060	94.505310	0.000142	1.418623	0.480643	-0.000057
 606	6.0197e+01	15.8707	94.380159	0.000314	3.141237	1.064280	-0.000126
 607	6.0297e+01	15.8258	94.287305	0.000233	2.330595	0.789627	-0.000093
 608	6.0397e+01	15.7921	94.150043	0.000345	3.445228	1.167275	-0.000138
 609	6.0496e+01	15.7423	94.049114	0.000253	2.533256	0.858290	-0.000101
 610	6.0596e+01	15.7086	93.932037	0.000294	2.938577	0.995617	-0.000118
 611	6.0695e+01	15.6701	93.839183	0.000233	2.330595	0.789627	-0.000093
 612	6.0794e+01	15.6284	93.705958	0.000334	3.343897	1.132943	-0.000134
 613	6.0894e+01	15.5835	93.649438	0.000142	1.418623	0.480643	-0.000057
 614	6.0993e+01	15.5482	93.487952	0.000405	4.053209	1.373264	-0.000162
 615	6.1093e+01	15.5017	93.391061	0.000243	2.431925	0.823959	-0.000097
 616	6.1193e+01	15.4776	93.286095	0.000263	2.634586	0.892622	-0.000105
 617	6.1292e+01	15.4279	93.193241	0.000233	2.330595	0.789627	-0.000093
 618	6.1392e+01	15.3830	93.051942	0.000355	3.546558	1.201606	-0.000142
 619	6.1491e+01	15.3493	92.930828	0.000304	3.039907	1.029948	-0.000122
 620	6.1590e+01	15.3076	92.801639	0.000324	3.242567	1.098612	-0.000130
 621	6.1690e+01	15.2611	92.672451	0.000324	3.242567	1.098612	-0.000130
 622	6.1789e+01	15.2226	92.587671	0.000213	2.127935	0.720964	-0.000085
 623	6.1889e+01	15.1953	92.410037	0.000446	4.458530	1.510591	-0.000179
 624	6.1989e+01	15.1391	92.325257	0.000213	2.127935	0.720964	-0.000085
 625	6.2088e+01	15.1119	92.240477	0.000213	2.127935	0.720964	-0.000085
 626	6.2188e+01	15.0734	92.078992	0.000405	4.053209	1.373264	-0.000162
 627	6.2287e+01	15.0317	92.002286	0.000193	1.925274	0.652301	-0.000077
 628	6.2386e+01	14.9900	91.856949	0.000365	3.647888	1.235938	-0.000146
 629	6.2486e+01	14.9434	91.735835	0.000304	3.039907	1.029948	-0.000122
 630	6.2586e+01	14.9113	91.651056	0.000213	2.127935	0.720964	-0.000085
 631	6.2685e+01	14.8648	91.489570	0.000405	4.053209	1.373264	-0.000162
 632	6.2785e+01	14.8343	91.396716	0.000233	2.330595	0.789627	-0.000093
 633	6.2884e+01	14.7974	91.243305	0.000385	3.850549	1.304601	-0.000154
 634	6.2983e+01	14.7525	91.154488	0.000223	2.229265	0.755295	-0.000089
 635	6.3083e+01	14.7092	91.029337	0.000314	3.141237	1.064280	-0.000126
 636	6.3182e+01	14.6771	90.859777	0.000426	4.255870	1.441928	-0.000170
 637	6.3282e+01	14.6306	90.726551	0.000334	3.343897	1.132943	-0.000134
 638	6.3382e+01	14.5905	90.649846	0.000193	1.925274	0.652301	-0.000077
 639	6.3481e+01	14.5440	90.516620	0.000334	3.343897	1.132943	-0.000134
 640	6.3581e+01	14.5023	90.379358	0.000345	3.445228	1.167275	-0.000138
 641	6.3680e+01	14.4718	90.278429	0.000253	2.533256	0.858290	-0.000101
 642	6.3779e+01	14.4237	90.133092	0.000365	3.647888	1.235938	-0.000146
 643	6.3879e+01	14.3996	90.007941	0.000314	3.141237	1.064280	-0.000126
 644	6.3978e+01	14.3450	89.902976	0.000263	2.634586	0.892622	-0.000105
 645	6.4078e+01	14.3098	89.773787	0.000324	3.242567	1.098612	-0.000130
 646	6.4177e+01	14.2761	89.652673	0.000304	3.039907	1.029948	-0.000122
 647	6.4277e+01	14.2328	89.527522	0.000314	3.141237	1.064280	-0.000126
 648	6.4376e+01	14.1926	89.382185	0.000365	3.647888	1.235938	-0.000146
 649	6.4476e+01	14.1654	89.269145	0.000284	2.837246	0.961285	-0.000114
 650	6.4576e+01	14.1092	89.131883	0.000345	3.445228	1.167275	-0.000138
 651	6.4675e+01	14.0707	89.022880	0.000274	2.735916	0.926953	-0.000110
 652	6.4775e+01	14.0210	88.881580	0.000355	3.546558	1.201606	-0.000142
 653	6.4874e+01	13.9953	88.784689	0.000243	2.431925	0.823959	-0.000097
 654	6.4974e+01	13.9456	88.607055	0.000446	4.458530	1.510591	-0.000179
 655	6.5073e+01	13.9183	88.485941	0.000304	3.039907	1.029948	-0.000122
 656	6.5172e+01	13.8638	88.340604	0.000365	3.647888	1.235938	-0.000146
 657	6.5272e+01	13.8349	88.223527	0.000294	2.938577	0.995617	-0.000118
 658	6.5371e+01	13.7916	88.078190	0.000365	3.647888	1.235938	-0.000146
 659	6.5471e+01	13.7451	87.916705	0.000405	4.053209	1.373264	-0.000162
 660	6.5570e+01	13.7066	87.839999	0.000193	1.925274	0.652301	-0.000077
 661	6.5670e+01	13.6809	87.678514	0.000405	4.053209	1.373264	-0.000162
 662	6.5769e+01	13.6312	87.529140	0.000375	3.749218	1.270270	-0.000150
 663	6.5869e+01	13.5879	87.375729	0.000385	3.850549	1.304601	-0.000154
 664	6.5969e+01	13.5542	87.266726	0.000274	2.735916	0.926953	-0.000110
 665	6.6068e+01	13.5141	87.125426	0.000355	3.546558	1.201606	-0.000142
 666	6.6168e+01	13.4707	86.980089	0.000365	3.647888	1.235938	-0.000146
 667	6.6267e+01	13.4322	86.822641	0.000395	3.951879	1.338933	-0.000158
 668	6.6367e+01	13.4034	86.713639	0.000274	2.735916	0.926953	-0.000110
 669	6.6466e+01	13.3552	86.616747	0.000243	2.431925	0.823959	-0.000097
 670	6.6566e+01	13.3135	86.390668	0.000567	5.674493	1.922570	-0.000227
 671	6.6665e+01	13.2734	86.273591	0.000294	2.938577	0.995617	-0.000118
 672	6.6764e+01	13.2397	86.156514	0.000294	2.938577	0.995617	-0.000118
 673	6.6864e+01	13.1980	86.011177	0.000365	3.647888	1.235938	-0.000146
 674	6.6963e+01	13.1483	85.841617	0.000426	4.255870	1.441928	-0.000170
 675	6.7063e+01	13.1178	85.704355	0.000345	3.445228	1.167275	-0.000138
 676	6.7162e+01	13.0793	85.563055	0.000355	3.546558	1.201606	-0.000142
 677	6.7262e+01	13.0312	85.401569	0.000405	4.053209	1.373264	-0.000162
 678	6.7362e+01	13.0007	85.264307	0.000345	3.445228	1.167275	-0.000138
 679	6.7461e+01	12.9638	85.118970	0.000365	3.647888	1.235938	-0.000146
 680	6.7561e+01	12.9237	85.001893	0.000294	2.938577	0.995617	-0.000118
 681	6.7660e+01	12.8740	84.868667	0.000334	3.343897	1.132943	-0.000134
 682	6.7760e+01	12.8355	84.695071	0.000436	4.357200	1.476259	-0.000174
 683	6.7859e+01	12.7970	84.561845	0.000334	3.343897	1.132943	-0.000134
 684	6.7959e+01	12.7633	84.416508	0.000365	3.647888	1.235938	-0.000146
 685	6.8058e+01	12.7200	84.259060	0.000395	3.951879	1.338933	-0.000158
 686	6.8157e+01	12.6863	84.129872	0.000324	3.242567	1.098612	-0.000130
 687	6.8257e+01	12.6446	83.980498	0.000375	3.749218	1.270270	-0.000150
 688	6.8356e+01	12.6061	83.802864	0.000446	4.458530	1.510591	-0.000179
 689	6.8456e+01	12.5531	83.681750	0.000304	3.039907	1.029948	-0.000122
 690	6.8555e+01	12.5194	83.540450	0.000355	3.546558	1.201606	-0.000142
 691	6.8655e+01	12.4825	83.378964	0.000405	4.053209	1.373264	-0.000162
 692	6.8754e+01	12.4360	83.249776	0.000324	3.242567	1.098612	-0.000130
 693	6.8854e+01	12.3975	83.096365	0.000385	3.850549	1.304601	-0.000154
 694	6.8954e+01	12.3654	82.930842	0.000415	4.154539	1.407596	-0.000166
 695	6.9053e+01	12.3173	82.785505	0.000365	3.647888	1.235938	-0.000146
 696	6.9153e+01	12.2884	82.619983	0.000415	4.154539	1.407596	-0.000166
 697	6.9252e+01	12.2435	82.458497	0.000405	4.053209	1.373264	-0.000162
 698	6.9352e+01	12.2066	82.361606	0.000243	2.431925	0.823959	-0.000097
 699	6.9451e+01	12.1649	82.188009	0.000436	4.357200	1.476259	-0.000174
 700	6.9550e+01	12.1216	82.038635	0.000375	3.749218	1.270270	-0.000150
 701	6.9650e+01	12.0767	81.873113	0.000415	4.154539	1.407596	-0.000166
 702	6.9749e+01	12.0398	81.719702	0.000385	3.850549	1.304601	-0.000154
 703	6.9849e+01	12.0013	81.521882	0.000497	4.965181	1.682249	-0.000199
 704	6.9948e+01	11.9676	81.420954	0.000253	2.533256	0.858290	-0.000101
 705	7.0048e+01	11.9194	81.223134	0.000497	4.965181	1.682249	-0.000199
 706	7.0147e+01	11.8842	81.114131	0.000274	2.735916	0.926953	-0.000110
 707	7.0247e+01	11.8312	80.964757	0.000375	3.749218	1.270270	-0.000150
 708	7.0347e+01	11.7991	80.807309	0.000395	3.951879	1.338933	-0.000158
 709	7.0446e+01	11.7719	80.666009	0.000355	3.546558	1.201606	-0.000142
 710	7.0546e+01	11.7173	80.464152	0.000507	5.066511	1.716581	-0.000203
 711	7.0645e+01	11.6820	80.351113	0.000284	2.837246	0.961285	-0.000114
 712	7.0745e+01	11.6467	80.169441	0.000456	4.559860	1.544922	-0.000183
 713	7.0844e+01	11.6066	80.020067	0.000375	3.749218	1.270270	-0.000150
 714	7.0944e+01	11.5585	79.830322	0.000476	4.762521	1.613586	-0.000191
 715	7.1043e+01	11.5280	79.705171	0.000314	3.141237	1.064280	-0.000126
 716	7.1142e+01	11.4767	79.523500	0.000456	4.559860	1.544922	-0.000183
 717	7.1242e+01	11.4446	79.382200	0.000355	3.546558	1.201606	-0.000142
 718	7.1341e+01	11.3981	79.228789	0.000385	3.850549	1.304601	-0.000154
 719	7.1441e+01	11.3580	79.079415	0.000375	3.749218	1.270270	-0.000150
 720	7.1540e+01	11.3259	78.913892	0.000415	4.154539	1.407596	-0.000166
 721	7.1640e+01	11.2810	78.768555	0.000365	3.647888	1.235938	-0.000146
 722	7.1740e+01	11.2441	78.570736	0.000497	4.965181	1.682249	-0.000199
 723	7.1839e+01	11.2136	78.449622	0.000304	3.039907	1.029948	-0.000122
 724	7.1939e+01	11.1671	78.280062	0.000426	4.255870	1.441928	-0.000170
 725	7.2038e+01	11.1238	78.118577	0.000405	4.053209	1.373264	-0.000162
 726	7.2138e+01	11.0852	77.949017	0.000426	4.255870	1.441928	-0.000170
 727	7.2237e+01	11.0467	77.759271	0.000476	4.762521	1.613586	-0.000191
 728	7.2337e+01	11.0034	77.601823	0.000395	3.951879	1.338933	-0.000158
 729	7.2436e+01	10.9665	77.440338	0.000405	4.053209	1.373264	-0.000162
 730	7.2535e+01	10.9216	77.311149	0.000324	3.242567	1.098612	-0.000130
 731	7.2635e+01	10.8815	77.101218	0.000527	5.269172	1.785244	-0.000211
 732	7.2734e+01	10.8430	76.935696	0.000415	4.154539	1.407596	-0.000166
 733	7.2834e+01	10.8077	76.778247	0.000395	3.951879	1.338933	-0.000158
 734	7.2933e+01	10.7644	76.612725	0.000415	4.154539	1.407596	-0.000166
 735	7.3033e+01	10.7227	76.447202	0.000415	4.154539	1.407596	-0.000166
 736	7.3132e+01	10.6906	76.265531	0.000456	4.559860	1.544922	-0.000183
 737	7.3232e+01	10.6409	76.116157	0.000375	3.749218	1.270270	-0.000150
 738	7.3332e+01	10.6056	75.958709	0.000395	3.951879	1.338933	-0.000158
 739	7.3431e+01	10.5719	75.744741	0.000537	5.370502	1.819575	-0.000215
 740	7.3531e+01	10.5238	75.587292	0.000395	3.951879	1.338933	-0.000158
 741	7.3630e+01	10.4933	75.437918	0.000375	3.749218	1.270270	-0.000150
 742	7.3730e+01	10.4484	75.264322	0.000436	4.357200	1.476259	-0.000174
 743	7.3829e+01	10.4147	75.118985	0.000365	3.647888	1.235938	-0.000146
 744	7.3928e+01	10.3569	74.949425	0.000426	4.255870	1.441928	-0.000170
 745	7.4028e+01	10.3232	74.787940	0.000405	4.053209	1.373264	-0.000162
 746	7.4127e+01	10.2863	74.586083	0.000507	5.066511	1.716581	-0.000203
 747	7.4227e+01	10.2543	74.424597	0.000405	4.053209	1.373264	-0.000162
 748	7.4326e+01	10.2029	74.259075	0.000415	4.154539	1.407596	-0.000166
 749	7.4426e+01	10.1628	74.097589	0.000405	4.053209	1.373264	-0.000162
 750	7.4525e+01	10.1291	73.903807	0.000486	4.863851	1.647917	-0.000195
 751	7.4625e+01	10.0890	73.754433	0.000375	3.749218	1.270270	-0.000150
 752	7.4725e+01	10.0489	73.609096	0.000365	3.647888	1.235938	-0.000146
 753	7.4824e+01	10.0088	73.439536	0.000426	4.255870	1.441928	-0.000170
 754	7.4924e+01	9.9655	73.257865	0.000456	4.559860	1.544922	-0.000183
 755	7.5023e+01	9.9366	73.060045	0.000497	4.965181	1.682249	-0.000199
 756	7.5123e+01	9.8949	72.914709	0.000365	3.647888	1.235938	-0.000146
 757	7.5222e+01	9.8436	72.765335	0.000375	3.749218	1.270270	-0.000150
 758	7.5322e+01	9.8051	72.559441	0.000517	5.167842	1.750912	-0.000207
 759	7.5421e+01	9.7746	72.385844	0.000436	4.357200	1.476259	-0.000174
 760	7.5520e+01	9.7329	72.196098	0.000476	4.762521	1.613586	-0.000191
 761	7.5620e+01	9.6848	72.054799	0.000355	3.546558	1.201606	-0.000142
 762	7.5719e+01	9.6446	71.905425	0.000375	3.749218	1.270270	-0.000150
 763	7.5819e+01	9.6142	71.739902	0.000415	4.154539	1.407596	-0.000166
 764	7.5918e+01	9.5725	71.554194	0.000466	4.661190	1.579254	-0.000187
 765	7.6018e+01	9.5275	71.348300	0.000517	5.167842	1.750912	-0.000207
 766	7.6118e+01	9.4922	71.190852	0.000395	3.951879	1.338933	-0.000158
 767	7.6217e+01	9.4537	70.976883	0.000537	5.370502	1.819575	-0.000215
 768	7.6317e+01	9.4136	70.831547	0.000365	3.647888	1.235938	-0.000146
 769	7.6416e+01	9.3767	70.666024	0.000415	4.154539	1.407596	-0.000166
 770	7.6516e+01	9.3302	70.460130	0.000517	5.167842	1.750912	-0.000207
 771	7.6615e+01	9.2869	70.286533	0.000436	4.357200	1.476259	-0.000174
 772	7.6715e+01	9.2468	70.104862	0.000456	4.559860	1.544922	-0.000183
 773	7.6814e+01	9.2147	69.971637	0.000334	3.343897	1.132943	-0.000134
 774	7.6913e+01	9.1746	69.794003	0.000446	4.458530	1.510591	-0.000179
 775	7.7013e+01	9.1345	69.588109	0.000517	5.167842	1.750912	-0.000207
 776	7.7112e+01	9.0928	69.390289	0.000497	4.965181	1.682249	-0.000199
 777	7.7212e+01	9.0479	69.228804	0.000405	4.053209	1.373264	-0.000162
 778	7.7311e+01	9.0078	69.047133	0.000456	4.559860	1.544922	-0.000183
 779	7.7411e+01	8.9757	68.849313	0.000497	4.965181	1.682249	-0.000199
 780	7.7510e+01	8.9260	68.695902	0.000385	3.850549	1.304601	-0.000154
 781	7.7610e+01	8.8923	68.494045	0.000507	5.066511	1.716581	-0.000203
 782	7.7710e+01	8.8538	68.324485	0.000426	4.255870	1.441928	-0.000170
 783	7.7809e+01	8.8201	68.122628	0.000507	5.066511	1.716581	-0.000203
 784	7.7909e+01	8.7687	67.953069	0.000426	4.255870	1.441928	-0.000170
 785	7.8008e+01	8.7286	67.783509	0.000426	4.255870	1.441928	-0.000170
 786	7.8108e+01	8.6965	67.589727	0.000486	4.863851	1.647917	-0.000195
 787	7.8207e+01	8.6564	67.395944	0.000486	4.863851	1.647917	-0.000195
 788	7.8306e+01	8.6195	67.210236	0.000466	4.661190	1.579254	-0.000187
 789	7.8406e+01	8.5682	67.032602	0.000446	4.458530	1.510591	-0.000179
 790	7.8505e+01	8.5393	66.863042	0.000426	4.255870	1.441928	-0.000170
 791	7.8605e+01	8.4992	66.689445	0.000436	4.357200	1.476259	-0.000174
 792	7.8704e+01	8.4527	66.471440	0.000547	5.471832	1.853907	-0.000219
 793	7.8804e+01	8.4046	66.273620	0.000497	4.965181	1.682249	-0.000199
 794	7.8903e+01	8.3773	66.128283	0.000365	3.647888	1.235938	-0.000146
 795	7.9003e+01	8.3308	65.906241	0.000557	5.573162	1.888239	-0.000223
 796	7.9103e+01	8.2955	65.748793	0.000395	3.951879	1.338933	-0.000158
 797	7.9202e+01	8.2506	65.534824	0.000537	5.370502	1.819575	-0.000215
 798	7.9302e+01	8.2089	65.377376	0.000395	3.951879	1.338933	-0.000158
 799	7.9401e+01	8.1720	65.167445	0.000527	5.269172	1.785244	-0.000211
 800	7.9501e+01	8.1367	64.961551	0.000517	5.167842	1.750912	-0.000207
 801	7.9600e+01	8.1046	64.796029	0.000415	4.154539	1.407596	-0.000166
 802	7.9700e+01	8.0436	64.602246	0.000486	4.863851	1.647917	-0.000195
 803	7.9799e+01	8.0196	64.388278	0.000537	5.370502	1.819575	-0.000215
 804	7.9898e+01	7.9730	64.174310	0.000537	5.370502	1.819575	-0.000215
 805	7.9998e+01	7.9345	64.024936	0.000375	3.749218	1.270270	-0.000150
 806	8.0097e+01	7.8912	63.790782	0.000588	5.877153	1.991233	-0.000235
 807	8.0197e+01	7.8543	63.601036	0.000476	4.762521	1.613586	-0.000191
 808	8.0296e+01	7.8094	63.459737	0.000355	3.546558	1.201606	-0.000142
 809	8.0396e+01	7.7709	63.282103	0.000446	4.458530	1.510591	-0.000179
 810	8.0496e+01	7.7388	63.072172	0.000527	5.269172	1.785244	-0.000211
 811	8.0595e+01	7.6827	62.870315	0.000507	5.066511	1.716581	-0.000203
 812	8.0695e+01	7.6650	62.688644	0.000456	4.559860	1.544922	-0.000183
 813	8.0794e+01	7.6169	62.490824	0.000497	4.965181	1.682249	-0.000199
 814	8.0894e+01	7.5768	62.297042	0.000486	4.863851	1.647917	-0.000195
 815	8.0993e+01	7.5335	62.083073	0.000537	5.370502	1.819575	-0.000215
 816	8.1093e+01	7.4982	61.881217	0.000507	5.066511	1.716581	-0.000203
 817	8.1192e+01	7.4517	61.739917	0.000355	3.546558	1.201606	-0.000142
 818	8.1291e+01	7.4164	61.481540	0.000649	6.485134	2.197223	-0.000260
 819	8.1391e+01	7.3811	61.320055	0.000405	4.053209	1.373264	-0.000162
 820	8.1490e+01	7.3362	61.085901	0.000588	5.877153	1.991233	-0.000235
 821	8.1590e+01	7.3025	60.924415	0.000405	4.053209	1.373264	-0.000162
 822	8.1689e+01	7.2543	60.734670	0.000476	4.762521	1.613586	-0.000191
 823	8.1789e+01	7.2190	60.504553	0.000578	5.775823	1.956902	-0.000231
 824	8.1888e+01	7.1822	60.334994	0.000426	4.255870	1.441928	-0.000170
 825	8.1988e+01	7.1308	60.125063	0.000527	5.269172	1.785244	-0.000211
 826	8.2088e+01	7.0987	59.943391	0.000456	4.559860	1.544922	-0.000183
 827	8.2187e+01	7.0650	59.741535	0.000507	5.066511	1.716581	-0.000203
 828	8.2287e+01	7.0217	59.539678	0.000507	5.066511	1.716581	-0.000203
 829	8.2386e+01	6.9864	59.309561	0.000578	5.775823	1.956902	-0.000231
 830	8.2486e+01	6.9399	59.123853	0.000466	4.661190	1.579254	-0.000187
 831	8.2585e+01	6.8966	58.917959	0.000517	5.167842	1.750912	-0.000207
 832	8.2684e+01	6.8613	58.728214	0.000476	4.762521	1.613586	-0.000191
 833	8.2784e+01	6.8276	58.518283	0.000527	5.269172	1.785244	-0.000211
 834	8.2883e+01	6.7811	58.328537	0.000476	4.762521	1.613586	-0.000191
 835	8.2983e+01	6.7490	58.098420	0.000578	5.775823	1.956902	-0.000231
 836	8.3082e+01	6.7057	57.904638	0.000486	4.863851	1.647917	-0.000195
 837	8.3182e+01	6.6608	57.698744	0.000517	5.167842	1.750912	-0.000207
 838	8.3281e+01	6.6255	57.460553	0.000598	5.978483	2.025565	-0.000239
 839	8.3381e+01	6.5822	57.303105	0.000395	3.951879	1.338933	-0.000158
 840	8.3481e+01	6.5437	57.064914	0.000598	5.978483	2.025565	-0.000239
 841	8.3580e+01	6.5036	56.867094	0.000497	4.965181	1.682249	-0.000199
 842	8.3680e+01	6.4602	56.665237	0.000507	5.066511	1.716581	-0.000203
 843	8.3779e+01	6.4121	56.459343	0.000517	5.167842	1.750912	-0.000207
 844	8.3879e+01	6.3881	56.225189	0.000588	5.877153	1.991233	-0.000235
 845	8.3978e+01	6.3512	56.015258	0.000527	5.269172	1.785244	-0.000211
 846	8.4078e+01	6.3078	55.829550	0.000466	4.661190	1.579254	-0.000187
 847	8.4177e+01	6.2629	55.579248	0.000628	6.282474	2.128560	-0.000252
 848	8.4276e+01	6.2292	55.413725	0.000415	4.154539	1.407596	-0.000166
 849	8.4376e+01	6.1859	55.187646	0.000567	5.674493	1.922570	-0.000227
 850	8.4475e+01	6.1362	55.018086	0.000426	4.255870	1.441928	-0.000170
 851	8.4575e+01	6.1041	54.792006	0.000567	5.674493	1.922570	-0.000227
 852	8.4674e+01	6.0624	54.574001	0.000547	5.471832	1.853907	-0.000219
 853	8.4774e+01	6.0239	54.343884	0.000578	5.775823	1.956902	-0.000231
 854	8.4874e+01	5.9806	54.121842	0.000557	5.573162	1.888239	-0.000223
 855	8.4973e+01	5.9469	53.924022	0.000497	4.965181	1.682249	-0.000199
 856	8.5073e+01	5.9052	53.706017	0.000547	5.471832	1.853907	-0.000219
 857	8.5172e+01	5.8603	53.463789	0.000608	6.079814	2.059897	-0.000243
 858	8.5272e+01	5.8298	53.237709	0.000567	5.674493	1.922570	-0.000227
 859	8.5371e+01	5.7897	53.100446	0.000345	3.445228	1.167275	-0.000138
 860	8.5471e+01	5.7464	52.829958	0.000679	6.789125	2.300218	-0.000272
 861	8.5570e+01	5.7030	52.652324	0.000446	4.458530	1.510591	-0.000179
 862	8.5669e+01	5.6694	52.389910	0.000659	6.586465	2.231555	-0.000264
 863	8.5769e+01	5.6293	52.224388	0.000415	4.154539	1.407596	-0.000166
 864	8.5868e+01	5.5859	52.010420	0.000537	5.370502	1.819575	-0.000215
 865	8.5968e+01	5.5506	51.772229	0.000598	5.978483	2.025565	-0.000239
 866	8.6067e+01	5.5105	51.562298	0.000527	5.269172	1.785244	-0.000211
 867	8.6167e+01	5.4592	51.380627	0.000456	4.559860	1.544922	-0.000183
 868	8.6266e+01	5.4207	51.162621	0.000547	5.471832	1.853907	-0.000219
 869	8.6366e+01	5.3902	50.920393	0.000608	6.079814	2.059897	-0.000243
 870	8.6466e+01	5.3565	50.698351	0.000557	5.573162	1.888239	-0.000223
 871	8.6565e+01	5.3068	50.476308	0.000557	5.573162	1.888239	-0.000223
 872	8.6665e+01	5.2667	50.306748	0.000426	4.255870	1.441928	-0.000170
 873	8.6764e+01	5.2250	50.048372	0.000649	6.485134	2.197223	-0.000260
 874	8.6864e+01	5.1849	49.834404	0.000537	5.370502	1.819575	-0.000215
 875	8.6963e+01	5.1528	49.644658	0.000476	4.762521	1.613586	-0.000191
 876	8.7063e+01	5.1015	49.390319	0.000638	6.383804	2.162891	-0.000256
 877	8.7162e+01	5.0630	49.176350	0.000537	5.370502	1.819575	-0.000215
 878	8.7261e+01	5.0325	48.962382	0.000537	5.370502	1.819575	-0.000215
 879	8.7361e+01	4.9860	48.716117	0.000618	6.181144	2.094228	-0.000248
 880	8.7460e+01	4.9458	48.510223	0.000517	5.167842	1.750912	-0.000207
 881	8.7560e+01	4.9122	48.288181	0.000557	5.573162	1.888239	-0.000223
 882	8.7659e+01	4.8688	48.066138	0.000557	5.573162	1.888239	-0.000223
 883	8.7759e+01	4.8239	47.860244	0.000517	5.167842	1.750912	-0.000207
 884	8.7859e+01	4.7934	47.626090	0.000588	5.877153	1.991233	-0.000235
 885	8.7958e+01	4.7517	47.412122	0.000537	5.370502	1.819575	-0.000215
 886	8.8058e+01	4.7052	47.190080	0.000557	5.573162	1.888239	-0.000223
 887	8.8157e+01	4.6715	46.947851	0.000608	6.079814	2.059897	-0.000243
 888	8.8257e+01	4.6282	46.770218	0.000446	4.458530	1.510591	-0.000179
 889	8.8356e+01	4.5801	46.527989	0.000608	6.079814	2.059897	-0.000243
 890	8.8456e+01	4.5560	46.269613	0.000649	6.485134	2.197223	-0.000260
 891	8.8555e+01	4.5207	46.083904	0.000466	4.661190	1.579254	-0.000187
 892	8.8654e+01	4.4838	45.857825	0.000567	5.674493	1.922570	-0.000227
 893	8.8754e+01	4.4325	45.587337	0.000679	6.789125	2.300218	-0.000272
 894	8.8853e+01	4.4020	45.385480	0.000507	5.066511	1.716581	-0.000203
 895	8.8953e+01	4.3571	45.131140	0.000638	6.383804	2.162891	-0.000256
 896	8.9052e+01	4.3138	44.905061	0.000567	5.674493	1.922570	-0.000227
 897	8.9152e+01	4.2753	44.674944	0.000578	5.775823	1.956902	-0.000231
 898	8.9251e+01	4.2288	44.481162	0.000486	4.863851	1.647917	-0.000195
 899	8.9351e+01	4.1854	44.210673	0.000679	6.789125	2.300218	-0.000272
 900	8.9451e+01	4.1550	44.012854	0.000497	4.965181	1.682249	-0.000199
 901	8.9550e+01	4.1100	43.790811	0.000557	5.573162	1.888239	-0.000223
 902	8.9650e+01	4.0748	43.560695	0.000578	5.775823	1.956902	-0.000231
 903	8.9749e+01	4.0330	43.318466	0.000608	6.079814	2.059897	-0.000243
 904	8.9849e+01	3.9929	43.104498	0.000537	5.370502	1.819575	-0.000215
 905	8.9948e+01	3.9512	42.866307	0.000598	5.978483	2.025565	-0.000239
 906	9.0047e+01	3.9191	42.616005	0.000628	6.282474	2.128560	-0.000252
 907	9.0147e+01	3.8726	42.381851	0.000588	5.877153	1.991233	-0.000235
 908	9.0246e+01	3.8341	42.167883	0.000537	5.370502	1.819575	-0.000215
 909	9.0346e+01	3.7956	41.949877	0.000547	5.471832	1.853907	-0.000219
 910	9.0445e+01	3.7587	41.735909	0.000537	5.370502	1.819575	-0.000215
 911	9.0545e+01	3.7106	41.461384	0.000689	6.890455	2.334549	-0.000276
 912	9.0644e+01	3.6721	41.215119	0.000618	6.181144	2.094228	-0.000248
 913	9.0744e+01	3.6320	41.005188	0.000527	5.269172	1.785244	-0.000211
 914	9.0844e+01	3.5983	40.775071	0.000578	5.775823	1.956902	-0.000231
 915	9.0943e+01	3.5502	40.544954	0.000578	5.775823	1.956902	-0.000231
 916	9.1043e+01	3.5117	40.286578	0.000649	6.485134	2.197223	-0.000260
 917	9.1142e+01	3.4860	40.096832	0.000476	4.762521	1.613586	-0.000191
 918	9.1242e+01	3.4315	39.818270	0.000699	6.991786	2.368881	-0.000280
 919	9.1341e+01	3.3962	39.596227	0.000557	5.573162	1.888239	-0.000223
 920	9.1441e+01	3.3512	39.378222	0.000547	5.471832	1.853907	-0.000219
 921	9.1540e+01	3.3031	39.152142	0.000567	5.674493	1.922570	-0.000227
 922	9.1639e+01	3.2791	38.938174	0.000537	5.370502	1.819575	-0.000215
 923	9.1739e+01	3.2389	38.683835	0.000638	6.383804	2.162891	-0.000256
 924	9.1838e+01	3.1892	38.453718	0.000578	5.775823	1.956902	-0.000231
 925	9.1938e+01	3.1587	38.207453	0.000618	6.181144	2.094228	-0.000248
 926	9.2037e+01	3.1186	37.985410	0.000557	5.573162	1.888239	-0.000223
 927	9.2137e+01	3.0769	37.747219	0.000598	5.978483	2.025565	-0.000239
 928	9.2237e+01	3.0368	37.492880	0.000638	6.383804	2.162891	-0.000256
 929	9.2336e+01	2.9983	37.274874	0.000547	5.471832	1.853907	-0.000219
 930	9.2436e+01	2.9662	37.060906	0.000537	5.370502	1.819575	-0.000215
 931	9.2535e+01	2.9277	36.814641	0.000618	6.181144	2.094228	-0.000248
 932	9.2635e+01	2.8780	36.560301	0.000638	6.383804	2.162891	-0.000256
 933	9.2734e+01	2.8363	36.370556	0.000476	4.762521	1.613586	-0.000191
 934	9.2834e+01	2.8026	36.071808	0.000750	7.498437	2.540539	-0.000300
 935	9.2933e+01	2.7513	35.869951	0.000507	5.066511	1.716581	-0.000203
 936	9.3032e+01	2.7192	35.627723	0.000608	6.079814	2.059897	-0.000243
 937	9.3132e+01	2.6823	35.357235	0.000679	6.789125	2.300218	-0.000272
 938	9.3231e+01	2.6390	35.139229	0.000547	5.471832	1.853907	-0.000219
 939	9.3331e+01	2.6037	34.913150	0.000567	5.674493	1.922570	-0.000227
 940	9.3430e+01	2.5475	34.650736	0.000659	6.586465	2.231555	-0.000264
 941	9.3530e+01	2.5170	34.420619	0.000578	5.775823	1.956902	-0.000231
 942	9.3629e+01	2.4721	34.166280	0.000638	6.383804	2.162891	-0.000256
 943	9.3729e+01	2.4304	33.911940	0.000638	6.383804	2.162891	-0.000256
 944	9.3829e+01	2.3999	33.722195	0.000476	4.762521	1.613586	-0.000191
 945	9.3928e+01	2.3566	33.455744	0.000669	6.687795	2.265886	-0.000268
 946	9.4028e+01	2.3197	33.189293	0.000669	6.687795	2.265886	-0.000268
 947	9.4127e+01	2.2796	32.959176	0.000578	5.775823	1.956902	-0.000231
 948	9.4227e+01	2.2363	32.704837	0.000638	6.383804	2.162891	-0.000256
 949	9.4326e+01	2.1930	32.466646	0.000598	5.978483	2.025565	-0.000239
 950	9.4425e+01	2.1657	32.200195	0.000669	6.687795	2.265886	-0.000268
 951	9.4525e+01	2.1176	31.994301	0.000517	5.167842	1.750912	-0.000207
 952	9.4624e+01	2.0775	31.727850	0.000669	6.687795	2.265886	-0.000268
 953	9.4724e+01	2.0326	31.505807	0.000557	5.573162	1.888239	-0.000223
 954	9.4823e+01	2.0021	31.215134	0.000730	7.295776	2.471876	-0.000292
 955	9.4923e+01	1.9556	30.960794	0.000638	6.383804	2.162891	-0.000256
 956	9.5022e+01	1.9122	30.710492	0.000628	6.282474	2.128560	-0.000252
 957	9.5122e+01	1.8818	30.484412	0.000567	5.674493	1.922570	-0.000227
 958	9.5222e+01	1.8481	30.242184	0.000608	6.079814	2.059897	-0.000243
 959	9.5321e+01	1.8032	29.995919	0.000618	6.181144	2.094228	-0.000248
 960	9.5421e+01	1.7647	29.725430	0.000679	6.789125	2.300218	-0.000272
 961	9.5520e+01	1.7213	29.483202	0.000608	6.079814	2.059897	-0.000243
 962	9.5620e+01	1.6828	29.224826	0.000649	6.485134	2.197223	-0.000260
 963	9.5719e+01	1.6363	28.974523	0.000628	6.282474	2.128560	-0.000252
 964	9.5819e+01	1.5930	28.720184	0.000638	6.383804	2.162891	-0.000256
 965	9.5918e+01	1.5529	28.490067	0.000578	5.775823	1.956902	-0.000231
 966	9.6017e+01	1.5160	28.235727	0.000638	6.383804	2.162891	-0.000256
 967	9.6117e+01	1.4839	27.981388	0.000638	6.383804	2.162891	-0.000256
 968	9.6216e+01	1.4390	27.735123	0.000618	6.181144	2.094228	-0.000248
 969	9.6316e+01	1.4069	27.460597	0.000689	6.890455	2.334549	-0.000276
 970	9.6415e+01	1.3588	27.202221	0.000649	6.485134	2.197223	-0.000260
 971	9.6515e+01	1.3187	26.959992	0.000608	6.079814	2.059897	-0.000243
 972	9.6615e+01	1.2770	26.729876	0.000578	5.775823	1.956902	-0.000231
 973	9.6714e+01	1.2385	26.439202	0.000730	7.295776	2.471876	-0.000292
 974	9.6814e+01	1.2000	26.221197	0.000547	5.471832	1.853907	-0.000219
 975	9.6913e+01	1.1743	25.942634	0.000699	6.991786	2.368881	-0.000280
 976	9.7013e+01	1.1246	25.692332	0.000628	6.282474	2.128560	-0.000252
 977	9.7112e+01	1.0796	25.474327	0.000547	5.471832	1.853907	-0.000219
 978	9.7212e+01	1.0395	25.175578	0.000750	7.498437	2.540539	-0.000300
 979	9.7311e+01	0.9994	24.933350	0.000608	6.079814	2.059897	-0.000243
 980	9.7410e+01	0.9657	24.674974	0.000649	6.485134	2.197223	-0.000260
 981	9.7510e+01	0.9272	24.412560	0.000659	6.586465	2.231555	-0.000264
 982	9.7609e+01	0.8743	24.170332	0.000608	6.079814	2.059897	-0.000243
 983	9.7709e+01	0.8454	23.915992	0.000638	6.383804	2.162891	-0.000256
 984	9.7808e+01	0.7989	23.681838	0.000588	5.877153	1.991233	-0.000235
 985	9.7908e+01	0.7620	23.411350	0.000679	6.789125	2.300218	-0.000272
 986	9.8007e+01	0.7251	23.124714	0.000719	7.194446	2.437544	-0.000288
 987	9.8107e+01	0.6850	22.874411	0.000628	6.282474	2.128560	-0.000252
 988	9.8207e+01	0.6465	22.656406	0.000547	5.471832	1.853907	-0.000219
 989	9.8306e+01	0.6016	22.345546	0.000780	7.802427	2.643534	-0.000312
 990	9.8406e+01	0.5583	22.135615	0.000527	5.269172	1.785244	-0.000211
 991	9.8505e+01	0.5262	21.804570	0.000831	8.309079	2.815192	-0.000333
 992	9.8605e+01	0.4877	21.582528	0.000557	5.573162	1.888239	-0.000223
 993	9.8704e+01	0.4460	21.344337	0.000598	5.978483	2.025565	-0.000239
 994	9.8803e+01	0.4107	21.037514	0.000770	7.701097	2.609202	-0.000308
 995	9.8903e+01	0.3577	20.803360	0.000588	5.877153	1.991233	-0.000235
 996	9.9002e+01	0.3257	20.540947	0.000659	6.586465	2.231555	-0.000264
 997	9.9102e+01	0.2807	20.270459	0.000679	6.789125	2.300218	-0.000272
 998	9.9201e+01	0.2422	19.979785	0.000730	7.295776	2.471876	-0.000292
 999	9.9301e+01	0.2005	19.733519	0.000618	6.181144	2.094228	-0.000248
1000	9.9400e+01	0.1652	19.467069	0.000669	6.687795	2.265886	-0.000268
1001	9.9500e+01	0.1219	19.188506	0.000699	6.991786	2.368881	-0.000280
1002	9.9600e+01	0.0818	18.942241	0.000618	6.181144	2.094228	-0.000248
1003	9.9699e+01	0.0449	18.671753	0.000679	6.789125	2.300218	-0.000272
1004	9.9799e+01	0.0048	18.385116	0.000719	7.194446	2.437544	-0.000288
1005	9.9898e+01	-0.0225	18.167111	0.000547	5.471832	1.853907	-0.000219
1006	9.9998e+01	-0.0594	17.884511	0.000709	7.093116	2.403213	-0.000284
1007	1.0010e+02	-0.0946	17.646320	0.000598	5.978483	2.025565	-0.000239
1008	1.0020e+02	-0.1364	17.351609	0.000740	7.397107	2.506208	-0.000296
1009	1.0030e+02	-0.1813	17.085158	0.000669	6.687795	2.265886	-0.000268
1010	1.0040e+02	-0.2198	16.842930	0.000608	6.079814	2.059897	-0.000243
1011	1.0050e+02	-0.2647	16.596665	0.000618	6.181144	2.094228	-0.000248
1012	1.0059e+02	-0.3000	16.281768	0.000790	7.903758	2.677866	-0.000316
1013	1.0069e+02	-0.3337	16.035503	0.000618	6.181144	2.094228	-0.000248
1014	1.0079e+02	-0.3802	15.740792	0.000740	7.397107	2.506208	-0.000296
1015	1.0089e+02	-0.4251	15.462230	0.000699	6.991786	2.368881	-0.000280
1016	1.0099e+02	-0.4604	15.211927	0.000628	6.282474	2.128560	-0.000252
1017	1.0109e+02	-0.4973	14.945477	0.000669	6.687795	2.265886	-0.000268
1018	1.0119e+02	-0.5486	14.674988	0.000679	6.789125	2.300218	-0.000272
1019	1.0129e+02	-0.5807	14.392389	0.000709	7.093116	2.403213	-0.000284
1020	1.0139e+02	-0.6144	14.138049	0.000638	6.383804	2.162891	-0.000256
1021	1.0149e+02	-0.6513	13.879673	0.000649	6.485134	2.197223	-0.000260
1022	1.0159e+02	-0.7107	13.593036	0.000719	7.194446	2.437544	-0.000288
1023	1.0169e+02	-0.7412	13.318511	0.000689	6.890455	2.334549	-0.000276
1024	1.0179e+02	-0.7748	13.048023	0.000679	6.789125	2.300218	-0.000272
1025	1.0189e+02	-0.8182	12.785609	0.000659	6.586465	2.231555	-0.000264
1026	1.0199e+02	-0.8647	12.515121	0.000679	6.789125	2.300218	-0.000272
1027	1.0209e+02	-0.9048	12.244633	0.000679	6.789125	2.300218	-0.000272
1028	1.0219e+02	-0.9481	11.957996	0.000719	7.194446	2.437544	-0.000288
1029	1.0229e+02	-0.9818	11.679434	0.000699	6.991786	2.368881	-0.000280
1030	1.0239e+02	-1.0283	11.392797	0.000719	7.194446	2.437544	-0.000288
1031	1.0248e+02	-1.0636	11.126346	0.000669	6.687795	2.265886	-0.000268
1032	1.0258e+02	-1.0925	10.819524	0.000770	7.701097	2.609202	-0.000308
1033	1.0268e+02	-1.1438	10.577296	0.000608	6.079814	2.059897	-0.000243
1034	1.0278e+02	-1.1839	10.306808	0.000679	6.789125	2.300218	-0.000272
1035	1.0288e+02	-1.2224	10.004022	0.000760	7.599767	2.574871	-0.000304
1036	1.0298e+02	-1.2625	9.773906	0.000578	5.775823	1.956902	-0.000231
1037	1.0308e+02	-1.2962	9.471120	0.000760	7.599767	2.574871	-0.000304
1038	1.0318e+02	-1.3363	9.200632	0.000679	6.789125	2.300218	-0.000272
1039	1.0328e+02	-1.3812	8.934181	0.000669	6.687795	2.265886	-0.000268
1040	1.0338e+02	-1.4262	8.667730	0.000669	6.687795	2.265886	-0.000268
1041	1.0348e+02	-1.4631	8.393205	0.000689	6.890455	2.334549	-0.000276
1042	1.0358e+02	-1.5032	8.098494	0.000740	7.397107	2.506208	-0.000296
1043	1.0368e+02	-1.5320	7.828006	0.000679	6.789125	2.300218	-0.000272
1044	1.0378e+02	-1.5738	7.533295	0.000740	7.397107	2.506208	-0.000296
1045	1.0388e+02	-1.6203	7.299141	0.000588	5.877153	1.991233	-0.000235
1046	1.0398e+02	-1.6700	7.028653	0.000679	6.789125	2.300218	-0.000272
1047	1.0408e+02	-1.7021	6.701645	0.000821	8.207748	2.780860	-0.000329
1048	1.0418e+02	-1.7342	6.447306	0.000638	6.383804	2.162891	-0.000256
1049	1.0428e+02	-1.7807	6.168743	0.000699	6.991786	2.368881	-0.000280
1050	1.0438e+02	-1.8160	5.926515	0.000608	6.079814	2.059897	-0.000243
1051	1.0447e+02	-1.8593	5.651990	0.000689	6.890455	2.334549	-0.000276
1052	1.0457e+02	-1.8850	5.381502	0.000679	6.789125	2.300218	-0.000272
1053	1.0467e+02	-1.9347	5.086791	0.000740	7.397107	2.506208	-0.000296
1054	1.0477e+02	-1.9780	4.820340	0.000669	6.687795	2.265886	-0.000268
1055	1.0487e+02	-2.0197	4.521592	0.000750	7.498437	2.540539	-0.000300
1056	1.0497e+02	-2.0630	4.259178	0.000659	6.586465	2.231555	-0.000264
1057	1.0507e+02	-2.1031	3.980616	0.000699	6.991786	2.368881	-0.000280
1058	1.0517e+02	-2.1320	3.718202	0.000659	6.586465	2.231555	-0.000264
1059	1.0527e+02	-2.1834	3.431565	0.000719	7.194446	2.437544	-0.000288
1060	1.0537e+02	-2.2138	3.169152	0.000659	6.586465	2.231555	-0.000264
1061	1.0547e+02	-2.2652	2.866366	0.000760	7.599767	2.574871	-0.000304
1062	1.0557e+02	-2.2908	2.579730	0.000719	7.194446	2.437544	-0.000288
1063	1.0567e+02	-2.3261	2.337502	0.000608	6.079814	2.059897	-0.000243
1064	1.0577e+02	-2.3759	2.010494	0.000821	8.207748	2.780860	-0.000329
1065	1.0587e+02	-2.4224	1.715783	0.000740	7.397107	2.506208	-0.000296
1066	1.0597e+02	-2.4593	1.473555	0.000608	6.079814	2.059897	-0.000243
1067	1.0607e+02	-2.4978	1.219215	0.000638	6.383804	2.162891	-0.000256
1068	1.0617e+02	-2.5379	0.880096	0.000851	8.511739	2.883855	-0.000341
1069	1.0627e+02	-2.5780	0.658053	0.000557	5.573162	1.888239	-0.000223
1070	1.0637e+02	-2.6229	0.375454	0.000709	7.093116	2.403213	-0.000284
1071	1.0647e+02	-2.6598	0.032297	0.000861	8.613069	2.918187	-0.000345
1072	1.0656e+02	-2.6967	-0.201857	0.000588	5.877153	1.991233	-0.000235
1073	1.0666e+02	-2.7336	-0.444085	0.000608	6.079814	2.059897	-0.000243
1074	1.0676e+02	-2.7833	-0.763019	0.000801	8.005088	2.712197	-0.000321
1075	1.0686e+02	-2.8154	-1.045618	0.000709	7.093116	2.403213	-0.000284
1076	1.0696e+02	-2.8652	-1.328218	0.000709	7.093116	2.403213	-0.000284
1077	1.0706e+02	-2.8924	-1.606780	0.000699	6.991786	2.368881	-0.000280
1078	1.0716e+02	-2.9357	-1.840934	0.000588	5.877153	1.991233	-0.000235
1079	1.0726e+02	-2.9759	-2.151793	0.000780	7.802427	2.643534	-0.000312
1080	1.0736e+02	-3.0095	-2.418244	0.000669	6.687795	2.265886	-0.000268
1081	1.0746e+02	-3.0496	-2.640287	0.000557	5.573162	1.888239	-0.000223
1082	1.0756e+02	-3.0914	-2.943072	0.000760	7.599767	2.574871	-0.000304
1083	1.0766e+02	-3.1363	-3.189337	0.000618	6.181144	2.094228	-0.000248
1084	1.0776e+02	-3.1700	-3.516345	0.000821	8.207748	2.780860	-0.000329
1085	1.0786e+02	-3.2117	-3.774722	0.000649	6.485134	2.197223	-0.000260
1086	1.0796e+02	-3.2550	-4.029061	0.000638	6.383804	2.162891	-0.000256
1087	1.0806e+02	-3.2967	-4.295512	0.000669	6.687795	2.265886	-0.000268
1088	1.0816e+02	-3.3272	-4.566001	0.000679	6.789125	2.300218	-0.000272
1089	1.0826e+02	-3.3785	-4.856674	0.000730	7.295776	2.471876	-0.000292
1090	1.0836e+02	-3.4186	-5.102940	0.000618	6.181144	2.094228	-0.000248
1091	1.0845e+02	-3.4635	-5.393613	0.000730	7.295776	2.471876	-0.000292
1092	1.0855e+02	-3.4876	-5.680250	0.000719	7.194446	2.437544	-0.000288
1093	1.0865e+02	-3.5389	-5.914404	0.000588	5.877153	1.991233	-0.000235
1094	1.0875e+02	-3.5758	-6.225263	0.000780	7.802427	2.643534	-0.000312
1095	1.0885e+02	-3.6111	-6.447306	0.000557	5.573162	1.888239	-0.000223
1096	1.0895e+02	-3.6496	-6.742017	0.000740	7.397107	2.506208	-0.000296
1097	1.0905e+02	-3.6945	-6.992319	0.000628	6.282474	2.128560	-0.000252
1098	1.0915e+02	-3.7298	-7.287030	0.000740	7.397107	2.506208	-0.000296
1099	1.0925e+02	-3.7748	-7.549444	0.000659	6.586465	2.231555	-0.000264
1100	1.0935e+02	-3.8117	-7.819932	0.000679	6.789125	2.300218	-0.000272
1101	1.0945e+02	-3.8582	-8.110606	0.000730	7.295776	2.471876	-0.000292
1102	1.0955e+02	-3.8903	-8.364945	0.000638	6.383804	2.162891	-0.000256
1103	1.0965e+02	-3.9288	-8.619285	0.000638	6.383804	2.162891	-0.000256
1104	1.0975e+02	-3.9721	-8.889773	0.000679	6.789125	2.300218	-0.000272
1105	1.0985e+02	-4.0138	-9.208707	0.000801	8.005088	2.712197	-0.000321
1106	1.0995e+02	-4.0459	-9.463046	0.000638	6.383804	2.162891	-0.000256
1107	1.1005e+02	-4.0860	-9.713349	0.000628	6.282474	2.128560	-0.000252
1108	1.1015e+02	-4.1325	-9.979800	0.000669	6.687795	2.265886	-0.000268
1109	1.1025e+02	-4.1758	-10.258362	0.000699	6.991786	2.368881	-0.000280
1110	1.1035e+02	-4.2095	-10.524813	0.000669	6.687795	2.265886	-0.000268
1111	1.1044e+02	-4.2496	-10.783190	0.000649	6.485134	2.197223	-0.000260
1112	1.1054e+02	-4.2865	-11.065789	0.000709	7.093116	2.403213	-0.000284
1113	1.1064e+02	-4.3314	-11.324166	0.000649	6.485134	2.197223	-0.000260
1114	1.1074e+02	-4.3635	-11.618877	0.000740	7.397107	2.506208	-0.000296
1115	1.1084e+02	-4.4100	-11.857068	0.000598	5.978483	2.025565	-0.000239
1116	1.1094e+02	-4.4485	-12.099296	0.000608	6.079814	2.059897	-0.000243
1117	1.1104e+02	-4.4886	-12.394007	0.000740	7.397107	2.506208	-0.000296
1118	1.1114e+02	-4.5239	-12.692755	0.000750	7.498437	2.540539	-0.000300
1119	1.1124e+02	-4.5737	-12.943057	0.000628	6.282474	2.128560	-0.000252
1120	1.1134e+02	-4.6009	-13.209508	0.000669	6.687795	2.265886	-0.000268
1121	1.1144e+02	-4.6491	-13.443662	0.000588	5.877153	1.991233	-0.000235
1122	1.1154e+02	-4.6844	-13.734336	0.000730	7.295776	2.471876	-0.000292
1123	1.1164e+02	-4.7309	-14.049232	0.000790	7.903758	2.677866	-0.000316
1124	1.1174e+02	-4.7726	-14.287423	0.000598	5.978483	2.025565	-0.000239
1125	1.1184e+02	-4.8031	-14.517540	0.000578	5.775823	1.956902	-0.000231
1126	1.1194e+02	-4.8512	-14.779954	0.000659	6.586465	2.231555	-0.000264
1127	1.1204e+02	-4.8897	-15.062553	0.000709	7.093116	2.403213	-0.000284
1128	1.1214e+02	-4.9186	-15.333042	0.000679	6.789125	2.300218	-0.000272
1129	1.1224e+02	-4.9651	-15.607567	0.000689	6.890455	2.334549	-0.000276
1130	1.1234e+02	-5.0004	-15.878055	0.000679	6.789125	2.300218	-0.000272
1131	1.1244e+02	-5.0485	-16.132394	0.000638	6.383804	2.162891	-0.000256
1132	1.1253e+02	-5.0838	-16.435180	0.000760	7.599767	2.574871	-0.000304
1133	1.1263e+02	-5.1287	-16.616851	0.000456	4.559860	1.544922	-0.000183
1134	1.1273e+02	-5.1608	-16.927710	0.000780	7.802427	2.643534	-0.000312
1135	1.1283e+02	-5.2154	-17.206273	0.000699	6.991786	2.368881	-0.000280
1136	1.1293e+02	-5.2474	-17.444464	0.000598	5.978483	2.025565	-0.000239
1137	1.1303e+02	-5.2892	-17.727063	0.000709	7.093116	2.403213	-0.000284
1138	1.1313e+02	-5.3309	-17.965254	0.000598	5.978483	2.025565	-0.000239
1139	1.1323e+02	-5.3742	-18.231705	0.000669	6.687795	2.265886	-0.000268
1140	1.1333e+02	-5.4063	-18.506230	0.000689	6.890455	2.334549	-0.000276
1141	1.1343e+02	-5.4432	-18.772681	0.000669	6.687795	2.265886	-0.000268
1142	1.1353e+02	-5.4849	-18.990687	0.000547	5.471832	1.853907	-0.000219
1143	1.1363e+02	-5.5250	-19.301546	0.000780	7.802427	2.643534	-0.000312
1144	1.1373e+02	-5.5667	-19.543774	0.000608	6.079814	2.059897	-0.000243
1145	1.1383e+02	-5.6164	-19.806188	0.000659	6.586465	2.231555	-0.000264
1146	1.1393e+02	-5.6453	-20.060527	0.000638	6.383804	2.162891	-0.000256
1147	1.1403e+02	-5.6790	-20.314867	0.000638	6.383804	2.162891	-0.000256
1148	1.1413e+02	-5.7191	-20.593429	0.000699	6.991786	2.368881	-0.000280
1149	1.1423e+02	-5.7592	-20.835658	0.000608	6.079814	2.059897	-0.000243
1150	1.1433e+02	-5.8089	-21.102109	0.000669	6.687795	2.265886	-0.000268
1151	1.1442e+02	-5.8410	-21.364522	0.000659	6.586465	2.231555	-0.000264
1152	1.1452e+02	-5.8811	-21.614825	0.000628	6.282474	2.128560	-0.000252
1153	1.1462e+02	-5.9228	-21.848979	0.000588	5.877153	1.991233	-0.000235
1154	1.1472e+02	-5.9645	-22.135615	0.000719	7.194446	2.437544	-0.000288
1155	1.1482e+02	-6.0095	-22.357658	0.000557	5.573162	1.888239	-0.000223
1156	1.1492e+02	-6.0464	-22.640257	0.000709	7.093116	2.403213	-0.000284
1157	1.1502e+02	-6.0897	-22.906708	0.000669	6.687795	2.265886	-0.000268
1158	1.1512e+02	-6.1169	-23.140862	0.000588	5.877153	1.991233	-0.000235
1159	1.1522e+02	-6.1651	-23.407313	0.000669	6.687795	2.265886	-0.000268
1160	1.1532e+02	-6.2036	-23.681838	0.000689	6.890455	2.334549	-0.000276
1161	1.1542e+02	-6.2453	-23.903881	0.000557	5.573162	1.888239	-0.000223
1162	1.1552e+02	-6.2902	-24.206666	0.000760	7.599767	2.574871	-0.000304
1163	1.1562e+02	-6.3271	-24.461005	0.000638	6.383804	2.162891	-0.000256
1164	1.1572e+02	-6.3592	-24.715345	0.000638	6.383804	2.162891	-0.000256
1165	1.1582e+02	-6.4009	-24.933350	0.000547	5.471832	1.853907	-0.000219
1166	1.1592e+02	-6.4346	-25.207876	0.000689	6.890455	2.334549	-0.000276
1167	1.1602e+02	-6.4827	-25.429918	0.000557	5.573162	1.888239	-0.000223
1168	1.1612e+02	-6.5180	-25.720592	0.000730	7.295776	2.471876	-0.000292
1169	1.1622e+02	-6.5565	-25.978968	0.000649	6.485134	2.197223	-0.000260
1170	1.1632e+02	-6.5982	-26.249457	0.000679	6.789125	2.300218	-0.000272
1171	1.1642e+02	-6.6415	-26.475536	0.000567	5.674493	1.922570	-0.000227
1172	1.1651e+02	-6.6704	-26.737950	0.000659	6.586465	2.231555	-0.000264
1173	1.1661e+02	-6.7121	-26.996327	0.000649	6.485134	2.197223	-0.000260
1174	1.1671e+02	-6.7634	-27.262778	0.000669	6.687795	2.265886	-0.000268
1175	1.1681e+02	-6.8003	-27.545377	0.000709	7.093116	2.403213	-0.000284
1176	1.1691e+02	-6.8437	-27.819902	0.000689	6.890455	2.334549	-0.000276
1177	1.1701e+02	-6.8693	-28.037908	0.000547	5.471832	1.853907	-0.000219
1178	1.1711e+02	-6.9142	-28.300322	0.000659	6.586465	2.231555	-0.000264
1179	1.1721e+02	-6.9576	-28.534475	0.000588	5.877153	1.991233	-0.000235
1180	1.1731e+02	-6.9929	-28.788815	0.000638	6.383804	2.162891	-0.000256
1181	1.1741e+02	-7.0474	-29.043154	0.000638	6.383804	2.162891	-0.000256
1182	1.1751e+02	-7.0763	-29.289420	0.000618	6.181144	2.094228	-0.000248
1183	1.1761e+02	-7.1068	-29.551834	0.000659	6.586465	2.231555	-0.000264
1184	1.1771e+02	-7.1485	-29.850582	0.000750	7.498437	2.540539	-0.000300
1185	1.1781e+02	-7.1966	-30.076661	0.000567	5.674493	1.922570	-0.000227
1186	1.1791e+02	-7.2351	-30.347149	0.000679	6.789125	2.300218	-0.000272
1187	1.1801e+02	-7.2768	-30.589377	0.000608	6.079814	2.059897	-0.000243
1188	1.1811e+02	-7.3201	-30.811420	0.000557	5.573162	1.888239	-0.000223
1189	1.1821e+02	-7.3602	-31.073834	0.000659	6.586465	2.231555	-0.000264
1190	1.1831e+02	-7.3907	-31.316062	0.000608	6.079814	2.059897	-0.000243
1191	1.1841e+02	-7.4388	-31.590587	0.000689	6.890455	2.334549	-0.000276
1192	1.1850e+02	-7.4661	-31.820704	0.000578	5.775823	1.956902	-0.000231
1193	1.1860e+02	-7.5174	-32.107341	0.000719	7.194446	2.437544	-0.000288
1194	1.1870e+02	-7.5495	-32.333420	0.000567	5.674493	1.922570	-0.000227
1195	1.1880e+02	-7.5896	-32.579685	0.000618	6.181144	2.094228	-0.000248
1196	1.1890e+02	-7.6361	-32.854211	0.000689	6.890455	2.334549	-0.000276
1197	1.1900e+02	-7.6843	-33.096439	0.000608	6.079814	2.059897	-0.000243
1198	1.1910e+02	-7.7148	-33.350778	0.000638	6.383804	2.162891	-0.000256
1199	1.1920e+02	-7.7549	-33.552635	0.000507	5.066511	1.716581	-0.000203
1200	1.1930e+02	-7.7918	-33.851383	0.000750	7.498437	2.540539	-0.000300
1201	1.1940e+02	-7.8351	-34.089574	0.000598	5.978483	2.025565	-0.000239
1202	1.1950e+02	-7.8688	-34.388322	0.000750	7.498437	2.540539	-0.000300
1203	1.1960e+02	-7.9121	-34.594216	0.000517	5.167842	1.750912	-0.000207
1204	1.1970e+02	-7.9602	-34.808184	0.000537	5.370502	1.819575	-0.000215
1205	1.1980e+02	-7.9939	-35.050412	0.000608	6.079814	2.059897	-0.000243
1206	1.1990e+02	-8.0324	-35.316863	0.000669	6.687795	2.265886	-0.000268
1207	1.2000e+02	-8.0837	-35.595426	0.000699	6.991786	2.368881	-0.000280
1208	1.2010e+02	-8.1142	-35.813431	0.000547	5.471832	1.853907	-0.000219
1209	1.2020e+02	-8.1447	-36.059696	0.000618	6.181144	2.094228	-0.000248
1210	1.2030e+02	-8.1896	-36.301925	0.000608	6.079814	2.059897	-0.000243
1211	1.2039e+02	-8.2201	-36.556264	0.000638	6.383804	2.162891	-0.000256
1212	1.2049e+02	-8.2714	-36.778307	0.000557	5.573162	1.888239	-0.000223
1213	1.2059e+02	-8.3067	-37.077055	0.000750	7.498437	2.540539	-0.000300
1214	1.2069e+02	-8.3484	-37.335431	0.000649	6.485134	2.197223	-0.000260
1215	1.2079e+02	-8.3933	-37.553437	0.000547	5.471832	1.853907	-0.000219
1216	1.2089e+02	-8.4399	-37.771442	0.000547	5.471832	1.853907	-0.000219
1217	1.2099e+02	-8.4720	-38.029819	0.000649	6.485134	2.197223	-0.000260
1218	1.2109e+02	-8.5121	-38.300307	0.000679	6.789125	2.300218	-0.000272
1219	1.2119e+02	-8.5570	-38.510238	0.000527	5.269172	1.785244	-0.000211
1220	1.2129e+02	-8.5842	-38.792837	0.000709	7.093116	2.403213	-0.000284
1221	1.2139e+02	-8.6260	-39.006806	0.000537	5.370502	1.819575	-0.000215
1222	1.2149e+02	-8.6741	-39.269219	0.000659	6.586465	2.231555	-0.000264
1223	1.2159e+02	-8.7158	-39.487225	0.000547	5.471832	1.853907	-0.000219
1224	1.2169e+02	-8.7479	-39.725416	0.000598	5.978483	2.025565	-0.000239
1225	1.2179e+02	-8.7912	-39.983792	0.000649	6.485134	2.197223	-0.000260
1226	1.2189e+02	-8.8345	-40.238132	0.000638	6.383804	2.162891	-0.000256
1227	1.2199e+02	-8.8810	-40.435952	0.000497	4.965181	1.682249	-0.000199
1228	1.2209e+02	-8.9083	-40.730662	0.000740	7.397107	2.506208	-0.000296
1229	1.2219e+02	-8.9500	-40.940594	0.000527	5.269172	1.785244	-0.000211
1230	1.2229e+02	-8.9837	-41.227230	0.000719	7.194446	2.437544	-0.000288
1231	1.2239e+02	-9.0318	-41.477533	0.000628	6.282474	2.128560	-0.000252
1232	1.2248e+02	-9.0655	-41.719761	0.000608	6.079814	2.059897	-0.000243
1233	1.2258e+02	-9.1040	-41.957952	0.000598	5.978483	2.025565	-0.000239
1234	1.2268e+02	-9.1457	-42.204217	0.000618	6.181144	2.094228	-0.000248
1235	1.2278e+02	-9.1890	-42.430297	0.000567	5.674493	1.922570	-0.000227
1236	1.2288e+02	-9.2275	-42.660413	0.000578	5.775823	1.956902	-0.000231
1237	1.2298e+02	-9.2677	-42.955124	0.000740	7.397107	2.506208	-0.000296
1238	1.2308e+02	-9.3142	-43.152944	0.000497	4.965181	1.682249	-0.000199
1239	1.2318e+02	-9.3511	-43.403246	0.000628	6.282474	2.128560	-0.000252
1240	1.2328e+02	-9.3896	-43.617215	0.000537	5.370502	1.819575	-0.000215
1241	1.2338e+02	-9.4281	-43.911925	0.000740	7.397107	2.506208	-0.000296
1242	1.2348e+02	-9.4650	-44.105708	0.000486	4.863851	1.647917	-0.000195
1243	1.2358e+02	-9.5163	-44.331788	0.000567	5.674493	1.922570	-0.000227
1244	1.2368e+02	-9.5484	-44.598238	0.000669	6.687795	2.265886	-0.000268
1245	1.2378e+02	-9.5901	-44.856615	0.000649	6.485134	2.197223	-0.000260
1246	1.2388e+02	-9.6286	-45.094806	0.000598	5.978483	2.025565	-0.000239
1247	1.2398e+02	-9.6719	-45.324923	0.000578	5.775823	1.956902	-0.000231
1248	1.2408e+02	-9.7072	-45.551003	0.000567	5.674493	1.922570	-0.000227
1249	1.2418e+02	-9.7457	-45.752859	0.000507	5.066511	1.716581	-0.000203
1250	1.2428e+02	-9.7906	-46.027385	0.000689	6.890455	2.334549	-0.000276
1251	1.2438e+02	-9.8275	-46.261538	0.000588	5.877153	1.991233	-0.000235
1252	1.2447e+02	-9.8628	-46.467432	0.000517	5.167842	1.750912	-0.000207
1253	1.2457e+02	-9.9061	-46.729846	0.000659	6.586465	2.231555	-0.000264
1254	1.2467e+02	-9.9414	-46.951889	0.000557	5.573162	1.888239	-0.000223
1255	1.2477e+02	-9.9863	-47.153745	0.000507	5.066511	1.716581	-0.000203
1256	1.2487e+02	-10.0249	-47.395974	0.000608	6.079814	2.059897	-0.000243
1257	1.2497e+02	-10.0650	-47.650313	0.000638	6.383804	2.162891	-0.000256
1258	1.2507e+02	-10.1051	-47.848133	0.000497	4.965181	1.682249	-0.000199
1259	1.2517e+02	-10.1404	-48.130732	0.000709	7.093116	2.403213	-0.000284
1260	1.2527e+02	-10.1821	-48.356812	0.000567	5.674493	1.922570	-0.000227
1261	1.2537e+02	-10.2286	-48.599040	0.000608	6.079814	2.059897	-0.000243
1262	1.2547e+02	-10.2655	-48.825120	0.000567	5.674493	1.922570	-0.000227
1263	1.2557e+02	-10.2992	-49.063311	0.000598	5.978483	2.025565	-0.000239
1264	1.2567e+02	-10.3409	-49.281316	0.000547	5.471832	1.853907	-0.000219
1265	1.2577e+02	-10.3874	-49.507396	0.000567	5.674493	1.922570	-0.000227
1266	1.2587e+02	-10.4323	-49.737512	0.000578	5.775823	1.956902	-0.000231
1267	1.2597e+02	-10.4532	-49.983778	0.000618	6.181144	2.094228	-0.000248
1268	1.2607e+02	-10.5077	-50.217931	0.000588	5.877153	1.991233	-0.000235
1269	1.2617e+02	-10.5430	-50.476308	0.000649	6.485134	2.197223	-0.000260
1270	1.2627e+02	-10.5799	-50.682202	0.000517	5.167842	1.750912	-0.000207
1271	1.2636e+02	-10.6280	-50.928467	0.000618	6.181144	2.094228	-0.000248
1272	1.2646e+02	-10.6649	-51.174733	0.000618	6.181144	2.094228	-0.000248
1273	1.2656e+02	-10.7018	-51.348329	0.000436	4.357200	1.476259	-0.000174
1274	1.2666e+02	-10.7387	-51.606706	0.000649	6.485134	2.197223	-0.000260
1275	1.2676e+02	-10.7676	-51.836823	0.000578	5.775823	1.956902	-0.000231
1276	1.2686e+02	-10.8222	-52.087125	0.000628	6.282474	2.128560	-0.000252
1277	1.2696e+02	-10.8655	-52.329353	0.000608	6.079814	2.059897	-0.000243
1278	1.2706e+02	-10.9072	-52.511025	0.000456	4.559860	1.544922	-0.000183
1279	1.2716e+02	-10.9521	-52.797661	0.000719	7.194446	2.437544	-0.000288
1280	1.2726e+02	-10.9874	-52.987407	0.000476	4.762521	1.613586	-0.000191
1281	1.2736e+02	-11.0291	-53.241746	0.000638	6.383804	2.162891	-0.000256
1282	1.2746e+02	-11.0676	-53.512234	0.000679	6.789125	2.300218	-0.000272
1283	1.2756e+02	-11.1013	-53.706017	0.000486	4.863851	1.647917	-0.000195
1284	1.2766e+02	-11.1350	-53.924022	0.000547	5.471832	1.853907	-0.000219
1285	1.2776e+02	-11.1815	-54.142027	0.000547	5.471832	1.853907	-0.000219
1286	1.2786e+02	-11.2152	-54.368107	0.000567	5.674493	1.922570	-0.000227
1287	1.2796e+02	-11.2617	-54.594187	0.000567	5.674493	1.922570	-0.000227
1288	1.2806e+02	-11.2954	-54.824303	0.000578	5.775823	1.956902	-0.000231
1289	1.2816e+02	-11.3403	-55.046346	0.000557	5.573162	1.888239	-0.000223
1290	1.2826e+02	-11.3804	-55.332982	0.000719	7.194446	2.437544	-0.000288
1291	1.2835e+02	-11.4221	-55.571173	0.000598	5.978483	2.025565	-0.000239
1292	1.2845e+02	-11.4574	-55.764956	0.000486	4.863851	1.647917	-0.000195
1293	1.2855e+02	-11.4927	-55.991036	0.000567	5.674493	1.922570	-0.000227
1294	1.2865e+02	-11.5344	-56.233264	0.000608	6.079814	2.059897	-0.000243
1295	1.2875e+02	-11.5858	-56.479529	0.000618	6.181144	2.094228	-0.000248
1296	1.2885e+02	-11.6259	-56.685423	0.000517	5.167842	1.750912	-0.000207
1297	1.2895e+02	-11.6580	-56.907465	0.000557	5.573162	1.888239	-0.000223
1298	1.2905e+02	-11.6965	-57.121434	0.000537	5.370502	1.819575	-0.000215
1299	1.2915e+02	-11.7430	-57.391922	0.000679	6.789125	2.300218	-0.000272
1300	1.2925e+02	-11.7751	-57.605890	0.000537	5.370502	1.819575	-0.000215
1301	1.2935e+02	-11.8200	-57.819858	0.000537	5.370502	1.819575	-0.000215
1302	1.2945e+02	-11.8537	-58.058049	0.000598	5.978483	2.025565	-0.000239
1303	1.2955e+02	-11.9034	-58.292203	0.000588	5.877153	1.991233	-0.000235
1304	1.2965e+02	-11.9403	-58.469837	0.000446	4.458530	1.510591	-0.000179
1305	1.2975e+02	-11.9852	-58.756474	0.000719	7.194446	2.437544	-0.000288
1306	1.2985e+02	-12.0205	-58.934108	0.000446	4.458530	1.510591	-0.000179
1307	1.2995e+02	-12.0622	-59.188447	0.000638	6.383804	2.162891	-0.000256
1308	1.3005e+02	-12.1039	-59.406452	0.000547	5.471832	1.853907	-0.000219
1309	1.3015e+02	-12.1360	-59.644643	0.000598	5.978483	2.025565	-0.000239
1310	1.3025e+02	-12.1745	-59.850537	0.000517	5.167842	1.750912	-0.000207
1311	1.3034e+02	-12.2210	-60.092765	0.000608	6.079814	2.059897	-0.000243
1312	1.3044e+02	-12.2612	-60.302697	0.000527	5.269172	1.785244	-0.000211
1313	1.3054e+02	-12.2980	-60.565110	0.000659	6.586465	2.231555	-0.000264
1314	1.3064e+02	-12.3430	-60.750819	0.000466	4.661190	1.579254	-0.000187
1315	1.3074e+02	-12.3767	-60.980935	0.000578	5.775823	1.956902	-0.000231
1316	1.3084e+02	-12.4152	-61.170681	0.000476	4.762521	1.613586	-0.000191
1317	1.3094e+02	-12.4601	-61.433095	0.000659	6.586465	2.231555	-0.000264
1318	1.3104e+02	-12.5050	-61.626877	0.000486	4.863851	1.647917	-0.000195
1319	1.3114e+02	-12.5291	-61.865068	0.000598	5.978483	2.025565	-0.000239
1320	1.3124e+02	-12.5772	-62.087111	0.000557	5.573162	1.888239	-0.000223
1321	1.3134e+02	-12.6189	-62.329339	0.000608	6.079814	2.059897	-0.000243
1322	1.3144e+02	-12.6542	-62.511010	0.000456	4.559860	1.544922	-0.000183
1323	1.3154e+02	-12.6943	-62.745164	0.000588	5.877153	1.991233	-0.000235
1324	1.3164e+02	-12.7296	-62.995466	0.000628	6.282474	2.128560	-0.000252
1325	1.3174e+02	-12.7777	-63.221546	0.000567	5.674493	1.922570	-0.000227
1326	1.3184e+02	-12.8194	-63.447625	0.000567	5.674493	1.922570	-0.000227
1327	1.3194e+02	-12.8611	-63.625259	0.000446	4.458530	1.510591	-0.000179
1328	1.3204e+02	-12.9061	-63.879599	0.000638	6.383804	2.162891	-0.000256
1329	1.3214e+02	-12.9365	-64.109716	0.000578	5.775823	1.956902	-0.000231
1330	1.3224e+02	-12.9670	-64.307535	0.000497	4.965181	1.682249	-0.000199
1331	1.3234e+02	-13.0135	-64.541689	0.000588	5.877153	1.991233	-0.000235
1332	1.3243e+02	-13.0585	-64.787954	0.000618	6.181144	2.094228	-0.000248
1333	1.3253e+02	-13.0889	-64.925217	0.000345	3.445228	1.167275	-0.000138
1334	1.3263e+02	-13.1355	-65.199742	0.000689	6.890455	2.334549	-0.000276
1335	1.3273e+02	-13.1756	-65.437933	0.000598	5.978483	2.025565	-0.000239
1336	1.3283e+02	-13.2125	-65.676124	0.000598	5.978483	2.025565	-0.000239
1337	1.3293e+02	-13.2510	-65.934501	0.000649	6.485134	2.197223	-0.000260
1338	1.3303e+02	-13.2959	-66.079838	0.000365	3.647888	1.235938	-0.000146
1339	1.3313e+02	-13.3392	-66.358400	0.000699	6.991786	2.368881	-0.000280
1340	1.3323e+02	-13.3729	-66.552183	0.000486	4.863851	1.647917	-0.000195
1341	1.3333e+02	-13.4162	-66.822671	0.000679	6.789125	2.300218	-0.000272
1342	1.3343e+02	-13.4467	-67.028565	0.000517	5.167842	1.750912	-0.000207
1343	1.3353e+02	-13.4916	-67.214273	0.000466	4.661190	1.579254	-0.000187
1344	1.3363e+02	-13.5253	-67.436315	0.000557	5.573162	1.888239	-0.000223
1345	1.3373e+02	-13.5718	-67.702766	0.000669	6.687795	2.265886	-0.000268
1346	1.3383e+02	-13.6119	-67.916735	0.000537	5.370502	1.819575	-0.000215
1347	1.3393e+02	-13.6568	-68.114554	0.000497	4.965181	1.682249	-0.000199
1348	1.3403e+02	-13.6985	-68.368894	0.000638	6.383804	2.162891	-0.000256
1349	1.3413e+02	-13.7354	-68.570751	0.000507	5.066511	1.716581	-0.000203
1350	1.3423e+02	-13.7723	-68.817016	0.000618	6.181144	2.094228	-0.000248
1351	1.3432e+02	-13.8060	-69.022910	0.000517	5.167842	1.750912	-0.000207
1352	1.3442e+02	-13.8590	-69.224767	0.000507	5.066511	1.716581	-0.000203
1353	1.3452e+02	-13.8943	-69.454883	0.000578	5.775823	1.956902	-0.000231
1354	1.3462e+02	-13.9312	-69.668851	0.000537	5.370502	1.819575	-0.000215
1355	1.3472e+02	-13.9697	-69.886857	0.000547	5.471832	1.853907	-0.000219
1356	1.3482e+02	-14.0066	-70.104862	0.000547	5.471832	1.853907	-0.000219
1357	1.3492e+02	-14.0435	-70.334979	0.000578	5.775823	1.956902	-0.000231
1358	1.3502e+02	-14.0868	-70.557021	0.000557	5.573162	1.888239	-0.000223
1359	1.3512e+02	-14.1349	-70.791175	0.000588	5.877153	1.991233	-0.000235
1360	1.3522e+02	-14.1750	-71.013218	0.000557	5.573162	1.888239	-0.000223
1361	1.3532e+02	-14.2167	-71.219112	0.000517	5.167842	1.750912	-0.000207
1362	1.3542e+02	-14.2424	-71.449228	0.000578	5.775823	1.956902	-0.000231
1363	1.3552e+02	-14.2953	-71.626862	0.000446	4.458530	1.510591	-0.000179
1364	1.3562e+02	-14.3322	-71.865053	0.000598	5.978483	2.025565	-0.000239
1365	1.3572e+02	-14.3643	-72.066910	0.000507	5.066511	1.716581	-0.000203
1366	1.3582e+02	-14.3996	-72.301064	0.000588	5.877153	1.991233	-0.000235
1367	1.3592e+02	-14.4429	-72.531181	0.000578	5.775823	1.956902	-0.000231
1368	1.3602e+02	-14.5007	-72.737075	0.000517	5.167842	1.750912	-0.000207
1369	1.3612e+02	-14.5215	-72.971228	0.000588	5.877153	1.991233	-0.000235
1370	1.3622e+02	-14.5696	-73.185197	0.000537	5.370502	1.819575	-0.000215
1371	1.3631e+02	-14.6146	-73.387053	0.000507	5.066511	1.716581	-0.000203
1372	1.3641e+02	-14.6499	-73.560650	0.000436	4.357200	1.476259	-0.000174
1373	1.3651e+02	-14.6819	-73.806916	0.000618	6.181144	2.094228	-0.000248
1374	1.3661e+02	-14.7236	-74.020884	0.000537	5.370502	1.819575	-0.000215
1375	1.3671e+02	-14.7702	-74.238889	0.000547	5.471832	1.853907	-0.000219
1376	1.3681e+02	-14.8039	-74.456894	0.000547	5.471832	1.853907	-0.000219
1377	1.3691e+02	-14.8520	-74.662788	0.000517	5.167842	1.750912	-0.000207
1378	1.3701e+02	-14.8889	-74.872719	0.000527	5.269172	1.785244	-0.000211
1379	1.3711e+02	-14.9258	-75.139170	0.000669	6.687795	2.265886	-0.000268
1380	1.3721e+02	-14.9611	-75.332953	0.000486	4.863851	1.647917	-0.000195
1381	1.3731e+02	-15.0028	-75.534810	0.000507	5.066511	1.716581	-0.000203
1382	1.3741e+02	-15.0541	-75.760889	0.000567	5.674493	1.922570	-0.000227
1383	1.3751e+02	-15.0846	-75.942560	0.000456	4.559860	1.544922	-0.000183
1384	1.3761e+02	-15.1231	-76.184789	0.000608	6.079814	2.059897	-0.000243
1385	1.3771e+02	-15.1664	-76.435091	0.000628	6.282474	2.128560	-0.000252
1386	1.3781e+02	-15.2081	-76.624836	0.000476	4.762521	1.613586	-0.000191
1387	1.3791e+02	-15.2530	-76.814582	0.000476	4.762521	1.613586	-0.000191
1388	1.3801e+02	-15.2867	-77.028550	0.000537	5.370502	1.819575	-0.000215
1389	1.3811e+02	-15.3284	-77.270778	0.000608	6.079814	2.059897	-0.000243
1390	1.3821e+02	-15.3669	-77.468598	0.000497	4.965181	1.682249	-0.000199
1391	1.3831e+02	-15.4022	-77.678529	0.000527	5.269172	1.785244	-0.000211
1392	1.3840e+02	-15.4536	-77.884423	0.000517	5.167842	1.750912	-0.000207
1393	1.3850e+02	-15.4841	-78.126651	0.000608	6.079814	2.059897	-0.000243
1394	1.3860e+02	-15.5226	-78.312359	0.000466	4.661190	1.579254	-0.000187
1395	1.3870e+02	-15.5659	-78.550550	0.000598	5.978483	2.025565	-0.000239
1396	1.3880e+02	-15.6108	-78.728184	0.000446	4.458530	1.510591	-0.000179
1397	1.3890e+02	-15.6429	-78.974449	0.000618	6.181144	2.094228	-0.000248
1398	1.3900e+02	-15.6782	-79.188418	0.000537	5.370502	1.819575	-0.000215
1399	1.3910e+02	-15.7247	-79.402386	0.000537	5.370502	1.819575	-0.000215
1400	1.3920e+02	-15.7680	-79.600205	0.000497	4.965181	1.682249	-0.000199
1401	1.3930e+02	-15.8049	-79.838396	0.000598	5.978483	2.025565	-0.000239
1402	1.3940e+02	-15.8370	-80.024105	0.000466	4.661190	1.579254	-0.000187
1403	1.3950e+02	-15.8755	-80.258258	0.000588	5.877153	1.991233	-0.000235
1404	1.3960e+02	-15.9204	-80.472227	0.000537	5.370502	1.819575	-0.000215
1405	1.3970e+02	-15.9637	-80.722529	0.000628	6.282474	2.128560	-0.000252
1406	1.3980e+02	-16.0054	-80.867866	0.000365	3.647888	1.235938	-0.000146
1407	1.3990e+02	-16.0503	-81.130280	0.000659	6.586465	2.231555	-0.000264
1408	1.4000e+02	-16.0840	-81.287728	0.000395	3.951879	1.338933	-0.000158
1409	1.4010e+02	-16.1145	-81.521882	0.000588	5.877153	1.991233	-0.000235
1410	1.4020e+02	-16.1659	-81.747962	0.000567	5.674493	1.922570	-0.000227
1411	1.4029e+02	-16.2028	-81.941744	0.000486	4.863851	1.647917	-0.000195
1412	1.4039e+02	-16.2348	-82.119378	0.000446	4.458530	1.510591	-0.000179
1413	1.4049e+02	-16.2830	-82.345458	0.000567	5.674493	1.922570	-0.000227
1414	1.4059e+02	-16.3231	-82.575574	0.000578	5.775823	1.956902	-0.000231
1415	1.4069e+02	-16.3552	-82.793580	0.000547	5.471832	1.853907	-0.000219
1416	1.4079e+02	-16.4049	-82.942954	0.000375	3.749218	1.270270	-0.000150
1417	1.4089e+02	-16.4418	-83.177108	0.000588	5.877153	1.991233	-0.000235
1418	1.4099e+02	-16.4803	-83.419336	0.000608	6.079814	2.059897	-0.000243
1419	1.4109e+02	-16.5172	-83.592933	0.000436	4.357200	1.476259	-0.000174
1420	1.4119e+02	-16.5573	-83.798827	0.000517	5.167842	1.750912	-0.000207
1421	1.4129e+02	-16.6022	-84.032980	0.000588	5.877153	1.991233	-0.000235
1422	1.4139e+02	-16.6343	-84.238874	0.000517	5.167842	1.750912	-0.000207
1423	1.4149e+02	-16.6728	-84.432657	0.000486	4.863851	1.647917	-0.000195
1424	1.4159e+02	-16.7145	-84.618365	0.000466	4.661190	1.579254	-0.000187
1425	1.4169e+02	-16.7578	-84.820222	0.000507	5.066511	1.716581	-0.000203
1426	1.4179e+02	-16.7931	-85.034190	0.000537	5.370502	1.819575	-0.000215
1427	1.4189e+02	-16.8428	-85.211824	0.000446	4.458530	1.510591	-0.000179
1428	1.4199e+02	-16.8781	-85.494424	0.000709	7.093116	2.403213	-0.000284
1429	1.4209e+02	-16.9166	-85.672057	0.000446	4.458530	1.510591	-0.000179
1430	1.4219e+02	-16.9551	-85.845654	0.000436	4.357200	1.476259	-0.000174
1431	1.4228e+02	-17.0001	-86.071734	0.000567	5.674493	1.922570	-0.000227
1432	1.4238e+02	-17.0370	-86.285702	0.000537	5.370502	1.819575	-0.000215
1433	1.4248e+02	-17.0787	-86.459299	0.000436	4.357200	1.476259	-0.000174
1434	1.4258e+02	-17.1124	-86.673267	0.000537	5.370502	1.819575	-0.000215
1435	1.4268e+02	-17.1541	-86.883198	0.000527	5.269172	1.785244	-0.000211
1436	1.4278e+02	-17.2006	-87.117352	0.000588	5.877153	1.991233	-0.000235
1437	1.4288e+02	-17.2279	-87.307097	0.000476	4.762521	1.613586	-0.000191
1438	1.4298e+02	-17.2824	-87.496843	0.000476	4.762521	1.613586	-0.000191
1439	1.4308e+02	-17.3145	-87.706774	0.000527	5.269172	1.785244	-0.000211
1440	1.4318e+02	-17.3562	-87.908631	0.000507	5.066511	1.716581	-0.000203
1441	1.4328e+02	-17.4043	-88.106450	0.000497	4.965181	1.682249	-0.000199
1442	1.4338e+02	-17.4300	-88.312344	0.000517	5.167842	1.750912	-0.000207
1443	1.4348e+02	-17.4845	-88.526312	0.000537	5.370502	1.819575	-0.000215
1444	1.4358e+02	-17.5118	-88.752392	0.000567	5.674493	1.922570	-0.000227
1445	1.4368e+02	-17.5663	-88.925989	0.000436	4.357200	1.476259	-0.000174
1446	1.4378e+02	-17.6000	-89.103623	0.000446	4.458530	1.510591	-0.000179
1447	1.4388e+02	-17.6321	-89.370074	0.000669	6.687795	2.265886	-0.000268
1448	1.4398e+02	-17.6802	-89.559819	0.000476	4.762521	1.613586	-0.000191
1449	1.4408e+02	-17.7220	-89.753602	0.000486	4.863851	1.647917	-0.000195
1450	1.4418e+02	-17.7540	-89.915087	0.000405	4.053209	1.373264	-0.000162
1451	1.4428e+02	-17.8054	-90.137130	0.000557	5.573162	1.888239	-0.000223
1452	1.4437e+02	-17.8439	-90.314764	0.000446	4.458530	1.510591	-0.000179
1453	1.4447e+02	-17.8872	-90.556992	0.000608	6.079814	2.059897	-0.000243
1454	1.4457e+02	-17.9113	-90.738663	0.000456	4.559860	1.544922	-0.000183
1455	1.4467e+02	-17.9546	-90.976854	0.000598	5.978483	2.025565	-0.000239
1456	1.4477e+02	-17.9963	-91.142376	0.000415	4.154539	1.407596	-0.000166
1457	1.4487e+02	-18.0364	-91.364419	0.000557	5.573162	1.888239	-0.000223
1458	1.4497e+02	-18.0749	-91.558201	0.000486	4.863851	1.647917	-0.000195
1459	1.4507e+02	-18.1102	-91.760058	0.000507	5.066511	1.716581	-0.000203
1460	1.4517e+02	-18.1599	-91.941729	0.000456	4.559860	1.544922	-0.000183
1461	1.4527e+02	-18.1904	-92.192032	0.000628	6.282474	2.128560	-0.000252
1462	1.4537e+02	-18.2273	-92.418111	0.000567	5.674493	1.922570	-0.000227
1463	1.4547e+02	-18.2770	-92.575560	0.000395	3.951879	1.338933	-0.000158
1464	1.4557e+02	-18.3107	-92.805676	0.000578	5.775823	1.956902	-0.000231
1465	1.4567e+02	-18.3572	-93.011570	0.000517	5.167842	1.750912	-0.000207
1466	1.4577e+02	-18.3925	-93.189204	0.000446	4.458530	1.510591	-0.000179
1467	1.4587e+02	-18.4342	-93.358764	0.000426	4.255870	1.441928	-0.000170
1468	1.4597e+02	-18.4663	-93.621178	0.000659	6.586465	2.231555	-0.000264
1469	1.4607e+02	-18.5096	-93.778626	0.000395	3.951879	1.338933	-0.000158
1470	1.4617e+02	-18.5562	-94.000669	0.000557	5.573162	1.888239	-0.000223
1471	1.4626e+02	-18.5931	-94.190414	0.000476	4.762521	1.613586	-0.000191
1472	1.4636e+02	-18.6332	-94.432642	0.000608	6.079814	2.059897	-0.000243
1473	1.4646e+02	-18.6749	-94.582016	0.000375	3.749218	1.270270	-0.000150
1474	1.4656e+02	-18.7102	-94.795984	0.000537	5.370502	1.819575	-0.000215
1475	1.4666e+02	-18.7567	-95.030138	0.000588	5.877153	1.991233	-0.000235
1476	1.4676e+02	-18.7936	-95.199698	0.000426	4.255870	1.441928	-0.000170
1477	1.4686e+02	-18.8305	-95.377332	0.000446	4.458530	1.510591	-0.000179
1478	1.4696e+02	-18.8722	-95.595337	0.000547	5.471832	1.853907	-0.000219
1479	1.4706e+02	-18.9123	-95.805268	0.000527	5.269172	1.785244	-0.000211
1480	1.4716e+02	-18.9588	-95.990976	0.000466	4.661190	1.579254	-0.000187
1481	1.4726e+02	-18.9957	-96.221093	0.000578	5.775823	1.956902	-0.000231
1482	1.4736e+02	-19.0246	-96.410839	0.000476	4.762521	1.613586	-0.000191
1483	1.4746e+02	-19.0727	-96.592510	0.000456	4.559860	1.544922	-0.000183
1484	1.4756e+02	-19.1080	-96.822626	0.000578	5.775823	1.956902	-0.000231
1485	1.4766e+02	-19.1433	-97.008335	0.000466	4.661190	1.579254	-0.000187
1486	1.4776e+02	-19.1866	-97.190006	0.000456	4.559860	1.544922	-0.000183
1487	1.4786e+02	-19.2396	-97.375714	0.000466	4.661190	1.579254	-0.000187
1488	1.4796e+02	-19.2716	-97.577571	0.000507	5.066511	1.716581	-0.000203
1489	1.4806e+02	-19.3085	-97.730982	0.000385	3.850549	1.304601	-0.000154
1490	1.4816e+02	-19.3599	-97.993396	0.000659	6.586465	2.231555	-0.000264
1491	1.4825e+02	-19.3904	-98.179104	0.000466	4.661190	1.579254	-0.000187
1492	1.4835e+02	-19.4337	-98.397109	0.000547	5.471832	1.853907	-0.000219
1493	1.4845e+02	-19.4706	-98.550521	0.000385	3.850549	1.304601	-0.000154
1494	1.4855e+02	-19.5123	-98.748340	0.000497	4.965181	1.682249	-0.000199
1495	1.4865e+02	-19.5396	-98.962308	0.000537	5.370502	1.819575	-0.000215
1496	1.4875e+02	-19.5845	-99.184351	0.000557	5.573162	1.888239	-0.000223
1497	1.4885e+02	-19.6294	-99.349873	0.000415	4.154539	1.407596	-0.000166
1498	1.4895e+02	-19.6679	-99.531544	0.000456	4.559860	1.544922	-0.000183
1499	1.4905e+02	-19.7112	-99.777810	0.000618	6.181144	2.094228	-0.000248
1500	1.4915e+02	-19.7433	-99.915072	0.000345	3.445228	1.167275	-0.000138
1501	1.4925e+02	-19.7914	-100.193635	0.000699	6.991786	2.368881	-0.000280
1502	1.4935e+02	-19.8315	-100.322823	0.000324	3.242567	1.098612	-0.000130
1503	1.4945e+02	-19.8764	-100.565051	0.000608	6.079814	2.059897	-0.000243
1504	1.4955e+02	-19.9021	-100.774982	0.000527	5.269172	1.785244	-0.000211
1505	1.4965e+02	-19.9534	-100.984913	0.000527	5.269172	1.785244	-0.000211
1506	1.4975e+02	-19.9871	-101.154473	0.000426	4.255870	1.441928	-0.000170
1507	1.4985e+02	-20.0369	-101.372478	0.000547	5.471832	1.853907	-0.000219
1508	1.4995e+02	-19.9839	-101.424961	-0.000132	-1.317293	-0.446311	-0.000053
1509	1.5005e+02	-19.9390	-101.465333	-0.000101	-1.013302	-0.343316	-0.000041
1510	1.5015e+02	-19.9085	-101.489555	-0.000061	-0.607981	-0.205990	-0.000024
1511	1.5025e+02	-19.8684	-101.513778	-0.000061	-0.607981	-0.205990	-0.000024
1512	1.5034e+02	-19.8299	-101.501667	0.000030	0.303991	0.102995	0.000012
1513	1.5044e+02	-19.7850	-101.529927	-0.000071	-0.709312	-0.240321	-0.000028
1514	1.5054e+02	-19.7465	-101.558187	-0.000071	-0.709312	-0.240321	-0.000028
1515	1.5064e+02	-19.7048	-101.554149	0.000010	0.101330	0.034332	0.000004
1516	1.5074e+02	-19.6695	-101.550112	0.000010	0.101330	0.034332	0.000004
1517	1.5084e+02	-19.6214	-101.525890	0.000061	0.607981	0.205990	0.000024
1518	1.5094e+02	-19.5925	-101.533964	-0.000020	-0.202660	-0.068663	-0.000008
1519	1.5104e+02	-19.5412	-101.562224	-0.000071	-0.709312	-0.240321	-0.000028
1520	1.5114e+02	-19.5059	-101.505704	0.000142	1.418623	0.480643	0.000057
1521	1.5124e+02	-19.4626	-101.501667	0.000010	0.101330	0.034332	0.000004
1522	1.5134e+02	-19.4321	-101.497630	0.000010	0.101330	0.034332	0.000004
1523	1.5144e+02	-19.3904	-101.465333	0.000081	0.810642	0.274653	0.000032
1524	1.5154e+02	-19.3503	-101.461295	0.000010	0.101330	0.034332	0.000004
1525	1.5164e+02	-19.3150	-101.465333	-0.000010	-0.101330	-0.034332	-0.000004
1526	1.5174e+02	-19.2604	-101.437073	0.000071	0.709312	0.240321	0.000028
1527	1.5184e+02	-19.2251	-101.416887	0.000051	0.506651	0.171658	0.000020
1528	1.5194e+02	-19.2027	-101.392664	0.000061	0.607981	0.205990	0.000024
1529	1.5204e+02	-19.1497	-101.364404	0.000071	0.709312	0.240321	0.000028
1530	1.5214e+02	-19.1144	-101.299810	0.000162	1.621284	0.549306	0.000065
1531	1.5224e+02	-19.0711	-101.299810	0.000000	0.000000	0.000000	0.000000
1532	1.5233e+02	-19.0294	-101.251364	0.000122	1.215963	0.411979	0.000049
1533	1.5243e+02	-18.9941	-101.223104	0.000071	0.709312	0.240321	0.000028
1534	1.5253e+02	-18.9460	-101.202919	0.000051	0.506651	0.171658	0.000020
1535	1.5263e+02	-18.9123	-101.186770	0.000041	0.405321	0.137326	0.000016
1536	1.5273e+02	-18.8674	-101.134287	0.000132	1.317293	0.446311	0.000053
1537	1.5283e+02	-18.8417	-101.089879	0.000111	1.114632	0.377648	0.000045
1538	1.5293e+02	-18.7936	-101.045470	0.000111	1.114632	0.377648	0.000045
1539	1.5303e+02	-18.7551	-101.025285	0.000051	0.506651	0.171658	0.000020
1540	1.5313e+02	-18.7166	-100.964728	0.000152	1.519953	0.514974	0.000061
1541	1.5323e+02	-18.6765	-100.940505	0.000061	0.607981	0.205990	0.000024
1542	1.5333e+02	-18.6316	-100.871874	0.000172	1.722614	0.583637	0.000069
1543	1.5343e+02	-18.5931	-100.787094	0.000213	2.127935	0.720964	0.000085
1544	1.5353e+02	-18.5546	-100.770945	0.000041	0.405321	0.137326	0.000016
1545	1.5363e+02	-18.5209	-100.710388	0.000152	1.519953	0.514974	0.000061
1546	1.5373e+02	-18.4759	-100.674054	0.000091	0.911972	0.308984	0.000037
1547	1.5383e+02	-18.4278	-100.601385	0.000182	1.823944	0.617969	0.000073
1548	1.5393e+02	-18.3941	-100.589274	0.000030	0.303991	0.102995	0.000012
1549	1.5403e+02	-18.3717	-100.532754	0.000142	1.418623	0.480643	0.000057
1550	1.5413e+02	-18.3219	-100.508531	0.000061	0.607981	0.205990	0.000024
1551	1.5422e+02	-18.2690	-100.415677	0.000233	2.330595	0.789627	0.000093
1552	1.5432e+02	-18.2385	-100.334934	0.000203	2.026605	0.686632	0.000081
1553	1.5442e+02	-18.2016	-100.290526	0.000111	1.114632	0.377648	0.000045
1554	1.5452e+02	-18.1503	-100.229969	0.000152	1.519953	0.514974	0.000061
1555	1.5462e+02	-18.1054	-100.221895	0.000020	0.202660	0.068663	0.000008
1556	1.5472e+02	-18.0829	-100.108855	0.000284	2.837246	0.961285	0.000114
1557	1.5482e+02	-18.0300	-100.076558	0.000081	0.810642	0.274653	0.000032
1558	1.5492e+02	-17.9931	-99.999852	0.000193	1.925274	0.652301	0.000077
1559	1.5502e+02	-17.9546	-99.951407	0.000122	1.215963	0.411979	0.000049
1560	1.5512e+02	-17.9177	-99.866627	0.000213	2.127935	0.720964	0.000085
1561	1.5522e+02	-17.8744	-99.830293	0.000091	0.911972	0.308984	0.000037
1562	1.5532e+02	-17.8343	-99.781847	0.000122	1.215963	0.411979	0.000049
1563	1.5542e+02	-17.8022	-99.713216	0.000172	1.722614	0.583637	0.000069
1564	1.5552e+02	-17.7508	-99.636510	0.000193	1.925274	0.652301	0.000077
1565	1.5562e+02	-17.7155	-99.596139	0.000101	1.013302	0.343316	0.000041
1566	1.5572e+02	-17.6786	-99.515396	0.000203	2.026605	0.686632	0.000081
1567	1.5582e+02	-17.6417	-99.450802	0.000162	1.621284	0.549306	0.000065
1568	1.5592e+02	-17.6032	-99.386208	0.000162	1.621284	0.549306	0.000065
1569	1.5602e+02	-17.5583	-99.357948	0.000071	0.709312	0.240321	0.000028
1570	1.5612e+02	-17.5134	-99.212611	0.000365	3.647888	1.235938	0.000146
1571	1.5622e+02	-17.4910	-99.192425	0.000051	0.506651	0.171658	0.000020
1572	1.5631e+02	-17.4332	-99.119757	0.000182	1.823944	0.617969	0.000073
1573	1.5641e+02	-17.3915	-99.022865	0.000243	2.431925	0.823959	0.000097
1574	1.5651e+02	-17.3562	-98.990568	0.000081	0.810642	0.274653	0.000032
1575	1.5661e+02	-17.3129	-98.865417	0.000314	3.141237	1.064280	0.000126
1576	1.5671e+02	-17.2840	-98.865417	0.000000	0.000000	0.000000	0.000000
1577	1.5681e+02	-17.2391	-98.764489	0.000253	2.533256	0.858290	0.000101
1578	1.5691e+02	-17.1942	-98.687783	0.000193	1.925274	0.652301	0.000077
1579	1.5701e+02	-17.1605	-98.635300	0.000132	1.317293	0.446311	0.000053
1580	1.5711e+02	-17.1188	-98.522261	0.000284	2.837246	0.961285	0.000114
1581	1.5721e+02	-17.0867	-98.425369	0.000243	2.431925	0.823959	0.000097
1582	1.5731e+02	-17.0353	-98.360775	0.000162	1.621284	0.549306	0.000065
1583	1.5741e+02	-17.0049	-98.308292	0.000132	1.317293	0.446311	0.000053
1584	1.5751e+02	-16.9599	-98.231587	0.000193	1.925274	0.652301	0.000077
1585	1.5761e+02	-16.9214	-98.118547	0.000284	2.837246	0.961285	0.000114
1586	1.5771e+02	-16.8717	-98.086250	0.000081	0.810642	0.274653	0.000032
1587	1.5781e+02	-16.8284	-97.981284	0.000263	2.634586	0.892622	0.000105
1588	1.5791e+02	-16.7979	-97.896505	0.000213	2.127935	0.720964	0.000085
1589	1.5801e+02	-16.7594	-97.775390	0.000304	3.039907	1.029948	0.000122
1590	1.5811e+02	-16.7145	-97.743093	0.000081	0.810642	0.274653	0.000032
1591	1.5821e+02	-16.6728	-97.678499	0.000162	1.621284	0.549306	0.000065
1592	1.5830e+02	-16.6423	-97.549311	0.000324	3.242567	1.098612	0.000130
1593	1.5840e+02	-16.6054	-97.440308	0.000274	2.735916	0.926953	0.000110
1594	1.5850e+02	-16.5605	-97.375714	0.000162	1.621284	0.549306	0.000065
1595	1.5860e+02	-16.5108	-97.299008	0.000193	1.925274	0.652301	0.000077
1596	1.5870e+02	-16.4819	-97.190006	0.000274	2.735916	0.926953	0.000110
1597	1.5880e+02	-16.4370	-97.101189	0.000223	2.229265	0.755295	0.000089
1598	1.5890e+02	-16.3985	-96.996223	0.000263	2.634586	0.892622	0.000105
1599	1.5900e+02	-16.3600	-96.923555	0.000182	1.823944	0.617969	0.000073
1600	1.5910e+02	-16.3183	-96.846849	0.000193	1.925274	0.652301	0.000077
1601	1.5920e+02	-16.2830	-96.721698	0.000314	3.141237	1.064280	0.000126
1602	1.5930e+02	-16.2429	-96.636918	0.000213	2.127935	0.720964	0.000085
1603	1.5940e+02	-16.1963	-96.572324	0.000162	1.621284	0.549306	0.000065
1604	1.5950e+02	-16.1594	-96.455247	0.000294	2.938577	0.995617	0.000118
1605	1.5960e+02	-16.1241	-96.366430	0.000223	2.229265	0.755295	0.000089
1606	1.5970e+02	-16.0872	-96.273576	0.000233	2.330595	0.789627	0.000093
1607	1.5980e+02	-16.0487	-96.237242	0.000091	0.911972	0.308984	0.000037
1608	1.5990e+02	-16.0022	-96.104016	0.000334	3.343897	1.132943	0.000134
1609	1.6000e+02	-15.9669	-95.986939	0.000294	2.938577	0.995617	0.000118
1610	1.6010e+02	-15.9172	-95.914271	0.000182	1.823944	0.617969	0.000073
1611	1.6019e+02	-15.8819	-95.793157	0.000304	3.039907	1.029948	0.000122
1612	1.6029e+02	-15.8418	-95.712414	0.000203	2.026605	0.686632	0.000081
1613	1.6039e+02	-15.8001	-95.623597	0.000223	2.229265	0.755295	0.000089
1614	1.6049e+02	-15.7760	-95.510557	0.000284	2.837246	0.961285	0.000114
1615	1.6059e+02	-15.7263	-95.437889	0.000182	1.823944	0.617969	0.000073
1616	1.6069e+02	-15.6846	-95.345035	0.000233	2.330595	0.789627	0.000093
1617	1.6079e+02	-15.6381	-95.231995	0.000284	2.837246	0.961285	0.000114
1618	1.6089e+02	-15.6092	-95.114918	0.000294	2.938577	0.995617	0.000118
1619	1.6099e+02	-15.5707	-95.034175	0.000203	2.026605	0.686632	0.000081
1620	1.6109e+02	-15.5242	-94.945358	0.000223	2.229265	0.755295	0.000089
1621	1.6119e+02	-15.4905	-94.856541	0.000223	2.229265	0.755295	0.000089
1622	1.6129e+02	-15.4439	-94.743502	0.000284	2.837246	0.961285	0.000114
1623	1.6139e+02	-15.4006	-94.610276	0.000334	3.343897	1.132943	0.000134
1624	1.6149e+02	-15.3637	-94.561830	0.000122	1.215963	0.411979	0.000049
1625	1.6159e+02	-15.3317	-94.440716	0.000304	3.039907	1.029948	0.000122
1626	1.6169e+02	-15.2867	-94.355936	0.000213	2.127935	0.720964	0.000085
1627	1.6179e+02	-15.2434	-94.238860	0.000294	2.938577	0.995617	0.000118
1628	1.6189e+02	-15.2065	-94.150043	0.000223	2.229265	0.755295	0.000089
1629	1.6199e+02	-15.1696	-94.024891	0.000314	3.141237	1.064280	0.000126
1630	1.6209e+02	-15.1343	-93.928000	0.000243	2.431925	0.823959	0.000097
1631	1.6219e+02	-15.0846	-93.810923	0.000294	2.938577	0.995617	0.000118
1632	1.6228e+02	-15.0461	-93.714032	0.000243	2.431925	0.823959	0.000097
1633	1.6238e+02	-15.0044	-93.556584	0.000395	3.951879	1.338933	0.000158
1634	1.6248e+02	-14.9595	-93.508138	0.000122	1.215963	0.411979	0.000049
1635	1.6258e+02	-14.9354	-93.411247	0.000243	2.431925	0.823959	0.000097
1636	1.6268e+02	-14.8889	-93.298207	0.000284	2.837246	0.961285	0.000114
1637	1.6278e+02	-14.8472	-93.197279	0.000253	2.533256	0.858290	0.000101
1638	1.6288e+02	-14.8055	-93.047904	0.000375	3.749218	1.270270	0.000150
1639	1.6298e+02	-14.7686	-92.979273	0.000172	1.722614	0.583637	0.000069
1640	1.6308e+02	-14.7317	-92.854122	0.000314	3.141237	1.064280	0.000126
1641	1.6318e+02	-14.6900	-92.753194	0.000253	2.533256	0.858290	0.000101
1642	1.6328e+02	-14.6418	-92.676488	0.000193	1.925274	0.652301	0.000077
1643	1.6338e+02	-14.5985	-92.555374	0.000304	3.039907	1.029948	0.000122
1644	1.6348e+02	-14.5712	-92.434260	0.000304	3.039907	1.029948	0.000122
1645	1.6358e+02	-14.5183	-92.313146	0.000304	3.039907	1.029948	0.000122
1646	1.6368e+02	-14.4878	-92.196069	0.000294	2.938577	0.995617	0.000118
1647	1.6378e+02	-14.4557	-92.087066	0.000274	2.735916	0.926953	0.000110
1648	1.6388e+02	-14.4060	-91.982101	0.000263	2.634586	0.892622	0.000105
1649	1.6398e+02	-14.3755	-91.869061	0.000284	2.837246	0.961285	0.000114
1650	1.6408e+02	-14.3210	-91.691427	0.000446	4.458530	1.510591	0.000179
1651	1.6418e+02	-14.2921	-91.594536	0.000243	2.431925	0.823959	0.000097
1652	1.6427e+02	-14.2488	-91.521867	0.000182	1.823944	0.617969	0.000073
1653	1.6437e+02	-14.2023	-91.388642	0.000334	3.343897	1.132943	0.000134
1654	1.6447e+02	-14.1638	-91.299825	0.000223	2.229265	0.755295	0.000089
1655	1.6457e+02	-14.1253	-91.162562	0.000345	3.445228	1.167275	0.000138
1656	1.6467e+02	-14.0868	-91.061634	0.000253	2.533256	0.858290	0.000101
1657	1.6477e+02	-14.0531	-90.932445	0.000324	3.242567	1.098612	0.000130
1658	1.6487e+02	-14.0098	-90.799220	0.000334	3.343897	1.132943	0.000134
1659	1.6497e+02	-13.9713	-90.702329	0.000243	2.431925	0.823959	0.000097
1660	1.6507e+02	-13.9279	-90.585252	0.000294	2.938577	0.995617	0.000118
1661	1.6517e+02	-13.8862	-90.439915	0.000365	3.647888	1.235938	0.000146
1662	1.6527e+02	-13.8509	-90.314764	0.000314	3.141237	1.064280	0.000126
1663	1.6537e+02	-13.8092	-90.229984	0.000213	2.127935	0.720964	0.000085
1664	1.6547e+02	-13.7691	-90.096758	0.000334	3.343897	1.132943	0.000134
1665	1.6557e+02	-13.7290	-89.999867	0.000243	2.431925	0.823959	0.000097
1666	1.6567e+02	-13.6953	-89.866642	0.000334	3.343897	1.132943	0.000134
1667	1.6577e+02	-13.6488	-89.769750	0.000243	2.431925	0.823959	0.000097
1668	1.6587e+02	-13.6119	-89.620376	0.000375	3.749218	1.270270	0.000150
1669	1.6597e+02	-13.5734	-89.499262	0.000304	3.039907	1.029948	0.000122
1670	1.6607e+02	-13.5301	-89.462928	0.000091	0.911972	0.308984	0.000037
1671	1.6616e+02	-13.5028	-89.265108	0.000497	4.965181	1.682249	0.000199
1672	1.6626e+02	-13.4467	-89.152069	0.000284	2.837246	0.961285	0.000114
1673	1.6636e+02	-13.4066	-89.059214	0.000233	2.330595	0.789627	0.000093
1674	1.6646e+02	-13.3729	-88.921952	0.000345	3.445228	1.167275	0.000138
1675	1.6656e+02	-13.3440	-88.764503	0.000395	3.951879	1.338933	0.000158
1676	1.6666e+02	-13.2911	-88.659538	0.000263	2.634586	0.892622	0.000105
1677	1.6676e+02	-13.2510	-88.570721	0.000223	2.229265	0.755295	0.000089
1678	1.6686e+02	-13.2141	-88.449607	0.000304	3.039907	1.029948	0.000122
1679	1.6696e+02	-13.1675	-88.312344	0.000345	3.445228	1.167275	0.000138
1680	1.6706e+02	-13.1274	-88.183156	0.000324	3.242567	1.098612	0.000130
1681	1.6716e+02	-13.0986	-88.102413	0.000203	2.026605	0.686632	0.000081
1682	1.6726e+02	-13.0536	-87.932854	0.000426	4.255870	1.441928	0.000170
1683	1.6736e+02	-13.0119	-87.852111	0.000203	2.026605	0.686632	0.000081
1684	1.6746e+02	-12.9686	-87.739071	0.000284	2.837246	0.961285	0.000114
1685	1.6756e+02	-12.9446	-87.581623	0.000395	3.951879	1.338933	0.000158
1686	1.6766e+02	-12.8932	-87.408026	0.000436	4.357200	1.476259	0.000174
1687	1.6776e+02	-12.8579	-87.327283	0.000203	2.026605	0.686632	0.000081
1688	1.6786e+02	-12.8162	-87.222318	0.000263	2.634586	0.892622	0.000105
1689	1.6796e+02	-12.7809	-87.064869	0.000395	3.951879	1.338933	0.000158
1690	1.6806e+02	-12.7344	-86.927607	0.000345	3.445228	1.167275	0.000138
1691	1.6816e+02	-12.6975	-86.867050	0.000152	1.519953	0.514974	0.000061
1692	1.6825e+02	-12.6670	-86.701527	0.000415	4.154539	1.407596	0.000166
1693	1.6835e+02	-12.6125	-86.572339	0.000324	3.242567	1.098612	0.000130
1694	1.6845e+02	-12.5740	-86.410853	0.000405	4.053209	1.373264	0.000162
1695	1.6855e+02	-12.5451	-86.317999	0.000233	2.330595	0.789627	0.000093
1696	1.6865e+02	-12.4986	-86.156514	0.000405	4.053209	1.373264	0.000162
1697	1.6875e+02	-12.4488	-86.035400	0.000304	3.039907	1.029948	0.000122
1698	1.6885e+02	-12.4280	-85.886026	0.000375	3.749218	1.270270	0.000150
1699	1.6895e+02	-12.3783	-85.768949	0.000294	2.938577	0.995617	0.000118
1700	1.6905e+02	-12.3349	-85.672057	0.000243	2.431925	0.823959	0.000097
1701	1.6915e+02	-12.3061	-85.526721	0.000365	3.647888	1.235938	0.000146
1702	1.6925e+02	-12.2563	-85.369272	0.000395	3.951879	1.338933	0.000158
1703	1.6935e+02	-12.2178	-85.264307	0.000263	2.634586	0.892622	0.000105
1704	1.6945e+02	-12.1777	-85.147230	0.000294	2.938577	0.995617	0.000118
1705	1.6955e+02	-12.1440	-84.961522	0.000466	4.661190	1.579254	0.000187
1706	1.6965e+02	-12.0959	-84.868667	0.000233	2.330595	0.789627	0.000093
1707	1.6975e+02	-12.0542	-84.727368	0.000355	3.546558	1.201606	0.000142
1708	1.6985e+02	-12.0221	-84.590105	0.000345	3.445228	1.167275	0.000138
1709	1.6995e+02	-11.9868	-84.420545	0.000426	4.255870	1.441928	0.000170
1710	1.7005e+02	-11.9371	-84.323654	0.000243	2.431925	0.823959	0.000097
1711	1.7015e+02	-11.9018	-84.162169	0.000405	4.053209	1.373264	0.000162
1712	1.7024e+02	-11.8537	-84.065277	0.000243	2.431925	0.823959	0.000097
1713	1.7034e+02	-11.8184	-83.867458	0.000497	4.965181	1.682249	0.000199
1714	1.7044e+02	-11.7751	-83.754418	0.000284	2.837246	0.961285	0.000114
1715	1.7054e+02	-11.7430	-83.617155	0.000345	3.445228	1.167275	0.000138
1716	1.7064e+02	-11.7029	-83.443559	0.000436	4.357200	1.476259	0.000174
1717	1.7074e+02	-11.6515	-83.346667	0.000243	2.431925	0.823959	0.000097
1718	1.7084e+02	-11.6211	-83.197293	0.000375	3.749218	1.270270	0.000150
1719	1.7094e+02	-11.5761	-83.080216	0.000294	2.938577	0.995617	0.000118
1720	1.7104e+02	-11.5392	-82.942954	0.000345	3.445228	1.167275	0.000138
1721	1.7114e+02	-11.5056	-82.765320	0.000446	4.458530	1.510591	0.000179
1722	1.7124e+02	-11.4606	-82.640169	0.000314	3.141237	1.064280	0.000126
1723	1.7134e+02	-11.4286	-82.510980	0.000324	3.242567	1.098612	0.000130
1724	1.7144e+02	-11.3804	-82.349495	0.000405	4.053209	1.373264	0.000162
1725	1.7154e+02	-11.3387	-82.252604	0.000243	2.431925	0.823959	0.000097
1726	1.7164e+02	-11.2970	-82.091118	0.000405	4.053209	1.373264	0.000162
1727	1.7174e+02	-11.2633	-81.905410	0.000466	4.661190	1.579254	0.000187
1728	1.7184e+02	-11.2264	-81.776222	0.000324	3.242567	1.098612	0.000130
1729	1.7194e+02	-11.1831	-81.614736	0.000405	4.053209	1.373264	0.000162
1730	1.7204e+02	-11.1366	-81.509771	0.000263	2.634586	0.892622	0.000105
1731	1.7213e+02	-11.0949	-81.368471	0.000355	3.546558	1.201606	0.000142
1732	1.7223e+02	-11.0548	-81.239282	0.000324	3.242567	1.098612	0.000130
1733	1.7233e+02	-11.0115	-81.061648	0.000446	4.458530	1.510591	0.000179
1734	1.7243e+02	-10.9842	-80.892089	0.000426	4.255870	1.441928	0.000170
1735	1.7253e+02	-10.9393	-80.758863	0.000334	3.343897	1.132943	0.000134
1736	1.7263e+02	-10.8943	-80.637749	0.000304	3.039907	1.029948	0.000122
1737	1.7273e+02	-10.8574	-80.488375	0.000375	3.749218	1.270270	0.000150
1738	1.7283e+02	-10.8270	-80.326890	0.000405	4.053209	1.373264	0.000162
1739	1.7293e+02	-10.7772	-80.201739	0.000314	3.141237	1.064280	0.000126
1740	1.7303e+02	-10.7355	-80.048327	0.000385	3.850549	1.304601	0.000154
1741	1.7313e+02	-10.7034	-79.886842	0.000405	4.053209	1.373264	0.000162
1742	1.7323e+02	-10.6649	-79.745542	0.000355	3.546558	1.201606	0.000142
1743	1.7333e+02	-10.6264	-79.604242	0.000355	3.546558	1.201606	0.000142
1744	1.7343e+02	-10.5911	-79.491203	0.000284	2.837246	0.961285	0.000114
1745	1.7353e+02	-10.5446	-79.301457	0.000476	4.762521	1.613586	0.000191
1746	1.7363e+02	-10.5045	-79.160158	0.000355	3.546558	1.201606	0.000142
1747	1.7373e+02	-10.4596	-79.010784	0.000375	3.749218	1.270270	0.000150
1748	1.7383e+02	-10.4227	-78.857372	0.000385	3.850549	1.304601	0.000154
1749	1.7393e+02	-10.3826	-78.707998	0.000375	3.749218	1.270270	0.000150
1750	1.7403e+02	-10.3457	-78.574773	0.000334	3.343897	1.132943	0.000134
1751	1.7413e+02	-10.3040	-78.372916	0.000507	5.066511	1.716581	0.000203
1752	1.7422e+02	-10.2703	-78.235653	0.000345	3.445228	1.167275	0.000138
1753	1.7432e+02	-10.2238	-78.074168	0.000405	4.053209	1.373264	0.000162
1754	1.7442e+02	-10.1837	-77.932868	0.000355	3.546558	1.201606	0.000142
1755	1.7452e+02	-10.1516	-77.743123	0.000476	4.762521	1.613586	0.000191
1756	1.7462e+02	-10.1131	-77.593749	0.000375	3.749218	1.270270	0.000150
1757	1.7472e+02	-10.0617	-77.416115	0.000446	4.458530	1.510591	0.000179
1758	1.7482e+02	-10.0200	-77.307112	0.000274	2.735916	0.926953	0.000110
1759	1.7492e+02	-9.9896	-77.137553	0.000426	4.255870	1.441928	0.000170
1760	1.7502e+02	-9.9543	-76.943770	0.000486	4.863851	1.647917	0.000195
1761	1.7512e+02	-9.9061	-76.826693	0.000294	2.938577	0.995617	0.000118
1762	1.7522e+02	-9.8692	-76.649059	0.000446	4.458530	1.510591	0.000179
1763	1.7532e+02	-9.8259	-76.503722	0.000365	3.647888	1.235938	0.000146
1764	1.7542e+02	-9.7842	-76.334163	0.000426	4.255870	1.441928	0.000170
1765	1.7552e+02	-9.7521	-76.140380	0.000486	4.863851	1.647917	0.000195
1766	1.7562e+02	-9.7008	-76.039452	0.000253	2.533256	0.858290	0.000101
1767	1.7572e+02	-9.6719	-75.853743	0.000466	4.661190	1.579254	0.000187
1768	1.7582e+02	-9.6302	-75.740704	0.000284	2.837246	0.961285	0.000114
1769	1.7592e+02	-9.5933	-75.530773	0.000527	5.269172	1.785244	0.000211
1770	1.7602e+02	-9.5468	-75.393510	0.000345	3.445228	1.167275	0.000138
1771	1.7612e+02	-9.5179	-75.236062	0.000395	3.951879	1.338933	0.000158
1772	1.7621e+02	-9.4730	-75.054391	0.000456	4.559860	1.544922	0.000183
1773	1.7631e+02	-9.4297	-74.913091	0.000355	3.546558	1.201606	0.000142
1774	1.7641e+02	-9.3864	-74.711234	0.000507	5.066511	1.716581	0.000203
1775	1.7651e+02	-9.3543	-74.594157	0.000294	2.938577	0.995617	0.000118
1776	1.7661e+02	-9.3046	-74.404412	0.000476	4.762521	1.613586	0.000191
1777	1.7671e+02	-9.2725	-74.194481	0.000527	5.269172	1.785244	0.000211
1778	1.7681e+02	-9.2211	-74.097589	0.000243	2.431925	0.823959	0.000097
1779	1.7691e+02	-9.1874	-73.903807	0.000486	4.863851	1.647917	0.000195
1780	1.7701e+02	-9.1489	-73.774618	0.000324	3.242567	1.098612	0.000130
1781	1.7711e+02	-9.1185	-73.592947	0.000456	4.559860	1.544922	0.000183
1782	1.7721e+02	-9.0607	-73.435499	0.000395	3.951879	1.338933	0.000158
1783	1.7731e+02	-9.0350	-73.286125	0.000375	3.749218	1.270270	0.000150
1784	1.7741e+02	-8.9805	-73.088305	0.000497	4.965181	1.682249	0.000199
1785	1.7751e+02	-8.9516	-72.934894	0.000385	3.850549	1.304601	0.000154
1786	1.7761e+02	-8.9035	-72.749186	0.000466	4.661190	1.579254	0.000187
1787	1.7771e+02	-8.8714	-72.619998	0.000324	3.242567	1.098612	0.000130
1788	1.7781e+02	-8.8361	-72.406029	0.000537	5.370502	1.819575	0.000215
1789	1.7791e+02	-8.7848	-72.236470	0.000426	4.255870	1.441928	0.000170
1790	1.7801e+02	-8.7463	-72.119393	0.000294	2.938577	0.995617	0.000118
1791	1.7810e+02	-8.7126	-71.909462	0.000527	5.269172	1.785244	0.000211
1792	1.7820e+02	-8.6693	-71.739902	0.000426	4.255870	1.441928	0.000170
1793	1.7830e+02	-8.6388	-71.578417	0.000405	4.053209	1.373264	0.000162
1794	1.7840e+02	-8.5891	-71.420968	0.000395	3.951879	1.338933	0.000158
1795	1.7850e+02	-8.5554	-71.267557	0.000385	3.850549	1.304601	0.000154
1796	1.7860e+02	-8.5185	-71.073775	0.000486	4.863851	1.647917	0.000195
1797	1.7870e+02	-8.4671	-70.920364	0.000385	3.850549	1.304601	0.000154
1798	1.7880e+02	-8.4351	-70.734655	0.000466	4.661190	1.579254	0.000187
1799	1.7890e+02	-8.3966	-70.528761	0.000517	5.167842	1.750912	0.000207
1800	1.7900e+02	-8.3532	-70.415722	0.000284	2.837246	0.961285	0.000114
1801	1.7910e+02	-8.3179	-70.230013	0.000466	4.661190	1.579254	0.000187
1802	1.7920e+02	-8.2827	-70.036231	0.000486	4.863851	1.647917	0.000195
1803	1.7930e+02	-8.2297	-69.890894	0.000365	3.647888	1.235938	0.000146
1804	1.7940e+02	-8.1976	-69.689037	0.000507	5.066511	1.716581	0.000203
1805	1.7950e+02	-8.1479	-69.507366	0.000456	4.559860	1.544922	0.000183
1806	1.7960e+02	-8.1126	-69.366066	0.000355	3.546558	1.201606	0.000142
1807	1.7970e+02	-8.0773	-69.200544	0.000415	4.154539	1.407596	0.000166
1808	1.7980e+02	-8.0324	-69.006761	0.000486	4.863851	1.647917	0.000195
1809	1.7990e+02	-7.9907	-68.829127	0.000446	4.458530	1.510591	0.000179
1810	1.8000e+02	-7.9522	-68.651493	0.000446	4.458530	1.510591	0.000179
1811	1.8009e+02	-7.9057	-68.465785	0.000466	4.661190	1.579254	0.000187
1812	1.8019e+02	-7.8688	-68.308337	0.000395	3.951879	1.338933	0.000158
1813	1.8029e+02	-7.8303	-68.110517	0.000497	4.965181	1.682249	0.000199
1814	1.8039e+02	-7.7902	-67.936920	0.000436	4.357200	1.476259	0.000174
1815	1.8049e+02	-7.7565	-67.726989	0.000527	5.269172	1.785244	0.000211
1816	1.8059e+02	-7.7196	-67.561467	0.000415	4.154539	1.407596	0.000166
1817	1.8069e+02	-7.6746	-67.436315	0.000314	3.141237	1.064280	0.000126
1818	1.8079e+02	-7.6313	-67.206199	0.000578	5.775823	1.956902	0.000231
1819	1.8089e+02	-7.5912	-67.064899	0.000355	3.546558	1.201606	0.000142
1820	1.8099e+02	-7.5543	-66.867079	0.000497	4.965181	1.682249	0.000199
1821	1.8109e+02	-7.5255	-66.669260	0.000497	4.965181	1.682249	0.000199
1822	1.8119e+02	-7.4757	-66.475477	0.000486	4.863851	1.647917	0.000195
1823	1.8129e+02	-7.4388	-66.297843	0.000446	4.458530	1.510591	0.000179
1824	1.8139e+02	-7.3971	-66.112135	0.000466	4.661190	1.579254	0.000187
1825	1.8149e+02	-7.3570	-65.978909	0.000334	3.343897	1.132943	0.000134
1826	1.8159e+02	-7.3105	-65.785127	0.000486	4.863851	1.647917	0.000195
1827	1.8169e+02	-7.2832	-65.571159	0.000537	5.370502	1.819575	0.000215
1828	1.8179e+02	-7.2303	-65.401599	0.000426	4.255870	1.441928	0.000170
1829	1.8189e+02	-7.1966	-65.191668	0.000527	5.269172	1.785244	0.000211
1830	1.8199e+02	-7.1549	-65.038257	0.000385	3.850549	1.304601	0.000154
1831	1.8209e+02	-7.1196	-64.848511	0.000476	4.762521	1.613586	0.000191
1832	1.8218e+02	-7.0747	-64.682989	0.000415	4.154539	1.407596	0.000166
1833	1.8228e+02	-7.0346	-64.493243	0.000476	4.762521	1.613586	0.000191
1834	1.8238e+02	-6.9993	-64.287349	0.000517	5.167842	1.750912	0.000207
1835	1.8248e+02	-6.9560	-64.129901	0.000395	3.951879	1.338933	0.000158
1836	1.8258e+02	-6.9126	-63.948230	0.000456	4.559860	1.544922	0.000183
1837	1.8268e+02	-6.8806	-63.742336	0.000517	5.167842	1.750912	0.000207
1838	1.8278e+02	-6.8388	-63.540479	0.000507	5.066511	1.716581	0.000203
1839	1.8288e+02	-6.8003	-63.383031	0.000395	3.951879	1.338933	0.000158
1840	1.8298e+02	-6.7538	-63.205397	0.000446	4.458530	1.510591	0.000179
1841	1.8308e+02	-6.7169	-63.027763	0.000446	4.458530	1.510591	0.000179
1842	1.8318e+02	-6.6848	-62.809758	0.000547	5.471832	1.853907	0.000219
1843	1.8328e+02	-6.6287	-62.664421	0.000365	3.647888	1.235938	0.000146
1844	1.8338e+02	-6.5950	-62.446416	0.000547	5.471832	1.853907	0.000219
1845	1.8348e+02	-6.5549	-62.268782	0.000446	4.458530	1.510591	0.000179
1846	1.8358e+02	-6.5196	-62.074999	0.000486	4.863851	1.647917	0.000195
1847	1.8368e+02	-6.4827	-61.877179	0.000497	4.965181	1.682249	0.000199
1848	1.8378e+02	-6.4458	-61.707620	0.000426	4.255870	1.441928	0.000170
1849	1.8388e+02	-6.4025	-61.525949	0.000456	4.559860	1.544922	0.000183
1850	1.8398e+02	-6.3624	-61.364463	0.000405	4.053209	1.373264	0.000162
1851	1.8407e+02	-6.3159	-61.154532	0.000527	5.269172	1.785244	0.000211
1852	1.8417e+02	-6.2854	-61.005158	0.000375	3.749218	1.270270	0.000150
1853	1.8427e+02	-6.2453	-60.762930	0.000608	6.079814	2.059897	0.000243
1854	1.8437e+02	-6.2052	-60.613556	0.000375	3.749218	1.270270	0.000150
1855	1.8447e+02	-6.1603	-60.415736	0.000497	4.965181	1.682249	0.000199
1856	1.8457e+02	-6.1234	-60.205805	0.000527	5.269172	1.785244	0.000211
1857	1.8467e+02	-6.0881	-60.064506	0.000355	3.546558	1.201606	0.000142
1858	1.8477e+02	-6.0496	-59.842463	0.000557	5.573162	1.888239	0.000223
1859	1.8487e+02	-6.0079	-59.596198	0.000618	6.181144	2.094228	0.000248
1860	1.8497e+02	-5.9694	-59.454898	0.000355	3.546558	1.201606	0.000142
1861	1.8507e+02	-5.9244	-59.208633	0.000618	6.181144	2.094228	0.000248
1862	1.8517e+02	-5.8779	-59.047147	0.000405	4.053209	1.373264	0.000162
1863	1.8527e+02	-5.8490	-58.849328	0.000497	4.965181	1.682249	0.000199
1864	1.8537e+02	-5.8057	-58.659582	0.000476	4.762521	1.613586	0.000191
1865	1.8547e+02	-5.7704	-58.490023	0.000426	4.255870	1.441928	0.000170
1866	1.8557e+02	-5.7255	-58.284129	0.000517	5.167842	1.750912	0.000207
1867	1.8567e+02	-5.6822	-58.070160	0.000537	5.370502	1.819575	0.000215
1868	1.8577e+02	-5.6405	-57.864267	0.000517	5.167842	1.750912	0.000207
1869	1.8587e+02	-5.6052	-57.690670	0.000436	4.357200	1.476259	0.000174
1870	1.8597e+02	-5.5603	-57.444404	0.000618	6.181144	2.094228	0.000248
1871	1.8606e+02	-5.5266	-57.254659	0.000476	4.762521	1.613586	0.000191
1872	1.8616e+02	-5.4785	-57.072988	0.000456	4.559860	1.544922	0.000183
1873	1.8626e+02	-5.4496	-56.907465	0.000415	4.154539	1.407596	0.000166
1874	1.8636e+02	-5.4095	-56.693497	0.000537	5.370502	1.819575	0.000215
1875	1.8646e+02	-5.3726	-56.471455	0.000557	5.573162	1.888239	0.000223
1876	1.8656e+02	-5.3261	-56.285746	0.000466	4.661190	1.579254	0.000187
1877	1.8666e+02	-5.2924	-56.063704	0.000557	5.573162	1.888239	0.000223
1878	1.8676e+02	-5.2490	-55.857810	0.000517	5.167842	1.750912	0.000207
1879	1.8686e+02	-5.1977	-55.639805	0.000547	5.471832	1.853907	0.000219
1880	1.8696e+02	-5.1656	-55.437948	0.000507	5.066511	1.716581	0.000203
1881	1.8706e+02	-5.1175	-55.248203	0.000476	4.762521	1.613586	0.000191
1882	1.8716e+02	-5.0870	-55.058457	0.000476	4.762521	1.613586	0.000191
1883	1.8726e+02	-5.0421	-54.872749	0.000466	4.661190	1.579254	0.000187
1884	1.8736e+02	-5.0164	-54.626484	0.000618	6.181144	2.094228	0.000248
1885	1.8746e+02	-4.9731	-54.440775	0.000466	4.661190	1.579254	0.000187
1886	1.8756e+02	-4.9330	-54.218733	0.000557	5.573162	1.888239	0.000223
1887	1.8766e+02	-4.8897	-54.028988	0.000476	4.762521	1.613586	0.000191
1888	1.8776e+02	-4.8496	-53.802908	0.000567	5.674493	1.922570	0.000227
1889	1.8786e+02	-4.8127	-53.588940	0.000537	5.370502	1.819575	0.000215
1890	1.8796e+02	-4.7710	-53.387083	0.000507	5.066511	1.716581	0.000203
1891	1.8806e+02	-4.7341	-53.173115	0.000537	5.370502	1.819575	0.000215
1892	1.8815e+02	-4.6876	-52.987407	0.000466	4.661190	1.579254	0.000187
1893	1.8825e+02	-4.6603	-52.761327	0.000567	5.674493	1.922570	0.000227
1894	1.8835e+02	-4.6041	-52.563507	0.000497	4.965181	1.682249	0.000199
1895	1.8845e+02	-4.5560	-52.337428	0.000567	5.674493	1.922570	0.000227
1896	1.8855e+02	-4.5336	-52.163831	0.000436	4.357200	1.476259	0.000174
1897	1.8865e+02	-4.4742	-51.917566	0.000618	6.181144	2.094228	0.000248
1898	1.8875e+02	-4.4517	-51.735894	0.000456	4.559860	1.544922	0.000183
1899	1.8885e+02	-4.4116	-51.501741	0.000588	5.877153	1.991233	0.000235
1900	1.8895e+02	-4.3796	-51.316032	0.000466	4.661190	1.579254	0.000187
1901	1.8905e+02	-4.3218	-51.085916	0.000578	5.775823	1.956902	0.000231
1902	1.8915e+02	-4.2897	-50.900207	0.000466	4.661190	1.579254	0.000187
1903	1.8925e+02	-4.2528	-50.670091	0.000578	5.775823	1.956902	0.000231
1904	1.8935e+02	-4.2079	-50.460160	0.000527	5.269172	1.785244	0.000211
1905	1.8945e+02	-4.1806	-50.246191	0.000537	5.370502	1.819575	0.000215
1906	1.8955e+02	-4.1309	-50.016075	0.000578	5.775823	1.956902	0.000231
1907	1.8965e+02	-4.0892	-49.842478	0.000436	4.357200	1.476259	0.000174
1908	1.8975e+02	-4.0491	-49.620435	0.000557	5.573162	1.888239	0.000223
1909	1.8985e+02	-4.0202	-49.378207	0.000608	6.079814	2.059897	0.000243
1910	1.8995e+02	-3.9705	-49.212685	0.000415	4.154539	1.407596	0.000166
1911	1.9004e+02	-3.9320	-48.990642	0.000557	5.573162	1.888239	0.000223
1912	1.9014e+02	-3.8871	-48.744377	0.000618	6.181144	2.094228	0.000248
1913	1.9024e+02	-3.8550	-48.490037	0.000638	6.383804	2.162891	0.000256
1914	1.9034e+02	-3.8165	-48.296255	0.000486	4.863851	1.647917	0.000195
1915	1.9044e+02	-3.7667	-48.062101	0.000588	5.877153	1.991233	0.000235
1916	1.9054e+02	-3.7330	-47.864281	0.000497	4.965181	1.682249	0.000199
1917	1.9064e+02	-3.6962	-47.642239	0.000557	5.573162	1.888239	0.000223
1918	1.9074e+02	-3.6528	-47.420196	0.000557	5.573162	1.888239	0.000223
1919	1.9084e+02	-3.6095	-47.222377	0.000497	4.965181	1.682249	0.000199
1920	1.9094e+02	-3.5694	-46.996297	0.000567	5.674493	1.922570	0.000227
1921	1.9104e+02	-3.5245	-46.737920	0.000649	6.485134	2.197223	0.000260
1922	1.9114e+02	-3.4876	-46.523952	0.000537	5.370502	1.819575	0.000215
1923	1.9124e+02	-3.4603	-46.297873	0.000567	5.674493	1.922570	0.000227
1924	1.9134e+02	-3.4122	-46.019310	0.000699	6.991786	2.368881	0.000280
1925	1.9144e+02	-3.3769	-45.837639	0.000456	4.559860	1.544922	0.000183
1926	1.9154e+02	-3.3240	-45.587337	0.000628	6.282474	2.128560	0.000252
1927	1.9164e+02	-3.2855	-45.353183	0.000588	5.877153	1.991233	0.000235
1928	1.9174e+02	-3.2486	-45.139215	0.000537	5.370502	1.819575	0.000215
1929	1.9184e+02	-3.2149	-44.961581	0.000446	4.458530	1.510591	0.000179
1930	1.9194e+02	-3.1732	-44.666870	0.000740	7.397107	2.506208	0.000296
1931	1.9203e+02	-3.1299	-44.481162	0.000466	4.661190	1.579254	0.000187
1932	1.9213e+02	-3.0962	-44.218748	0.000659	6.586465	2.231555	0.000264
1933	1.9223e+02	-3.0625	-44.004780	0.000537	5.370502	1.819575	0.000215
1934	1.9233e+02	-3.0224	-43.758514	0.000618	6.181144	2.094228	0.000248
1935	1.9243e+02	-2.9823	-43.548583	0.000527	5.269172	1.785244	0.000211
1936	1.9253e+02	-2.9261	-43.306355	0.000608	6.079814	2.059897	0.000243
1937	1.9263e+02	-2.8940	-43.076238	0.000578	5.775823	1.956902	0.000231
1938	1.9273e+02	-2.8555	-42.825936	0.000628	6.282474	2.128560	0.000252
1939	1.9283e+02	-2.8138	-42.595819	0.000578	5.775823	1.956902	0.000231
1940	1.9293e+02	-2.7833	-42.361665	0.000588	5.877153	1.991233	0.000235
1941	1.9303e+02	-2.7384	-42.131549	0.000578	5.775823	1.956902	0.000231
1942	1.9313e+02	-2.7031	-41.873172	0.000649	6.485134	2.197223	0.000260
1943	1.9323e+02	-2.6518	-41.679389	0.000486	4.863851	1.647917	0.000195
1944	1.9333e+02	-2.6101	-41.429087	0.000628	6.282474	2.128560	0.000252
1945	1.9343e+02	-2.5764	-41.186859	0.000608	6.079814	2.059897	0.000243
1946	1.9353e+02	-2.5411	-40.944631	0.000608	6.079814	2.059897	0.000243
1947	1.9363e+02	-2.4962	-40.690291	0.000638	6.383804	2.162891	0.000256
1948	1.9373e+02	-2.4545	-40.504583	0.000466	4.661190	1.579254	0.000187
1949	1.9383e+02	-2.4224	-40.254280	0.000628	6.282474	2.128560	0.000252
1950	1.9393e+02	-2.3743	-39.999941	0.000638	6.383804	2.162891	0.000256
1951	1.9403e+02	-2.3470	-39.737527	0.000659	6.586465	2.231555	0.000264
1952	1.9412e+02	-2.2989	-39.531633	0.000517	5.167842	1.750912	0.000207
1953	1.9422e+02	-2.2636	-39.285368	0.000618	6.181144	2.094228	0.000248
1954	1.9432e+02	-2.2106	-39.047177	0.000598	5.978483	2.025565	0.000239
1955	1.9442e+02	-2.1721	-38.800912	0.000618	6.181144	2.094228	0.000248
1956	1.9452e+02	-2.1417	-38.574832	0.000567	5.674493	1.922570	0.000227
1957	1.9462e+02	-2.1064	-38.336641	0.000598	5.978483	2.025565	0.000239
1958	1.9472e+02	-2.0630	-38.086339	0.000628	6.282474	2.128560	0.000252
1959	1.9482e+02	-2.0149	-37.831999	0.000638	6.383804	2.162891	0.000256
1960	1.9492e+02	-1.9700	-37.630142	0.000507	5.066511	1.716581	0.000203
1961	1.9502e+02	-1.9411	-37.319283	0.000780	7.802427	2.643534	0.000312
1962	1.9512e+02	-1.8914	-37.105315	0.000537	5.370502	1.819575	0.000215
1963	1.9522e+02	-1.8593	-36.863086	0.000608	6.079814	2.059897	0.000243
1964	1.9532e+02	-1.8176	-36.632970	0.000578	5.775823	1.956902	0.000231
1965	1.9542e+02	-1.7823	-36.402853	0.000578	5.775823	1.956902	0.000231
1966	1.9552e+02	-1.7374	-36.112179	0.000730	7.295776	2.471876	0.000292
1967	1.9562e+02	-1.7085	-35.878025	0.000588	5.877153	1.991233	0.000235
1968	1.9572e+02	-1.6508	-35.660020	0.000547	5.471832	1.853907	0.000219
1969	1.9582e+02	-1.6171	-35.401643	0.000649	6.485134	2.197223	0.000260
1970	1.9592e+02	-1.5802	-35.131155	0.000679	6.789125	2.300218	0.000272
1971	1.9601e+02	-1.5465	-34.880853	0.000628	6.282474	2.128560	0.000252
1972	1.9611e+02	-1.4967	-34.650736	0.000578	5.775823	1.956902	0.000231
1973	1.9621e+02	-1.4566	-34.408508	0.000608	6.079814	2.059897	0.000243
1974	1.9631e+02	-1.4149	-34.125908	0.000709	7.093116	2.403213	0.000284
1975	1.9641e+02	-1.3732	-33.867532	0.000649	6.485134	2.197223	0.000260
1976	1.9651e+02	-1.3443	-33.641452	0.000567	5.674493	1.922570	0.000227
1977	1.9661e+02	-1.2914	-33.362890	0.000699	6.991786	2.368881	0.000280
1978	1.9671e+02	-1.2657	-33.120662	0.000608	6.079814	2.059897	0.000243
1979	1.9681e+02	-1.2240	-32.870359	0.000628	6.282474	2.128560	0.000252
1980	1.9691e+02	-1.1791	-32.636205	0.000588	5.877153	1.991233	0.000235
1981	1.9701e+02	-1.1390	-32.353606	0.000709	7.093116	2.403213	0.000284
1982	1.9711e+02	-1.0973	-32.127526	0.000567	5.674493	1.922570	0.000227
1983	1.9721e+02	-1.0556	-31.865112	0.000659	6.586465	2.231555	0.000264
1984	1.9731e+02	-1.0123	-31.570401	0.000740	7.397107	2.506208	0.000296
1985	1.9741e+02	-0.9850	-31.324136	0.000618	6.181144	2.094228	0.000248
1986	1.9751e+02	-0.9417	-31.041537	0.000709	7.093116	2.403213	0.000284
1987	1.9761e+02	-0.8952	-30.823531	0.000547	5.471832	1.853907	0.000219
1988	1.9771e+02	-0.8631	-30.557080	0.000669	6.687795	2.265886	0.000268
1989	1.9781e+02	-0.8182	-30.339075	0.000547	5.471832	1.853907	0.000219
1990	1.9791e+02	-0.7764	-30.032253	0.000770	7.701097	2.609202	0.000308
1991	1.9800e+02	-0.7492	-29.798099	0.000588	5.877153	1.991233	0.000235
1992	1.9810e+02	-0.7075	-29.559908	0.000598	5.978483	2.025565	0.000239
1993	1.9820e+02	-0.6609	-29.277308	0.000709	7.093116	2.403213	0.000284
1994	1.9830e+02	-0.6257	-28.986635	0.000730	7.295776	2.471876	0.000292
1995	1.9840e+02	-0.5807	-28.732295	0.000638	6.383804	2.162891	0.000256
1996	1.9850e+02	-0.5486	-28.473918	0.000649	6.485134	2.197223	0.000260
1997	1.9860e+02	-0.5150	-28.175170	0.000750	7.498437	2.540539	0.000300
1998	1.9870e+02	-0.4620	-27.949091	0.000567	5.674493	1.922570	0.000227
1999	1.9880e+02	-0.4283	-27.694751	0.000638	6.383804	2.162891	0.000256
2000	1.9890e+02	-0.3882	-27.424263	0.000679	6.789125	2.300218	0.000272
2001	1.9900e+02	-0.3433	-27.190109	0.000588	5.877153	1.991233	0.000235
2002	1.9910e+02	-0.2984	-26.899435	0.000730	7.295776	2.471876	0.000292
2003	1.9920e+02	-0.2615	-26.649133	0.000628	6.282474	2.128560	0.000252
2004	1.9930e+02	-0.2198	-26.362496	0.000719	7.194446	2.437544	0.000288
2005	1.9940e+02	-0.1733	-26.160640	0.000507	5.066511	1.716581	0.000203
2006	1.9950e+02	-0.1524	-25.853817	0.000770	7.701097	2.609202	0.000308
2007	1.9960e+02	-0.1011	-25.611589	0.000608	6.079814	2.059897	0.000243
2008	1.9970e+02	-0.0642	-25.341101	0.000679	6.789125	2.300218	0.000272
2009	1.9980e+02	-0.0241	-25.078687	0.000679	6.789125	2.300218	0.000264

Center data before PMax,+/-Pr and +/-Vc Calc.

PMax (uC/cm2):	1.01e+02
Pr (uC/cm2):	1.83e+01
-Pr (uC/cm2):	-2.51e+01
PLoss (uC/cm2):	-1.67e+01
Vc:	1.83e+00
-Vc:	-2.66e+00
C (Max-Eff) (nF):	5.08e-01
K (Eff):	1.72e+03
Vert. (+/-Pr) Shift (uC/cm2):	-3.37e+00
Horiz. Shift (+/-Vc):	-4.17e-01
Offset (uC/cm2):	8.40e+00

A (Loop Area - uC/cm2·Volts):	1.66e-01



Hysteresis Version: 5.48.1 - Radiant Technologies, Inc., 1999 - 9/12/24

