»»»»»»»»»»»»»»»»»»»»»»»»»»»»»»»»»»»» Hysteresis ««««««««««««««««««««««««««««««««««««
»»»  Executed Version:	5.48.1
»»»  Vision Version:	5.48.4 (R)
»»»  Vision Compiled:	9/18/24
»»»  Driver Version:	5.47.0
»»»  Windows Version:	Windows 8 or 8.1
»»»  Processor Information:	x86 (AMD or Intel) - 32 Processors
»»»  Tester Name:	PMF21124-494 (100V)
»»»  Tester S/N:	PMF21124-494
»»»  Internal Amp Type:	100V RevK 270k
»»»  Internal Amp S/N:	iAB2-596/K     
»»»  Execution Count:	1
»»»»»»»»»»»»»»»»»»»»»»»»»»»»»»»»»»»»»»»»»»««««««««««««««««««««««««««««««««««««««««««

Stored:	6/5/2025 - 13:51:29
Configured:	06/05/25 01:31:43 PM
Executed:	06/05/25 01:50:52 PM

»»»»»»»»»»»»»»»»»»»»»»»»»»»»»»»»»»» Sample Info ««««««««««««««««««««««««««««««««««««
Sample Name:	
Lot Name:	
Wafer Name:	
Die Row/Column:	0/0
Capacitor Number:	0
Sample Area (cm2):	1.00e-04
Sample Thickness (microns):	3.00e-01

Amplifier:	Internal

»»»»»»»»»»»»»»»»»»»»»»»»»»»»»»»»»»» Tester Info «««««««««««««««««««««««««««««««««««
Tester Name:	PMF21124-494 (100V)
Tester Serial Number:	PMF21124-494
Return Signal Amp. Level:	0.19 [Index: 3]

»»»»»»»»»»»»»»»»»»»»»»»»»»»»»»»» Hysteresis Info ««««««««««««««««««««««««««««««««««
Task Name:	Hyst-303
Volts:	20.00
Field:	666.67 (kV/cm)
DCBias:	0.00
DCField:	0.00 (kV/cm)
Hysteresis Period (ms):	1.00e+00
Preset:	Enabled
Preset Delay (ms):	1.00e+03
Profile:	Standard Bipolar

»»»»»»»»»»»»»»»»»»»»»»»»»»»»»»»»»»»»»» Data «««««««««««««««««««««««««««««««««««««««
Points:	2001

Valid Data

Point	Time (ms)	Drive Voltage	Measured Polarization (uC/cm2)	Capacitance (uF)	Normalized Capacitance (uF/cm2)	Dielectric Constant	Instantaneous Current (mA)
   1	0.0000e+00	0.0144	-2.516654	0.000646	6.463985	2.190057	0.051624
   2	5.0000e-04	0.0209	-2.258535	0.000646	6.463985	2.190057	0.051624
   3	1.0000e-03	0.0545	-2.314999	-0.000141	-1.413997	-0.479075	-0.011293
   4	1.5000e-03	0.0850	-2.040748	0.000687	6.867984	2.326936	0.054850
   5	2.0000e-03	0.1171	-1.657604	0.000959	9.594978	3.250867	0.076629
   6	2.5000e-03	0.1588	-1.472081	0.000465	4.645989	1.574104	0.037105
   7	3.0000e-03	0.2053	-1.254294	0.000545	5.453988	1.847861	0.043557
   8	3.5000e-03	0.2294	-0.919546	0.000838	8.382981	2.840231	0.066949
   9	4.0000e-03	0.2775	-0.580766	0.000848	8.483981	2.874450	0.067756
  10	4.5000e-03	0.3241	-0.604965	-0.000061	-0.605999	-0.205318	-0.004840
  11	5.0000e-03	0.3642	-0.229887	0.000939	9.392979	3.182427	0.075016
  12	5.5000e-03	0.3946	0.177456	0.001020	10.200977	3.456184	0.081469
  13	6.0000e-03	0.4315	0.443641	0.000667	6.665985	2.258497	0.053237
  14	6.5000e-03	0.4813	0.540435	0.000242	2.423994	0.821272	0.019359
  15	7.0000e-03	0.5278	0.834851	0.000737	7.372983	2.498034	0.058883
  16	7.5000e-03	0.5615	1.036506	0.000505	5.049988	1.710982	0.040331
  17	8.0000e-03	0.6016	1.242194	0.000515	5.150988	1.745202	0.041138
  18	8.5000e-03	0.6465	1.536611	0.000737	7.372983	2.498034	0.058883
  19	9.0000e-03	0.6802	1.806828	0.000677	6.766985	2.292716	0.054044
  20	9.5000e-03	0.7219	2.165774	0.000899	8.988979	3.045549	0.071789
  21	1.0000e-02	0.7652	2.234337	0.000172	1.716996	0.581734	0.013713
  22	1.0500e-02	0.7989	2.528753	0.000737	7.372983	2.498034	0.058883
  23	1.1000e-02	0.8486	2.859467	0.000828	8.281981	2.806011	0.066143
  24	1.1500e-02	0.8807	3.137751	0.000697	6.968984	2.361156	0.055657
  25	1.2000e-02	0.9224	3.472498	0.000838	8.382981	2.840231	0.066949
  26	1.2500e-02	0.9674	3.569292	0.000242	2.423994	0.821272	0.019359
  27	1.3000e-02	0.9994	3.960503	0.000980	9.796978	3.319306	0.078242
  28	1.3500e-02	1.0395	4.077463	0.000293	2.928993	0.992370	0.023392
  29	1.4000e-02	1.0845	4.456574	0.000949	9.493978	3.216647	0.075822
  30	1.4500e-02	1.1198	4.718725	0.000656	6.564985	2.224277	0.052430
  31	1.5000e-02	1.1615	5.025241	0.000768	7.675982	2.600693	0.061303
  32	1.5500e-02	1.1984	5.263194	0.000596	5.958986	2.018959	0.047591
  33	1.6000e-02	1.2449	5.521312	0.000646	6.463985	2.190057	0.051624
  34	1.6500e-02	1.2786	5.904456	0.000959	9.594978	3.250867	0.076629
  35	1.7000e-02	1.3235	6.021416	0.000293	2.928993	0.992370	0.023392
  36	1.7500e-02	1.3636	6.303733	0.000707	7.069984	2.395375	0.056463
  37	1.8000e-02	1.4005	6.509421	0.000515	5.150988	1.745202	0.041138
  38	1.8500e-02	1.4390	6.735275	0.000566	5.655987	1.916300	0.045171
  39	1.9000e-02	1.4903	6.912731	0.000444	4.443990	1.505665	0.035491
  40	1.9500e-02	1.5192	7.263611	0.000879	8.786980	2.977109	0.070176
  41	2.0000e-02	1.5641	7.602391	0.000848	8.483981	2.874450	0.067756
  42	2.0500e-02	1.6074	7.787913	0.000465	4.645989	1.574104	0.037105
  43	2.1000e-02	1.6427	8.187190	0.001000	9.998977	3.387745	0.079855
  44	2.1500e-02	1.6796	8.231554	0.000111	1.110997	0.376416	0.008873
  45	2.2000e-02	1.7229	8.473540	0.000606	6.059986	2.053179	0.048397
  46	2.2500e-02	1.7647	8.659063	0.000465	4.645989	1.574104	0.037105
  47	2.3000e-02	1.7983	9.171266	0.001283	12.826971	4.345895	0.102441
  48	2.3500e-02	1.8449	9.421318	0.000626	6.261986	2.121618	0.050010
  49	2.4000e-02	1.8786	9.788330	0.000919	9.190979	3.113988	0.073402
  50	2.4500e-02	1.9267	9.836727	0.000121	1.211997	0.410636	0.009679
  51	2.5000e-02	1.9620	10.131144	0.000737	7.372983	2.498034	0.058883
  52	2.5500e-02	2.0053	10.445725	0.000788	7.877982	2.669133	0.062916
  53	2.6000e-02	2.0454	10.711910	0.000667	6.665985	2.258497	0.053237
  54	2.6500e-02	2.0919	10.941797	0.000576	5.756987	1.950520	0.045977
  55	2.7000e-02	2.1224	11.212014	0.000677	6.766985	2.292716	0.054044
  56	2.7500e-02	2.1769	11.260411	0.000121	1.211997	0.410636	0.009679
  57	2.8000e-02	2.1962	11.679854	0.001050	10.503976	3.558843	0.083888
  58	2.8500e-02	2.2491	11.885542	0.000515	5.150988	1.745202	0.041138
  59	2.9000e-02	2.2941	12.228355	0.000858	8.584980	2.908670	0.068563
  60	2.9500e-02	2.3245	12.542937	0.000788	7.877982	2.669133	0.062916
  61	3.0000e-02	2.3630	12.809121	0.000667	6.665985	2.258497	0.053237
  62	3.0500e-02	2.3967	12.926081	0.000293	2.928993	0.992370	0.023392
  63	3.1000e-02	2.4432	13.095471	0.000424	4.241990	1.437225	0.033878
  64	3.1500e-02	2.4769	13.619774	0.001313	13.129970	4.448554	0.104861
  65	3.2000e-02	2.5235	13.885958	0.000667	6.665985	2.258497	0.053237
  66	3.2500e-02	2.5684	13.821429	-0.000162	-1.615996	-0.547514	-0.012906
  67	3.3000e-02	2.6005	14.301368	0.001202	12.018973	4.072138	0.095988
  68	3.3500e-02	2.6502	14.535287	0.000586	5.857987	1.984740	0.046784
  69	3.4000e-02	2.6775	14.664347	0.000323	3.231993	1.095029	0.025812
  70	3.4500e-02	2.7304	14.986994	0.000808	8.079982	2.737572	0.064530
  71	3.5000e-02	2.7641	15.349973	0.000909	9.089979	3.079768	0.072596
  72	3.5500e-02	2.8042	15.821846	0.001182	11.816973	4.003699	0.094375
  73	3.6000e-02	2.8443	16.039633	0.000545	5.453988	1.847861	0.043557
  74	3.6500e-02	2.8844	16.180792	0.000353	3.534992	1.197688	0.028232
  75	3.7000e-02	2.9197	16.402612	0.000555	5.554987	1.882081	0.044364
  76	3.7500e-02	2.9662	16.672830	0.000677	6.766985	2.292716	0.054044
  77	3.8000e-02	3.0063	16.854319	0.000454	4.544990	1.539884	0.036298
  78	3.8500e-02	3.0432	17.051941	0.000495	4.948989	1.676763	0.039524
  79	3.9000e-02	3.0817	17.422986	0.000929	9.291979	3.148208	0.074209
  80	3.9500e-02	3.1234	17.777899	0.000889	8.887980	3.011329	0.070983
  81	4.0000e-02	3.1684	17.862594	0.000212	2.120995	0.718613	0.016939
  82	4.0500e-02	3.2053	18.322367	0.001151	11.513974	3.901040	0.091955
  83	4.1000e-02	3.2341	18.532088	0.000525	5.251988	1.779422	0.041944
  84	4.1500e-02	3.2823	18.709544	0.000444	4.443990	1.505665	0.035491
  85	4.2000e-02	3.3288	18.882968	0.000434	4.342990	1.471445	0.034685
  86	4.2500e-02	3.3609	19.241913	0.000899	8.988979	3.045549	0.071789
  87	4.3000e-02	3.4042	19.455668	0.000535	5.352988	1.813641	0.042751
  88	4.3500e-02	3.4475	19.814613	0.000899	8.988979	3.045549	0.071789
  89	4.4000e-02	3.4812	20.008202	0.000485	4.847989	1.642543	0.038718
  90	4.4500e-02	3.5165	20.415545	0.001020	10.200977	3.456184	0.081469
  91	4.5000e-02	3.5614	20.681730	0.000667	6.665985	2.258497	0.053237
  92	4.5500e-02	3.6031	20.923716	0.000606	6.059986	2.053179	0.048397
  93	4.6000e-02	3.6512	21.032609	0.000273	2.726994	0.923931	0.021779
  94	4.6500e-02	3.6881	21.577078	0.001363	13.634969	4.619653	0.108894
  95	4.7000e-02	3.7186	21.730335	0.000384	3.837991	1.300347	0.030652
  96	4.7500e-02	3.7555	22.012652	0.000707	7.069984	2.395375	0.056463
  97	4.8000e-02	3.8020	22.153811	0.000353	3.534992	1.197688	0.028232
  98	4.8500e-02	3.8486	22.625683	0.001182	11.816973	4.003699	0.094375
  99	4.9000e-02	3.8742	22.855570	0.000576	5.756987	1.950520	0.045977
 100	4.9500e-02	3.9336	22.988662	0.000333	3.332992	1.129248	0.026618
 101	5.0000e-02	3.9625	23.222582	0.000586	5.857987	1.984740	0.046784
 102	5.0500e-02	4.0074	23.605726	0.000959	9.594978	3.250867	0.076629
 103	5.1000e-02	4.0459	23.682355	0.000192	1.918996	0.650173	0.015326
 104	5.1500e-02	4.0876	24.025168	0.000858	8.584980	2.908670	0.068563
 105	5.2000e-02	4.1181	24.327651	0.000757	7.574983	2.566474	0.060496
 106	5.2500e-02	4.1646	24.533339	0.000515	5.150988	1.745202	0.041138
 107	5.3000e-02	4.2079	24.775325	0.000606	6.059986	2.053179	0.048397
 108	5.3500e-02	4.2464	25.202833	0.001071	10.705976	3.627283	0.085502
 109	5.4000e-02	4.2769	25.335925	0.000333	3.332992	1.129248	0.026618
 110	5.4500e-02	4.3202	25.557746	0.000555	5.554987	1.882081	0.044364
 111	5.5000e-02	4.3635	25.787632	0.000576	5.756987	1.950520	0.045977
 112	5.5500e-02	4.3972	26.203042	0.001040	10.402976	3.524624	0.083082
 113	5.6000e-02	4.4453	26.489392	0.000717	7.170984	2.429595	0.057270
 114	5.6500e-02	4.4854	26.674914	0.000465	4.645989	1.574104	0.037105
 115	5.7000e-02	4.5304	26.961264	0.000717	7.170984	2.429595	0.057270
 116	5.7500e-02	4.5673	27.110489	0.000374	3.736991	1.266127	0.029845
 117	5.8000e-02	4.6058	27.477501	0.000919	9.190979	3.113988	0.073402
 118	5.8500e-02	4.6378	27.828380	0.000879	8.786980	2.977109	0.070176
 119	5.9000e-02	4.6828	28.098598	0.000677	6.766985	2.292716	0.054044
 120	5.9500e-02	4.7148	28.401080	0.000757	7.574983	2.566474	0.060496
 121	6.0000e-02	4.7614	28.727761	0.000818	8.180981	2.771792	0.065336
 122	6.0500e-02	4.8031	29.086707	0.000899	8.988979	3.045549	0.071789
 123	6.1000e-02	4.8496	29.292395	0.000515	5.150988	1.745202	0.041138
 124	6.1500e-02	4.8865	29.377090	0.000212	2.120995	0.718613	0.016939
 125	6.2000e-02	4.9282	29.675540	0.000747	7.473983	2.532254	0.059690
 126	6.2500e-02	4.9539	29.978022	0.000757	7.574983	2.566474	0.060496
 127	6.3000e-02	5.0068	30.228074	0.000626	6.261986	2.121618	0.050010
 128	6.3500e-02	5.0389	30.546689	0.000798	7.978982	2.703352	0.063723
 129	6.4000e-02	5.0806	30.615251	0.000172	1.716996	0.581734	0.013713
 130	6.4500e-02	5.1255	30.764476	0.000374	3.736991	1.266127	0.029845
 131	6.5000e-02	5.1608	31.300878	0.001343	13.432969	4.551213	0.107280
 132	6.5500e-02	5.1961	31.458169	0.000394	3.938991	1.334566	0.031458
 133	6.6000e-02	5.2458	31.732420	0.000687	6.867984	2.326936	0.054850
 134	6.6500e-02	5.2876	32.067167	0.000838	8.382981	2.840231	0.066949
 135	6.7000e-02	5.3212	32.172028	0.000263	2.625994	0.889711	0.020972
 136	6.7500e-02	5.3678	32.478543	0.000768	7.675982	2.600693	0.061303
 137	6.8000e-02	5.4063	32.776992	0.000747	7.473983	2.532254	0.059690
 138	6.8500e-02	5.4383	32.966548	0.000475	4.746989	1.608323	0.037911
 139	6.9000e-02	5.4833	33.365825	0.001000	9.998977	3.387745	0.079855
 140	6.9500e-02	5.5250	33.825598	0.001151	11.513974	3.901040	0.091955
 141	7.0000e-02	5.5651	33.845763	0.000050	0.504999	0.171098	0.004033
 142	7.0500e-02	5.6004	33.974823	0.000323	3.231993	1.095029	0.025812
 143	7.1000e-02	5.6389	34.313603	0.000848	8.483981	2.874450	0.067756
 144	7.1500e-02	5.6790	34.491059	0.000444	4.443990	1.505665	0.035491
 145	7.2000e-02	5.7239	34.882270	0.000980	9.796978	3.319306	0.078242
 146	7.2500e-02	5.7688	35.168620	0.000717	7.170984	2.429595	0.057270
 147	7.3000e-02	5.8041	35.370275	0.000505	5.049988	1.710982	0.040331
 148	7.3500e-02	5.8378	35.612261	0.000606	6.059986	2.053179	0.048397
 149	7.4000e-02	5.8827	35.926842	0.000788	7.877982	2.669133	0.062916
 150	7.4500e-02	5.9341	36.184961	0.000646	6.463985	2.190057	0.051624
 151	7.5000e-02	5.9597	36.523741	0.000848	8.483981	2.874450	0.067756
 152	7.5500e-02	5.9934	36.806058	0.000707	7.069984	2.395375	0.056463
 153	7.6000e-02	6.0367	37.128706	0.000808	8.079982	2.737572	0.064530
 154	7.6500e-02	6.0833	37.330361	0.000505	5.049988	1.710982	0.040331
 155	7.7000e-02	6.1201	37.435221	0.000263	2.625994	0.889711	0.020972
 156	7.7500e-02	6.1603	37.753836	0.000798	7.978982	2.703352	0.063723
 157	7.8000e-02	6.2036	37.834498	0.000202	2.019995	0.684393	0.016132
 158	7.8500e-02	6.2469	38.221675	0.000970	9.695978	3.285086	0.077435
 159	7.9000e-02	6.2742	38.645151	0.001060	10.604976	3.593063	0.084695
 160	7.9500e-02	6.3191	38.919402	0.000687	6.867984	2.326936	0.054850
 161	8.0000e-02	6.3704	39.165421	0.000616	6.160986	2.087399	0.049204
 162	8.0500e-02	6.4057	39.233983	0.000172	1.716996	0.581734	0.013713
 163	8.1000e-02	6.4442	39.899444	0.001666	16.664962	5.646242	0.133092
 164	8.1500e-02	6.4891	39.782485	-0.000293	-2.928993	-0.992370	-0.023392
 165	8.2000e-02	6.5180	40.068835	0.000717	7.170984	2.429595	0.057270
 166	8.2500e-02	6.5709	40.302754	0.000586	5.857987	1.984740	0.046784
 167	8.3000e-02	6.5998	40.532641	0.000576	5.756987	1.950520	0.045977
 168	8.3500e-02	6.6399	40.887554	0.000889	8.887980	3.011329	0.070983
 169	8.4000e-02	6.6864	41.008547	0.000303	3.029993	1.026589	0.024199
 170	8.4500e-02	6.7169	41.415890	0.001020	10.200977	3.456184	0.081469
 171	8.5000e-02	6.7490	41.710306	0.000737	7.372983	2.498034	0.058883
 172	8.5500e-02	6.8052	41.996656	0.000717	7.170984	2.429595	0.057270
 173	8.6000e-02	6.8469	42.274940	0.000697	6.968984	2.361156	0.055657
 174	8.6500e-02	6.8773	42.432230	0.000394	3.938991	1.334566	0.031458
 175	8.7000e-02	6.9126	42.698415	0.000667	6.665985	2.258497	0.053237
 176	8.7500e-02	6.9704	42.912169	0.000535	5.352988	1.813641	0.042751
 177	8.8000e-02	7.0089	43.041228	0.000323	3.231993	1.095029	0.025812
 178	8.8500e-02	7.0410	43.291280	0.000626	6.261986	2.121618	0.050010
 179	8.9000e-02	7.0715	43.585697	0.000737	7.372983	2.498034	0.058883
 180	8.9500e-02	7.1212	43.908344	0.000808	8.079982	2.737572	0.064530
 181	9.0000e-02	7.1597	44.243092	0.000838	8.382981	2.840231	0.066949
 182	9.0500e-02	7.1966	44.513309	0.000677	6.766985	2.292716	0.054044
 183	9.1000e-02	7.2383	44.739163	0.000566	5.655987	1.916300	0.045171
 184	9.1500e-02	7.2880	44.944851	0.000515	5.150988	1.745202	0.041138
 185	9.2000e-02	7.3265	45.255399	0.000778	7.776982	2.634913	0.062110
 186	9.2500e-02	7.3602	45.513518	0.000646	6.463985	2.190057	0.051624
 187	9.3000e-02	7.3891	45.670809	0.000394	3.938991	1.334566	0.031458
 188	9.3500e-02	7.4452	45.989423	0.000798	7.978982	2.703352	0.063723
 189	9.4000e-02	7.4757	46.166880	0.000444	4.443990	1.505665	0.035491
 190	9.4500e-02	7.5239	46.554057	0.000970	9.695978	3.285086	0.077435
 191	9.5000e-02	7.5624	46.808142	0.000636	6.362985	2.155838	0.050817
 192	9.5500e-02	7.6025	47.138856	0.000828	8.281981	2.806011	0.066143
 193	9.6000e-02	7.6378	47.376809	0.000596	5.958986	2.018959	0.047591
 194	9.6500e-02	7.6827	47.534100	0.000394	3.938991	1.334566	0.031458
 195	9.7000e-02	7.7196	47.743821	0.000525	5.251988	1.779422	0.041944
 196	9.7500e-02	7.7565	48.022105	0.000697	6.968984	2.361156	0.055657
 197	9.8000e-02	7.8062	48.401216	0.000949	9.493978	3.216647	0.075822
 198	9.8500e-02	7.8415	48.481878	0.000202	2.019995	0.684393	0.016132
 199	9.9000e-02	7.8832	48.735964	0.000636	6.362985	2.155838	0.050817
 200	9.9500e-02	7.9201	49.014247	0.000697	6.968984	2.361156	0.055657
 201	1.0000e-01	7.9602	49.111042	0.000242	2.423994	0.821272	0.019359
 202	1.0050e-01	8.0099	49.486120	0.000939	9.392979	3.182427	0.075016
 203	1.0100e-01	8.0452	49.707940	0.000555	5.554987	1.882081	0.044364
 204	1.0150e-01	8.0821	49.978158	0.000677	6.766985	2.292716	0.054044
 205	1.0200e-01	8.1222	50.389534	0.001030	10.301976	3.490404	0.082275
 206	1.0250e-01	8.1591	50.437931	0.000121	1.211997	0.410636	0.009679
 207	1.0300e-01	8.2121	50.744447	0.000768	7.675982	2.600693	0.061303
 208	1.0350e-01	8.2442	51.006598	0.000656	6.564985	2.224277	0.052430
 209	1.0400e-01	8.2843	51.313114	0.000768	7.675982	2.600693	0.061303
 210	1.0450e-01	8.3244	51.579298	0.000667	6.665985	2.258497	0.053237
 211	1.0500e-01	8.3564	51.813218	0.000586	5.857987	1.984740	0.046784
 212	1.0550e-01	8.3998	51.926145	0.000283	2.827994	0.958150	0.022585
 213	1.0600e-01	8.4399	52.256859	0.000828	8.281981	2.806011	0.066143
 214	1.0650e-01	8.4864	52.398017	0.000353	3.534992	1.197688	0.028232
 215	1.0700e-01	8.5233	52.756963	0.000899	8.988979	3.045549	0.071789
 216	1.0750e-01	8.5650	52.986849	0.000576	5.756987	1.950520	0.045977
 217	1.0800e-01	8.6003	53.228835	0.000606	6.059986	2.053179	0.048397
 218	1.0850e-01	8.6468	53.515185	0.000717	7.170984	2.429595	0.057270
 219	1.0900e-01	8.6837	53.773304	0.000646	6.463985	2.190057	0.051624
 220	1.0950e-01	8.7254	54.051587	0.000697	6.968984	2.361156	0.055657
 221	1.1000e-01	8.7703	54.140316	0.000222	2.221995	0.752832	0.017746
 222	1.1050e-01	8.7992	54.418599	0.000697	6.968984	2.361156	0.055657
 223	1.1100e-01	8.8361	54.805777	0.000970	9.695978	3.285086	0.077435
 224	1.1150e-01	8.8955	54.894505	0.000222	2.221995	0.752832	0.017746
 225	1.1200e-01	8.9211	55.116325	0.000555	5.554987	1.882081	0.044364
 226	1.1250e-01	8.9580	55.386543	0.000677	6.766985	2.292716	0.054044
 227	1.1300e-01	9.0014	55.725323	0.000848	8.483981	2.874450	0.067756
 228	1.1350e-01	9.0479	55.834217	0.000273	2.726994	0.923931	0.021779
 229	1.1400e-01	9.0751	56.197196	0.000909	9.089979	3.079768	0.072596
 230	1.1450e-01	9.1281	56.358520	0.000404	4.039991	1.368786	0.032265
 231	1.1500e-01	9.1602	56.806194	0.001121	11.210974	3.798381	0.089535
 232	1.1550e-01	9.2051	56.995749	0.000475	4.746989	1.608323	0.037911
 233	1.1600e-01	9.2516	57.088511	0.000232	2.322995	0.787052	0.018552
 234	1.1650e-01	9.2821	57.274033	0.000465	4.645989	1.574104	0.037105
 235	1.1700e-01	9.3254	57.653145	0.000949	9.493978	3.216647	0.075822
 236	1.1750e-01	9.3719	57.802369	0.000374	3.736991	1.266127	0.029845
 237	1.1800e-01	9.3992	58.104852	0.000757	7.574983	2.566474	0.060496
 238	1.1850e-01	9.4377	58.532360	0.001071	10.705976	3.627283	0.085502
 239	1.1900e-01	9.4810	58.653353	0.000303	3.029993	1.026589	0.024199
 240	1.1950e-01	9.5227	58.879206	0.000566	5.655987	1.916300	0.045171
 241	1.2000e-01	9.5692	59.113126	0.000586	5.857987	1.984740	0.046784
 242	1.2050e-01	9.6013	59.266384	0.000384	3.837991	1.300347	0.030652
 243	1.2100e-01	9.6446	59.520469	0.000636	6.362985	2.155838	0.050817
 244	1.2150e-01	9.6880	59.855216	0.000838	8.382981	2.840231	0.066949
 245	1.2200e-01	9.7217	60.133500	0.000697	6.968984	2.361156	0.055657
 246	1.2250e-01	9.7602	60.202063	0.000172	1.716996	0.581734	0.013713
 247	1.2300e-01	9.8067	60.496479	0.000737	7.372983	2.498034	0.058883
 248	1.2350e-01	9.8372	60.790895	0.000737	7.372983	2.498034	0.058883
 249	1.2400e-01	9.8805	60.952219	0.000404	4.039991	1.368786	0.032265
 250	1.2450e-01	9.9206	61.133709	0.000454	4.544990	1.539884	0.036298
 251	1.2500e-01	9.9671	61.420059	0.000717	7.170984	2.429595	0.057270
 252	1.2550e-01	10.0088	61.593482	0.000434	4.342990	1.471445	0.034685
 253	1.2600e-01	10.0537	61.863699	0.000677	6.766985	2.292716	0.054044
 254	1.2650e-01	10.0842	62.117785	0.000636	6.362985	2.155838	0.050817
 255	1.2700e-01	10.1211	62.420267	0.000757	7.574983	2.566474	0.060496
 256	1.2750e-01	10.1628	62.730816	0.000778	7.776982	2.634913	0.062110
 257	1.2800e-01	10.2061	62.682418	-0.000121	-1.211997	-0.410636	-0.009679
 258	1.2850e-01	10.2446	63.053464	0.000929	9.291979	3.148208	0.074209
 259	1.2900e-01	10.2799	63.428542	0.000939	9.392979	3.182427	0.075016
 260	1.2950e-01	10.3200	63.642296	0.000535	5.352988	1.813641	0.042751
 261	1.3000e-01	10.3521	63.787487	0.000364	3.635992	1.231907	0.029038
 262	1.3050e-01	10.4002	63.985109	0.000495	4.948989	1.676763	0.039524
 263	1.3100e-01	10.4371	64.400518	0.001040	10.402976	3.524624	0.083082
 264	1.3150e-01	10.4821	64.448916	0.000121	1.211997	0.410636	0.009679
 265	1.3200e-01	10.5157	64.561842	0.000283	2.827994	0.958150	0.022585
 266	1.3250e-01	10.5687	64.969185	0.001020	10.200977	3.456184	0.081469
 267	1.3300e-01	10.6040	65.150675	0.000454	4.544990	1.539884	0.036298
 268	1.3350e-01	10.6569	65.211171	0.000151	1.514997	0.513295	0.012099
 269	1.3400e-01	10.6890	65.638680	0.001071	10.705976	3.627283	0.085502
 270	1.3450e-01	10.7211	66.062155	0.001060	10.604976	3.593063	0.084695
 271	1.3500e-01	10.7676	66.255744	0.000485	4.847989	1.642543	0.038718
 272	1.3550e-01	10.8045	66.433200	0.000444	4.443990	1.505665	0.035491
 273	1.3600e-01	10.8366	66.622756	0.000475	4.746989	1.608323	0.037911
 274	1.3650e-01	10.8879	66.816345	0.000485	4.847989	1.642543	0.038718
 275	1.3700e-01	10.9264	67.098661	0.000707	7.069984	2.395375	0.056463
 276	1.3750e-01	10.9649	67.441475	0.000858	8.584980	2.908670	0.068563
 277	1.3800e-01	11.0050	67.485839	0.000111	1.110997	0.376416	0.008873
 278	1.3850e-01	11.0451	67.526170	0.000101	1.009998	0.342196	0.008066
 279	1.3900e-01	11.0820	67.711692	0.000465	4.645989	1.574104	0.037105
 280	1.3950e-01	11.1254	68.010142	0.000747	7.473983	2.532254	0.059690
 281	1.4000e-01	11.1719	68.397319	0.000970	9.695978	3.285086	0.077435
 282	1.4050e-01	11.2040	68.756265	0.000899	8.988979	3.045549	0.071789
 283	1.4100e-01	11.2457	68.913556	0.000394	3.938991	1.334566	0.031458
 284	1.4150e-01	11.2938	69.256369	0.000858	8.584980	2.908670	0.068563
 285	1.4200e-01	11.3339	69.361230	0.000263	2.625994	0.889711	0.020972
 286	1.4250e-01	11.3740	69.405594	0.000111	1.110997	0.376416	0.008873
 287	1.4300e-01	11.4077	69.679845	0.000687	6.867984	2.326936	0.054850
 288	1.4350e-01	11.4430	69.950062	0.000677	6.766985	2.292716	0.054044
 289	1.4400e-01	11.4847	70.224313	0.000687	6.867984	2.326936	0.054850
 290	1.4450e-01	11.5200	70.458233	0.000586	5.857987	1.984740	0.046784
 291	1.4500e-01	11.5617	70.809112	0.000879	8.786980	2.977109	0.070176
 292	1.4550e-01	11.6034	70.962370	0.000384	3.837991	1.300347	0.030652
 293	1.4600e-01	11.6515	71.305183	0.000858	8.584980	2.908670	0.068563
 294	1.4650e-01	11.6788	71.470540	0.000414	4.140991	1.403006	0.033071
 295	1.4700e-01	11.7366	71.708493	0.000596	5.958986	2.018959	0.047591
 296	1.4750e-01	11.7654	71.946446	0.000596	5.958986	2.018959	0.047591
 297	1.4800e-01	11.8055	72.002909	0.000141	1.413997	0.479075	0.011293
 298	1.4850e-01	11.8473	72.269094	0.000667	6.665985	2.258497	0.053237
 299	1.4900e-01	11.8890	72.736933	0.001172	11.715973	3.969479	0.093568
 300	1.4950e-01	11.9275	72.817595	0.000202	2.019995	0.684393	0.016132
 301	1.5000e-01	11.9644	73.071680	0.000636	6.362985	2.155838	0.050817
 302	1.5050e-01	12.0029	73.233004	0.000404	4.039991	1.368786	0.032265
 303	1.5100e-01	12.0462	73.434659	0.000505	5.049988	1.710982	0.040331
 304	1.5150e-01	12.0863	73.716976	0.000707	7.069984	2.395375	0.056463
 305	1.5200e-01	12.1248	73.829903	0.000283	2.827994	0.958150	0.022585
 306	1.5250e-01	12.1617	73.938797	0.000273	2.726994	0.923931	0.021779
 307	1.5300e-01	12.2114	74.366305	0.001071	10.705976	3.627283	0.085502
 308	1.5350e-01	12.2467	74.491331	0.000313	3.130993	1.060809	0.025005
 309	1.5400e-01	12.2804	74.713152	0.000555	5.554987	1.882081	0.044364
 310	1.5450e-01	12.3221	75.064031	0.000879	8.786980	2.977109	0.070176
 311	1.5500e-01	12.3686	75.116461	0.000131	1.312997	0.444855	0.010486
 312	1.5550e-01	12.4023	75.322149	0.000515	5.150988	1.745202	0.041138
 313	1.5600e-01	12.4505	75.604466	0.000707	7.069984	2.395375	0.056463
 314	1.5650e-01	12.4890	75.906949	0.000757	7.574983	2.566474	0.060496
 315	1.5700e-01	12.5162	76.112637	0.000515	5.150988	1.745202	0.041138
 316	1.5750e-01	12.5740	76.322358	0.000525	5.251988	1.779422	0.041944
 317	1.5800e-01	12.6012	76.624840	0.000757	7.574983	2.566474	0.060496
 318	1.5850e-01	12.6542	76.753900	0.000323	3.231993	1.095029	0.025812
 319	1.5900e-01	12.6863	76.919257	0.000414	4.140991	1.403006	0.033071
 320	1.5950e-01	12.7264	77.024117	0.000263	2.625994	0.889711	0.020972
 321	1.6000e-01	12.7665	77.447592	0.001060	10.604976	3.593063	0.084695
 322	1.6050e-01	12.8050	77.612950	0.000414	4.140991	1.403006	0.033071
 323	1.6100e-01	12.8451	77.737976	0.000313	3.130993	1.060809	0.025005
 324	1.6150e-01	12.8852	78.080789	0.000858	8.584980	2.908670	0.068563
 325	1.6200e-01	12.9189	78.201782	0.000303	3.029993	1.026589	0.024199
 326	1.6250e-01	12.9670	78.480066	0.000697	6.968984	2.361156	0.055657
 327	1.6300e-01	13.0007	78.588959	0.000273	2.726994	0.923931	0.021779
 328	1.6350e-01	13.0392	78.826912	0.000596	5.958986	2.018959	0.047591
 329	1.6400e-01	13.0841	78.939839	0.000283	2.827994	0.958150	0.022585
 330	1.6450e-01	13.1258	79.298785	0.000899	8.988979	3.045549	0.071789
 331	1.6500e-01	13.1691	79.564969	0.000667	6.665985	2.258497	0.053237
 332	1.6550e-01	13.2060	79.698061	0.000333	3.332992	1.129248	0.026618
 333	1.6600e-01	13.2429	79.855352	0.000394	3.938991	1.334566	0.031458
 334	1.6650e-01	13.2863	80.109438	0.000636	6.362985	2.155838	0.050817
 335	1.6700e-01	13.3199	80.432085	0.000808	8.079982	2.737572	0.064530
 336	1.6750e-01	13.3601	80.452251	0.000050	0.504999	0.171098	0.004033
 337	1.6800e-01	13.4050	80.879759	0.001071	10.705976	3.627283	0.085502
 338	1.6850e-01	13.4483	81.020918	0.000353	3.534992	1.197688	0.028232
 339	1.6900e-01	13.4804	81.230639	0.000525	5.251988	1.779422	0.041944
 340	1.6950e-01	13.5221	81.629916	0.001000	9.998977	3.387745	0.079855
 341	1.7000e-01	13.5558	81.730743	0.000252	2.524994	0.855491	0.020165
 342	1.7050e-01	13.5927	81.859802	0.000323	3.231993	1.095029	0.025812
 343	1.7100e-01	13.6424	82.033226	0.000434	4.342990	1.471445	0.034685
 344	1.7150e-01	13.6793	82.392171	0.000899	8.988979	3.045549	0.071789
 345	1.7200e-01	13.7242	82.448635	0.000141	1.413997	0.479075	0.011293
 346	1.7250e-01	13.7659	82.553495	0.000263	2.625994	0.889711	0.020972
 347	1.7300e-01	13.7996	82.884209	0.000828	8.281981	2.806011	0.066143
 348	1.7350e-01	13.8413	83.041500	0.000394	3.938991	1.334566	0.031458
 349	1.7400e-01	13.8846	83.251221	0.000525	5.251988	1.779422	0.041944
 350	1.7450e-01	13.9263	83.485141	0.000586	5.857987	1.984740	0.046784
 351	1.7500e-01	13.9600	83.670664	0.000465	4.645989	1.574104	0.037105
 352	1.7550e-01	13.9985	84.094139	0.001060	10.604976	3.593063	0.084695
 353	1.7600e-01	14.0418	84.194966	0.000252	2.524994	0.855491	0.020165
 354	1.7650e-01	14.0836	84.408721	0.000535	5.352988	1.813641	0.042751
 355	1.7700e-01	14.1189	84.553912	0.000364	3.635992	1.231907	0.029038
 356	1.7750e-01	14.1654	84.884626	0.000828	8.281981	2.806011	0.066143
 357	1.7800e-01	14.2071	85.074182	0.000475	4.746989	1.608323	0.037911
 358	1.7850e-01	14.2376	85.223407	0.000374	3.736991	1.266127	0.029845
 359	1.7900e-01	14.2841	85.529922	0.000768	7.675982	2.600693	0.061303
 360	1.7950e-01	14.3210	85.642849	0.000283	2.827994	0.958150	0.022585
 361	1.8000e-01	14.3515	85.876769	0.000586	5.857987	1.984740	0.046784
 362	1.8050e-01	14.4076	85.973563	0.000242	2.423994	0.821272	0.019359
 363	1.8100e-01	14.4397	86.155052	0.000454	4.544990	1.539884	0.036298
 364	1.8150e-01	14.4862	86.473667	0.000798	7.978982	2.703352	0.063723
 365	1.8200e-01	14.5295	86.792282	0.000798	7.978982	2.703352	0.063723
 366	1.8250e-01	14.5632	86.977804	0.000465	4.645989	1.574104	0.037105
 367	1.8300e-01	14.6065	87.179459	0.000505	5.049988	1.710982	0.040331
 368	1.8350e-01	14.6370	87.118963	-0.000151	-1.514997	-0.513295	-0.012099
 369	1.8400e-01	14.6819	87.385147	0.000667	6.665985	2.258497	0.053237
 370	1.8450e-01	14.7236	87.736027	0.000879	8.786980	2.977109	0.070176
 371	1.8500e-01	14.7718	87.881219	0.000364	3.635992	1.231907	0.029038
 372	1.8550e-01	14.7990	88.074807	0.000485	4.847989	1.642543	0.038718
 373	1.8600e-01	14.8408	88.224032	0.000374	3.736991	1.266127	0.029845
 374	1.8650e-01	14.8793	88.486183	0.000656	6.564985	2.224277	0.052430
 375	1.8700e-01	14.9194	88.764467	0.000697	6.968984	2.361156	0.055657
 376	1.8750e-01	14.9595	89.014519	0.000626	6.261986	2.121618	0.050010
 377	1.8800e-01	15.0028	88.974188	-0.000101	-1.009998	-0.342196	-0.008066
 378	1.8850e-01	15.0365	89.111314	0.000343	3.433992	1.163468	0.027425
 379	1.8900e-01	15.0766	89.591252	0.001202	12.018973	4.072138	0.095988
 380	1.8950e-01	15.1151	89.748543	0.000394	3.938991	1.334566	0.031458
 381	1.9000e-01	15.1600	89.877602	0.000323	3.231993	1.095029	0.025812
 382	1.9050e-01	15.2065	90.123621	0.000616	6.160986	2.087399	0.049204
 383	1.9100e-01	15.2466	90.401905	0.000697	6.968984	2.361156	0.055657
 384	1.9150e-01	15.2803	90.732619	0.000828	8.281981	2.806011	0.066143
 385	1.9200e-01	15.3333	90.869745	0.000343	3.433992	1.163468	0.027425
 386	1.9250e-01	15.3605	91.051234	0.000454	4.544990	1.539884	0.036298
 387	1.9300e-01	15.4006	91.349683	0.000747	7.473983	2.532254	0.059690
 388	1.9350e-01	15.4488	91.458577	0.000273	2.726994	0.923931	0.021779
 389	1.9400e-01	15.4889	91.623934	0.000414	4.140991	1.403006	0.033071
 390	1.9450e-01	15.5242	91.724762	0.000252	2.524994	0.855491	0.020165
 391	1.9500e-01	15.5530	91.865920	0.000353	3.534992	1.197688	0.028232
 392	1.9550e-01	15.6028	92.160336	0.000737	7.372983	2.498034	0.058883
 393	1.9600e-01	15.6429	92.430554	0.000677	6.766985	2.292716	0.054044
 394	1.9650e-01	15.6846	92.567679	0.000343	3.433992	1.163468	0.027425
 395	1.9700e-01	15.7279	92.684639	0.000293	2.928993	0.992370	0.023392
 396	1.9750e-01	15.7632	92.987121	0.000757	7.574983	2.566474	0.060496
 397	1.9800e-01	15.7985	93.079883	0.000232	2.322995	0.787052	0.018552
 398	1.9850e-01	15.8498	93.273471	0.000485	4.847989	1.642543	0.038718
 399	1.9900e-01	15.8819	93.624351	0.000879	8.786980	2.977109	0.070176
 400	1.9950e-01	15.9188	93.781642	0.000394	3.938991	1.334566	0.031458
 401	2.0000e-01	15.9605	93.910701	0.000323	3.231993	1.095029	0.025812
 402	2.0050e-01	16.0054	94.011528	0.000252	2.524994	0.855491	0.020165
 403	2.0100e-01	16.0471	94.253514	0.000606	6.059986	2.053179	0.048397
 404	2.0150e-01	16.0889	94.539864	0.000717	7.170984	2.429595	0.057270
 405	2.0200e-01	16.1306	94.648758	0.000273	2.726994	0.923931	0.021779
 406	2.0250e-01	16.1675	94.862512	0.000535	5.352988	1.813641	0.042751
 407	2.0300e-01	16.2011	95.362616	0.001252	12.523971	4.243236	0.100021
 408	2.0350e-01	16.2461	95.330352	-0.000081	-0.807998	-0.273757	-0.006453
 409	2.0400e-01	16.2830	95.467477	0.000343	3.433992	1.163468	0.027425
 410	2.0450e-01	16.3295	95.536040	0.000172	1.716996	0.581734	0.013713
 411	2.0500e-01	16.3664	95.927250	0.000980	9.796978	3.319306	0.078242
 412	2.0550e-01	16.4017	96.161170	0.000586	5.857987	1.984740	0.046784
 413	2.0600e-01	16.4450	96.354759	0.000485	4.847989	1.642543	0.038718
 414	2.0650e-01	16.4883	96.491884	0.000343	3.433992	1.163468	0.027425
 415	2.0700e-01	16.5268	96.637076	0.000364	3.635992	1.231907	0.029038
 416	2.0750e-01	16.5669	97.012154	0.000939	9.392979	3.182427	0.075016
 417	2.0800e-01	16.6038	97.238007	0.000566	5.655987	1.916300	0.045171
 418	2.0850e-01	16.6519	97.431596	0.000485	4.847989	1.642543	0.038718
 419	2.0900e-01	16.6920	97.512258	0.000202	2.019995	0.684393	0.016132
 420	2.0950e-01	16.7289	97.689714	0.000444	4.443990	1.505665	0.035491
 421	2.1000e-01	16.7658	97.891369	0.000505	5.049988	1.710982	0.040331
 422	2.1050e-01	16.8075	98.080925	0.000475	4.746989	1.608323	0.037911
 423	2.1100e-01	16.8428	98.173686	0.000232	2.322995	0.787052	0.018552
 424	2.1150e-01	16.8829	98.500367	0.000818	8.180981	2.771792	0.065336
 425	2.1200e-01	16.9198	98.835114	0.000838	8.382981	2.840231	0.066949
 426	2.1250e-01	16.9680	98.984339	0.000374	3.736991	1.266127	0.029845
 427	2.1300e-01	17.0049	99.185994	0.000505	5.049988	1.710982	0.040331
 428	2.1350e-01	17.0530	99.327152	0.000353	3.534992	1.197688	0.028232
 429	2.1400e-01	17.0835	99.246490	-0.000202	-2.019995	-0.684393	-0.016132
 430	2.1450e-01	17.1300	99.698197	0.001131	11.311974	3.832601	0.090341
 431	2.1500e-01	17.1733	99.803058	0.000263	2.625994	0.889711	0.020972
 432	2.1550e-01	17.2038	99.984547	0.000454	4.544990	1.539884	0.036298
 433	2.1600e-01	17.2391	100.323328	0.000848	8.483981	2.874450	0.067756
 434	2.1650e-01	17.2888	100.383824	0.000151	1.514997	0.513295	0.012099
 435	2.1700e-01	17.3353	100.698406	0.000788	7.877982	2.669133	0.062916
 436	2.1750e-01	17.3562	100.912160	0.000535	5.352988	1.813641	0.042751
 437	2.1800e-01	17.4011	101.057352	0.000364	3.635992	1.231907	0.029038
 438	2.1850e-01	17.4508	101.150113	0.000232	2.322995	0.787052	0.018552
 439	2.1900e-01	17.4893	101.420331	0.000677	6.766985	2.292716	0.054044
 440	2.1950e-01	17.5311	101.678449	0.000646	6.463985	2.190057	0.051624
 441	2.2000e-01	17.5680	101.807508	0.000323	3.231993	1.095029	0.025812
 442	2.2050e-01	17.6016	102.041428	0.000586	5.857987	1.984740	0.046784
 443	2.2100e-01	17.6498	102.182586	0.000353	3.534992	1.197688	0.028232
 444	2.2150e-01	17.6786	102.190652	0.000020	0.202000	0.068439	0.001613
 445	2.2200e-01	17.7236	102.436671	0.000616	6.160986	2.087399	0.049204
 446	2.2250e-01	17.7653	102.815783	0.000949	9.493978	3.216647	0.075822
 447	2.2300e-01	17.7958	102.839981	0.000061	0.605999	0.205318	0.004840
 448	2.2350e-01	17.8519	102.981140	0.000353	3.534992	1.197688	0.028232
 449	2.2400e-01	17.8856	103.202960	0.000555	5.554987	1.882081	0.044364
 450	2.2450e-01	17.9241	103.428814	0.000566	5.655987	1.916300	0.045171
 451	2.2500e-01	17.9690	103.537707	0.000273	2.726994	0.923931	0.021779
 452	2.2550e-01	18.0123	103.618369	0.000202	2.019995	0.684393	0.016132
 453	2.2600e-01	18.0476	103.973282	0.000889	8.887980	3.011329	0.070983
 454	2.2650e-01	18.0893	104.275764	0.000757	7.574983	2.566474	0.060496
 455	2.2700e-01	18.1198	104.295930	0.000050	0.504999	0.171098	0.004033
 456	2.2750e-01	18.1711	104.550015	0.000636	6.362985	2.155838	0.050817
 457	2.2800e-01	18.2032	104.683107	0.000333	3.332992	1.129248	0.026618
 458	2.2850e-01	18.2417	104.900895	0.000545	5.453988	1.847861	0.043557
 459	2.2900e-01	18.2834	104.989623	0.000222	2.221995	0.752832	0.017746
 460	2.2950e-01	18.3300	104.993656	0.000010	0.101000	0.034220	0.000807
 461	2.3000e-01	18.3637	105.485694	0.001232	12.321972	4.174797	0.098408
 462	2.3050e-01	18.4118	105.622819	0.000343	3.433992	1.163468	0.027425
 463	2.3100e-01	18.4423	105.905136	0.000707	7.069984	2.395375	0.056463
 464	2.3150e-01	18.4872	106.054361	0.000374	3.736991	1.266127	0.029845
 465	2.3200e-01	18.5177	106.179387	0.000313	3.130993	1.060809	0.025005
 466	2.3250e-01	18.5594	106.606895	0.001071	10.705976	3.627283	0.085502
 467	2.3300e-01	18.6043	106.614962	0.000020	0.202000	0.068439	0.001613
 468	2.3350e-01	18.6412	106.707723	0.000232	2.322995	0.787052	0.018552
 469	2.3400e-01	18.6813	106.937609	0.000576	5.756987	1.950520	0.045977
 470	2.3450e-01	18.7182	107.102966	0.000414	4.140991	1.403006	0.033071
 471	2.3500e-01	18.7535	107.457879	0.000889	8.887980	3.011329	0.070983
 472	2.3550e-01	18.8112	107.550640	0.000232	2.322995	0.787052	0.018552
 473	2.3600e-01	18.8481	107.841024	0.000727	7.271983	2.463815	0.058077
 474	2.3650e-01	18.8834	107.909586	0.000172	1.716996	0.581734	0.013713
 475	2.3700e-01	18.9267	108.002347	0.000232	2.322995	0.787052	0.018552
 476	2.3750e-01	18.9684	108.316929	0.000788	7.877982	2.669133	0.062916
 477	2.3800e-01	19.0021	108.571014	0.000636	6.362985	2.155838	0.050817
 478	2.3850e-01	19.0535	108.687974	0.000293	2.928993	0.992370	0.023392
 479	2.3900e-01	19.0904	108.760570	0.000182	1.817996	0.615954	0.014519
 480	2.3950e-01	19.1257	108.938026	0.000444	4.443990	1.505665	0.035491
 481	2.4000e-01	19.1706	109.063052	0.000313	3.130993	1.060809	0.025005
 482	2.4050e-01	19.2059	109.305038	0.000606	6.059986	2.053179	0.048397
 483	2.4100e-01	19.2460	109.571223	0.000667	6.665985	2.258497	0.053237
 484	2.4150e-01	19.2909	109.567190	-0.000010	-0.101000	-0.034220	-0.000807
 485	2.4200e-01	19.3294	109.720447	0.000384	3.837991	1.300347	0.030652
 486	2.4250e-01	19.3583	110.240717	0.001303	13.028970	4.414335	0.104054
 487	2.4300e-01	19.4128	110.333478	0.000232	2.322995	0.787052	0.018552
 488	2.4350e-01	19.4401	110.434306	0.000252	2.524994	0.855491	0.020165
 489	2.4400e-01	19.4802	110.599663	0.000414	4.140991	1.403006	0.033071
 490	2.4450e-01	19.5251	110.942476	0.000858	8.584980	2.908670	0.068563
 491	2.4500e-01	19.5556	111.015072	0.000182	1.817996	0.615954	0.014519
 492	2.4550e-01	19.6053	111.103800	0.000222	2.221995	0.752832	0.017746
 493	2.4600e-01	19.6470	111.325621	0.000555	5.554987	1.882081	0.044364
 494	2.4650e-01	19.6775	111.515176	0.000475	4.746989	1.608323	0.037911
 495	2.4700e-01	19.7240	111.809593	0.000737	7.372983	2.498034	0.058883
 496	2.4750e-01	19.7577	111.890255	0.000202	2.019995	0.684393	0.016132
 497	2.4800e-01	19.7946	112.027380	0.000343	3.433992	1.163468	0.027425
 498	2.4850e-01	19.8412	112.414557	0.000970	9.695978	3.285086	0.077435
 499	2.4900e-01	19.8797	112.458921	0.000111	1.110997	0.376416	0.008873
 500	2.4950e-01	19.9230	112.854165	0.000990	9.897977	3.353526	0.079049
 501	2.5000e-01	19.9711	112.733172	-0.000303	-3.029993	-1.026589	-0.024199
 502	2.5050e-01	19.9743	112.793669	0.000151	1.514997	0.513295	0.012099
 503	2.5100e-01	19.9518	112.475054	0.000798	7.978982	2.703352	-0.063723
 504	2.5150e-01	19.9037	112.390359	0.000212	2.120995	0.718613	-0.016939
 505	2.5200e-01	19.8620	112.309697	0.000202	2.019995	0.684393	-0.016132
 506	2.5250e-01	19.8331	112.120141	0.000475	4.746989	1.608323	-0.037911
 507	2.5300e-01	19.7946	112.015281	0.000263	2.625994	0.889711	-0.020972
 508	2.5350e-01	19.7497	111.837824	0.000444	4.443990	1.505665	-0.035491
 509	2.5400e-01	19.7176	111.849924	-0.000030	-0.302999	-0.102659	0.002420
 510	2.5450e-01	19.6711	111.841857	0.000020	0.202000	0.068439	-0.001613
 511	2.5500e-01	19.6294	111.543408	0.000747	7.473983	2.532254	-0.059690
 512	2.5550e-01	19.5893	111.293356	0.000626	6.261986	2.121618	-0.050010
 513	2.5600e-01	19.5444	111.196562	0.000242	2.423994	0.821272	-0.019359
 514	2.5650e-01	19.5107	111.115900	0.000202	2.019995	0.684393	-0.016132
 515	2.5700e-01	19.4609	111.075569	0.000101	1.009998	0.342196	-0.008066
 516	2.5750e-01	19.4224	110.773086	0.000757	7.574983	2.566474	-0.060496
 517	2.5800e-01	19.3823	110.438339	0.000838	8.382981	2.840231	-0.066949
 518	2.5850e-01	19.3470	110.305247	0.000333	3.332992	1.129248	-0.026618
 519	2.5900e-01	19.3102	110.289114	0.000040	0.403999	0.136879	-0.003226
 520	2.5950e-01	19.2716	110.256850	0.000081	0.807998	0.273757	-0.006453
 521	2.6000e-01	19.2380	110.035029	0.000555	5.554987	1.882081	-0.044364
 522	2.6050e-01	19.1818	109.825308	0.000525	5.251988	1.779422	-0.041944
 523	2.6100e-01	19.1497	109.768845	0.000141	1.413997	0.479075	-0.011293
 524	2.6150e-01	19.1032	109.607521	0.000404	4.039991	1.368786	-0.032265
 525	2.6200e-01	19.0775	109.405866	0.000505	5.049988	1.710982	-0.040331
 526	2.6250e-01	19.0326	109.389733	0.000040	0.403999	0.136879	-0.003226
 527	2.6300e-01	18.9941	109.147747	0.000606	6.059986	2.053179	-0.048397
 528	2.6350e-01	18.9492	108.978357	0.000424	4.241990	1.437225	-0.033878
 529	2.6400e-01	18.9059	108.780736	0.000495	4.948989	1.676763	-0.039524
 530	2.6450e-01	18.8786	108.611345	0.000424	4.241990	1.437225	-0.033878
 531	2.6500e-01	18.8305	108.466154	0.000364	3.635992	1.231907	-0.029038
 532	2.6550e-01	18.7824	108.381459	0.000212	2.120995	0.718613	-0.016939
 533	2.6600e-01	18.7599	108.074943	0.000768	7.675982	2.600693	-0.061303
 534	2.6650e-01	18.7038	107.998314	0.000192	1.918996	0.650173	-0.015326
 535	2.6700e-01	18.6604	107.800693	0.000495	4.948989	1.676763	-0.039524
 536	2.6750e-01	18.6187	107.659534	0.000353	3.534992	1.197688	-0.028232
 537	2.6800e-01	18.5963	107.389316	0.000677	6.766985	2.292716	-0.054044
 538	2.6850e-01	18.5465	107.373184	0.000040	0.403999	0.136879	-0.003226
 539	2.6900e-01	18.5080	107.256224	0.000293	2.928993	0.992370	-0.023392
 540	2.6950e-01	18.4711	107.191695	0.000162	1.615996	0.547514	-0.012906
 541	2.7000e-01	18.4262	106.921477	0.000677	6.766985	2.292716	-0.054044
 542	2.7050e-01	18.3909	106.929543	-0.000020	-0.202000	-0.068439	0.001613
 543	2.7100e-01	18.3444	106.699657	0.000576	5.756987	1.950520	-0.045977
 544	2.7150e-01	18.3155	106.481869	0.000545	5.453988	1.847861	-0.043557
 545	2.7200e-01	18.2754	106.308446	0.000434	4.342990	1.471445	-0.034685
 546	2.7250e-01	18.2385	106.183420	0.000313	3.130993	1.060809	-0.025005
 547	2.7300e-01	18.1952	105.852706	0.000828	8.281981	2.806011	-0.066143
 548	2.7350e-01	18.1567	105.550224	0.000757	7.574983	2.566474	-0.060496
 549	2.7400e-01	18.1086	105.546190	0.000010	0.101000	0.034220	-0.000807
 550	2.7450e-01	18.0765	105.425197	0.000303	3.029993	1.026589	-0.024199
 551	2.7500e-01	18.0364	105.344535	0.000202	2.019995	0.684393	-0.016132
 552	2.7550e-01	17.9834	105.259840	0.000212	2.120995	0.718613	-0.016939
 553	2.7600e-01	17.9449	105.042053	0.000545	5.453988	1.847861	-0.043557
 554	2.7650e-01	17.9032	104.844431	0.000495	4.948989	1.676763	-0.039524
 555	2.7700e-01	17.8712	104.671008	0.000434	4.342990	1.471445	-0.034685
 556	2.7750e-01	17.8359	104.400790	0.000677	6.766985	2.292716	-0.054044
 557	2.7800e-01	17.7829	104.231400	0.000424	4.241990	1.437225	-0.033878
 558	2.7850e-01	17.7492	103.920852	0.000778	7.776982	2.634913	-0.062110
 559	2.7900e-01	17.7204	104.005547	-0.000212	-2.120995	-0.718613	0.016939
 560	2.7950e-01	17.6610	104.041845	-0.000091	-0.908998	-0.307977	0.007260
 561	2.8000e-01	17.6225	103.824057	0.000545	5.453988	1.847861	-0.043557
 562	2.8050e-01	17.5872	103.368317	0.001141	11.412974	3.866820	-0.091148
 563	2.8100e-01	17.5503	103.299755	0.000172	1.716996	0.581734	-0.013713
 564	2.8150e-01	17.5054	103.198927	0.000252	2.524994	0.855491	-0.020165
 565	2.8200e-01	17.4637	103.009371	0.000475	4.746989	1.608323	-0.037911
 566	2.8250e-01	17.4332	102.731088	0.000697	6.968984	2.361156	-0.055657
 567	2.8300e-01	17.3947	102.642359	0.000222	2.221995	0.752832	-0.017746
 568	2.8350e-01	17.3498	102.408440	0.000586	5.857987	1.984740	-0.046784
 569	2.8400e-01	17.3081	102.299546	0.000273	2.726994	0.923931	-0.021779
 570	2.8450e-01	17.2728	102.065626	0.000586	5.857987	1.984740	-0.046784
 571	2.8500e-01	17.2295	102.029328	0.000091	0.908998	0.307977	-0.007260
 572	2.8550e-01	17.1990	101.722813	0.000768	7.675982	2.600693	-0.061303
 573	2.8600e-01	17.1396	101.573588	0.000374	3.736991	1.266127	-0.029845
 574	2.8650e-01	17.1075	101.367900	0.000515	5.150988	1.745202	-0.041138
 575	2.8700e-01	17.0674	101.250940	0.000293	2.928993	0.992370	-0.023392
 576	2.8750e-01	17.0305	101.053319	0.000495	4.948989	1.676763	-0.039524
 577	2.8800e-01	16.9872	100.887962	0.000414	4.140991	1.403006	-0.033071
 578	2.8850e-01	16.9455	100.811333	0.000192	1.918996	0.650173	-0.015326
 579	2.8900e-01	16.9038	100.670174	0.000353	3.534992	1.197688	-0.028232
 580	2.8950e-01	16.8701	100.448354	0.000555	5.554987	1.882081	-0.044364
 581	2.9000e-01	16.8204	100.238633	0.000525	5.251988	1.779422	-0.041944
 582	2.9050e-01	16.7883	100.129739	0.000273	2.726994	0.923931	-0.021779
 583	2.9100e-01	16.7498	99.887753	0.000606	6.059986	2.053179	-0.048397
 584	2.9150e-01	16.7097	99.682065	0.000515	5.150988	1.745202	-0.041138
 585	2.9200e-01	16.6728	99.605436	0.000192	1.918996	0.650173	-0.015326
 586	2.9250e-01	16.6343	99.464278	0.000353	3.534992	1.197688	-0.028232
 587	2.9300e-01	16.5862	99.363450	0.000252	2.524994	0.855491	-0.020165
 588	2.9350e-01	16.5461	99.190027	0.000434	4.342990	1.471445	-0.034685
 589	2.9400e-01	16.5060	98.903677	0.000717	7.170984	2.429595	-0.057270
 590	2.9450e-01	16.4707	98.831081	0.000182	1.817996	0.615954	-0.014519
 591	2.9500e-01	16.4306	98.484235	0.000869	8.685980	2.942890	-0.069369
 592	2.9550e-01	16.3985	98.314845	0.000424	4.241990	1.437225	-0.033878
 593	2.9600e-01	16.3487	98.322911	-0.000020	-0.202000	-0.068439	0.001613
 594	2.9650e-01	16.3150	97.859104	0.001161	11.614973	3.935260	-0.092761
 595	2.9700e-01	16.2733	97.770376	0.000222	2.221995	0.752832	-0.017746
 596	2.9750e-01	16.2236	97.734078	0.000091	0.908998	0.307977	-0.007260
 597	2.9800e-01	16.1771	97.379166	0.000889	8.887980	3.011329	-0.070983
 598	2.9850e-01	16.1434	97.133147	0.000616	6.160986	2.087399	-0.049204
 599	2.9900e-01	16.1113	97.112981	0.000050	0.504999	0.171098	-0.004033
 600	2.9950e-01	16.0648	97.201709	-0.000222	-2.221995	-0.752832	0.017746
 601	3.0000e-01	16.0279	96.766135	0.001091	10.907975	3.695722	-0.087115
 602	3.0050e-01	15.9942	96.588678	0.000444	4.443990	1.505665	-0.035491
 603	3.0100e-01	15.9509	96.342659	0.000616	6.160986	2.087399	-0.049204
 604	3.0150e-01	15.9092	96.257964	0.000212	2.120995	0.718613	-0.016939
 605	3.0200e-01	15.8659	96.068409	0.000475	4.746989	1.608323	-0.037911
 606	3.0250e-01	15.8177	96.007912	0.000151	1.514997	0.513295	-0.012099
 607	3.0300e-01	15.7937	95.765926	0.000606	6.059986	2.053179	-0.048397
 608	3.0350e-01	15.7616	95.568304	0.000495	4.948989	1.676763	-0.039524
 609	3.0400e-01	15.7038	95.253723	0.000788	7.877982	2.669133	-0.062916
 610	3.0450e-01	15.6750	95.112564	0.000353	3.534992	1.197688	-0.028232
 611	3.0500e-01	15.6252	94.814115	0.000747	7.473983	2.532254	-0.059690
 612	3.0550e-01	15.5851	94.697155	0.000293	2.928993	0.992370	-0.023392
 613	3.0600e-01	15.5498	94.543897	0.000384	3.837991	1.300347	-0.030652
 614	3.0650e-01	15.5001	94.475335	0.000172	1.716996	0.581734	-0.013713
 615	3.0700e-01	15.4648	94.422904	0.000131	1.312997	0.444855	-0.010486
 616	3.0750e-01	15.4279	94.322077	0.000252	2.524994	0.855491	-0.020165
 617	3.0800e-01	15.3798	94.027661	0.000737	7.372983	2.498034	-0.058883
 618	3.0850e-01	15.3461	93.830039	0.000495	4.948989	1.676763	-0.039524
 619	3.0900e-01	15.3060	93.346067	0.001212	12.119972	4.106358	-0.096794
 620	3.0950e-01	15.2563	93.305736	0.000101	1.009998	0.342196	-0.008066
 621	3.1000e-01	15.2258	93.229107	0.000192	1.918996	0.650173	-0.015326
 622	3.1050e-01	15.1776	92.979055	0.000626	6.261986	2.121618	-0.050010
 623	3.1100e-01	15.1488	92.833864	0.000364	3.635992	1.231907	-0.029038
 624	3.1150e-01	15.1039	92.684639	0.000374	3.736991	1.266127	-0.029845
 625	3.1200e-01	15.0782	92.515249	0.000424	4.241990	1.437225	-0.033878
 626	3.1250e-01	15.0317	92.285362	0.000576	5.756987	1.950520	-0.045977
 627	3.1300e-01	14.9900	92.192601	0.000232	2.322995	0.787052	-0.018552
 628	3.1350e-01	14.9514	91.918350	0.000687	6.867984	2.326936	-0.054850
 629	3.1400e-01	14.9146	91.765092	0.000384	3.837991	1.300347	-0.030652
 630	3.1450e-01	14.8680	91.567471	0.000495	4.948989	1.676763	-0.039524
 631	3.1500e-01	14.8311	91.281121	0.000717	7.170984	2.429595	-0.057270
 632	3.1550e-01	14.7846	91.027035	0.000636	6.362985	2.155838	-0.050817
 633	3.1600e-01	14.7445	90.954440	0.000182	1.817996	0.615954	-0.014519
 634	3.1650e-01	14.7188	90.926208	0.000071	0.706998	0.239538	-0.005646
 635	3.1700e-01	14.6707	90.732619	0.000485	4.847989	1.642543	-0.038718
 636	3.1750e-01	14.6338	90.506766	0.000566	5.655987	1.916300	-0.045171
 637	3.1800e-01	14.5825	90.305111	0.000505	5.049988	1.710982	-0.040331
 638	3.1850e-01	14.5456	89.990529	0.000788	7.877982	2.669133	-0.062916
 639	3.1900e-01	14.5039	89.913900	0.000192	1.918996	0.650173	-0.015326
 640	3.1950e-01	14.4718	89.740477	0.000434	4.342990	1.471445	-0.034685
 641	3.2000e-01	14.4349	89.478326	0.000656	6.564985	2.224277	-0.052430
 642	3.2050e-01	14.3868	89.268604	0.000525	5.251988	1.779422	-0.041944
 643	3.2100e-01	14.3547	89.042751	0.000566	5.655987	1.916300	-0.045171
 644	3.2150e-01	14.3130	88.833030	0.000525	5.251988	1.779422	-0.041944
 645	3.2200e-01	14.2729	88.820931	0.000030	0.302999	0.102659	-0.002420
 646	3.2250e-01	14.2311	88.708004	0.000283	2.827994	0.958150	-0.022585
 647	3.2300e-01	14.1814	88.389389	0.000798	7.978982	2.703352	-0.063723
 648	3.2350e-01	14.1525	88.232098	0.000394	3.938991	1.334566	-0.031458
 649	3.2400e-01	14.1060	88.058675	0.000434	4.342990	1.471445	-0.034685
 650	3.2450e-01	14.0691	87.909450	0.000374	3.736991	1.266127	-0.029845
 651	3.2500e-01	14.0274	87.675531	0.000586	5.857987	1.984740	-0.046784
 652	3.2550e-01	13.9825	87.461776	0.000535	5.352988	1.813641	-0.042751
 653	3.2600e-01	13.9488	87.199625	0.000656	6.564985	2.224277	-0.052430
 654	3.2650e-01	13.9103	87.098797	0.000252	2.524994	0.855491	-0.020165
 655	3.2700e-01	13.8718	86.828580	0.000677	6.766985	2.292716	-0.054044
 656	3.2750e-01	13.8253	86.889076	-0.000151	-1.514997	-0.513295	0.012099
 657	3.2800e-01	13.7820	86.582561	0.000768	7.675982	2.600693	-0.061303
 658	3.2850e-01	13.7483	86.267979	0.000788	7.877982	2.669133	-0.062916
 659	3.2900e-01	13.7018	86.146986	0.000303	3.029993	1.026589	-0.024199
 660	3.2950e-01	13.6649	86.009861	0.000343	3.433992	1.163468	-0.027425
 661	3.3000e-01	13.6280	85.711411	0.000747	7.473983	2.532254	-0.059690
 662	3.3050e-01	13.5927	85.489591	0.000555	5.554987	1.882081	-0.044364
 663	3.3100e-01	13.5526	85.364565	0.000313	3.130993	1.060809	-0.025005
 664	3.3150e-01	13.5108	85.312135	0.000131	1.312997	0.444855	-0.010486
 665	3.3200e-01	13.4691	85.009652	0.000757	7.574983	2.566474	-0.060496
 666	3.3250e-01	13.4338	84.594243	0.001040	10.402976	3.524624	-0.083082
 667	3.3300e-01	13.3937	84.578111	0.000040	0.403999	0.136879	-0.003226
 668	3.3350e-01	13.3472	84.352257	0.000566	5.655987	1.916300	-0.045171
 669	3.3400e-01	13.3103	84.130437	0.000555	5.554987	1.882081	-0.044364
 670	3.3450e-01	13.2750	83.948947	0.000454	4.544990	1.539884	-0.036298
 671	3.3500e-01	13.2301	83.827954	0.000303	3.029993	1.026589	-0.024199
 672	3.3550e-01	13.1900	83.618233	0.000525	5.251988	1.779422	-0.041944
 673	3.3600e-01	13.1483	83.473042	0.000364	3.635992	1.231907	-0.029038
 674	3.3650e-01	13.1034	83.210890	0.000656	6.564985	2.224277	-0.052430
 675	3.3700e-01	13.0713	83.033434	0.000444	4.443990	1.505665	-0.035491
 676	3.3750e-01	13.0216	82.847911	0.000465	4.645989	1.574104	-0.037105
 677	3.3800e-01	12.9798	82.751117	0.000242	2.423994	0.821272	-0.019359
 678	3.3850e-01	12.9413	82.593826	0.000394	3.938991	1.334566	-0.031458
 679	3.3900e-01	12.9125	82.218748	0.000939	9.392979	3.182427	-0.075016
 680	3.3950e-01	12.8643	82.089689	0.000323	3.231993	1.095029	-0.025812
 681	3.4000e-01	12.8274	81.807372	0.000707	7.069984	2.395375	-0.056463
 682	3.4050e-01	12.7922	81.629916	0.000444	4.443990	1.505665	-0.035491
 683	3.4100e-01	12.7553	81.625883	0.000010	0.101000	0.034220	-0.000807
 684	3.4150e-01	12.7151	81.323400	0.000757	7.574983	2.566474	-0.060496
 685	3.4200e-01	12.6783	81.125778	0.000495	4.948989	1.676763	-0.039524
 686	3.4250e-01	12.6446	80.863627	0.000656	6.564985	2.224277	-0.052430
 687	3.4300e-01	12.5884	80.641807	0.000555	5.554987	1.882081	-0.044364
 688	3.4350e-01	12.5435	80.633740	0.000020	0.202000	0.068439	-0.001613
 689	3.4400e-01	12.5130	80.407887	0.000566	5.655987	1.916300	-0.045171
 690	3.4450e-01	12.4729	80.065073	0.000858	8.584980	2.908670	-0.068563
 691	3.4500e-01	12.4328	80.057007	0.000020	0.202000	0.068439	-0.001613
 692	3.4550e-01	12.3911	79.754525	0.000757	7.574983	2.566474	-0.060496
 693	3.4600e-01	12.3478	79.480274	0.000687	6.867984	2.326936	-0.054850
 694	3.4650e-01	12.3077	79.399612	0.000202	2.019995	0.684393	-0.016132
 695	3.4700e-01	12.2724	79.214090	0.000465	4.645989	1.574104	-0.037105
 696	3.4750e-01	12.2371	78.826912	0.000970	9.695978	3.285086	-0.077435
 697	3.4800e-01	12.1825	78.774482	0.000131	1.312997	0.444855	-0.010486
 698	3.4850e-01	12.1601	78.633323	0.000353	3.534992	1.197688	-0.028232
 699	3.4900e-01	12.1168	78.286477	0.000869	8.685980	2.942890	-0.069369
 700	3.4950e-01	12.0735	78.193716	0.000232	2.322995	0.787052	-0.018552
 701	3.5000e-01	12.0301	78.008193	0.000465	4.645989	1.574104	-0.037105
 702	3.5050e-01	11.9884	77.758141	0.000626	6.261986	2.121618	-0.050010
 703	3.5100e-01	11.9515	77.395162	0.000909	9.089979	3.079768	-0.072596
 704	3.5150e-01	11.9082	77.290302	0.000263	2.625994	0.889711	-0.020972
 705	3.5200e-01	11.8681	77.120911	0.000424	4.241990	1.437225	-0.033878
 706	3.5250e-01	11.8232	77.007985	0.000283	2.827994	0.958150	-0.022585
 707	3.5300e-01	11.7879	76.640973	0.000919	9.190979	3.113988	-0.073402
 708	3.5350e-01	11.7526	76.455450	0.000465	4.645989	1.574104	-0.037105
 709	3.5400e-01	11.7061	76.100538	0.000889	8.887980	3.011329	-0.070983
 710	3.5450e-01	11.6708	76.007776	0.000232	2.322995	0.787052	-0.018552
 711	3.5500e-01	11.6291	75.826287	0.000454	4.544990	1.539884	-0.036298
 712	3.5550e-01	11.5858	75.552036	0.000687	6.867984	2.326936	-0.054850
 713	3.5600e-01	11.5569	75.221322	0.000828	8.281981	2.806011	-0.066143
 714	3.5650e-01	11.5216	75.273752	-0.000131	-1.312997	-0.444855	0.010486
 715	3.5700e-01	11.4719	75.120495	0.000384	3.837991	1.300347	-0.030652
 716	3.5750e-01	11.4237	74.975303	0.000364	3.635992	1.231907	-0.029038
 717	3.5800e-01	11.3917	74.688953	0.000717	7.170984	2.429595	-0.057270
 718	3.5850e-01	11.3516	74.269511	0.001050	10.503976	3.558843	-0.083888
 719	3.5900e-01	11.3082	74.039624	0.000576	5.756987	1.950520	-0.045977
 720	3.5950e-01	11.2537	74.059790	-0.000050	-0.504999	-0.171098	0.004033
 721	3.6000e-01	11.2264	74.055757	0.000010	0.101000	0.034220	-0.000807
 722	3.6050e-01	11.1895	73.721009	0.000838	8.382981	2.840231	-0.066949
 723	3.6100e-01	11.1446	73.442726	0.000697	6.968984	2.361156	-0.055657
 724	3.6150e-01	11.1109	73.075714	0.000919	9.190979	3.113988	-0.073402
 725	3.6200e-01	11.0740	73.035383	0.000101	1.009998	0.342196	-0.008066
 726	3.6250e-01	11.0227	72.648205	0.000970	9.695978	3.285086	-0.077435
 727	3.6300e-01	10.9906	72.450583	0.000495	4.948989	1.676763	-0.039524
 728	3.6350e-01	10.9569	72.365888	0.000212	2.120995	0.718613	-0.016939
 729	3.6400e-01	10.9072	72.204564	0.000404	4.039991	1.368786	-0.032265
 730	3.6450e-01	10.8655	71.950479	0.000636	6.362985	2.155838	-0.050817
 731	3.6500e-01	10.8302	71.885949	0.000162	1.615996	0.547514	-0.012906
 732	3.6550e-01	10.7917	71.543136	0.000858	8.584980	2.908670	-0.068563
 733	3.6600e-01	10.7516	71.301150	0.000606	6.059986	2.053179	-0.048397
 734	3.6650e-01	10.7115	71.115628	0.000465	4.645989	1.574104	-0.037105
 735	3.6700e-01	10.6617	70.901873	0.000535	5.352988	1.813641	-0.042751
 736	3.6750e-01	10.6216	70.764748	0.000343	3.433992	1.163468	-0.027425
 737	3.6800e-01	10.5911	70.579226	0.000465	4.645989	1.574104	-0.037105
 738	3.6850e-01	10.5526	70.333207	0.000616	6.160986	2.087399	-0.049204
 739	3.6900e-01	10.5125	69.921830	0.001030	10.301976	3.490404	-0.082275
 740	3.6950e-01	10.4708	69.869400	0.000131	1.312997	0.444855	-0.010486
 741	3.7000e-01	10.4307	69.595149	0.000687	6.867984	2.326936	-0.054850
 742	3.7050e-01	10.3938	69.369296	0.000566	5.655987	1.916300	-0.045171
 743	3.7100e-01	10.3377	69.236204	0.000333	3.332992	1.129248	-0.026618
 744	3.7150e-01	10.3040	69.042615	0.000485	4.847989	1.642543	-0.038718
 745	3.7200e-01	10.2735	68.715934	0.000818	8.180981	2.771792	-0.065336
 746	3.7250e-01	10.2366	68.465882	0.000626	6.261986	2.121618	-0.050010
 747	3.7300e-01	10.1901	68.373121	0.000232	2.322995	0.787052	-0.018552
 748	3.7350e-01	10.1468	68.050473	0.000808	8.079982	2.737572	-0.064530
 749	3.7400e-01	10.1067	68.074671	-0.000061	-0.605999	-0.205318	0.004840
 750	3.7450e-01	10.0714	67.893182	0.000454	4.544990	1.539884	-0.036298
 751	3.7500e-01	10.0249	67.566501	0.000818	8.180981	2.771792	-0.065336
 752	3.7550e-01	9.9944	67.308383	0.000646	6.463985	2.190057	-0.051624
 753	3.7600e-01	9.9527	67.110761	0.000495	4.948989	1.676763	-0.039524
 754	3.7650e-01	9.9126	66.788113	0.000808	8.079982	2.737572	-0.064530
 755	3.7700e-01	9.8724	66.638888	0.000374	3.736991	1.266127	-0.029845
 756	3.7750e-01	9.8259	66.485630	0.000384	3.837991	1.300347	-0.030652
 757	3.7800e-01	9.7842	66.461432	0.000061	0.605999	0.205318	-0.004840
 758	3.7850e-01	9.7473	66.183148	0.000697	6.968984	2.361156	-0.055657
 759	3.7900e-01	9.7008	65.816136	0.000919	9.190979	3.113988	-0.073402
 760	3.7950e-01	9.6703	65.549952	0.000667	6.665985	2.258497	-0.053237
 761	3.8000e-01	9.6270	65.203105	0.000869	8.685980	2.942890	-0.069369
 762	3.8050e-01	9.5853	65.017583	0.000465	4.645989	1.574104	-0.037105
 763	3.8100e-01	9.5484	64.973218	0.000111	1.110997	0.376416	-0.008873
 764	3.8150e-01	9.5083	64.735266	0.000596	5.958986	2.018959	-0.047591
 765	3.8200e-01	9.4714	64.465048	0.000677	6.766985	2.292716	-0.054044
 766	3.8250e-01	9.4265	64.259360	0.000515	5.150988	1.745202	-0.041138
 767	3.8300e-01	9.3928	63.973010	0.000717	7.170984	2.429595	-0.057270
 768	3.8350e-01	9.3414	63.747157	0.000566	5.655987	1.916300	-0.045171
 769	3.8400e-01	9.3126	63.428542	0.000798	7.978982	2.703352	-0.063723
 770	3.8450e-01	9.2660	63.307549	0.000303	3.029993	1.026589	-0.024199
 771	3.8500e-01	9.2259	63.521303	-0.000535	-5.352988	-1.813641	0.042751
 772	3.8550e-01	9.1906	62.980868	0.001353	13.533969	4.585433	-0.108087
 773	3.8600e-01	9.1505	62.642087	0.000848	8.483981	2.874450	-0.067756
 774	3.8650e-01	9.1040	62.561426	0.000202	2.019995	0.684393	-0.016132
 775	3.8700e-01	9.0687	62.214579	0.000869	8.685980	2.942890	-0.069369
 776	3.8750e-01	9.0334	62.061321	0.000384	3.837991	1.300347	-0.030652
 777	3.8800e-01	8.9869	61.875799	0.000465	4.645989	1.574104	-0.037105
 778	3.8850e-01	8.9468	61.476522	0.001000	9.998977	3.387745	-0.079855
 779	3.8900e-01	8.9115	61.303099	0.000434	4.342990	1.471445	-0.034685
 780	3.8950e-01	8.8618	61.049014	0.000636	6.362985	2.155838	-0.050817
 781	3.9000e-01	8.8281	60.811061	0.000596	5.958986	2.018959	-0.047591
 782	3.9050e-01	8.7864	60.496479	0.000788	7.877982	2.669133	-0.062916
 783	3.9100e-01	8.7527	60.496479	-0.000000	-0.000000	-0.000000	0.000000
 784	3.9150e-01	8.7030	60.323056	0.000434	4.342990	1.471445	-0.034685
 785	3.9200e-01	8.6709	60.109302	0.000535	5.352988	1.813641	-0.042751
 786	3.9250e-01	8.6211	59.790687	0.000798	7.978982	2.703352	-0.063723
 787	3.9300e-01	8.5859	59.528535	0.000656	6.564985	2.224277	-0.052430
 788	3.9350e-01	8.5474	59.193788	0.000838	8.382981	2.840231	-0.066949
 789	3.9400e-01	8.5024	59.153457	0.000101	1.009998	0.342196	-0.008066
 790	3.9450e-01	8.4752	58.903405	0.000626	6.261986	2.121618	-0.050010
 791	3.9500e-01	8.4286	58.762247	0.000353	3.534992	1.197688	-0.028232
 792	3.9550e-01	8.3853	58.504128	0.000646	6.463985	2.190057	-0.051624
 793	3.9600e-01	8.3500	58.262142	0.000606	6.059986	2.053179	-0.048397
 794	3.9650e-01	8.3067	57.943528	0.000798	7.978982	2.703352	-0.063723
 795	3.9700e-01	8.2714	57.721707	0.000555	5.554987	1.882081	-0.044364
 796	3.9750e-01	8.2297	57.584582	0.000343	3.433992	1.163468	-0.027425
 797	3.9800e-01	8.1832	57.366795	0.000545	5.453988	1.847861	-0.043557
 798	3.9850e-01	8.1479	57.048180	0.000798	7.978982	2.703352	-0.063723
 799	3.9900e-01	8.1046	56.911054	0.000343	3.433992	1.163468	-0.027425
 800	3.9950e-01	8.0661	56.527910	0.000959	9.594978	3.250867	-0.076629
 801	4.0000e-01	8.0244	56.293990	0.000586	5.857987	1.984740	-0.046784
 802	4.0050e-01	7.9907	56.031839	0.000656	6.564985	2.224277	-0.052430
 803	4.0100e-01	7.9490	56.047971	-0.000040	-0.403999	-0.136879	0.003226
 804	4.0150e-01	7.9025	55.890680	0.000394	3.938991	1.334566	-0.031458
 805	4.0200e-01	7.8607	55.596264	0.000737	7.372983	2.498034	-0.058883
 806	4.0250e-01	7.8303	55.334113	0.000656	6.564985	2.224277	-0.052430
 807	4.0300e-01	7.7837	55.088094	0.000616	6.160986	2.087399	-0.049204
 808	4.0350e-01	7.7452	54.749314	0.000848	8.483981	2.874450	-0.067756
 809	4.0400e-01	7.7051	54.466997	0.000707	7.069984	2.395375	-0.056463
 810	4.0450e-01	7.6730	54.196779	0.000677	6.766985	2.292716	-0.054044
 811	4.0500e-01	7.6281	53.741039	0.001141	11.412974	3.866820	-0.091148
 812	4.0550e-01	7.5864	53.753138	-0.000030	-0.302999	-0.102659	0.002420
 813	4.0600e-01	7.5543	53.394192	0.000899	8.988979	3.045549	-0.071789
 814	4.0650e-01	7.5174	53.333696	0.000151	1.514997	0.513295	-0.012099
 815	4.0700e-01	7.4645	53.152206	0.000454	4.544990	1.539884	-0.036298
 816	4.0750e-01	7.4212	52.930386	0.000555	5.554987	1.882081	-0.044364
 817	4.0800e-01	7.3763	52.845691	0.000212	2.120995	0.718613	-0.016939
 818	4.0850e-01	7.3474	52.547242	0.000747	7.473983	2.532254	-0.059690
 819	4.0900e-01	7.2993	52.337521	0.000525	5.251988	1.779422	-0.041944
 820	4.0950e-01	7.2672	51.982608	0.000889	8.887980	3.011329	-0.070983
 821	4.1000e-01	7.2287	51.704324	0.000697	6.968984	2.361156	-0.055657
 822	4.1050e-01	7.1854	51.377643	0.000818	8.180981	2.771792	-0.065336
 823	4.1100e-01	7.1469	51.252617	0.000313	3.130993	1.060809	-0.025005
 824	4.1150e-01	7.1068	51.002565	0.000626	6.261986	2.121618	-0.050010
 825	4.1200e-01	7.0715	50.736380	0.000667	6.665985	2.258497	-0.053237
 826	4.1250e-01	7.0185	50.530692	0.000515	5.150988	1.745202	-0.041138
 827	4.1300e-01	6.9832	50.095118	0.001091	10.907975	3.695722	-0.087115
 828	4.1350e-01	6.9367	50.018489	0.000192	1.918996	0.650173	-0.015326
 829	4.1400e-01	6.9078	49.849099	0.000424	4.241990	1.437225	-0.033878
 830	4.1450e-01	6.8629	49.659543	0.000475	4.746989	1.608323	-0.037911
 831	4.1500e-01	6.8244	49.393359	0.000667	6.665985	2.258497	-0.053237
 832	4.1550e-01	6.7907	49.066678	0.000818	8.180981	2.771792	-0.065336
 833	4.1600e-01	6.7506	48.828725	0.000596	5.958986	2.018959	-0.047591
 834	4.1650e-01	6.7121	48.671434	0.000394	3.938991	1.334566	-0.031458
 835	4.1700e-01	6.6736	48.401216	0.000677	6.766985	2.292716	-0.054044
 836	4.1750e-01	6.6271	48.183429	0.000545	5.453988	1.847861	-0.043557
 837	4.1800e-01	6.5966	47.820450	0.000909	9.089979	3.079768	-0.072596
 838	4.1850e-01	6.5517	47.517968	0.000757	7.574983	2.566474	-0.060496
 839	4.1900e-01	6.5036	47.417140	0.000252	2.524994	0.855491	-0.020165
 840	4.1950e-01	6.4747	46.888804	0.001323	13.230970	4.482774	-0.105667
 841	4.2000e-01	6.4298	46.675050	0.000535	5.352988	1.813641	-0.042751
 842	4.2050e-01	6.3832	46.671017	0.000010	0.101000	0.034220	-0.000807
 843	4.2100e-01	6.3496	46.497594	0.000434	4.342990	1.471445	-0.034685
 844	4.2150e-01	6.3159	46.187045	0.000778	7.776982	2.634913	-0.062110
 845	4.2200e-01	6.2597	46.090251	0.000242	2.423994	0.821272	-0.019359
 846	4.2250e-01	6.2228	45.622411	0.001172	11.715973	3.969479	-0.093568
 847	4.2300e-01	6.1891	45.340094	0.000707	7.069984	2.395375	-0.056463
 848	4.2350e-01	6.1506	45.170704	0.000424	4.241990	1.437225	-0.033878
 849	4.2400e-01	6.1121	44.787560	0.000959	9.594978	3.250867	-0.076629
 850	4.2450e-01	6.0688	44.706898	0.000202	2.019995	0.684393	-0.016132
 851	4.2500e-01	6.0319	44.602037	0.000263	2.625994	0.889711	-0.020972
 852	4.2550e-01	5.9934	44.218893	0.000959	9.594978	3.250867	-0.076629
 853	4.2600e-01	5.9501	44.069668	0.000374	3.736991	1.266127	-0.029845
 854	4.2650e-01	5.9020	43.706690	0.000909	9.089979	3.079768	-0.072596
 855	4.2700e-01	5.8715	43.412273	0.000737	7.372983	2.498034	-0.058883
 856	4.2750e-01	5.8266	43.367909	0.000111	1.110997	0.376416	-0.008873
 857	4.2800e-01	5.7913	43.008963	0.000899	8.988979	3.045549	-0.071789
 858	4.2850e-01	5.7528	42.803275	0.000515	5.150988	1.745202	-0.041138
 859	4.2900e-01	5.7063	42.557256	0.000616	6.160986	2.087399	-0.049204
 860	4.2950e-01	5.6742	42.266873	0.000727	7.271983	2.463815	-0.058077
 861	4.3000e-01	5.6244	41.928093	0.000848	8.483981	2.874450	-0.067756
 862	4.3050e-01	5.5827	41.694173	0.000586	5.857987	1.984740	-0.046784
 863	4.3100e-01	5.5539	41.557048	0.000343	3.433992	1.163468	-0.027425
 864	4.3150e-01	5.5105	41.250533	0.000768	7.675982	2.600693	-0.061303
 865	4.3200e-01	5.4736	40.956116	0.000737	7.372983	2.498034	-0.058883
 866	4.3250e-01	5.4319	40.758494	0.000495	4.948989	1.676763	-0.039524
 867	4.3300e-01	5.3902	40.536674	0.000555	5.554987	1.882081	-0.044364
 868	4.3350e-01	5.3405	40.286622	0.000626	6.261986	2.121618	-0.050010
 869	4.3400e-01	5.3068	40.093033	0.000485	4.847989	1.642543	-0.038718
 870	4.3450e-01	5.2683	39.721988	0.000929	9.291979	3.148208	-0.074209
 871	4.3500e-01	5.2298	39.645359	0.000192	1.918996	0.650173	-0.015326
 872	4.3550e-01	5.1897	39.258182	0.000970	9.695978	3.285086	-0.077435
 873	4.3600e-01	5.1351	39.129123	0.000323	3.231993	1.095029	-0.025812
 874	4.3650e-01	5.1143	38.802442	0.000818	8.180981	2.771792	-0.065336
 875	4.3700e-01	5.0726	38.536257	0.000667	6.665985	2.258497	-0.053237
 876	4.3750e-01	5.0309	38.177311	0.000899	8.988979	3.045549	-0.071789
 877	4.3800e-01	4.9972	37.919193	0.000646	6.463985	2.190057	-0.051624
 878	4.3850e-01	4.9491	37.689306	0.000576	5.756987	1.950520	-0.045977
 879	4.3900e-01	4.9041	37.564280	0.000313	3.130993	1.060809	-0.025005
 880	4.3950e-01	4.8737	37.322294	0.000606	6.059986	2.053179	-0.048397
 881	4.4000e-01	4.8223	37.035944	0.000717	7.170984	2.429595	-0.057270
 882	4.4050e-01	4.7822	36.761694	0.000687	6.867984	2.326936	-0.054850
 883	4.4100e-01	4.7485	36.539873	0.000555	5.554987	1.882081	-0.044364
 884	4.4150e-01	4.7100	36.140597	0.001000	9.998977	3.387745	-0.079855
 885	4.4200e-01	4.6651	36.023637	0.000293	2.928993	0.992370	-0.023392
 886	4.4250e-01	4.6250	35.692923	0.000828	8.281981	2.806011	-0.066143
 887	4.4300e-01	4.5833	35.535632	0.000394	3.938991	1.334566	-0.031458
 888	4.4350e-01	4.5528	35.208951	0.000818	8.180981	2.771792	-0.065336
 889	4.4400e-01	4.5079	34.926634	0.000707	7.069984	2.395375	-0.056463
 890	4.4450e-01	4.4694	34.652383	0.000687	6.867984	2.326936	-0.054850
 891	4.4500e-01	4.4261	34.418463	0.000586	5.857987	1.984740	-0.046784
 892	4.4550e-01	4.3812	34.341835	0.000192	1.918996	0.650173	-0.015326
 893	4.4600e-01	4.3459	34.007087	0.000838	8.382981	2.840231	-0.066949
 894	4.4650e-01	4.3106	33.627976	0.000949	9.493978	3.216647	-0.075822
 895	4.4700e-01	4.2657	33.337593	0.000727	7.271983	2.463815	-0.058077
 896	4.4750e-01	4.2272	33.168203	0.000424	4.241990	1.437225	-0.033878
 897	4.4800e-01	4.1870	32.982680	0.000465	4.645989	1.574104	-0.037105
 898	4.4850e-01	4.1421	32.708430	0.000687	6.867984	2.326936	-0.054850
 899	4.4900e-01	4.1084	32.313186	0.000990	9.897977	3.353526	-0.079049
 900	4.4950e-01	4.0587	32.055068	0.000646	6.463985	2.190057	-0.051624
 901	4.5000e-01	4.0186	31.869545	0.000465	4.645989	1.574104	-0.037105
 902	4.5050e-01	3.9865	31.563030	0.000768	7.675982	2.600693	-0.061303
 903	4.5100e-01	3.9400	31.357342	0.000515	5.150988	1.745202	-0.041138
 904	4.5150e-01	3.9063	30.941932	0.001040	10.402976	3.524624	-0.083082
 905	4.5200e-01	3.8758	30.615251	0.000818	8.180981	2.771792	-0.065336
 906	4.5250e-01	3.8389	30.530556	0.000212	2.120995	0.718613	-0.016939
 907	4.5300e-01	3.7844	30.304703	0.000566	5.655987	1.916300	-0.045171
 908	4.5350e-01	3.7539	29.933658	0.000929	9.291979	3.148208	-0.074209
 909	4.5400e-01	3.7058	29.844930	0.000222	2.221995	0.752832	-0.017746
 910	4.5450e-01	3.6689	29.558580	0.000717	7.170984	2.429595	-0.057270
 911	4.5500e-01	3.6336	29.239965	0.000798	7.978982	2.703352	-0.063723
 912	4.5550e-01	3.5967	29.006045	0.000586	5.857987	1.984740	-0.046784
 913	4.5600e-01	3.5454	28.683397	0.000808	8.079982	2.737572	-0.064530
 914	4.5650e-01	3.5085	28.393014	0.000727	7.271983	2.463815	-0.058077
 915	4.5700e-01	3.4667	28.102631	0.000727	7.271983	2.463815	-0.058077
 916	4.5750e-01	3.4234	27.941307	0.000404	4.039991	1.368786	-0.032265
 917	4.5800e-01	3.3849	27.594461	0.000869	8.685980	2.942890	-0.069369
 918	4.5850e-01	3.3448	27.388773	0.000515	5.150988	1.745202	-0.041138
 919	4.5900e-01	3.3015	27.154853	0.000586	5.857987	1.984740	-0.046784
 920	4.5950e-01	3.2646	26.840271	0.000788	7.877982	2.669133	-0.062916
 921	4.6000e-01	3.2261	26.517623	0.000808	8.079982	2.737572	-0.064530
 922	4.6050e-01	3.1796	26.352266	0.000414	4.140991	1.403006	-0.033071
 923	4.6100e-01	3.1427	26.065916	0.000717	7.170984	2.429595	-0.057270
 924	4.6150e-01	3.1090	25.876361	0.000475	4.746989	1.608323	-0.037911
 925	4.6200e-01	3.0689	25.614209	0.000656	6.564985	2.224277	-0.052430
 926	4.6250e-01	3.0288	25.380290	0.000586	5.857987	1.984740	-0.046784
 927	4.6300e-01	2.9839	24.936649	0.001111	11.109975	3.764161	-0.088728
 928	4.6350e-01	2.9438	24.638199	0.000747	7.473983	2.532254	-0.059690
 929	4.6400e-01	2.9069	24.287320	0.000879	8.786980	2.977109	-0.070176
 930	4.6450e-01	2.8668	24.085665	0.000505	5.049988	1.710982	-0.040331
 931	4.6500e-01	2.8218	23.871911	0.000535	5.352988	1.813641	-0.042751
 932	4.6550e-01	2.7866	23.492799	0.000949	9.493978	3.216647	-0.075822
 933	4.6600e-01	2.7432	23.270979	0.000555	5.554987	1.882081	-0.044364
 934	4.6650e-01	2.7128	23.069324	0.000505	5.049988	1.710982	-0.040331
 935	4.6700e-01	2.6727	22.895901	0.000434	4.342990	1.471445	-0.034685
 936	4.6750e-01	2.6181	22.637782	0.000646	6.463985	2.190057	-0.051624
 937	4.6800e-01	2.5908	22.468392	0.000424	4.241990	1.437225	-0.033878
 938	4.6850e-01	2.5539	22.040884	0.001071	10.705976	3.627283	-0.085502
 939	4.6900e-01	2.5042	21.677905	0.000909	9.089979	3.079768	-0.072596
 940	4.6950e-01	2.4673	21.419787	0.000646	6.463985	2.190057	-0.051624
 941	4.7000e-01	2.4368	21.125370	0.000737	7.372983	2.498034	-0.058883
 942	4.7050e-01	2.3903	20.867252	0.000646	6.463985	2.190057	-0.051624
 943	4.7100e-01	2.3406	20.613167	0.000636	6.362985	2.155838	-0.050817
 944	4.7150e-01	2.3117	20.419578	0.000485	4.847989	1.642543	-0.038718
 945	4.7200e-01	2.2636	20.125162	0.000737	7.372983	2.498034	-0.058883
 946	4.7250e-01	2.2251	19.943673	0.000454	4.544990	1.539884	-0.036298
 947	4.7300e-01	2.1914	19.459701	0.001212	12.119972	4.106358	-0.096794
 948	4.7350e-01	2.1529	19.157218	0.000757	7.574983	2.566474	-0.060496
 949	4.7400e-01	2.1112	18.895067	0.000656	6.564985	2.224277	-0.052430
 950	4.7450e-01	2.0711	18.661147	0.000586	5.857987	1.984740	-0.046784
 951	4.7500e-01	2.0278	18.475625	0.000465	4.645989	1.574104	-0.037105
 952	4.7550e-01	1.9844	18.181208	0.000737	7.372983	2.498034	-0.058883
 953	4.7600e-01	1.9491	18.100547	0.000202	2.019995	0.684393	-0.016132
 954	4.7650e-01	1.9074	17.636740	0.001161	11.614973	3.935260	-0.092761
 955	4.7700e-01	1.8593	17.467350	0.000424	4.241990	1.437225	-0.033878
 956	4.7750e-01	1.8240	17.160835	0.000768	7.675982	2.600693	-0.061303
 957	4.7800e-01	1.7903	16.729293	0.001081	10.806975	3.661502	-0.086308
 958	4.7850e-01	1.7566	16.551837	0.000444	4.443990	1.505665	-0.035491
 959	4.7900e-01	1.7213	16.378413	0.000434	4.342990	1.471445	-0.034685
 960	4.7950e-01	1.6652	16.051732	0.000818	8.180981	2.771792	-0.065336
 961	4.8000e-01	1.6347	15.628257	0.001060	10.604976	3.593063	-0.084695
 962	4.8050e-01	1.5898	15.321742	0.000768	7.675982	2.600693	-0.061303
 963	4.8100e-01	1.5449	15.043458	0.000697	6.968984	2.361156	-0.055657
 964	4.8150e-01	1.5064	14.918432	0.000313	3.130993	1.060809	-0.025005
 965	4.8200e-01	1.4631	14.708711	0.000525	5.251988	1.779422	-0.041944
 966	4.8250e-01	1.4214	14.402195	0.000768	7.675982	2.600693	-0.061303
 967	4.8300e-01	1.3861	14.216673	0.000465	4.645989	1.574104	-0.037105
 968	4.8350e-01	1.3508	13.978720	0.000596	5.958986	2.018959	-0.047591
 969	4.8400e-01	1.2994	13.458450	0.001303	13.028970	4.414335	-0.104054
 970	4.8450e-01	1.2641	13.333424	0.000313	3.130993	1.060809	-0.025005
 971	4.8500e-01	1.2256	13.115637	0.000545	5.453988	1.847861	-0.043557
 972	4.8550e-01	1.1871	12.671996	0.001111	11.109975	3.764161	-0.088728
 973	4.8600e-01	1.1486	12.514705	0.000394	3.938991	1.334566	-0.031458
 974	4.8650e-01	1.1085	12.171892	0.000858	8.584980	2.908670	-0.068563
 975	4.8700e-01	1.0652	11.893608	0.000697	6.968984	2.361156	-0.055657
 976	4.8750e-01	1.0299	11.482232	0.001030	10.301976	3.490404	-0.082275
 977	4.8800e-01	0.9866	11.256378	0.000566	5.655987	1.916300	-0.045171
 978	4.8850e-01	0.9481	11.086988	0.000424	4.241990	1.437225	-0.033878
 979	4.8900e-01	0.9080	10.808704	0.000697	6.968984	2.361156	-0.055657
 980	4.8950e-01	0.8679	10.473957	0.000838	8.382981	2.840231	-0.066949
 981	4.9000e-01	0.8214	10.211806	0.000656	6.564985	2.224277	-0.052430
 982	4.9050e-01	0.7909	9.937555	0.000687	6.867984	2.326936	-0.054850
 983	4.9100e-01	0.7556	9.687503	0.000626	6.261986	2.121618	-0.050010
 984	4.9150e-01	0.7027	9.413252	0.000687	6.867984	2.326936	-0.054850
 985	4.9200e-01	0.6690	9.155134	0.000646	6.463985	2.190057	-0.051624
 986	4.9250e-01	0.6289	8.812320	0.000858	8.584980	2.908670	-0.068563
 987	4.9300e-01	0.5791	8.449342	0.000909	9.089979	3.079768	-0.072596
 988	4.9350e-01	0.5454	8.211389	0.000596	5.958986	2.018959	-0.047591
 989	4.9400e-01	0.5118	7.884708	0.000818	8.180981	2.771792	-0.065336
 990	4.9450e-01	0.4700	7.658854	0.000566	5.655987	1.916300	-0.045171
 991	4.9500e-01	0.4203	7.384604	0.000687	6.867984	2.326936	-0.054850
 992	4.9550e-01	0.3834	7.098254	0.000717	7.170984	2.429595	-0.057270
 993	4.9600e-01	0.3305	7.029691	0.000172	1.716996	0.581734	-0.013713
 994	4.9650e-01	0.3048	6.525554	0.001262	12.624971	4.277456	-0.100827
 995	4.9700e-01	0.2663	6.174674	0.000879	8.786980	2.977109	-0.070176
 996	4.9750e-01	0.2214	6.005284	0.000424	4.241990	1.437225	-0.033878
 997	4.9800e-01	0.1925	5.714901	0.000727	7.271983	2.463815	-0.058077
 998	4.9850e-01	0.1492	5.456782	0.000646	6.463985	2.190057	-0.051624
 999	4.9900e-01	0.1123	5.053473	0.001010	10.099977	3.421965	-0.080662
1000	4.9950e-01	0.0674	4.835685	0.000545	5.453988	1.847861	-0.043557
1001	5.0000e-01	0.0353	4.234754	0.001505	15.048966	5.098728	-0.120186
1002	5.0050e-01	-0.0048	4.271051	-0.000091	-0.908998	-0.307977	0.007260
1003	5.0100e-01	-0.0497	4.117794	0.000384	3.837991	1.300347	-0.030652
1004	5.0150e-01	-0.0834	3.633822	0.001212	12.119972	4.106358	-0.096794
1005	5.0200e-01	-0.1235	3.266810	0.000919	9.190979	3.113988	-0.073402
1006	5.0250e-01	-0.1684	3.149850	0.000293	2.928993	0.992370	-0.023392
1007	5.0300e-01	-0.2037	2.774772	0.000939	9.392979	3.182427	-0.075016
1008	5.0350e-01	-0.2535	2.597315	0.000444	4.443990	1.505665	-0.035491
1009	5.0400e-01	-0.2872	2.331131	0.000667	6.665985	2.258497	-0.053237
1010	5.0450e-01	-0.3289	2.044781	0.000717	7.170984	2.429595	-0.057270
1011	5.0500e-01	-0.3626	1.685835	0.000899	8.988979	3.045549	-0.071789
1012	5.0550e-01	-0.4043	1.508379	0.000444	4.443990	1.505665	-0.035491
1013	5.0600e-01	-0.4460	1.161532	0.000869	8.685980	2.942890	-0.069369
1014	5.0650e-01	-0.4877	1.000208	0.000404	4.039991	1.368786	-0.032265
1015	5.0700e-01	-0.5230	0.742090	0.000646	6.463985	2.190057	-0.051624
1016	5.0750e-01	-0.5599	0.322648	0.001050	10.503976	3.558843	-0.083888
1017	5.0800e-01	-0.6096	0.004033	0.000798	7.978982	2.703352	-0.063723
1018	5.0850e-01	-0.6401	-0.217787	0.000555	5.554987	1.882081	-0.044364
1019	5.0900e-01	-0.6818	-0.540435	0.000808	8.079982	2.737572	-0.064530
1020	5.0950e-01	-0.7155	-0.863083	0.000808	8.079982	2.737572	-0.064530
1021	5.1000e-01	-0.7716	-0.996175	0.000333	3.332992	1.129248	-0.026618
1022	5.1050e-01	-0.8053	-1.443849	0.001121	11.210974	3.798381	-0.089535
1023	5.1100e-01	-0.8486	-1.520478	0.000192	1.918996	0.650173	-0.015326
1024	5.1150e-01	-0.8807	-2.028649	0.001273	12.725971	4.311676	-0.101634
1025	5.1200e-01	-0.9256	-2.355330	0.000818	8.180981	2.771792	-0.065336
1026	5.1250e-01	-0.9657	-2.516654	0.000404	4.039991	1.368786	-0.032265
1027	5.1300e-01	-1.0139	-2.690077	0.000434	4.342990	1.471445	-0.034685
1028	5.1350e-01	-1.0476	-3.028857	0.000848	8.483981	2.874450	-0.067756
1029	5.1400e-01	-1.0845	-3.504763	0.001192	11.917973	4.037918	-0.095181
1030	5.1450e-01	-1.1294	-3.779013	0.000687	6.867984	2.326936	-0.054850
1031	5.1500e-01	-1.1599	-4.085529	0.000768	7.675982	2.600693	-0.061303
1032	5.1550e-01	-1.2048	-4.262985	0.000444	4.443990	1.505665	-0.035491
1033	5.1600e-01	-1.2497	-4.734858	0.001182	11.816973	4.003699	-0.094375
1034	5.1650e-01	-1.2786	-4.976844	0.000606	6.059986	2.053179	-0.048397
1035	5.1700e-01	-1.3315	-5.105903	0.000323	3.231993	1.095029	-0.025812
1036	5.1750e-01	-1.3684	-5.291425	0.000465	4.645989	1.574104	-0.037105
1037	5.1800e-01	-1.4101	-5.694735	0.001010	10.099977	3.421965	-0.080662
1038	5.1850e-01	-1.4502	-5.892357	0.000495	4.948989	1.676763	-0.039524
1039	5.1900e-01	-1.4855	-6.356163	0.001161	11.614973	3.935260	-0.092761
1040	5.1950e-01	-1.5256	-6.666712	0.000778	7.776982	2.634913	-0.062110
1041	5.2000e-01	-1.5689	-6.860301	0.000485	4.847989	1.642543	-0.038718
1042	5.2050e-01	-1.6090	-7.106320	0.000616	6.160986	2.087399	-0.049204
1043	5.2100e-01	-1.6540	-7.412835	0.000768	7.675982	2.600693	-0.061303
1044	5.2150e-01	-1.6925	-7.755649	0.000858	8.584980	2.908670	-0.068563
1045	5.2200e-01	-1.7358	-7.771781	0.000040	0.403999	0.136879	-0.003226
1046	5.2250e-01	-1.7566	-8.223488	0.001131	11.311974	3.832601	-0.090341
1047	5.2300e-01	-1.8128	-8.441275	0.000545	5.453988	1.847861	-0.043557
1048	5.2350e-01	-1.8481	-8.703427	0.000656	6.564985	2.224277	-0.052430
1049	5.2400e-01	-1.8946	-9.098670	0.000990	9.897977	3.353526	-0.079049
1050	5.2450e-01	-1.9235	-9.473749	0.000939	9.392979	3.182427	-0.075016
1051	5.2500e-01	-1.9684	-9.590708	0.000293	2.928993	0.992370	-0.023392
1052	5.2550e-01	-2.0005	-10.006118	0.001040	10.402976	3.524624	-0.083082
1053	5.2600e-01	-2.0518	-10.236004	0.000576	5.756987	1.950520	-0.045977
1054	5.2650e-01	-2.0855	-10.433626	0.000495	4.948989	1.676763	-0.039524
1055	5.2700e-01	-2.1352	-10.728042	0.000737	7.372983	2.498034	-0.058883
1056	5.2750e-01	-2.1737	-10.990194	0.000656	6.564985	2.224277	-0.052430
1057	5.2800e-01	-2.2010	-11.296709	0.000768	7.675982	2.600693	-0.061303
1058	5.2850e-01	-2.2475	-11.788747	0.001232	12.321972	4.174797	-0.098408
1059	5.2900e-01	-2.2876	-12.115428	0.000818	8.180981	2.771792	-0.065336
1060	5.2950e-01	-2.3390	-12.155759	0.000101	1.009998	0.342196	-0.008066
1061	5.3000e-01	-2.3695	-12.792989	0.001596	15.957964	5.406704	-0.127446
1062	5.3050e-01	-2.4063	-12.817187	0.000061	0.605999	0.205318	-0.004840
1063	5.3100e-01	-2.4529	-12.821220	0.000010	0.101000	0.034220	-0.000807
1064	5.3150e-01	-2.4882	-13.301159	0.001202	12.018973	4.072138	-0.095988
1065	5.3200e-01	-2.5219	-13.724635	0.001060	10.604976	3.593063	-0.084695
1066	5.3250e-01	-2.5652	-14.031150	0.000768	7.675982	2.600693	-0.061303
1067	5.3300e-01	-2.6085	-14.454625	0.001060	10.604976	3.593063	-0.084695
1068	5.3350e-01	-2.6486	-14.684512	0.000576	5.756987	1.950520	-0.045977
1069	5.3400e-01	-2.6903	-14.894233	0.000525	5.251988	1.779422	-0.041944
1070	5.3450e-01	-2.7352	-15.107987	0.000535	5.352988	1.813641	-0.042751
1071	5.3500e-01	-2.7737	-15.362073	0.000636	6.362985	2.155838	-0.050817
1072	5.3550e-01	-2.8074	-15.648423	0.000717	7.170984	2.429595	-0.057270
1073	5.3600e-01	-2.8507	-15.910574	0.000656	6.564985	2.224277	-0.052430
1074	5.3650e-01	-2.8908	-16.479241	0.001424	14.240968	4.824970	-0.113733
1075	5.3700e-01	-2.9213	-16.733326	0.000636	6.362985	2.155838	-0.050817
1076	5.3750e-01	-2.9726	-16.797856	0.000162	1.615996	0.547514	-0.012906
1077	5.3800e-01	-3.0095	-17.084206	0.000717	7.170984	2.429595	-0.057270
1078	5.3850e-01	-3.0464	-17.338291	0.000636	6.362985	2.155838	-0.050817
1079	5.3900e-01	-3.0801	-17.785965	0.001121	11.210974	3.798381	-0.089535
1080	5.3950e-01	-3.1347	-17.906958	0.000303	3.029993	1.026589	-0.024199
1081	5.4000e-01	-3.1684	-18.120712	0.000535	5.352988	1.813641	-0.042751
1082	5.4050e-01	-3.2053	-18.608717	0.001222	12.220972	4.140577	-0.097601
1083	5.4100e-01	-3.2406	-18.963630	0.000889	8.887980	3.011329	-0.070983
1084	5.4150e-01	-3.2791	-19.237880	0.000687	6.867984	2.326936	-0.054850
1085	5.4200e-01	-3.3272	-19.290311	0.000131	1.312997	0.444855	-0.010486
1086	5.4250e-01	-3.3721	-19.443568	0.000384	3.837991	1.300347	-0.030652
1087	5.4300e-01	-3.4058	-19.657323	0.000535	5.352988	1.813641	-0.042751
1088	5.4350e-01	-3.4379	-20.048533	0.000980	9.796978	3.319306	-0.078242
1089	5.4400e-01	-3.4860	-20.379247	0.000828	8.281981	2.806011	-0.066143
1090	5.4450e-01	-3.5309	-20.673663	0.000737	7.372983	2.498034	-0.058883
1091	5.4500e-01	-3.5630	-20.947914	0.000687	6.867984	2.326936	-0.054850
1092	5.4550e-01	-3.6111	-21.201999	0.000636	6.362985	2.155838	-0.050817
1093	5.4600e-01	-3.6432	-21.484316	0.000707	7.069984	2.395375	-0.056463
1094	5.4650e-01	-3.6897	-21.722269	0.000596	5.958986	2.018959	-0.047591
1095	5.4700e-01	-3.7202	-22.016685	0.000737	7.372983	2.498034	-0.058883
1096	5.4750e-01	-3.7667	-22.294969	0.000697	6.968984	2.361156	-0.055657
1097	5.4800e-01	-3.8197	-22.621650	0.000818	8.180981	2.771792	-0.065336
1098	5.4850e-01	-3.8453	-22.948331	0.000818	8.180981	2.771792	-0.065336
1099	5.4900e-01	-3.8951	-23.097556	0.000374	3.736991	1.266127	-0.029845
1100	5.4950e-01	-3.9272	-23.420204	0.000808	8.079982	2.737572	-0.064530
1101	5.5000e-01	-3.9673	-23.448435	0.000071	0.706998	0.239538	-0.005646
1102	5.5050e-01	-4.0122	-23.807381	0.000899	8.988979	3.045549	-0.071789
1103	5.5100e-01	-4.0443	-24.081632	0.000687	6.867984	2.326936	-0.054850
1104	5.5150e-01	-4.0908	-24.412346	0.000828	8.281981	2.806011	-0.066143
1105	5.5200e-01	-4.1277	-24.751126	0.000848	8.483981	2.874450	-0.067756
1106	5.5250e-01	-4.1694	-24.997145	0.000616	6.160986	2.087399	-0.049204
1107	5.5300e-01	-4.2047	-25.323826	0.000818	8.180981	2.771792	-0.065336
1108	5.5350e-01	-4.2480	-25.541613	0.000545	5.453988	1.847861	-0.043557
1109	5.5400e-01	-4.2865	-25.908625	0.000919	9.190979	3.113988	-0.073402
1110	5.5450e-01	-4.3234	-26.235306	0.000818	8.180981	2.771792	-0.065336
1111	5.5500e-01	-4.3667	-26.400663	0.000414	4.140991	1.403006	-0.033071
1112	5.5550e-01	-4.4148	-26.614418	0.000535	5.352988	1.813641	-0.042751
1113	5.5600e-01	-4.4566	-26.949165	0.000838	8.382981	2.840231	-0.066949
1114	5.5650e-01	-4.4806	-27.150820	0.000505	5.049988	1.710982	-0.040331
1115	5.5700e-01	-4.5255	-27.441203	0.000727	7.271983	2.463815	-0.058077
1116	5.5750e-01	-4.5608	-27.663023	0.000555	5.554987	1.882081	-0.044364
1117	5.5800e-01	-4.6106	-27.820314	0.000394	3.938991	1.334566	-0.031458
1118	5.5850e-01	-4.6410	-28.171194	0.000879	8.786980	2.977109	-0.070176
1119	5.5900e-01	-4.6860	-28.598702	0.001071	10.705976	3.627283	-0.085502
1120	5.5950e-01	-4.7373	-28.800357	0.000505	5.049988	1.710982	-0.040331
1121	5.6000e-01	-4.7614	-28.909251	0.000273	2.726994	0.923931	-0.021779
1122	5.6050e-01	-4.8095	-29.199634	0.000727	7.271983	2.463815	-0.058077
1123	5.6100e-01	-4.8480	-29.381123	0.000454	4.544990	1.539884	-0.036298
1124	5.6150e-01	-4.8881	-29.744102	0.000909	9.089979	3.079768	-0.072596
1125	5.6200e-01	-4.9154	-30.010287	0.000667	6.665985	2.258497	-0.053237
1126	5.6250e-01	-4.9683	-30.377299	0.000919	9.190979	3.113988	-0.073402
1127	5.6300e-01	-5.0100	-30.570887	0.000485	4.847989	1.642543	-0.038718
1128	5.6350e-01	-5.0469	-30.691880	0.000303	3.029993	1.026589	-0.024199
1129	5.6400e-01	-5.0870	-30.909668	0.000545	5.453988	1.847861	-0.043557
1130	5.6450e-01	-5.1351	-31.296845	0.000970	9.695978	3.285086	-0.077435
1131	5.6500e-01	-5.1640	-31.631592	0.000838	8.382981	2.840231	-0.066949
1132	5.6550e-01	-5.2041	-31.921975	0.000727	7.271983	2.463815	-0.058077
1133	5.6600e-01	-5.2490	-32.014737	0.000232	2.322995	0.787052	-0.018552
1134	5.6650e-01	-5.2908	-32.256723	0.000606	6.059986	2.053179	-0.048397
1135	5.6700e-01	-5.3341	-32.619701	0.000909	9.089979	3.079768	-0.072596
1136	5.6750e-01	-5.3597	-32.712463	0.000232	2.322995	0.787052	-0.018552
1137	5.6800e-01	-5.4047	-32.946382	0.000586	5.857987	1.984740	-0.046784
1138	5.6850e-01	-5.4416	-33.377924	0.001081	10.806975	3.661502	-0.086308
1139	5.6900e-01	-5.4865	-33.664274	0.000717	7.170984	2.429595	-0.057270
1140	5.6950e-01	-5.5218	-33.886094	0.000555	5.554987	1.882081	-0.044364
1141	5.7000e-01	-5.5651	-34.176478	0.000727	7.271983	2.463815	-0.058077
1142	5.7050e-01	-5.6100	-34.281338	0.000263	2.625994	0.889711	-0.020972
1143	5.7100e-01	-5.6581	-34.523324	0.000606	6.059986	2.053179	-0.048397
1144	5.7150e-01	-5.6870	-34.704813	0.000454	4.544990	1.539884	-0.036298
1145	5.7200e-01	-5.7287	-35.015362	0.000778	7.776982	2.634913	-0.062110
1146	5.7250e-01	-5.7624	-35.467069	0.001131	11.311974	3.832601	-0.090341
1147	5.7300e-01	-5.8073	-35.680823	0.000535	5.352988	1.813641	-0.042751
1148	5.7350e-01	-5.8538	-35.987339	0.000768	7.675982	2.600693	-0.061303
1149	5.7400e-01	-5.8972	-36.076067	0.000222	2.221995	0.752832	-0.017746
1150	5.7450e-01	-5.9244	-36.418880	0.000858	8.584980	2.908670	-0.068563
1151	5.7500e-01	-5.9613	-36.668932	0.000626	6.261986	2.121618	-0.050010
1152	5.7550e-01	-6.0079	-36.826223	0.000394	3.938991	1.334566	-0.031458
1153	5.7600e-01	-6.0544	-37.116606	0.000727	7.271983	2.463815	-0.058077
1154	5.7650e-01	-6.0977	-37.427155	0.000778	7.776982	2.634913	-0.062110
1155	5.7700e-01	-6.1298	-37.669141	0.000606	6.059986	2.053179	-0.048397
1156	5.7750e-01	-6.1603	-37.846597	0.000444	4.443990	1.505665	-0.035491
1157	5.7800e-01	-6.2068	-38.290238	0.001111	11.109975	3.764161	-0.088728
1158	5.7850e-01	-6.2485	-38.350735	0.000151	1.514997	0.513295	-0.012099
1159	5.7900e-01	-6.2934	-38.471728	0.000303	3.029993	1.026589	-0.024199
1160	5.7950e-01	-6.3351	-38.677416	0.000515	5.150988	1.745202	-0.041138
1161	5.8000e-01	-6.3656	-39.064593	0.000970	9.695978	3.285086	-0.077435
1162	5.8050e-01	-6.4153	-39.342877	0.000697	6.968984	2.361156	-0.055657
1163	5.8100e-01	-6.4506	-39.794584	0.001131	11.311974	3.832601	-0.090341
1164	5.8150e-01	-6.4907	-39.895411	0.000252	2.524994	0.855491	-0.020165
1165	5.8200e-01	-6.5196	-40.121265	0.000566	5.655987	1.916300	-0.045171
1166	5.8250e-01	-6.5629	-40.359218	0.000596	5.958986	2.018959	-0.047591
1167	5.8300e-01	-6.6062	-40.726230	0.000919	9.190979	3.113988	-0.073402
1168	5.8350e-01	-6.6399	-40.923852	0.000495	4.948989	1.676763	-0.039524
1169	5.8400e-01	-6.6880	-41.093242	0.000424	4.241990	1.437225	-0.033878
1170	5.8450e-01	-6.7249	-41.444121	0.000879	8.786980	2.977109	-0.070176
1171	5.8500e-01	-6.7634	-41.367492	-0.000192	-1.918996	-0.650173	0.015326
1172	5.8550e-01	-6.8132	-41.774835	0.001020	10.200977	3.456184	-0.081469
1173	5.8600e-01	-6.8404	-42.170079	0.000990	9.897977	3.353526	-0.079049
1174	5.8650e-01	-6.8870	-42.299138	0.000323	3.231993	1.095029	-0.025812
1175	5.8700e-01	-6.9255	-42.524992	0.000566	5.655987	1.916300	-0.045171
1176	5.8750e-01	-6.9640	-42.730680	0.000515	5.150988	1.745202	-0.041138
1177	5.8800e-01	-7.0057	-43.133990	0.001010	10.099977	3.421965	-0.080662
1178	5.8850e-01	-7.0346	-43.327578	0.000485	4.847989	1.642543	-0.038718
1179	5.8900e-01	-7.0827	-43.545366	0.000545	5.453988	1.847861	-0.043557
1180	5.8950e-01	-7.1180	-43.747021	0.000505	5.049988	1.710982	-0.040331
1181	5.9000e-01	-7.1613	-44.138231	0.000980	9.796978	3.319306	-0.078242
1182	5.9050e-01	-7.2046	-44.210827	0.000182	1.817996	0.615954	-0.014519
1183	5.9100e-01	-7.2431	-44.448780	0.000596	5.958986	2.018959	-0.047591
1184	5.9150e-01	-7.2800	-44.662534	0.000535	5.352988	1.813641	-0.042751
1185	5.9200e-01	-7.3233	-44.997281	0.000838	8.382981	2.840231	-0.066949
1186	5.9250e-01	-7.3634	-45.190870	0.000485	4.847989	1.642543	-0.038718
1187	5.9300e-01	-7.4100	-45.509485	0.000798	7.978982	2.703352	-0.063723
1188	5.9350e-01	-7.4468	-45.695007	0.000465	4.645989	1.574104	-0.037105
1189	5.9400e-01	-7.4902	-45.799868	0.000263	2.625994	0.889711	-0.020972
1190	5.9450e-01	-7.5255	-45.989423	0.000475	4.746989	1.608323	-0.037911
1191	5.9500e-01	-7.5736	-46.332237	0.000858	8.584980	2.908670	-0.068563
1192	5.9550e-01	-7.6041	-46.473395	0.000353	3.534992	1.197688	-0.028232
1193	5.9600e-01	-7.6458	-46.981566	0.001273	12.725971	4.311676	-0.101634
1194	5.9650e-01	-7.6859	-46.953334	-0.000071	-0.706998	-0.239538	0.005646
1195	5.9700e-01	-7.7244	-47.360677	0.001020	10.200977	3.456184	-0.081469
1196	5.9750e-01	-7.7613	-47.630894	0.000677	6.766985	2.292716	-0.054044
1197	5.9800e-01	-7.8126	-47.683325	0.000131	1.312997	0.444855	-0.010486
1198	5.9850e-01	-7.8559	-48.062436	0.000949	9.493978	3.216647	-0.075822
1199	5.9900e-01	-7.8768	-48.360885	0.000747	7.473983	2.532254	-0.059690
1200	5.9950e-01	-7.9137	-48.643202	0.000707	7.069984	2.395375	-0.056463
1201	6.0000e-01	-7.9730	-48.485911	-0.000394	-3.938991	-1.334566	0.031458
1202	6.0050e-01	-8.0035	-48.921486	0.001091	10.907975	3.695722	-0.087115
1203	6.0100e-01	-8.0468	-49.320763	0.001000	9.998977	3.387745	-0.079855
1204	6.0150e-01	-8.0853	-49.643411	0.000808	8.079982	2.737572	-0.064530
1205	6.0200e-01	-8.1238	-49.611146	-0.000081	-0.807998	-0.273757	0.006453
1206	6.0250e-01	-8.1704	-49.812801	0.000505	5.049988	1.710982	-0.040331
1207	6.0300e-01	-8.2089	-50.042687	0.000576	5.756987	1.950520	-0.045977
1208	6.0350e-01	-8.2474	-50.421799	0.000949	9.493978	3.216647	-0.075822
1209	6.0400e-01	-8.2843	-50.639586	0.000545	5.453988	1.847861	-0.043557
1210	6.0450e-01	-8.3212	-50.829142	0.000475	4.746989	1.608323	-0.037911
1211	6.0500e-01	-8.3581	-50.982399	0.000384	3.837991	1.300347	-0.030652
1212	6.0550e-01	-8.4078	-51.413941	0.001081	10.806975	3.661502	-0.086308
1213	6.0600e-01	-8.4527	-51.518802	0.000263	2.625994	0.889711	-0.020972
1214	6.0650e-01	-8.4880	-51.555099	0.000091	0.908998	0.307977	-0.007260
1215	6.0700e-01	-8.5233	-51.950343	0.000990	9.897977	3.353526	-0.079049
1216	6.0750e-01	-8.5650	-52.172164	0.000555	5.554987	1.882081	-0.044364
1217	6.0800e-01	-8.6019	-52.361719	0.000475	4.746989	1.608323	-0.037911
1218	6.0850e-01	-8.6436	-52.523043	0.000404	4.039991	1.368786	-0.032265
1219	6.0900e-01	-8.6837	-52.930386	0.001020	10.200977	3.456184	-0.081469
1220	6.0950e-01	-8.7238	-53.160273	0.000576	5.756987	1.950520	-0.045977
1221	6.1000e-01	-8.7735	-53.309497	0.000374	3.736991	1.266127	-0.029845
1222	6.1050e-01	-8.8024	-53.603914	0.000737	7.372983	2.498034	-0.058883
1223	6.1100e-01	-8.8425	-53.829767	0.000566	5.655987	1.916300	-0.045171
1224	6.1150e-01	-8.8874	-53.938661	0.000273	2.726994	0.923931	-0.021779
1225	6.1200e-01	-8.9292	-54.095952	0.000394	3.938991	1.334566	-0.031458
1226	6.1250e-01	-8.9709	-54.378268	0.000707	7.069984	2.395375	-0.056463
1227	6.1300e-01	-9.0062	-54.757380	0.000949	9.493978	3.216647	-0.075822
1228	6.1350e-01	-9.0463	-55.047763	0.000727	7.271983	2.463815	-0.058077
1229	6.1400e-01	-9.0912	-55.273616	0.000566	5.655987	1.916300	-0.045171
1230	6.1450e-01	-9.1281	-55.301848	0.000071	0.706998	0.239538	-0.005646
1231	6.1500e-01	-9.1714	-55.584165	0.000707	7.069984	2.395375	-0.056463
1232	6.1550e-01	-9.2067	-55.999574	0.001040	10.402976	3.524624	-0.083082
1233	6.1600e-01	-9.2564	-55.967309	-0.000081	-0.807998	-0.273757	0.006453
1234	6.1650e-01	-9.2901	-56.136699	0.000424	4.241990	1.437225	-0.033878
1235	6.1700e-01	-9.3206	-56.378685	0.000606	6.059986	2.053179	-0.048397
1236	6.1750e-01	-9.3703	-56.656969	0.000697	6.968984	2.361156	-0.055657
1237	6.1800e-01	-9.4008	-56.810227	0.000384	3.837991	1.300347	-0.030652
1238	6.1850e-01	-9.4505	-57.064312	0.000636	6.362985	2.155838	-0.050817
1239	6.1900e-01	-9.4810	-57.447456	0.000959	9.594978	3.250867	-0.076629
1240	6.1950e-01	-9.5291	-57.637012	0.000475	4.746989	1.608323	-0.037911
1241	6.2000e-01	-9.5757	-57.673310	0.000091	0.908998	0.307977	-0.007260
1242	6.2050e-01	-9.6110	-58.040322	0.000919	9.190979	3.113988	-0.073402
1243	6.2100e-01	-9.6398	-58.342804	0.000757	7.574983	2.566474	-0.060496
1244	6.2150e-01	-9.6896	-58.604956	0.000656	6.564985	2.224277	-0.052430
1245	6.2200e-01	-9.7297	-58.617055	0.000030	0.302999	0.102659	-0.002420
1246	6.2250e-01	-9.7746	-58.830809	0.000535	5.352988	1.813641	-0.042751
1247	6.2300e-01	-9.8067	-59.274450	0.001111	11.109975	3.764161	-0.088728
1248	6.2350e-01	-9.8580	-59.544668	0.000677	6.766985	2.292716	-0.054044
1249	6.2400e-01	-9.8901	-59.492237	-0.000131	-1.312997	-0.444855	0.010486
1250	6.2450e-01	-9.9414	-59.855216	0.000909	9.089979	3.079768	-0.072596
1251	6.2500e-01	-9.9703	-60.121401	0.000667	6.665985	2.258497	-0.053237
1252	6.2550e-01	-10.0072	-60.286758	0.000414	4.140991	1.403006	-0.033071
1253	6.2600e-01	-10.0329	-60.536810	0.000626	6.261986	2.121618	-0.050010
1254	6.2650e-01	-10.0906	-60.593273	0.000141	1.413997	0.479075	-0.011293
1255	6.2700e-01	-10.1291	-60.790895	0.000495	4.948989	1.676763	-0.039524
1256	6.2750e-01	-10.1692	-61.089345	0.000747	7.473983	2.532254	-0.059690
1257	6.2800e-01	-10.2061	-61.363595	0.000687	6.867984	2.326936	-0.054850
1258	6.2850e-01	-10.2414	-61.472489	0.000273	2.726994	0.923931	-0.021779
1259	6.2900e-01	-10.2879	-61.871766	0.001000	9.998977	3.387745	-0.079855
1260	6.2950e-01	-10.3264	-62.053255	0.000454	4.544990	1.539884	-0.036298
1261	6.3000e-01	-10.3682	-62.190380	0.000343	3.433992	1.163468	-0.027425
1262	6.3050e-01	-10.4018	-62.508995	0.000798	7.978982	2.703352	-0.063723
1263	6.3100e-01	-10.4516	-62.565459	0.000141	1.413997	0.479075	-0.011293
1264	6.3150e-01	-10.4885	-62.718716	0.000384	3.837991	1.300347	-0.030652
1265	6.3200e-01	-10.5270	-63.198655	0.001202	12.018973	4.072138	-0.095988
1266	6.3250e-01	-10.5639	-63.259152	0.000151	1.514997	0.513295	-0.012099
1267	6.3300e-01	-10.6056	-63.412409	0.000384	3.837991	1.300347	-0.030652
1268	6.3350e-01	-10.6441	-63.646329	0.000586	5.857987	1.984740	-0.046784
1269	6.3400e-01	-10.6874	-63.872183	0.000566	5.655987	1.916300	-0.045171
1270	6.3450e-01	-10.7307	-64.114168	0.000606	6.059986	2.053179	-0.048397
1271	6.3500e-01	-10.7612	-64.436816	0.000808	8.079982	2.737572	-0.064530
1272	6.3550e-01	-10.8141	-64.735266	0.000747	7.473983	2.532254	-0.059690
1273	6.3600e-01	-10.8510	-64.880457	0.000364	3.635992	1.231907	-0.029038
1274	6.3650e-01	-10.8911	-64.940954	0.000151	1.514997	0.513295	-0.012099
1275	6.3700e-01	-10.9296	-65.275701	0.000838	8.382981	2.840231	-0.066949
1276	6.3750e-01	-10.9633	-65.416859	0.000353	3.534992	1.197688	-0.028232
1277	6.3800e-01	-11.0098	-65.751607	0.000838	8.382981	2.840231	-0.066949
1278	6.3850e-01	-11.0516	-65.969394	0.000545	5.453988	1.847861	-0.043557
1279	6.3900e-01	-11.0869	-66.070221	0.000252	2.524994	0.855491	-0.020165
1280	6.3950e-01	-11.1334	-66.239611	0.000424	4.241990	1.437225	-0.033878
1281	6.4000e-01	-11.1671	-66.409002	0.000424	4.241990	1.437225	-0.033878
1282	6.4050e-01	-11.2040	-66.723583	0.000788	7.877982	2.669133	-0.062916
1283	6.4100e-01	-11.2425	-66.808278	0.000212	2.120995	0.718613	-0.016939
1284	6.4150e-01	-11.2922	-67.183357	0.000939	9.392979	3.182427	-0.075016
1285	6.4200e-01	-11.3323	-67.312416	0.000323	3.231993	1.095029	-0.025812
1286	6.4250e-01	-11.3628	-67.683461	0.000929	9.291979	3.148208	-0.074209
1287	6.4300e-01	-11.4141	-67.864950	0.000454	4.544990	1.539884	-0.036298
1288	6.4350e-01	-11.4526	-67.921414	0.000141	1.413997	0.479075	-0.011293
1289	6.4400e-01	-11.4863	-68.139201	0.000545	5.453988	1.847861	-0.043557
1290	6.4450e-01	-11.5296	-68.393286	0.000636	6.362985	2.155838	-0.050817
1291	6.4500e-01	-11.5585	-68.546544	0.000384	3.837991	1.300347	-0.030652
1292	6.4550e-01	-11.6098	-68.885324	0.000848	8.483981	2.874450	-0.067756
1293	6.4600e-01	-11.6467	-69.026483	0.000353	3.534992	1.197688	-0.028232
1294	6.4650e-01	-11.6836	-69.195873	0.000424	4.241990	1.437225	-0.033878
1295	6.4700e-01	-11.7318	-69.324932	0.000323	3.231993	1.095029	-0.025812
1296	6.4750e-01	-11.7622	-69.381395	0.000141	1.413997	0.479075	-0.011293
1297	6.4800e-01	-11.8039	-69.708076	0.000818	8.180981	2.771792	-0.065336
1298	6.4850e-01	-11.8424	-70.083154	0.000939	9.392979	3.182427	-0.075016
1299	6.4900e-01	-11.8970	-70.321107	0.000596	5.958986	2.018959	-0.047591
1300	6.4950e-01	-11.9243	-70.575192	0.000636	6.362985	2.155838	-0.050817
1301	6.5000e-01	-11.9596	-70.720384	0.000364	3.635992	1.231907	-0.029038
1302	6.5050e-01	-12.0093	-70.708285	-0.000030	-0.302999	-0.102659	0.002420
1303	6.5100e-01	-12.0494	-71.010767	0.000757	7.574983	2.566474	-0.060496
1304	6.5150e-01	-12.0895	-71.256786	0.000616	6.160986	2.087399	-0.049204
1305	6.5200e-01	-12.1232	-71.446342	0.000475	4.746989	1.608323	-0.037911
1306	6.5250e-01	-12.1697	-71.510871	0.000162	1.615996	0.547514	-0.012906
1307	6.5300e-01	-12.2066	-71.748824	0.000596	5.958986	2.018959	-0.047591
1308	6.5350e-01	-12.2531	-72.015009	0.000667	6.665985	2.258497	-0.053237
1309	6.5400e-01	-12.2804	-72.196498	0.000454	4.544990	1.539884	-0.036298
1310	6.5450e-01	-12.3301	-72.579642	0.000959	9.594978	3.250867	-0.076629
1311	6.5500e-01	-12.3767	-72.615940	0.000091	0.908998	0.307977	-0.007260
1312	6.5550e-01	-12.4071	-72.894224	0.000697	6.968984	2.361156	-0.055657
1313	6.5600e-01	-12.4456	-73.035383	0.000353	3.534992	1.197688	-0.028232
1314	6.5650e-01	-12.4906	-73.333832	0.000747	7.473983	2.532254	-0.059690
1315	6.5700e-01	-12.5323	-73.442726	0.000273	2.726994	0.923931	-0.021779
1316	6.5750e-01	-12.5611	-73.793605	0.000879	8.786980	2.977109	-0.070176
1317	6.5800e-01	-12.6077	-73.930730	0.000343	3.433992	1.163468	-0.027425
1318	6.5850e-01	-12.6494	-74.144485	0.000535	5.352988	1.813641	-0.042751
1319	6.5900e-01	-12.6863	-74.479232	0.000838	8.382981	2.840231	-0.066949
1320	6.5950e-01	-12.7248	-74.604258	0.000313	3.130993	1.060809	-0.025005
1321	6.6000e-01	-12.7761	-74.555861	-0.000121	-1.211997	-0.410636	0.009679
1322	6.6050e-01	-12.8146	-74.858343	0.000757	7.574983	2.566474	-0.060496
1323	6.6100e-01	-12.8499	-75.116461	0.000646	6.463985	2.190057	-0.051624
1324	6.6150e-01	-12.8916	-75.479440	0.000909	9.089979	3.079768	-0.072596
1325	6.6200e-01	-12.9301	-75.789989	0.000778	7.776982	2.634913	-0.062110
1326	6.6250e-01	-12.9702	-75.761757	-0.000071	-0.706998	-0.239538	0.005646
1327	6.6300e-01	-13.0055	-76.048107	0.000717	7.170984	2.429595	-0.057270
1328	6.6350e-01	-13.0392	-76.177166	0.000323	3.231993	1.095029	-0.025812
1329	6.6400e-01	-13.0873	-76.415119	0.000596	5.958986	2.018959	-0.047591
1330	6.6450e-01	-13.1194	-76.423185	0.000020	0.202000	0.068439	-0.001613
1331	6.6500e-01	-13.1627	-76.596609	0.000434	4.342990	1.471445	-0.034685
1332	6.6550e-01	-13.2060	-77.060415	0.001161	11.614973	3.935260	-0.092761
1333	6.6600e-01	-13.2462	-77.342732	0.000707	7.069984	2.395375	-0.056463
1334	6.6650e-01	-13.2863	-77.431460	0.000222	2.221995	0.752832	-0.017746
1335	6.6700e-01	-13.3296	-77.439526	0.000020	0.202000	0.068439	-0.001613
1336	6.6750e-01	-13.3777	-77.746042	0.000768	7.675982	2.600693	-0.061303
1337	6.6800e-01	-13.4018	-78.032392	0.000717	7.170984	2.429595	-0.057270
1338	6.6850e-01	-13.4499	-78.109021	0.000192	1.918996	0.650173	-0.015326
1339	6.6900e-01	-13.4900	-78.258245	0.000374	3.736991	1.266127	-0.029845
1340	6.6950e-01	-13.5205	-78.476033	0.000545	5.453988	1.847861	-0.043557
1341	6.7000e-01	-13.5606	-78.584926	0.000273	2.726994	0.923931	-0.021779
1342	6.7050e-01	-13.6055	-78.947905	0.000909	9.089979	3.079768	-0.072596
1343	6.7100e-01	-13.6504	-79.093097	0.000364	3.635992	1.231907	-0.029038
1344	6.7150e-01	-13.6889	-79.375414	0.000707	7.069984	2.395375	-0.056463
1345	6.7200e-01	-13.7242	-79.564969	0.000475	4.746989	1.608323	-0.037911
1346	6.7250e-01	-13.7627	-79.742426	0.000444	4.443990	1.505665	-0.035491
1347	6.7300e-01	-13.8076	-80.008610	0.000667	6.665985	2.258497	-0.053237
1348	6.7350e-01	-13.8445	-80.085239	0.000192	1.918996	0.650173	-0.015326
1349	6.7400e-01	-13.8878	-80.226397	0.000353	3.534992	1.197688	-0.028232
1350	6.7450e-01	-13.9279	-80.383688	0.000394	3.938991	1.334566	-0.031458
1351	6.7500e-01	-13.9697	-80.565178	0.000454	4.544990	1.539884	-0.036298
1352	6.7550e-01	-14.0146	-81.037050	0.001182	11.816973	4.003699	-0.094375
1353	6.7600e-01	-14.0515	-81.089480	0.000131	1.312997	0.444855	-0.010486
1354	6.7650e-01	-14.0868	-81.428261	0.000848	8.483981	2.874450	-0.067756
1355	6.7700e-01	-14.1317	-81.504890	0.000192	1.918996	0.650173	-0.015326
1356	6.7750e-01	-14.1766	-81.803339	0.000747	7.473983	2.532254	-0.059690
1357	6.7800e-01	-14.2007	-81.799306	-0.000010	-0.101000	-0.034220	0.000807
1358	6.7850e-01	-14.2520	-82.057424	0.000646	6.463985	2.190057	-0.051624
1359	6.7900e-01	-14.2809	-82.396204	0.000848	8.483981	2.874450	-0.067756
1360	6.7950e-01	-14.3290	-82.553495	0.000394	3.938991	1.334566	-0.031458
1361	6.8000e-01	-14.3691	-82.734985	0.000454	4.544990	1.539884	-0.036298
1362	6.8050e-01	-14.4172	-82.976971	0.000606	6.059986	2.053179	-0.048397
1363	6.8100e-01	-14.4429	-83.283486	0.000768	7.675982	2.600693	-0.061303
1364	6.8150e-01	-14.4942	-83.392380	0.000273	2.726994	0.923931	-0.021779
1365	6.8200e-01	-14.5327	-83.549671	0.000394	3.938991	1.334566	-0.031458
1366	6.8250e-01	-14.5648	-83.880385	0.000828	8.281981	2.806011	-0.066143
1367	6.8300e-01	-14.6065	-83.993311	0.000283	2.827994	0.958150	-0.022585
1368	6.8350e-01	-14.6466	-84.130437	0.000343	3.433992	1.163468	-0.027425
1369	6.8400e-01	-14.6964	-84.445019	0.000788	7.877982	2.669133	-0.062916
1370	6.8450e-01	-14.7365	-84.497449	0.000131	1.312997	0.444855	-0.010486
1371	6.8500e-01	-14.7782	-84.602309	0.000263	2.625994	0.889711	-0.020972
1372	6.8550e-01	-14.8039	-84.993520	0.000980	9.796978	3.319306	-0.078242
1373	6.8600e-01	-14.8472	-85.110480	0.000293	2.928993	0.992370	-0.023392
1374	6.8650e-01	-14.8953	-85.271804	0.000404	4.039991	1.368786	-0.032265
1375	6.8700e-01	-14.9210	-85.642849	0.000929	9.291979	3.148208	-0.074209
1376	6.8750e-01	-14.9707	-85.884835	0.000606	6.059986	2.053179	-0.048397
1377	6.8800e-01	-15.0076	-85.973563	0.000222	2.221995	0.752832	-0.017746
1378	6.8850e-01	-15.0477	-86.227648	0.000636	6.362985	2.155838	-0.050817
1379	6.8900e-01	-15.0958	-86.344608	0.000293	2.928993	0.992370	-0.023392
1380	6.8950e-01	-15.1231	-86.602726	0.000646	6.463985	2.190057	-0.051624
1381	6.9000e-01	-15.1648	-86.800348	0.000495	4.948989	1.676763	-0.039524
1382	6.9050e-01	-15.2033	-86.885043	0.000212	2.120995	0.718613	-0.016939
1383	6.9100e-01	-15.2498	-87.235923	0.000879	8.786980	2.977109	-0.070176
1384	6.9150e-01	-15.2883	-87.550504	0.000788	7.877982	2.669133	-0.062916
1385	6.9200e-01	-15.3268	-87.703762	0.000384	3.837991	1.300347	-0.030652
1386	6.9250e-01	-15.3686	-87.937682	0.000586	5.857987	1.984740	-0.046784
1387	6.9300e-01	-15.4103	-88.054642	0.000293	2.928993	0.992370	-0.023392
1388	6.9350e-01	-15.4456	-88.320826	0.000667	6.665985	2.258497	-0.053237
1389	6.9400e-01	-15.4985	-88.421654	0.000252	2.524994	0.855491	-0.020165
1390	6.9450e-01	-15.5386	-88.526514	0.000263	2.625994	0.889711	-0.020972
1391	6.9500e-01	-15.5691	-88.546680	0.000050	0.504999	0.171098	-0.004033
1392	6.9550e-01	-15.6076	-88.962089	0.001040	10.402976	3.524624	-0.083082
1393	6.9600e-01	-15.6525	-89.119380	0.000394	3.938991	1.334566	-0.031458
1394	6.9650e-01	-15.6894	-89.510590	0.000980	9.796978	3.319306	-0.078242
1395	6.9700e-01	-15.7199	-89.643683	0.000333	3.332992	1.129248	-0.026618
1396	6.9750e-01	-15.7680	-89.873569	0.000576	5.756987	1.950520	-0.045977
1397	6.9800e-01	-15.8049	-90.067158	0.000485	4.847989	1.642543	-0.038718
1398	6.9850e-01	-15.8530	-90.301078	0.000586	5.857987	1.984740	-0.046784
1399	6.9900e-01	-15.8867	-90.381740	0.000202	2.019995	0.684393	-0.016132
1400	6.9950e-01	-15.9316	-90.526931	0.000364	3.635992	1.231907	-0.029038
1401	7.0000e-01	-15.9637	-90.821347	0.000737	7.372983	2.498034	-0.058883
1402	7.0050e-01	-15.9974	-91.027035	0.000515	5.150988	1.745202	-0.041138
1403	7.0100e-01	-16.0423	-91.103664	0.000192	1.918996	0.650173	-0.015326
1404	7.0150e-01	-16.0872	-91.470676	0.000919	9.190979	3.113988	-0.073402
1405	7.0200e-01	-16.1354	-91.748960	0.000697	6.968984	2.361156	-0.055657
1406	7.0250e-01	-16.1659	-91.744927	-0.000010	-0.101000	-0.034220	0.000807
1407	7.0300e-01	-16.2108	-91.958681	0.000535	5.352988	1.813641	-0.042751
1408	7.0350e-01	-16.2413	-92.192601	0.000586	5.857987	1.984740	-0.046784
1409	7.0400e-01	-16.2830	-92.531381	0.000848	8.483981	2.874450	-0.067756
1410	7.0450e-01	-16.3247	-92.603977	0.000182	1.817996	0.615954	-0.014519
1411	7.0500e-01	-16.3696	-92.882261	0.000697	6.968984	2.361156	-0.055657
1412	7.0550e-01	-16.3985	-93.055684	0.000434	4.342990	1.471445	-0.034685
1413	7.0600e-01	-16.4514	-93.293637	0.000596	5.958986	2.018959	-0.047591
1414	7.0650e-01	-16.4915	-93.430762	0.000343	3.433992	1.163468	-0.027425
1415	7.0700e-01	-16.5316	-93.729212	0.000747	7.473983	2.532254	-0.059690
1416	7.0750e-01	-16.5685	-94.080091	0.000879	8.786980	2.977109	-0.070176
1417	7.0800e-01	-16.6150	-94.197051	0.000293	2.928993	0.992370	-0.023392
1418	7.0850e-01	-16.6487	-94.322077	0.000313	3.130993	1.060809	-0.025005
1419	7.0900e-01	-16.6904	-94.660857	0.000848	8.483981	2.874450	-0.067756
1420	7.0950e-01	-16.7161	-94.862512	0.000505	5.049988	1.710982	-0.040331
1421	7.1000e-01	-16.7755	-95.007704	0.000364	3.635992	1.231907	-0.029038
1422	7.1050e-01	-16.8059	-95.298087	0.000727	7.271983	2.463815	-0.058077
1423	7.1100e-01	-16.8493	-95.423113	0.000313	3.130993	1.060809	-0.025005
1424	7.1150e-01	-16.8910	-95.576371	0.000384	3.837991	1.300347	-0.030652
1425	7.1200e-01	-16.9295	-95.955482	0.000949	9.493978	3.216647	-0.075822
1426	7.1250e-01	-16.9680	-96.225700	0.000677	6.766985	2.292716	-0.054044
1427	7.1300e-01	-17.0113	-96.334593	0.000273	2.726994	0.923931	-0.021779
1428	7.1350e-01	-17.0402	-96.612877	0.000697	6.968984	2.361156	-0.055657
1429	7.1400e-01	-17.0899	-96.733870	0.000303	3.029993	1.026589	-0.024199
1430	7.1450e-01	-17.1252	-97.096849	0.000909	9.089979	3.079768	-0.072596
1431	7.1500e-01	-17.1717	-97.076683	-0.000050	-0.504999	-0.171098	0.004033
1432	7.1550e-01	-17.2086	-97.302537	0.000566	5.655987	1.916300	-0.045171
1433	7.1600e-01	-17.2535	-97.625185	0.000808	8.079982	2.737572	-0.064530
1434	7.1650e-01	-17.2936	-97.834906	0.000525	5.251988	1.779422	-0.041944
1435	7.1700e-01	-17.3305	-97.992197	0.000394	3.938991	1.334566	-0.031458
1436	7.1750e-01	-17.3658	-98.177719	0.000465	4.645989	1.574104	-0.037105
1437	7.1800e-01	-17.4059	-98.347109	0.000424	4.241990	1.437225	-0.033878
1438	7.1850e-01	-17.4573	-98.637493	0.000727	7.271983	2.463815	-0.058077
1439	7.1900e-01	-17.4877	-98.843181	0.000515	5.150988	1.745202	-0.041138
1440	7.1950e-01	-17.5262	-99.097266	0.000636	6.362985	2.155838	-0.050817
1441	7.2000e-01	-17.5712	-99.206159	0.000273	2.726994	0.923931	-0.021779
1442	7.2050e-01	-17.6097	-99.423947	0.000545	5.453988	1.847861	-0.043557
1443	7.2100e-01	-17.6466	-99.706264	0.000707	7.069984	2.395375	-0.056463
1444	7.2150e-01	-17.6835	-99.895819	0.000475	4.746989	1.608323	-0.037911
1445	7.2200e-01	-17.7284	-100.129739	0.000586	5.857987	1.984740	-0.046784
1446	7.2250e-01	-17.7685	-100.291063	0.000404	4.039991	1.368786	-0.032265
1447	7.2300e-01	-17.8166	-100.617744	0.000818	8.180981	2.771792	-0.065336
1448	7.2350e-01	-17.8439	-100.718571	0.000252	2.524994	0.855491	-0.020165
1449	7.2400e-01	-17.8920	-101.012988	0.000737	7.372983	2.498034	-0.058883
1450	7.2450e-01	-17.9289	-101.206576	0.000485	4.847989	1.642543	-0.038718
1451	7.2500e-01	-17.9594	-101.509059	0.000757	7.574983	2.566474	-0.060496
1452	7.2550e-01	-18.0043	-101.783309	0.000687	6.867984	2.326936	-0.054850
1453	7.2600e-01	-18.0524	-101.924468	0.000353	3.534992	1.197688	-0.028232
1454	7.2650e-01	-18.0877	-102.126123	0.000505	5.049988	1.710982	-0.040331
1455	7.2700e-01	-18.1310	-102.267281	0.000353	3.534992	1.197688	-0.028232
1456	7.2750e-01	-18.1744	-102.585896	0.000798	7.978982	2.703352	-0.063723
1457	7.2800e-01	-18.2129	-102.622194	0.000091	0.908998	0.307977	-0.007260
1458	7.2850e-01	-18.2514	-102.965007	0.000858	8.584980	2.908670	-0.068563
1459	7.2900e-01	-18.2834	-103.336052	0.000929	9.291979	3.148208	-0.074209
1460	7.2950e-01	-18.3332	-103.380416	0.000111	1.110997	0.376416	-0.008873
1461	7.3000e-01	-18.3733	-103.275556	-0.000263	-2.625994	-0.889711	0.020972
1462	7.3050e-01	-18.3989	-103.936984	0.001656	16.563962	5.612022	-0.132286
1463	7.3100e-01	-18.4503	-104.041845	0.000263	2.625994	0.889711	-0.020972
1464	7.3150e-01	-18.4936	-104.251566	0.000525	5.251988	1.779422	-0.041944
1465	7.3200e-01	-18.5273	-104.558081	0.000768	7.675982	2.600693	-0.061303
1466	7.3250e-01	-18.5674	-104.646809	0.000222	2.221995	0.752832	-0.017746
1467	7.3300e-01	-18.6027	-105.050119	0.001010	10.099977	3.421965	-0.080662
1468	7.3350e-01	-18.6460	-105.130781	0.000202	2.019995	0.684393	-0.016132
1469	7.3400e-01	-18.6877	-105.352602	0.000555	5.554987	1.882081	-0.044364
1470	7.3450e-01	-18.7294	-105.655084	0.000757	7.574983	2.566474	-0.060496
1471	7.3500e-01	-18.7727	-105.824474	0.000424	4.241990	1.437225	-0.033878
1472	7.3550e-01	-18.8016	-106.005964	0.000454	4.544990	1.539884	-0.036298
1473	7.3600e-01	-18.8513	-106.340711	0.000838	8.382981	2.840231	-0.066949
1474	7.3650e-01	-18.8914	-106.602862	0.000656	6.564985	2.224277	-0.052430
1475	7.3700e-01	-18.9332	-106.723855	0.000303	3.029993	1.026589	-0.024199
1476	7.3750e-01	-18.9668	-106.836782	0.000283	2.827994	0.958150	-0.022585
1477	7.3800e-01	-19.0118	-107.123132	0.000717	7.170984	2.429595	-0.057270
1478	7.3850e-01	-19.0551	-107.276390	0.000384	3.837991	1.300347	-0.030652
1479	7.3900e-01	-19.0856	-107.651468	0.000939	9.392979	3.182427	-0.075016
1480	7.3950e-01	-19.1273	-108.014447	0.000909	9.089979	3.079768	-0.072596
1481	7.4000e-01	-19.1722	-107.970083	-0.000111	-1.110997	-0.376416	0.008873
1482	7.4050e-01	-19.2075	-108.260466	0.000727	7.271983	2.463815	-0.058077
1483	7.4100e-01	-19.2476	-108.623445	0.000909	9.089979	3.079768	-0.072596
1484	7.4150e-01	-19.2877	-108.792835	0.000424	4.241990	1.437225	-0.033878
1485	7.4200e-01	-19.3278	-109.200178	0.001020	10.200977	3.456184	-0.081469
1486	7.4250e-01	-19.3711	-109.284873	0.000212	2.120995	0.718613	-0.016939
1487	7.4300e-01	-19.4112	-109.518793	0.000586	5.857987	1.984740	-0.046784
1488	7.4350e-01	-19.4449	-109.611554	0.000232	2.322995	0.787052	-0.018552
1489	7.4400e-01	-19.4834	-109.760778	0.000374	3.736991	1.266127	-0.029845
1490	7.4450e-01	-19.5283	-110.180221	0.001050	10.503976	3.558843	-0.083888
1491	7.4500e-01	-19.5781	-110.369776	0.000475	4.746989	1.608323	-0.037911
1492	7.4550e-01	-19.6117	-110.543200	0.000434	4.342990	1.471445	-0.034685
1493	7.4600e-01	-19.6535	-110.926344	0.000959	9.594978	3.250867	-0.076629
1494	7.4650e-01	-19.6920	-110.958609	0.000081	0.807998	0.273757	-0.006453
1495	7.4700e-01	-19.7273	-111.277224	0.000798	7.978982	2.703352	-0.063723
1496	7.4750e-01	-19.7722	-111.462746	0.000465	4.645989	1.574104	-0.037105
1497	7.4800e-01	-19.8123	-111.736997	0.000687	6.867984	2.326936	-0.054850
1498	7.4850e-01	-19.8524	-112.132240	0.000990	9.897977	3.353526	-0.079049
1499	7.4900e-01	-19.8861	-112.188704	0.000141	1.413997	0.479075	-0.011293
1500	7.4950e-01	-19.9326	-112.398425	0.000525	5.251988	1.779422	-0.041944
1501	7.5000e-01	-19.9583	-112.592014	0.000485	4.847989	1.642543	-0.038718
1502	7.5050e-01	-19.9775	-112.725106	0.000333	3.332992	1.129248	-0.026618
1503	7.5100e-01	-19.9422	-112.684775	0.000101	1.009998	0.342196	0.008066
1504	7.5150e-01	-19.9117	-112.700907	-0.000040	-0.403999	-0.136879	-0.003226
1505	7.5200e-01	-19.8700	-112.854165	-0.000384	-3.837991	-1.300347	-0.030652
1506	7.5250e-01	-19.8251	-112.596047	0.000646	6.463985	2.190057	0.051624
1507	7.5300e-01	-19.7946	-112.402458	0.000485	4.847989	1.642543	0.038718
1508	7.5350e-01	-19.7545	-112.345995	0.000141	1.413997	0.479075	0.011293
1509	7.5400e-01	-19.7096	-112.402458	-0.000141	-1.413997	-0.479075	-0.011293
1510	7.5450e-01	-19.6695	-112.237101	0.000414	4.140991	1.403006	0.033071
1511	7.5500e-01	-19.6310	-112.176605	0.000151	1.514997	0.513295	0.012099
1512	7.5550e-01	-19.5829	-112.091909	0.000212	2.120995	0.718613	0.016939
1513	7.5600e-01	-19.5508	-112.011247	0.000202	2.019995	0.684393	0.016132
1514	7.5650e-01	-19.5123	-111.902354	0.000273	2.726994	0.923931	0.021779
1515	7.5700e-01	-19.4706	-111.797493	0.000263	2.625994	0.889711	0.020972
1516	7.5750e-01	-19.4385	-111.628103	0.000424	4.241990	1.437225	0.033878
1517	7.5800e-01	-19.3855	-111.595838	0.000081	0.807998	0.273757	0.006453
1518	7.5850e-01	-19.3503	-111.273190	0.000808	8.079982	2.737572	0.064530
1519	7.5900e-01	-19.3166	-111.208661	0.000162	1.615996	0.547514	0.012906
1520	7.5950e-01	-19.2684	-111.333687	-0.000313	-3.130993	-1.060809	-0.025005
1521	7.6000e-01	-19.2364	-111.059436	0.000687	6.867984	2.326936	0.054850
1522	7.6050e-01	-19.1946	-111.019105	0.000101	1.009998	0.342196	0.008066
1523	7.6100e-01	-19.1529	-110.821483	0.000495	4.948989	1.676763	0.039524
1524	7.6150e-01	-19.1176	-110.821483	0.000000	0.000000	0.000000	0.000000
1525	7.6200e-01	-19.0711	-110.543200	0.000697	6.968984	2.361156	0.055657
1526	7.6250e-01	-19.0358	-110.486736	0.000141	1.413997	0.479075	0.011293
1527	7.6300e-01	-18.9941	-110.365743	0.000303	3.029993	1.026589	0.024199
1528	7.6350e-01	-18.9476	-110.244750	0.000303	3.029993	1.026589	0.024199
1529	7.6400e-01	-18.9155	-110.059228	0.000465	4.645989	1.574104	0.037105
1530	7.6450e-01	-18.8770	-109.885805	0.000434	4.342990	1.471445	0.034685
1531	7.6500e-01	-18.8305	-109.926136	-0.000101	-1.009998	-0.342196	-0.008066
1532	7.6550e-01	-18.7952	-109.853540	0.000182	1.817996	0.615954	0.014519
1533	7.6600e-01	-18.7567	-109.450230	0.001010	10.099977	3.421965	0.080662
1534	7.6650e-01	-18.7150	-109.482495	-0.000081	-0.807998	-0.273757	-0.006453
1535	7.6700e-01	-18.6717	-109.389733	0.000232	2.322995	0.787052	0.018552
1536	7.6750e-01	-18.6364	-109.119516	0.000677	6.766985	2.292716	0.054044
1537	7.6800e-01	-18.5931	-108.982390	0.000343	3.433992	1.163468	0.027425
1538	7.6850e-01	-18.5497	-108.873497	0.000273	2.726994	0.923931	0.021779
1539	7.6900e-01	-18.5128	-108.595213	0.000697	6.968984	2.361156	0.055657
1540	7.6950e-01	-18.4647	-108.829133	-0.000586	-5.857987	-1.984740	-0.046784
1541	7.7000e-01	-18.4294	-108.498419	0.000828	8.281981	2.806011	0.066143
1542	7.7050e-01	-18.3893	-108.393558	0.000263	2.625994	0.889711	0.020972
1543	7.7100e-01	-18.3476	-108.066877	0.000818	8.180981	2.771792	0.065336
1544	7.7150e-01	-18.3091	-107.998314	0.000172	1.716996	0.581734	0.013713
1545	7.7200e-01	-18.2770	-107.820858	0.000444	4.443990	1.505665	0.035491
1546	7.7250e-01	-18.2433	-107.784560	0.000091	0.908998	0.307977	0.007260
1547	7.7300e-01	-18.1968	-107.534508	0.000626	6.261986	2.121618	0.050010
1548	7.7350e-01	-18.1535	-107.397383	0.000343	3.433992	1.163468	0.027425
1549	7.7400e-01	-18.1118	-107.449813	-0.000131	-1.312997	-0.444855	-0.010486
1550	7.7450e-01	-18.0781	-107.090867	0.000899	8.988979	3.045549	0.071789
1551	7.7500e-01	-18.0300	-107.030371	0.000151	1.514997	0.513295	0.012099
1552	7.7550e-01	-17.9883	-106.990040	0.000101	1.009998	0.342196	0.008066
1553	7.7600e-01	-17.9530	-106.812583	0.000444	4.443990	1.505665	0.035491
1554	7.7650e-01	-17.9225	-106.707723	0.000263	2.625994	0.889711	0.020972
1555	7.7700e-01	-17.8776	-106.473803	0.000586	5.857987	1.984740	0.046784
1556	7.7750e-01	-17.8294	-106.344744	0.000323	3.231993	1.095029	0.025812
1557	7.7800e-01	-17.7974	-106.151155	0.000485	4.847989	1.642543	0.038718
1558	7.7850e-01	-17.7524	-105.941434	0.000525	5.251988	1.779422	0.041944
1559	7.7900e-01	-17.7059	-105.921269	0.000050	0.504999	0.171098	0.004033
1560	7.7950e-01	-17.6706	-105.703481	0.000545	5.453988	1.847861	0.043557
1561	7.8000e-01	-17.6369	-105.546190	0.000394	3.938991	1.334566	0.031458
1562	7.8050e-01	-17.5952	-105.433264	0.000283	2.827994	0.958150	0.022585
1563	7.8100e-01	-17.5519	-105.195311	0.000596	5.958986	2.018959	0.047591
1564	7.8150e-01	-17.5150	-105.146914	0.000121	1.211997	0.410636	0.009679
1565	7.8200e-01	-17.4765	-105.054152	0.000232	2.322995	0.787052	0.018552
1566	7.8250e-01	-17.4364	-105.090450	-0.000091	-0.908998	-0.307977	-0.007260
1567	7.8300e-01	-17.3947	-104.848464	0.000606	6.059986	2.053179	0.048397
1568	7.8350e-01	-17.3562	-104.465320	0.000959	9.594978	3.250867	0.076629
1569	7.8400e-01	-17.3193	-104.376592	0.000222	2.221995	0.752832	0.017746
1570	7.8450e-01	-17.2760	-104.287864	0.000222	2.221995	0.752832	0.017746
1571	7.8500e-01	-17.2279	-104.017646	0.000677	6.766985	2.292716	0.054044
1572	7.8550e-01	-17.2038	-103.920852	0.000242	2.423994	0.821272	0.019359
1573	7.8600e-01	-17.1525	-103.815991	0.000263	2.625994	0.889711	0.020972
1574	7.8650e-01	-17.1075	-103.699031	0.000293	2.928993	0.992370	0.023392
1575	7.8700e-01	-17.0755	-103.638535	0.000151	1.514997	0.513295	0.012099
1576	7.8750e-01	-17.0257	-103.400582	0.000596	5.958986	2.018959	0.047591
1577	7.8800e-01	-16.9888	-103.247324	0.000384	3.837991	1.300347	0.030652
1578	7.8850e-01	-16.9599	-102.948875	0.000747	7.473983	2.532254	0.059690
1579	7.8900e-01	-16.9150	-102.795617	0.000384	3.837991	1.300347	0.030652
1580	7.8950e-01	-16.8797	-102.682690	0.000283	2.827994	0.958150	0.022585
1581	7.9000e-01	-16.8332	-102.521366	0.000404	4.039991	1.368786	0.032265
1582	7.9050e-01	-16.7995	-102.513300	0.000020	0.202000	0.068439	0.001613
1583	7.9100e-01	-16.7450	-102.347943	0.000414	4.140991	1.403006	0.033071
1584	7.9150e-01	-16.7113	-102.142255	0.000515	5.150988	1.745202	0.041138
1585	7.9200e-01	-16.6696	-102.134189	0.000020	0.202000	0.068439	0.001613
1586	7.9250e-01	-16.6311	-101.936567	0.000495	4.948989	1.676763	0.039524
1587	7.9300e-01	-16.5878	-101.674416	0.000656	6.564985	2.224277	0.052430
1588	7.9350e-01	-16.5477	-101.492926	0.000454	4.544990	1.539884	0.036298
1589	7.9400e-01	-16.5043	-101.452595	0.000101	1.009998	0.342196	0.008066
1590	7.9450e-01	-16.4642	-101.246907	0.000515	5.150988	1.745202	0.041138
1591	7.9500e-01	-16.4306	-101.073484	0.000434	4.342990	1.471445	0.034685
1592	7.9550e-01	-16.3872	-100.900061	0.000434	4.342990	1.471445	0.034685
1593	7.9600e-01	-16.3535	-100.803266	0.000242	2.423994	0.821272	0.019359
1594	7.9650e-01	-16.3215	-100.650009	0.000384	3.837991	1.300347	0.030652
1595	7.9700e-01	-16.2669	-100.428188	0.000555	5.554987	1.882081	0.044364
1596	7.9750e-01	-16.2348	-100.323328	0.000263	2.625994	0.889711	0.020972
1597	7.9800e-01	-16.1915	-99.996647	0.000818	8.180981	2.771792	0.065336
1598	7.9850e-01	-16.1626	-99.907919	0.000222	2.221995	0.752832	0.017746
1599	7.9900e-01	-16.1129	-99.928084	-0.000050	-0.504999	-0.171098	-0.004033
1600	7.9950e-01	-16.0776	-99.613502	0.000788	7.877982	2.669133	0.062916
1601	8.0000e-01	-16.0231	-99.694164	-0.000202	-2.019995	-0.684393	-0.016132
1602	8.0050e-01	-15.9910	-99.351351	0.000858	8.584980	2.908670	0.068563
1603	8.0100e-01	-15.9493	-99.311020	0.000101	1.009998	0.342196	0.008066
1604	8.0150e-01	-15.9204	-99.073067	0.000596	5.958986	2.018959	0.047591
1605	8.0200e-01	-15.8803	-98.871412	0.000505	5.049988	1.710982	0.040331
1606	8.0250e-01	-15.8306	-98.702022	0.000424	4.241990	1.437225	0.033878
1607	8.0300e-01	-15.7953	-98.653625	0.000121	1.211997	0.410636	0.009679
1608	8.0350e-01	-15.7584	-98.383407	0.000677	6.766985	2.292716	0.054044
1609	8.0400e-01	-15.7103	-98.306778	0.000192	1.918996	0.650173	0.015326
1610	8.0450e-01	-15.6637	-98.201918	0.000263	2.625994	0.889711	0.020972
1611	8.0500e-01	-15.6236	-97.935733	0.000667	6.665985	2.258497	0.053237
1612	8.0550e-01	-15.5996	-97.867171	0.000172	1.716996	0.581734	0.013713
1613	8.0600e-01	-15.5627	-97.633251	0.000586	5.857987	1.984740	0.046784
1614	8.0650e-01	-15.5097	-97.484026	0.000374	3.736991	1.266127	0.029845
1615	8.0700e-01	-15.4696	-97.435629	0.000121	1.211997	0.410636	0.009679
1616	8.0750e-01	-15.4295	-97.112981	0.000808	8.079982	2.737572	0.064530
1617	8.0800e-01	-15.3910	-96.963757	0.000374	3.736991	1.266127	0.029845
1618	8.0850e-01	-15.3509	-96.854863	0.000273	2.726994	0.923931	0.021779
1619	8.0900e-01	-15.3092	-96.552381	0.000757	7.574983	2.566474	0.060496
1620	8.0950e-01	-15.2595	-96.499950	0.000131	1.312997	0.444855	0.010486
1621	8.1000e-01	-15.2386	-96.290229	0.000525	5.251988	1.779422	0.041944
1622	8.1050e-01	-15.1921	-96.193435	0.000242	2.423994	0.821272	0.019359
1623	8.1100e-01	-15.1536	-95.979681	0.000535	5.352988	1.813641	0.042751
1624	8.1150e-01	-15.1055	-95.773993	0.000515	5.150988	1.745202	0.041138
1625	8.1200e-01	-15.0654	-95.624768	0.000374	3.736991	1.266127	0.029845
1626	8.1250e-01	-15.0301	-95.552172	0.000182	1.817996	0.615954	0.014519
1627	8.1300e-01	-14.9851	-95.366650	0.000465	4.645989	1.574104	0.037105
1628	8.1350e-01	-14.9466	-95.156928	0.000525	5.251988	1.779422	0.041944
1629	8.1400e-01	-14.9194	-95.056101	0.000252	2.524994	0.855491	0.020165
1630	8.1450e-01	-14.8712	-94.874612	0.000454	4.544990	1.539884	0.036298
1631	8.1500e-01	-14.8263	-94.560030	0.000788	7.877982	2.669133	0.062916
1632	8.1550e-01	-14.7862	-94.435004	0.000313	3.130993	1.060809	0.025005
1633	8.1600e-01	-14.7461	-94.398706	0.000091	0.908998	0.307977	0.007260
1634	8.1650e-01	-14.7156	-94.184952	0.000535	5.352988	1.813641	0.042751
1635	8.1700e-01	-14.6707	-94.096223	0.000222	2.221995	0.752832	0.017746
1636	8.1750e-01	-14.6370	-93.910701	0.000465	4.645989	1.574104	0.037105
1637	8.1800e-01	-14.5937	-93.717112	0.000485	4.847989	1.642543	0.038718
1638	8.1850e-01	-14.5600	-93.499325	0.000545	5.453988	1.847861	0.043557
1639	8.1900e-01	-14.5247	-93.325902	0.000434	4.342990	1.471445	0.034685
1640	8.1950e-01	-14.4718	-93.188776	0.000343	3.433992	1.163468	0.027425
1641	8.2000e-01	-14.4285	-92.942757	0.000616	6.160986	2.087399	0.049204
1642	8.2050e-01	-14.3948	-92.745135	0.000495	4.948989	1.676763	0.039524
1643	8.2100e-01	-14.3563	-92.785466	-0.000101	-1.009998	-0.342196	-0.008066
1644	8.2150e-01	-14.3114	-92.434587	0.000879	8.786980	2.977109	0.070176
1645	8.2200e-01	-14.2729	-92.188568	0.000616	6.160986	2.087399	0.049204
1646	8.2250e-01	-14.2279	-92.152270	0.000091	0.908998	0.307977	0.007260
1647	8.2300e-01	-14.1975	-91.986913	0.000414	4.140991	1.403006	0.033071
1648	8.2350e-01	-14.1541	-91.720728	0.000667	6.665985	2.258497	0.053237
1649	8.2400e-01	-14.1156	-91.583603	0.000343	3.433992	1.163468	0.027425
1650	8.2450e-01	-14.0707	-91.515040	0.000172	1.716996	0.581734	0.013713
1651	8.2500e-01	-14.0290	-91.305319	0.000525	5.251988	1.779422	0.041944
1652	8.2550e-01	-13.9873	-91.006870	0.000747	7.473983	2.532254	0.059690
1653	8.2600e-01	-13.9520	-90.982671	0.000061	0.605999	0.205318	0.004840
1654	8.2650e-01	-13.9199	-90.825381	0.000394	3.938991	1.334566	0.031458
1655	8.2700e-01	-13.8702	-90.551130	0.000687	6.867984	2.326936	0.054850
1656	8.2750e-01	-13.8317	-90.321243	0.000576	5.756987	1.950520	0.045977
1657	8.2800e-01	-13.7852	-90.321243	0.000000	0.000000	0.000000	0.000000
1658	8.2850e-01	-13.7515	-90.192184	0.000323	3.231993	1.095029	0.025812
1659	8.2900e-01	-13.7210	-89.784841	0.001020	10.200977	3.456184	0.081469
1660	8.2950e-01	-13.6681	-89.720312	0.000162	1.615996	0.547514	0.012906
1661	8.3000e-01	-13.6280	-89.474292	0.000616	6.160986	2.087399	0.049204
1662	8.3050e-01	-13.5879	-89.248439	0.000566	5.655987	1.916300	0.045171
1663	8.3100e-01	-13.5494	-89.139545	0.000273	2.726994	0.923931	0.021779
1664	8.3150e-01	-13.5092	-89.010486	0.000323	3.231993	1.095029	0.025812
1665	8.3200e-01	-13.4723	-88.897559	0.000283	2.827994	0.958150	0.022585
1666	8.3250e-01	-13.4274	-88.591044	0.000768	7.675982	2.600693	0.061303
1667	8.3300e-01	-13.3889	-88.421654	0.000424	4.241990	1.437225	0.033878
1668	8.3350e-01	-13.3520	-88.312760	0.000273	2.726994	0.923931	0.021779
1669	8.3400e-01	-13.3087	-88.207900	0.000263	2.625994	0.889711	0.020972
1670	8.3450e-01	-13.2718	-87.744093	0.001161	11.614973	3.935260	0.092761
1671	8.3500e-01	-13.2333	-87.780391	-0.000091	-0.908998	-0.307977	-0.007260
1672	8.3550e-01	-13.1932	-87.562604	0.000545	5.453988	1.847861	0.043557
1673	8.3600e-01	-13.1499	-87.336750	0.000566	5.655987	1.916300	0.045171
1674	8.3650e-01	-13.1082	-87.316585	0.000050	0.504999	0.171098	0.004033
1675	8.3700e-01	-13.0793	-87.256088	0.000151	1.514997	0.513295	0.012099
1676	8.3750e-01	-13.0328	-86.872944	0.000959	9.594978	3.250867	0.076629
1677	8.3800e-01	-12.9927	-86.764050	0.000273	2.726994	0.923931	0.021779
1678	8.3850e-01	-12.9397	-86.626925	0.000343	3.433992	1.163468	0.027425
1679	8.3900e-01	-12.9061	-86.163119	0.001161	11.614973	3.935260	0.092761
1680	8.3950e-01	-12.8563	-86.316376	-0.000384	-3.837991	-1.300347	-0.030652
1681	8.4000e-01	-12.8242	-86.074390	0.000606	6.059986	2.053179	0.048397
1682	8.4050e-01	-12.7841	-85.900967	0.000434	4.342990	1.471445	0.034685
1683	8.4100e-01	-12.7537	-85.509757	0.000980	9.796978	3.319306	0.078242
1684	8.4150e-01	-12.7039	-85.445227	0.000162	1.615996	0.547514	0.012906
1685	8.4200e-01	-12.6734	-85.437161	0.000020	0.202000	0.068439	0.001613
1686	8.4250e-01	-12.6365	-85.271804	0.000414	4.140991	1.403006	0.033071
1687	8.4300e-01	-12.5932	-85.037884	0.000586	5.857987	1.984740	0.046784
1688	8.4350e-01	-12.5515	-84.816064	0.000555	5.554987	1.882081	0.044364
1689	8.4400e-01	-12.5162	-84.497449	0.000798	7.978982	2.703352	0.063723
1690	8.4450e-01	-12.4761	-84.493416	0.000010	0.101000	0.034220	0.000807
1691	8.4500e-01	-12.4312	-84.445019	0.000121	1.211997	0.410636	0.009679
1692	8.4550e-01	-12.3927	-84.045742	0.001000	9.998977	3.387745	0.079855
1693	8.4600e-01	-12.3574	-83.783590	0.000656	6.564985	2.224277	0.052430
1694	8.4650e-01	-12.3189	-83.710995	0.000182	1.817996	0.615954	0.014519
1695	8.4700e-01	-12.2740	-83.533538	0.000444	4.443990	1.505665	0.035491
1696	8.4750e-01	-12.2243	-83.315751	0.000545	5.453988	1.847861	0.043557
1697	8.4800e-01	-12.1938	-83.118129	0.000495	4.948989	1.676763	0.039524
1698	8.4850e-01	-12.1553	-82.940673	0.000444	4.443990	1.505665	0.035491
1699	8.4900e-01	-12.1168	-82.743051	0.000495	4.948989	1.676763	0.039524
1700	8.4950e-01	-12.0686	-82.622058	0.000303	3.029993	1.026589	0.024199
1701	8.5000e-01	-12.0398	-82.424436	0.000495	4.948989	1.676763	0.039524
1702	8.5050e-01	-11.9836	-82.226814	0.000495	4.948989	1.676763	0.039524
1703	8.5100e-01	-11.9435	-81.988861	0.000596	5.958986	2.018959	0.047591
1704	8.5150e-01	-11.9018	-81.871902	0.000293	2.928993	0.992370	0.023392
1705	8.5200e-01	-11.8745	-81.811405	0.000151	1.514997	0.513295	0.012099
1706	8.5250e-01	-11.8280	-81.504890	0.000768	7.675982	2.600693	0.061303
1707	8.5300e-01	-11.8023	-81.178209	0.000818	8.180981	2.771792	0.065336
1708	8.5350e-01	-11.7446	-80.956388	0.000555	5.554987	1.882081	0.044364
1709	8.5400e-01	-11.7045	-80.823296	0.000333	3.332992	1.129248	0.026618
1710	8.5450e-01	-11.6676	-80.774899	0.000121	1.211997	0.410636	0.009679
1711	8.5500e-01	-11.6419	-80.565178	0.000525	5.251988	1.779422	0.041944
1712	8.5550e-01	-11.5986	-80.419986	0.000364	3.635992	1.231907	0.029038
1713	8.5600e-01	-11.5633	-80.270761	0.000374	3.736991	1.266127	0.029845
1714	8.5650e-01	-11.4991	-80.012643	0.000646	6.463985	2.190057	0.051624
1715	8.5700e-01	-11.4751	-79.706128	0.000768	7.675982	2.600693	0.061303
1716	8.5750e-01	-11.4270	-79.637565	0.000172	1.716996	0.581734	0.013713
1717	8.5800e-01	-11.3981	-79.516572	0.000303	3.029993	1.026589	0.024199
1718	8.5850e-01	-11.3467	-79.076964	0.001101	11.008975	3.729942	0.087922
1719	8.5900e-01	-11.3147	-78.867243	0.000525	5.251988	1.779422	0.041944
1720	8.5950e-01	-11.2762	-78.814813	0.000131	1.312997	0.444855	0.010486
1721	8.6000e-01	-11.2344	-78.730118	0.000212	2.120995	0.718613	0.016939
1722	8.6050e-01	-11.1943	-78.391338	0.000848	8.483981	2.874450	0.067756
1723	8.6100e-01	-11.1558	-78.250179	0.000353	3.534992	1.197688	0.028232
1724	8.6150e-01	-11.1109	-78.036425	0.000535	5.352988	1.813641	0.042751
1725	8.6200e-01	-11.0740	-78.036425	0.000000	0.000000	0.000000	0.000000
1726	8.6250e-01	-11.0355	-77.758141	0.000697	6.968984	2.361156	0.055657
1727	8.6300e-01	-10.9954	-77.580685	0.000444	4.443990	1.505665	0.035491
1728	8.6350e-01	-10.9505	-77.467758	0.000283	2.827994	0.958150	0.022585
1729	8.6400e-01	-10.9072	-77.241904	0.000566	5.655987	1.916300	0.045171
1730	8.6450e-01	-10.8719	-77.007985	0.000586	5.857987	1.984740	0.046784
1731	8.6500e-01	-10.8350	-76.645006	0.000909	9.089979	3.079768	0.072596
1732	8.6550e-01	-10.7901	-76.753900	-0.000273	-2.726994	-0.923931	-0.021779
1733	8.6600e-01	-10.7516	-76.451417	0.000757	7.574983	2.566474	0.060496
1734	8.6650e-01	-10.7099	-76.181199	0.000677	6.766985	2.292716	0.054044
1735	8.6700e-01	-10.6730	-75.963412	0.000545	5.453988	1.847861	0.043557
1736	8.6750e-01	-10.6361	-75.810154	0.000384	3.837991	1.300347	0.030652
1737	8.6800e-01	-10.5944	-75.652864	0.000394	3.938991	1.334566	0.031458
1738	8.6850e-01	-10.5559	-75.370547	0.000707	7.069984	2.395375	0.056463
1739	8.6900e-01	-10.5077	-75.249554	0.000303	3.029993	1.026589	0.024199
1740	8.6950e-01	-10.4692	-74.648622	0.001505	15.048966	5.098728	0.120186
1741	8.7000e-01	-10.4323	-74.874476	-0.000566	-5.655987	-1.916300	-0.045171
1742	8.7050e-01	-10.3874	-74.676854	0.000495	4.948989	1.676763	0.039524
1743	8.7100e-01	-10.3505	-74.459066	0.000545	5.453988	1.847861	0.043557
1744	8.7150e-01	-10.3152	-74.330007	0.000323	3.231993	1.095029	0.025812
1745	8.7200e-01	-10.2735	-74.144485	0.000465	4.645989	1.574104	0.037105
1746	8.7250e-01	-10.2366	-73.708910	0.001091	10.907975	3.695722	0.087115
1747	8.7300e-01	-10.1885	-73.652447	0.000141	1.413997	0.479075	0.011293
1748	8.7350e-01	-10.1532	-73.233004	0.001050	10.503976	3.558843	0.083888
1749	8.7400e-01	-10.1083	-73.216872	0.000040	0.403999	0.136879	0.003226
1750	8.7450e-01	-10.0746	-72.934555	0.000707	7.069984	2.395375	0.056463
1751	8.7500e-01	-10.0329	-72.914390	0.000050	0.504999	0.171098	0.004033
1752	8.7550e-01	-9.9912	-72.684503	0.000576	5.756987	1.950520	0.045977
1753	8.7600e-01	-9.9462	-72.446550	0.000596	5.958986	2.018959	0.047591
1754	8.7650e-01	-9.9174	-72.168266	0.000697	6.968984	2.361156	0.055657
1755	8.7700e-01	-9.8708	-72.240862	-0.000182	-1.817996	-0.615954	-0.014519
1756	8.7750e-01	-9.8227	-71.881916	0.000899	8.988979	3.045549	0.071789
1757	8.7800e-01	-9.7938	-71.865784	0.000040	0.403999	0.136879	0.003226
1758	8.7850e-01	-9.7505	-71.563302	0.000757	7.574983	2.566474	0.060496
1759	8.7900e-01	-9.7152	-71.369713	0.000485	4.847989	1.642543	0.038718
1760	8.7950e-01	-9.6783	-71.151926	0.000545	5.453988	1.847861	0.043557
1761	8.8000e-01	-9.6286	-71.026899	0.000313	3.130993	1.060809	0.025005
1762	8.8050e-01	-9.5869	-70.833311	0.000485	4.847989	1.642543	0.038718
1763	8.8100e-01	-9.5532	-70.397736	0.001091	10.907975	3.695722	0.087115
1764	8.8150e-01	-9.5163	-70.252545	0.000364	3.635992	1.231907	0.029038
1765	8.8200e-01	-9.4618	-70.232379	0.000050	0.504999	0.171098	0.004033
1766	8.8250e-01	-9.4201	-70.014592	0.000545	5.453988	1.847861	0.043557
1767	8.8300e-01	-9.3848	-69.861334	0.000384	3.837991	1.300347	0.030652
1768	8.8350e-01	-9.3511	-69.570951	0.000727	7.271983	2.463815	0.058077
1769	8.8400e-01	-9.3046	-69.353164	0.000545	5.453988	1.847861	0.043557
1770	8.8450e-01	-9.2773	-69.248303	0.000263	2.625994	0.889711	0.020972
1771	8.8500e-01	-9.2324	-68.978085	0.000677	6.766985	2.292716	0.054044
1772	8.8550e-01	-9.1842	-68.752232	0.000566	5.655987	1.916300	0.045171
1773	8.8600e-01	-9.1538	-68.611073	0.000353	3.534992	1.197688	0.028232
1774	8.8650e-01	-9.1056	-68.389253	0.000555	5.554987	1.882081	0.044364
1775	8.8700e-01	-9.0735	-68.296492	0.000232	2.322995	0.787052	0.018552
1776	8.8750e-01	-9.0366	-67.929480	0.000919	9.190979	3.113988	0.073402
1777	8.8800e-01	-8.9869	-67.784288	0.000364	3.635992	1.231907	0.029038
1778	8.8850e-01	-8.9516	-67.546335	0.000596	5.958986	2.018959	0.047591
1779	8.8900e-01	-8.9147	-67.268052	0.000697	6.968984	2.361156	0.055657
1780	8.8950e-01	-8.8714	-67.090595	0.000444	4.443990	1.505665	0.035491
1781	8.9000e-01	-8.8313	-66.945404	0.000364	3.635992	1.231907	0.029038
1782	8.9050e-01	-8.7880	-66.650988	0.000737	7.372983	2.498034	0.058883
1783	8.9100e-01	-8.7495	-66.517895	0.000333	3.332992	1.129248	0.026618
1784	8.9150e-01	-8.7110	-66.239611	0.000697	6.968984	2.361156	0.055657
1785	8.9200e-01	-8.6773	-66.046023	0.000485	4.847989	1.642543	0.038718
1786	8.9250e-01	-8.6292	-65.836302	0.000525	5.251988	1.779422	0.041944
1787	8.9300e-01	-8.5842	-65.691110	0.000364	3.635992	1.231907	0.029038
1788	8.9350e-01	-8.5554	-65.614481	0.000192	1.918996	0.650173	0.015326
1789	8.9400e-01	-8.5185	-65.267635	0.000869	8.685980	2.942890	0.069369
1790	8.9450e-01	-8.4720	-65.098245	0.000424	4.241990	1.437225	0.033878
1791	8.9500e-01	-8.4351	-64.852226	0.000616	6.160986	2.087399	0.049204
1792	8.9550e-01	-8.3901	-64.763497	0.000222	2.221995	0.752832	0.017746
1793	8.9600e-01	-8.3484	-64.452949	0.000778	7.776982	2.634913	0.062110
1794	8.9650e-01	-8.3212	-64.251294	0.000505	5.049988	1.710982	0.040331
1795	8.9700e-01	-8.2778	-63.956878	0.000737	7.372983	2.498034	0.058883
1796	8.9750e-01	-8.2265	-63.819752	0.000343	3.433992	1.163468	0.027425
1797	8.9800e-01	-8.1960	-63.622130	0.000495	4.948989	1.676763	0.039524
1798	8.9850e-01	-8.1543	-63.529369	0.000232	2.322995	0.787052	0.018552
1799	8.9900e-01	-8.1158	-63.150258	0.000949	9.493978	3.216647	0.075822
1800	8.9950e-01	-8.0725	-62.859875	0.000727	7.271983	2.463815	0.058077
1801	9.0000e-01	-8.0212	-62.678385	0.000454	4.544990	1.539884	0.036298
1802	9.0050e-01	-7.9955	-62.525128	0.000384	3.837991	1.300347	0.030652
1803	9.0100e-01	-7.9458	-62.267009	0.000646	6.463985	2.190057	0.051624
1804	9.0150e-01	-7.9089	-62.077454	0.000475	4.746989	1.608323	0.037911
1805	9.0200e-01	-7.8688	-61.996792	0.000202	2.019995	0.684393	0.016132
1806	9.0250e-01	-7.8335	-61.682210	0.000788	7.877982	2.669133	0.062916
1807	9.0300e-01	-7.7950	-61.387794	0.000737	7.372983	2.498034	0.058883
1808	9.0350e-01	-7.7533	-61.250668	0.000343	3.433992	1.163468	0.027425
1809	9.0400e-01	-7.7164	-61.129676	0.000303	3.029993	1.026589	0.024199
1810	9.0450e-01	-7.6698	-60.915921	0.000535	5.352988	1.813641	0.042751
1811	9.0500e-01	-7.6233	-60.770730	0.000364	3.635992	1.231907	0.029038
1812	9.0550e-01	-7.5976	-60.540843	0.000576	5.756987	1.950520	0.045977
1813	9.0600e-01	-7.5591	-60.347254	0.000485	4.847989	1.642543	0.038718
1814	9.0650e-01	-7.5078	-59.984276	0.000909	9.089979	3.079768	0.072596
1815	9.0700e-01	-7.4773	-59.806819	0.000444	4.443990	1.505665	0.035491
1816	9.0750e-01	-7.4324	-59.786654	0.000050	0.504999	0.171098	0.004033
1817	9.0800e-01	-7.3875	-59.363178	0.001060	10.604976	3.593063	0.084695
1818	9.0850e-01	-7.3554	-59.153457	0.000525	5.251988	1.779422	0.041944
1819	9.0900e-01	-7.3137	-59.068762	0.000212	2.120995	0.718613	0.016939
1820	9.0950e-01	-7.2704	-58.669485	0.001000	9.998977	3.387745	0.079855
1821	9.1000e-01	-7.2255	-58.455731	0.000535	5.352988	1.813641	0.042751
1822	9.1050e-01	-7.1870	-58.508161	-0.000131	-1.312997	-0.444855	-0.010486
1823	9.1100e-01	-7.1501	-58.133083	0.000939	9.392979	3.182427	0.075016
1824	9.1150e-01	-7.1084	-57.806402	0.000818	8.180981	2.771792	0.065336
1825	9.1200e-01	-7.0699	-57.503920	0.000757	7.574983	2.566474	0.060496
1826	9.1250e-01	-7.0249	-57.419225	0.000212	2.120995	0.718613	0.016939
1827	9.1300e-01	-6.9864	-57.302265	0.000293	2.928993	0.992370	0.023392
1828	9.1350e-01	-6.9431	-57.116742	0.000465	4.645989	1.574104	0.037105
1829	9.1400e-01	-6.9126	-56.826359	0.000727	7.271983	2.463815	0.058077
1830	9.1450e-01	-6.8709	-56.677135	0.000374	3.736991	1.266127	0.029845
1831	9.1500e-01	-6.8308	-56.322222	0.000889	8.887980	3.011329	0.070983
1832	9.1550e-01	-6.7891	-56.185097	0.000343	3.433992	1.163468	0.027425
1833	9.1600e-01	-6.7538	-55.810018	0.000939	9.392979	3.182427	0.075016
1834	9.1650e-01	-6.7121	-55.572066	0.000596	5.958986	2.018959	0.047591
1835	9.1700e-01	-6.6656	-55.237318	0.000838	8.382981	2.840231	0.066949
1836	9.1750e-01	-6.6175	-55.277649	-0.000101	-1.009998	-0.342196	-0.008066
1837	9.1800e-01	-6.5886	-54.882406	0.000990	9.897977	3.353526	0.079049
1838	9.1850e-01	-6.5517	-54.737214	0.000364	3.635992	1.231907	0.029038
1839	9.1900e-01	-6.5148	-54.519427	0.000545	5.453988	1.847861	0.043557
1840	9.1950e-01	-6.4763	-54.229044	0.000727	7.271983	2.463815	0.058077
1841	9.2000e-01	-6.4378	-53.966892	0.000656	6.564985	2.224277	0.052430
1842	9.2050e-01	-6.3865	-53.950760	0.000040	0.403999	0.136879	0.003226
1843	9.2100e-01	-6.3512	-53.680542	0.000677	6.766985	2.292716	0.054044
1844	9.2150e-01	-6.3078	-53.349828	0.000828	8.281981	2.806011	0.066143
1845	9.2200e-01	-6.2758	-53.285299	0.000162	1.615996	0.547514	0.012906
1846	9.2250e-01	-6.2373	-53.002982	0.000707	7.069984	2.395375	0.056463
1847	9.2300e-01	-6.1939	-52.841658	0.000404	4.039991	1.368786	0.032265
1848	9.2350e-01	-6.1474	-52.656135	0.000465	4.645989	1.574104	0.037105
1849	9.2400e-01	-6.1169	-52.353653	0.000757	7.574983	2.566474	0.060496
1850	9.2450e-01	-6.0672	-52.059237	0.000737	7.372983	2.498034	0.058883
1851	9.2500e-01	-6.0271	-51.958409	0.000252	2.524994	0.855491	0.020165
1852	9.2550e-01	-5.9982	-51.635761	0.000808	8.079982	2.737572	0.064530
1853	9.2600e-01	-5.9469	-51.478471	0.000394	3.938991	1.334566	0.031458
1854	9.2650e-01	-5.9164	-51.252617	0.000566	5.655987	1.916300	0.045171
1855	9.2700e-01	-5.8699	-51.042896	0.000525	5.251988	1.779422	0.041944
1856	9.2750e-01	-5.8362	-50.696049	0.000869	8.685980	2.942890	0.069369
1857	9.2800e-01	-5.7897	-50.700083	-0.000010	-0.101000	-0.034220	-0.000807
1858	9.2850e-01	-5.7592	-50.228210	0.001182	11.816973	4.003699	0.094375
1859	9.2900e-01	-5.7159	-49.905562	0.000808	8.079982	2.737572	0.064530
1860	9.2950e-01	-5.6726	-49.776503	0.000323	3.231993	1.095029	0.025812
1861	9.3000e-01	-5.6389	-49.534517	0.000606	6.059986	2.053179	0.048397
1862	9.3050e-01	-5.5843	-49.469987	0.000162	1.615996	0.547514	0.012906
1863	9.3100e-01	-5.5539	-49.228002	0.000606	6.059986	2.053179	0.048397
1864	9.3150e-01	-5.5234	-48.977949	0.000626	6.261986	2.121618	0.050010
1865	9.3200e-01	-5.4736	-48.606904	0.000929	9.291979	3.148208	0.074209
1866	9.3250e-01	-5.4383	-48.623037	-0.000040	-0.403999	-0.136879	-0.003226
1867	9.3300e-01	-5.3950	-48.155197	0.001172	11.715973	3.969479	0.093568
1868	9.3350e-01	-5.3501	-48.042271	0.000283	2.827994	0.958150	0.022585
1869	9.3400e-01	-5.3148	-47.824483	0.000545	5.453988	1.847861	0.043557
1870	9.3450e-01	-5.2731	-47.610729	0.000535	5.352988	1.813641	0.042751
1871	9.3500e-01	-5.2250	-47.380842	0.000576	5.756987	1.950520	0.045977
1872	9.3550e-01	-5.1977	-47.114658	0.000667	6.665985	2.258497	0.053237
1873	9.3600e-01	-5.1544	-47.042062	0.000182	1.817996	0.615954	0.014519
1874	9.3650e-01	-5.1159	-46.679083	0.000909	9.089979	3.079768	0.072596
1875	9.3700e-01	-5.0678	-46.392733	0.000717	7.170984	2.429595	0.057270
1876	9.3750e-01	-5.0389	-46.215277	0.000444	4.443990	1.505665	0.035491
1877	9.3800e-01	-4.9892	-46.154780	0.000151	1.514997	0.513295	0.012099
1878	9.3850e-01	-4.9475	-45.795835	0.000899	8.988979	3.045549	0.071789
1879	9.3900e-01	-4.9154	-45.453021	0.000858	8.584980	2.908670	0.068563
1880	9.3950e-01	-4.8688	-45.223135	0.000576	5.756987	1.950520	0.045977
1881	9.4000e-01	-4.8303	-45.110208	0.000283	2.827994	0.958150	0.022585
1882	9.4050e-01	-4.7886	-44.811759	0.000747	7.473983	2.532254	0.059690
1883	9.4100e-01	-4.7582	-44.509276	0.000757	7.574983	2.566474	0.060496
1884	9.4150e-01	-4.7132	-44.319721	0.000475	4.746989	1.608323	0.037911
1885	9.4200e-01	-4.6715	-44.198728	0.000303	3.029993	1.026589	0.024199
1886	9.4250e-01	-4.6234	-43.787352	0.001030	10.301976	3.490404	0.082275
1887	9.4300e-01	-4.5961	-43.581663	0.000515	5.150988	1.745202	0.041138
1888	9.4350e-01	-4.5480	-43.343711	0.000596	5.958986	2.018959	0.047591
1889	9.4400e-01	-4.5111	-43.085592	0.000646	6.463985	2.190057	0.051624
1890	9.4450e-01	-4.4758	-42.799242	0.000717	7.170984	2.429595	0.057270
1891	9.4500e-01	-4.4341	-42.484661	0.000788	7.877982	2.669133	0.062916
1892	9.4550e-01	-4.3956	-42.339469	0.000364	3.635992	1.231907	0.029038
1893	9.4600e-01	-4.3491	-42.012788	0.000818	8.180981	2.771792	0.065336
1894	9.4650e-01	-4.3138	-41.722405	0.000727	7.271983	2.463815	0.058077
1895	9.4700e-01	-4.2689	-41.601412	0.000303	3.029993	1.026589	0.024199
1896	9.4750e-01	-4.2223	-41.391691	0.000525	5.251988	1.779422	0.041944
1897	9.4800e-01	-4.1935	-41.149705	0.000606	6.059986	2.053179	0.048397
1898	9.4850e-01	-4.1502	-41.044844	0.000263	2.625994	0.889711	0.020972
1899	9.4900e-01	-4.1084	-40.693965	0.000879	8.786980	2.977109	0.070176
1900	9.4950e-01	-4.0635	-40.480211	0.000535	5.352988	1.813641	0.042751
1901	9.5000e-01	-4.0459	-40.032537	0.001121	11.210974	3.798381	0.089535
1902	9.5050e-01	-3.9977	-39.947842	0.000212	2.120995	0.718613	0.016939
1903	9.5100e-01	-3.9496	-39.842981	0.000263	2.625994	0.889711	0.020972
1904	9.5150e-01	-3.9047	-39.520333	0.000808	8.079982	2.737572	0.064530
1905	9.5200e-01	-3.8678	-39.193652	0.000818	8.180981	2.771792	0.065336
1906	9.5250e-01	-3.8373	-38.866971	0.000818	8.180981	2.771792	0.065336
1907	9.5300e-01	-3.7908	-38.576588	0.000727	7.271983	2.463815	0.058077
1908	9.5350e-01	-3.7523	-38.354768	0.000555	5.554987	1.882081	0.044364
1909	9.5400e-01	-3.7090	-38.221675	0.000333	3.332992	1.129248	0.026618
1910	9.5450e-01	-3.6689	-37.979690	0.000606	6.059986	2.053179	0.048397
1911	9.5500e-01	-3.6272	-37.782068	0.000495	4.948989	1.676763	0.039524
1912	9.5550e-01	-3.5951	-37.398923	0.000959	9.594978	3.250867	0.076629
1913	9.5600e-01	-3.5550	-37.128706	0.000677	6.766985	2.292716	0.054044
1914	9.5650e-01	-3.5101	-36.870587	0.000646	6.463985	2.190057	0.051624
1915	9.5700e-01	-3.4732	-36.918985	-0.000121	-1.211997	-0.410636	-0.009679
1916	9.5750e-01	-3.4331	-36.539873	0.000949	9.493978	3.216647	0.075822
1917	9.5800e-01	-3.3881	-36.370483	0.000424	4.241990	1.437225	0.033878
1918	9.5850e-01	-3.3464	-36.112365	0.000646	6.463985	2.190057	0.051624
1919	9.5900e-01	-3.3095	-35.773585	0.000848	8.483981	2.874450	0.067756
1920	9.5950e-01	-3.2710	-35.563863	0.000525	5.251988	1.779422	0.041944
1921	9.6000e-01	-3.2341	-35.253315	0.000778	7.776982	2.634913	0.062110
1922	9.6050e-01	-3.1812	-35.079892	0.000434	4.342990	1.471445	0.034685
1923	9.6100e-01	-3.1411	-34.813707	0.000667	6.665985	2.258497	0.053237
1924	9.6150e-01	-3.1090	-34.487026	0.000818	8.180981	2.771792	0.065336
1925	9.6200e-01	-3.0753	-34.374099	0.000283	2.827994	0.958150	0.022585
1926	9.6250e-01	-3.0288	-34.051451	0.000808	8.079982	2.737572	0.064530
1927	9.6300e-01	-2.9903	-33.882061	0.000424	4.241990	1.437225	0.033878
1928	9.6350e-01	-2.9518	-33.498917	0.000959	9.594978	3.250867	0.076629
1929	9.6400e-01	-2.9181	-33.281130	0.000545	5.453988	1.847861	0.043557
1930	9.6450e-01	-2.8716	-32.950416	0.000828	8.281981	2.806011	0.066143
1931	9.6500e-01	-2.8283	-32.857654	0.000232	2.322995	0.787052	0.018552
1932	9.6550e-01	-2.7898	-32.478543	0.000949	9.493978	3.216647	0.075822
1933	9.6600e-01	-2.7545	-32.280921	0.000495	4.948989	1.676763	0.039524
1934	9.6650e-01	-2.7095	-31.958273	0.000808	8.079982	2.737572	0.064530
1935	9.6700e-01	-2.6743	-31.607394	0.000879	8.786980	2.977109	0.070176
1936	9.6750e-01	-2.6374	-31.389606	0.000545	5.453988	1.847861	0.043557
1937	9.6800e-01	-2.5989	-31.260547	0.000323	3.231993	1.095029	0.025812
1938	9.6850e-01	-2.5491	-31.151654	0.000273	2.726994	0.923931	0.021779
1939	9.6900e-01	-2.5090	-30.748344	0.001010	10.099977	3.421965	0.080662
1940	9.6950e-01	-2.4737	-30.522490	0.000566	5.655987	1.916300	0.045171
1941	9.7000e-01	-2.4288	-30.449894	0.000182	1.817996	0.615954	0.014519
1942	9.7050e-01	-2.4047	-29.909459	0.001353	13.533969	4.585433	0.108087
1943	9.7100e-01	-2.3422	-29.578745	0.000828	8.281981	2.806011	0.066143
1944	9.7150e-01	-2.3085	-29.506149	0.000182	1.817996	0.615954	0.014519
1945	9.7200e-01	-2.2796	-29.191568	0.000788	7.877982	2.669133	0.062916
1946	9.7250e-01	-2.2267	-28.796324	0.000990	9.897977	3.353526	0.079049
1947	9.7300e-01	-2.1978	-28.364782	0.001081	10.806975	3.661502	0.086308
1948	9.7350e-01	-2.1481	-28.191359	0.000434	4.342990	1.471445	0.034685
1949	9.7400e-01	-2.1128	-28.126830	0.000162	1.615996	0.547514	0.012906
1950	9.7450e-01	-2.0695	-27.981638	0.000364	3.635992	1.231907	0.029038
1951	9.7500e-01	-2.0374	-27.574295	0.001020	10.200977	3.456184	0.081469
1952	9.7550e-01	-1.9876	-27.324243	0.000626	6.261986	2.121618	0.050010
1953	9.7600e-01	-1.9491	-27.090323	0.000586	5.857987	1.984740	0.046784
1954	9.7650e-01	-1.9090	-26.852370	0.000596	5.958986	2.018959	0.047591
1955	9.7700e-01	-1.8802	-26.457127	0.000990	9.897977	3.353526	0.079049
1956	9.7750e-01	-1.8352	-26.146578	0.000778	7.776982	2.634913	0.062110
1957	9.7800e-01	-1.7951	-25.747301	0.001000	9.998977	3.387745	0.079855
1958	9.7850e-01	-1.7454	-25.723103	0.000061	0.605999	0.205318	0.004840
1959	9.7900e-01	-1.7133	-25.448852	0.000687	6.867984	2.326936	0.054850
1960	9.7950e-01	-1.6668	-25.130237	0.000798	7.978982	2.703352	0.063723
1961	9.8000e-01	-1.6315	-24.638199	0.001232	12.321972	4.174797	0.098408
1962	9.8050e-01	-1.5898	-24.448644	0.000475	4.746989	1.608323	0.037911
1963	9.8100e-01	-1.5609	-24.307485	0.000353	3.534992	1.197688	0.028232
1964	9.8150e-01	-1.5080	-24.105830	0.000505	5.049988	1.710982	0.040331
1965	9.8200e-01	-1.4743	-23.779149	0.000818	8.180981	2.771792	0.065336
1966	9.8250e-01	-1.4294	-23.593627	0.000465	4.645989	1.574104	0.037105
1967	9.8300e-01	-1.3877	-23.319376	0.000687	6.867984	2.326936	0.054850
1968	9.8350e-01	-1.3540	-22.920099	0.001000	9.998977	3.387745	0.079855
1969	9.8400e-01	-1.3139	-22.585352	0.000838	8.382981	2.840231	0.066949
1970	9.8450e-01	-1.2641	-22.460326	0.000313	3.130993	1.060809	0.025005
1971	9.8500e-01	-1.2353	-22.206241	0.000636	6.362985	2.155838	0.050817
1972	9.8550e-01	-1.1887	-21.960222	0.000616	6.160986	2.087399	0.049204
1973	9.8600e-01	-1.1518	-21.621442	0.000848	8.483981	2.874450	0.067756
1974	9.8650e-01	-1.1198	-21.310893	0.000778	7.776982	2.634913	0.062110
1975	9.8700e-01	-1.0732	-20.988245	0.000808	8.079982	2.737572	0.064530
1976	9.8750e-01	-1.0235	-20.621233	0.000919	9.190979	3.113988	0.073402
1977	9.8800e-01	-0.9962	-20.463942	0.000394	3.938991	1.334566	0.031458
1978	9.8850e-01	-0.9497	-20.463942	0.000000	0.000000	0.000000	0.000000
1979	9.8900e-01	-0.9112	-20.028368	0.001091	10.907975	3.695722	0.087115
1980	9.8950e-01	-0.8743	-19.806547	0.000555	5.554987	1.882081	0.044364
1981	9.9000e-01	-0.8326	-19.415337	0.000980	9.796978	3.319306	0.078242
1982	9.9050e-01	-0.7989	-19.173351	0.000606	6.059986	2.053179	0.048397
1983	9.9100e-01	-0.7476	-18.882968	0.000727	7.271983	2.463815	0.058077
1984	9.9150e-01	-0.7059	-18.733743	0.000374	3.736991	1.266127	0.029845
1985	9.9200e-01	-0.6722	-18.346566	0.000970	9.695978	3.285086	0.077435
1986	9.9250e-01	-0.6273	-18.169109	0.000444	4.443990	1.505665	0.035491
1987	9.9300e-01	-0.5968	-17.777899	0.000980	9.796978	3.319306	0.078242
1988	9.9350e-01	-0.5406	-17.406854	0.000929	9.291979	3.148208	0.074209
1989	9.9400e-01	-0.5085	-17.201166	0.000515	5.150988	1.745202	0.041138
1990	9.9450e-01	-0.4700	-16.934981	0.000667	6.665985	2.258497	0.053237
1991	9.9500e-01	-0.4315	-16.652664	0.000707	7.069984	2.395375	0.056463
1992	9.9550e-01	-0.3866	-16.301785	0.000879	8.786980	2.977109	0.070176
1993	9.9600e-01	-0.3610	-16.136428	0.000414	4.140991	1.403006	0.033071
1994	9.9650e-01	-0.3048	-15.725051	0.001030	10.301976	3.490404	0.082275
1995	9.9700e-01	-0.2775	-15.612125	0.000283	2.827994	0.958150	0.022585
1996	9.9750e-01	-0.2294	-15.333841	0.000697	6.968984	2.361156	0.055657
1997	9.9800e-01	-0.1893	-15.035392	0.000747	7.473983	2.532254	0.059690
1998	9.9850e-01	-0.1460	-14.712744	0.000808	8.079982	2.737572	0.064530
1999	9.9900e-01	-0.1043	-14.317500	0.000990	9.897977	3.353526	0.079049
2000	9.9950e-01	-0.0738	-14.156176	0.000404	4.039991	1.368786	0.032265
2001	1.0000e+00	-0.0257	-13.881925	0.000404	4.039991	1.368786	0.054850

Center data before PMax,+/-Pr and +/-Vc Calc.

PMax (uC/cm2):	1.13e+02
Pr (uC/cm2):	4.27e+00
-Pr (uC/cm2):	-1.39e+01
PLoss (uC/cm2):	-1.14e+01
Vc:	3.81e-01
-Vc:	-6.10e-01
C (Max-Eff) (nF):	5.65e-01
K (Eff):	1.91e+03
Vert. (+/-Pr) Shift (uC/cm2):	-4.81e+00
Horiz. Shift (+/-Vc):	-1.14e-01
Offset (uC/cm2):	2.36e+00

A (Loop Area - uC/cm2·Volts):	-2.00e-01



Hysteresis Version: 5.48.1 - Radiant Technologies, Inc., 1999 - 9/12/24

