»»»»»»»»»»»»»»»»»»»»»»»»»»»»»»»»»»»» Hysteresis ««««««««««««««««««««««««««««««««««««
»»»  Executed Version:	5.48.1
»»»  Vision Version:	5.48.4 (R)
»»»  Vision Compiled:	9/18/24
»»»  Driver Version:	5.47.0
»»»  Windows Version:	Windows 8 or 8.1
»»»  Processor Information:	x86 (AMD or Intel) - 32 Processors
»»»  Tester Name:	PMF21124-494 (100V)
»»»  Tester S/N:	PMF21124-494
»»»  Internal Amp Type:	100V RevK 270k
»»»  Internal Amp S/N:	iAB2-596/K     
»»»  Execution Count:	1
»»»»»»»»»»»»»»»»»»»»»»»»»»»»»»»»»»»»»»»»»»««««««««««««««««««««««««««««««««««««««««««

Stored:	6/5/2025 - 13:54:54
Configured:	06/05/25 01:31:43 PM
Executed:	06/05/25 01:54:14 PM

»»»»»»»»»»»»»»»»»»»»»»»»»»»»»»»»»»» Sample Info ««««««««««««««««««««««««««««««««««««
Sample Name:	
Lot Name:	
Wafer Name:	
Die Row/Column:	0/0
Capacitor Number:	0
Sample Area (cm2):	1.00e-04
Sample Thickness (microns):	3.00e-01

Amplifier:	Internal

»»»»»»»»»»»»»»»»»»»»»»»»»»»»»»»»»»» Tester Info «««««««««««««««««««««««««««««««««««
Tester Name:	PMF21124-494 (100V)
Tester Serial Number:	PMF21124-494
Return Signal Amp. Level:	0.19 [Index: 3]

»»»»»»»»»»»»»»»»»»»»»»»»»»»»»»»» Hysteresis Info ««««««««««««««««««««««««««««««««««
Task Name:	Hyst-303
Volts:	20.00
Field:	666.67 (kV/cm)
DCBias:	0.00
DCField:	0.00 (kV/cm)
Hysteresis Period (ms):	2.00e+02
Preset:	Enabled
Preset Delay (ms):	1.00e+03
Profile:	Standard Bipolar

»»»»»»»»»»»»»»»»»»»»»»»»»»»»»»»»»»»»»» Data «««««««««««««««««««««««««««««««««««««««
Points:	2009

Valid Data

Point	Time (ms)	Drive Voltage	Measured Polarization (uC/cm2)	Capacitance (uF)	Normalized Capacitance (uF/cm2)	Dielectric Constant	Instantaneous Current (mA)
   1	0.0000e+00	-0.0064	0.302785	0.000537	5.370502	1.819575	0.000215
   2	9.9500e-02	0.0241	0.516753	0.000537	5.370502	1.819575	0.000215
   3	1.9900e-01	0.0658	0.754944	0.000598	5.978483	2.025565	0.000239
   4	2.9850e-01	0.1011	1.021395	0.000669	6.687795	2.265886	0.000268
   5	3.9800e-01	0.1476	1.279772	0.000649	6.485134	2.197223	0.000260
   6	4.9750e-01	0.1941	1.542186	0.000659	6.586465	2.231555	0.000264
   7	5.9700e-01	0.2230	1.796525	0.000638	6.383804	2.162891	0.000256
   8	6.9650e-01	0.2695	2.071051	0.000689	6.890455	2.334549	0.000276
   9	7.9600e-01	0.2984	2.357687	0.000719	7.194446	2.437544	0.000288
  10	8.9550e-01	0.3433	2.607990	0.000628	6.282474	2.128560	0.000252
  11	9.9500e-01	0.3786	2.842144	0.000588	5.877153	1.991233	0.000235
  12	1.0945e+00	0.4219	3.108595	0.000669	6.687795	2.265886	0.000268
  13	1.1940e+00	0.4604	3.379083	0.000679	6.789125	2.300218	0.000272
  14	1.2935e+00	0.5053	3.649571	0.000679	6.789125	2.300218	0.000272
  15	1.3930e+00	0.5390	3.847390	0.000497	4.965181	1.682249	0.000199
  16	1.4925e+00	0.5871	4.202658	0.000892	8.917060	3.021182	0.000357
  17	1.5920e+00	0.6273	4.416626	0.000537	5.370502	1.819575	0.000215
  18	1.6915e+00	0.6690	4.683077	0.000669	6.687795	2.265886	0.000268
  19	1.7910e+00	0.7027	4.929343	0.000618	6.181144	2.094228	0.000248
  20	1.8905e+00	0.7460	5.240202	0.000780	7.802427	2.643534	0.000312
  21	1.9900e+00	0.7829	5.490505	0.000628	6.282474	2.128560	0.000252
  22	2.0895e+00	0.8230	5.789253	0.000750	7.498437	2.540539	0.000300
  23	2.1890e+00	0.8631	6.031481	0.000608	6.079814	2.059897	0.000243
  24	2.2885e+00	0.8903	6.277746	0.000618	6.181144	2.094228	0.000248
  25	2.3880e+00	0.9449	6.580531	0.000760	7.599767	2.574871	0.000304
  26	2.4875e+00	0.9770	6.871205	0.000730	7.295776	2.471876	0.000292
  27	2.5870e+00	1.0123	7.105359	0.000588	5.877153	1.991233	0.000235
  28	2.6865e+00	1.0572	7.371810	0.000669	6.687795	2.265886	0.000268
  29	2.7860e+00	1.1053	7.626149	0.000638	6.383804	2.162891	0.000256
  30	2.8855e+00	1.1422	7.928935	0.000760	7.599767	2.574871	0.000304
  31	2.9850e+00	1.1791	8.223645	0.000740	7.397107	2.506208	0.000296
  32	3.0845e+00	1.2224	8.445688	0.000557	5.573162	1.888239	0.000223
  33	3.1840e+00	1.2625	8.728287	0.000709	7.093116	2.403213	0.000284
  34	3.2835e+00	1.3042	8.994738	0.000669	6.687795	2.265886	0.000268
  35	3.3830e+00	1.3411	9.289449	0.000740	7.397107	2.506208	0.000296
  36	3.4825e+00	1.3780	9.543789	0.000638	6.383804	2.162891	0.000256
  37	3.5820e+00	1.4197	9.786017	0.000608	6.079814	2.059897	0.000243
  38	3.6815e+00	1.4679	10.100914	0.000790	7.903758	2.677866	0.000316
  39	3.7810e+00	1.4984	10.355253	0.000638	6.383804	2.162891	0.000256
  40	3.8805e+00	1.5417	10.625741	0.000679	6.789125	2.300218	0.000272
  41	3.9800e+00	1.5754	10.859895	0.000588	5.877153	1.991233	0.000235
  42	4.0795e+00	1.6331	11.211126	0.000882	8.815730	2.986850	0.000353
  43	4.1790e+00	1.6636	11.477577	0.000669	6.687795	2.265886	0.000268
  44	4.2785e+00	1.7085	11.719805	0.000608	6.079814	2.059897	0.000243
  45	4.3780e+00	1.7390	12.010479	0.000730	7.295776	2.471876	0.000292
  46	4.4775e+00	1.7775	12.289041	0.000699	6.991786	2.368881	0.000280
  47	4.5770e+00	1.8192	12.551455	0.000659	6.586465	2.231555	0.000264
  48	4.6765e+00	1.8545	12.821943	0.000679	6.789125	2.300218	0.000272
  49	4.7760e+00	1.8962	13.116654	0.000740	7.397107	2.506208	0.000296
  50	4.8755e+00	1.9443	13.379068	0.000659	6.586465	2.231555	0.000264
  51	4.9750e+00	1.9764	13.657630	0.000699	6.991786	2.368881	0.000280
  52	5.0745e+00	2.0149	13.928118	0.000679	6.789125	2.300218	0.000272
  53	5.1740e+00	2.0534	14.194569	0.000669	6.687795	2.265886	0.000268
  54	5.2735e+00	2.1015	14.452946	0.000649	6.485134	2.197223	0.000260
  55	5.3730e+00	2.1288	14.792065	0.000851	8.511739	2.883855	0.000341
  56	5.4725e+00	2.1769	15.042368	0.000628	6.282474	2.128560	0.000252
  57	5.5720e+00	2.2154	15.349190	0.000770	7.701097	2.609202	0.000308
  58	5.6715e+00	2.2507	15.635827	0.000719	7.194446	2.437544	0.000288
  59	5.7710e+00	2.2941	15.890166	0.000638	6.383804	2.162891	0.000256
  60	5.8705e+00	2.3422	16.201026	0.000780	7.802427	2.643534	0.000312
  61	5.9700e+00	2.3743	16.439217	0.000598	5.978483	2.025565	0.000239
  62	6.0695e+00	2.4208	16.705668	0.000669	6.687795	2.265886	0.000268
  63	6.1690e+00	2.4641	16.988267	0.000709	7.093116	2.403213	0.000284
  64	6.2685e+00	2.4962	17.315275	0.000821	8.207748	2.780860	0.000329
  65	6.3680e+00	2.5315	17.557503	0.000608	6.079814	2.059897	0.000243
  66	6.4675e+00	2.5732	17.860289	0.000760	7.599767	2.574871	0.000304
  67	6.5670e+00	2.6149	18.118665	0.000649	6.485134	2.197223	0.000260
  68	6.6665e+00	2.6518	18.417413	0.000750	7.498437	2.540539	0.000300
  69	6.7660e+00	2.6967	18.667716	0.000628	6.282474	2.128560	0.000252
  70	6.8655e+00	2.7432	18.966464	0.000750	7.498437	2.540539	0.000300
  71	6.9650e+00	2.7673	19.269249	0.000760	7.599767	2.574871	0.000304
  72	7.0645e+00	2.8106	19.576071	0.000770	7.701097	2.609202	0.000308
  73	7.1640e+00	2.8491	19.834448	0.000649	6.485134	2.197223	0.000260
  74	7.2635e+00	2.8972	20.084750	0.000628	6.282474	2.128560	0.000252
  75	7.3630e+00	2.9309	20.387535	0.000760	7.599767	2.574871	0.000304
  76	7.4625e+00	2.9742	20.682246	0.000740	7.397107	2.506208	0.000296
  77	7.5620e+00	3.0176	20.940623	0.000649	6.485134	2.197223	0.000260
  78	7.6615e+00	3.0529	21.223223	0.000709	7.093116	2.403213	0.000284
  79	7.7610e+00	3.1010	21.526008	0.000760	7.599767	2.574871	0.000304
  80	7.8605e+00	3.1315	21.792459	0.000669	6.687795	2.265886	0.000268
  81	7.9600e+00	3.1812	22.071021	0.000699	6.991786	2.368881	0.000280
  82	8.0595e+00	3.2117	22.385918	0.000790	7.903758	2.677866	0.000316
  83	8.1590e+00	3.2550	22.660443	0.000689	6.890455	2.334549	0.000276
  84	8.2585e+00	3.2935	22.906708	0.000618	6.181144	2.094228	0.000248
  85	8.3580e+00	3.3400	23.181233	0.000689	6.890455	2.334549	0.000276
  86	8.4575e+00	3.3721	23.475944	0.000740	7.397107	2.506208	0.000296
  87	8.5570e+00	3.4090	23.762581	0.000719	7.194446	2.437544	0.000288
  88	8.6565e+00	3.4507	24.029032	0.000669	6.687795	2.265886	0.000268
  89	8.7560e+00	3.4924	24.287409	0.000649	6.485134	2.197223	0.000260
  90	8.8555e+00	3.5261	24.594231	0.000770	7.701097	2.609202	0.000308
  91	8.9550e+00	3.5710	24.905090	0.000780	7.802427	2.643534	0.000312
  92	9.0545e+00	3.6159	25.159430	0.000638	6.383804	2.162891	0.000256
  93	9.1540e+00	3.6400	25.450104	0.000730	7.295776	2.471876	0.000292
  94	9.2535e+00	3.6962	25.688295	0.000598	5.978483	2.025565	0.000239
  95	9.3530e+00	3.7363	26.007228	0.000801	8.005088	2.712197	0.000321
  96	9.4525e+00	3.7732	26.269642	0.000659	6.586465	2.231555	0.000264
  97	9.5520e+00	3.8036	26.540130	0.000679	6.789125	2.300218	0.000272
  98	9.6515e+00	3.8453	26.814656	0.000689	6.890455	2.334549	0.000276
  99	9.7510e+00	3.8887	27.137626	0.000811	8.106418	2.746529	0.000325
 100	9.8505e+00	3.9256	27.408115	0.000679	6.789125	2.300218	0.000272
 101	9.9500e+00	3.9721	27.642268	0.000588	5.877153	1.991233	0.000235
 102	1.0050e+01	4.0074	27.904682	0.000659	6.586465	2.231555	0.000264
 103	1.0149e+01	4.0459	28.219579	0.000790	7.903758	2.677866	0.000316
 104	1.0248e+01	4.0860	28.502178	0.000709	7.093116	2.403213	0.000284
 105	1.0348e+01	4.1309	28.784778	0.000709	7.093116	2.403213	0.000284
 106	1.0447e+01	4.1774	29.071414	0.000719	7.194446	2.437544	0.000288
 107	1.0547e+01	4.2015	29.362088	0.000730	7.295776	2.471876	0.000292
 108	1.0646e+01	4.2544	29.632576	0.000679	6.789125	2.300218	0.000272
 109	1.0746e+01	4.2961	29.890953	0.000649	6.485134	2.197223	0.000260
 110	1.0845e+01	4.3346	30.169515	0.000699	6.991786	2.368881	0.000280
 111	1.0945e+01	4.3587	30.508635	0.000851	8.511739	2.883855	0.000341
 112	1.1044e+01	4.4100	30.767011	0.000649	6.485134	2.197223	0.000260
 113	1.1144e+01	4.4582	31.021351	0.000638	6.383804	2.162891	0.000256
 114	1.1243e+01	4.4854	31.312025	0.000730	7.295776	2.471876	0.000292
 115	1.1343e+01	4.5287	31.606736	0.000740	7.397107	2.506208	0.000296
 116	1.1443e+01	4.5753	31.840890	0.000588	5.877153	1.991233	0.000235
 117	1.1542e+01	4.6090	32.139638	0.000750	7.498437	2.540539	0.000300
 118	1.1642e+01	4.6507	32.430311	0.000730	7.295776	2.471876	0.000292
 119	1.1741e+01	4.6892	32.712911	0.000709	7.093116	2.403213	0.000284
 120	1.1841e+01	4.7293	32.959176	0.000618	6.181144	2.094228	0.000248
 121	1.1940e+01	4.7630	33.253887	0.000740	7.397107	2.506208	0.000296
 122	1.2040e+01	4.8047	33.520338	0.000669	6.687795	2.265886	0.000268
 123	1.2139e+01	4.8544	33.831197	0.000780	7.802427	2.643534	0.000312
 124	1.2239e+01	4.8769	34.057277	0.000567	5.674493	1.922570	0.000227
 125	1.2338e+01	4.9282	34.323728	0.000669	6.687795	2.265886	0.000268
 126	1.2438e+01	4.9619	34.650736	0.000821	8.207748	2.780860	0.000329
 127	1.2537e+01	5.0004	34.905076	0.000638	6.383804	2.162891	0.000256
 128	1.2636e+01	5.0437	35.199786	0.000740	7.397107	2.506208	0.000296
 129	1.2736e+01	5.0886	35.454126	0.000638	6.383804	2.162891	0.000256
 130	1.2835e+01	5.1351	35.732688	0.000699	6.991786	2.368881	0.000280
 131	1.2935e+01	5.1704	36.019325	0.000719	7.194446	2.437544	0.000288
 132	1.3034e+01	5.2057	36.277702	0.000649	6.485134	2.197223	0.000260
 133	1.3134e+01	5.2507	36.588561	0.000780	7.802427	2.643534	0.000312
 134	1.3233e+01	5.2892	36.822715	0.000588	5.877153	1.991233	0.000235
 135	1.3333e+01	5.3293	37.133575	0.000780	7.802427	2.643534	0.000312
 136	1.3432e+01	5.3742	37.383877	0.000628	6.282474	2.128560	0.000252
 137	1.3532e+01	5.4047	37.650328	0.000669	6.687795	2.265886	0.000268
 138	1.3632e+01	5.4448	37.920816	0.000679	6.789125	2.300218	0.000272
 139	1.3731e+01	5.4817	38.203415	0.000709	7.093116	2.403213	0.000284
 140	1.3831e+01	5.5234	38.445644	0.000608	6.079814	2.059897	0.000243
 141	1.3930e+01	5.5747	38.776689	0.000831	8.309079	2.815192	0.000333
 142	1.4030e+01	5.6004	39.035065	0.000649	6.485134	2.197223	0.000260
 143	1.4129e+01	5.6453	39.232885	0.000497	4.965181	1.682249	0.000199
 144	1.4229e+01	5.6918	39.539707	0.000770	7.701097	2.609202	0.000308
 145	1.4328e+01	5.7239	39.822307	0.000709	7.093116	2.403213	0.000284
 146	1.4428e+01	5.7672	40.072609	0.000628	6.282474	2.128560	0.000252
 147	1.4527e+01	5.8105	40.371357	0.000750	7.498437	2.540539	0.000300
 148	1.4627e+01	5.8426	40.609548	0.000598	5.978483	2.025565	0.000239
 149	1.4726e+01	5.8763	40.896185	0.000719	7.194446	2.437544	0.000288
 150	1.4825e+01	5.9260	41.158599	0.000659	6.586465	2.231555	0.000264
 151	1.4925e+01	5.9533	41.396790	0.000598	5.978483	2.025565	0.000239
 152	1.5024e+01	5.9950	41.687464	0.000730	7.295776	2.471876	0.000292
 153	1.5124e+01	6.0383	41.949877	0.000659	6.586465	2.231555	0.000264
 154	1.5223e+01	6.0833	42.220366	0.000679	6.789125	2.300218	0.000272
 155	1.5323e+01	6.1201	42.511039	0.000730	7.295776	2.471876	0.000292
 156	1.5422e+01	6.1747	42.773453	0.000659	6.586465	2.231555	0.000264
 157	1.5522e+01	6.2084	43.039904	0.000669	6.687795	2.265886	0.000268
 158	1.5621e+01	6.2469	43.302318	0.000659	6.586465	2.231555	0.000264
 159	1.5721e+01	6.2822	43.564732	0.000659	6.586465	2.231555	0.000264
 160	1.5820e+01	6.3287	43.798886	0.000588	5.877153	1.991233	0.000235
 161	1.5920e+01	6.3720	44.081485	0.000709	7.093116	2.403213	0.000284
 162	1.6020e+01	6.4025	44.327750	0.000618	6.181144	2.094228	0.000248
 163	1.6119e+01	6.4410	44.606313	0.000699	6.991786	2.368881	0.000280
 164	1.6218e+01	6.4763	44.856615	0.000628	6.282474	2.128560	0.000252
 165	1.6318e+01	6.5164	45.098843	0.000608	6.079814	2.059897	0.000243
 166	1.6418e+01	6.5581	45.409703	0.000780	7.802427	2.643534	0.000312
 167	1.6517e+01	6.6046	45.680191	0.000679	6.789125	2.300218	0.000272
 168	1.6616e+01	6.6351	45.910308	0.000578	5.775823	1.956902	0.000231
 169	1.6716e+01	6.6832	46.209056	0.000750	7.498437	2.540539	0.000300
 170	1.6816e+01	6.7153	46.511841	0.000760	7.599767	2.574871	0.000304
 171	1.6915e+01	6.7570	46.697549	0.000466	4.661190	1.579254	0.000187
 172	1.7015e+01	6.8003	46.996297	0.000750	7.498437	2.540539	0.000300
 173	1.7114e+01	6.8404	47.238525	0.000608	6.079814	2.059897	0.000243
 174	1.7213e+01	6.8838	47.537273	0.000750	7.498437	2.540539	0.000300
 175	1.7313e+01	6.9110	47.775464	0.000598	5.978483	2.025565	0.000239
 176	1.7413e+01	6.9543	48.098435	0.000811	8.106418	2.746529	0.000325
 177	1.7512e+01	6.9993	48.308366	0.000527	5.269172	1.785244	0.000211
 178	1.7611e+01	7.0362	48.578854	0.000679	6.789125	2.300218	0.000272
 179	1.7711e+01	7.0763	48.837231	0.000649	6.485134	2.197223	0.000260
 180	1.7811e+01	7.1196	49.051199	0.000537	5.370502	1.819575	0.000215
 181	1.7910e+01	7.1549	49.366096	0.000790	7.903758	2.677866	0.000316
 182	1.8009e+01	7.1966	49.632547	0.000669	6.687795	2.265886	0.000268
 183	1.8109e+01	7.2431	49.882849	0.000628	6.282474	2.128560	0.000252
 184	1.8209e+01	7.2816	50.149300	0.000669	6.687795	2.265886	0.000268
 185	1.8308e+01	7.3185	50.403640	0.000638	6.383804	2.162891	0.000256
 186	1.8407e+01	7.3618	50.682202	0.000699	6.991786	2.368881	0.000280
 187	1.8507e+01	7.4003	50.932504	0.000628	6.282474	2.128560	0.000252
 188	1.8607e+01	7.4388	51.223178	0.000730	7.295776	2.471876	0.000292
 189	1.8706e+01	7.4821	51.453295	0.000578	5.775823	1.956902	0.000231
 190	1.8805e+01	7.5126	51.752043	0.000750	7.498437	2.540539	0.000300
 191	1.8905e+01	7.5591	51.986197	0.000588	5.877153	1.991233	0.000235
 192	1.9005e+01	7.5944	52.232462	0.000618	6.181144	2.094228	0.000248
 193	1.9104e+01	7.6378	52.511025	0.000699	6.991786	2.368881	0.000280
 194	1.9203e+01	7.6698	52.737104	0.000567	5.674493	1.922570	0.000227
 195	1.9303e+01	7.7164	52.991444	0.000638	6.383804	2.162891	0.000256
 196	1.9402e+01	7.7517	53.261932	0.000679	6.789125	2.300218	0.000272
 197	1.9502e+01	7.7966	53.536457	0.000689	6.890455	2.334549	0.000276
 198	1.9602e+01	7.8254	53.790797	0.000638	6.383804	2.162891	0.000256
 199	1.9701e+01	7.8752	54.045136	0.000638	6.383804	2.162891	0.000256
 200	1.9800e+01	7.9169	54.299476	0.000638	6.383804	2.162891	0.000256
 201	1.9900e+01	7.9410	54.569964	0.000679	6.789125	2.300218	0.000272
 202	2.0000e+01	8.0003	54.836415	0.000669	6.687795	2.265886	0.000268
 203	2.0099e+01	8.0292	55.046346	0.000527	5.269172	1.785244	0.000211
 204	2.0198e+01	8.0741	55.308760	0.000659	6.586465	2.231555	0.000264
 205	2.0298e+01	8.1094	55.567136	0.000649	6.485134	2.197223	0.000260
 206	2.0398e+01	8.1543	55.825513	0.000649	6.485134	2.197223	0.000260
 207	2.0497e+01	8.1960	56.075815	0.000628	6.282474	2.128560	0.000252
 208	2.0596e+01	8.2329	56.326118	0.000628	6.282474	2.128560	0.000252
 209	2.0696e+01	8.2666	56.564309	0.000598	5.978483	2.025565	0.000239
 210	2.0796e+01	8.3179	56.838834	0.000689	6.890455	2.334549	0.000276
 211	2.0895e+01	8.3516	57.117396	0.000699	6.991786	2.368881	0.000280
 212	2.0994e+01	8.3966	57.371736	0.000638	6.383804	2.162891	0.000256
 213	2.1094e+01	8.4302	57.609927	0.000598	5.978483	2.025565	0.000239
 214	2.1194e+01	8.4623	57.856192	0.000618	6.181144	2.094228	0.000248
 215	2.1293e+01	8.5169	58.110532	0.000638	6.383804	2.162891	0.000256
 216	2.1392e+01	8.5554	58.368909	0.000649	6.485134	2.197223	0.000260
 217	2.1492e+01	8.5875	58.655545	0.000719	7.194446	2.437544	0.000288
 218	2.1591e+01	8.6404	58.881625	0.000567	5.674493	1.922570	0.000227
 219	2.1691e+01	8.6709	59.152113	0.000679	6.789125	2.300218	0.000272
 220	2.1791e+01	8.7158	59.374155	0.000557	5.573162	1.888239	0.000223
 221	2.1890e+01	8.7495	59.664829	0.000730	7.295776	2.471876	0.000292
 222	2.1989e+01	8.7976	59.890909	0.000567	5.674493	1.922570	0.000227
 223	2.2089e+01	8.8233	60.153322	0.000659	6.586465	2.231555	0.000264
 224	2.2189e+01	8.8650	60.407662	0.000638	6.383804	2.162891	0.000256
 225	2.2288e+01	8.9131	60.649890	0.000608	6.079814	2.059897	0.000243
 226	2.2387e+01	8.9484	60.948638	0.000750	7.498437	2.540539	0.000300
 227	2.2487e+01	8.9773	61.158569	0.000527	5.269172	1.785244	0.000211
 228	2.2587e+01	9.0302	61.420983	0.000659	6.586465	2.231555	0.000264
 229	2.2686e+01	9.0703	61.691471	0.000679	6.789125	2.300218	0.000272
 230	2.2785e+01	9.1136	61.901402	0.000527	5.269172	1.785244	0.000211
 231	2.2885e+01	9.1521	62.192076	0.000730	7.295776	2.471876	0.000292
 232	2.2985e+01	9.1890	62.422193	0.000578	5.775823	1.956902	0.000231
 233	2.3084e+01	9.2195	62.672495	0.000628	6.282474	2.128560	0.000252
 234	2.3183e+01	9.2805	62.963169	0.000730	7.295776	2.471876	0.000292
 235	2.3283e+01	9.3029	63.193286	0.000578	5.775823	1.956902	0.000231
 236	2.3383e+01	9.3591	63.415328	0.000557	5.573162	1.888239	0.000223
 237	2.3482e+01	9.3928	63.722150	0.000770	7.701097	2.609202	0.000308
 238	2.3581e+01	9.4313	63.956304	0.000588	5.877153	1.991233	0.000235
 239	2.3681e+01	9.4730	64.198533	0.000608	6.079814	2.059897	0.000243
 240	2.3780e+01	9.5099	64.440761	0.000608	6.079814	2.059897	0.000243
 241	2.3880e+01	9.5500	64.719323	0.000699	6.991786	2.368881	0.000280
 242	2.3980e+01	9.5789	64.937328	0.000547	5.471832	1.853907	0.000219
 243	2.4079e+01	9.6350	65.215891	0.000699	6.991786	2.368881	0.000280
 244	2.4178e+01	9.6703	65.446007	0.000578	5.775823	1.956902	0.000231
 245	2.4278e+01	9.7136	65.740718	0.000740	7.397107	2.506208	0.000296
 246	2.4378e+01	9.7441	65.910278	0.000426	4.255870	1.441928	0.000170
 247	2.4477e+01	9.7987	66.184803	0.000689	6.890455	2.334549	0.000276
 248	2.4576e+01	9.8211	66.386660	0.000507	5.066511	1.716581	0.000203
 249	2.4676e+01	9.8596	66.697520	0.000780	7.802427	2.643534	0.000312
 250	2.4776e+01	9.9029	66.955896	0.000649	6.485134	2.197223	0.000260
 251	2.4875e+01	9.9511	67.161790	0.000517	5.167842	1.750912	0.000207
 252	2.4974e+01	9.9944	67.416130	0.000638	6.383804	2.162891	0.000256
 253	2.5074e+01	10.0200	67.706803	0.000730	7.295776	2.471876	0.000292
 254	2.5174e+01	10.0682	67.868289	0.000405	4.053209	1.373264	0.000162
 255	2.5273e+01	10.1035	68.163000	0.000740	7.397107	2.506208	0.000296
 256	2.5372e+01	10.1404	68.381005	0.000547	5.471832	1.853907	0.000219
 257	2.5472e+01	10.1885	68.611122	0.000578	5.775823	1.956902	0.000231
 258	2.5572e+01	10.2206	68.861424	0.000628	6.282474	2.128560	0.000252
 259	2.5671e+01	10.2671	69.131912	0.000679	6.789125	2.300218	0.000272
 260	2.5770e+01	10.3024	69.386252	0.000638	6.383804	2.162891	0.000256
 261	2.5870e+01	10.3425	69.604257	0.000547	5.471832	1.853907	0.000219
 262	2.5970e+01	10.3842	69.882820	0.000699	6.991786	2.368881	0.000280
 263	2.6069e+01	10.4211	70.076602	0.000486	4.863851	1.647917	0.000195
 264	2.6169e+01	10.4660	70.339016	0.000659	6.586465	2.231555	0.000264
 265	2.6268e+01	10.5109	70.585281	0.000618	6.181144	2.094228	0.000248
 266	2.6367e+01	10.5494	70.823472	0.000598	5.978483	2.025565	0.000239
 267	2.6467e+01	10.5815	71.057626	0.000588	5.877153	1.991233	0.000235
 268	2.6567e+01	10.6248	71.291780	0.000588	5.877153	1.991233	0.000235
 269	2.6666e+01	10.6649	71.570342	0.000699	6.991786	2.368881	0.000280
 270	2.6765e+01	10.7099	71.752013	0.000456	4.559860	1.544922	0.000183
 271	2.6865e+01	10.7371	72.014427	0.000659	6.586465	2.231555	0.000264
 272	2.6965e+01	10.7885	72.244544	0.000578	5.775823	1.956902	0.000231
 273	2.7064e+01	10.8270	72.502921	0.000649	6.485134	2.197223	0.000260
 274	2.7163e+01	10.8623	72.733037	0.000578	5.775823	1.956902	0.000231
 275	2.7263e+01	10.9152	72.963154	0.000578	5.775823	1.956902	0.000231
 276	2.7363e+01	10.9553	73.225568	0.000659	6.586465	2.231555	0.000264
 277	2.7462e+01	10.9858	73.451648	0.000567	5.674493	1.922570	0.000227
 278	2.7561e+01	11.0227	73.705987	0.000638	6.383804	2.162891	0.000256
 279	2.7661e+01	11.0660	73.952252	0.000618	6.181144	2.094228	0.000248
 280	2.7761e+01	11.1173	74.174295	0.000557	5.573162	1.888239	0.000223
 281	2.7860e+01	11.1366	74.380189	0.000517	5.167842	1.750912	0.000207
 282	2.7959e+01	11.1847	74.666825	0.000719	7.194446	2.437544	0.000288
 283	2.8059e+01	11.2296	74.852534	0.000466	4.661190	1.579254	0.000187
 284	2.8159e+01	11.2681	75.082650	0.000578	5.775823	1.956902	0.000231
 285	2.8258e+01	11.3114	75.393510	0.000780	7.802427	2.643534	0.000312
 286	2.8358e+01	11.3451	75.579218	0.000466	4.661190	1.579254	0.000187
 287	2.8457e+01	11.3804	75.841632	0.000659	6.586465	2.231555	0.000264
 288	2.8556e+01	11.4221	76.067712	0.000567	5.674493	1.922570	0.000227
 289	2.8656e+01	11.4590	76.297828	0.000578	5.775823	1.956902	0.000231
 290	2.8756e+01	11.5007	76.552168	0.000638	6.383804	2.162891	0.000256
 291	2.8855e+01	11.5441	76.778247	0.000567	5.674493	1.922570	0.000227
 292	2.8954e+01	11.5745	76.984141	0.000517	5.167842	1.750912	0.000207
 293	2.9054e+01	11.6275	77.230407	0.000618	6.181144	2.094228	0.000248
 294	2.9154e+01	11.6660	77.468598	0.000598	5.978483	2.025565	0.000239
 295	2.9253e+01	11.7029	77.698714	0.000578	5.775823	1.956902	0.000231
 296	2.9352e+01	11.7350	77.916720	0.000547	5.471832	1.853907	0.000219
 297	2.9452e+01	11.7879	78.183171	0.000669	6.687795	2.265886	0.000268
 298	2.9552e+01	11.8248	78.393102	0.000527	5.269172	1.785244	0.000211
 299	2.9651e+01	11.8601	78.611107	0.000547	5.471832	1.853907	0.000219
 300	2.9750e+01	11.8954	78.829112	0.000547	5.471832	1.853907	0.000219
 301	2.9850e+01	11.9483	79.087489	0.000649	6.485134	2.197223	0.000260
 302	2.9950e+01	11.9692	79.325680	0.000598	5.978483	2.025565	0.000239
 303	3.0049e+01	12.0253	79.563871	0.000598	5.978483	2.025565	0.000239
 304	3.0148e+01	12.0606	79.789951	0.000567	5.674493	1.922570	0.000227
 305	3.0248e+01	12.1087	79.979696	0.000476	4.762521	1.613586	0.000191
 306	3.0348e+01	12.1392	80.234036	0.000638	6.383804	2.162891	0.000256
 307	3.0447e+01	12.1793	80.439930	0.000517	5.167842	1.750912	0.000207
 308	3.0547e+01	12.2226	80.698306	0.000649	6.485134	2.197223	0.000260
 309	3.0646e+01	12.2660	80.924386	0.000567	5.674493	1.922570	0.000227
 310	3.0745e+01	12.2997	81.126243	0.000507	5.066511	1.716581	0.000203
 311	3.0845e+01	12.3333	81.384619	0.000649	6.485134	2.197223	0.000260
 312	3.0945e+01	12.3734	81.590513	0.000517	5.167842	1.750912	0.000207
 313	3.1044e+01	12.4136	81.824667	0.000588	5.877153	1.991233	0.000235
 314	3.1143e+01	12.4569	82.022487	0.000497	4.965181	1.682249	0.000199
 315	3.1243e+01	12.5002	82.276826	0.000638	6.383804	2.162891	0.000256
 316	3.1343e+01	12.5371	82.454460	0.000446	4.458530	1.510591	0.000179
 317	3.1442e+01	12.5740	82.672466	0.000547	5.471832	1.853907	0.000219
 318	3.1541e+01	12.6141	82.938917	0.000669	6.687795	2.265886	0.000268
 319	3.1641e+01	12.6542	83.144811	0.000517	5.167842	1.750912	0.000207
 320	3.1741e+01	12.6927	83.399150	0.000638	6.383804	2.162891	0.000256
 321	3.1840e+01	12.7456	83.633304	0.000588	5.877153	1.991233	0.000235
 322	3.1939e+01	12.7841	83.835161	0.000507	5.066511	1.716581	0.000203
 323	3.2039e+01	12.8210	84.045092	0.000527	5.269172	1.785244	0.000211
 324	3.2139e+01	12.8467	84.271171	0.000567	5.674493	1.922570	0.000227
 325	3.2238e+01	12.8932	84.521474	0.000628	6.282474	2.128560	0.000252
 326	3.2337e+01	12.9413	84.699108	0.000446	4.458530	1.510591	0.000179
 327	3.2437e+01	12.9750	84.925187	0.000567	5.674493	1.922570	0.000227
 328	3.2536e+01	13.0103	85.163378	0.000598	5.978483	2.025565	0.000239
 329	3.2636e+01	13.0536	85.373309	0.000527	5.269172	1.785244	0.000211
 330	3.2736e+01	13.0937	85.599389	0.000567	5.674493	1.922570	0.000227
 331	3.2835e+01	13.1306	85.813357	0.000537	5.370502	1.819575	0.000215
 332	3.2934e+01	13.1788	86.023288	0.000527	5.269172	1.785244	0.000211
 333	3.3034e+01	13.2093	86.273591	0.000628	6.282474	2.128560	0.000252
 334	3.3133e+01	13.2510	86.487559	0.000537	5.370502	1.819575	0.000215
 335	3.3233e+01	13.3007	86.705564	0.000547	5.471832	1.853907	0.000219
 336	3.3333e+01	13.3360	86.927607	0.000557	5.573162	1.888239	0.000223
 337	3.3432e+01	13.3697	87.190021	0.000659	6.586465	2.231555	0.000264
 338	3.3532e+01	13.4162	87.363617	0.000436	4.357200	1.476259	0.000174
 339	3.3631e+01	13.4451	87.569511	0.000517	5.167842	1.750912	0.000207
 340	3.3730e+01	13.4884	87.807702	0.000598	5.978483	2.025565	0.000239
 341	3.3830e+01	13.5285	88.045893	0.000598	5.978483	2.025565	0.000239
 342	3.3929e+01	13.5750	88.267936	0.000557	5.573162	1.888239	0.000223
 343	3.4029e+01	13.6151	88.461718	0.000486	4.863851	1.647917	0.000195
 344	3.4129e+01	13.6552	88.687798	0.000567	5.674493	1.922570	0.000227
 345	3.4228e+01	13.6921	88.917915	0.000578	5.775823	1.956902	0.000231
 346	3.4328e+01	13.7354	89.131883	0.000537	5.370502	1.819575	0.000215
 347	3.4427e+01	13.7691	89.353925	0.000557	5.573162	1.888239	0.000223
 348	3.4526e+01	13.8092	89.551745	0.000497	4.965181	1.682249	0.000199
 349	3.4626e+01	13.8477	89.769750	0.000547	5.471832	1.853907	0.000219
 350	3.4725e+01	13.8911	89.983718	0.000537	5.370502	1.819575	0.000215
 351	3.4825e+01	13.9312	90.225947	0.000608	6.079814	2.059897	0.000243
 352	3.4925e+01	13.9697	90.435878	0.000527	5.269172	1.785244	0.000211
 353	3.5024e+01	14.0162	90.637734	0.000507	5.066511	1.716581	0.000203
 354	3.5123e+01	14.0499	90.892074	0.000638	6.383804	2.162891	0.000256
 355	3.5223e+01	14.0836	91.093931	0.000507	5.066511	1.716581	0.000203
 356	3.5322e+01	14.1317	91.291750	0.000497	4.965181	1.682249	0.000199
 357	3.5422e+01	14.1686	91.521867	0.000578	5.775823	1.956902	0.000231
 358	3.5522e+01	14.2119	91.707575	0.000466	4.661190	1.579254	0.000187
 359	3.5621e+01	14.2440	91.941729	0.000588	5.877153	1.991233	0.000235
 360	3.5721e+01	14.2857	92.131475	0.000476	4.762521	1.613586	0.000191
 361	3.5820e+01	14.3274	92.397926	0.000669	6.687795	2.265886	0.000268
 362	3.5919e+01	14.3739	92.575560	0.000446	4.458530	1.510591	0.000179
 363	3.6019e+01	14.4172	92.837973	0.000659	6.586465	2.231555	0.000264
 364	3.6118e+01	14.4541	93.011570	0.000436	4.357200	1.476259	0.000174
 365	3.6218e+01	14.4942	93.209390	0.000497	4.965181	1.682249	0.000199
 366	3.6318e+01	14.5327	93.423358	0.000537	5.370502	1.819575	0.000215
 367	3.6417e+01	14.5648	93.673661	0.000628	6.282474	2.128560	0.000252
 368	3.6517e+01	14.6065	93.883592	0.000527	5.269172	1.785244	0.000211
 369	3.6616e+01	14.6515	94.085448	0.000507	5.066511	1.716581	0.000203
 370	3.6715e+01	14.6916	94.315565	0.000578	5.775823	1.956902	0.000231
 371	3.6815e+01	14.7333	94.468976	0.000385	3.850549	1.304601	0.000154
 372	3.6914e+01	14.7702	94.723316	0.000638	6.383804	2.162891	0.000256
 373	3.7014e+01	14.8071	94.937284	0.000537	5.370502	1.819575	0.000215
 374	3.7114e+01	14.8488	95.163364	0.000567	5.674493	1.922570	0.000227
 375	3.7213e+01	14.8921	95.357146	0.000486	4.863851	1.647917	0.000195
 376	3.7313e+01	14.9258	95.559003	0.000507	5.066511	1.716581	0.000203
 377	3.7412e+01	14.9707	95.756823	0.000497	4.965181	1.682249	0.000199
 378	3.7511e+01	15.0124	95.962716	0.000517	5.167842	1.750912	0.000207
 379	3.7611e+01	15.0381	96.160536	0.000497	4.965181	1.682249	0.000199
 380	3.7711e+01	15.0878	96.414876	0.000638	6.383804	2.162891	0.000256
 381	3.7810e+01	15.1247	96.620770	0.000517	5.167842	1.750912	0.000207
 382	3.7910e+01	15.1632	96.798404	0.000446	4.458530	1.510591	0.000179
 383	3.8009e+01	15.2081	97.028520	0.000578	5.775823	1.956902	0.000231
 384	3.8108e+01	15.2370	97.218266	0.000476	4.762521	1.613586	0.000191
 385	3.8208e+01	15.2883	97.436271	0.000547	5.471832	1.853907	0.000219
 386	3.8307e+01	15.3172	97.670425	0.000588	5.877153	1.991233	0.000235
 387	3.8407e+01	15.3669	97.896505	0.000567	5.674493	1.922570	0.000227
 388	3.8507e+01	15.4071	98.098361	0.000507	5.066511	1.716581	0.000203
 389	3.8606e+01	15.4472	98.280032	0.000456	4.559860	1.544922	0.000183
 390	3.8706e+01	15.4825	98.502075	0.000557	5.573162	1.888239	0.000223
 391	3.8805e+01	15.5242	98.716043	0.000537	5.370502	1.819575	0.000215
 392	3.8904e+01	15.5659	98.930011	0.000537	5.370502	1.819575	0.000215
 393	3.9004e+01	15.6028	99.152054	0.000557	5.573162	1.888239	0.000223
 394	3.9103e+01	15.6477	99.361985	0.000527	5.269172	1.785244	0.000211
 395	3.9203e+01	15.6846	99.555767	0.000486	4.863851	1.647917	0.000195
 396	3.9303e+01	15.7311	99.785884	0.000578	5.775823	1.956902	0.000231
 397	3.9402e+01	15.7632	99.991778	0.000517	5.167842	1.750912	0.000207
 398	3.9502e+01	15.7985	100.205746	0.000537	5.370502	1.819575	0.000215
 399	3.9601e+01	15.8450	100.379343	0.000436	4.357200	1.476259	0.000174
 400	3.9700e+01	15.8835	100.609460	0.000578	5.775823	1.956902	0.000231
 401	3.9800e+01	15.9236	100.827465	0.000547	5.471832	1.853907	0.000219
 402	3.9900e+01	15.9525	101.061619	0.000588	5.877153	1.991233	0.000235
 403	3.9999e+01	15.9926	101.227141	0.000415	4.154539	1.407596	0.000166
 404	4.0099e+01	16.0439	101.416887	0.000476	4.762521	1.613586	0.000191
 405	4.0198e+01	16.0792	101.675264	0.000649	6.485134	2.197223	0.000260
 406	4.0297e+01	16.1161	101.840786	0.000415	4.154539	1.407596	0.000166
 407	4.0397e+01	16.1691	102.083014	0.000608	6.079814	2.059897	0.000243
 408	4.0496e+01	16.1995	102.268723	0.000466	4.661190	1.579254	0.000187
 409	4.0596e+01	16.2445	102.478654	0.000527	5.269172	1.785244	0.000211
 410	4.0696e+01	16.2862	102.688585	0.000527	5.269172	1.785244	0.000211
 411	4.0795e+01	16.3199	102.902553	0.000537	5.370502	1.819575	0.000215
 412	4.0895e+01	16.3584	103.076150	0.000436	4.357200	1.476259	0.000174
 413	4.0994e+01	16.4017	103.322415	0.000618	6.181144	2.094228	0.000248
 414	4.1093e+01	16.4482	103.536383	0.000537	5.370502	1.819575	0.000215
 415	4.1193e+01	16.4787	103.730166	0.000486	4.863851	1.647917	0.000195
 416	4.1292e+01	16.5204	103.952208	0.000557	5.573162	1.888239	0.000223
 417	4.1392e+01	16.5573	104.137916	0.000466	4.661190	1.579254	0.000187
 418	4.1492e+01	16.6070	104.343810	0.000517	5.167842	1.750912	0.000207
 419	4.1591e+01	16.6487	104.537593	0.000486	4.863851	1.647917	0.000195
 420	4.1691e+01	16.6872	104.731375	0.000486	4.863851	1.647917	0.000195
 421	4.1790e+01	16.7209	104.953418	0.000557	5.573162	1.888239	0.000223
 422	4.1889e+01	16.7642	105.131052	0.000446	4.458530	1.510591	0.000179
 423	4.1989e+01	16.7947	105.336946	0.000517	5.167842	1.750912	0.000207
 424	4.2089e+01	16.8509	105.591285	0.000638	6.383804	2.162891	0.000256
 425	4.2188e+01	16.8862	105.756808	0.000415	4.154539	1.407596	0.000166
 426	4.2288e+01	16.9295	105.938479	0.000456	4.559860	1.544922	0.000183
 427	4.2387e+01	16.9535	106.136299	0.000497	4.965181	1.682249	0.000199
 428	4.2486e+01	16.9968	106.334118	0.000497	4.965181	1.682249	0.000199
 429	4.2586e+01	17.0353	106.564235	0.000578	5.775823	1.956902	0.000231
 430	4.2685e+01	17.0819	106.745906	0.000456	4.559860	1.544922	0.000183
 431	4.2785e+01	17.1204	106.955837	0.000527	5.269172	1.785244	0.000211
 432	4.2885e+01	17.1637	107.198065	0.000608	6.079814	2.059897	0.000243
 433	4.2984e+01	17.2006	107.359551	0.000405	4.053209	1.373264	0.000162
 434	4.3084e+01	17.2359	107.553333	0.000486	4.863851	1.647917	0.000195
 435	4.3183e+01	17.2824	107.739041	0.000466	4.661190	1.579254	0.000187
 436	4.3282e+01	17.3177	107.948972	0.000527	5.269172	1.785244	0.000211
 437	4.3382e+01	17.3498	108.158904	0.000527	5.269172	1.785244	0.000211
 438	4.3481e+01	17.3963	108.340575	0.000456	4.559860	1.544922	0.000183
 439	4.3581e+01	17.4300	108.570691	0.000578	5.775823	1.956902	0.000231
 440	4.3681e+01	17.4797	108.744288	0.000436	4.357200	1.476259	0.000174
 441	4.3780e+01	17.5166	108.974405	0.000578	5.775823	1.956902	0.000231
 442	4.3880e+01	17.5583	109.160113	0.000466	4.661190	1.579254	0.000187
 443	4.3979e+01	17.5936	109.345821	0.000466	4.661190	1.579254	0.000187
 444	4.4078e+01	17.6417	109.584012	0.000598	5.978483	2.025565	0.000239
 445	4.4178e+01	17.6883	109.701089	0.000294	2.938577	0.995617	0.000118
 446	4.4278e+01	17.7188	109.935243	0.000588	5.877153	1.991233	0.000235
 447	4.4377e+01	17.7540	110.177471	0.000608	6.079814	2.059897	0.000243
 448	4.4477e+01	17.7974	110.363180	0.000466	4.661190	1.579254	0.000187
 449	4.4576e+01	17.8391	110.556962	0.000486	4.863851	1.647917	0.000195
 450	4.4675e+01	17.8792	110.750745	0.000486	4.863851	1.647917	0.000195
 451	4.4775e+01	17.9129	110.928379	0.000446	4.458530	1.510591	0.000179
 452	4.4874e+01	17.9562	111.130235	0.000507	5.066511	1.716581	0.000203
 453	4.4974e+01	17.9979	111.340167	0.000527	5.269172	1.785244	0.000211
 454	4.5074e+01	18.0284	111.521838	0.000456	4.559860	1.544922	0.000183
 455	4.5173e+01	18.0813	111.743880	0.000557	5.573162	1.888239	0.000223
 456	4.5273e+01	18.1134	111.941700	0.000497	4.965181	1.682249	0.000199
 457	4.5372e+01	18.1503	112.139519	0.000497	4.965181	1.682249	0.000199
 458	4.5471e+01	18.1904	112.317153	0.000446	4.458530	1.510591	0.000179
 459	4.5571e+01	18.2417	112.535159	0.000547	5.471832	1.853907	0.000219
 460	4.5670e+01	18.2722	112.728941	0.000486	4.863851	1.647917	0.000195
 461	4.5770e+01	18.3171	112.906575	0.000446	4.458530	1.510591	0.000179
 462	4.5870e+01	18.3588	113.124581	0.000547	5.471832	1.853907	0.000219
 463	4.5969e+01	18.4022	113.286066	0.000405	4.053209	1.373264	0.000162
 464	4.6069e+01	18.4326	113.500034	0.000537	5.370502	1.819575	0.000215
 465	4.6168e+01	18.4727	113.689780	0.000476	4.762521	1.613586	0.000191
 466	4.6267e+01	18.5096	113.899711	0.000527	5.269172	1.785244	0.000211
 467	4.6367e+01	18.5562	114.077345	0.000446	4.458530	1.510591	0.000179
 468	4.6467e+01	18.5979	114.279201	0.000507	5.066511	1.716581	0.000203
 469	4.6566e+01	18.6316	114.428575	0.000375	3.749218	1.270270	0.000150
 470	4.6666e+01	18.6797	114.650618	0.000557	5.573162	1.888239	0.000223
 471	4.6765e+01	18.7198	114.868623	0.000547	5.471832	1.853907	0.000219
 472	4.6864e+01	18.7551	115.009923	0.000355	3.546558	1.201606	0.000142
 473	4.6964e+01	18.7904	115.215817	0.000517	5.167842	1.750912	0.000207
 474	4.7063e+01	18.8353	115.401525	0.000466	4.661190	1.579254	0.000187
 475	4.7163e+01	18.8674	115.603382	0.000507	5.066511	1.716581	0.000203
 476	4.7263e+01	18.9091	115.805239	0.000507	5.066511	1.716581	0.000203
 477	4.7362e+01	18.9508	115.978835	0.000436	4.357200	1.476259	0.000174
 478	4.7462e+01	18.9941	116.180692	0.000507	5.066511	1.716581	0.000203
 479	4.7561e+01	19.0278	116.362363	0.000456	4.559860	1.544922	0.000183
 480	4.7660e+01	19.0727	116.548072	0.000466	4.661190	1.579254	0.000187
 481	4.7760e+01	19.1032	116.749928	0.000507	5.066511	1.716581	0.000203
 482	4.7859e+01	19.1465	116.915451	0.000415	4.154539	1.407596	0.000166
 483	4.7959e+01	19.1850	117.149605	0.000588	5.877153	1.991233	0.000235
 484	4.8059e+01	19.2380	117.327239	0.000446	4.458530	1.510591	0.000179
 485	4.8158e+01	19.2765	117.500836	0.000436	4.357200	1.476259	0.000174
 486	4.8258e+01	19.3085	117.658284	0.000395	3.951879	1.338933	0.000158
 487	4.8357e+01	19.3519	117.860141	0.000507	5.066511	1.716581	0.000203
 488	4.8456e+01	19.3839	118.049886	0.000476	4.762521	1.613586	0.000191
 489	4.8556e+01	19.4289	118.199260	0.000375	3.749218	1.270270	0.000150
 490	4.8656e+01	19.4658	118.409191	0.000527	5.269172	1.785244	0.000211
 491	4.8755e+01	19.5011	118.594899	0.000466	4.661190	1.579254	0.000187
 492	4.8855e+01	19.5540	118.788682	0.000486	4.863851	1.647917	0.000195
 493	4.8954e+01	19.5909	118.978427	0.000476	4.762521	1.613586	0.000191
 494	4.9053e+01	19.6358	119.131838	0.000385	3.850549	1.304601	0.000154
 495	4.9153e+01	19.6775	119.365992	0.000588	5.877153	1.991233	0.000235
 496	4.9252e+01	19.7112	119.519404	0.000385	3.850549	1.304601	0.000154
 497	4.9352e+01	19.7529	119.741446	0.000557	5.573162	1.888239	0.000223
 498	4.9452e+01	19.7914	119.878709	0.000345	3.445228	1.167275	0.000138
 499	4.9551e+01	19.8251	120.068454	0.000476	4.762521	1.613586	0.000191
 500	4.9651e+01	19.8668	120.274348	0.000517	5.167842	1.750912	0.000207
 501	4.9750e+01	19.9069	120.492353	0.000547	5.471832	1.853907	0.000219
 502	4.9849e+01	19.9422	120.665950	0.000436	4.357200	1.476259	0.000174
 503	4.9949e+01	19.9855	120.823398	0.000395	3.951879	1.338933	0.000158
 504	5.0048e+01	19.9406	120.698247	0.000314	3.141237	1.064280	-0.000126
 505	5.0148e+01	19.9005	120.556947	0.000355	3.546558	1.201606	-0.000142
 506	5.0248e+01	19.8652	120.423722	0.000334	3.343897	1.132943	-0.000134
 507	5.0347e+01	19.8251	120.306645	0.000294	2.938577	0.995617	-0.000118
 508	5.0447e+01	19.7866	120.185531	0.000304	3.039907	1.029948	-0.000122
 509	5.0546e+01	19.7433	120.028083	0.000395	3.951879	1.338933	-0.000158
 510	5.0645e+01	19.7016	119.898894	0.000324	3.242567	1.098612	-0.000130
 511	5.0745e+01	19.6711	119.761632	0.000345	3.445228	1.167275	-0.000138
 512	5.0844e+01	19.6278	119.583998	0.000446	4.458530	1.510591	-0.000179
 513	5.0944e+01	19.5877	119.442698	0.000355	3.546558	1.201606	-0.000142
 514	5.1044e+01	19.5428	119.309472	0.000334	3.343897	1.132943	-0.000134
 515	5.1143e+01	19.5139	119.139913	0.000426	4.255870	1.441928	-0.000170
 516	5.1242e+01	19.4706	118.982464	0.000395	3.951879	1.338933	-0.000158
 517	5.1342e+01	19.4305	118.853276	0.000324	3.242567	1.098612	-0.000130
 518	5.1441e+01	19.3823	118.711976	0.000355	3.546558	1.201606	-0.000142
 519	5.1541e+01	19.3535	118.558565	0.000385	3.850549	1.304601	-0.000154
 520	5.1641e+01	19.3053	118.417265	0.000355	3.546558	1.201606	-0.000142
 521	5.1740e+01	19.2716	118.251743	0.000415	4.154539	1.407596	-0.000166
 522	5.1840e+01	19.2267	118.118517	0.000334	3.343897	1.132943	-0.000134
 523	5.1939e+01	19.1898	117.965106	0.000385	3.850549	1.304601	-0.000154
 524	5.2038e+01	19.1369	117.799584	0.000415	4.154539	1.407596	-0.000166
 525	5.2138e+01	19.1160	117.662321	0.000345	3.445228	1.167275	-0.000138
 526	5.2237e+01	19.0727	117.492761	0.000426	4.255870	1.441928	-0.000170
 527	5.2337e+01	19.0342	117.298979	0.000486	4.863851	1.647917	-0.000195
 528	5.2437e+01	18.9909	117.173828	0.000314	3.141237	1.064280	-0.000126
 529	5.2536e+01	18.9556	116.988119	0.000466	4.661190	1.579254	-0.000187
 530	5.2636e+01	18.9187	116.867005	0.000304	3.039907	1.029948	-0.000122
 531	5.2735e+01	18.8658	116.681297	0.000466	4.661190	1.579254	-0.000187
 532	5.2834e+01	18.8273	116.552109	0.000324	3.242567	1.098612	-0.000130
 533	5.2934e+01	18.7888	116.394660	0.000395	3.951879	1.338933	-0.000158
 534	5.3033e+01	18.7519	116.221064	0.000436	4.357200	1.476259	-0.000174
 535	5.3133e+01	18.7102	116.079764	0.000355	3.546558	1.201606	-0.000142
 536	5.3233e+01	18.6749	115.898093	0.000456	4.559860	1.544922	-0.000183
 537	5.3332e+01	18.6348	115.728533	0.000426	4.255870	1.441928	-0.000170
 538	5.3431e+01	18.6027	115.575122	0.000385	3.850549	1.304601	-0.000154
 539	5.3531e+01	18.5465	115.433822	0.000355	3.546558	1.201606	-0.000142
 540	5.3630e+01	18.5128	115.276374	0.000395	3.951879	1.338933	-0.000158
 541	5.3730e+01	18.4727	115.106814	0.000426	4.255870	1.441928	-0.000170
 542	5.3830e+01	18.4326	114.957440	0.000375	3.749218	1.270270	-0.000150
 543	5.3929e+01	18.3973	114.743472	0.000537	5.370502	1.819575	-0.000215
 544	5.4029e+01	18.3637	114.594098	0.000375	3.749218	1.270270	-0.000150
 545	5.4128e+01	18.3107	114.468947	0.000314	3.141237	1.064280	-0.000126
 546	5.4227e+01	18.2722	114.299387	0.000426	4.255870	1.441928	-0.000170
 547	5.4327e+01	18.2369	114.141939	0.000395	3.951879	1.338933	-0.000158
 548	5.4426e+01	18.1920	113.984490	0.000395	3.951879	1.338933	-0.000158
 549	5.4526e+01	18.1567	113.786671	0.000497	4.965181	1.682249	-0.000199
 550	5.4626e+01	18.1134	113.657482	0.000324	3.242567	1.098612	-0.000130
 551	5.4725e+01	18.0701	113.487923	0.000426	4.255870	1.441928	-0.000170
 552	5.4825e+01	18.0348	113.338549	0.000375	3.749218	1.270270	-0.000150
 553	5.4924e+01	18.0123	113.144766	0.000486	4.863851	1.647917	-0.000195
 554	5.5023e+01	17.9466	113.003466	0.000355	3.546558	1.201606	-0.000142
 555	5.5123e+01	17.9129	112.797573	0.000517	5.167842	1.750912	-0.000207
 556	5.5222e+01	17.8776	112.644161	0.000385	3.850549	1.304601	-0.000154
 557	5.5322e+01	17.8310	112.514973	0.000324	3.242567	1.098612	-0.000130
 558	5.5422e+01	17.8022	112.333302	0.000456	4.559860	1.544922	-0.000183
 559	5.5521e+01	17.7573	112.167779	0.000415	4.154539	1.407596	-0.000166
 560	5.5620e+01	17.7171	111.978034	0.000476	4.762521	1.613586	-0.000191
 561	5.5720e+01	17.6786	111.824623	0.000385	3.850549	1.304601	-0.000154
 562	5.5819e+01	17.6369	111.663137	0.000405	4.053209	1.373264	-0.000162
 563	5.5919e+01	17.6016	111.509726	0.000385	3.850549	1.304601	-0.000154
 564	5.6019e+01	17.5631	111.356315	0.000385	3.850549	1.304601	-0.000154
 565	5.6118e+01	17.5134	111.154458	0.000507	5.066511	1.716581	-0.000203
 566	5.6218e+01	17.4845	111.033344	0.000304	3.039907	1.029948	-0.000122
 567	5.6317e+01	17.4444	110.859747	0.000436	4.357200	1.476259	-0.000174
 568	5.6416e+01	17.4011	110.665965	0.000486	4.863851	1.647917	-0.000195
 569	5.6516e+01	17.3626	110.524665	0.000355	3.546558	1.201606	-0.000142
 570	5.6615e+01	17.3177	110.371254	0.000385	3.850549	1.304601	-0.000154
 571	5.6715e+01	17.2840	110.205731	0.000415	4.154539	1.407596	-0.000166
 572	5.6815e+01	17.2423	110.032135	0.000436	4.357200	1.476259	-0.000174
 573	5.6914e+01	17.1926	109.846426	0.000466	4.661190	1.579254	-0.000187
 574	5.7014e+01	17.1541	109.668792	0.000446	4.458530	1.510591	-0.000179
 575	5.7113e+01	17.1156	109.515381	0.000385	3.850549	1.304601	-0.000154
 576	5.7212e+01	17.0851	109.398304	0.000294	2.938577	0.995617	-0.000118
 577	5.7312e+01	17.0386	109.192410	0.000517	5.167842	1.750912	-0.000207
 578	5.7411e+01	16.9968	109.034962	0.000395	3.951879	1.338933	-0.000158
 579	5.7511e+01	16.9599	108.853291	0.000456	4.559860	1.544922	-0.000183
 580	5.7611e+01	16.9214	108.691805	0.000405	4.053209	1.373264	-0.000162
 581	5.7710e+01	16.8829	108.498023	0.000486	4.863851	1.647917	-0.000195
 582	5.7809e+01	16.8412	108.328463	0.000426	4.255870	1.441928	-0.000170
 583	5.7909e+01	16.8027	108.183126	0.000365	3.647888	1.235938	-0.000146
 584	5.8008e+01	16.7546	108.013567	0.000426	4.255870	1.441928	-0.000170
 585	5.8108e+01	16.7177	107.815747	0.000497	4.965181	1.682249	-0.000199
 586	5.8208e+01	16.6840	107.682522	0.000334	3.343897	1.132943	-0.000134
 587	5.8307e+01	16.6359	107.480665	0.000507	5.066511	1.716581	-0.000203
 588	5.8407e+01	16.5942	107.294957	0.000466	4.661190	1.579254	-0.000187
 589	5.8506e+01	16.5605	107.145582	0.000375	3.749218	1.270270	-0.000150
 590	5.8605e+01	16.5204	106.947763	0.000497	4.965181	1.682249	-0.000199
 591	5.8705e+01	16.4851	106.778203	0.000426	4.255870	1.441928	-0.000170
 592	5.8804e+01	16.4434	106.636903	0.000355	3.546558	1.201606	-0.000142
 593	5.8904e+01	16.4065	106.463307	0.000436	4.357200	1.476259	-0.000174
 594	5.9004e+01	16.3503	106.261450	0.000507	5.066511	1.716581	-0.000203
 595	5.9103e+01	16.3167	106.051519	0.000527	5.269172	1.785244	-0.000211
 596	5.9203e+01	16.2830	105.926367	0.000314	3.141237	1.064280	-0.000126
 597	5.9302e+01	16.2413	105.708362	0.000547	5.471832	1.853907	-0.000219
 598	5.9401e+01	16.1979	105.571100	0.000345	3.445228	1.167275	-0.000138
 599	5.9501e+01	16.1626	105.393466	0.000446	4.458530	1.510591	-0.000179
 600	5.9600e+01	16.1225	105.219869	0.000436	4.357200	1.476259	-0.000174
 601	5.9700e+01	16.0728	105.078569	0.000355	3.546558	1.201606	-0.000142
 602	5.9800e+01	16.0471	104.848452	0.000578	5.775823	1.956902	-0.000231
 603	5.9899e+01	16.0038	104.674855	0.000436	4.357200	1.476259	-0.000174
 604	5.9998e+01	15.9701	104.481073	0.000486	4.863851	1.647917	-0.000195
 605	6.0098e+01	15.9220	104.323625	0.000395	3.951879	1.338933	-0.000158
 606	6.0197e+01	15.8851	104.125805	0.000497	4.965181	1.682249	-0.000199
 607	6.0297e+01	15.8402	103.964320	0.000405	4.053209	1.373264	-0.000162
 608	6.0397e+01	15.7937	103.814946	0.000375	3.749218	1.270270	-0.000150
 609	6.0496e+01	15.7776	103.685757	0.000324	3.242567	1.098612	-0.000130
 610	6.0596e+01	15.7311	103.455640	0.000578	5.775823	1.956902	-0.000231
 611	6.0695e+01	15.6798	103.286081	0.000426	4.255870	1.441928	-0.000170
 612	6.0794e+01	15.6461	103.088261	0.000497	4.965181	1.682249	-0.000199
 613	6.0894e+01	15.5996	102.918701	0.000426	4.255870	1.441928	-0.000170
 614	6.0993e+01	15.5611	102.749142	0.000426	4.255870	1.441928	-0.000170
 615	6.1093e+01	15.5258	102.591693	0.000395	3.951879	1.338933	-0.000158
 616	6.1193e+01	15.4889	102.405985	0.000466	4.661190	1.579254	-0.000187
 617	6.1292e+01	15.4456	102.212203	0.000486	4.863851	1.647917	-0.000195
 618	6.1392e+01	15.4071	102.058791	0.000385	3.850549	1.304601	-0.000154
 619	6.1491e+01	15.3686	101.844823	0.000537	5.370502	1.819575	-0.000215
 620	6.1590e+01	15.3124	101.655078	0.000476	4.762521	1.613586	-0.000191
 621	6.1690e+01	15.2867	101.465333	0.000476	4.762521	1.613586	-0.000191
 622	6.1789e+01	15.2482	101.275587	0.000476	4.762521	1.613586	-0.000191
 623	6.1889e+01	15.2065	101.146399	0.000324	3.242567	1.098612	-0.000130
 624	6.1989e+01	15.1696	100.924356	0.000557	5.573162	1.888239	-0.000223
 625	6.2088e+01	15.1199	100.766908	0.000395	3.951879	1.338933	-0.000158
 626	6.2188e+01	15.0926	100.577163	0.000476	4.762521	1.613586	-0.000191
 627	6.2287e+01	15.0429	100.407603	0.000426	4.255870	1.441928	-0.000170
 628	6.2386e+01	15.0028	100.205746	0.000507	5.066511	1.716581	-0.000203
 629	6.2486e+01	14.9643	100.032149	0.000436	4.357200	1.476259	-0.000174
 630	6.2586e+01	14.9178	99.846441	0.000466	4.661190	1.579254	-0.000187
 631	6.2685e+01	14.8921	99.632473	0.000537	5.370502	1.819575	-0.000215
 632	6.2785e+01	14.8520	99.458876	0.000436	4.357200	1.476259	-0.000174
 633	6.2884e+01	14.8039	99.289316	0.000426	4.255870	1.441928	-0.000170
 634	6.2983e+01	14.7670	99.079385	0.000527	5.269172	1.785244	-0.000211
 635	6.3083e+01	14.7285	98.921937	0.000395	3.951879	1.338933	-0.000158
 636	6.3182e+01	14.6900	98.724117	0.000497	4.965181	1.682249	-0.000199
 637	6.3282e+01	14.6450	98.554558	0.000426	4.255870	1.441928	-0.000170
 638	6.3382e+01	14.6097	98.320404	0.000588	5.877153	1.991233	-0.000235
 639	6.3481e+01	14.5712	98.146807	0.000436	4.357200	1.476259	-0.000174
 640	6.3581e+01	14.5392	97.969173	0.000446	4.458530	1.510591	-0.000179
 641	6.3680e+01	14.4926	97.799613	0.000426	4.255870	1.441928	-0.000170
 642	6.3779e+01	14.4493	97.581608	0.000547	5.471832	1.853907	-0.000219
 643	6.3879e+01	14.4140	97.436271	0.000365	3.647888	1.235938	-0.000146
 644	6.3978e+01	14.3771	97.234414	0.000507	5.066511	1.716581	-0.000203
 645	6.4078e+01	14.3322	97.016409	0.000547	5.471832	1.853907	-0.000219
 646	6.4177e+01	14.2937	96.818589	0.000497	4.965181	1.682249	-0.000199
 647	6.4277e+01	14.2552	96.628844	0.000476	4.762521	1.613586	-0.000191
 648	6.4376e+01	14.2087	96.431024	0.000497	4.965181	1.682249	-0.000199
 649	6.4476e+01	14.1734	96.281650	0.000375	3.749218	1.270270	-0.000150
 650	6.4576e+01	14.1333	96.051533	0.000578	5.775823	1.956902	-0.000231
 651	6.4675e+01	14.0852	95.857751	0.000486	4.863851	1.647917	-0.000195
 652	6.4775e+01	14.0499	95.700303	0.000395	3.951879	1.338933	-0.000158
 653	6.4874e+01	14.0098	95.498446	0.000507	5.066511	1.716581	-0.000203
 654	6.4974e+01	13.9729	95.316775	0.000456	4.559860	1.544922	-0.000183
 655	6.5073e+01	13.9360	95.082621	0.000588	5.877153	1.991233	-0.000235
 656	6.5172e+01	13.8798	94.896913	0.000466	4.661190	1.579254	-0.000187
 657	6.5272e+01	13.8493	94.723316	0.000436	4.357200	1.476259	-0.000174
 658	6.5371e+01	13.8157	94.521459	0.000507	5.066511	1.716581	-0.000203
 659	6.5471e+01	13.7643	94.319602	0.000507	5.066511	1.716581	-0.000203
 660	6.5570e+01	13.7242	94.117745	0.000507	5.066511	1.716581	-0.000203
 661	6.5670e+01	13.6873	93.903777	0.000537	5.370502	1.819575	-0.000215
 662	6.5769e+01	13.6552	93.742292	0.000405	4.053209	1.373264	-0.000162
 663	6.5869e+01	13.6039	93.528324	0.000537	5.370502	1.819575	-0.000215
 664	6.5969e+01	13.5702	93.338578	0.000476	4.762521	1.613586	-0.000191
 665	6.6068e+01	13.5333	93.136721	0.000507	5.066511	1.716581	-0.000203
 666	6.6168e+01	13.4900	92.951013	0.000466	4.661190	1.579254	-0.000187
 667	6.6267e+01	13.4579	92.797602	0.000385	3.850549	1.304601	-0.000154
 668	6.6367e+01	13.4130	92.559411	0.000598	5.978483	2.025565	-0.000239
 669	6.6466e+01	13.3761	92.369666	0.000476	4.762521	1.613586	-0.000191
 670	6.6566e+01	13.3312	92.171846	0.000497	4.965181	1.682249	-0.000199
 671	6.6665e+01	13.2847	92.014398	0.000395	3.951879	1.338933	-0.000158
 672	6.6764e+01	13.2542	91.788318	0.000567	5.674493	1.922570	-0.000227
 673	6.6864e+01	13.2109	91.566276	0.000557	5.573162	1.888239	-0.000223
 674	6.6963e+01	13.1659	91.412865	0.000385	3.850549	1.304601	-0.000154
 675	6.7063e+01	13.1355	91.198896	0.000537	5.370502	1.819575	-0.000215
 676	6.7162e+01	13.0970	90.997040	0.000507	5.066511	1.716581	-0.000203
 677	6.7262e+01	13.0536	90.811331	0.000466	4.661190	1.579254	-0.000187
 678	6.7362e+01	13.0119	90.617549	0.000486	4.863851	1.647917	-0.000195
 679	6.7461e+01	12.9847	90.395506	0.000557	5.573162	1.888239	-0.000223
 680	6.7561e+01	12.9285	90.217872	0.000446	4.458530	1.510591	-0.000179
 681	6.7660e+01	12.8980	90.003904	0.000537	5.370502	1.819575	-0.000215
 682	6.7760e+01	12.8483	89.834344	0.000426	4.255870	1.441928	-0.000170
 683	6.7859e+01	12.8130	89.612302	0.000557	5.573162	1.888239	-0.000223
 684	6.7959e+01	12.7777	89.475039	0.000345	3.445228	1.167275	-0.000138
 685	6.8058e+01	12.7360	89.228774	0.000618	6.181144	2.094228	-0.000248
 686	6.8157e+01	12.7007	89.039029	0.000476	4.762521	1.613586	-0.000191
 687	6.8257e+01	12.6590	88.804875	0.000588	5.877153	1.991233	-0.000235
 688	6.8356e+01	12.6205	88.586869	0.000547	5.471832	1.853907	-0.000219
 689	6.8456e+01	12.5756	88.413273	0.000436	4.357200	1.476259	-0.000174
 690	6.8555e+01	12.5451	88.219490	0.000486	4.863851	1.647917	-0.000195
 691	6.8655e+01	12.5034	88.029745	0.000476	4.762521	1.613586	-0.000191
 692	6.8754e+01	12.4601	87.823851	0.000517	5.167842	1.750912	-0.000207
 693	6.8854e+01	12.4087	87.642180	0.000456	4.559860	1.544922	-0.000183
 694	6.8954e+01	12.3831	87.412063	0.000578	5.775823	1.956902	-0.000231
 695	6.9053e+01	12.3446	87.181946	0.000578	5.775823	1.956902	-0.000231
 696	6.9153e+01	12.2997	87.016424	0.000415	4.154539	1.407596	-0.000166
 697	6.9252e+01	12.2628	86.766121	0.000628	6.282474	2.128560	-0.000252
 698	6.9352e+01	12.2178	86.608673	0.000395	3.951879	1.338933	-0.000158
 699	6.9451e+01	12.1906	86.394705	0.000537	5.370502	1.819575	-0.000215
 700	6.9550e+01	12.1360	86.188811	0.000517	5.167842	1.750912	-0.000207
 701	6.9650e+01	12.0959	85.990991	0.000497	4.965181	1.682249	-0.000199
 702	6.9749e+01	12.0558	85.760874	0.000578	5.775823	1.956902	-0.000231
 703	6.9849e+01	12.0221	85.571129	0.000476	4.762521	1.613586	-0.000191
 704	6.9948e+01	11.9900	85.377347	0.000486	4.863851	1.647917	-0.000195
 705	7.0048e+01	11.9387	85.179527	0.000497	4.965181	1.682249	-0.000199
 706	7.0147e+01	11.9082	84.949410	0.000578	5.775823	1.956902	-0.000231
 707	7.0247e+01	11.8617	84.751591	0.000497	4.965181	1.682249	-0.000199
 708	7.0347e+01	11.8120	84.533585	0.000547	5.471832	1.853907	-0.000219
 709	7.0446e+01	11.7815	84.376137	0.000395	3.951879	1.338933	-0.000158
 710	7.0546e+01	11.7462	84.117760	0.000649	6.485134	2.197223	-0.000260
 711	7.0645e+01	11.7109	83.928015	0.000476	4.762521	1.613586	-0.000191
 712	7.0745e+01	11.6531	83.689824	0.000598	5.978483	2.025565	-0.000239
 713	7.0844e+01	11.6211	83.483930	0.000517	5.167842	1.750912	-0.000207
 714	7.0944e+01	11.5745	83.322444	0.000405	4.053209	1.373264	-0.000162
 715	7.1043e+01	11.5521	83.132699	0.000476	4.762521	1.613586	-0.000191
 716	7.1142e+01	11.4991	82.882397	0.000628	6.282474	2.128560	-0.000252
 717	7.1242e+01	11.4687	82.692651	0.000476	4.762521	1.613586	-0.000191
 718	7.1341e+01	11.4237	82.474646	0.000547	5.471832	1.853907	-0.000219
 719	7.1441e+01	11.3868	82.272789	0.000507	5.066511	1.716581	-0.000203
 720	7.1540e+01	11.3516	82.050747	0.000557	5.573162	1.888239	-0.000223
 721	7.1640e+01	11.3082	81.869076	0.000456	4.559860	1.544922	-0.000183
 722	7.1740e+01	11.2601	81.614736	0.000638	6.383804	2.162891	-0.000256
 723	7.1839e+01	11.2232	81.441139	0.000436	4.357200	1.476259	-0.000174
 724	7.1939e+01	11.1815	81.235245	0.000517	5.167842	1.750912	-0.000207
 725	7.2038e+01	11.1462	81.001091	0.000588	5.877153	1.991233	-0.000235
 726	7.2138e+01	11.1077	80.803272	0.000497	4.965181	1.682249	-0.000199
 727	7.2237e+01	11.0580	80.581229	0.000557	5.573162	1.888239	-0.000223
 728	7.2337e+01	11.0195	80.383410	0.000497	4.965181	1.682249	-0.000199
 729	7.2436e+01	10.9890	80.193664	0.000476	4.762521	1.613586	-0.000191
 730	7.2535e+01	10.9409	79.971622	0.000557	5.573162	1.888239	-0.000223
 731	7.2635e+01	10.9008	79.810136	0.000405	4.053209	1.373264	-0.000162
 732	7.2734e+01	10.8639	79.567908	0.000608	6.079814	2.059897	-0.000243
 733	7.2834e+01	10.8270	79.325680	0.000608	6.079814	2.059897	-0.000243
 734	7.2933e+01	10.7901	79.139972	0.000466	4.661190	1.579254	-0.000187
 735	7.3033e+01	10.7339	78.926004	0.000537	5.370502	1.819575	-0.000215
 736	7.3132e+01	10.7099	78.699924	0.000567	5.674493	1.922570	-0.000227
 737	7.3232e+01	10.6714	78.498067	0.000507	5.066511	1.716581	-0.000203
 738	7.3332e+01	10.6152	78.288136	0.000527	5.269172	1.785244	-0.000211
 739	7.3431e+01	10.5783	78.086279	0.000507	5.066511	1.716581	-0.000203
 740	7.3531e+01	10.5494	77.876348	0.000527	5.269172	1.785244	-0.000211
 741	7.3630e+01	10.5077	77.666417	0.000527	5.269172	1.785244	-0.000211
 742	7.3730e+01	10.4612	77.448412	0.000547	5.471832	1.853907	-0.000219
 743	7.3829e+01	10.4227	77.254629	0.000486	4.863851	1.647917	-0.000195
 744	7.3928e+01	10.3778	76.996253	0.000649	6.485134	2.197223	-0.000260
 745	7.4028e+01	10.3425	76.826693	0.000426	4.255870	1.441928	-0.000170
 746	7.4127e+01	10.3088	76.592539	0.000588	5.877153	1.991233	-0.000235
 747	7.4227e+01	10.2671	76.382608	0.000527	5.269172	1.785244	-0.000211
 748	7.4326e+01	10.2254	76.152491	0.000578	5.775823	1.956902	-0.000231
 749	7.4426e+01	10.1869	75.966783	0.000466	4.661190	1.579254	-0.000187
 750	7.4525e+01	10.1516	75.777038	0.000476	4.762521	1.613586	-0.000191
 751	7.4625e+01	10.1131	75.526735	0.000628	6.282474	2.128560	-0.000252
 752	7.4725e+01	10.0746	75.312767	0.000537	5.370502	1.819575	-0.000215
 753	7.4824e+01	10.0345	75.038242	0.000689	6.890455	2.334549	-0.000276
 754	7.4924e+01	9.9831	74.888868	0.000375	3.749218	1.270270	-0.000150
 755	7.5023e+01	9.9511	74.646640	0.000608	6.079814	2.059897	-0.000243
 756	7.5123e+01	9.9061	74.412486	0.000588	5.877153	1.991233	-0.000235
 757	7.5222e+01	9.8596	74.198518	0.000537	5.370502	1.819575	-0.000215
 758	7.5322e+01	9.8243	73.996661	0.000507	5.066511	1.716581	-0.000203
 759	7.5421e+01	9.8003	73.814990	0.000456	4.559860	1.544922	-0.000183
 760	7.5520e+01	9.7489	73.552576	0.000659	6.586465	2.231555	-0.000264
 761	7.5620e+01	9.7184	73.342645	0.000527	5.269172	1.785244	-0.000211
 762	7.5719e+01	9.6671	73.116565	0.000567	5.674493	1.922570	-0.000227
 763	7.5819e+01	9.6286	72.926820	0.000476	4.762521	1.613586	-0.000191
 764	7.5918e+01	9.5853	72.676518	0.000628	6.282474	2.128560	-0.000252
 765	7.6018e+01	9.5484	72.470624	0.000517	5.167842	1.750912	-0.000207
 766	7.6118e+01	9.5147	72.216284	0.000638	6.383804	2.162891	-0.000256
 767	7.6217e+01	9.4714	72.006353	0.000527	5.269172	1.785244	-0.000211
 768	7.6317e+01	9.4281	71.780273	0.000567	5.674493	1.922570	-0.000227
 769	7.6416e+01	9.3783	71.594565	0.000466	4.661190	1.579254	-0.000187
 770	7.6516e+01	9.3463	71.348300	0.000618	6.181144	2.094228	-0.000248
 771	7.6615e+01	9.3046	71.150480	0.000497	4.965181	1.682249	-0.000199
 772	7.6715e+01	9.2644	70.884029	0.000669	6.687795	2.265886	-0.000268
 773	7.6814e+01	9.2259	70.666024	0.000547	5.471832	1.853907	-0.000219
 774	7.6913e+01	9.1955	70.456093	0.000527	5.269172	1.785244	-0.000211
 775	7.7013e+01	9.1489	70.225976	0.000578	5.775823	1.956902	-0.000231
 776	7.7112e+01	9.1153	69.971637	0.000638	6.383804	2.162891	-0.000256
 777	7.7212e+01	9.0639	69.798040	0.000436	4.357200	1.476259	-0.000174
 778	7.7311e+01	9.0350	69.539663	0.000649	6.485134	2.197223	-0.000260
 779	7.7411e+01	8.9981	69.357992	0.000456	4.559860	1.544922	-0.000183
 780	7.7510e+01	8.9468	69.091541	0.000669	6.687795	2.265886	-0.000268
 781	7.7610e+01	8.9067	68.885647	0.000517	5.167842	1.750912	-0.000207
 782	7.7710e+01	8.8666	68.647456	0.000598	5.978483	2.025565	-0.000239
 783	7.7809e+01	8.8281	68.461748	0.000466	4.661190	1.579254	-0.000187
 784	7.7909e+01	8.8024	68.199334	0.000659	6.586465	2.231555	-0.000264
 785	7.8008e+01	8.7543	67.981329	0.000547	5.471832	1.853907	-0.000219
 786	7.8108e+01	8.7126	67.771398	0.000527	5.269172	1.785244	-0.000211
 787	7.8207e+01	8.6725	67.517058	0.000638	6.383804	2.162891	-0.000256
 788	7.8306e+01	8.6260	67.290978	0.000567	5.674493	1.922570	-0.000227
 789	7.8406e+01	8.5907	67.064899	0.000567	5.674493	1.922570	-0.000227
 790	7.8505e+01	8.5586	66.854968	0.000527	5.269172	1.785244	-0.000211
 791	7.8605e+01	8.5233	66.612740	0.000608	6.079814	2.059897	-0.000243
 792	7.8704e+01	8.4720	66.382623	0.000578	5.775823	1.956902	-0.000231
 793	7.8804e+01	8.4367	66.148469	0.000588	5.877153	1.991233	-0.000235
 794	7.8903e+01	8.4078	65.918352	0.000578	5.775823	1.956902	-0.000231
 795	7.9003e+01	8.3532	65.720533	0.000497	4.965181	1.682249	-0.000199
 796	7.9103e+01	8.3099	65.482342	0.000598	5.978483	2.025565	-0.000239
 797	7.9202e+01	8.2666	65.244151	0.000598	5.978483	2.025565	-0.000239
 798	7.9302e+01	8.2345	64.997885	0.000618	6.181144	2.094228	-0.000248
 799	7.9401e+01	8.1912	64.775843	0.000557	5.573162	1.888239	-0.000223
 800	7.9501e+01	8.1527	64.533615	0.000608	6.079814	2.059897	-0.000243
 801	7.9600e+01	8.1046	64.303498	0.000578	5.775823	1.956902	-0.000231
 802	7.9700e+01	8.0757	64.061270	0.000608	6.079814	2.059897	-0.000243
 803	7.9799e+01	8.0356	63.855376	0.000517	5.167842	1.750912	-0.000207
 804	7.9898e+01	7.9955	63.629296	0.000567	5.674493	1.922570	-0.000227
 805	7.9998e+01	7.9618	63.346697	0.000709	7.093116	2.403213	-0.000284
 806	8.0097e+01	7.9105	63.104469	0.000608	6.079814	2.059897	-0.000243
 807	8.0197e+01	7.8656	62.906649	0.000497	4.965181	1.682249	-0.000199
 808	8.0296e+01	7.8479	62.664421	0.000608	6.079814	2.059897	-0.000243
 809	8.0396e+01	7.7966	62.406044	0.000649	6.485134	2.197223	-0.000260
 810	8.0496e+01	7.7565	62.167853	0.000598	5.978483	2.025565	-0.000239
 811	8.0595e+01	7.7132	61.933699	0.000588	5.877153	1.991233	-0.000235
 812	8.0695e+01	7.6746	61.663211	0.000679	6.789125	2.300218	-0.000272
 813	8.0794e+01	7.6297	61.477503	0.000466	4.661190	1.579254	-0.000187
 814	8.0894e+01	7.5912	61.239312	0.000598	5.978483	2.025565	-0.000239
 815	8.0993e+01	7.5591	60.980935	0.000649	6.485134	2.197223	-0.000260
 816	8.1093e+01	7.5206	60.787153	0.000486	4.863851	1.647917	-0.000195
 817	8.1192e+01	7.4805	60.496479	0.000730	7.295776	2.471876	-0.000292
 818	8.1291e+01	7.4404	60.278474	0.000547	5.471832	1.853907	-0.000219
 819	8.1391e+01	7.3955	60.003948	0.000689	6.890455	2.334549	-0.000276
 820	8.1490e+01	7.3586	59.753646	0.000628	6.282474	2.128560	-0.000252
 821	8.1590e+01	7.3233	59.551789	0.000507	5.066511	1.716581	-0.000203
 822	8.1689e+01	7.2752	59.281301	0.000679	6.789125	2.300218	-0.000272
 823	8.1789e+01	7.2431	59.059259	0.000557	5.573162	1.888239	-0.000223
 824	8.1888e+01	7.1982	58.788771	0.000679	6.789125	2.300218	-0.000272
 825	8.1988e+01	7.1517	58.566728	0.000557	5.573162	1.888239	-0.000223
 826	8.2088e+01	7.1228	58.312389	0.000638	6.383804	2.162891	-0.000256
 827	8.2187e+01	7.0747	58.054012	0.000649	6.485134	2.197223	-0.000260
 828	8.2287e+01	7.0346	57.803709	0.000628	6.282474	2.128560	-0.000252
 829	8.2386e+01	6.9945	57.581667	0.000557	5.573162	1.888239	-0.000223
 830	8.2486e+01	6.9592	57.327327	0.000638	6.383804	2.162891	-0.000256
 831	8.2585e+01	6.9191	57.081062	0.000618	6.181144	2.094228	-0.000248
 832	8.2684e+01	6.8757	56.871131	0.000527	5.269172	1.785244	-0.000211
 833	8.2784e+01	6.8244	56.584495	0.000719	7.194446	2.437544	-0.000288
 834	8.2883e+01	6.8068	56.362452	0.000557	5.573162	1.888239	-0.000223
 835	8.2983e+01	6.7522	56.087927	0.000689	6.890455	2.334549	-0.000276
 836	8.3082e+01	6.7169	55.841662	0.000618	6.181144	2.094228	-0.000248
 837	8.3182e+01	6.6800	55.579248	0.000659	6.586465	2.231555	-0.000264
 838	8.3281e+01	6.6399	55.405651	0.000436	4.357200	1.476259	-0.000174
 839	8.3381e+01	6.6014	55.127089	0.000699	6.991786	2.368881	-0.000280
 840	8.3481e+01	6.5597	54.888897	0.000598	5.978483	2.025565	-0.000239
 841	8.3580e+01	6.5196	54.638595	0.000628	6.282474	2.128560	-0.000252
 842	8.3680e+01	6.4795	54.372144	0.000669	6.687795	2.265886	-0.000268
 843	8.3779e+01	6.4442	54.129916	0.000608	6.079814	2.059897	-0.000243
 844	8.3879e+01	6.4137	53.903836	0.000567	5.674493	1.922570	-0.000227
 845	8.3978e+01	6.3624	53.613163	0.000730	7.295776	2.471876	-0.000292
 846	8.4078e+01	6.3223	53.387083	0.000567	5.674493	1.922570	-0.000227
 847	8.4177e+01	6.2870	53.165041	0.000557	5.573162	1.888239	-0.000223
 848	8.4276e+01	6.2421	52.894552	0.000679	6.789125	2.300218	-0.000272
 849	8.4376e+01	6.1955	52.632139	0.000659	6.586465	2.231555	-0.000264
 850	8.4475e+01	6.1635	52.397985	0.000588	5.877153	1.991233	-0.000235
 851	8.4575e+01	6.1250	52.143645	0.000638	6.383804	2.162891	-0.000256
 852	8.4674e+01	6.0865	51.873157	0.000679	6.789125	2.300218	-0.000272
 853	8.4774e+01	6.0415	51.679375	0.000486	4.863851	1.647917	-0.000195
 854	8.4874e+01	6.0111	51.408886	0.000679	6.789125	2.300218	-0.000272
 855	8.4973e+01	5.9677	51.142436	0.000669	6.687795	2.265886	-0.000268
 856	8.5073e+01	5.9276	50.920393	0.000557	5.573162	1.888239	-0.000223
 857	8.5172e+01	5.8875	50.662016	0.000649	6.485134	2.197223	-0.000260
 858	8.5272e+01	5.8490	50.391528	0.000679	6.789125	2.300218	-0.000272
 859	8.5371e+01	5.8057	50.141226	0.000628	6.282474	2.128560	-0.000252
 860	8.5471e+01	5.7640	49.894961	0.000618	6.181144	2.094228	-0.000248
 861	8.5570e+01	5.7223	49.600250	0.000740	7.397107	2.506208	-0.000296
 862	8.5669e+01	5.6806	49.378207	0.000557	5.573162	1.888239	-0.000223
 863	8.5769e+01	5.6421	49.079459	0.000750	7.498437	2.540539	-0.000300
 864	8.5868e+01	5.6100	48.861454	0.000547	5.471832	1.853907	-0.000219
 865	8.5968e+01	5.5699	48.590966	0.000679	6.789125	2.300218	-0.000272
 866	8.6067e+01	5.5234	48.336626	0.000638	6.383804	2.162891	-0.000256
 867	8.6167e+01	5.4897	48.126695	0.000527	5.269172	1.785244	-0.000211
 868	8.6266e+01	5.4335	47.811799	0.000790	7.903758	2.677866	-0.000316
 869	8.6366e+01	5.4143	47.589756	0.000557	5.573162	1.888239	-0.000223
 870	8.6466e+01	5.3646	47.347528	0.000608	6.079814	2.059897	-0.000243
 871	8.6565e+01	5.3261	47.052817	0.000740	7.397107	2.506208	-0.000296
 872	8.6665e+01	5.2876	46.794440	0.000649	6.485134	2.197223	-0.000260
 873	8.6764e+01	5.2458	46.576435	0.000547	5.471832	1.853907	-0.000219
 874	8.6864e+01	5.2089	46.301910	0.000689	6.890455	2.334549	-0.000276
 875	8.6963e+01	5.1608	46.027385	0.000689	6.890455	2.334549	-0.000276
 876	8.7063e+01	5.1303	45.764971	0.000659	6.586465	2.231555	-0.000264
 877	8.7162e+01	5.0870	45.458148	0.000770	7.701097	2.609202	-0.000308
 878	8.7261e+01	5.0501	45.264366	0.000486	4.863851	1.647917	-0.000195
 879	8.7361e+01	5.0132	44.981766	0.000709	7.093116	2.403213	-0.000284
 880	8.7460e+01	4.9683	44.751650	0.000578	5.775823	1.956902	-0.000231
 881	8.7560e+01	4.9266	44.460976	0.000730	7.295776	2.471876	-0.000292
 882	8.7659e+01	4.8897	44.186451	0.000689	6.890455	2.334549	-0.000276
 883	8.7759e+01	4.8464	43.968445	0.000547	5.471832	1.853907	-0.000219
 884	8.7859e+01	4.8047	43.677772	0.000730	7.295776	2.471876	-0.000292
 885	8.7958e+01	4.7710	43.431506	0.000618	6.181144	2.094228	-0.000248
 886	8.8058e+01	4.7309	43.177167	0.000638	6.383804	2.162891	-0.000256
 887	8.8157e+01	4.6844	42.934939	0.000608	6.079814	2.059897	-0.000243
 888	8.8257e+01	4.6571	42.620042	0.000790	7.903758	2.677866	-0.000316
 889	8.8356e+01	4.6009	42.381851	0.000598	5.978483	2.025565	-0.000239
 890	8.8456e+01	4.5640	42.135586	0.000618	6.181144	2.094228	-0.000248
 891	8.8555e+01	4.5336	41.840875	0.000740	7.397107	2.506208	-0.000296
 892	8.8654e+01	4.4822	41.622869	0.000547	5.471832	1.853907	-0.000219
 893	8.8754e+01	4.4550	41.344307	0.000699	6.991786	2.368881	-0.000280
 894	8.8853e+01	4.4068	41.089968	0.000638	6.383804	2.162891	-0.000256
 895	8.8953e+01	4.3699	40.815442	0.000689	6.890455	2.334549	-0.000276
 896	8.9052e+01	4.3346	40.569177	0.000618	6.181144	2.094228	-0.000248
 897	8.9152e+01	4.2913	40.310800	0.000649	6.485134	2.197223	-0.000260
 898	8.9251e+01	4.2544	40.048387	0.000659	6.586465	2.231555	-0.000264
 899	8.9351e+01	4.2143	39.757713	0.000730	7.295776	2.471876	-0.000292
 900	8.9451e+01	4.1662	39.495299	0.000659	6.586465	2.231555	-0.000264
 901	8.9550e+01	4.1309	39.285368	0.000527	5.269172	1.785244	-0.000211
 902	8.9650e+01	4.0860	38.966434	0.000801	8.005088	2.712197	-0.000321
 903	8.9749e+01	4.0475	38.708057	0.000649	6.485134	2.197223	-0.000260
 904	8.9849e+01	4.0090	38.481978	0.000567	5.674493	1.922570	-0.000227
 905	8.9948e+01	3.9785	38.183230	0.000750	7.498437	2.540539	-0.000300
 906	9.0047e+01	3.9336	37.961187	0.000557	5.573162	1.888239	-0.000223
 907	9.0147e+01	3.8903	37.678588	0.000709	7.093116	2.403213	-0.000284
 908	9.0246e+01	3.8373	37.383877	0.000740	7.397107	2.506208	-0.000296
 909	9.0346e+01	3.8149	37.161834	0.000557	5.573162	1.888239	-0.000223
 910	9.0445e+01	3.7780	36.875198	0.000719	7.194446	2.437544	-0.000288
 911	9.0545e+01	3.7298	36.632970	0.000608	6.079814	2.059897	-0.000243
 912	9.0644e+01	3.6833	36.366519	0.000669	6.687795	2.265886	-0.000268
 913	9.0744e+01	3.6512	36.096031	0.000679	6.789125	2.300218	-0.000272
 914	9.0844e+01	3.5999	35.821505	0.000689	6.890455	2.334549	-0.000276
 915	9.0943e+01	3.5790	35.591389	0.000578	5.775823	1.956902	-0.000231
 916	9.1043e+01	3.5309	35.268418	0.000811	8.106418	2.746529	-0.000325
 917	9.1142e+01	3.4876	35.014078	0.000638	6.383804	2.162891	-0.000256
 918	9.1242e+01	3.4459	34.731479	0.000709	7.093116	2.403213	-0.000284
 919	9.1341e+01	3.4090	34.489251	0.000608	6.079814	2.059897	-0.000243
 920	9.1441e+01	3.3657	34.202614	0.000719	7.194446	2.437544	-0.000288
 921	9.1540e+01	3.3352	33.968460	0.000588	5.877153	1.991233	-0.000235
 922	9.1639e+01	3.2951	33.710083	0.000649	6.485134	2.197223	-0.000260
 923	9.1739e+01	3.2486	33.419410	0.000730	7.295776	2.471876	-0.000292
 924	9.1838e+01	3.2133	33.165070	0.000638	6.383804	2.162891	-0.000256
 925	9.1938e+01	3.1716	32.850174	0.000790	7.903758	2.677866	-0.000316
 926	9.2037e+01	3.1347	32.595834	0.000638	6.383804	2.162891	-0.000256
 927	9.2137e+01	3.0946	32.301123	0.000740	7.397107	2.506208	-0.000296
 928	9.2237e+01	3.0609	32.014486	0.000719	7.194446	2.437544	-0.000288
 929	9.2336e+01	3.0127	31.768221	0.000618	6.181144	2.094228	-0.000248
 930	9.2436e+01	2.9694	31.505807	0.000659	6.586465	2.231555	-0.000264
 931	9.2535e+01	2.9422	31.223208	0.000709	7.093116	2.403213	-0.000284
 932	9.2635e+01	2.8956	30.948683	0.000689	6.890455	2.334549	-0.000276
 933	9.2734e+01	2.8539	30.674157	0.000689	6.890455	2.334549	-0.000276
 934	9.2834e+01	2.8251	30.411744	0.000659	6.586465	2.231555	-0.000264
 935	9.2933e+01	2.7785	30.145293	0.000669	6.687795	2.265886	-0.000268
 936	9.3032e+01	2.7256	29.878842	0.000669	6.687795	2.265886	-0.000268
 937	9.3132e+01	2.6919	29.580094	0.000750	7.498437	2.540539	-0.000300
 938	9.3231e+01	2.6502	29.313643	0.000669	6.687795	2.265886	-0.000268
 939	9.3331e+01	2.6165	29.047192	0.000669	6.687795	2.265886	-0.000268
 940	9.3430e+01	2.5796	28.732295	0.000790	7.903758	2.677866	-0.000316
 941	9.3530e+01	2.5427	28.457770	0.000689	6.890455	2.334549	-0.000276
 942	9.3629e+01	2.5090	28.207467	0.000628	6.282474	2.128560	-0.000252
 943	9.3729e+01	2.4497	27.920831	0.000719	7.194446	2.437544	-0.000288
 944	9.3829e+01	2.4208	27.694751	0.000567	5.674493	1.922570	-0.000227
 945	9.3928e+01	2.3791	27.343520	0.000882	8.815730	2.986850	-0.000353
 946	9.4028e+01	2.3342	27.121478	0.000557	5.573162	1.888239	-0.000223
 947	9.4127e+01	2.2876	26.818693	0.000760	7.599767	2.574871	-0.000304
 948	9.4227e+01	2.2572	26.572427	0.000618	6.181144	2.094228	-0.000248
 949	9.4326e+01	2.2219	26.310014	0.000659	6.586465	2.231555	-0.000264
 950	9.4425e+01	2.1834	26.031451	0.000699	6.991786	2.368881	-0.000280
 951	9.4525e+01	2.1384	25.752889	0.000699	6.991786	2.368881	-0.000280
 952	9.4624e+01	2.1015	25.486438	0.000669	6.687795	2.265886	-0.000268
 953	9.4724e+01	2.0502	25.163467	0.000811	8.106418	2.746529	-0.000325
 954	9.4823e+01	2.0213	24.897016	0.000669	6.687795	2.265886	-0.000268
 955	9.4923e+01	1.9748	24.638639	0.000649	6.485134	2.197223	-0.000260
 956	9.5022e+01	1.9395	24.364114	0.000689	6.890455	2.334549	-0.000276
 957	9.5122e+01	1.8994	24.081515	0.000709	7.093116	2.403213	-0.000284
 958	9.5222e+01	1.8497	23.782767	0.000750	7.498437	2.540539	-0.000300
 959	9.5321e+01	1.8144	23.500167	0.000709	7.093116	2.403213	-0.000284
 960	9.5421e+01	1.7759	23.229679	0.000679	6.789125	2.300218	-0.000272
 961	9.5520e+01	1.7310	22.983414	0.000618	6.181144	2.094228	-0.000248
 962	9.5620e+01	1.7037	22.668517	0.000790	7.903758	2.677866	-0.000316
 963	9.5719e+01	1.6604	22.418215	0.000628	6.282474	2.128560	-0.000252
 964	9.5819e+01	1.6203	22.119467	0.000750	7.498437	2.540539	-0.000300
 965	9.5918e+01	1.5770	21.844941	0.000689	6.890455	2.334549	-0.000276
 966	9.6017e+01	1.5433	21.562342	0.000709	7.093116	2.403213	-0.000284
 967	9.6117e+01	1.4919	21.275705	0.000719	7.194446	2.437544	-0.000288
 968	9.6216e+01	1.4663	20.960809	0.000790	7.903758	2.677866	-0.000316
 969	9.6316e+01	1.4149	20.633801	0.000821	8.207748	2.780860	-0.000329
 970	9.6415e+01	1.3845	20.399647	0.000588	5.877153	1.991233	-0.000235
 971	9.6515e+01	1.3347	20.100899	0.000750	7.498437	2.540539	-0.000300
 972	9.6615e+01	1.3042	19.781965	0.000801	8.005088	2.712197	-0.000321
 973	9.6714e+01	1.2609	19.576071	0.000517	5.167842	1.750912	-0.000207
 974	9.6814e+01	1.2128	19.261175	0.000790	7.903758	2.677866	-0.000316
 975	9.6913e+01	1.1839	18.970501	0.000730	7.295776	2.471876	-0.000292
 976	9.7013e+01	1.1502	18.679827	0.000730	7.295776	2.471876	-0.000292
 977	9.7112e+01	1.1021	18.377042	0.000760	7.599767	2.574871	-0.000304
 978	9.7212e+01	1.0620	18.142888	0.000588	5.877153	1.991233	-0.000235
 979	9.7311e+01	1.0123	17.864326	0.000699	6.991786	2.368881	-0.000280
 980	9.7410e+01	0.9770	17.529243	0.000841	8.410409	2.849524	-0.000337
 981	9.7510e+01	0.9369	17.266830	0.000659	6.586465	2.231555	-0.000264
 982	9.7609e+01	0.8968	16.931747	0.000841	8.410409	2.849524	-0.000337
 983	9.7709e+01	0.8663	16.677408	0.000638	6.383804	2.162891	-0.000256
 984	9.7808e+01	0.8326	16.378660	0.000750	7.498437	2.540539	-0.000300
 985	9.7908e+01	0.7829	16.096060	0.000709	7.093116	2.403213	-0.000284
 986	9.8007e+01	0.7412	15.809424	0.000719	7.194446	2.437544	-0.000288
 987	9.8107e+01	0.7043	15.482416	0.000821	8.207748	2.780860	-0.000329
 988	9.8207e+01	0.6545	15.224039	0.000649	6.485134	2.197223	-0.000260
 989	9.8306e+01	0.6240	14.937402	0.000719	7.194446	2.437544	-0.000288
 990	9.8406e+01	0.5775	14.642691	0.000740	7.397107	2.506208	-0.000296
 991	9.8505e+01	0.5390	14.303572	0.000851	8.511739	2.883855	-0.000341
 992	9.8605e+01	0.5021	14.049232	0.000638	6.383804	2.162891	-0.000256
 993	9.8704e+01	0.4588	13.726262	0.000811	8.106418	2.746529	-0.000325
 994	9.8803e+01	0.4219	13.475959	0.000628	6.282474	2.128560	-0.000252
 995	9.8903e+01	0.3882	13.157025	0.000801	8.005088	2.712197	-0.000321
 996	9.9002e+01	0.3449	12.838092	0.000801	8.005088	2.712197	-0.000321
 997	9.9102e+01	0.3080	12.543381	0.000740	7.397107	2.506208	-0.000296
 998	9.9201e+01	0.2615	12.268856	0.000689	6.890455	2.334549	-0.000276
 999	9.9301e+01	0.2246	11.974145	0.000740	7.397107	2.506208	-0.000296
1000	9.9400e+01	0.1717	11.707694	0.000669	6.687795	2.265886	-0.000268
1001	9.9500e+01	0.1476	11.372611	0.000841	8.410409	2.849524	-0.000337
1002	9.9600e+01	0.1139	11.114235	0.000649	6.485134	2.197223	-0.000260
1003	9.9699e+01	0.0610	10.779152	0.000841	8.410409	2.849524	-0.000337
1004	9.9799e+01	0.0273	10.492516	0.000719	7.194446	2.437544	-0.000288
1005	9.9898e+01	-0.0128	10.306808	0.000466	4.661190	1.579254	-0.000187
1006	9.9998e+01	-0.0513	9.947502	0.000902	9.018390	3.055513	-0.000361
1007	1.0010e+02	-0.0914	9.640680	0.000770	7.701097	2.609202	-0.000308
1008	1.0020e+02	-0.1219	9.390378	0.000628	6.282474	2.128560	-0.000252
1009	1.0030e+02	-0.1636	9.132001	0.000649	6.485134	2.197223	-0.000260
1010	1.0040e+02	-0.2182	8.800956	0.000831	8.309079	2.815192	-0.000333
1011	1.0050e+02	-0.2390	8.502208	0.000750	7.498437	2.540539	-0.000300
1012	1.0059e+02	-0.2856	8.227683	0.000689	6.890455	2.334549	-0.000276
1013	1.0069e+02	-0.3241	7.941046	0.000719	7.194446	2.437544	-0.000288
1014	1.0079e+02	-0.3593	7.589815	0.000882	8.815730	2.986850	-0.000353
1015	1.0089e+02	-0.4203	7.347587	0.000608	6.079814	2.059897	-0.000243
1016	1.0099e+02	-0.4428	7.064988	0.000709	7.093116	2.403213	-0.000284
1017	1.0109e+02	-0.4813	6.737980	0.000821	8.207748	2.780860	-0.000329
1018	1.0119e+02	-0.5214	6.455380	0.000709	7.093116	2.403213	-0.000284
1019	1.0129e+02	-0.5647	6.124335	0.000831	8.309079	2.815192	-0.000333
1020	1.0139e+02	-0.6112	5.825587	0.000750	7.498437	2.540539	-0.000300
1021	1.0149e+02	-0.6481	5.583359	0.000608	6.079814	2.059897	-0.000243
1022	1.0159e+02	-0.6818	5.268462	0.000790	7.903758	2.677866	-0.000316
1023	1.0169e+02	-0.7251	4.941454	0.000821	8.207748	2.780860	-0.000329
1024	1.0179e+02	-0.7668	4.670966	0.000679	6.789125	2.300218	-0.000272
1025	1.0189e+02	-0.7925	4.356069	0.000790	7.903758	2.677866	-0.000316
1026	1.0199e+02	-0.8518	4.065396	0.000730	7.295776	2.471876	-0.000292
1027	1.0209e+02	-0.8855	3.790870	0.000689	6.890455	2.334549	-0.000276
1028	1.0219e+02	-0.9224	3.447714	0.000861	8.613069	2.918187	-0.000345
1029	1.0229e+02	-0.9674	3.153003	0.000740	7.397107	2.506208	-0.000296
1030	1.0239e+02	-1.0026	2.854255	0.000750	7.498437	2.540539	-0.000300
1031	1.0248e+02	-1.0460	2.547433	0.000770	7.701097	2.609202	-0.000308
1032	1.0258e+02	-1.0893	2.293093	0.000638	6.383804	2.162891	-0.000256
1033	1.0268e+02	-1.1262	1.929751	0.000912	9.119720	3.089845	-0.000365
1034	1.0278e+02	-1.1647	1.691560	0.000598	5.978483	2.025565	-0.000239
1035	1.0288e+02	-1.2080	1.368589	0.000811	8.106418	2.746529	-0.000325
1036	1.0298e+02	-1.2417	1.049655	0.000801	8.005088	2.712197	-0.000321
1037	1.0308e+02	-1.2850	0.771093	0.000699	6.991786	2.368881	-0.000280
1038	1.0318e+02	-1.3267	0.452159	0.000801	8.005088	2.712197	-0.000321
1039	1.0328e+02	-1.3620	0.185708	0.000669	6.687795	2.265886	-0.000268
1040	1.0338e+02	-1.4037	-0.129188	0.000790	7.903758	2.677866	-0.000316
1041	1.0348e+02	-1.4422	-0.440048	0.000780	7.802427	2.643534	-0.000312
1042	1.0358e+02	-1.4775	-0.722647	0.000709	7.093116	2.403213	-0.000284
1043	1.0368e+02	-1.5256	-1.041581	0.000801	8.005088	2.712197	-0.000321
1044	1.0378e+02	-1.5593	-1.352440	0.000780	7.802427	2.643534	-0.000312
1045	1.0388e+02	-1.6042	-1.631003	0.000699	6.991786	2.368881	-0.000280
1046	1.0398e+02	-1.6411	-1.913602	0.000709	7.093116	2.403213	-0.000284
1047	1.0408e+02	-1.6860	-2.216388	0.000760	7.599767	2.574871	-0.000304
1048	1.0418e+02	-1.7181	-2.527247	0.000780	7.802427	2.643534	-0.000312
1049	1.0428e+02	-1.7679	-2.813884	0.000719	7.194446	2.437544	-0.000288
1050	1.0438e+02	-1.8096	-3.144929	0.000831	8.309079	2.815192	-0.000333
1051	1.0447e+02	-1.8417	-3.439640	0.000740	7.397107	2.506208	-0.000296
1052	1.0457e+02	-1.8786	-3.730313	0.000730	7.295776	2.471876	-0.000292
1053	1.0467e+02	-1.9331	-4.020987	0.000730	7.295776	2.471876	-0.000292
1054	1.0477e+02	-1.9588	-4.307624	0.000719	7.194446	2.437544	-0.000288
1055	1.0487e+02	-2.0053	-4.606372	0.000750	7.498437	2.540539	-0.000300
1056	1.0497e+02	-2.0422	-4.921268	0.000790	7.903758	2.677866	-0.000316
1057	1.0507e+02	-2.0823	-5.183682	0.000659	6.586465	2.231555	-0.000264
1058	1.0517e+02	-2.1160	-5.490505	0.000770	7.701097	2.609202	-0.000308
1059	1.0527e+02	-2.1673	-5.817513	0.000821	8.207748	2.780860	-0.000329
1060	1.0537e+02	-2.2042	-6.120298	0.000760	7.599767	2.574871	-0.000304
1061	1.0547e+02	-2.2395	-6.374637	0.000638	6.383804	2.162891	-0.000256
1062	1.0557e+02	-2.2876	-6.641088	0.000669	6.687795	2.265886	-0.000268
1063	1.0567e+02	-2.3133	-6.927725	0.000719	7.194446	2.437544	-0.000288
1064	1.0577e+02	-2.3598	-7.278956	0.000882	8.815730	2.986850	-0.000353
1065	1.0587e+02	-2.3935	-7.589815	0.000780	7.802427	2.643534	-0.000312
1066	1.0597e+02	-2.4400	-7.880489	0.000730	7.295776	2.471876	-0.000292
1067	1.0607e+02	-2.4801	-8.150977	0.000679	6.789125	2.300218	-0.000272
1068	1.0617e+02	-2.5138	-8.413391	0.000659	6.586465	2.231555	-0.000264
1069	1.0627e+02	-2.5588	-8.712139	0.000750	7.498437	2.540539	-0.000300
1070	1.0637e+02	-2.6005	-9.010887	0.000750	7.498437	2.540539	-0.000300
1071	1.0647e+02	-2.6390	-9.285412	0.000689	6.890455	2.334549	-0.000276
1072	1.0656e+02	-2.6823	-9.592235	0.000770	7.701097	2.609202	-0.000308
1073	1.0666e+02	-2.7176	-9.866760	0.000689	6.890455	2.334549	-0.000276
1074	1.0676e+02	-2.7577	-10.177619	0.000780	7.802427	2.643534	-0.000312
1075	1.0686e+02	-2.7978	-10.468293	0.000730	7.295776	2.471876	-0.000292
1076	1.0696e+02	-2.8363	-10.754930	0.000719	7.194446	2.437544	-0.000288
1077	1.0706e+02	-2.8764	-11.049641	0.000740	7.397107	2.506208	-0.000296
1078	1.0716e+02	-2.9213	-11.364537	0.000790	7.903758	2.677866	-0.000316
1079	1.0726e+02	-2.9598	-11.622914	0.000649	6.485134	2.197223	-0.000260
1080	1.0736e+02	-3.0047	-11.873216	0.000628	6.282474	2.128560	-0.000252
1081	1.0746e+02	-3.0448	-12.180039	0.000770	7.701097	2.609202	-0.000308
1082	1.0756e+02	-3.0801	-12.474749	0.000740	7.397107	2.506208	-0.000296
1083	1.0766e+02	-3.1202	-12.773497	0.000750	7.498437	2.540539	-0.000300
1084	1.0776e+02	-3.1571	-13.068208	0.000740	7.397107	2.506208	-0.000296
1085	1.0786e+02	-3.2004	-13.310437	0.000608	6.079814	2.059897	-0.000243
1086	1.0796e+02	-3.2261	-13.657630	0.000871	8.714399	2.952518	-0.000349
1087	1.0806e+02	-3.2758	-13.952341	0.000740	7.397107	2.506208	-0.000296
1088	1.0816e+02	-3.3079	-14.218792	0.000669	6.687795	2.265886	-0.000268
1089	1.0826e+02	-3.3625	-14.481206	0.000659	6.586465	2.231555	-0.000264
1090	1.0836e+02	-3.3865	-14.739583	0.000649	6.485134	2.197223	-0.000260
1091	1.0845e+02	-3.4363	-15.062553	0.000811	8.106418	2.746529	-0.000325
1092	1.0855e+02	-3.4748	-15.373413	0.000780	7.802427	2.643534	-0.000312
1093	1.0865e+02	-3.5036	-15.615641	0.000608	6.079814	2.059897	-0.000243
1094	1.0875e+02	-3.5550	-15.918426	0.000760	7.599767	2.574871	-0.000304
1095	1.0885e+02	-3.6015	-16.176803	0.000649	6.485134	2.197223	-0.000260
1096	1.0895e+02	-3.6272	-16.483625	0.000770	7.701097	2.609202	-0.000308
1097	1.0905e+02	-3.6817	-16.750076	0.000669	6.687795	2.265886	-0.000268
1098	1.0915e+02	-3.7090	-17.012490	0.000659	6.586465	2.231555	-0.000264
1099	1.0925e+02	-3.7571	-17.375832	0.000912	9.119720	3.089845	-0.000365
1100	1.0935e+02	-3.7972	-17.597875	0.000557	5.573162	1.888239	-0.000223
1101	1.0945e+02	-3.8373	-17.884511	0.000719	7.194446	2.437544	-0.000288
1102	1.0955e+02	-3.8630	-18.199408	0.000790	7.903758	2.677866	-0.000316
1103	1.0965e+02	-3.9127	-18.429525	0.000578	5.775823	1.956902	-0.000231
1104	1.0975e+02	-3.9496	-18.740384	0.000780	7.802427	2.643534	-0.000312
1105	1.0985e+02	-3.9961	-19.035095	0.000740	7.397107	2.506208	-0.000296
1106	1.0995e+02	-4.0266	-19.329806	0.000740	7.397107	2.506208	-0.000296
1107	1.1005e+02	-4.0764	-19.604331	0.000689	6.890455	2.334549	-0.000276
1108	1.1015e+02	-4.1100	-19.886931	0.000709	7.093116	2.403213	-0.000284
1109	1.1025e+02	-4.1566	-20.145307	0.000649	6.485134	2.197223	-0.000260
1110	1.1035e+02	-4.1967	-20.399647	0.000638	6.383804	2.162891	-0.000256
1111	1.1044e+02	-4.2336	-20.682246	0.000709	7.093116	2.403213	-0.000284
1112	1.1054e+02	-4.2641	-21.001180	0.000801	8.005088	2.712197	-0.000321
1113	1.1064e+02	-4.3122	-21.251483	0.000628	6.282474	2.128560	-0.000252
1114	1.1074e+02	-4.3491	-21.546193	0.000740	7.397107	2.506208	-0.000296
1115	1.1084e+02	-4.3876	-21.760162	0.000537	5.370502	1.819575	-0.000215
1116	1.1094e+02	-4.4277	-22.071021	0.000780	7.802427	2.643534	-0.000312
1117	1.1104e+02	-4.4774	-22.337472	0.000669	6.687795	2.265886	-0.000268
1118	1.1114e+02	-4.5159	-22.632183	0.000740	7.397107	2.506208	-0.000296
1119	1.1124e+02	-4.5496	-22.894597	0.000659	6.586465	2.231555	-0.000264
1120	1.1134e+02	-4.5817	-23.152973	0.000649	6.485134	2.197223	-0.000260
1121	1.1144e+02	-4.6314	-23.431536	0.000699	6.991786	2.368881	-0.000280
1122	1.1154e+02	-4.6763	-23.710098	0.000699	6.991786	2.368881	-0.000280
1123	1.1164e+02	-4.7004	-24.008846	0.000750	7.498437	2.540539	-0.000300
1124	1.1174e+02	-4.7566	-24.263186	0.000638	6.383804	2.162891	-0.000256
1125	1.1184e+02	-4.7886	-24.517525	0.000638	6.383804	2.162891	-0.000256
1126	1.1194e+02	-4.8368	-24.840496	0.000811	8.106418	2.746529	-0.000325
1127	1.1204e+02	-4.8705	-25.082724	0.000608	6.079814	2.059897	-0.000243
1128	1.1214e+02	-4.9202	-25.341101	0.000649	6.485134	2.197223	-0.000260
1129	1.1224e+02	-4.9507	-25.583329	0.000608	6.079814	2.059897	-0.000243
1130	1.1234e+02	-4.9956	-25.865929	0.000709	7.093116	2.403213	-0.000284
1131	1.1244e+02	-5.0261	-26.144491	0.000699	6.991786	2.368881	-0.000280
1132	1.1253e+02	-5.0678	-26.427091	0.000709	7.093116	2.403213	-0.000284
1133	1.1263e+02	-5.1111	-26.697579	0.000679	6.789125	2.300218	-0.000272
1134	1.1273e+02	-5.1512	-26.964030	0.000669	6.687795	2.265886	-0.000268
1135	1.1283e+02	-5.1897	-27.222406	0.000649	6.485134	2.197223	-0.000260
1136	1.1293e+02	-5.2346	-27.480783	0.000649	6.485134	2.197223	-0.000260
1137	1.1303e+02	-5.2715	-27.767420	0.000719	7.194446	2.437544	-0.000288
1138	1.1313e+02	-5.2972	-28.001573	0.000588	5.877153	1.991233	-0.000235
1139	1.1323e+02	-5.3469	-28.324544	0.000811	8.106418	2.746529	-0.000325
1140	1.1333e+02	-5.3950	-28.570810	0.000618	6.181144	2.094228	-0.000248
1141	1.1343e+02	-5.4271	-28.833223	0.000659	6.586465	2.231555	-0.000264
1142	1.1353e+02	-5.4592	-29.148120	0.000790	7.903758	2.677866	-0.000316
1143	1.1363e+02	-5.5105	-29.349977	0.000507	5.066511	1.716581	-0.000203
1144	1.1373e+02	-5.5426	-29.604316	0.000638	6.383804	2.162891	-0.000256
1145	1.1383e+02	-5.5940	-29.927287	0.000811	8.106418	2.746529	-0.000325
1146	1.1393e+02	-5.6228	-30.157404	0.000578	5.775823	1.956902	-0.000231
1147	1.1403e+02	-5.6629	-30.435966	0.000699	6.991786	2.368881	-0.000280
1148	1.1413e+02	-5.7159	-30.682232	0.000618	6.181144	2.094228	-0.000248
1149	1.1423e+02	-5.7544	-30.964831	0.000709	7.093116	2.403213	-0.000284
1150	1.1433e+02	-5.7945	-31.215134	0.000628	6.282474	2.128560	-0.000252
1151	1.1442e+02	-5.8282	-31.525993	0.000780	7.802427	2.643534	-0.000312
1152	1.1452e+02	-5.8667	-31.739961	0.000537	5.370502	1.819575	-0.000215
1153	1.1462e+02	-5.9068	-32.042746	0.000760	7.599767	2.574871	-0.000304
1154	1.1472e+02	-5.9437	-32.284974	0.000608	6.079814	2.059897	-0.000243
1155	1.1482e+02	-5.9854	-32.535277	0.000628	6.282474	2.128560	-0.000252
1156	1.1492e+02	-6.0207	-32.817876	0.000709	7.093116	2.403213	-0.000284
1157	1.1502e+02	-6.0704	-33.112587	0.000740	7.397107	2.506208	-0.000296
1158	1.1512e+02	-6.1025	-33.346741	0.000588	5.877153	1.991233	-0.000235
1159	1.1522e+02	-6.1506	-33.556672	0.000527	5.269172	1.785244	-0.000211
1160	1.1532e+02	-6.1843	-33.863495	0.000770	7.701097	2.609202	-0.000308
1161	1.1542e+02	-6.2276	-34.125908	0.000659	6.586465	2.231555	-0.000264
1162	1.1552e+02	-6.2709	-34.388322	0.000659	6.586465	2.231555	-0.000264
1163	1.1562e+02	-6.3030	-34.646699	0.000649	6.485134	2.197223	-0.000260
1164	1.1572e+02	-6.3431	-34.917187	0.000679	6.789125	2.300218	-0.000272
1165	1.1582e+02	-6.3865	-35.163452	0.000618	6.181144	2.094228	-0.000248
1166	1.1592e+02	-6.4185	-35.446052	0.000709	7.093116	2.403213	-0.000284
1167	1.1602e+02	-6.4667	-35.684243	0.000598	5.978483	2.025565	-0.000239
1168	1.1612e+02	-6.5036	-35.926471	0.000608	6.079814	2.059897	-0.000243
1169	1.1622e+02	-6.5405	-36.160625	0.000588	5.877153	1.991233	-0.000235
1170	1.1632e+02	-6.5838	-36.443224	0.000709	7.093116	2.403213	-0.000284
1171	1.1642e+02	-6.6175	-36.693527	0.000628	6.282474	2.128560	-0.000252
1172	1.1651e+02	-6.6688	-36.964015	0.000679	6.789125	2.300218	-0.000272
1173	1.1661e+02	-6.6929	-37.190094	0.000567	5.674493	1.922570	-0.000227
1174	1.1671e+02	-6.7378	-37.456545	0.000669	6.687795	2.265886	-0.000268
1175	1.1681e+02	-6.7843	-37.694736	0.000598	5.978483	2.025565	-0.000239
1176	1.1691e+02	-6.8196	-37.973299	0.000699	6.991786	2.368881	-0.000280
1177	1.1701e+02	-6.8533	-38.247824	0.000689	6.890455	2.334549	-0.000276
1178	1.1711e+02	-6.8998	-38.469866	0.000557	5.573162	1.888239	-0.000223
1179	1.1721e+02	-6.9415	-38.720169	0.000628	6.282474	2.128560	-0.000252
1180	1.1731e+02	-6.9704	-38.970471	0.000628	6.282474	2.128560	-0.000252
1181	1.1741e+02	-7.0233	-39.249034	0.000699	6.991786	2.368881	-0.000280
1182	1.1751e+02	-7.0554	-39.515485	0.000669	6.687795	2.265886	-0.000268
1183	1.1761e+02	-7.1003	-39.761750	0.000618	6.181144	2.094228	-0.000248
1184	1.1771e+02	-7.1356	-40.024164	0.000659	6.586465	2.231555	-0.000264
1185	1.1781e+02	-7.1838	-40.246206	0.000557	5.573162	1.888239	-0.000223
1186	1.1791e+02	-7.2239	-40.496509	0.000628	6.282474	2.128560	-0.000252
1187	1.1801e+02	-7.2624	-40.758922	0.000659	6.586465	2.231555	-0.000264
1188	1.1811e+02	-7.2961	-41.005188	0.000618	6.181144	2.094228	-0.000248
1189	1.1821e+02	-7.3426	-41.255490	0.000628	6.282474	2.128560	-0.000252
1190	1.1831e+02	-7.3731	-41.497718	0.000608	6.079814	2.059897	-0.000243
1191	1.1841e+02	-7.4180	-41.748021	0.000628	6.282474	2.128560	-0.000252
1192	1.1850e+02	-7.4613	-42.034657	0.000719	7.194446	2.437544	-0.000288
1193	1.1860e+02	-7.4982	-42.280923	0.000618	6.181144	2.094228	-0.000248
1194	1.1870e+02	-7.5383	-42.519114	0.000598	5.978483	2.025565	-0.000239
1195	1.1880e+02	-7.5784	-42.785565	0.000669	6.687795	2.265886	-0.000268
1196	1.1890e+02	-7.6105	-43.003570	0.000547	5.471832	1.853907	-0.000219
1197	1.1900e+02	-7.6570	-43.253872	0.000628	6.282474	2.128560	-0.000252
1198	1.1910e+02	-7.6987	-43.512249	0.000649	6.485134	2.197223	-0.000260
1199	1.1920e+02	-7.7404	-43.782737	0.000679	6.789125	2.300218	-0.000272
1200	1.1930e+02	-7.7725	-44.000742	0.000547	5.471832	1.853907	-0.000219
1201	1.1940e+02	-7.8158	-44.251045	0.000628	6.282474	2.128560	-0.000252
1202	1.1950e+02	-7.8543	-44.473087	0.000557	5.573162	1.888239	-0.000223
1203	1.1960e+02	-7.8944	-44.755687	0.000709	7.093116	2.403213	-0.000284
1204	1.1970e+02	-7.9393	-45.026175	0.000679	6.789125	2.300218	-0.000272
1205	1.1980e+02	-7.9875	-45.215920	0.000476	4.762521	1.613586	-0.000191
1206	1.1990e+02	-8.0244	-45.490445	0.000689	6.890455	2.334549	-0.000276
1207	1.2000e+02	-8.0532	-45.740748	0.000628	6.282474	2.128560	-0.000252
1208	1.2010e+02	-8.0966	-45.962790	0.000557	5.573162	1.888239	-0.000223
1209	1.2020e+02	-8.1383	-46.213093	0.000628	6.282474	2.128560	-0.000252
1210	1.2030e+02	-8.1752	-46.515878	0.000760	7.599767	2.574871	-0.000304
1211	1.2039e+02	-8.2201	-46.733883	0.000547	5.471832	1.853907	-0.000219
1212	1.2049e+02	-8.2538	-46.935740	0.000507	5.066511	1.716581	-0.000203
1213	1.2059e+02	-8.2907	-47.214302	0.000699	6.991786	2.368881	-0.000280
1214	1.2069e+02	-8.3324	-47.428271	0.000537	5.370502	1.819575	-0.000215
1215	1.2079e+02	-8.3757	-47.686647	0.000649	6.485134	2.197223	-0.000260
1216	1.2089e+02	-8.4110	-47.924838	0.000598	5.978483	2.025565	-0.000239
1217	1.2099e+02	-8.4559	-48.163029	0.000598	5.978483	2.025565	-0.000239
1218	1.2109e+02	-8.4960	-48.401220	0.000598	5.978483	2.025565	-0.000239
1219	1.2119e+02	-8.5361	-48.615189	0.000537	5.370502	1.819575	-0.000215
1220	1.2129e+02	-8.5730	-48.893751	0.000699	6.991786	2.368881	-0.000280
1221	1.2139e+02	-8.6099	-49.131942	0.000598	5.978483	2.025565	-0.000239
1222	1.2149e+02	-8.6532	-49.358022	0.000567	5.674493	1.922570	-0.000227
1223	1.2159e+02	-8.6949	-49.588138	0.000578	5.775823	1.956902	-0.000231
1224	1.2169e+02	-8.7415	-49.842478	0.000638	6.383804	2.162891	-0.000256
1225	1.2179e+02	-8.7735	-50.084706	0.000608	6.079814	2.059897	-0.000243
1226	1.2189e+02	-8.8056	-50.318860	0.000588	5.877153	1.991233	-0.000235
1227	1.2199e+02	-8.8634	-50.528791	0.000527	5.269172	1.785244	-0.000211
1228	1.2209e+02	-8.8939	-50.807353	0.000699	6.991786	2.368881	-0.000280
1229	1.2219e+02	-8.9324	-51.005173	0.000497	4.965181	1.682249	-0.000199
1230	1.2229e+02	-8.9773	-51.263550	0.000649	6.485134	2.197223	-0.000260
1231	1.2239e+02	-9.0238	-51.525963	0.000659	6.586465	2.231555	-0.000264
1232	1.2248e+02	-9.0559	-51.752043	0.000567	5.674493	1.922570	-0.000227
1233	1.2258e+02	-9.0912	-51.990234	0.000598	5.978483	2.025565	-0.000239
1234	1.2268e+02	-9.1409	-52.248611	0.000649	6.485134	2.197223	-0.000260
1235	1.2278e+02	-9.1746	-52.450468	0.000507	5.066511	1.716581	-0.000203
1236	1.2288e+02	-9.2099	-52.660399	0.000527	5.269172	1.785244	-0.000211
1237	1.2298e+02	-9.2580	-52.874367	0.000537	5.370502	1.819575	-0.000215
1238	1.2308e+02	-9.2933	-53.181189	0.000770	7.701097	2.609202	-0.000308
1239	1.2318e+02	-9.3254	-53.358823	0.000446	4.458530	1.510591	-0.000179
1240	1.2328e+02	-9.3687	-53.597014	0.000598	5.978483	2.025565	-0.000239
1241	1.2338e+02	-9.4088	-53.835205	0.000598	5.978483	2.025565	-0.000239
1242	1.2348e+02	-9.4489	-54.049173	0.000537	5.370502	1.819575	-0.000215
1243	1.2358e+02	-9.4794	-54.263141	0.000537	5.370502	1.819575	-0.000215
1244	1.2368e+02	-9.5243	-54.501332	0.000598	5.978483	2.025565	-0.000239
1245	1.2378e+02	-9.5821	-54.767783	0.000669	6.687795	2.265886	-0.000268
1246	1.2388e+02	-9.6094	-54.981752	0.000537	5.370502	1.819575	-0.000215
1247	1.2398e+02	-9.6511	-55.187646	0.000517	5.167842	1.750912	-0.000207
1248	1.2408e+02	-9.6831	-55.393539	0.000517	5.167842	1.750912	-0.000207
1249	1.2418e+02	-9.7281	-55.651916	0.000649	6.485134	2.197223	-0.000260
1250	1.2428e+02	-9.7698	-55.869921	0.000547	5.471832	1.853907	-0.000219
1251	1.2438e+02	-9.8051	-56.108112	0.000598	5.978483	2.025565	-0.000239
1252	1.2447e+02	-9.8436	-56.370526	0.000659	6.586465	2.231555	-0.000264
1253	1.2457e+02	-9.8949	-56.588532	0.000547	5.471832	1.853907	-0.000219
1254	1.2467e+02	-9.9302	-56.810574	0.000557	5.573162	1.888239	-0.000223
1255	1.2477e+02	-9.9671	-57.000319	0.000476	4.762521	1.613586	-0.000191
1256	1.2487e+02	-10.0056	-57.250622	0.000628	6.282474	2.128560	-0.000252
1257	1.2497e+02	-10.0569	-57.488813	0.000598	5.978483	2.025565	-0.000239
1258	1.2507e+02	-10.0954	-57.706818	0.000547	5.471832	1.853907	-0.000219
1259	1.2517e+02	-10.1339	-57.961158	0.000638	6.383804	2.162891	-0.000256
1260	1.2527e+02	-10.1660	-58.191275	0.000578	5.775823	1.956902	-0.000231
1261	1.2537e+02	-10.2077	-58.401206	0.000527	5.269172	1.785244	-0.000211
1262	1.2547e+02	-10.2414	-58.619211	0.000547	5.471832	1.853907	-0.000219
1263	1.2557e+02	-10.2895	-58.841253	0.000557	5.573162	1.888239	-0.000223
1264	1.2567e+02	-10.3297	-59.087519	0.000618	6.181144	2.094228	-0.000248
1265	1.2577e+02	-10.3617	-59.321673	0.000588	5.877153	1.991233	-0.000235
1266	1.2587e+02	-10.4131	-59.535641	0.000537	5.370502	1.819575	-0.000215
1267	1.2597e+02	-10.4452	-59.785943	0.000628	6.282474	2.128560	-0.000252
1268	1.2607e+02	-10.4885	-59.999911	0.000537	5.370502	1.819575	-0.000215
1269	1.2617e+02	-10.5238	-60.230028	0.000578	5.775823	1.956902	-0.000231
1270	1.2627e+02	-10.5655	-60.439959	0.000527	5.269172	1.785244	-0.000211
1271	1.2636e+02	-10.6024	-60.682187	0.000608	6.079814	2.059897	-0.000243
1272	1.2646e+02	-10.6521	-60.908267	0.000567	5.674493	1.922570	-0.000227
1273	1.2656e+02	-10.6826	-61.130309	0.000557	5.573162	1.888239	-0.000223
1274	1.2666e+02	-10.7195	-61.348315	0.000547	5.471832	1.853907	-0.000219
1275	1.2676e+02	-10.7612	-61.602654	0.000638	6.383804	2.162891	-0.000256
1276	1.2686e+02	-10.7997	-61.784325	0.000456	4.559860	1.544922	-0.000183
1277	1.2696e+02	-10.8510	-62.002331	0.000547	5.471832	1.853907	-0.000219
1278	1.2706e+02	-10.8911	-62.216299	0.000537	5.370502	1.819575	-0.000215
1279	1.2716e+02	-10.9184	-62.462564	0.000618	6.181144	2.094228	-0.000248
1280	1.2726e+02	-10.9633	-62.708829	0.000618	6.181144	2.094228	-0.000248
1281	1.2736e+02	-11.0066	-62.918760	0.000527	5.269172	1.785244	-0.000211
1282	1.2746e+02	-11.0371	-63.132729	0.000537	5.370502	1.819575	-0.000215
1283	1.2756e+02	-11.0820	-63.366883	0.000588	5.877153	1.991233	-0.000235
1284	1.2766e+02	-11.1205	-63.564702	0.000497	4.965181	1.682249	-0.000199
1285	1.2776e+02	-11.1703	-63.823079	0.000649	6.485134	2.197223	-0.000260
1286	1.2786e+02	-11.2120	-64.053196	0.000578	5.775823	1.956902	-0.000231
1287	1.2796e+02	-11.2457	-64.238904	0.000466	4.661190	1.579254	-0.000187
1288	1.2806e+02	-11.2842	-64.469021	0.000578	5.775823	1.956902	-0.000231
1289	1.2816e+02	-11.3227	-64.687026	0.000547	5.471832	1.853907	-0.000219
1290	1.2826e+02	-11.3596	-64.892920	0.000517	5.167842	1.750912	-0.000207
1291	1.2835e+02	-11.4109	-65.127074	0.000588	5.877153	1.991233	-0.000235
1292	1.2845e+02	-11.4462	-65.316819	0.000476	4.762521	1.613586	-0.000191
1293	1.2855e+02	-11.4815	-65.555010	0.000598	5.978483	2.025565	-0.000239
1294	1.2865e+02	-11.5280	-65.809350	0.000638	6.383804	2.162891	-0.000256
1295	1.2875e+02	-11.5617	-66.019281	0.000527	5.269172	1.785244	-0.000211
1296	1.2885e+02	-11.5954	-66.229212	0.000527	5.269172	1.785244	-0.000211
1297	1.2895e+02	-11.6403	-66.459329	0.000578	5.775823	1.956902	-0.000231
1298	1.2905e+02	-11.6820	-66.641000	0.000456	4.559860	1.544922	-0.000183
1299	1.2915e+02	-11.7237	-66.923599	0.000709	7.093116	2.403213	-0.000284
1300	1.2925e+02	-11.7606	-67.113345	0.000476	4.762521	1.613586	-0.000191
1301	1.2935e+02	-11.8152	-67.323276	0.000527	5.269172	1.785244	-0.000211
1302	1.2945e+02	-11.8296	-67.561467	0.000598	5.978483	2.025565	-0.000239
1303	1.2955e+02	-11.8793	-67.807732	0.000618	6.181144	2.094228	-0.000248
1304	1.2965e+02	-11.9162	-68.001514	0.000486	4.863851	1.647917	-0.000195
1305	1.2975e+02	-11.9596	-68.183185	0.000456	4.559860	1.544922	-0.000183
1306	1.2985e+02	-11.9948	-68.477896	0.000740	7.397107	2.506208	-0.000296
1307	1.2995e+02	-12.0382	-68.691865	0.000537	5.370502	1.819575	-0.000215
1308	1.3005e+02	-12.0815	-68.921981	0.000578	5.775823	1.956902	-0.000231
1309	1.3015e+02	-12.1248	-69.111727	0.000476	4.762521	1.613586	-0.000191
1310	1.3025e+02	-12.1585	-69.329732	0.000547	5.471832	1.853907	-0.000219
1311	1.3034e+02	-12.2098	-69.571960	0.000608	6.079814	2.059897	-0.000243
1312	1.3044e+02	-12.2483	-69.769780	0.000497	4.965181	1.682249	-0.000199
1313	1.3054e+02	-12.2724	-70.020082	0.000628	6.282474	2.128560	-0.000252
1314	1.3064e+02	-12.3205	-70.258273	0.000598	5.978483	2.025565	-0.000239
1315	1.3074e+02	-12.3590	-70.435907	0.000446	4.458530	1.510591	-0.000179
1316	1.3084e+02	-12.3991	-70.670061	0.000588	5.877153	1.991233	-0.000235
1317	1.3094e+02	-12.4408	-70.871918	0.000507	5.066511	1.716581	-0.000203
1318	1.3104e+02	-12.4777	-71.130295	0.000649	6.485134	2.197223	-0.000260
1319	1.3114e+02	-12.5258	-71.332151	0.000507	5.066511	1.716581	-0.000203
1320	1.3124e+02	-12.5579	-71.570342	0.000598	5.978483	2.025565	-0.000239
1321	1.3134e+02	-12.5996	-71.780273	0.000527	5.269172	1.785244	-0.000211
1322	1.3144e+02	-12.6430	-72.014427	0.000588	5.877153	1.991233	-0.000235
1323	1.3154e+02	-12.6734	-72.260693	0.000618	6.181144	2.094228	-0.000248
1324	1.3164e+02	-12.7184	-72.458512	0.000497	4.965181	1.682249	-0.000199
1325	1.3174e+02	-12.7537	-72.664406	0.000517	5.167842	1.750912	-0.000207
1326	1.3184e+02	-12.8034	-72.906634	0.000608	6.079814	2.059897	-0.000243
1327	1.3194e+02	-12.8387	-73.112528	0.000517	5.167842	1.750912	-0.000207
1328	1.3204e+02	-12.8788	-73.383016	0.000679	6.789125	2.300218	-0.000272
1329	1.3214e+02	-12.9253	-73.556613	0.000436	4.357200	1.476259	-0.000174
1330	1.3224e+02	-12.9494	-73.827101	0.000679	6.789125	2.300218	-0.000272
1331	1.3234e+02	-12.9991	-74.000698	0.000436	4.357200	1.476259	-0.000174
1332	1.3243e+02	-13.0264	-74.214666	0.000537	5.370502	1.819575	-0.000215
1333	1.3253e+02	-13.0793	-74.436709	0.000557	5.573162	1.888239	-0.000223
1334	1.3263e+02	-13.1162	-74.682974	0.000618	6.181144	2.094228	-0.000248
1335	1.3273e+02	-13.1531	-74.880794	0.000497	4.965181	1.682249	-0.000199
1336	1.3283e+02	-13.2044	-75.139170	0.000649	6.485134	2.197223	-0.000260
1337	1.3293e+02	-13.2365	-75.353139	0.000537	5.370502	1.819575	-0.000215
1338	1.3303e+02	-13.2782	-75.575181	0.000557	5.573162	1.888239	-0.000223
1339	1.3313e+02	-13.3232	-75.829521	0.000638	6.383804	2.162891	-0.000256
1340	1.3323e+02	-13.3488	-76.003117	0.000436	4.357200	1.476259	-0.000174
1341	1.3333e+02	-13.3969	-76.233234	0.000578	5.775823	1.956902	-0.000231
1342	1.3343e+02	-13.4354	-76.443165	0.000527	5.269172	1.785244	-0.000211
1343	1.3353e+02	-13.4772	-76.685393	0.000608	6.079814	2.059897	-0.000243
1344	1.3363e+02	-13.5092	-76.895324	0.000527	5.269172	1.785244	-0.000211
1345	1.3373e+02	-13.5526	-77.109293	0.000537	5.370502	1.819575	-0.000215
1346	1.3383e+02	-13.5911	-77.355558	0.000618	6.181144	2.094228	-0.000248
1347	1.3393e+02	-13.6344	-77.565489	0.000527	5.269172	1.785244	-0.000211
1348	1.3403e+02	-13.6761	-77.815791	0.000628	6.282474	2.128560	-0.000252
1349	1.3413e+02	-13.7194	-78.017648	0.000507	5.066511	1.716581	-0.000203
1350	1.3423e+02	-13.7531	-78.271988	0.000638	6.383804	2.162891	-0.000256
1351	1.3432e+02	-13.7932	-78.502104	0.000578	5.775823	1.956902	-0.000231
1352	1.3442e+02	-13.8381	-78.695887	0.000486	4.863851	1.647917	-0.000195
1353	1.3452e+02	-13.8654	-78.909855	0.000537	5.370502	1.819575	-0.000215
1354	1.3462e+02	-13.9087	-79.119786	0.000527	5.269172	1.785244	-0.000211
1355	1.3472e+02	-13.9568	-79.353940	0.000588	5.877153	1.991233	-0.000235
1356	1.3482e+02	-13.9969	-79.652688	0.000750	7.498437	2.540539	-0.000300
1357	1.3492e+02	-14.0322	-79.850508	0.000497	4.965181	1.682249	-0.000199
1358	1.3502e+02	-14.0723	-80.048327	0.000497	4.965181	1.682249	-0.000199
1359	1.3512e+02	-14.1044	-80.294593	0.000618	6.181144	2.094228	-0.000248
1360	1.3522e+02	-14.1541	-80.524709	0.000578	5.775823	1.956902	-0.000231
1361	1.3532e+02	-14.1878	-80.730603	0.000517	5.167842	1.750912	-0.000207
1362	1.3542e+02	-14.2231	-80.948609	0.000547	5.471832	1.853907	-0.000219
1363	1.3552e+02	-14.2793	-81.211023	0.000659	6.586465	2.231555	-0.000264
1364	1.3562e+02	-14.3114	-81.404805	0.000486	4.863851	1.647917	-0.000195
1365	1.3572e+02	-14.3627	-81.679330	0.000689	6.890455	2.334549	-0.000276
1366	1.3582e+02	-14.3948	-81.856964	0.000446	4.458530	1.510591	-0.000179
1367	1.3592e+02	-14.4269	-82.119378	0.000659	6.586465	2.231555	-0.000264
1368	1.3602e+02	-14.4750	-82.337383	0.000547	5.471832	1.853907	-0.000219
1369	1.3612e+02	-14.5151	-82.547314	0.000527	5.269172	1.785244	-0.000211
1370	1.3622e+02	-14.5424	-82.797617	0.000628	6.282474	2.128560	-0.000252
1371	1.3631e+02	-14.5937	-83.011585	0.000537	5.370502	1.819575	-0.000215
1372	1.3641e+02	-14.6242	-83.257850	0.000618	6.181144	2.094228	-0.000248
1373	1.3651e+02	-14.6675	-83.471819	0.000537	5.370502	1.819575	-0.000215
1374	1.3661e+02	-14.7124	-83.730195	0.000649	6.485134	2.197223	-0.000260
1375	1.3671e+02	-14.7541	-83.940126	0.000527	5.269172	1.785244	-0.000211
1376	1.3681e+02	-14.7878	-84.186392	0.000618	6.181144	2.094228	-0.000248
1377	1.3691e+02	-14.8247	-84.436694	0.000628	6.282474	2.128560	-0.000252
1378	1.3701e+02	-14.8728	-84.654699	0.000547	5.471832	1.853907	-0.000219
1379	1.3711e+02	-14.9081	-84.933262	0.000699	6.991786	2.368881	-0.000280
1380	1.3721e+02	-14.9498	-85.106858	0.000436	4.357200	1.476259	-0.000174
1381	1.3731e+02	-14.9819	-85.332938	0.000567	5.674493	1.922570	-0.000227
1382	1.3741e+02	-15.0301	-85.583241	0.000628	6.282474	2.128560	-0.000252
1383	1.3751e+02	-15.0750	-85.797209	0.000537	5.370502	1.819575	-0.000215
1384	1.3761e+02	-15.1055	-86.035400	0.000598	5.978483	2.025565	-0.000239
1385	1.3771e+02	-15.1520	-86.293776	0.000649	6.485134	2.197223	-0.000260
1386	1.3781e+02	-15.1857	-86.523893	0.000578	5.775823	1.956902	-0.000231
1387	1.3791e+02	-15.2258	-86.754010	0.000578	5.775823	1.956902	-0.000231
1388	1.3801e+02	-15.2643	-87.008349	0.000638	6.383804	2.162891	-0.000256
1389	1.3811e+02	-15.3028	-87.238466	0.000578	5.775823	1.956902	-0.000231
1390	1.3821e+02	-15.3573	-87.452434	0.000537	5.370502	1.819575	-0.000215
1391	1.3831e+02	-15.3782	-87.718885	0.000669	6.687795	2.265886	-0.000268
1392	1.3840e+02	-15.4263	-87.953039	0.000588	5.877153	1.991233	-0.000235
1393	1.3850e+02	-15.4680	-88.126636	0.000436	4.357200	1.476259	-0.000174
1394	1.3860e+02	-15.5001	-88.393087	0.000669	6.687795	2.265886	-0.000268
1395	1.3870e+02	-15.5354	-88.659538	0.000669	6.687795	2.265886	-0.000268
1396	1.3880e+02	-15.5883	-88.889655	0.000578	5.775823	1.956902	-0.000231
1397	1.3890e+02	-15.6236	-89.135920	0.000618	6.181144	2.094228	-0.000248
1398	1.3900e+02	-15.6718	-89.321628	0.000466	4.661190	1.579254	-0.000187
1399	1.3910e+02	-15.7070	-89.596153	0.000689	6.890455	2.334549	-0.000276
1400	1.3920e+02	-15.7488	-89.822233	0.000567	5.674493	1.922570	-0.000227
1401	1.3930e+02	-15.7857	-90.072535	0.000628	6.282474	2.128560	-0.000252
1402	1.3940e+02	-15.8258	-90.286504	0.000537	5.370502	1.819575	-0.000215
1403	1.3950e+02	-15.8627	-90.565066	0.000699	6.991786	2.368881	-0.000280
1404	1.3960e+02	-15.9092	-90.819406	0.000638	6.383804	2.162891	-0.000256
1405	1.3970e+02	-15.9461	-91.065671	0.000618	6.181144	2.094228	-0.000248
1406	1.3980e+02	-15.9798	-91.255416	0.000476	4.762521	1.613586	-0.000191
1407	1.3990e+02	-16.0215	-91.525904	0.000679	6.789125	2.300218	-0.000272
1408	1.4000e+02	-16.0568	-91.756021	0.000578	5.775823	1.956902	-0.000231
1409	1.4010e+02	-16.1081	-92.006323	0.000628	6.282474	2.128560	-0.000252
1410	1.4020e+02	-16.1450	-92.220292	0.000537	5.370502	1.819575	-0.000215
1411	1.4029e+02	-16.1739	-92.506928	0.000719	7.194446	2.437544	-0.000288
1412	1.4039e+02	-16.2316	-92.724934	0.000547	5.471832	1.853907	-0.000219
1413	1.4049e+02	-16.2669	-92.975236	0.000628	6.282474	2.128560	-0.000252
1414	1.4059e+02	-16.3022	-93.209390	0.000588	5.877153	1.991233	-0.000235
1415	1.4069e+02	-16.3535	-93.459692	0.000628	6.282474	2.128560	-0.000252
1416	1.4079e+02	-16.3808	-93.701920	0.000608	6.079814	2.059897	-0.000243
1417	1.4089e+02	-16.4322	-93.960297	0.000649	6.485134	2.197223	-0.000260
1418	1.4099e+02	-16.4610	-94.230785	0.000679	6.789125	2.300218	-0.000272
1419	1.4109e+02	-16.5060	-94.448791	0.000547	5.471832	1.853907	-0.000219
1420	1.4119e+02	-16.5461	-94.739464	0.000730	7.295776	2.471876	-0.000292
1421	1.4129e+02	-16.5846	-94.997841	0.000649	6.485134	2.197223	-0.000260
1422	1.4139e+02	-16.6279	-95.211809	0.000537	5.370502	1.819575	-0.000215
1423	1.4149e+02	-16.6616	-95.462112	0.000628	6.282474	2.128560	-0.000252
1424	1.4159e+02	-16.7017	-95.708377	0.000618	6.181144	2.094228	-0.000248
1425	1.4169e+02	-16.7450	-96.003088	0.000740	7.397107	2.506208	-0.000296
1426	1.4179e+02	-16.7867	-96.221093	0.000547	5.471832	1.853907	-0.000219
1427	1.4189e+02	-16.8188	-96.479470	0.000649	6.485134	2.197223	-0.000260
1428	1.4199e+02	-16.8605	-96.721698	0.000608	6.079814	2.059897	-0.000243
1429	1.4209e+02	-16.9038	-97.012372	0.000730	7.295776	2.471876	-0.000292
1430	1.4219e+02	-16.9439	-97.303046	0.000730	7.295776	2.471876	-0.000292
1431	1.4228e+02	-16.9824	-97.508939	0.000517	5.167842	1.750912	-0.000207
1432	1.4238e+02	-17.0321	-97.767316	0.000649	6.485134	2.197223	-0.000260
1433	1.4248e+02	-17.0738	-98.045879	0.000699	6.991786	2.368881	-0.000280
1434	1.4258e+02	-17.1043	-98.296181	0.000628	6.282474	2.128560	-0.000252
1435	1.4268e+02	-17.1396	-98.586855	0.000730	7.295776	2.471876	-0.000292
1436	1.4278e+02	-17.1797	-98.857343	0.000679	6.789125	2.300218	-0.000272
1437	1.4288e+02	-17.2198	-99.135905	0.000699	6.991786	2.368881	-0.000280
1438	1.4298e+02	-17.2648	-99.378133	0.000608	6.079814	2.059897	-0.000243
1439	1.4308e+02	-17.3193	-99.664770	0.000719	7.194446	2.437544	-0.000288
1440	1.4318e+02	-17.3402	-99.902961	0.000598	5.978483	2.025565	-0.000239
1441	1.4328e+02	-17.3803	-100.189598	0.000719	7.194446	2.437544	-0.000288
1442	1.4338e+02	-17.4188	-100.423751	0.000588	5.877153	1.991233	-0.000235
1443	1.4348e+02	-17.4669	-100.694240	0.000679	6.789125	2.300218	-0.000272
1444	1.4358e+02	-17.5006	-101.021248	0.000821	8.207748	2.780860	-0.000329
1445	1.4368e+02	-17.5455	-101.219067	0.000497	4.965181	1.682249	-0.000199
1446	1.4378e+02	-17.5792	-101.517815	0.000750	7.498437	2.540539	-0.000300
1447	1.4388e+02	-17.6257	-101.768118	0.000628	6.282474	2.128560	-0.000252
1448	1.4398e+02	-17.6546	-102.074940	0.000770	7.701097	2.609202	-0.000308
1449	1.4408e+02	-17.6963	-102.353502	0.000699	6.991786	2.368881	-0.000280
1450	1.4418e+02	-17.7300	-102.652250	0.000750	7.498437	2.540539	-0.000300
1451	1.4428e+02	-17.7829	-102.922739	0.000679	6.789125	2.300218	-0.000272
1452	1.4437e+02	-17.8134	-103.201301	0.000699	6.991786	2.368881	-0.000280
1453	1.4447e+02	-17.8583	-103.471789	0.000679	6.789125	2.300218	-0.000272
1454	1.4457e+02	-17.8984	-103.705943	0.000588	5.877153	1.991233	-0.000235
1455	1.4467e+02	-17.9417	-104.012765	0.000770	7.701097	2.609202	-0.000308
1456	1.4477e+02	-17.9786	-104.287290	0.000689	6.890455	2.334549	-0.000276
1457	1.4487e+02	-18.0107	-104.626410	0.000851	8.511739	2.883855	-0.000341
1458	1.4497e+02	-18.0621	-104.876712	0.000628	6.282474	2.128560	-0.000252
1459	1.4507e+02	-18.0909	-105.127015	0.000628	6.282474	2.128560	-0.000252
1460	1.4517e+02	-18.1391	-105.397503	0.000679	6.789125	2.300218	-0.000272
1461	1.4527e+02	-18.1760	-105.772956	0.000942	9.423711	3.192840	-0.000377
1462	1.4537e+02	-18.2193	-106.019222	0.000618	6.181144	2.094228	-0.000248
1463	1.4547e+02	-18.2562	-106.338155	0.000801	8.005088	2.712197	-0.000321
1464	1.4557e+02	-18.2931	-106.576346	0.000598	5.978483	2.025565	-0.000239
1465	1.4567e+02	-18.3444	-106.867020	0.000730	7.295776	2.471876	-0.000292
1466	1.4577e+02	-18.3813	-107.210177	0.000861	8.613069	2.918187	-0.000345
1467	1.4587e+02	-18.4070	-107.476628	0.000669	6.687795	2.265886	-0.000268
1468	1.4597e+02	-18.4631	-107.771339	0.000740	7.397107	2.506208	-0.000296
1469	1.4607e+02	-18.4920	-108.057975	0.000719	7.194446	2.437544	-0.000288
1470	1.4617e+02	-18.5305	-108.397095	0.000851	8.511739	2.883855	-0.000341
1471	1.4626e+02	-18.5738	-108.675657	0.000699	6.991786	2.368881	-0.000280
1472	1.4636e+02	-18.6235	-109.022851	0.000871	8.714399	2.952518	-0.000349
1473	1.4646e+02	-18.6572	-109.297376	0.000689	6.890455	2.334549	-0.000276
1474	1.4656e+02	-18.6957	-109.624384	0.000821	8.207748	2.780860	-0.000329
1475	1.4666e+02	-18.7455	-109.906983	0.000709	7.093116	2.403213	-0.000284
1476	1.4676e+02	-18.7808	-110.242066	0.000841	8.410409	2.849524	-0.000337
1477	1.4686e+02	-18.8080	-110.532739	0.000730	7.295776	2.471876	-0.000292
1478	1.4696e+02	-18.8578	-110.827450	0.000740	7.397107	2.506208	-0.000296
1479	1.4706e+02	-18.8947	-111.162533	0.000841	8.410409	2.849524	-0.000337
1480	1.4716e+02	-18.9444	-111.465318	0.000760	7.599767	2.574871	-0.000304
1481	1.4726e+02	-18.9717	-111.828660	0.000912	9.119720	3.089845	-0.000365
1482	1.4736e+02	-19.0118	-112.123371	0.000740	7.397107	2.506208	-0.000296
1483	1.4746e+02	-19.0599	-112.401933	0.000699	6.991786	2.368881	-0.000280
1484	1.4756e+02	-19.0952	-112.781424	0.000953	9.525041	3.227171	-0.000381
1485	1.4766e+02	-19.1369	-113.039801	0.000649	6.485134	2.197223	-0.000260
1486	1.4776e+02	-19.1626	-113.431403	0.000983	9.829032	3.330166	-0.000394
1487	1.4786e+02	-19.2187	-113.701891	0.000679	6.789125	2.300218	-0.000272
1488	1.4796e+02	-19.2572	-114.077345	0.000942	9.423711	3.192840	-0.000377
1489	1.4806e+02	-19.2925	-114.456835	0.000953	9.525041	3.227171	-0.000381
1490	1.4816e+02	-19.3358	-114.735398	0.000699	6.991786	2.368881	-0.000280
1491	1.4825e+02	-19.3727	-115.090666	0.000892	8.917060	3.021182	-0.000357
1492	1.4835e+02	-19.4096	-115.425748	0.000841	8.410409	2.849524	-0.000337
1493	1.4845e+02	-19.4449	-115.740644	0.000790	7.903758	2.677866	-0.000316
1494	1.4855e+02	-19.4898	-116.099950	0.000902	9.018390	3.055513	-0.000361
1495	1.4865e+02	-19.5380	-116.418883	0.000801	8.005088	2.712197	-0.000321
1496	1.4875e+02	-19.5716	-116.737817	0.000801	8.005088	2.712197	-0.000321
1497	1.4885e+02	-19.6053	-117.105196	0.000922	9.221051	3.124177	-0.000369
1498	1.4895e+02	-19.6486	-117.448353	0.000861	8.613069	2.918187	-0.000345
1499	1.4905e+02	-19.6920	-117.815732	0.000922	9.221051	3.124177	-0.000369
1500	1.4915e+02	-19.7256	-118.150815	0.000841	8.410409	2.849524	-0.000337
1501	1.4925e+02	-19.7722	-118.542417	0.000983	9.829032	3.330166	-0.000394
1502	1.4935e+02	-19.8155	-118.893647	0.000882	8.815730	2.986850	-0.000353
1503	1.4945e+02	-19.8428	-119.244878	0.000882	8.815730	2.986850	-0.000353
1504	1.4955e+02	-19.8861	-119.583998	0.000851	8.511739	2.883855	-0.000341
1505	1.4965e+02	-19.9294	-119.935229	0.000882	8.815730	2.986850	-0.000353
1506	1.4975e+02	-19.9583	-120.290496	0.000892	8.917060	3.021182	-0.000357
1507	1.4985e+02	-20.0128	-120.682099	0.000983	9.829032	3.330166	-0.000394
1508	1.4995e+02	-19.9775	-120.734581	-0.000132	-1.317293	-0.446311	-0.000053
1509	1.5005e+02	-19.9310	-120.746693	-0.000030	-0.303991	-0.102995	-0.000012
1510	1.5015e+02	-19.8909	-120.783027	-0.000091	-0.911972	-0.308984	-0.000037
1511	1.5025e+02	-19.8460	-120.799176	-0.000041	-0.405321	-0.137326	-0.000016
1512	1.5034e+02	-19.8107	-120.815324	-0.000041	-0.405321	-0.137326	-0.000016
1513	1.5044e+02	-19.7738	-120.823398	-0.000020	-0.202660	-0.068663	-0.000008
1514	1.5054e+02	-19.7289	-120.823398	0.000000	0.000000	0.000000	0.000000
1515	1.5064e+02	-19.6871	-120.787064	0.000091	0.911972	0.308984	0.000037
1516	1.5074e+02	-19.6519	-120.734581	0.000132	1.317293	0.446311	0.000053
1517	1.5084e+02	-19.6101	-120.710359	0.000061	0.607981	0.205990	0.000024
1518	1.5094e+02	-19.5636	-120.702284	0.000020	0.202660	0.068663	0.000008
1519	1.5104e+02	-19.5299	-120.645764	0.000142	1.418623	0.480643	0.000057
1520	1.5114e+02	-19.4930	-120.637690	0.000020	0.202660	0.068663	0.000008
1521	1.5124e+02	-19.4577	-120.565022	0.000182	1.823944	0.617969	0.000073
1522	1.5134e+02	-19.4048	-120.504465	0.000152	1.519953	0.514974	0.000061
1523	1.5144e+02	-19.3775	-120.447945	0.000142	1.418623	0.480643	0.000057
1524	1.5154e+02	-19.3358	-120.383351	0.000162	1.621284	0.549306	0.000065
1525	1.5164e+02	-19.2877	-120.351053	0.000081	0.810642	0.274653	0.000032
1526	1.5174e+02	-19.2588	-120.282422	0.000172	1.722614	0.583637	0.000069
1527	1.5184e+02	-19.2203	-120.181494	0.000253	2.533256	0.858290	0.000101
1528	1.5194e+02	-19.1802	-120.108825	0.000182	1.823944	0.617969	0.000073
1529	1.5204e+02	-19.1353	-120.024045	0.000213	2.127935	0.720964	0.000085
1530	1.5214e+02	-19.0968	-119.995786	0.000071	0.709312	0.240321	0.000028
1531	1.5224e+02	-19.0551	-119.890820	0.000263	2.634586	0.892622	0.000105
1532	1.5233e+02	-19.0198	-119.789892	0.000253	2.533256	0.858290	0.000101
1533	1.5243e+02	-18.9652	-119.676852	0.000284	2.837246	0.961285	0.000114
1534	1.5253e+02	-18.9412	-119.632443	0.000111	1.114632	0.377648	0.000045
1535	1.5263e+02	-18.8866	-119.511329	0.000304	3.039907	1.029948	0.000122
1536	1.5273e+02	-18.8578	-119.414438	0.000243	2.431925	0.823959	0.000097
1537	1.5283e+02	-18.8128	-119.333695	0.000203	2.026605	0.686632	0.000081
1538	1.5293e+02	-18.7759	-119.252953	0.000203	2.026605	0.686632	0.000081
1539	1.5303e+02	-18.7358	-119.127801	0.000314	3.141237	1.064280	0.000126
1540	1.5313e+02	-18.6909	-119.059170	0.000172	1.722614	0.583637	0.000069
1541	1.5323e+02	-18.6620	-118.938056	0.000304	3.039907	1.029948	0.000122
1542	1.5333e+02	-18.6139	-118.816942	0.000304	3.039907	1.029948	0.000122
1543	1.5343e+02	-18.5818	-118.699865	0.000294	2.938577	0.995617	0.000118
1544	1.5353e+02	-18.5353	-118.598937	0.000253	2.533256	0.858290	0.000101
1545	1.5363e+02	-18.5000	-118.522231	0.000193	1.925274	0.652301	0.000077
1546	1.5373e+02	-18.4631	-118.384968	0.000345	3.445228	1.167275	0.000138
1547	1.5383e+02	-18.4246	-118.296151	0.000223	2.229265	0.755295	0.000089
1548	1.5393e+02	-18.3797	-118.183112	0.000284	2.837246	0.961285	0.000114
1549	1.5403e+02	-18.3428	-118.017589	0.000415	4.154539	1.407596	0.000166
1550	1.5413e+02	-18.3059	-117.944921	0.000182	1.823944	0.617969	0.000073
1551	1.5422e+02	-18.2610	-117.823807	0.000304	3.039907	1.029948	0.000122
1552	1.5432e+02	-18.2225	-117.722878	0.000253	2.533256	0.858290	0.000101
1553	1.5442e+02	-18.1776	-117.573504	0.000375	3.749218	1.270270	0.000150
1554	1.5452e+02	-18.1326	-117.436241	0.000345	3.445228	1.167275	0.000138
1555	1.5462e+02	-18.0957	-117.331276	0.000263	2.634586	0.892622	0.000105
1556	1.5472e+02	-18.0572	-117.206125	0.000314	3.141237	1.064280	0.000126
1557	1.5482e+02	-18.0187	-117.097122	0.000274	2.735916	0.926953	0.000110
1558	1.5492e+02	-17.9786	-116.976008	0.000304	3.039907	1.029948	0.000122
1559	1.5502e+02	-17.9353	-116.846820	0.000324	3.242567	1.098612	0.000130
1560	1.5512e+02	-17.8968	-116.681297	0.000415	4.154539	1.407596	0.000166
1561	1.5522e+02	-17.8615	-116.576332	0.000263	2.634586	0.892622	0.000105
1562	1.5532e+02	-17.8166	-116.422920	0.000385	3.850549	1.304601	0.000154
1563	1.5542e+02	-17.7749	-116.309881	0.000284	2.837246	0.961285	0.000114
1564	1.5552e+02	-17.7348	-116.184729	0.000314	3.141237	1.064280	0.000126
1565	1.5562e+02	-17.7011	-116.019207	0.000415	4.154539	1.407596	0.000166
1566	1.5572e+02	-17.6594	-115.934427	0.000213	2.127935	0.720964	0.000085
1567	1.5582e+02	-17.6145	-115.764867	0.000426	4.255870	1.441928	0.000170
1568	1.5592e+02	-17.5792	-115.631642	0.000334	3.343897	1.132943	0.000134
1569	1.5602e+02	-17.5407	-115.494379	0.000345	3.445228	1.167275	0.000138
1570	1.5612e+02	-17.5070	-115.369228	0.000314	3.141237	1.064280	0.000126
1571	1.5622e+02	-17.4605	-115.223891	0.000365	3.647888	1.235938	0.000146
1572	1.5631e+02	-17.4220	-115.062406	0.000405	4.053209	1.373264	0.000162
1573	1.5641e+02	-17.3819	-114.969552	0.000233	2.330595	0.789627	0.000093
1574	1.5651e+02	-17.3402	-114.820178	0.000375	3.749218	1.270270	0.000150
1575	1.5661e+02	-17.2984	-114.658692	0.000405	4.053209	1.373264	0.000162
1576	1.5671e+02	-17.2696	-114.481058	0.000446	4.458530	1.510591	0.000179
1577	1.5681e+02	-17.2214	-114.384167	0.000243	2.431925	0.823959	0.000097
1578	1.5691e+02	-17.1845	-114.238830	0.000365	3.647888	1.235938	0.000146
1579	1.5701e+02	-17.1348	-114.073307	0.000415	4.154539	1.407596	0.000166
1580	1.5711e+02	-17.1011	-113.956230	0.000294	2.938577	0.995617	0.000118
1581	1.5721e+02	-17.0626	-113.794745	0.000405	4.053209	1.373264	0.000162
1582	1.5731e+02	-17.0145	-113.693817	0.000253	2.533256	0.858290	0.000101
1583	1.5741e+02	-16.9872	-113.536368	0.000395	3.951879	1.338933	0.000158
1584	1.5751e+02	-16.9455	-113.378920	0.000395	3.951879	1.338933	0.000158
1585	1.5761e+02	-16.9038	-113.261843	0.000294	2.938577	0.995617	0.000118
1586	1.5771e+02	-16.8557	-113.059986	0.000507	5.066511	1.716581	0.000203
1587	1.5781e+02	-16.8236	-112.934835	0.000314	3.141237	1.064280	0.000126
1588	1.5791e+02	-16.7947	-112.793535	0.000355	3.546558	1.201606	0.000142
1589	1.5801e+02	-16.7514	-112.640124	0.000385	3.850549	1.304601	0.000154
1590	1.5811e+02	-16.6985	-112.498824	0.000355	3.546558	1.201606	0.000142
1591	1.5821e+02	-16.6680	-112.276782	0.000557	5.573162	1.888239	0.000223
1592	1.5830e+02	-16.6199	-112.192002	0.000213	2.127935	0.720964	0.000085
1593	1.5840e+02	-16.5846	-112.042628	0.000375	3.749218	1.270270	0.000150
1594	1.5850e+02	-16.5461	-111.897291	0.000365	3.647888	1.235938	0.000146
1595	1.5860e+02	-16.5140	-111.703509	0.000486	4.863851	1.647917	0.000195
1596	1.5870e+02	-16.4610	-111.606617	0.000243	2.431925	0.823959	0.000097
1597	1.5880e+02	-16.4225	-111.416872	0.000476	4.762521	1.613586	0.000191
1598	1.5890e+02	-16.3728	-111.332092	0.000213	2.127935	0.720964	0.000085
1599	1.5900e+02	-16.3391	-111.134273	0.000497	4.965181	1.682249	0.000199
1600	1.5910e+02	-16.3006	-111.013159	0.000304	3.039907	1.029948	0.000122
1601	1.5920e+02	-16.2669	-110.839562	0.000436	4.357200	1.476259	0.000174
1602	1.5930e+02	-16.2236	-110.665965	0.000436	4.357200	1.476259	0.000174
1603	1.5940e+02	-16.1851	-110.532739	0.000334	3.343897	1.132943	0.000134
1604	1.5950e+02	-16.1466	-110.395477	0.000345	3.445228	1.167275	0.000138
1605	1.5960e+02	-16.1097	-110.238028	0.000395	3.951879	1.338933	0.000158
1606	1.5970e+02	-16.0648	-110.064432	0.000436	4.357200	1.476259	0.000174
1607	1.5980e+02	-16.0359	-109.923132	0.000355	3.546558	1.201606	0.000142
1608	1.5990e+02	-15.9894	-109.765684	0.000395	3.951879	1.338933	0.000158
1609	1.6000e+02	-15.9397	-109.571901	0.000486	4.863851	1.647917	0.000195
1610	1.6010e+02	-15.9076	-109.446750	0.000314	3.141237	1.064280	0.000126
1611	1.6019e+02	-15.8707	-109.297376	0.000375	3.749218	1.270270	0.000150
1612	1.6029e+02	-15.8290	-109.135890	0.000405	4.053209	1.373264	0.000162
1613	1.6039e+02	-15.7889	-108.974405	0.000405	4.053209	1.373264	0.000162
1614	1.6049e+02	-15.7536	-108.825031	0.000375	3.749218	1.270270	0.000150
1615	1.6059e+02	-15.7038	-108.651434	0.000436	4.357200	1.476259	0.000174
1616	1.6069e+02	-15.6621	-108.477837	0.000436	4.357200	1.476259	0.000174
1617	1.6079e+02	-15.6220	-108.405169	0.000182	1.823944	0.617969	0.000073
1618	1.6089e+02	-15.5867	-108.207349	0.000497	4.965181	1.682249	0.000199
1619	1.6099e+02	-15.5595	-108.017604	0.000476	4.762521	1.613586	0.000191
1620	1.6109e+02	-15.5049	-107.848044	0.000426	4.255870	1.441928	0.000170
1621	1.6119e+02	-15.4744	-107.714819	0.000334	3.343897	1.132943	0.000134
1622	1.6129e+02	-15.4263	-107.561407	0.000385	3.850549	1.304601	0.000154
1623	1.6139e+02	-15.3862	-107.407996	0.000385	3.850549	1.304601	0.000154
1624	1.6149e+02	-15.3461	-107.226325	0.000456	4.559860	1.544922	0.000183
1625	1.6159e+02	-15.3092	-107.085025	0.000355	3.546558	1.201606	0.000142
1626	1.6169e+02	-15.2659	-106.903354	0.000456	4.559860	1.544922	0.000183
1627	1.6179e+02	-15.2258	-106.729758	0.000436	4.357200	1.476259	0.000174
1628	1.6189e+02	-15.1857	-106.580383	0.000375	3.749218	1.270270	0.000150
1629	1.6199e+02	-15.1584	-106.459269	0.000304	3.039907	1.029948	0.000122
1630	1.6209e+02	-15.1103	-106.261450	0.000497	4.965181	1.682249	0.000199
1631	1.6219e+02	-15.0702	-106.091890	0.000426	4.255870	1.441928	0.000170
1632	1.6228e+02	-15.0252	-105.898108	0.000486	4.863851	1.647917	0.000195
1633	1.6238e+02	-14.9819	-105.776993	0.000304	3.039907	1.029948	0.000122
1634	1.6248e+02	-14.9466	-105.583211	0.000486	4.863851	1.647917	0.000195
1635	1.6258e+02	-14.9162	-105.417688	0.000415	4.154539	1.407596	0.000166
1636	1.6268e+02	-14.8680	-105.272352	0.000365	3.647888	1.235938	0.000146
1637	1.6278e+02	-14.8408	-105.127015	0.000365	3.647888	1.235938	0.000146
1638	1.6288e+02	-14.7878	-104.961492	0.000415	4.154539	1.407596	0.000166
1639	1.6298e+02	-14.7461	-104.747524	0.000537	5.370502	1.819575	0.000215
1640	1.6308e+02	-14.7124	-104.638521	0.000274	2.735916	0.926953	0.000110
1641	1.6318e+02	-14.6659	-104.501259	0.000345	3.445228	1.167275	0.000138
1642	1.6328e+02	-14.6354	-104.319587	0.000456	4.559860	1.544922	0.000183
1643	1.6338e+02	-14.5841	-104.133879	0.000466	4.661190	1.579254	0.000187
1644	1.6348e+02	-14.5472	-103.972394	0.000405	4.053209	1.373264	0.000162
1645	1.6358e+02	-14.5087	-103.810908	0.000405	4.053209	1.373264	0.000162
1646	1.6368e+02	-14.4670	-103.621163	0.000476	4.762521	1.613586	0.000191
1647	1.6378e+02	-14.4349	-103.435455	0.000466	4.661190	1.579254	0.000187
1648	1.6388e+02	-14.3868	-103.286081	0.000375	3.749218	1.270270	0.000150
1649	1.6398e+02	-14.3515	-103.169004	0.000294	2.938577	0.995617	0.000118
1650	1.6408e+02	-14.3130	-102.950998	0.000547	5.471832	1.853907	0.000219
1651	1.6418e+02	-14.2745	-102.809699	0.000355	3.546558	1.201606	0.000142
1652	1.6427e+02	-14.2279	-102.628028	0.000456	4.559860	1.544922	0.000183
1653	1.6437e+02	-14.1926	-102.462505	0.000415	4.154539	1.407596	0.000166
1654	1.6447e+02	-14.1574	-102.317168	0.000365	3.647888	1.235938	0.000146
1655	1.6457e+02	-14.1124	-102.147608	0.000426	4.255870	1.441928	0.000170
1656	1.6467e+02	-14.0659	-101.949789	0.000497	4.965181	1.682249	0.000199
1657	1.6477e+02	-14.0290	-101.804452	0.000365	3.647888	1.235938	0.000146
1658	1.6487e+02	-13.9889	-101.642966	0.000405	4.053209	1.373264	0.000162
1659	1.6497e+02	-13.9584	-101.469370	0.000436	4.357200	1.476259	0.000174
1660	1.6507e+02	-13.9103	-101.324033	0.000365	3.647888	1.235938	0.000146
1661	1.6517e+02	-13.8798	-101.126213	0.000497	4.965181	1.682249	0.000199
1662	1.6527e+02	-13.8285	-100.976839	0.000375	3.749218	1.270270	0.000150
1663	1.6537e+02	-13.7932	-100.819391	0.000395	3.951879	1.338933	0.000158
1664	1.6547e+02	-13.7483	-100.625608	0.000486	4.863851	1.647917	0.000195
1665	1.6557e+02	-13.7178	-100.452011	0.000436	4.357200	1.476259	0.000174
1666	1.6567e+02	-13.6681	-100.266303	0.000466	4.661190	1.579254	0.000187
1667	1.6577e+02	-13.6376	-100.120966	0.000365	3.647888	1.235938	0.000146
1668	1.6587e+02	-13.6023	-99.931221	0.000476	4.762521	1.613586	0.000191
1669	1.6597e+02	-13.5494	-99.773773	0.000395	3.951879	1.338933	0.000158
1670	1.6607e+02	-13.5237	-99.612287	0.000405	4.053209	1.373264	0.000162
1671	1.6616e+02	-13.4804	-99.446765	0.000415	4.154539	1.407596	0.000166
1672	1.6626e+02	-13.4290	-99.265094	0.000456	4.559860	1.544922	0.000183
1673	1.6636e+02	-13.3986	-99.099571	0.000415	4.154539	1.407596	0.000166
1674	1.6646e+02	-13.3520	-98.921937	0.000446	4.458530	1.510591	0.000179
1675	1.6656e+02	-13.3119	-98.764489	0.000395	3.951879	1.338933	0.000158
1676	1.6666e+02	-13.2847	-98.574743	0.000476	4.762521	1.613586	0.000191
1677	1.6676e+02	-13.2381	-98.364812	0.000527	5.269172	1.785244	0.000211
1678	1.6686e+02	-13.1932	-98.243698	0.000304	3.039907	1.029948	0.000122
1679	1.6696e+02	-13.1515	-98.053953	0.000476	4.762521	1.613586	0.000191
1680	1.6706e+02	-13.1194	-97.844022	0.000527	5.269172	1.785244	0.000211
1681	1.6716e+02	-13.0777	-97.730982	0.000284	2.837246	0.961285	0.000114
1682	1.6726e+02	-13.0376	-97.508939	0.000557	5.573162	1.888239	0.000223
1683	1.6736e+02	-12.9879	-97.319194	0.000476	4.762521	1.613586	0.000191
1684	1.6746e+02	-12.9606	-97.185969	0.000334	3.343897	1.132943	0.000134
1685	1.6756e+02	-12.9157	-96.980075	0.000517	5.167842	1.750912	0.000207
1686	1.6766e+02	-12.8868	-96.782255	0.000497	4.965181	1.682249	0.000199
1687	1.6776e+02	-12.8419	-96.636918	0.000365	3.647888	1.235938	0.000146
1688	1.6786e+02	-12.7970	-96.431024	0.000517	5.167842	1.750912	0.000207
1689	1.6796e+02	-12.7472	-96.249353	0.000456	4.559860	1.544922	0.000183
1690	1.6806e+02	-12.7168	-96.104016	0.000365	3.647888	1.235938	0.000146
1691	1.6816e+02	-12.6799	-95.873900	0.000578	5.775823	1.956902	0.000231
1692	1.6825e+02	-12.6301	-95.704340	0.000426	4.255870	1.441928	0.000170
1693	1.6835e+02	-12.5980	-95.518632	0.000466	4.661190	1.579254	0.000187
1694	1.6845e+02	-12.5595	-95.361183	0.000395	3.951879	1.338933	0.000158
1695	1.6855e+02	-12.5194	-95.175475	0.000466	4.661190	1.579254	0.000187
1696	1.6865e+02	-12.4761	-95.001878	0.000436	4.357200	1.476259	0.000174
1697	1.6875e+02	-12.4408	-94.820207	0.000456	4.559860	1.544922	0.000183
1698	1.6885e+02	-12.3911	-94.634499	0.000466	4.661190	1.579254	0.000187
1699	1.6895e+02	-12.3590	-94.444753	0.000476	4.762521	1.613586	0.000191
1700	1.6905e+02	-12.3189	-94.283268	0.000405	4.053209	1.373264	0.000162
1701	1.6915e+02	-12.2804	-94.073337	0.000527	5.269172	1.785244	0.000211
1702	1.6925e+02	-12.2403	-93.907814	0.000415	4.154539	1.407596	0.000166
1703	1.6935e+02	-12.1922	-93.738255	0.000426	4.255870	1.441928	0.000170
1704	1.6945e+02	-12.1521	-93.564658	0.000436	4.357200	1.476259	0.000174
1705	1.6955e+02	-12.1248	-93.370875	0.000486	4.863851	1.647917	0.000195
1706	1.6965e+02	-12.0815	-93.152870	0.000547	5.471832	1.853907	0.000219
1707	1.6975e+02	-12.0430	-93.019645	0.000334	3.343897	1.132943	0.000134
1708	1.6985e+02	-12.0013	-92.797602	0.000557	5.573162	1.888239	0.000223
1709	1.6995e+02	-11.9580	-92.632080	0.000415	4.154539	1.407596	0.000166
1710	1.7005e+02	-11.9178	-92.426186	0.000517	5.167842	1.750912	0.000207
1711	1.7015e+02	-11.8761	-92.272774	0.000385	3.850549	1.304601	0.000154
1712	1.7024e+02	-11.8376	-92.074955	0.000497	4.965181	1.682249	0.000199
1713	1.7034e+02	-11.8039	-91.917506	0.000395	3.951879	1.338933	0.000158
1714	1.7044e+02	-11.7638	-91.667204	0.000628	6.282474	2.128560	0.000252
1715	1.7054e+02	-11.7189	-91.521867	0.000365	3.647888	1.235938	0.000146
1716	1.7064e+02	-11.6788	-91.336159	0.000466	4.661190	1.579254	0.000187
1717	1.7074e+02	-11.6435	-91.162562	0.000436	4.357200	1.476259	0.000174
1718	1.7084e+02	-11.5906	-90.924371	0.000598	5.978483	2.025565	0.000239
1719	1.7094e+02	-11.5505	-90.827480	0.000243	2.431925	0.823959	0.000097
1720	1.7104e+02	-11.5264	-90.536806	0.000730	7.295776	2.471876	0.000292
1721	1.7114e+02	-11.4847	-90.391469	0.000365	3.647888	1.235938	0.000146
1722	1.7124e+02	-11.4430	-90.165390	0.000567	5.674493	1.922570	0.000227
1723	1.7134e+02	-11.3965	-89.999867	0.000415	4.154539	1.407596	0.000166
1724	1.7144e+02	-11.3692	-89.830307	0.000426	4.255870	1.441928	0.000170
1725	1.7154e+02	-11.3243	-89.640562	0.000476	4.762521	1.613586	0.000191
1726	1.7164e+02	-11.2810	-89.422557	0.000547	5.471832	1.853907	0.000219
1727	1.7174e+02	-11.2457	-89.224737	0.000497	4.965181	1.682249	0.000199
1728	1.7184e+02	-11.2008	-89.067289	0.000395	3.951879	1.338933	0.000158
1729	1.7194e+02	-11.1623	-88.857358	0.000527	5.269172	1.785244	0.000211
1730	1.7204e+02	-11.1189	-88.675686	0.000456	4.559860	1.544922	0.000183
1731	1.7213e+02	-11.0820	-88.502090	0.000436	4.357200	1.476259	0.000174
1732	1.7223e+02	-11.0564	-88.304270	0.000497	4.965181	1.682249	0.000199
1733	1.7233e+02	-11.0018	-88.078190	0.000567	5.674493	1.922570	0.000227
1734	1.7243e+02	-10.9713	-87.880371	0.000497	4.965181	1.682249	0.000199
1735	1.7253e+02	-10.9296	-87.658328	0.000557	5.573162	1.888239	0.000223
1736	1.7263e+02	-10.8783	-87.508954	0.000375	3.749218	1.270270	0.000150
1737	1.7273e+02	-10.8430	-87.323246	0.000466	4.661190	1.579254	0.000187
1738	1.7283e+02	-10.7949	-87.093129	0.000578	5.775823	1.956902	0.000231
1739	1.7293e+02	-10.7740	-86.891272	0.000507	5.066511	1.716581	0.000203
1740	1.7303e+02	-10.7211	-86.693453	0.000497	4.965181	1.682249	0.000199
1741	1.7313e+02	-10.6858	-86.487559	0.000517	5.167842	1.750912	0.000207
1742	1.7323e+02	-10.6393	-86.289739	0.000497	4.965181	1.682249	0.000199
1743	1.7333e+02	-10.6152	-86.095957	0.000486	4.863851	1.647917	0.000195
1744	1.7343e+02	-10.5575	-85.906211	0.000476	4.762521	1.613586	0.000191
1745	1.7353e+02	-10.5190	-85.716466	0.000476	4.762521	1.613586	0.000191
1746	1.7363e+02	-10.4917	-85.494424	0.000557	5.573162	1.888239	0.000223
1747	1.7373e+02	-10.4468	-85.300641	0.000486	4.863851	1.647917	0.000195
1748	1.7383e+02	-10.4099	-85.098784	0.000507	5.066511	1.716581	0.000203
1749	1.7393e+02	-10.3682	-84.917113	0.000456	4.559860	1.544922	0.000183
1750	1.7403e+02	-10.3457	-84.711219	0.000517	5.167842	1.750912	0.000207
1751	1.7413e+02	-10.2928	-84.537622	0.000436	4.357200	1.476259	0.000174
1752	1.7422e+02	-10.2527	-84.315580	0.000557	5.573162	1.888239	0.000223
1753	1.7432e+02	-10.2029	-84.101612	0.000537	5.370502	1.819575	0.000215
1754	1.7442e+02	-10.1660	-83.891681	0.000527	5.269172	1.785244	0.000211
1755	1.7452e+02	-10.1211	-83.673675	0.000547	5.471832	1.853907	0.000219
1756	1.7462e+02	-10.1019	-83.492004	0.000456	4.559860	1.544922	0.000183
1757	1.7472e+02	-10.0425	-83.282073	0.000527	5.269172	1.785244	0.000211
1758	1.7482e+02	-10.0072	-83.084253	0.000497	4.965181	1.682249	0.000199
1759	1.7492e+02	-9.9703	-82.890471	0.000486	4.863851	1.647917	0.000195
1760	1.7502e+02	-9.9302	-82.664391	0.000567	5.674493	1.922570	0.000227
1761	1.7512e+02	-9.8901	-82.482720	0.000456	4.559860	1.544922	0.000183
1762	1.7522e+02	-9.8452	-82.297012	0.000466	4.661190	1.579254	0.000187
1763	1.7532e+02	-9.8131	-82.070932	0.000567	5.674493	1.922570	0.000227
1764	1.7542e+02	-9.7682	-81.844853	0.000567	5.674493	1.922570	0.000227
1765	1.7552e+02	-9.7313	-81.647033	0.000497	4.965181	1.682249	0.000199
1766	1.7562e+02	-9.6896	-81.433065	0.000537	5.370502	1.819575	0.000215
1767	1.7572e+02	-9.6543	-81.239282	0.000486	4.863851	1.647917	0.000195
1768	1.7582e+02	-9.6078	-81.041463	0.000497	4.965181	1.682249	0.000199
1769	1.7592e+02	-9.5676	-80.847680	0.000486	4.863851	1.647917	0.000195
1770	1.7602e+02	-9.5436	-80.657935	0.000476	4.762521	1.613586	0.000191
1771	1.7612e+02	-9.4890	-80.423781	0.000588	5.877153	1.991233	0.000235
1772	1.7621e+02	-9.4441	-80.217887	0.000517	5.167842	1.750912	0.000207
1773	1.7631e+02	-9.4152	-80.024105	0.000486	4.863851	1.647917	0.000195
1774	1.7641e+02	-9.3687	-79.830322	0.000486	4.863851	1.647917	0.000195
1775	1.7651e+02	-9.3238	-79.612317	0.000547	5.471832	1.853907	0.000219
1776	1.7661e+02	-9.2901	-79.374126	0.000598	5.978483	2.025565	0.000239
1777	1.7671e+02	-9.2468	-79.172269	0.000507	5.066511	1.716581	0.000203
1778	1.7681e+02	-9.2083	-78.994635	0.000446	4.458530	1.510591	0.000179
1779	1.7691e+02	-9.1746	-78.772593	0.000557	5.573162	1.888239	0.000223
1780	1.7701e+02	-9.1345	-78.582847	0.000476	4.762521	1.613586	0.000191
1781	1.7711e+02	-9.0976	-78.352730	0.000578	5.775823	1.956902	0.000231
1782	1.7721e+02	-9.0543	-78.142799	0.000527	5.269172	1.785244	0.000211
1783	1.7731e+02	-9.0094	-77.981314	0.000405	4.053209	1.373264	0.000162
1784	1.7741e+02	-8.9821	-77.726974	0.000638	6.383804	2.162891	0.000256
1785	1.7751e+02	-8.9340	-77.496858	0.000578	5.775823	1.956902	0.000231
1786	1.7761e+02	-8.8939	-77.303075	0.000486	4.863851	1.647917	0.000195
1787	1.7771e+02	-8.8473	-77.068921	0.000588	5.877153	1.991233	0.000235
1788	1.7781e+02	-8.8137	-76.875139	0.000486	4.863851	1.647917	0.000195
1789	1.7791e+02	-8.7735	-76.661171	0.000537	5.370502	1.819575	0.000215
1790	1.7801e+02	-8.7383	-76.439128	0.000557	5.573162	1.888239	0.000223
1791	1.7810e+02	-8.6933	-76.237271	0.000507	5.066511	1.716581	0.000203
1792	1.7820e+02	-8.6532	-76.003117	0.000588	5.877153	1.991233	0.000235
1793	1.7830e+02	-8.6083	-75.801261	0.000507	5.066511	1.716581	0.000203
1794	1.7840e+02	-8.5666	-75.579218	0.000557	5.573162	1.888239	0.000223
1795	1.7850e+02	-8.5313	-75.365250	0.000537	5.370502	1.819575	0.000215
1796	1.7860e+02	-8.4880	-75.187616	0.000446	4.458530	1.510591	0.000179
1797	1.7870e+02	-8.4511	-74.905016	0.000709	7.093116	2.403213	0.000284
1798	1.7880e+02	-8.4158	-74.703160	0.000507	5.066511	1.716581	0.000203
1799	1.7890e+02	-8.3709	-74.509377	0.000486	4.863851	1.647917	0.000195
1800	1.7900e+02	-8.3404	-74.327706	0.000456	4.559860	1.544922	0.000183
1801	1.7910e+02	-8.2955	-74.101626	0.000567	5.674493	1.922570	0.000227
1802	1.7920e+02	-8.2570	-73.855361	0.000618	6.181144	2.094228	0.000248
1803	1.7930e+02	-8.2169	-73.645430	0.000527	5.269172	1.785244	0.000211
1804	1.7940e+02	-8.1768	-73.431462	0.000537	5.370502	1.819575	0.000215
1805	1.7950e+02	-8.1383	-73.257865	0.000436	4.357200	1.476259	0.000174
1806	1.7960e+02	-8.0901	-72.999488	0.000649	6.485134	2.197223	0.000260
1807	1.7970e+02	-8.0629	-72.813780	0.000466	4.661190	1.579254	0.000187
1808	1.7980e+02	-8.0164	-72.579626	0.000588	5.877153	1.991233	0.000235
1809	1.7990e+02	-7.9778	-72.373732	0.000517	5.167842	1.750912	0.000207
1810	1.8000e+02	-7.9329	-72.159764	0.000537	5.370502	1.819575	0.000215
1811	1.8009e+02	-7.8896	-71.921573	0.000598	5.978483	2.025565	0.000239
1812	1.8019e+02	-7.8527	-71.711642	0.000527	5.269172	1.785244	0.000211
1813	1.8029e+02	-7.8190	-71.517860	0.000486	4.863851	1.647917	0.000195
1814	1.8039e+02	-7.7853	-71.251409	0.000669	6.687795	2.265886	0.000268
1815	1.8049e+02	-7.7356	-71.077812	0.000436	4.357200	1.476259	0.000174
1816	1.8059e+02	-7.7035	-70.807324	0.000679	6.789125	2.300218	0.000272
1817	1.8069e+02	-7.6570	-70.625653	0.000456	4.559860	1.544922	0.000183
1818	1.8079e+02	-7.6201	-70.403610	0.000557	5.573162	1.888239	0.000223
1819	1.8089e+02	-7.5800	-70.197716	0.000517	5.167842	1.750912	0.000207
1820	1.8099e+02	-7.5463	-69.935302	0.000659	6.586465	2.231555	0.000264
1821	1.8109e+02	-7.4918	-69.757668	0.000446	4.458530	1.510591	0.000179
1822	1.8119e+02	-7.4549	-69.515440	0.000608	6.079814	2.059897	0.000243
1823	1.8129e+02	-7.4148	-69.301472	0.000537	5.370502	1.819575	0.000215
1824	1.8139e+02	-7.3698	-69.071355	0.000578	5.775823	1.956902	0.000231
1825	1.8149e+02	-7.3426	-68.861424	0.000527	5.269172	1.785244	0.000211
1826	1.8159e+02	-7.2896	-68.643419	0.000547	5.471832	1.853907	0.000219
1827	1.8169e+02	-7.2575	-68.413302	0.000578	5.775823	1.956902	0.000231
1828	1.8179e+02	-7.2190	-68.235668	0.000446	4.458530	1.510591	0.000179
1829	1.8189e+02	-7.1870	-67.977292	0.000649	6.485134	2.197223	0.000260
1830	1.8199e+02	-7.1420	-67.755249	0.000557	5.573162	1.888239	0.000223
1831	1.8209e+02	-7.1051	-67.533207	0.000557	5.573162	1.888239	0.000223
1832	1.8218e+02	-7.0554	-67.286941	0.000618	6.181144	2.094228	0.000248
1833	1.8228e+02	-7.0169	-67.048750	0.000598	5.978483	2.025565	0.000239
1834	1.8238e+02	-6.9832	-66.850931	0.000497	4.965181	1.682249	0.000199
1835	1.8248e+02	-6.9367	-66.653111	0.000497	4.965181	1.682249	0.000199
1836	1.8258e+02	-6.8998	-66.406846	0.000618	6.181144	2.094228	0.000248
1837	1.8268e+02	-6.8597	-66.221138	0.000466	4.661190	1.579254	0.000187
1838	1.8278e+02	-6.8196	-65.982947	0.000598	5.978483	2.025565	0.000239
1839	1.8288e+02	-6.7763	-65.732644	0.000628	6.282474	2.128560	0.000252
1840	1.8298e+02	-6.7378	-65.518676	0.000537	5.370502	1.819575	0.000215
1841	1.8308e+02	-6.7041	-65.292596	0.000567	5.674493	1.922570	0.000227
1842	1.8318e+02	-6.6624	-65.062480	0.000578	5.775823	1.956902	0.000231
1843	1.8328e+02	-6.6207	-64.832363	0.000578	5.775823	1.956902	0.000231
1844	1.8338e+02	-6.5790	-64.642617	0.000476	4.762521	1.613586	0.000191
1845	1.8348e+02	-6.5437	-64.404426	0.000598	5.978483	2.025565	0.000239
1846	1.8358e+02	-6.4923	-64.117790	0.000719	7.194446	2.437544	0.000288
1847	1.8368e+02	-6.4538	-63.956304	0.000405	4.053209	1.373264	0.000162
1848	1.8378e+02	-6.4346	-63.706002	0.000628	6.282474	2.128560	0.000252
1849	1.8388e+02	-6.3897	-63.467811	0.000598	5.978483	2.025565	0.000239
1850	1.8398e+02	-6.3496	-63.237694	0.000578	5.775823	1.956902	0.000231
1851	1.8407e+02	-6.3078	-63.007577	0.000578	5.775823	1.956902	0.000231
1852	1.8417e+02	-6.2742	-62.801684	0.000517	5.167842	1.750912	0.000207
1853	1.8427e+02	-6.2244	-62.555418	0.000618	6.181144	2.094228	0.000248
1854	1.8437e+02	-6.1891	-62.297042	0.000649	6.485134	2.197223	0.000260
1855	1.8447e+02	-6.1458	-62.115370	0.000456	4.559860	1.544922	0.000183
1856	1.8457e+02	-6.1057	-61.856994	0.000649	6.485134	2.197223	0.000260
1857	1.8467e+02	-6.0704	-61.602654	0.000638	6.383804	2.162891	0.000256
1858	1.8477e+02	-6.0303	-61.376575	0.000567	5.674493	1.922570	0.000227
1859	1.8487e+02	-5.9870	-61.158569	0.000547	5.471832	1.853907	0.000219
1860	1.8497e+02	-5.9517	-60.896155	0.000659	6.586465	2.231555	0.000264
1861	1.8507e+02	-5.9068	-60.706410	0.000476	4.762521	1.613586	0.000191
1862	1.8517e+02	-5.8554	-60.456108	0.000628	6.282474	2.128560	0.000252
1863	1.8527e+02	-5.8266	-60.213880	0.000608	6.079814	2.059897	0.000243
1864	1.8537e+02	-5.7945	-59.963577	0.000628	6.282474	2.128560	0.000252
1865	1.8547e+02	-5.7399	-59.705200	0.000649	6.485134	2.197223	0.000260
1866	1.8557e+02	-5.7047	-59.503344	0.000507	5.066511	1.716581	0.000203
1867	1.8567e+02	-5.6678	-59.273227	0.000578	5.775823	1.956902	0.000231
1868	1.8577e+02	-5.6228	-59.022924	0.000628	6.282474	2.128560	0.000252
1869	1.8587e+02	-5.5956	-58.821068	0.000507	5.066511	1.716581	0.000203
1870	1.8597e+02	-5.5442	-58.578840	0.000608	6.079814	2.059897	0.000243
1871	1.8606e+02	-5.5057	-58.320463	0.000649	6.485134	2.197223	0.000260
1872	1.8616e+02	-5.4688	-58.054012	0.000669	6.687795	2.265886	0.000268
1873	1.8626e+02	-5.4351	-57.827932	0.000567	5.674493	1.922570	0.000227
1874	1.8636e+02	-5.3870	-57.626076	0.000507	5.066511	1.716581	0.000203
1875	1.8646e+02	-5.3357	-57.371736	0.000638	6.383804	2.162891	0.000256
1876	1.8656e+02	-5.3116	-57.105285	0.000669	6.687795	2.265886	0.000268
1877	1.8666e+02	-5.2651	-56.887280	0.000547	5.471832	1.853907	0.000219
1878	1.8676e+02	-5.2234	-56.608717	0.000699	6.991786	2.368881	0.000280
1879	1.8686e+02	-5.1913	-56.406861	0.000507	5.066511	1.716581	0.000203
1880	1.8696e+02	-5.1512	-56.176744	0.000578	5.775823	1.956902	0.000231
1881	1.8706e+02	-5.1111	-55.926441	0.000628	6.282474	2.128560	0.000252
1882	1.8716e+02	-5.0742	-55.672102	0.000638	6.383804	2.162891	0.000256
1883	1.8726e+02	-5.0261	-55.466208	0.000517	5.167842	1.750912	0.000207
1884	1.8736e+02	-4.9827	-55.187646	0.000699	6.991786	2.368881	0.000280
1885	1.8746e+02	-4.9491	-54.957529	0.000578	5.775823	1.956902	0.000231
1886	1.8756e+02	-4.9106	-54.715301	0.000608	6.079814	2.059897	0.000243
1887	1.8766e+02	-4.8705	-54.444813	0.000679	6.789125	2.300218	0.000272
1888	1.8776e+02	-4.8303	-54.226807	0.000547	5.471832	1.853907	0.000219
1889	1.8786e+02	-4.7886	-53.964393	0.000659	6.586465	2.231555	0.000264
1890	1.8796e+02	-4.7453	-53.730240	0.000588	5.877153	1.991233	0.000235
1891	1.8806e+02	-4.7020	-53.471863	0.000649	6.485134	2.197223	0.000260
1892	1.8815e+02	-4.6651	-53.201375	0.000679	6.789125	2.300218	0.000272
1893	1.8825e+02	-4.6266	-52.963184	0.000598	5.978483	2.025565	0.000239
1894	1.8835e+02	-4.6025	-52.708844	0.000638	6.383804	2.162891	0.000256
1895	1.8845e+02	-4.5480	-52.466616	0.000608	6.079814	2.059897	0.000243
1896	1.8855e+02	-4.5095	-52.248611	0.000547	5.471832	1.853907	0.000219
1897	1.8865e+02	-4.4806	-51.970048	0.000699	6.991786	2.368881	0.000280
1898	1.8875e+02	-4.4309	-51.711672	0.000649	6.485134	2.197223	0.000260
1899	1.8885e+02	-4.3940	-51.465406	0.000618	6.181144	2.094228	0.000248
1900	1.8895e+02	-4.3555	-51.235290	0.000578	5.775823	1.956902	0.000231
1901	1.8905e+02	-4.3106	-50.952690	0.000709	7.093116	2.403213	0.000284
1902	1.8915e+02	-4.2689	-50.734685	0.000547	5.471832	1.853907	0.000219
1903	1.8925e+02	-4.2400	-50.460160	0.000689	6.890455	2.334549	0.000276
1904	1.8935e+02	-4.1887	-50.201783	0.000649	6.485134	2.197223	0.000260
1905	1.8945e+02	-4.1598	-49.959555	0.000608	6.079814	2.059897	0.000243
1906	1.8955e+02	-4.1133	-49.656770	0.000760	7.599767	2.574871	0.000304
1907	1.8965e+02	-4.0844	-49.446839	0.000527	5.269172	1.785244	0.000211
1908	1.8975e+02	-4.0362	-49.156165	0.000730	7.295776	2.471876	0.000292
1909	1.8985e+02	-3.9994	-48.905862	0.000628	6.282474	2.128560	0.000252
1910	1.8995e+02	-3.9560	-48.671708	0.000588	5.877153	1.991233	0.000235
1911	1.9004e+02	-3.9111	-48.413332	0.000649	6.485134	2.197223	0.000260
1912	1.9014e+02	-3.8726	-48.098435	0.000790	7.903758	2.677866	0.000316
1913	1.9024e+02	-3.8357	-47.884467	0.000537	5.370502	1.819575	0.000215
1914	1.9034e+02	-3.7940	-47.638202	0.000618	6.181144	2.094228	0.000248
1915	1.9044e+02	-3.7507	-47.343491	0.000740	7.397107	2.506208	0.000296
1916	1.9054e+02	-3.7138	-47.068966	0.000689	6.890455	2.334549	0.000276
1917	1.9064e+02	-3.6801	-46.818663	0.000628	6.282474	2.128560	0.000252
1918	1.9074e+02	-3.6288	-46.568361	0.000628	6.282474	2.128560	0.000252
1919	1.9084e+02	-3.5855	-46.322095	0.000618	6.181144	2.094228	0.000248
1920	1.9094e+02	-3.5421	-46.039496	0.000709	7.093116	2.403213	0.000284
1921	1.9104e+02	-3.5181	-45.760934	0.000699	6.991786	2.368881	0.000280
1922	1.9114e+02	-3.4780	-45.534854	0.000567	5.674493	1.922570	0.000227
1923	1.9124e+02	-3.4411	-45.223995	0.000780	7.802427	2.643534	0.000312
1924	1.9134e+02	-3.4010	-44.985804	0.000598	5.978483	2.025565	0.000239
1925	1.9144e+02	-3.3512	-44.723390	0.000659	6.586465	2.231555	0.000264
1926	1.9154e+02	-3.3111	-44.452902	0.000679	6.789125	2.300218	0.000272
1927	1.9164e+02	-3.2774	-44.198562	0.000638	6.383804	2.162891	0.000256
1928	1.9174e+02	-3.2309	-43.911925	0.000719	7.194446	2.437544	0.000288
1929	1.9184e+02	-3.2053	-43.697957	0.000537	5.370502	1.819575	0.000215
1930	1.9194e+02	-3.1571	-43.455729	0.000608	6.079814	2.059897	0.000243
1931	1.9203e+02	-3.1170	-43.140832	0.000790	7.903758	2.677866	0.000316
1932	1.9213e+02	-3.0801	-42.862270	0.000699	6.991786	2.368881	0.000280
1933	1.9223e+02	-3.0432	-42.624079	0.000598	5.978483	2.025565	0.000239
1934	1.9233e+02	-2.9983	-42.349554	0.000689	6.890455	2.334549	0.000276
1935	1.9243e+02	-2.9534	-42.075029	0.000689	6.890455	2.334549	0.000276
1936	1.9253e+02	-2.9213	-41.828763	0.000618	6.181144	2.094228	0.000248
1937	1.9263e+02	-2.8732	-41.513867	0.000790	7.903758	2.677866	0.000316
1938	1.9273e+02	-2.8379	-41.316047	0.000497	4.965181	1.682249	0.000199
1939	1.9283e+02	-2.8026	-40.985002	0.000831	8.309079	2.815192	0.000333
1940	1.9293e+02	-2.7609	-40.718551	0.000669	6.687795	2.265886	0.000268
1941	1.9303e+02	-2.7176	-40.456137	0.000659	6.586465	2.231555	0.000264
1942	1.9313e+02	-2.6775	-40.213909	0.000608	6.079814	2.059897	0.000243
1943	1.9323e+02	-2.6358	-39.903050	0.000780	7.802427	2.643534	0.000312
1944	1.9333e+02	-2.6069	-39.632562	0.000679	6.789125	2.300218	0.000272
1945	1.9343e+02	-2.5636	-39.370148	0.000659	6.586465	2.231555	0.000264
1946	1.9353e+02	-2.5219	-39.119845	0.000628	6.282474	2.128560	0.000252
1947	1.9363e+02	-2.4785	-38.825134	0.000740	7.397107	2.506208	0.000296
1948	1.9373e+02	-2.4368	-38.570795	0.000638	6.383804	2.162891	0.000256
1949	1.9383e+02	-2.3983	-38.239750	0.000831	8.309079	2.815192	0.000333
1950	1.9393e+02	-2.3566	-38.033856	0.000517	5.167842	1.750912	0.000207
1951	1.9403e+02	-2.3181	-37.727033	0.000770	7.701097	2.609202	0.000308
1952	1.9412e+02	-2.2796	-37.420211	0.000770	7.701097	2.609202	0.000308
1953	1.9422e+02	-2.2475	-37.186057	0.000588	5.877153	1.991233	0.000235
1954	1.9432e+02	-2.1962	-36.879235	0.000770	7.701097	2.609202	0.000308
1955	1.9442e+02	-2.1529	-36.584524	0.000740	7.397107	2.506208	0.000296
1956	1.9452e+02	-2.1272	-36.326147	0.000649	6.485134	2.197223	0.000260
1957	1.9462e+02	-2.0823	-36.071808	0.000638	6.383804	2.162891	0.000256
1958	1.9472e+02	-2.0326	-35.769023	0.000760	7.599767	2.574871	0.000304
1959	1.9482e+02	-1.9989	-35.502572	0.000669	6.687795	2.265886	0.000268
1960	1.9492e+02	-1.9604	-35.203824	0.000750	7.498437	2.540539	0.000300
1961	1.9502e+02	-1.9203	-34.945447	0.000649	6.485134	2.197223	0.000260
1962	1.9512e+02	-1.8770	-34.630550	0.000790	7.903758	2.677866	0.000316
1963	1.9522e+02	-1.8449	-34.319691	0.000780	7.802427	2.643534	0.000312
1964	1.9532e+02	-1.8048	-34.085537	0.000588	5.877153	1.991233	0.000235
1965	1.9542e+02	-1.7631	-33.774678	0.000780	7.802427	2.643534	0.000312
1966	1.9552e+02	-1.7229	-33.484004	0.000730	7.295776	2.471876	0.000292
1967	1.9562e+02	-1.6812	-33.245813	0.000598	5.978483	2.025565	0.000239
1968	1.9572e+02	-1.6459	-32.934953	0.000780	7.802427	2.643534	0.000312
1969	1.9582e+02	-1.6058	-32.648317	0.000719	7.194446	2.437544	0.000288
1970	1.9592e+02	-1.5609	-32.357643	0.000730	7.295776	2.471876	0.000292
1971	1.9601e+02	-1.5176	-32.103303	0.000638	6.383804	2.162891	0.000256
1972	1.9611e+02	-1.4727	-31.828778	0.000689	6.890455	2.334549	0.000276
1973	1.9621e+02	-1.4406	-31.530030	0.000750	7.498437	2.540539	0.000300
1974	1.9631e+02	-1.3989	-31.227245	0.000760	7.599767	2.574871	0.000304
1975	1.9641e+02	-1.3700	-30.968868	0.000649	6.485134	2.197223	0.000260
1976	1.9651e+02	-1.3251	-30.666083	0.000760	7.599767	2.574871	0.000304
1977	1.9661e+02	-1.2850	-30.395595	0.000679	6.789125	2.300218	0.000272
1978	1.9671e+02	-1.2401	-30.092810	0.000760	7.599767	2.574871	0.000304
1979	1.9681e+02	-1.1968	-29.834433	0.000649	6.485134	2.197223	0.000260
1980	1.9691e+02	-1.1647	-29.539722	0.000740	7.397107	2.506208	0.000296
1981	1.9701e+02	-1.1149	-29.216751	0.000811	8.106418	2.746529	0.000325
1982	1.9711e+02	-1.0829	-28.954338	0.000659	6.586465	2.231555	0.000264
1983	1.9721e+02	-1.0492	-28.643478	0.000780	7.802427	2.643534	0.000312
1984	1.9731e+02	-1.0042	-28.385101	0.000649	6.485134	2.197223	0.000260
1985	1.9741e+02	-0.9690	-28.106539	0.000699	6.991786	2.368881	0.000280
1986	1.9751e+02	-0.9192	-27.832014	0.000689	6.890455	2.334549	0.000276
1987	1.9761e+02	-0.8775	-27.488857	0.000861	8.613069	2.918187	0.000345
1988	1.9771e+02	-0.8438	-27.214332	0.000689	6.890455	2.334549	0.000276
1989	1.9781e+02	-0.8085	-26.923658	0.000730	7.295776	2.471876	0.000292
1990	1.9791e+02	-0.7604	-26.604725	0.000801	8.005088	2.712197	0.000321
1991	1.9800e+02	-0.7219	-26.314051	0.000730	7.295776	2.471876	0.000292
1992	1.9810e+02	-0.6850	-26.063748	0.000628	6.282474	2.128560	0.000252
1993	1.9820e+02	-0.6449	-25.760963	0.000760	7.599767	2.574871	0.000304
1994	1.9830e+02	-0.6048	-25.466252	0.000740	7.397107	2.506208	0.000296
1995	1.9840e+02	-0.5631	-25.143281	0.000811	8.106418	2.746529	0.000325
1996	1.9850e+02	-0.5246	-24.905090	0.000598	5.978483	2.025565	0.000239
1997	1.9860e+02	-0.4861	-24.549822	0.000892	8.917060	3.021182	0.000357
1998	1.9870e+02	-0.4412	-24.295483	0.000638	6.383804	2.162891	0.000256
1999	1.9880e+02	-0.4043	-24.000772	0.000740	7.397107	2.506208	0.000296
2000	1.9890e+02	-0.3706	-23.697987	0.000760	7.599767	2.574871	0.000304
2001	1.9900e+02	-0.3257	-23.407313	0.000730	7.295776	2.471876	0.000292
2002	1.9910e+02	-0.2823	-23.128751	0.000699	6.991786	2.368881	0.000280
2003	1.9920e+02	-0.2438	-22.825965	0.000760	7.599767	2.574871	0.000304
2004	1.9930e+02	-0.2086	-22.535292	0.000730	7.295776	2.471876	0.000292
2005	1.9940e+02	-0.1636	-22.256729	0.000699	6.991786	2.368881	0.000280
2006	1.9950e+02	-0.1251	-21.966056	0.000730	7.295776	2.471876	0.000292
2007	1.9960e+02	-0.0914	-21.614825	0.000882	8.815730	2.986850	0.000353
2008	1.9970e+02	-0.0545	-21.360485	0.000638	6.383804	2.162891	0.000256
2009	1.9980e+02	-0.0016	-21.041551	0.000638	6.383804	2.162891	0.000321

Center data before PMax,+/-Pr and +/-Vc Calc.

PMax (uC/cm2):	1.21e+02
Pr (uC/cm2):	1.04e+01
-Pr (uC/cm2):	-2.10e+01
PLoss (uC/cm2):	-2.13e+01
-Vc:	-1.39e+00
C (Max-Eff) (nF):	6.05e-01
K (Eff):	2.05e+03
Vert. (+/-Pr) Shift (uC/cm2):	-5.34e+00
Offset (uC/cm2):	-3.43e-01

A (Loop Area - uC/cm2·Volts):	2.84e-01



Hysteresis Version: 5.48.1 - Radiant Technologies, Inc., 1999 - 9/12/24

