»»»»»»»»»»»»»»»»»»»»»»»»»»»»»»»»»»»» Hysteresis ««««««««««««««««««««««««««««««««««««
»»»  Executed Version:	5.48.1
»»»  Vision Version:	5.48.4 (R)
»»»  Vision Compiled:	9/18/24
»»»  Driver Version:	5.47.0
»»»  Windows Version:	Windows 8 or 8.1
»»»  Processor Information:	x86 (AMD or Intel) - 32 Processors
»»»  Tester Name:	PMF21124-494 (100V)
»»»  Tester S/N:	PMF21124-494
»»»  Internal Amp Type:	100V RevK 270k
»»»  Internal Amp S/N:	iAB2-596/K     
»»»  Execution Count:	1
»»»»»»»»»»»»»»»»»»»»»»»»»»»»»»»»»»»»»»»»»»««««««««««««««««««««««««««««««««««««««««««

Stored:	6/5/2025 - 14:3:6
Configured:	06/05/25 01:31:43 PM
Executed:	06/05/25 02:01:59 PM

»»»»»»»»»»»»»»»»»»»»»»»»»»»»»»»»»»» Sample Info ««««««««««««««««««««««««««««««««««««
Sample Name:	
Lot Name:	
Wafer Name:	
Die Row/Column:	0/0
Capacitor Number:	0
Sample Area (cm2):	1.00e-04
Sample Thickness (microns):	3.00e-01

Amplifier:	Internal

»»»»»»»»»»»»»»»»»»»»»»»»»»»»»»»»»»» Tester Info «««««««««««««««««««««««««««««««««««
Tester Name:	PMF21124-494 (100V)
Tester Serial Number:	PMF21124-494
Return Signal Amp. Level:	0.19 [Index: 3]

»»»»»»»»»»»»»»»»»»»»»»»»»»»»»»»» Hysteresis Info ««««««««««««««««««««««««««««««««««
Task Name:	Hyst-303
Volts:	20.00
Field:	666.67 (kV/cm)
DCBias:	0.00
DCField:	0.00 (kV/cm)
Hysteresis Period (ms):	2.00e+02
Preset:	Enabled
Preset Delay (ms):	1.00e+03
Profile:	Standard Bipolar

»»»»»»»»»»»»»»»»»»»»»»»»»»»»»»»»»»»»»» Data «««««««««««««««««««««««««««««««««««««««
Points:	2009

Valid Data

Point	Time (ms)	Drive Voltage	Measured Polarization (uC/cm2)	Capacitance (uF)	Normalized Capacitance (uF/cm2)	Dielectric Constant	Instantaneous Current (mA)
   1	0.0000e+00	-0.0064	-0.181671	0.000507	5.067629	1.716959	0.000203
   2	9.9500e-02	0.0289	0.020186	0.000507	5.067629	1.716959	0.000203
   3	1.9900e-01	0.0706	0.222042	0.000507	5.067629	1.716959	0.000203
   4	2.9850e-01	0.1027	0.484456	0.000659	6.587918	2.232047	0.000264
   5	3.9800e-01	0.1508	0.767056	0.000709	7.094681	2.403743	0.000284
   6	4.9750e-01	0.1925	0.972950	0.000517	5.168982	1.751298	0.000207
   7	5.9700e-01	0.2294	1.227289	0.000639	6.385213	2.163369	0.000256
   8	6.9650e-01	0.2679	1.481629	0.000639	6.385213	2.163369	0.000256
   9	7.9600e-01	0.3128	1.748080	0.000669	6.689270	2.266386	0.000268
  10	8.9550e-01	0.3465	1.966085	0.000547	5.473039	1.854316	0.000219
  11	9.9500e-01	0.3802	2.256759	0.000730	7.297386	2.472421	0.000292
  12	1.0945e+00	0.4251	2.503024	0.000618	6.182508	2.094690	0.000248
  13	1.1940e+00	0.4781	2.777549	0.000689	6.891976	2.335065	0.000276
  14	1.2935e+00	0.5134	3.048037	0.000679	6.790623	2.300725	0.000272
  15	1.3930e+00	0.5342	3.310451	0.000659	6.587918	2.232047	0.000264
  16	1.4925e+00	0.5839	3.532494	0.000557	5.574392	1.888655	0.000223
  17	1.5920e+00	0.6176	3.762611	0.000578	5.777097	1.957334	0.000231
  18	1.6915e+00	0.6674	4.033099	0.000679	6.790623	2.300725	0.000272
  19	1.7910e+00	0.6978	4.327810	0.000740	7.398739	2.506760	0.000296
  20	1.8905e+00	0.7396	4.541778	0.000537	5.371687	1.819977	0.000215
  21	1.9900e+00	0.7893	4.828414	0.000720	7.196033	2.438082	0.000288
  22	2.0895e+00	0.8278	5.094865	0.000669	6.689270	2.266386	0.000268
  23	2.1890e+00	0.8615	5.357279	0.000659	6.587918	2.232047	0.000264
  24	2.2885e+00	0.9064	5.591433	0.000588	5.878450	1.991673	0.000235
  25	2.3880e+00	0.9417	5.869995	0.000699	6.993328	2.369404	0.000280
  26	2.4875e+00	0.9818	6.104149	0.000588	5.878450	1.991673	0.000235
  27	2.5870e+00	1.0235	6.398860	0.000740	7.398739	2.506760	0.000296
  28	2.6865e+00	1.0668	6.673385	0.000689	6.891976	2.335065	0.000276
  29	2.7860e+00	1.1069	6.875242	0.000507	5.067629	1.716959	0.000203
  30	2.8855e+00	1.1502	7.153805	0.000699	6.993328	2.369404	0.000280
  31	2.9850e+00	1.1823	7.400070	0.000618	6.182508	2.094690	0.000248
  32	3.0845e+00	1.2176	7.690744	0.000730	7.297386	2.472421	0.000292
  33	3.1840e+00	1.2673	7.941046	0.000628	6.283860	2.129029	0.000252
  34	3.2835e+00	1.2946	8.255943	0.000791	7.905501	2.678456	0.000316
  35	3.3830e+00	1.3443	8.514319	0.000649	6.486565	2.197708	0.000260
  36	3.4825e+00	1.3893	8.772696	0.000649	6.486565	2.197708	0.000260
  37	3.5820e+00	1.4246	9.039147	0.000669	6.689270	2.266386	0.000268
  38	3.6815e+00	1.4647	9.261189	0.000557	5.574392	1.888655	0.000223
  39	3.7810e+00	1.5032	9.531677	0.000679	6.790623	2.300725	0.000272
  40	3.8805e+00	1.5465	9.842537	0.000780	7.804149	2.644117	0.000312
  41	3.9800e+00	1.5850	10.084765	0.000608	6.081155	2.060351	0.000243
  42	4.0795e+00	1.6283	10.310845	0.000568	5.675745	1.922994	0.000227
  43	4.1790e+00	1.6668	10.597481	0.000720	7.196033	2.438082	0.000288
  44	4.2785e+00	1.6989	10.892192	0.000740	7.398739	2.506760	0.000296
  45	4.3780e+00	1.7454	11.130383	0.000598	5.979802	2.026012	0.000239
  46	4.4775e+00	1.7871	11.376649	0.000618	6.182508	2.094690	0.000248
  47	4.5770e+00	1.8272	11.630988	0.000639	6.385213	2.163369	0.000256
  48	4.6765e+00	1.8641	11.921662	0.000730	7.297386	2.472421	0.000292
  49	4.7760e+00	1.9010	12.196187	0.000689	6.891976	2.335065	0.000276
  50	4.8755e+00	1.9379	12.434378	0.000598	5.979802	2.026012	0.000239
  51	4.9750e+00	1.9764	12.737163	0.000760	7.601444	2.575439	0.000304
  52	5.0745e+00	2.0197	12.991503	0.000639	6.385213	2.163369	0.000256
  53	5.1740e+00	2.0630	13.249879	0.000649	6.486565	2.197708	0.000260
  54	5.2735e+00	2.1048	13.524405	0.000689	6.891976	2.335065	0.000276
  55	5.3730e+00	2.1368	13.798930	0.000689	6.891976	2.335065	0.000276
  56	5.4725e+00	2.1834	14.081529	0.000709	7.094681	2.403743	0.000284
  57	5.5720e+00	2.2251	14.315683	0.000588	5.878450	1.991673	0.000235
  58	5.6715e+00	2.2652	14.634617	0.000801	8.006854	2.712796	0.000321
  59	5.7710e+00	2.2973	14.897031	0.000659	6.587918	2.232047	0.000264
  60	5.8705e+00	2.3502	15.171556	0.000689	6.891976	2.335065	0.000276
  61	5.9700e+00	2.3759	15.401673	0.000578	5.777097	1.957334	0.000231
  62	6.0695e+00	2.4160	15.704458	0.000760	7.601444	2.575439	0.000304
  63	6.1690e+00	2.4609	15.954760	0.000628	6.283860	2.129029	0.000252
  64	6.2685e+00	2.5010	16.233323	0.000699	6.993328	2.369404	0.000280
  65	6.3680e+00	2.5379	16.495737	0.000659	6.587918	2.232047	0.000264
  66	6.4675e+00	2.5716	16.798522	0.000760	7.601444	2.575439	0.000304
  67	6.5670e+00	2.6213	17.048824	0.000628	6.283860	2.129029	0.000252
  68	6.6665e+00	2.6582	17.339498	0.000730	7.297386	2.472421	0.000292
  69	6.7660e+00	2.6999	17.581726	0.000608	6.081155	2.060351	0.000243
  70	6.8655e+00	2.7464	17.848177	0.000669	6.689270	2.266386	0.000268
  71	6.9650e+00	2.7817	18.175185	0.000821	8.209559	2.781474	0.000329
  72	7.0645e+00	2.8186	18.409339	0.000588	5.878450	1.991673	0.000235
  73	7.1640e+00	2.8603	18.700013	0.000730	7.297386	2.472421	0.000292
  74	7.2635e+00	2.8972	18.950315	0.000628	6.283860	2.129029	0.000252
  75	7.3630e+00	2.9341	19.232915	0.000709	7.094681	2.403743	0.000284
  76	7.4625e+00	2.9791	19.523588	0.000730	7.297386	2.472421	0.000292
  77	7.5620e+00	3.0176	19.798114	0.000689	6.891976	2.335065	0.000276
  78	7.6615e+00	3.0641	20.088787	0.000730	7.297386	2.472421	0.000292
  79	7.7610e+00	3.0930	20.310830	0.000557	5.574392	1.888655	0.000223
  80	7.8605e+00	3.1411	20.629764	0.000801	8.006854	2.712796	0.000321
  81	7.9600e+00	3.1700	20.839695	0.000527	5.270334	1.785638	0.000211
  82	8.0595e+00	3.2117	21.158628	0.000801	8.006854	2.712796	0.000321
  83	8.1590e+00	3.2662	21.429116	0.000679	6.790623	2.300725	0.000272
  84	8.2585e+00	3.2999	21.659233	0.000578	5.777097	1.957334	0.000231
  85	8.3580e+00	3.3432	21.909536	0.000628	6.283860	2.129029	0.000252
  86	8.4575e+00	3.3689	22.220395	0.000780	7.804149	2.644117	0.000312
  87	8.5570e+00	3.4266	22.494920	0.000689	6.891976	2.335065	0.000276
  88	8.6565e+00	3.4571	22.749260	0.000639	6.385213	2.163369	0.000256
  89	8.7560e+00	3.4956	23.035897	0.000720	7.196033	2.438082	0.000288
  90	8.8555e+00	3.5405	23.298310	0.000659	6.587918	2.232047	0.000264
  91	8.9550e+00	3.5823	23.568798	0.000679	6.790623	2.300725	0.000272
  92	9.0545e+00	3.6256	23.802952	0.000588	5.878450	1.991673	0.000235
  93	9.1540e+00	3.6496	24.113812	0.000780	7.804149	2.644117	0.000312
  94	9.2535e+00	3.6913	24.376226	0.000659	6.587918	2.232047	0.000264
  95	9.3530e+00	3.7379	24.650751	0.000689	6.891976	2.335065	0.000276
  96	9.4525e+00	3.7716	24.917202	0.000669	6.689270	2.266386	0.000268
  97	9.5520e+00	3.8181	25.163467	0.000618	6.182508	2.094690	0.000248
  98	9.6515e+00	3.8518	25.458178	0.000740	7.398739	2.506760	0.000296
  99	9.7510e+00	3.8903	25.728666	0.000679	6.790623	2.300725	0.000272
 100	9.8505e+00	3.9352	25.995117	0.000669	6.689270	2.266386	0.000268
 101	9.9500e+00	3.9705	26.281754	0.000720	7.196033	2.438082	0.000288
 102	1.0050e+01	4.0138	26.548205	0.000669	6.689270	2.266386	0.000268
 103	1.0149e+01	4.0555	26.806581	0.000649	6.486565	2.197708	0.000260
 104	1.0248e+01	4.0908	27.056884	0.000628	6.283860	2.129029	0.000252
 105	1.0348e+01	4.1293	27.327372	0.000679	6.790623	2.300725	0.000272
 106	1.0447e+01	4.1790	27.585748	0.000649	6.486565	2.197708	0.000260
 107	1.0547e+01	4.2143	27.852199	0.000669	6.689270	2.266386	0.000268
 108	1.0646e+01	4.2544	28.138836	0.000720	7.196033	2.438082	0.000288
 109	1.0746e+01	4.2945	28.377027	0.000598	5.979802	2.026012	0.000239
 110	1.0845e+01	4.3459	28.639441	0.000659	6.587918	2.232047	0.000264
 111	1.0945e+01	4.3715	28.958375	0.000801	8.006854	2.712796	0.000321
 112	1.1044e+01	4.4036	29.228863	0.000679	6.790623	2.300725	0.000272
 113	1.1144e+01	4.4453	29.475128	0.000618	6.182508	2.094690	0.000248
 114	1.1243e+01	4.4886	29.749653	0.000689	6.891976	2.335065	0.000276
 115	1.1343e+01	4.5320	30.044364	0.000740	7.398739	2.506760	0.000296
 116	1.1443e+01	4.5785	30.302741	0.000649	6.486565	2.197708	0.000260
 117	1.1542e+01	4.6058	30.557080	0.000639	6.385213	2.163369	0.000256
 118	1.1642e+01	4.6507	30.807383	0.000628	6.283860	2.129029	0.000252
 119	1.1741e+01	4.6892	31.122279	0.000791	7.905501	2.678456	0.000316
 120	1.1841e+01	4.7357	31.312025	0.000476	4.763571	1.613942	0.000191
 121	1.1940e+01	4.7742	31.634996	0.000811	8.108207	2.747135	0.000325
 122	1.2040e+01	4.8127	31.881261	0.000618	6.182508	2.094690	0.000248
 123	1.2139e+01	4.8528	32.155786	0.000689	6.891976	2.335065	0.000276
 124	1.2239e+01	4.8977	32.406089	0.000628	6.283860	2.129029	0.000252
 125	1.2338e+01	4.9346	32.680614	0.000689	6.891976	2.335065	0.000276
 126	1.2438e+01	4.9667	32.955139	0.000689	6.891976	2.335065	0.000276
 127	1.2537e+01	5.0036	33.241776	0.000720	7.196033	2.438082	0.000288
 128	1.2636e+01	5.0453	33.504189	0.000659	6.587918	2.232047	0.000264
 129	1.2736e+01	5.0838	33.782752	0.000699	6.993328	2.369404	0.000280
 130	1.2835e+01	5.1303	34.012869	0.000578	5.777097	1.957334	0.000231
 131	1.2935e+01	5.1688	34.242985	0.000578	5.777097	1.957334	0.000231
 132	1.3034e+01	5.2105	34.557882	0.000791	7.905501	2.678456	0.000316
 133	1.3134e+01	5.2539	34.816259	0.000649	6.486565	2.197708	0.000260
 134	1.3233e+01	5.2940	35.082710	0.000669	6.689270	2.266386	0.000268
 135	1.3333e+01	5.3228	35.333012	0.000628	6.283860	2.129029	0.000252
 136	1.3432e+01	5.3694	35.627723	0.000740	7.398739	2.506760	0.000296
 137	1.3532e+01	5.4111	35.845728	0.000547	5.473039	1.854316	0.000219
 138	1.3632e+01	5.4496	36.128328	0.000709	7.094681	2.403743	0.000284
 139	1.3731e+01	5.4913	36.402853	0.000689	6.891976	2.335065	0.000276
 140	1.3831e+01	5.5266	36.657193	0.000639	6.385213	2.163369	0.000256
 141	1.3930e+01	5.5699	36.923643	0.000669	6.689270	2.266386	0.000268
 142	1.4030e+01	5.6116	37.149723	0.000568	5.675745	1.922994	0.000227
 143	1.4129e+01	5.6517	37.444434	0.000740	7.398739	2.506760	0.000296
 144	1.4229e+01	5.6934	37.670514	0.000568	5.675745	1.922994	0.000227
 145	1.4328e+01	5.7287	37.985410	0.000791	7.905501	2.678456	0.000316
 146	1.4428e+01	5.7720	38.203415	0.000547	5.473039	1.854316	0.000219
 147	1.4527e+01	5.8105	38.437569	0.000588	5.878450	1.991673	0.000235
 148	1.4627e+01	5.8426	38.728243	0.000730	7.297386	2.472421	0.000292
 149	1.4726e+01	5.8875	38.974508	0.000618	6.182508	2.094690	0.000248
 150	1.4825e+01	5.9212	39.216737	0.000608	6.081155	2.060351	0.000243
 151	1.4925e+01	5.9661	39.507410	0.000730	7.297386	2.472421	0.000292
 152	1.5024e+01	6.0014	39.729453	0.000557	5.574392	1.888655	0.000223
 153	1.5124e+01	6.0464	40.003978	0.000689	6.891976	2.335065	0.000276
 154	1.5223e+01	6.0833	40.246206	0.000608	6.081155	2.060351	0.000243
 155	1.5323e+01	6.1250	40.520731	0.000689	6.891976	2.335065	0.000276
 156	1.5422e+01	6.1619	40.787182	0.000669	6.689270	2.266386	0.000268
 157	1.5522e+01	6.2052	41.017299	0.000578	5.777097	1.957334	0.000231
 158	1.5621e+01	6.2437	41.287787	0.000679	6.790623	2.300725	0.000272
 159	1.5721e+01	6.2838	41.521941	0.000588	5.878450	1.991673	0.000235
 160	1.5820e+01	6.3319	41.788392	0.000669	6.689270	2.266386	0.000268
 161	1.5920e+01	6.3560	42.042732	0.000639	6.385213	2.163369	0.000256
 162	1.6020e+01	6.4073	42.276885	0.000588	5.878450	1.991673	0.000235
 163	1.6119e+01	6.4554	42.531225	0.000639	6.385213	2.163369	0.000256
 164	1.6218e+01	6.4811	42.781527	0.000628	6.283860	2.129029	0.000252
 165	1.6318e+01	6.5212	43.047978	0.000669	6.689270	2.266386	0.000268
 166	1.6418e+01	6.5485	43.278095	0.000578	5.777097	1.957334	0.000231
 167	1.6517e+01	6.6062	43.588955	0.000780	7.804149	2.644117	0.000312
 168	1.6616e+01	6.6399	43.810997	0.000557	5.574392	1.888655	0.000223
 169	1.6716e+01	6.6768	44.049188	0.000598	5.979802	2.026012	0.000239
 170	1.6816e+01	6.7105	44.287379	0.000598	5.979802	2.026012	0.000239
 171	1.6915e+01	6.7506	44.578053	0.000730	7.297386	2.472421	0.000292
 172	1.7015e+01	6.8019	44.852578	0.000689	6.891976	2.335065	0.000276
 173	1.7114e+01	6.8324	45.042323	0.000476	4.763571	1.613942	0.000191
 174	1.7213e+01	6.8790	45.324923	0.000709	7.094681	2.403743	0.000284
 175	1.7313e+01	6.9255	45.607522	0.000709	7.094681	2.403743	0.000284
 176	1.7413e+01	6.9688	45.785156	0.000446	4.459514	1.510924	0.000179
 177	1.7512e+01	7.0009	46.071793	0.000720	7.196033	2.438082	0.000288
 178	1.7611e+01	7.0378	46.346318	0.000689	6.891976	2.335065	0.000276
 179	1.7711e+01	7.0875	46.564324	0.000547	5.473039	1.854316	0.000219
 180	1.7811e+01	7.1180	46.814626	0.000628	6.283860	2.129029	0.000252
 181	1.7910e+01	7.1565	47.105300	0.000730	7.297386	2.472421	0.000292
 182	1.8009e+01	7.2030	47.319268	0.000537	5.371687	1.819977	0.000215
 183	1.8109e+01	7.2447	47.601867	0.000709	7.094681	2.403743	0.000284
 184	1.8209e+01	7.2816	47.827947	0.000568	5.675745	1.922994	0.000227
 185	1.8308e+01	7.3121	48.054027	0.000568	5.675745	1.922994	0.000227
 186	1.8407e+01	7.3602	48.320478	0.000669	6.689270	2.266386	0.000268
 187	1.8507e+01	7.3939	48.623263	0.000760	7.601444	2.575439	0.000304
 188	1.8607e+01	7.4436	48.813008	0.000476	4.763571	1.613942	0.000191
 189	1.8706e+01	7.4773	49.039088	0.000568	5.675745	1.922994	0.000227
 190	1.8805e+01	7.5206	49.337836	0.000750	7.500091	2.541100	0.000300
 191	1.8905e+01	7.5559	49.604287	0.000669	6.689270	2.266386	0.000268
 192	1.9005e+01	7.6025	49.822292	0.000547	5.473039	1.854316	0.000219
 193	1.9104e+01	7.6345	50.108929	0.000720	7.196033	2.438082	0.000288
 194	1.9203e+01	7.6811	50.294637	0.000466	4.662219	1.579602	0.000187
 195	1.9303e+01	7.7212	50.553014	0.000649	6.486565	2.197708	0.000260
 196	1.9402e+01	7.7565	50.762945	0.000527	5.270334	1.785638	0.000211
 197	1.9502e+01	7.8078	51.069767	0.000770	7.702796	2.609778	0.000308
 198	1.9602e+01	7.8399	51.344292	0.000689	6.891976	2.335065	0.000276
 199	1.9701e+01	7.8832	51.566335	0.000557	5.574392	1.888655	0.000223
 200	1.9800e+01	7.9008	51.792414	0.000568	5.675745	1.922994	0.000227
 201	1.9900e+01	7.9586	52.062902	0.000679	6.790623	2.300725	0.000272
 202	2.0000e+01	7.9875	52.268796	0.000517	5.168982	1.751298	0.000207
 203	2.0099e+01	8.0404	52.559470	0.000730	7.297386	2.472421	0.000292
 204	2.0198e+01	8.0789	52.712881	0.000385	3.851398	1.304889	0.000154
 205	2.0298e+01	8.1094	53.015667	0.000760	7.601444	2.575439	0.000304
 206	2.0398e+01	8.1543	53.233672	0.000547	5.473039	1.854316	0.000219
 207	2.0497e+01	8.1976	53.496086	0.000659	6.587918	2.232047	0.000264
 208	2.0596e+01	8.2409	53.661608	0.000416	4.155456	1.407907	0.000166
 209	2.0696e+01	8.2618	53.944208	0.000709	7.094681	2.403743	0.000284
 210	2.0796e+01	8.3115	54.255067	0.000780	7.804149	2.644117	0.000312
 211	2.0895e+01	8.3597	54.473073	0.000547	5.473039	1.854316	0.000219
 212	2.0994e+01	8.4126	54.691078	0.000547	5.473039	1.854316	0.000219
 213	2.1094e+01	8.4351	54.925232	0.000588	5.878450	1.991673	0.000235
 214	2.1194e+01	8.4816	55.207831	0.000709	7.094681	2.403743	0.000284
 215	2.1293e+01	8.5121	55.421799	0.000537	5.371687	1.819977	0.000215
 216	2.1392e+01	8.5538	55.692288	0.000679	6.790623	2.300725	0.000272
 217	2.1492e+01	8.5987	55.902219	0.000527	5.270334	1.785638	0.000211
 218	2.1591e+01	8.6372	56.188855	0.000720	7.196033	2.438082	0.000288
 219	2.1691e+01	8.6741	56.394749	0.000517	5.168982	1.751298	0.000207
 220	2.1791e+01	8.7174	56.624866	0.000578	5.777097	1.957334	0.000231
 221	2.1890e+01	8.7543	56.859020	0.000588	5.878450	1.991673	0.000235
 222	2.1989e+01	8.7960	57.125471	0.000669	6.689270	2.266386	0.000268
 223	2.2089e+01	8.8297	57.335402	0.000527	5.270334	1.785638	0.000211
 224	2.2189e+01	8.8746	57.593778	0.000649	6.486565	2.197708	0.000260
 225	2.2288e+01	8.9099	57.823895	0.000578	5.777097	1.957334	0.000231
 226	2.2387e+01	8.9516	58.037863	0.000537	5.371687	1.819977	0.000215
 227	2.2487e+01	8.9869	58.296240	0.000649	6.486565	2.197708	0.000260
 228	2.2587e+01	9.0382	58.522320	0.000568	5.675745	1.922994	0.000227
 229	2.2686e+01	9.0671	58.788771	0.000669	6.689270	2.266386	0.000268
 230	2.2785e+01	9.1169	58.998702	0.000527	5.270334	1.785638	0.000211
 231	2.2885e+01	9.1473	59.277264	0.000699	6.993328	2.369404	0.000280
 232	2.2985e+01	9.1858	59.491232	0.000537	5.371687	1.819977	0.000215
 233	2.3084e+01	9.2356	59.757683	0.000669	6.689270	2.266386	0.000268
 234	2.3183e+01	9.2789	59.967614	0.000527	5.270334	1.785638	0.000211
 235	2.3283e+01	9.3158	60.217917	0.000628	6.283860	2.129029	0.000252
 236	2.3383e+01	9.3575	60.448033	0.000578	5.777097	1.957334	0.000231
 237	2.3482e+01	9.3880	60.718522	0.000679	6.790623	2.300725	0.000272
 238	2.3581e+01	9.4281	60.920378	0.000507	5.067629	1.716959	0.000203
 239	2.3681e+01	9.4746	61.158569	0.000598	5.979802	2.026012	0.000239
 240	2.3780e+01	9.5179	61.388686	0.000578	5.777097	1.957334	0.000231
 241	2.3880e+01	9.5548	61.675323	0.000720	7.196033	2.438082	0.000288
 242	2.3980e+01	9.5981	61.885254	0.000527	5.270334	1.785638	0.000211
 243	2.4079e+01	9.6334	62.143630	0.000649	6.486565	2.197708	0.000260
 244	2.4178e+01	9.6719	62.365673	0.000557	5.574392	1.888655	0.000223
 245	2.4278e+01	9.7088	62.567530	0.000507	5.067629	1.716959	0.000203
 246	2.4378e+01	9.7441	62.838018	0.000679	6.790623	2.300725	0.000272
 247	2.4477e+01	9.7922	63.080246	0.000608	6.081155	2.060351	0.000243
 248	2.4576e+01	9.8259	63.282103	0.000507	5.067629	1.716959	0.000203
 249	2.4676e+01	9.8724	63.536442	0.000639	6.385213	2.163369	0.000256
 250	2.4776e+01	9.9174	63.734262	0.000497	4.966277	1.682620	0.000199
 251	2.4875e+01	9.9511	63.996676	0.000659	6.587918	2.232047	0.000264
 252	2.4974e+01	9.9944	64.202570	0.000517	5.168982	1.751298	0.000207
 253	2.5074e+01	10.0361	64.489206	0.000720	7.196033	2.438082	0.000288
 254	2.5174e+01	10.0746	64.666840	0.000446	4.459514	1.510924	0.000179
 255	2.5273e+01	10.1083	64.969625	0.000760	7.601444	2.575439	0.000304
 256	2.5372e+01	10.1436	65.147259	0.000446	4.459514	1.510924	0.000179
 257	2.5472e+01	10.1901	65.389488	0.000608	6.081155	2.060351	0.000243
 258	2.5572e+01	10.2286	65.587307	0.000497	4.966277	1.682620	0.000199
 259	2.5671e+01	10.2655	65.817424	0.000578	5.777097	1.957334	0.000231
 260	2.5770e+01	10.3152	66.059652	0.000608	6.081155	2.060351	0.000243
 261	2.5870e+01	10.3473	66.281695	0.000557	5.574392	1.888655	0.000223
 262	2.5970e+01	10.3890	66.544108	0.000659	6.587918	2.232047	0.000264
 263	2.6069e+01	10.4259	66.766151	0.000557	5.574392	1.888655	0.000223
 264	2.6169e+01	10.4756	67.032602	0.000669	6.689270	2.266386	0.000268
 265	2.6268e+01	10.5125	67.238496	0.000517	5.168982	1.751298	0.000207
 266	2.6367e+01	10.5366	67.480724	0.000608	6.081155	2.060351	0.000243
 267	2.6467e+01	10.5911	67.674506	0.000486	4.864924	1.648281	0.000195
 268	2.6567e+01	10.6264	67.928846	0.000639	6.385213	2.163369	0.000256
 269	2.6666e+01	10.6665	68.118591	0.000476	4.763571	1.613942	0.000191
 270	2.6765e+01	10.7115	68.352745	0.000588	5.878450	1.991673	0.000235
 271	2.6865e+01	10.7468	68.619196	0.000669	6.689270	2.266386	0.000268
 272	2.6965e+01	10.7917	68.808942	0.000476	4.763571	1.613942	0.000191
 273	2.7064e+01	10.8318	69.067318	0.000649	6.486565	2.197708	0.000260
 274	2.7163e+01	10.8591	69.293398	0.000568	5.675745	1.922994	0.000227
 275	2.7263e+01	10.9056	69.511403	0.000547	5.473039	1.854316	0.000219
 276	2.7363e+01	10.9505	69.729408	0.000547	5.473039	1.854316	0.000219
 277	2.7462e+01	10.9890	69.939340	0.000527	5.270334	1.785638	0.000211
 278	2.7561e+01	11.0307	70.181568	0.000608	6.081155	2.060351	0.000243
 279	2.7661e+01	11.0708	70.359202	0.000446	4.459514	1.510924	0.000179
 280	2.7761e+01	11.1061	70.609504	0.000628	6.283860	2.129029	0.000252
 281	2.7860e+01	11.1478	70.888066	0.000699	6.993328	2.369404	0.000280
 282	2.7959e+01	11.1895	71.073775	0.000466	4.662219	1.579602	0.000187
 283	2.8059e+01	11.2232	71.287743	0.000537	5.371687	1.819977	0.000215
 284	2.8159e+01	11.2697	71.525934	0.000598	5.979802	2.026012	0.000239
 285	2.8258e+01	11.3147	71.768162	0.000608	6.081155	2.060351	0.000243
 286	2.8358e+01	11.3467	71.949833	0.000456	4.560866	1.545263	0.000183
 287	2.8457e+01	11.3917	72.192061	0.000608	6.081155	2.060351	0.000243
 288	2.8556e+01	11.4189	72.430252	0.000598	5.979802	2.026012	0.000239
 289	2.8656e+01	11.4671	72.656332	0.000568	5.675745	1.922994	0.000227
 290	2.8756e+01	11.5007	72.862226	0.000517	5.168982	1.751298	0.000207
 291	2.8855e+01	11.5505	73.068120	0.000517	5.168982	1.751298	0.000207
 292	2.8954e+01	11.5874	73.342645	0.000689	6.891976	2.335065	0.000276
 293	2.9054e+01	11.6259	73.532390	0.000476	4.763571	1.613942	0.000191
 294	2.9154e+01	11.6676	73.750396	0.000547	5.473039	1.854316	0.000219
 295	2.9253e+01	11.7093	73.980512	0.000578	5.777097	1.957334	0.000231
 296	2.9352e+01	11.7462	74.194481	0.000537	5.371687	1.819977	0.000215
 297	2.9452e+01	11.7831	74.404412	0.000527	5.270334	1.785638	0.000211
 298	2.9552e+01	11.8216	74.654714	0.000628	6.283860	2.129029	0.000252
 299	2.9651e+01	11.8713	74.868682	0.000537	5.371687	1.819977	0.000215
 300	2.9750e+01	11.9082	75.086688	0.000547	5.473039	1.854316	0.000219
 301	2.9850e+01	11.9483	75.328916	0.000608	6.081155	2.060351	0.000243
 302	2.9950e+01	11.9852	75.494438	0.000416	4.155456	1.407907	0.000166
 303	3.0049e+01	12.0125	75.744741	0.000628	6.283860	2.129029	0.000252
 304	3.0148e+01	12.0478	75.934486	0.000476	4.763571	1.613942	0.000191
 305	3.0248e+01	12.1055	76.160566	0.000568	5.675745	1.922994	0.000227
 306	3.0348e+01	12.1440	76.366460	0.000517	5.168982	1.751298	0.000207
 307	3.0447e+01	12.1793	76.592539	0.000568	5.675745	1.922994	0.000227
 308	3.0547e+01	12.2226	76.826693	0.000588	5.878450	1.991673	0.000235
 309	3.0646e+01	12.2660	77.060847	0.000588	5.878450	1.991673	0.000235
 310	3.0745e+01	12.3029	77.246555	0.000466	4.662219	1.579602	0.000187
 311	3.0845e+01	12.3414	77.480709	0.000588	5.878450	1.991673	0.000235
 312	3.0945e+01	12.3783	77.686603	0.000517	5.168982	1.751298	0.000207
 313	3.1044e+01	12.4184	77.904608	0.000547	5.473039	1.854316	0.000219
 314	3.1143e+01	12.4617	78.110502	0.000517	5.168982	1.751298	0.000207
 315	3.1243e+01	12.5002	78.304285	0.000486	4.864924	1.648281	0.000195
 316	3.1343e+01	12.5499	78.542476	0.000598	5.979802	2.026012	0.000239
 317	3.1442e+01	12.5820	78.752407	0.000527	5.270334	1.785638	0.000211
 318	3.1541e+01	12.6189	78.962338	0.000527	5.270334	1.785638	0.000211
 319	3.1641e+01	12.6638	79.172269	0.000527	5.270334	1.785638	0.000211
 320	3.1741e+01	12.7055	79.394311	0.000557	5.574392	1.888655	0.000223
 321	3.1840e+01	12.7456	79.608280	0.000537	5.371687	1.819977	0.000215
 322	3.1939e+01	12.7922	79.830322	0.000557	5.574392	1.888655	0.000223
 323	3.2039e+01	12.8210	80.036216	0.000517	5.168982	1.751298	0.000207
 324	3.2139e+01	12.8579	80.234036	0.000497	4.966277	1.682620	0.000199
 325	3.2238e+01	12.9012	80.468190	0.000588	5.878450	1.991673	0.000235
 326	3.2337e+01	12.9365	80.670046	0.000507	5.067629	1.716959	0.000203
 327	3.2437e+01	12.9718	80.835569	0.000416	4.155456	1.407907	0.000166
 328	3.2536e+01	13.0200	81.057611	0.000557	5.574392	1.888655	0.000223
 329	3.2636e+01	13.0552	81.251394	0.000486	4.864924	1.648281	0.000195
 330	3.2736e+01	13.1002	81.489585	0.000598	5.979802	2.026012	0.000239
 331	3.2835e+01	13.1451	81.699516	0.000527	5.270334	1.785638	0.000211
 332	3.2934e+01	13.1708	81.861001	0.000405	4.054103	1.373567	0.000162
 333	3.3034e+01	13.2060	82.095155	0.000588	5.878450	1.991673	0.000235
 334	3.3133e+01	13.2654	82.329309	0.000588	5.878450	1.991673	0.000235
 335	3.3233e+01	13.3039	82.519054	0.000476	4.763571	1.613942	0.000191
 336	3.3333e+01	13.3376	82.724948	0.000517	5.168982	1.751298	0.000207
 337	3.3432e+01	13.3697	82.922768	0.000497	4.966277	1.682620	0.000199
 338	3.3532e+01	13.4098	83.116551	0.000486	4.864924	1.648281	0.000195
 339	3.3631e+01	13.4579	83.334556	0.000547	5.473039	1.854316	0.000219
 340	3.3730e+01	13.4980	83.568710	0.000588	5.878450	1.991673	0.000235
 341	3.3830e+01	13.5317	83.750381	0.000456	4.560866	1.545263	0.000183
 342	3.3929e+01	13.5718	83.960312	0.000527	5.270334	1.785638	0.000211
 343	3.4029e+01	13.6119	84.170243	0.000527	5.270334	1.785638	0.000211
 344	3.4129e+01	13.6520	84.404397	0.000588	5.878450	1.991673	0.000235
 345	3.4228e+01	13.6905	84.598179	0.000486	4.864924	1.648281	0.000195
 346	3.4328e+01	13.7370	84.783888	0.000466	4.662219	1.579602	0.000187
 347	3.4427e+01	13.7772	84.993819	0.000527	5.270334	1.785638	0.000211
 348	3.4526e+01	13.8140	85.203750	0.000527	5.270334	1.785638	0.000211
 349	3.4626e+01	13.8542	85.397532	0.000486	4.864924	1.648281	0.000195
 350	3.4725e+01	13.8991	85.627649	0.000578	5.777097	1.957334	0.000231
 351	3.4825e+01	13.9263	85.809320	0.000456	4.560866	1.545263	0.000183
 352	3.4925e+01	13.9761	86.047511	0.000598	5.979802	2.026012	0.000239
 353	3.5024e+01	14.0194	86.237257	0.000476	4.763571	1.613942	0.000191
 354	3.5123e+01	14.0531	86.459299	0.000557	5.574392	1.888655	0.000223
 355	3.5223e+01	14.0948	86.640970	0.000456	4.560866	1.545263	0.000183
 356	3.5322e+01	14.1285	86.891272	0.000628	6.283860	2.129029	0.000252
 357	3.5422e+01	14.1750	87.056795	0.000416	4.155456	1.407907	0.000166
 358	3.5522e+01	14.2023	87.226355	0.000426	4.256808	1.442246	0.000170
 359	3.5621e+01	14.2504	87.432249	0.000517	5.168982	1.751298	0.000207
 360	3.5721e+01	14.2937	87.666403	0.000588	5.878450	1.991673	0.000235
 361	3.5820e+01	14.3322	87.856148	0.000476	4.763571	1.613942	0.000191
 362	3.5919e+01	14.3691	88.098376	0.000608	6.081155	2.060351	0.000243
 363	3.6019e+01	14.4124	88.267936	0.000426	4.256808	1.442246	0.000170
 364	3.6118e+01	14.4590	88.473830	0.000517	5.168982	1.751298	0.000207
 365	3.6218e+01	14.4894	88.695872	0.000557	5.574392	1.888655	0.000223
 366	3.6318e+01	14.5327	88.901766	0.000517	5.168982	1.751298	0.000207
 367	3.6417e+01	14.5680	89.087474	0.000466	4.662219	1.579602	0.000187
 368	3.6517e+01	14.6049	89.293368	0.000517	5.168982	1.751298	0.000207
 369	3.6616e+01	14.6563	89.483114	0.000476	4.763571	1.613942	0.000191
 370	3.6715e+01	14.6868	89.709193	0.000568	5.675745	1.922994	0.000227
 371	3.6815e+01	14.7301	89.898939	0.000476	4.763571	1.613942	0.000191
 372	3.6914e+01	14.7750	90.068498	0.000426	4.256808	1.442246	0.000170
 373	3.7014e+01	14.8135	90.278429	0.000527	5.270334	1.785638	0.000211
 374	3.7114e+01	14.8536	90.496435	0.000547	5.473039	1.854316	0.000219
 375	3.7213e+01	14.8825	90.665994	0.000426	4.256808	1.442246	0.000170
 376	3.7313e+01	14.9322	90.904185	0.000598	5.979802	2.026012	0.000239
 377	3.7412e+01	14.9771	91.081819	0.000446	4.459514	1.510924	0.000179
 378	3.7511e+01	15.0076	91.299825	0.000547	5.473039	1.854316	0.000219
 379	3.7611e+01	15.0429	91.473422	0.000436	4.358161	1.476585	0.000174
 380	3.7711e+01	15.0878	91.695464	0.000557	5.574392	1.888655	0.000223
 381	3.7810e+01	15.1279	91.865024	0.000426	4.256808	1.442246	0.000170
 382	3.7910e+01	15.1648	92.078992	0.000537	5.371687	1.819977	0.000215
 383	3.8009e+01	15.1969	92.260663	0.000456	4.560866	1.545263	0.000183
 384	3.8108e+01	15.2498	92.474631	0.000537	5.371687	1.819977	0.000215
 385	3.8208e+01	15.2835	92.660339	0.000466	4.662219	1.579602	0.000187
 386	3.8307e+01	15.3300	92.837973	0.000446	4.459514	1.510924	0.000179
 387	3.8407e+01	15.3750	93.047904	0.000527	5.270334	1.785638	0.000211
 388	3.8507e+01	15.4103	93.265910	0.000547	5.473039	1.854316	0.000219
 389	3.8606e+01	15.4439	93.467767	0.000507	5.067629	1.716959	0.000203
 390	3.8706e+01	15.4825	93.649438	0.000456	4.560866	1.545263	0.000183
 391	3.8805e+01	15.5306	93.867443	0.000547	5.473039	1.854316	0.000219
 392	3.8904e+01	15.5691	94.065263	0.000497	4.966277	1.682620	0.000199
 393	3.9004e+01	15.5996	94.234822	0.000426	4.256808	1.442246	0.000170
 394	3.9103e+01	15.6445	94.448791	0.000537	5.371687	1.819977	0.000215
 395	3.9203e+01	15.6894	94.646610	0.000497	4.966277	1.682620	0.000199
 396	3.9303e+01	15.7311	94.852504	0.000517	5.168982	1.751298	0.000207
 397	3.9402e+01	15.7696	95.038212	0.000466	4.662219	1.579602	0.000187
 398	3.9502e+01	15.8081	95.244106	0.000517	5.168982	1.751298	0.000207
 399	3.9601e+01	15.8466	95.437889	0.000486	4.864924	1.648281	0.000195
 400	3.9700e+01	15.8835	95.639746	0.000507	5.067629	1.716959	0.000203
 401	3.9800e+01	15.9220	95.829491	0.000476	4.763571	1.613942	0.000191
 402	3.9900e+01	15.9653	96.035385	0.000517	5.168982	1.751298	0.000207
 403	3.9999e+01	16.0135	96.233205	0.000497	4.966277	1.682620	0.000199
 404	4.0099e+01	16.0423	96.414876	0.000456	4.560866	1.545263	0.000183
 405	4.0198e+01	16.0889	96.592510	0.000446	4.459514	1.510924	0.000179
 406	4.0297e+01	16.1274	96.830701	0.000598	5.979802	2.026012	0.000239
 407	4.0397e+01	16.1642	97.040632	0.000527	5.270334	1.785638	0.000211
 408	4.0496e+01	16.2011	97.218266	0.000446	4.459514	1.510924	0.000179
 409	4.0596e+01	16.2477	97.416085	0.000497	4.966277	1.682620	0.000199
 410	4.0696e+01	16.2846	97.609868	0.000486	4.864924	1.648281	0.000195
 411	4.0795e+01	16.3279	97.751168	0.000355	3.547340	1.201871	0.000142
 412	4.0895e+01	16.3648	97.989359	0.000598	5.979802	2.026012	0.000239
 413	4.0994e+01	16.4017	98.195253	0.000517	5.168982	1.751298	0.000207
 414	4.1093e+01	16.4482	98.389035	0.000486	4.864924	1.648281	0.000195
 415	4.1193e+01	16.4835	98.574743	0.000466	4.662219	1.579602	0.000187
 416	4.1292e+01	16.5316	98.768526	0.000486	4.864924	1.648281	0.000195
 417	4.1392e+01	16.5621	98.970383	0.000507	5.067629	1.716959	0.000203
 418	4.1492e+01	16.6006	99.172239	0.000507	5.067629	1.716959	0.000203
 419	4.1591e+01	16.6359	99.386208	0.000537	5.371687	1.819977	0.000215
 420	4.1691e+01	16.6840	99.543656	0.000395	3.952751	1.339228	0.000158
 421	4.1790e+01	16.7225	99.741476	0.000497	4.966277	1.682620	0.000199
 422	4.1889e+01	16.7642	99.935258	0.000486	4.864924	1.648281	0.000195
 423	4.1989e+01	16.8075	100.088669	0.000385	3.851398	1.304889	0.000154
 424	4.2089e+01	16.8396	100.314749	0.000568	5.675745	1.922994	0.000227
 425	4.2188e+01	16.8797	100.480271	0.000416	4.155456	1.407907	0.000166
 426	4.2288e+01	16.9214	100.694240	0.000537	5.371687	1.819977	0.000215
 427	4.2387e+01	16.9648	100.871874	0.000446	4.459514	1.510924	0.000179
 428	4.2486e+01	16.9985	101.085842	0.000537	5.371687	1.819977	0.000215
 429	4.2586e+01	17.0434	101.271550	0.000466	4.662219	1.579602	0.000187
 430	4.2685e+01	17.0819	101.465333	0.000486	4.864924	1.648281	0.000195
 431	4.2785e+01	17.1220	101.647004	0.000456	4.560866	1.545263	0.000183
 432	4.2885e+01	17.1589	101.840786	0.000486	4.864924	1.648281	0.000195
 433	4.2984e+01	17.2038	102.006309	0.000416	4.155456	1.407907	0.000166
 434	4.3084e+01	17.2391	102.232388	0.000568	5.675745	1.922994	0.000227
 435	4.3183e+01	17.2936	102.422134	0.000476	4.763571	1.613942	0.000191
 436	4.3282e+01	17.3241	102.623990	0.000507	5.067629	1.716959	0.000203
 437	4.3382e+01	17.3594	102.781439	0.000395	3.952751	1.339228	0.000158
 438	4.3481e+01	17.4059	102.999444	0.000547	5.473039	1.854316	0.000219
 439	4.3581e+01	17.4396	103.156892	0.000395	3.952751	1.339228	0.000158
 440	4.3681e+01	17.4877	103.362786	0.000517	5.168982	1.751298	0.000207
 441	4.3780e+01	17.5214	103.564643	0.000507	5.067629	1.716959	0.000203
 442	4.3880e+01	17.5583	103.774574	0.000527	5.270334	1.785638	0.000211
 443	4.3979e+01	17.6032	103.972394	0.000497	4.966277	1.682620	0.000199
 444	4.4078e+01	17.6321	104.085434	0.000284	2.837872	0.961497	0.000114
 445	4.4178e+01	17.6899	104.323625	0.000598	5.979802	2.026012	0.000239
 446	4.4278e+01	17.7300	104.472999	0.000375	3.750046	1.270550	0.000150
 447	4.4377e+01	17.7492	104.703115	0.000578	5.777097	1.957334	0.000231
 448	4.4477e+01	17.8022	104.832304	0.000324	3.243283	1.098854	0.000130
 449	4.4576e+01	17.8375	105.054346	0.000557	5.574392	1.888655	0.000223
 450	4.4675e+01	17.8744	105.231980	0.000446	4.459514	1.510924	0.000179
 451	4.4775e+01	17.9257	105.429800	0.000497	4.966277	1.682620	0.000199
 452	4.4874e+01	17.9610	105.603397	0.000436	4.358161	1.476585	0.000174
 453	4.4974e+01	17.9851	105.813328	0.000527	5.270334	1.785638	0.000211
 454	4.5074e+01	18.0476	105.990962	0.000446	4.459514	1.510924	0.000179
 455	4.5173e+01	18.0877	106.156484	0.000416	4.155456	1.407907	0.000166
 456	4.5273e+01	18.1150	106.362378	0.000517	5.168982	1.751298	0.000207
 457	4.5372e+01	18.1599	106.523864	0.000405	4.054103	1.373567	0.000162
 458	4.5471e+01	18.1984	106.758017	0.000588	5.878450	1.991673	0.000235
 459	4.5571e+01	18.2337	106.935651	0.000446	4.459514	1.510924	0.000179
 460	4.5670e+01	18.2738	107.129434	0.000486	4.864924	1.648281	0.000195
 461	4.5770e+01	18.3300	107.290919	0.000405	4.054103	1.373567	0.000162
 462	4.5870e+01	18.3637	107.468553	0.000446	4.459514	1.510924	0.000179
 463	4.5969e+01	18.4086	107.682522	0.000537	5.371687	1.819977	0.000215
 464	4.6069e+01	18.4358	107.856118	0.000436	4.358161	1.476585	0.000174
 465	4.6168e+01	18.4840	108.066049	0.000527	5.270334	1.785638	0.000211
 466	4.6267e+01	18.5177	108.235609	0.000426	4.256808	1.442246	0.000170
 467	4.6367e+01	18.5626	108.425355	0.000476	4.763571	1.613942	0.000191
 468	4.6467e+01	18.5947	108.627211	0.000507	5.067629	1.716959	0.000203
 469	4.6566e+01	18.6348	108.784660	0.000395	3.952751	1.339228	0.000158
 470	4.6666e+01	18.6781	108.970368	0.000466	4.662219	1.579602	0.000187
 471	4.6765e+01	18.7150	109.160113	0.000476	4.763571	1.613942	0.000191
 472	4.6864e+01	18.7567	109.333710	0.000436	4.358161	1.476585	0.000174
 473	4.6964e+01	18.8000	109.527493	0.000486	4.864924	1.648281	0.000195
 474	4.7063e+01	18.8433	109.688978	0.000405	4.054103	1.373567	0.000162
 475	4.7163e+01	18.8818	109.906983	0.000547	5.473039	1.854316	0.000219
 476	4.7263e+01	18.9075	110.068469	0.000405	4.054103	1.373567	0.000162
 477	4.7362e+01	18.9476	110.217843	0.000375	3.750046	1.270550	0.000150
 478	4.7462e+01	18.9909	110.435848	0.000547	5.473039	1.854316	0.000219
 479	4.7561e+01	19.0358	110.633668	0.000497	4.966277	1.682620	0.000199
 480	4.7660e+01	19.0743	110.799190	0.000416	4.155456	1.407907	0.000166
 481	4.7760e+01	19.1128	110.972787	0.000436	4.358161	1.476585	0.000174
 482	4.7859e+01	19.1465	111.142347	0.000426	4.256808	1.442246	0.000170
 483	4.7959e+01	19.1979	111.315944	0.000436	4.358161	1.476585	0.000174
 484	4.8059e+01	19.2396	111.505689	0.000476	4.763571	1.613942	0.000191
 485	4.8158e+01	19.2700	111.675249	0.000426	4.256808	1.442246	0.000170
 486	4.8258e+01	19.3118	111.852883	0.000446	4.459514	1.510924	0.000179
 487	4.8357e+01	19.3438	111.986108	0.000334	3.344635	1.133193	0.000134
 488	4.8456e+01	19.3968	112.224299	0.000598	5.979802	2.026012	0.000239
 489	4.8556e+01	19.4385	112.422119	0.000497	4.966277	1.682620	0.000199
 490	4.8656e+01	19.4706	112.587641	0.000416	4.155456	1.407907	0.000166
 491	4.8755e+01	19.5123	112.716830	0.000324	3.243283	1.098854	0.000130
 492	4.8855e+01	19.5508	112.926761	0.000527	5.270334	1.785638	0.000211
 493	4.8954e+01	19.5973	113.100358	0.000436	4.358161	1.476585	0.000174
 494	4.9053e+01	19.6358	113.310289	0.000527	5.270334	1.785638	0.000211
 495	4.9153e+01	19.6727	113.467737	0.000395	3.952751	1.339228	0.000158
 496	4.9252e+01	19.7128	113.633260	0.000416	4.155456	1.407907	0.000166
 497	4.9352e+01	19.7545	113.806856	0.000436	4.358161	1.476585	0.000174
 498	4.9452e+01	19.7914	113.988528	0.000456	4.560866	1.545263	0.000183
 499	4.9551e+01	19.8395	114.186347	0.000497	4.966277	1.682620	0.000199
 500	4.9651e+01	19.8620	114.392241	0.000517	5.168982	1.751298	0.000207
 501	4.9750e+01	19.9166	114.557764	0.000416	4.155456	1.407907	0.000166
 502	4.9849e+01	19.9583	114.682915	0.000314	3.141930	1.064515	0.000126
 503	4.9949e+01	19.9903	114.896883	0.000537	5.371687	1.819977	0.000215
 504	5.0048e+01	19.9406	114.759620	0.000345	3.445988	1.167532	-0.000138
 505	5.0148e+01	19.9133	114.666766	0.000233	2.331109	0.789801	-0.000093
 506	5.0248e+01	19.8700	114.509318	0.000395	3.952751	1.339228	-0.000158
 507	5.0347e+01	19.8267	114.420501	0.000223	2.229757	0.755462	-0.000089
 508	5.0447e+01	19.7834	114.287276	0.000334	3.344635	1.133193	-0.000134
 509	5.0546e+01	19.7513	114.158087	0.000324	3.243283	1.098854	-0.000130
 510	5.0645e+01	19.7160	114.000639	0.000395	3.952751	1.339228	-0.000158
 511	5.0745e+01	19.6775	113.883562	0.000294	2.939225	0.995836	-0.000118
 512	5.0844e+01	19.6374	113.730151	0.000385	3.851398	1.304889	-0.000154
 513	5.0944e+01	19.5989	113.588851	0.000355	3.547340	1.201871	-0.000142
 514	5.1044e+01	19.5508	113.459663	0.000324	3.243283	1.098854	-0.000130
 515	5.1143e+01	19.5059	113.330474	0.000324	3.243283	1.098854	-0.000130
 516	5.1242e+01	19.4738	113.160915	0.000426	4.256808	1.442246	-0.000170
 517	5.1342e+01	19.4353	113.104395	0.000142	1.418936	0.480749	-0.000057
 518	5.1441e+01	19.3920	112.910612	0.000486	4.864924	1.648281	-0.000195
 519	5.1541e+01	19.3470	112.781424	0.000324	3.243283	1.098854	-0.000130
 520	5.1641e+01	19.3198	112.664347	0.000294	2.939225	0.995836	-0.000118
 521	5.1740e+01	19.2765	112.486713	0.000446	4.459514	1.510924	-0.000179
 522	5.1840e+01	19.2380	112.357525	0.000324	3.243283	1.098854	-0.000130
 523	5.1939e+01	19.1962	112.196039	0.000405	4.054103	1.373567	-0.000162
 524	5.2038e+01	19.1529	112.103185	0.000233	2.331109	0.789801	-0.000093
 525	5.2138e+01	19.1112	111.953811	0.000375	3.750046	1.270550	-0.000150
 526	5.2237e+01	19.0695	111.808474	0.000365	3.648693	1.236211	-0.000146
 527	5.2337e+01	19.0310	111.663137	0.000365	3.648693	1.236211	-0.000146
 528	5.2437e+01	18.9957	111.521838	0.000355	3.547340	1.201871	-0.000142
 529	5.2536e+01	18.9572	111.372464	0.000375	3.750046	1.270550	-0.000150
 530	5.2636e+01	18.9155	111.247312	0.000314	3.141930	1.064515	-0.000126
 531	5.2735e+01	18.8754	111.093901	0.000385	3.851398	1.304889	-0.000154
 532	5.2834e+01	18.8273	110.960676	0.000334	3.344635	1.133193	-0.000134
 533	5.2934e+01	18.7952	110.807265	0.000385	3.851398	1.304889	-0.000154
 534	5.3033e+01	18.7567	110.613482	0.000486	4.864924	1.648281	-0.000195
 535	5.3133e+01	18.7166	110.480257	0.000334	3.344635	1.133193	-0.000134
 536	5.3233e+01	18.6797	110.379328	0.000253	2.533815	0.858480	-0.000101
 537	5.3332e+01	18.6348	110.201694	0.000446	4.459514	1.510924	-0.000179
 538	5.3431e+01	18.5947	110.092692	0.000274	2.736520	0.927158	-0.000110
 539	5.3531e+01	18.5546	109.927169	0.000416	4.155456	1.407907	-0.000166
 540	5.3630e+01	18.5209	109.737424	0.000476	4.763571	1.613942	-0.000191
 541	5.3730e+01	18.4792	109.596124	0.000355	3.547340	1.201871	-0.000142
 542	5.3830e+01	18.4391	109.442713	0.000385	3.851398	1.304889	-0.000154
 543	5.3929e+01	18.3925	109.329673	0.000284	2.837872	0.961497	-0.000114
 544	5.4029e+01	18.3524	109.135890	0.000486	4.864924	1.648281	-0.000195
 545	5.4128e+01	18.3268	108.982479	0.000385	3.851398	1.304889	-0.000154
 546	5.4227e+01	18.2802	108.833105	0.000375	3.750046	1.270550	-0.000150
 547	5.4327e+01	18.2369	108.687768	0.000365	3.648693	1.236211	-0.000146
 548	5.4426e+01	18.2032	108.554543	0.000334	3.344635	1.133193	-0.000134
 549	5.4526e+01	18.1615	108.384983	0.000426	4.256808	1.442246	-0.000170
 550	5.4626e+01	18.1230	108.243683	0.000355	3.547340	1.201871	-0.000142
 551	5.4725e+01	18.0781	108.049901	0.000486	4.864924	1.648281	-0.000195
 552	5.4825e+01	18.0396	107.924750	0.000314	3.141930	1.064515	-0.000126
 553	5.4924e+01	17.9995	107.783450	0.000355	3.547340	1.201871	-0.000142
 554	5.5023e+01	17.9530	107.593705	0.000476	4.763571	1.613942	-0.000191
 555	5.5123e+01	17.9193	107.468553	0.000314	3.141930	1.064515	-0.000126
 556	5.5222e+01	17.8760	107.294957	0.000436	4.358161	1.476585	-0.000174
 557	5.5322e+01	17.8375	107.153657	0.000355	3.547340	1.201871	-0.000142
 558	5.5422e+01	17.7925	106.992171	0.000405	4.054103	1.373567	-0.000162
 559	5.5521e+01	17.7540	106.842797	0.000375	3.750046	1.270550	-0.000150
 560	5.5620e+01	17.7188	106.693423	0.000375	3.750046	1.270550	-0.000150
 561	5.5720e+01	17.6851	106.568272	0.000314	3.141930	1.064515	-0.000126
 562	5.5819e+01	17.6385	106.390638	0.000446	4.459514	1.510924	-0.000179
 563	5.5919e+01	17.6097	106.221078	0.000426	4.256808	1.442246	-0.000170
 564	5.6019e+01	17.5599	106.079779	0.000355	3.547340	1.201871	-0.000142
 565	5.6118e+01	17.5230	105.950590	0.000324	3.243283	1.098854	-0.000130
 566	5.6218e+01	17.4701	105.752771	0.000497	4.966277	1.682620	-0.000199
 567	5.6317e+01	17.4412	105.631657	0.000304	3.040577	1.030176	-0.000122
 568	5.6416e+01	17.3979	105.449985	0.000456	4.560866	1.545263	-0.000183
 569	5.6516e+01	17.3562	105.332909	0.000294	2.939225	0.995836	-0.000118
 570	5.6615e+01	17.3241	105.147200	0.000466	4.662219	1.579602	-0.000187
 571	5.6715e+01	17.2792	104.977641	0.000426	4.256808	1.442246	-0.000170
 572	5.6815e+01	17.2375	104.864601	0.000284	2.837872	0.961497	-0.000114
 573	5.6914e+01	17.1990	104.707153	0.000395	3.952751	1.339228	-0.000158
 574	5.7014e+01	17.1653	104.525481	0.000456	4.560866	1.545263	-0.000183
 575	5.7113e+01	17.1268	104.388219	0.000345	3.445988	1.167532	-0.000138
 576	5.7212e+01	17.0771	104.238845	0.000375	3.750046	1.270550	-0.000150
 577	5.7312e+01	17.0386	104.077359	0.000405	4.054103	1.373567	-0.000162
 578	5.7411e+01	17.0065	103.936060	0.000355	3.547340	1.201871	-0.000142
 579	5.7511e+01	16.9567	103.774574	0.000405	4.054103	1.373567	-0.000162
 580	5.7611e+01	16.9198	103.621163	0.000385	3.851398	1.304889	-0.000154
 581	5.7710e+01	16.8846	103.443529	0.000446	4.459514	1.510924	-0.000179
 582	5.7809e+01	16.8444	103.286081	0.000395	3.952751	1.339228	-0.000158
 583	5.7909e+01	16.8043	103.144781	0.000355	3.547340	1.201871	-0.000142
 584	5.8008e+01	16.7642	103.003481	0.000355	3.547340	1.201871	-0.000142
 585	5.8108e+01	16.7225	102.781439	0.000557	5.574392	1.888655	-0.000223
 586	5.8208e+01	16.6824	102.648213	0.000334	3.344635	1.133193	-0.000134
 587	5.8307e+01	16.6487	102.490765	0.000395	3.952751	1.339228	-0.000158
 588	5.8407e+01	16.6118	102.292945	0.000497	4.966277	1.682620	-0.000199
 589	5.8506e+01	16.5621	102.183943	0.000274	2.736520	0.927158	-0.000110
 590	5.8605e+01	16.5220	101.990160	0.000486	4.864924	1.648281	-0.000195
 591	5.8705e+01	16.4819	101.832712	0.000395	3.952751	1.339228	-0.000158
 592	5.8804e+01	16.4402	101.679301	0.000385	3.851398	1.304889	-0.000154
 593	5.8904e+01	16.4001	101.529927	0.000375	3.750046	1.270550	-0.000150
 594	5.9004e+01	16.3616	101.372478	0.000395	3.952751	1.339228	-0.000158
 595	5.9103e+01	16.3279	101.150436	0.000557	5.574392	1.888655	-0.000223
 596	5.9203e+01	16.2782	100.997025	0.000385	3.851398	1.304889	-0.000154
 597	5.9302e+01	16.2364	100.843614	0.000385	3.851398	1.304889	-0.000154
 598	5.9401e+01	16.2060	100.690202	0.000385	3.851398	1.304889	-0.000154
 599	5.9501e+01	16.1642	100.556977	0.000334	3.344635	1.133193	-0.000134
 600	5.9600e+01	16.1290	100.379343	0.000446	4.459514	1.510924	-0.000179
 601	5.9700e+01	16.0872	100.221895	0.000395	3.952751	1.339228	-0.000158
 602	5.9800e+01	16.0439	100.020038	0.000507	5.067629	1.716959	-0.000203
 603	5.9899e+01	16.0054	99.854515	0.000416	4.155456	1.407907	-0.000166
 604	5.9998e+01	15.9717	99.733401	0.000304	3.040577	1.030176	-0.000122
 605	6.0098e+01	15.9268	99.523470	0.000527	5.270334	1.785638	-0.000211
 606	6.0197e+01	15.8835	99.382170	0.000355	3.547340	1.201871	-0.000142
 607	6.0297e+01	15.8434	99.200499	0.000456	4.560866	1.545263	-0.000183
 608	6.0397e+01	15.8033	99.039014	0.000405	4.054103	1.373567	-0.000162
 609	6.0496e+01	15.7664	98.865417	0.000436	4.358161	1.476585	-0.000174
 610	6.0596e+01	15.7247	98.695857	0.000426	4.256808	1.442246	-0.000170
 611	6.0695e+01	15.6958	98.550521	0.000365	3.648693	1.236211	-0.000146
 612	6.0794e+01	15.6477	98.372887	0.000446	4.459514	1.510924	-0.000179
 613	6.0894e+01	15.6028	98.171030	0.000507	5.067629	1.716959	-0.000203
 614	6.0993e+01	15.5707	98.033767	0.000345	3.445988	1.167532	-0.000138
 615	6.1093e+01	15.5354	97.872282	0.000405	4.054103	1.373567	-0.000162
 616	6.1193e+01	15.4905	97.678499	0.000486	4.864924	1.648281	-0.000195
 617	6.1292e+01	15.4552	97.557385	0.000304	3.040577	1.030176	-0.000122
 618	6.1392e+01	15.4135	97.371677	0.000466	4.662219	1.579602	-0.000187
 619	6.1491e+01	15.3750	97.194043	0.000446	4.459514	1.510924	-0.000179
 620	6.1590e+01	15.3349	97.044669	0.000375	3.750046	1.270550	-0.000150
 621	6.1690e+01	15.2723	96.875109	0.000426	4.256808	1.442246	-0.000170
 622	6.1789e+01	15.2466	96.725735	0.000375	3.750046	1.270550	-0.000150
 623	6.1889e+01	15.2081	96.503693	0.000557	5.574392	1.888655	-0.000223
 624	6.1989e+01	15.1744	96.354319	0.000375	3.750046	1.270550	-0.000150
 625	6.2088e+01	15.1231	96.180722	0.000436	4.358161	1.476585	-0.000174
 626	6.2188e+01	15.0830	96.011162	0.000426	4.256808	1.442246	-0.000170
 627	6.2287e+01	15.0429	95.833528	0.000446	4.459514	1.510924	-0.000179
 628	6.2386e+01	15.0156	95.692228	0.000355	3.547340	1.201871	-0.000142
 629	6.2486e+01	14.9739	95.486334	0.000517	5.168982	1.751298	-0.000207
 630	6.2586e+01	14.9306	95.377332	0.000274	2.736520	0.927158	-0.000110
 631	6.2685e+01	14.8825	95.159326	0.000547	5.473039	1.854316	-0.000219
 632	6.2785e+01	14.8488	94.997841	0.000405	4.054103	1.373567	-0.000162
 633	6.2884e+01	14.8087	94.840393	0.000395	3.952751	1.339228	-0.000158
 634	6.2983e+01	14.7702	94.662759	0.000446	4.459514	1.510924	-0.000179
 635	6.3083e+01	14.7269	94.464939	0.000497	4.966277	1.682620	-0.000199
 636	6.3182e+01	14.6948	94.271157	0.000486	4.864924	1.648281	-0.000195
 637	6.3282e+01	14.6531	94.137931	0.000334	3.344635	1.133193	-0.000134
 638	6.3382e+01	14.6146	93.936074	0.000507	5.067629	1.716959	-0.000203
 639	6.3481e+01	14.5712	93.778626	0.000395	3.952751	1.339228	-0.000158
 640	6.3581e+01	14.5343	93.600992	0.000446	4.459514	1.510924	-0.000179
 641	6.3680e+01	14.4846	93.443544	0.000395	3.952751	1.339228	-0.000158
 642	6.3779e+01	14.4541	93.286095	0.000395	3.952751	1.339228	-0.000158
 643	6.3879e+01	14.4092	93.064053	0.000557	5.574392	1.888655	-0.000223
 644	6.3978e+01	14.3723	92.942939	0.000304	3.040577	1.030176	-0.000122
 645	6.4078e+01	14.3370	92.728971	0.000537	5.371687	1.819977	-0.000215
 646	6.4177e+01	14.2937	92.531151	0.000497	4.966277	1.682620	-0.000199
 647	6.4277e+01	14.2504	92.361591	0.000426	4.256808	1.442246	-0.000170
 648	6.4376e+01	14.2199	92.204143	0.000395	3.952751	1.339228	-0.000158
 649	6.4476e+01	14.1718	91.998249	0.000517	5.168982	1.751298	-0.000207
 650	6.4576e+01	14.1237	91.828689	0.000426	4.256808	1.442246	-0.000170
 651	6.4675e+01	14.0948	91.663167	0.000416	4.155456	1.407907	-0.000166
 652	6.4775e+01	14.0579	91.461310	0.000507	5.067629	1.716959	-0.000203
 653	6.4874e+01	14.0082	91.303862	0.000395	3.952751	1.339228	-0.000158
 654	6.4974e+01	13.9745	91.085857	0.000547	5.473039	1.854316	-0.000219
 655	6.5073e+01	13.9231	90.940520	0.000365	3.648693	1.236211	-0.000146
 656	6.5172e+01	13.8846	90.730589	0.000527	5.270334	1.785638	-0.000211
 657	6.5272e+01	13.8477	90.544880	0.000466	4.662219	1.579602	-0.000187
 658	6.5371e+01	13.8173	90.383395	0.000405	4.054103	1.373567	-0.000162
 659	6.5471e+01	13.7723	90.201724	0.000456	4.560866	1.545263	-0.000183
 660	6.5570e+01	13.7370	90.036201	0.000416	4.155456	1.407907	-0.000166
 661	6.5670e+01	13.7001	89.874716	0.000405	4.054103	1.373567	-0.000162
 662	6.5769e+01	13.6536	89.644599	0.000578	5.777097	1.957334	-0.000231
 663	6.5869e+01	13.6167	89.471002	0.000436	4.358161	1.476585	-0.000174
 664	6.5969e+01	13.5702	89.293368	0.000446	4.459514	1.510924	-0.000179
 665	6.6068e+01	13.5397	89.103623	0.000476	4.763571	1.613942	-0.000191
 666	6.6168e+01	13.4900	88.913877	0.000476	4.763571	1.613942	-0.000191
 667	6.6267e+01	13.4627	88.772578	0.000355	3.547340	1.201871	-0.000142
 668	6.6367e+01	13.4226	88.542461	0.000578	5.777097	1.957334	-0.000231
 669	6.6466e+01	13.3729	88.372901	0.000426	4.256808	1.442246	-0.000170
 670	6.6566e+01	13.3296	88.187193	0.000466	4.662219	1.579602	-0.000187
 671	6.6665e+01	13.2991	88.029745	0.000395	3.952751	1.339228	-0.000158
 672	6.6764e+01	13.2542	87.811739	0.000547	5.473039	1.854316	-0.000219
 673	6.6864e+01	13.2125	87.634105	0.000446	4.459514	1.510924	-0.000179
 674	6.6963e+01	13.1740	87.432249	0.000507	5.067629	1.716959	-0.000203
 675	6.7063e+01	13.1355	87.278838	0.000385	3.851398	1.304889	-0.000154
 676	6.7162e+01	13.0970	87.097166	0.000456	4.560866	1.545263	-0.000183
 677	6.7262e+01	13.0440	86.891272	0.000517	5.168982	1.751298	-0.000207
 678	6.7362e+01	13.0264	86.725750	0.000416	4.155456	1.407907	-0.000166
 679	6.7461e+01	12.9798	86.507745	0.000547	5.473039	1.854316	-0.000219
 680	6.7561e+01	12.9285	86.350296	0.000395	3.952751	1.339228	-0.000158
 681	6.7660e+01	12.8996	86.168625	0.000456	4.560866	1.545263	-0.000183
 682	6.7760e+01	12.8515	85.978880	0.000476	4.763571	1.613942	-0.000191
 683	6.7859e+01	12.8130	85.845654	0.000334	3.344635	1.133193	-0.000134
 684	6.7959e+01	12.7873	85.623612	0.000557	5.574392	1.888655	-0.000223
 685	6.8058e+01	12.7440	85.433866	0.000476	4.763571	1.613942	-0.000191
 686	6.8157e+01	12.7023	85.227973	0.000517	5.168982	1.751298	-0.000207
 687	6.8257e+01	12.6590	85.090710	0.000345	3.445988	1.167532	-0.000138
 688	6.8356e+01	12.6173	84.900965	0.000476	4.763571	1.613942	-0.000191
 689	6.8456e+01	12.5836	84.691034	0.000527	5.270334	1.785638	-0.000211
 690	6.8555e+01	12.5403	84.513400	0.000446	4.459514	1.510924	-0.000179
 691	6.8655e+01	12.5034	84.291357	0.000557	5.574392	1.888655	-0.000223
 692	6.8754e+01	12.4601	84.089500	0.000507	5.067629	1.716959	-0.000203
 693	6.8854e+01	12.4184	83.911866	0.000446	4.459514	1.510924	-0.000179
 694	6.8954e+01	12.3815	83.746344	0.000416	4.155456	1.407907	-0.000166
 695	6.9053e+01	12.3430	83.548524	0.000497	4.966277	1.682620	-0.000199
 696	6.9153e+01	12.3077	83.366853	0.000456	4.560866	1.545263	-0.000183
 697	6.9252e+01	12.2644	83.177108	0.000476	4.763571	1.613942	-0.000191
 698	6.9352e+01	12.2178	82.971214	0.000517	5.168982	1.751298	-0.000207
 699	6.9451e+01	12.1841	82.801654	0.000426	4.256808	1.442246	-0.000170
 700	6.9550e+01	12.1473	82.595760	0.000517	5.168982	1.751298	-0.000207
 701	6.9650e+01	12.0975	82.393903	0.000507	5.067629	1.716959	-0.000203
 702	6.9749e+01	12.0590	82.216269	0.000446	4.459514	1.510924	-0.000179
 703	6.9849e+01	12.0237	82.034598	0.000456	4.560866	1.545263	-0.000183
 704	6.9948e+01	11.9852	81.816593	0.000547	5.473039	1.854316	-0.000219
 705	7.0048e+01	11.9435	81.679330	0.000345	3.445988	1.167532	-0.000138
 706	7.0147e+01	11.9034	81.429028	0.000628	6.283860	2.129029	-0.000252
 707	7.0247e+01	11.8649	81.267542	0.000405	4.054103	1.373567	-0.000162
 708	7.0347e+01	11.8264	81.057611	0.000527	5.270334	1.785638	-0.000211
 709	7.0446e+01	11.7879	80.863829	0.000486	4.864924	1.648281	-0.000195
 710	7.0546e+01	11.7494	80.710418	0.000385	3.851398	1.304889	-0.000154
 711	7.0645e+01	11.7045	80.464152	0.000618	6.182508	2.094690	-0.000248
 712	7.0745e+01	11.6660	80.242110	0.000557	5.574392	1.888655	-0.000223
 713	7.0844e+01	11.6243	80.052365	0.000476	4.763571	1.613942	-0.000191
 714	7.0944e+01	11.5810	79.878768	0.000436	4.358161	1.476585	-0.000174
 715	7.1043e+01	11.5553	79.697097	0.000456	4.560866	1.545263	-0.000183
 716	7.1142e+01	11.5072	79.523500	0.000436	4.358161	1.476585	-0.000174
 717	7.1242e+01	11.4638	79.297420	0.000568	5.675745	1.922994	-0.000227
 718	7.1341e+01	11.4205	79.103638	0.000486	4.864924	1.648281	-0.000195
 719	7.1441e+01	11.3868	78.893707	0.000527	5.270334	1.785638	-0.000211
 720	7.1540e+01	11.3371	78.716073	0.000446	4.459514	1.510924	-0.000179
 721	7.1640e+01	11.3034	78.514216	0.000507	5.067629	1.716959	-0.000203
 722	7.1740e+01	11.2633	78.324470	0.000476	4.763571	1.613942	-0.000191
 723	7.1839e+01	11.2280	78.106465	0.000547	5.473039	1.854316	-0.000219
 724	7.1939e+01	11.1911	77.932868	0.000436	4.358161	1.476585	-0.000174
 725	7.2038e+01	11.1414	77.726974	0.000517	5.168982	1.751298	-0.000207
 726	7.2138e+01	11.1029	77.561452	0.000416	4.155456	1.407907	-0.000166
 727	7.2237e+01	11.0564	77.339409	0.000557	5.574392	1.888655	-0.000223
 728	7.2337e+01	11.0275	77.145627	0.000486	4.864924	1.648281	-0.000195
 729	7.2436e+01	10.9890	76.935696	0.000527	5.270334	1.785638	-0.000211
 730	7.2535e+01	10.9505	76.729802	0.000517	5.168982	1.751298	-0.000207
 731	7.2635e+01	10.9056	76.572354	0.000395	3.952751	1.339228	-0.000158
 732	7.2734e+01	10.8607	76.386645	0.000466	4.662219	1.579602	-0.000187
 733	7.2834e+01	10.8254	76.164603	0.000557	5.574392	1.888655	-0.000223
 734	7.2933e+01	10.7885	75.986969	0.000446	4.459514	1.510924	-0.000179
 735	7.3033e+01	10.7419	75.768964	0.000547	5.473039	1.854316	-0.000219
 736	7.3132e+01	10.7034	75.579218	0.000476	4.763571	1.613942	-0.000191
 737	7.3232e+01	10.6633	75.381399	0.000497	4.966277	1.682620	-0.000199
 738	7.3332e+01	10.6280	75.195690	0.000466	4.662219	1.579602	-0.000187
 739	7.3431e+01	10.5895	74.989796	0.000517	5.168982	1.751298	-0.000207
 740	7.3531e+01	10.5575	74.763717	0.000568	5.675745	1.922994	-0.000227
 741	7.3630e+01	10.5109	74.573971	0.000476	4.763571	1.613942	-0.000191
 742	7.3730e+01	10.4708	74.408449	0.000416	4.155456	1.407907	-0.000166
 743	7.3829e+01	10.4243	74.190443	0.000547	5.473039	1.854316	-0.000219
 744	7.3928e+01	10.3874	73.992624	0.000497	4.966277	1.682620	-0.000199
 745	7.4028e+01	10.3521	73.806916	0.000466	4.662219	1.579602	-0.000187
 746	7.4127e+01	10.3040	73.588910	0.000547	5.473039	1.854316	-0.000219
 747	7.4227e+01	10.2687	73.403202	0.000466	4.662219	1.579602	-0.000187
 748	7.4326e+01	10.2382	73.148862	0.000639	6.385213	2.163369	-0.000256
 749	7.4426e+01	10.1789	72.975266	0.000436	4.358161	1.476585	-0.000174
 750	7.4525e+01	10.1404	72.773409	0.000507	5.067629	1.716959	-0.000203
 751	7.4625e+01	10.1099	72.587701	0.000466	4.662219	1.579602	-0.000187
 752	7.4725e+01	10.0666	72.385844	0.000507	5.067629	1.716959	-0.000203
 753	7.4824e+01	10.0249	72.200136	0.000466	4.662219	1.579602	-0.000187
 754	7.4924e+01	9.9831	71.953870	0.000618	6.182508	2.094690	-0.000248
 755	7.5023e+01	9.9462	71.756051	0.000497	4.966277	1.682620	-0.000199
 756	7.5123e+01	9.9126	71.554194	0.000507	5.067629	1.716959	-0.000203
 757	7.5222e+01	9.8676	71.352337	0.000507	5.067629	1.716959	-0.000203
 758	7.5322e+01	9.8356	71.162592	0.000476	4.763571	1.613942	-0.000191
 759	7.5421e+01	9.7970	70.940549	0.000557	5.574392	1.888655	-0.000223
 760	7.5520e+01	9.7537	70.766952	0.000436	4.358161	1.476585	-0.000174
 761	7.5620e+01	9.7184	70.569133	0.000497	4.966277	1.682620	-0.000199
 762	7.5719e+01	9.6591	70.310756	0.000649	6.486565	2.197708	-0.000260
 763	7.5819e+01	9.6318	70.133122	0.000446	4.459514	1.510924	-0.000179
 764	7.5918e+01	9.5869	69.919154	0.000537	5.371687	1.819977	-0.000215
 765	7.6018e+01	9.5500	69.729408	0.000476	4.763571	1.613942	-0.000191
 766	7.6118e+01	9.5083	69.507366	0.000557	5.574392	1.888655	-0.000223
 767	7.6217e+01	9.4746	69.293398	0.000537	5.371687	1.819977	-0.000215
 768	7.6317e+01	9.4329	69.063281	0.000578	5.777097	1.957334	-0.000231
 769	7.6416e+01	9.3928	68.869499	0.000486	4.864924	1.648281	-0.000195
 770	7.6516e+01	9.3623	68.659567	0.000527	5.270334	1.785638	-0.000211
 771	7.6615e+01	9.3206	68.490008	0.000426	4.256808	1.442246	-0.000170
 772	7.6715e+01	9.2773	68.255854	0.000588	5.878450	1.991673	-0.000235
 773	7.6814e+01	9.2308	68.033811	0.000557	5.574392	1.888655	-0.000223
 774	7.6913e+01	9.2019	67.823880	0.000527	5.270334	1.785638	-0.000211
 775	7.7013e+01	9.1473	67.626061	0.000497	4.966277	1.682620	-0.000199
 776	7.7112e+01	9.1201	67.424204	0.000507	5.067629	1.716959	-0.000203
 777	7.7212e+01	9.0719	67.194087	0.000578	5.777097	1.957334	-0.000231
 778	7.7311e+01	9.0382	67.000305	0.000486	4.864924	1.648281	-0.000195
 779	7.7411e+01	8.9901	66.766151	0.000588	5.878450	1.991673	-0.000235
 780	7.7510e+01	8.9596	66.584480	0.000456	4.560866	1.545263	-0.000183
 781	7.7610e+01	8.9131	66.322066	0.000659	6.587918	2.232047	-0.000264
 782	7.7710e+01	8.8666	66.071763	0.000628	6.283860	2.129029	-0.000252
 783	7.7809e+01	8.8329	65.934501	0.000345	3.445988	1.167532	-0.000138
 784	7.7909e+01	8.7992	65.724570	0.000527	5.270334	1.785638	-0.000211
 785	7.8008e+01	8.7687	65.502527	0.000557	5.574392	1.888655	-0.000223
 786	7.8108e+01	8.7126	65.268373	0.000588	5.878450	1.991673	-0.000235
 787	7.8207e+01	8.6805	65.034220	0.000588	5.878450	1.991673	-0.000235
 788	7.8306e+01	8.6404	64.824289	0.000527	5.270334	1.785638	-0.000211
 789	7.8406e+01	8.5955	64.634543	0.000476	4.763571	1.613942	-0.000191
 790	7.8505e+01	8.5570	64.428649	0.000517	5.168982	1.751298	-0.000207
 791	7.8605e+01	8.5185	64.222755	0.000517	5.168982	1.751298	-0.000207
 792	7.8704e+01	8.4752	64.004750	0.000547	5.473039	1.854316	-0.000219
 793	7.8804e+01	8.4367	63.770596	0.000588	5.878450	1.991673	-0.000235
 794	7.8903e+01	8.4014	63.576814	0.000486	4.864924	1.648281	-0.000195
 795	7.9003e+01	8.3548	63.342660	0.000588	5.878450	1.991673	-0.000235
 796	7.9103e+01	8.3179	63.152914	0.000476	4.763571	1.613942	-0.000191
 797	7.9202e+01	8.2778	62.947020	0.000517	5.168982	1.751298	-0.000207
 798	7.9302e+01	8.2313	62.712867	0.000588	5.878450	1.991673	-0.000235
 799	7.9401e+01	8.1960	62.502935	0.000527	5.270334	1.785638	-0.000211
 800	7.9501e+01	8.1559	62.284930	0.000547	5.473039	1.854316	-0.000219
 801	7.9600e+01	8.1238	62.046739	0.000598	5.979802	2.026012	-0.000239
 802	7.9700e+01	8.0709	61.812585	0.000588	5.878450	1.991673	-0.000235
 803	7.9799e+01	8.0340	61.647063	0.000416	4.155456	1.407907	-0.000166
 804	7.9898e+01	7.9955	61.400797	0.000618	6.182508	2.094690	-0.000248
 805	7.9998e+01	7.9570	61.162606	0.000598	5.979802	2.026012	-0.000239
 806	8.0097e+01	7.9233	60.944601	0.000547	5.473039	1.854316	-0.000219
 807	8.0197e+01	7.8864	60.742744	0.000507	5.067629	1.716959	-0.000203
 808	8.0296e+01	7.8367	60.500516	0.000608	6.081155	2.060351	-0.000243
 809	8.0396e+01	7.7982	60.302697	0.000497	4.966277	1.682620	-0.000199
 810	8.0496e+01	7.7517	60.064506	0.000598	5.979802	2.026012	-0.000239
 811	8.0595e+01	7.7164	59.810166	0.000639	6.385213	2.163369	-0.000256
 812	8.0695e+01	7.6827	59.652718	0.000395	3.952751	1.339228	-0.000158
 813	8.0794e+01	7.6410	59.414527	0.000598	5.979802	2.026012	-0.000239
 814	8.0894e+01	7.5976	59.144039	0.000679	6.790623	2.300725	-0.000272
 815	8.0993e+01	7.5591	58.958330	0.000466	4.662219	1.579602	-0.000187
 816	8.1093e+01	7.5206	58.724176	0.000588	5.878450	1.991673	-0.000235
 817	8.1192e+01	7.4854	58.494060	0.000578	5.777097	1.957334	-0.000231
 818	8.1291e+01	7.4372	58.267980	0.000568	5.675745	1.922994	-0.000227
 819	8.1391e+01	7.3955	58.054012	0.000537	5.371687	1.819977	-0.000215
 820	8.1490e+01	7.3634	57.819858	0.000588	5.878450	1.991673	-0.000235
 821	8.1590e+01	7.3185	57.573593	0.000618	6.182508	2.094690	-0.000248
 822	8.1689e+01	7.2736	57.375773	0.000497	4.966277	1.682620	-0.000199
 823	8.1789e+01	7.2447	57.133545	0.000608	6.081155	2.060351	-0.000243
 824	8.1888e+01	7.2014	56.919577	0.000537	5.371687	1.819977	-0.000215
 825	8.1988e+01	7.1613	56.653126	0.000669	6.689270	2.266386	-0.000268
 826	8.2088e+01	7.1180	56.435120	0.000547	5.473039	1.854316	-0.000219
 827	8.2187e+01	7.0747	56.233264	0.000507	5.067629	1.716959	-0.000203
 828	8.2287e+01	7.0410	55.999110	0.000588	5.878450	1.991673	-0.000235
 829	8.2386e+01	7.0121	55.736696	0.000659	6.587918	2.232047	-0.000264
 830	8.2486e+01	6.9624	55.530802	0.000517	5.168982	1.751298	-0.000207
 831	8.2585e+01	6.9191	55.252240	0.000699	6.993328	2.369404	-0.000280
 832	8.2684e+01	6.8806	55.054420	0.000497	4.966277	1.682620	-0.000199
 833	8.2784e+01	6.8437	54.804118	0.000628	6.283860	2.129029	-0.000252
 834	8.2883e+01	6.8019	54.574001	0.000578	5.777097	1.957334	-0.000231
 835	8.2983e+01	6.7650	54.347921	0.000568	5.675745	1.922994	-0.000227
 836	8.3082e+01	6.7201	54.133953	0.000537	5.371687	1.819977	-0.000215
 837	8.3182e+01	6.6864	53.911911	0.000557	5.574392	1.888655	-0.000223
 838	8.3281e+01	6.6447	53.665645	0.000618	6.182508	2.094690	-0.000248
 839	8.3381e+01	6.5982	53.451677	0.000537	5.371687	1.819977	-0.000215
 840	8.3481e+01	6.5613	53.213486	0.000598	5.979802	2.026012	-0.000239
 841	8.3580e+01	6.5244	52.906664	0.000770	7.702796	2.609778	-0.000308
 842	8.3680e+01	6.4811	52.753253	0.000385	3.851398	1.304889	-0.000154
 843	8.3779e+01	6.4442	52.482765	0.000679	6.790623	2.300725	-0.000272
 844	8.3879e+01	6.4057	52.256685	0.000568	5.675745	1.922994	-0.000227
 845	8.3978e+01	6.3640	52.038680	0.000547	5.473039	1.854316	-0.000219
 846	8.4078e+01	6.3175	51.764154	0.000689	6.891976	2.335065	-0.000276
 847	8.4177e+01	6.2886	51.590558	0.000436	4.358161	1.476585	-0.000174
 848	8.4276e+01	6.2501	51.320070	0.000679	6.790623	2.300725	-0.000272
 849	8.4376e+01	6.2084	51.130324	0.000476	4.763571	1.613942	-0.000191
 850	8.4475e+01	6.1586	50.851762	0.000699	6.993328	2.369404	-0.000280
 851	8.4575e+01	6.1346	50.637794	0.000537	5.371687	1.819977	-0.000215
 852	8.4674e+01	6.0800	50.407677	0.000578	5.777097	1.957334	-0.000231
 853	8.4774e+01	6.0464	50.133152	0.000689	6.891976	2.335065	-0.000276
 854	8.4874e+01	6.0095	49.907072	0.000568	5.675745	1.922994	-0.000227
 855	8.4973e+01	5.9758	49.676955	0.000578	5.777097	1.957334	-0.000231
 856	8.5073e+01	5.9212	49.467024	0.000527	5.270334	1.785638	-0.000211
 857	8.5172e+01	5.8827	49.212685	0.000639	6.385213	2.163369	-0.000256
 858	8.5272e+01	5.8426	48.970457	0.000608	6.081155	2.060351	-0.000243
 859	8.5371e+01	5.8073	48.712080	0.000649	6.486565	2.197708	-0.000260
 860	8.5471e+01	5.7656	48.490037	0.000557	5.574392	1.888655	-0.000223
 861	8.5570e+01	5.7287	48.308366	0.000456	4.560866	1.545263	-0.000183
 862	8.5669e+01	5.6790	47.985395	0.000811	8.108207	2.747135	-0.000325
 863	8.5769e+01	5.6421	47.783539	0.000507	5.067629	1.716959	-0.000203
 864	8.5868e+01	5.6004	47.549385	0.000588	5.878450	1.991673	-0.000235
 865	8.5968e+01	5.5683	47.270822	0.000699	6.993328	2.369404	-0.000280
 866	8.6067e+01	5.5330	47.052817	0.000547	5.473039	1.854316	-0.000219
 867	8.6167e+01	5.4833	46.842886	0.000527	5.270334	1.785638	-0.000211
 868	8.6266e+01	5.4448	46.556249	0.000720	7.196033	2.438082	-0.000288
 869	8.6366e+01	5.4063	46.342281	0.000537	5.371687	1.819977	-0.000215
 870	8.6466e+01	5.3646	46.079867	0.000659	6.587918	2.232047	-0.000264
 871	8.6565e+01	5.3357	45.857825	0.000557	5.574392	1.888655	-0.000223
 872	8.6665e+01	5.2940	45.603485	0.000639	6.385213	2.163369	-0.000256
 873	8.6764e+01	5.2507	45.349146	0.000639	6.385213	2.163369	-0.000256
 874	8.6864e+01	5.2122	45.155363	0.000486	4.864924	1.648281	-0.000195
 875	8.6963e+01	5.1688	44.836430	0.000801	8.006854	2.712796	-0.000321
 876	8.7063e+01	5.1239	44.630536	0.000517	5.168982	1.751298	-0.000207
 877	8.7162e+01	5.0918	44.364085	0.000669	6.689270	2.266386	-0.000268
 878	8.7261e+01	5.0581	44.089559	0.000689	6.891976	2.335065	-0.000276
 879	8.7361e+01	5.0068	43.847331	0.000608	6.081155	2.060351	-0.000243
 880	8.7460e+01	4.9763	43.641437	0.000517	5.168982	1.751298	-0.000207
 881	8.7560e+01	4.9282	43.370949	0.000679	6.790623	2.300725	-0.000272
 882	8.7659e+01	4.8961	43.124684	0.000618	6.182508	2.094690	-0.000248
 883	8.7759e+01	4.8496	42.890530	0.000588	5.878450	1.991673	-0.000235
 884	8.7859e+01	4.8015	42.656376	0.000588	5.878450	1.991673	-0.000235
 885	8.7958e+01	4.7758	42.369740	0.000720	7.196033	2.438082	-0.000288
 886	8.8058e+01	4.7341	42.147697	0.000557	5.574392	1.888655	-0.000223
 887	8.8157e+01	4.6892	41.909506	0.000598	5.979802	2.026012	-0.000239
 888	8.8257e+01	4.6459	41.626907	0.000709	7.094681	2.403743	-0.000284
 889	8.8356e+01	4.6074	41.412938	0.000537	5.371687	1.819977	-0.000215
 890	8.8456e+01	4.5769	41.142450	0.000679	6.790623	2.300725	-0.000272
 891	8.8555e+01	4.5384	40.908296	0.000588	5.878450	1.991673	-0.000235
 892	8.8654e+01	4.4919	40.710477	0.000497	4.966277	1.682620	-0.000199
 893	8.8754e+01	4.4550	40.415766	0.000740	7.398739	2.506760	-0.000296
 894	8.8853e+01	4.4116	40.145278	0.000679	6.790623	2.300725	-0.000272
 895	8.8953e+01	4.3812	39.911124	0.000588	5.878450	1.991673	-0.000235
 896	8.9052e+01	4.3330	39.664859	0.000618	6.182508	2.094690	-0.000248
 897	8.9152e+01	4.2881	39.426668	0.000598	5.979802	2.026012	-0.000239
 898	8.9251e+01	4.2592	39.172328	0.000639	6.385213	2.163369	-0.000256
 899	8.9351e+01	4.2111	38.889729	0.000709	7.094681	2.403743	-0.000284
 900	8.9451e+01	4.1710	38.671723	0.000547	5.473039	1.854316	-0.000219
 901	8.9550e+01	4.1357	38.425458	0.000618	6.182508	2.094690	-0.000248
 902	8.9650e+01	4.0908	38.195341	0.000578	5.777097	1.957334	-0.000231
 903	8.9749e+01	4.0507	37.912742	0.000709	7.094681	2.403743	-0.000284
 904	8.9849e+01	4.0154	37.650328	0.000659	6.587918	2.232047	-0.000264
 905	8.9948e+01	3.9673	37.424248	0.000568	5.675745	1.922994	-0.000227
 906	9.0047e+01	3.9320	37.173946	0.000628	6.283860	2.129029	-0.000252
 907	9.0147e+01	3.8951	36.951903	0.000557	5.574392	1.888655	-0.000223
 908	9.0246e+01	3.8582	36.645081	0.000770	7.702796	2.609778	-0.000308
 909	9.0346e+01	3.8117	36.439187	0.000517	5.168982	1.751298	-0.000207
 910	9.0445e+01	3.7748	36.168699	0.000679	6.790623	2.300725	-0.000272
 911	9.0545e+01	3.7282	35.942619	0.000568	5.675745	1.922994	-0.000227
 912	9.0644e+01	3.6881	35.664057	0.000699	6.993328	2.369404	-0.000280
 913	9.0744e+01	3.6577	35.417792	0.000618	6.182508	2.094690	-0.000248
 914	9.0844e+01	3.6208	35.151341	0.000669	6.689270	2.266386	-0.000268
 915	9.0943e+01	3.5726	34.941410	0.000527	5.270334	1.785638	-0.000211
 916	9.1043e+01	3.5373	34.687070	0.000639	6.385213	2.163369	-0.000256
 917	9.1142e+01	3.4908	34.440805	0.000618	6.182508	2.094690	-0.000248
 918	9.1242e+01	3.4523	34.194540	0.000618	6.182508	2.094690	-0.000248
 919	9.1341e+01	3.4170	33.899829	0.000740	7.398739	2.506760	-0.000296
 920	9.1441e+01	3.3801	33.673749	0.000568	5.675745	1.922994	-0.000227
 921	9.1540e+01	3.3368	33.383075	0.000730	7.297386	2.472421	-0.000292
 922	9.1639e+01	3.2967	33.173144	0.000527	5.270334	1.785638	-0.000211
 923	9.1739e+01	3.2566	32.902656	0.000679	6.790623	2.300725	-0.000272
 924	9.1838e+01	3.2165	32.607945	0.000740	7.398739	2.506760	-0.000296
 925	9.1938e+01	3.1700	32.385903	0.000557	5.574392	1.888655	-0.000223
 926	9.2037e+01	3.1427	32.111378	0.000689	6.891976	2.335065	-0.000276
 927	9.2137e+01	3.0898	31.820704	0.000730	7.297386	2.472421	-0.000292
 928	9.2237e+01	3.0609	31.614810	0.000517	5.168982	1.751298	-0.000207
 929	9.2336e+01	3.0144	31.356433	0.000649	6.486565	2.197708	-0.000260
 930	9.2436e+01	2.9710	31.041537	0.000791	7.905501	2.678456	-0.000316
 931	9.2535e+01	2.9341	30.803346	0.000598	5.979802	2.026012	-0.000239
 932	9.2635e+01	2.9053	30.573229	0.000578	5.777097	1.957334	-0.000231
 933	9.2734e+01	2.8523	30.326964	0.000618	6.182508	2.094690	-0.000248
 934	9.2834e+01	2.8090	30.068587	0.000649	6.486565	2.197708	-0.000260
 935	9.2933e+01	2.7737	29.818285	0.000628	6.283860	2.129029	-0.000252
 936	9.3032e+01	2.7368	29.511462	0.000770	7.702796	2.609778	-0.000308
 937	9.3132e+01	2.7015	29.261160	0.000628	6.283860	2.129029	-0.000252
 938	9.3231e+01	2.6582	28.986635	0.000689	6.891976	2.335065	-0.000276
 939	9.3331e+01	2.6213	28.732295	0.000639	6.385213	2.163369	-0.000256
 940	9.3430e+01	2.5844	28.469881	0.000659	6.587918	2.232047	-0.000264
 941	9.3530e+01	2.5475	28.211505	0.000649	6.486565	2.197708	-0.000260
 942	9.3629e+01	2.4930	27.965239	0.000618	6.182508	2.094690	-0.000248
 943	9.3729e+01	2.4513	27.662454	0.000760	7.601444	2.575439	-0.000304
 944	9.3829e+01	2.4256	27.448486	0.000537	5.371687	1.819977	-0.000215
 945	9.3928e+01	2.3807	27.157812	0.000730	7.297386	2.472421	-0.000292
 946	9.4028e+01	2.3293	26.879250	0.000699	6.993328	2.369404	-0.000280
 947	9.4127e+01	2.2957	26.669319	0.000527	5.270334	1.785638	-0.000211
 948	9.4227e+01	2.2636	26.358459	0.000780	7.804149	2.644117	-0.000312
 949	9.4326e+01	2.2251	26.108157	0.000628	6.283860	2.129029	-0.000252
 950	9.4425e+01	2.1802	25.809409	0.000750	7.500091	2.541100	-0.000300
 951	9.4525e+01	2.1417	25.563143	0.000618	6.182508	2.094690	-0.000248
 952	9.4624e+01	2.1015	25.333027	0.000578	5.777097	1.957334	-0.000231
 953	9.4724e+01	2.0614	25.030242	0.000760	7.601444	2.575439	-0.000304
 954	9.4823e+01	2.0213	24.771865	0.000649	6.486565	2.197708	-0.000260
 955	9.4923e+01	1.9796	24.521562	0.000628	6.283860	2.129029	-0.000252
 956	9.5022e+01	1.9379	24.206666	0.000791	7.905501	2.678456	-0.000316
 957	9.5122e+01	1.9026	23.992698	0.000537	5.371687	1.819977	-0.000215
 958	9.5222e+01	1.8577	23.730284	0.000659	6.587918	2.232047	-0.000264
 959	9.5321e+01	1.8192	23.488056	0.000608	6.081155	2.060351	-0.000243
 960	9.5421e+01	1.7775	23.148936	0.000851	8.513617	2.884491	-0.000341
 961	9.5520e+01	1.7406	22.914782	0.000588	5.878450	1.991673	-0.000235
 962	9.5620e+01	1.6973	22.664480	0.000628	6.283860	2.129029	-0.000252
 963	9.5719e+01	1.6604	22.402066	0.000659	6.587918	2.232047	-0.000264
 964	9.5819e+01	1.6219	22.115430	0.000720	7.196033	2.438082	-0.000288
 965	9.5918e+01	1.5738	21.836867	0.000699	6.993328	2.369404	-0.000280
 966	9.6017e+01	1.5417	21.602713	0.000588	5.878450	1.991673	-0.000235
 967	9.6117e+01	1.5048	21.332225	0.000679	6.790623	2.300725	-0.000272
 968	9.6216e+01	1.4663	21.053663	0.000699	6.993328	2.369404	-0.000280
 969	9.6316e+01	1.4197	20.803360	0.000628	6.283860	2.129029	-0.000252
 970	9.6415e+01	1.3828	20.536909	0.000669	6.689270	2.266386	-0.000268
 971	9.6515e+01	1.3443	20.254310	0.000709	7.094681	2.403743	-0.000284
 972	9.6615e+01	1.2978	19.951525	0.000760	7.601444	2.575439	-0.000304
 973	9.6714e+01	1.2561	19.725445	0.000568	5.675745	1.922994	-0.000227
 974	9.6814e+01	1.2256	19.467069	0.000649	6.486565	2.197708	-0.000260
 975	9.6913e+01	1.1919	19.144098	0.000811	8.108207	2.747135	-0.000325
 976	9.7013e+01	1.1438	18.942241	0.000507	5.067629	1.716959	-0.000203
 977	9.7112e+01	1.1005	18.582936	0.000902	9.020380	3.056187	-0.000361
 978	9.7212e+01	1.0604	18.324559	0.000649	6.486565	2.197708	-0.000260
 979	9.7311e+01	1.0267	18.025811	0.000750	7.500091	2.541100	-0.000300
 980	9.7410e+01	0.9818	17.827991	0.000497	4.966277	1.682620	-0.000199
 981	9.7510e+01	0.9497	17.488872	0.000851	8.513617	2.884491	-0.000341
 982	9.7609e+01	0.9112	17.226458	0.000659	6.587918	2.232047	-0.000264
 983	9.7709e+01	0.8727	16.976156	0.000628	6.283860	2.129029	-0.000252
 984	9.7808e+01	0.8262	16.721816	0.000639	6.385213	2.163369	-0.000256
 985	9.7908e+01	0.7845	16.419031	0.000760	7.601444	2.575439	-0.000304
 986	9.8007e+01	0.7508	16.136432	0.000709	7.094681	2.403743	-0.000284
 987	9.8107e+01	0.7059	15.853832	0.000709	7.094681	2.403743	-0.000284
 988	9.8207e+01	0.6706	15.542973	0.000780	7.804149	2.644117	-0.000312
 989	9.8306e+01	0.6240	15.312856	0.000578	5.777097	1.957334	-0.000231
 990	9.8406e+01	0.5920	15.030256	0.000709	7.094681	2.403743	-0.000284
 991	9.8505e+01	0.5454	14.743620	0.000720	7.196033	2.438082	-0.000288
 992	9.8605e+01	0.5085	14.452946	0.000730	7.297386	2.472421	-0.000292
 993	9.8704e+01	0.4668	14.170346	0.000709	7.094681	2.403743	-0.000284
 994	9.8803e+01	0.4299	13.899858	0.000679	6.790623	2.300725	-0.000272
 995	9.8903e+01	0.3898	13.633407	0.000669	6.689270	2.266386	-0.000268
 996	9.9002e+01	0.3465	13.375031	0.000649	6.486565	2.197708	-0.000260
 997	9.9102e+01	0.2968	13.052060	0.000811	8.108207	2.747135	-0.000325
 998	9.9201e+01	0.2663	12.785609	0.000669	6.689270	2.266386	-0.000268
 999	9.9301e+01	0.2358	12.515121	0.000679	6.790623	2.300725	-0.000272
1000	9.9400e+01	0.1925	12.240596	0.000689	6.891976	2.335065	-0.000276
1001	9.9500e+01	0.1492	11.937810	0.000760	7.601444	2.575439	-0.000304
1002	9.9600e+01	0.1027	11.659248	0.000699	6.993328	2.369404	-0.000280
1003	9.9699e+01	0.0754	11.384723	0.000689	6.891976	2.335065	-0.000276
1004	9.9799e+01	0.0289	11.077900	0.000770	7.702796	2.609778	-0.000308
1005	9.9898e+01	0.0000	10.880081	0.000497	4.966277	1.682620	-0.000199
1006	9.9998e+01	-0.0465	10.573258	0.000770	7.702796	2.609778	-0.000308
1007	1.0010e+02	-0.0722	10.322956	0.000628	6.283860	2.129029	-0.000252
1008	1.0020e+02	-0.1219	10.024208	0.000750	7.500091	2.541100	-0.000300
1009	1.0030e+02	-0.1700	9.741609	0.000709	7.094681	2.403743	-0.000284
1010	1.0040e+02	-0.2037	9.475158	0.000669	6.689270	2.266386	-0.000268
1011	1.0050e+02	-0.2422	9.160261	0.000791	7.905501	2.678456	-0.000316
1012	1.0059e+02	-0.2823	8.901884	0.000649	6.486565	2.197708	-0.000260
1013	1.0069e+02	-0.3225	8.611211	0.000730	7.297386	2.472421	-0.000292
1014	1.0079e+02	-0.3690	8.332648	0.000699	6.993328	2.369404	-0.000280
1015	1.0089e+02	-0.4075	8.078309	0.000639	6.385213	2.163369	-0.000256
1016	1.0099e+02	-0.4364	7.795709	0.000709	7.094681	2.403743	-0.000284
1017	1.0109e+02	-0.4781	7.460627	0.000841	8.412264	2.850152	-0.000337
1018	1.0119e+02	-0.5262	7.214362	0.000618	6.182508	2.094690	-0.000248
1019	1.0129e+02	-0.5679	6.939836	0.000689	6.891976	2.335065	-0.000276
1020	1.0139e+02	-0.6064	6.653200	0.000720	7.196033	2.438082	-0.000288
1021	1.0149e+02	-0.6417	6.358489	0.000740	7.398739	2.506760	-0.000296
1022	1.0159e+02	-0.6946	6.055704	0.000760	7.601444	2.575439	-0.000304
1023	1.0169e+02	-0.7203	5.777141	0.000699	6.993328	2.369404	-0.000280
1024	1.0179e+02	-0.7636	5.510690	0.000669	6.689270	2.266386	-0.000268
1025	1.0189e+02	-0.7909	5.211942	0.000750	7.500091	2.541100	-0.000300
1026	1.0199e+02	-0.8422	4.949528	0.000659	6.587918	2.232047	-0.000264
1027	1.0209e+02	-0.8775	4.687115	0.000659	6.587918	2.232047	-0.000264
1028	1.0219e+02	-0.9176	4.404515	0.000709	7.094681	2.403743	-0.000284
1029	1.0229e+02	-0.9690	4.061359	0.000861	8.614969	2.918831	-0.000345
1030	1.0239e+02	-1.0010	3.782796	0.000699	6.993328	2.369404	-0.000280
1031	1.0248e+02	-1.0476	3.500197	0.000709	7.094681	2.403743	-0.000284
1032	1.0258e+02	-1.0845	3.262006	0.000598	5.979802	2.026012	-0.000239
1033	1.0268e+02	-1.1294	2.959220	0.000760	7.601444	2.575439	-0.000304
1034	1.0278e+02	-1.1631	2.640287	0.000801	8.006854	2.712796	-0.000321
1035	1.0288e+02	-1.2000	2.406133	0.000588	5.878450	1.991673	-0.000235
1036	1.0298e+02	-1.2401	2.075088	0.000831	8.310912	2.815813	-0.000333
1037	1.0308e+02	-1.2770	1.784414	0.000730	7.297386	2.472421	-0.000292
1038	1.0318e+02	-1.3219	1.517963	0.000669	6.689270	2.266386	-0.000268
1039	1.0328e+02	-1.3588	1.211141	0.000770	7.702796	2.609778	-0.000308
1040	1.0338e+02	-1.3973	0.944690	0.000669	6.689270	2.266386	-0.000268
1041	1.0348e+02	-1.4454	0.658053	0.000720	7.196033	2.438082	-0.000288
1042	1.0358e+02	-1.4759	0.375454	0.000709	7.094681	2.403743	-0.000284
1043	1.0368e+02	-1.5192	0.117077	0.000649	6.486565	2.197708	-0.000260
1044	1.0378e+02	-1.5529	-0.226080	0.000861	8.614969	2.918831	-0.000345
1045	1.0388e+02	-1.5930	-0.484456	0.000649	6.486565	2.197708	-0.000260
1046	1.0398e+02	-1.6427	-0.795316	0.000780	7.804149	2.644117	-0.000312
1047	1.0408e+02	-1.6893	-1.049655	0.000639	6.385213	2.163369	-0.000256
1048	1.0418e+02	-1.7197	-1.352440	0.000760	7.601444	2.575439	-0.000304
1049	1.0428e+02	-1.7598	-1.639077	0.000720	7.196033	2.438082	-0.000288
1050	1.0438e+02	-1.7983	-1.909565	0.000679	6.790623	2.300725	-0.000272
1051	1.0447e+02	-1.8417	-2.188128	0.000699	6.993328	2.369404	-0.000280
1052	1.0457e+02	-1.8850	-2.498987	0.000780	7.804149	2.644117	-0.000312
1053	1.0467e+02	-1.9155	-2.765438	0.000669	6.689270	2.266386	-0.000268
1054	1.0477e+02	-1.9588	-3.064186	0.000750	7.500091	2.541100	-0.000300
1055	1.0487e+02	-1.9957	-3.342748	0.000699	6.993328	2.369404	-0.000280
1056	1.0497e+02	-2.0422	-3.645534	0.000760	7.601444	2.575439	-0.000304
1057	1.0507e+02	-2.0871	-3.932170	0.000720	7.196033	2.438082	-0.000288
1058	1.0517e+02	-2.1208	-4.202658	0.000679	6.790623	2.300725	-0.000272
1059	1.0527e+02	-2.1641	-4.436812	0.000588	5.878450	1.991673	-0.000235
1060	1.0537e+02	-2.1914	-4.796117	0.000902	9.020380	3.056187	-0.000361
1061	1.0547e+02	-2.2427	-5.038345	0.000608	6.081155	2.060351	-0.000243
1062	1.0557e+02	-2.2860	-5.353242	0.000791	7.905501	2.678456	-0.000316
1063	1.0567e+02	-2.3197	-5.595470	0.000608	6.081155	2.060351	-0.000243
1064	1.0577e+02	-2.3630	-5.894218	0.000750	7.500091	2.541100	-0.000300
1065	1.0587e+02	-2.4063	-6.168743	0.000689	6.891976	2.335065	-0.000276
1066	1.0597e+02	-2.4465	-6.471529	0.000760	7.601444	2.575439	-0.000304
1067	1.0607e+02	-2.4737	-6.770277	0.000750	7.500091	2.541100	-0.000300
1068	1.0617e+02	-2.5186	-6.988282	0.000547	5.473039	1.854316	-0.000219
1069	1.0627e+02	-2.5668	-7.295104	0.000770	7.702796	2.609778	-0.000308
1070	1.0637e+02	-2.6021	-7.601927	0.000770	7.702796	2.609778	-0.000308
1071	1.0647e+02	-2.6325	-7.828006	0.000568	5.675745	1.922994	-0.000227
1072	1.0656e+02	-2.6807	-8.122717	0.000740	7.398739	2.506760	-0.000296
1073	1.0666e+02	-2.7240	-8.417428	0.000740	7.398739	2.506760	-0.000296
1074	1.0676e+02	-2.7561	-8.687916	0.000679	6.790623	2.300725	-0.000272
1075	1.0686e+02	-2.7994	-8.950330	0.000659	6.587918	2.232047	-0.000264
1076	1.0696e+02	-2.8363	-9.228892	0.000699	6.993328	2.369404	-0.000280
1077	1.0706e+02	-2.8860	-9.479195	0.000628	6.283860	2.129029	-0.000252
1078	1.0716e+02	-2.9165	-9.777943	0.000750	7.500091	2.541100	-0.000300
1079	1.0726e+02	-2.9534	-10.032282	0.000639	6.385213	2.163369	-0.000256
1080	1.0736e+02	-2.9967	-10.339105	0.000770	7.702796	2.609778	-0.000308
1081	1.0746e+02	-3.0432	-10.617667	0.000699	6.993328	2.369404	-0.000280
1082	1.0756e+02	-3.0705	-10.880081	0.000659	6.587918	2.232047	-0.000264
1083	1.0766e+02	-3.1186	-11.158643	0.000699	6.993328	2.369404	-0.000280
1084	1.0776e+02	-3.1652	-11.421057	0.000659	6.587918	2.232047	-0.000264
1085	1.0786e+02	-3.1940	-11.671359	0.000628	6.283860	2.129029	-0.000252
1086	1.0796e+02	-3.2341	-11.921662	0.000628	6.283860	2.129029	-0.000252
1087	1.0806e+02	-3.2774	-12.285004	0.000912	9.121732	3.090527	-0.000365
1088	1.0816e+02	-3.3079	-12.531269	0.000618	6.182508	2.094690	-0.000248
1089	1.0826e+02	-3.3625	-12.793683	0.000659	6.587918	2.232047	-0.000264
1090	1.0836e+02	-3.3897	-13.060134	0.000669	6.689270	2.266386	-0.000268
1091	1.0845e+02	-3.4282	-13.370994	0.000780	7.804149	2.644117	-0.000312
1092	1.0855e+02	-3.4700	-13.625333	0.000639	6.385213	2.163369	-0.000256
1093	1.0865e+02	-3.5165	-13.875636	0.000628	6.283860	2.129029	-0.000252
1094	1.0875e+02	-3.5566	-14.121901	0.000618	6.182508	2.094690	-0.000248
1095	1.0885e+02	-3.5903	-14.428723	0.000770	7.702796	2.609778	-0.000308
1096	1.0895e+02	-3.6272	-14.699211	0.000679	6.790623	2.300725	-0.000272
1097	1.0905e+02	-3.6817	-14.977774	0.000699	6.993328	2.369404	-0.000280
1098	1.0915e+02	-3.7058	-15.224039	0.000618	6.182508	2.094690	-0.000248
1099	1.0925e+02	-3.7539	-15.502601	0.000699	6.993328	2.369404	-0.000280
1100	1.0935e+02	-3.7844	-15.777126	0.000689	6.891976	2.335065	-0.000276
1101	1.0945e+02	-3.8341	-16.100097	0.000811	8.108207	2.747135	-0.000325
1102	1.0955e+02	-3.8630	-16.293880	0.000486	4.864924	1.648281	-0.000195
1103	1.0965e+02	-3.9095	-16.592628	0.000750	7.500091	2.541100	-0.000300
1104	1.0975e+02	-3.9528	-16.851005	0.000649	6.486565	2.197708	-0.000260
1105	1.0985e+02	-3.9945	-17.105344	0.000639	6.385213	2.163369	-0.000256
1106	1.0995e+02	-4.0379	-17.391981	0.000720	7.196033	2.438082	-0.000288
1107	1.1005e+02	-4.0748	-17.638246	0.000618	6.182508	2.094690	-0.000248
1108	1.1015e+02	-4.1084	-17.916808	0.000699	6.993328	2.369404	-0.000280
1109	1.1025e+02	-4.1502	-18.191334	0.000689	6.891976	2.335065	-0.000276
1110	1.1035e+02	-4.1887	-18.482007	0.000730	7.297386	2.472421	-0.000292
1111	1.1044e+02	-4.2304	-18.716161	0.000588	5.878450	1.991673	-0.000235
1112	1.1054e+02	-4.2737	-18.986649	0.000679	6.790623	2.300725	-0.000272
1113	1.1064e+02	-4.3170	-19.236952	0.000628	6.283860	2.129029	-0.000252
1114	1.1074e+02	-4.3443	-19.479180	0.000608	6.081155	2.060351	-0.000243
1115	1.1084e+02	-4.3812	-19.781965	0.000760	7.601444	2.575439	-0.000304
1116	1.1094e+02	-4.4325	-20.052453	0.000679	6.790623	2.300725	-0.000272
1117	1.1104e+02	-4.4710	-20.302756	0.000628	6.283860	2.129029	-0.000252
1118	1.1114e+02	-4.5047	-20.528835	0.000568	5.675745	1.922994	-0.000227
1119	1.1124e+02	-4.5480	-20.831620	0.000760	7.601444	2.575439	-0.000304
1120	1.1134e+02	-4.5769	-21.041551	0.000527	5.270334	1.785638	-0.000211
1121	1.1144e+02	-4.6250	-21.328188	0.000720	7.196033	2.438082	-0.000288
1122	1.1154e+02	-4.6731	-21.626936	0.000750	7.500091	2.541100	-0.000300
1123	1.1164e+02	-4.7036	-21.861090	0.000588	5.878450	1.991673	-0.000235
1124	1.1174e+02	-4.7533	-22.135615	0.000689	6.891976	2.335065	-0.000276
1125	1.1184e+02	-4.7806	-22.341509	0.000517	5.168982	1.751298	-0.000207
1126	1.1194e+02	-4.8239	-22.632183	0.000730	7.297386	2.472421	-0.000292
1127	1.1204e+02	-4.8688	-22.894597	0.000659	6.587918	2.232047	-0.000264
1128	1.1214e+02	-4.9138	-23.148936	0.000639	6.385213	2.163369	-0.000256
1129	1.1224e+02	-4.9410	-23.411350	0.000659	6.587918	2.232047	-0.000264
1130	1.1234e+02	-4.9860	-23.609170	0.000497	4.966277	1.682620	-0.000199
1131	1.1244e+02	-5.0196	-23.915992	0.000770	7.702796	2.609778	-0.000308
1132	1.1253e+02	-5.0614	-24.178406	0.000659	6.587918	2.232047	-0.000264
1133	1.1263e+02	-5.1063	-24.408523	0.000578	5.777097	1.957334	-0.000231
1134	1.1273e+02	-5.1448	-24.670936	0.000659	6.587918	2.232047	-0.000264
1135	1.1283e+02	-5.1849	-24.905090	0.000588	5.878450	1.991673	-0.000235
1136	1.1293e+02	-5.2250	-25.143281	0.000598	5.979802	2.026012	-0.000239
1137	1.1303e+02	-5.2699	-25.433955	0.000730	7.297386	2.472421	-0.000292
1138	1.1313e+02	-5.3020	-25.708480	0.000689	6.891976	2.335065	-0.000276
1139	1.1323e+02	-5.3453	-25.958783	0.000628	6.283860	2.129029	-0.000252
1140	1.1333e+02	-5.3902	-26.184862	0.000568	5.675745	1.922994	-0.000227
1141	1.1343e+02	-5.4319	-26.495722	0.000780	7.804149	2.644117	-0.000312
1142	1.1353e+02	-5.4656	-26.717764	0.000557	5.574392	1.888655	-0.000223
1143	1.1363e+02	-5.5105	-26.964030	0.000618	6.182508	2.094690	-0.000248
1144	1.1373e+02	-5.5362	-27.226443	0.000659	6.587918	2.232047	-0.000264
1145	1.1383e+02	-5.5859	-27.464634	0.000598	5.979802	2.026012	-0.000239
1146	1.1393e+02	-5.6180	-27.674565	0.000527	5.270334	1.785638	-0.000211
1147	1.1403e+02	-5.6678	-27.953128	0.000699	6.993328	2.369404	-0.000280
1148	1.1413e+02	-5.7079	-28.187282	0.000588	5.878450	1.991673	-0.000235
1149	1.1423e+02	-5.7351	-28.469881	0.000709	7.094681	2.403743	-0.000284
1150	1.1433e+02	-5.7736	-28.724221	0.000639	6.385213	2.163369	-0.000256
1151	1.1442e+02	-5.8282	-28.962412	0.000598	5.979802	2.026012	-0.000239
1152	1.1452e+02	-5.8635	-29.192529	0.000578	5.777097	1.957334	-0.000231
1153	1.1462e+02	-5.9004	-29.491277	0.000750	7.500091	2.541100	-0.000300
1154	1.1472e+02	-5.9501	-29.749653	0.000649	6.486565	2.197708	-0.000260
1155	1.1482e+02	-5.9838	-30.008030	0.000649	6.486565	2.197708	-0.000260
1156	1.1492e+02	-6.0239	-30.197775	0.000476	4.763571	1.613942	-0.000191
1157	1.1502e+02	-6.0688	-30.528820	0.000831	8.310912	2.815813	-0.000333
1158	1.1512e+02	-6.1089	-30.726640	0.000497	4.966277	1.682620	-0.000199
1159	1.1522e+02	-6.1458	-31.009240	0.000709	7.094681	2.403743	-0.000284
1160	1.1532e+02	-6.1827	-31.227245	0.000547	5.473039	1.854316	-0.000219
1161	1.1542e+02	-6.2180	-31.477547	0.000628	6.283860	2.129029	-0.000252
1162	1.1552e+02	-6.2597	-31.743998	0.000669	6.689270	2.266386	-0.000268
1163	1.1562e+02	-6.3014	-32.002375	0.000649	6.486565	2.197708	-0.000260
1164	1.1572e+02	-6.3415	-32.228455	0.000568	5.675745	1.922994	-0.000227
1165	1.1582e+02	-6.3881	-32.470683	0.000608	6.081155	2.060351	-0.000243
1166	1.1592e+02	-6.4282	-32.696762	0.000568	5.675745	1.922994	-0.000227
1167	1.1602e+02	-6.4506	-32.930916	0.000588	5.878450	1.991673	-0.000235
1168	1.1612e+02	-6.5036	-33.181219	0.000628	6.283860	2.129029	-0.000252
1169	1.1622e+02	-6.5469	-33.484004	0.000760	7.601444	2.575439	-0.000304
1170	1.1632e+02	-6.5838	-33.677786	0.000486	4.864924	1.648281	-0.000195
1171	1.1642e+02	-6.6175	-33.924052	0.000618	6.182508	2.094690	-0.000248
1172	1.1651e+02	-6.6576	-34.186465	0.000659	6.587918	2.232047	-0.000264
1173	1.1661e+02	-6.6929	-34.404471	0.000547	5.473039	1.854316	-0.000219
1174	1.1671e+02	-6.7378	-34.670922	0.000669	6.689270	2.266386	-0.000268
1175	1.1681e+02	-6.7811	-34.933336	0.000659	6.587918	2.232047	-0.000264
1176	1.1691e+02	-6.8180	-35.151341	0.000547	5.473039	1.854316	-0.000219
1177	1.1701e+02	-6.8517	-35.345123	0.000486	4.864924	1.648281	-0.000195
1178	1.1711e+02	-6.8998	-35.635797	0.000730	7.297386	2.472421	-0.000292
1179	1.1721e+02	-6.9303	-35.902248	0.000669	6.689270	2.266386	-0.000268
1180	1.1731e+02	-6.9752	-36.083919	0.000456	4.560866	1.545263	-0.000183
1181	1.1741e+02	-7.0137	-36.338259	0.000639	6.385213	2.163369	-0.000256
1182	1.1751e+02	-7.0522	-36.588561	0.000628	6.283860	2.129029	-0.000252
1183	1.1761e+02	-7.0955	-36.830789	0.000608	6.081155	2.060351	-0.000243
1184	1.1771e+02	-7.1469	-37.060906	0.000578	5.777097	1.957334	-0.000231
1185	1.1781e+02	-7.1870	-37.347543	0.000720	7.196033	2.438082	-0.000288
1186	1.1791e+02	-7.2078	-37.533251	0.000466	4.662219	1.579602	-0.000187
1187	1.1801e+02	-7.2575	-37.795665	0.000659	6.587918	2.232047	-0.000264
1188	1.1811e+02	-7.2944	-38.029819	0.000588	5.878450	1.991673	-0.000235
1189	1.1821e+02	-7.3426	-38.259935	0.000578	5.777097	1.957334	-0.000231
1190	1.1831e+02	-7.3634	-38.510238	0.000628	6.283860	2.129029	-0.000252
1191	1.1841e+02	-7.4212	-38.712095	0.000507	5.067629	1.716959	-0.000203
1192	1.1850e+02	-7.4501	-38.998731	0.000720	7.196033	2.438082	-0.000288
1193	1.1860e+02	-7.4982	-39.200588	0.000507	5.067629	1.716959	-0.000203
1194	1.1870e+02	-7.5351	-39.463002	0.000659	6.587918	2.232047	-0.000264
1195	1.1880e+02	-7.5736	-39.656784	0.000486	4.864924	1.648281	-0.000195
1196	1.1890e+02	-7.6137	-39.899012	0.000608	6.081155	2.060351	-0.000243
1197	1.1900e+02	-7.6586	-40.145278	0.000618	6.182508	2.094690	-0.000248
1198	1.1910e+02	-7.6987	-40.359246	0.000537	5.371687	1.819977	-0.000215
1199	1.1920e+02	-7.7468	-40.569177	0.000527	5.270334	1.785638	-0.000211
1200	1.1930e+02	-7.7757	-40.847739	0.000699	6.993328	2.369404	-0.000280
1201	1.1940e+02	-7.8094	-41.057670	0.000527	5.270334	1.785638	-0.000211
1202	1.1950e+02	-7.8591	-41.320084	0.000659	6.587918	2.232047	-0.000264
1203	1.1960e+02	-7.8960	-41.558275	0.000598	5.979802	2.026012	-0.000239
1204	1.1970e+02	-7.9313	-41.792429	0.000588	5.878450	1.991673	-0.000235
1205	1.1980e+02	-7.9746	-42.026583	0.000588	5.878450	1.991673	-0.000235
1206	1.1990e+02	-8.0099	-42.293034	0.000669	6.689270	2.266386	-0.000268
1207	1.2000e+02	-8.0597	-42.482779	0.000476	4.763571	1.613942	-0.000191
1208	1.2010e+02	-8.0966	-42.716933	0.000588	5.878450	1.991673	-0.000235
1209	1.2020e+02	-8.1431	-42.951087	0.000588	5.878450	1.991673	-0.000235
1210	1.2030e+02	-8.1639	-43.169092	0.000547	5.473039	1.854316	-0.000219
1211	1.2039e+02	-8.2121	-43.411321	0.000608	6.081155	2.060351	-0.000243
1212	1.2049e+02	-8.2506	-43.693920	0.000709	7.094681	2.403743	-0.000284
1213	1.2059e+02	-8.2843	-43.879628	0.000466	4.662219	1.579602	-0.000187
1214	1.2069e+02	-8.3340	-44.061299	0.000456	4.560866	1.545263	-0.000183
1215	1.2079e+02	-8.3773	-44.347936	0.000720	7.196033	2.438082	-0.000288
1216	1.2089e+02	-8.4126	-44.614387	0.000669	6.689270	2.266386	-0.000268
1217	1.2099e+02	-8.4479	-44.759724	0.000365	3.648693	1.236211	-0.000146
1218	1.2109e+02	-8.4912	-45.058472	0.000750	7.500091	2.541100	-0.000300
1219	1.2119e+02	-8.5345	-45.280514	0.000557	5.574392	1.888655	-0.000223
1220	1.2129e+02	-8.5666	-45.478334	0.000497	4.966277	1.682620	-0.000199
1221	1.2139e+02	-8.6067	-45.740748	0.000659	6.587918	2.232047	-0.000264
1222	1.2149e+02	-8.6468	-45.950679	0.000527	5.270334	1.785638	-0.000211
1223	1.2159e+02	-8.6885	-46.168684	0.000547	5.473039	1.854316	-0.000219
1224	1.2169e+02	-8.7318	-46.374578	0.000517	5.168982	1.751298	-0.000207
1225	1.2179e+02	-8.7687	-46.632955	0.000649	6.486565	2.197708	-0.000260
1226	1.2189e+02	-8.8072	-46.883257	0.000628	6.283860	2.129029	-0.000252
1227	1.2199e+02	-8.8538	-47.077040	0.000486	4.864924	1.648281	-0.000195
1228	1.2209e+02	-8.8923	-47.323305	0.000618	6.182508	2.094690	-0.000248
1229	1.2219e+02	-8.9260	-47.565533	0.000608	6.081155	2.060351	-0.000243
1230	1.2229e+02	-8.9677	-47.751242	0.000466	4.662219	1.579602	-0.000187
1231	1.2239e+02	-9.0110	-47.993470	0.000608	6.081155	2.060351	-0.000243
1232	1.2248e+02	-9.0575	-48.195326	0.000507	5.067629	1.716959	-0.000203
1233	1.2258e+02	-9.0880	-48.441592	0.000618	6.182508	2.094690	-0.000248
1234	1.2268e+02	-9.1233	-48.651523	0.000527	5.270334	1.785638	-0.000211
1235	1.2278e+02	-9.1634	-48.857417	0.000517	5.168982	1.751298	-0.000207
1236	1.2288e+02	-9.2051	-49.103682	0.000618	6.182508	2.094690	-0.000248
1237	1.2298e+02	-9.2452	-49.337836	0.000588	5.878450	1.991673	-0.000235
1238	1.2308e+02	-9.2821	-49.559878	0.000557	5.574392	1.888655	-0.000223
1239	1.2318e+02	-9.3447	-49.765772	0.000517	5.168982	1.751298	-0.000207
1240	1.2328e+02	-9.3623	-49.955518	0.000476	4.763571	1.613942	-0.000191
1241	1.2338e+02	-9.4088	-50.205820	0.000628	6.283860	2.129029	-0.000252
1242	1.2348e+02	-9.4425	-50.423825	0.000547	5.473039	1.854316	-0.000219
1243	1.2358e+02	-9.4890	-50.625682	0.000507	5.067629	1.716959	-0.000203
1244	1.2368e+02	-9.5243	-50.875985	0.000628	6.283860	2.129029	-0.000252
1245	1.2378e+02	-9.5789	-51.085916	0.000527	5.270334	1.785638	-0.000211
1246	1.2388e+02	-9.6094	-51.303921	0.000547	5.473039	1.854316	-0.000219
1247	1.2398e+02	-9.6479	-51.521926	0.000547	5.473039	1.854316	-0.000219
1248	1.2408e+02	-9.6815	-51.731857	0.000527	5.270334	1.785638	-0.000211
1249	1.2418e+02	-9.7249	-51.961974	0.000578	5.777097	1.957334	-0.000231
1250	1.2428e+02	-9.7650	-52.171905	0.000527	5.270334	1.785638	-0.000211
1251	1.2438e+02	-9.8131	-52.422208	0.000628	6.283860	2.129029	-0.000252
1252	1.2447e+02	-9.8388	-52.632139	0.000527	5.270334	1.785638	-0.000211
1253	1.2457e+02	-9.8901	-52.829958	0.000497	4.966277	1.682620	-0.000199
1254	1.2467e+02	-9.9302	-53.019704	0.000476	4.763571	1.613942	-0.000191
1255	1.2477e+02	-9.9735	-53.290192	0.000679	6.790623	2.300725	-0.000272
1256	1.2487e+02	-10.0024	-53.431491	0.000355	3.547340	1.201871	-0.000142
1257	1.2497e+02	-10.0377	-53.693905	0.000659	6.587918	2.232047	-0.000264
1258	1.2507e+02	-10.0794	-53.932096	0.000598	5.979802	2.026012	-0.000239
1259	1.2517e+02	-10.1243	-54.117805	0.000466	4.662219	1.579602	-0.000187
1260	1.2527e+02	-10.1596	-54.343884	0.000568	5.675745	1.922994	-0.000227
1261	1.2537e+02	-10.1965	-54.574001	0.000578	5.777097	1.957334	-0.000231
1262	1.2547e+02	-10.2414	-54.800081	0.000568	5.675745	1.922994	-0.000227
1263	1.2557e+02	-10.2831	-55.014049	0.000537	5.371687	1.819977	-0.000215
1264	1.2567e+02	-10.3313	-55.203794	0.000476	4.763571	1.613942	-0.000191
1265	1.2577e+02	-10.3633	-55.433911	0.000578	5.777097	1.957334	-0.000231
1266	1.2587e+02	-10.4051	-55.655953	0.000557	5.574392	1.888655	-0.000223
1267	1.2597e+02	-10.4484	-55.877996	0.000557	5.574392	1.888655	-0.000223
1268	1.2607e+02	-10.4772	-56.108112	0.000578	5.777097	1.957334	-0.000231
1269	1.2617e+02	-10.5157	-56.309969	0.000507	5.067629	1.716959	-0.000203
1270	1.2627e+02	-10.5623	-56.515863	0.000517	5.168982	1.751298	-0.000207
1271	1.2636e+02	-10.6088	-56.766166	0.000628	6.283860	2.129029	-0.000252
1272	1.2646e+02	-10.6457	-56.927651	0.000405	4.054103	1.373567	-0.000162
1273	1.2656e+02	-10.6810	-57.190065	0.000659	6.587918	2.232047	-0.000264
1274	1.2666e+02	-10.7323	-57.355587	0.000416	4.155456	1.407907	-0.000166
1275	1.2676e+02	-10.7644	-57.589741	0.000588	5.878450	1.991673	-0.000235
1276	1.2686e+02	-10.8093	-57.795635	0.000517	5.168982	1.751298	-0.000207
1277	1.2696e+02	-10.8430	-58.045938	0.000628	6.283860	2.129029	-0.000252
1278	1.2706e+02	-10.8831	-58.231646	0.000466	4.662219	1.579602	-0.000187
1279	1.2716e+02	-10.9232	-58.425428	0.000486	4.864924	1.648281	-0.000195
1280	1.2726e+02	-10.9649	-58.651508	0.000568	5.675745	1.922994	-0.000227
1281	1.2736e+02	-11.0018	-58.857402	0.000517	5.168982	1.751298	-0.000207
1282	1.2746e+02	-11.0516	-59.123853	0.000669	6.689270	2.266386	-0.000268
1283	1.2756e+02	-11.0885	-59.277264	0.000385	3.851398	1.304889	-0.000154
1284	1.2766e+02	-11.1254	-59.462972	0.000466	4.662219	1.579602	-0.000187
1285	1.2776e+02	-11.1687	-59.709238	0.000618	6.182508	2.094690	-0.000248
1286	1.2786e+02	-11.2008	-59.939354	0.000578	5.777097	1.957334	-0.000231
1287	1.2796e+02	-11.2425	-60.169471	0.000578	5.777097	1.957334	-0.000231
1288	1.2806e+02	-11.2745	-60.355179	0.000466	4.662219	1.579602	-0.000187
1289	1.2816e+02	-11.3323	-60.573185	0.000547	5.473039	1.854316	-0.000219
1290	1.2826e+02	-11.3676	-60.795227	0.000557	5.574392	1.888655	-0.000223
1291	1.2835e+02	-11.4013	-60.948638	0.000385	3.851398	1.304889	-0.000154
1292	1.2845e+02	-11.4334	-61.211052	0.000659	6.587918	2.232047	-0.000264
1293	1.2855e+02	-11.4783	-61.396760	0.000466	4.662219	1.579602	-0.000187
1294	1.2865e+02	-11.5184	-61.602654	0.000517	5.168982	1.751298	-0.000207
1295	1.2875e+02	-11.5601	-61.828734	0.000568	5.675745	1.922994	-0.000227
1296	1.2885e+02	-11.5954	-62.030591	0.000507	5.067629	1.716959	-0.000203
1297	1.2895e+02	-11.6467	-62.240522	0.000527	5.270334	1.785638	-0.000211
1298	1.2905e+02	-11.6788	-62.434304	0.000486	4.864924	1.648281	-0.000195
1299	1.2915e+02	-11.7221	-62.648272	0.000537	5.371687	1.819977	-0.000215
1300	1.2925e+02	-11.7638	-62.878389	0.000578	5.777097	1.957334	-0.000231
1301	1.2935e+02	-11.8055	-63.039875	0.000405	4.054103	1.373567	-0.000162
1302	1.2945e+02	-11.8424	-63.237694	0.000497	4.966277	1.682620	-0.000199
1303	1.2955e+02	-11.8777	-63.492034	0.000639	6.385213	2.163369	-0.000256
1304	1.2965e+02	-11.9146	-63.710039	0.000547	5.473039	1.854316	-0.000219
1305	1.2975e+02	-11.9563	-63.903822	0.000486	4.864924	1.648281	-0.000195
1306	1.2985e+02	-11.9981	-64.125864	0.000557	5.574392	1.888655	-0.000223
1307	1.2995e+02	-12.0366	-64.319647	0.000486	4.864924	1.648281	-0.000195
1308	1.3005e+02	-12.0767	-64.545726	0.000568	5.675745	1.922994	-0.000227
1309	1.3015e+02	-12.1200	-64.755657	0.000527	5.270334	1.785638	-0.000211
1310	1.3025e+02	-12.1617	-64.925217	0.000426	4.256808	1.442246	-0.000170
1311	1.3034e+02	-12.1954	-65.159371	0.000588	5.878450	1.991673	-0.000235
1312	1.3044e+02	-12.2403	-65.385450	0.000568	5.675745	1.922994	-0.000227
1313	1.3054e+02	-12.2740	-65.563084	0.000446	4.459514	1.510924	-0.000179
1314	1.3064e+02	-12.3189	-65.817424	0.000639	6.385213	2.163369	-0.000256
1315	1.3074e+02	-12.3462	-65.986984	0.000426	4.256808	1.442246	-0.000170
1316	1.3084e+02	-12.3975	-66.225175	0.000598	5.979802	2.026012	-0.000239
1317	1.3094e+02	-12.4408	-66.394734	0.000426	4.256808	1.442246	-0.000170
1318	1.3104e+02	-12.4681	-66.657148	0.000659	6.587918	2.232047	-0.000264
1319	1.3114e+02	-12.5146	-66.846894	0.000476	4.763571	1.613942	-0.000191
1320	1.3124e+02	-12.5595	-67.068936	0.000557	5.574392	1.888655	-0.000223
1321	1.3134e+02	-12.6012	-67.278867	0.000527	5.270334	1.785638	-0.000211
1322	1.3144e+02	-12.6381	-67.480724	0.000507	5.067629	1.716959	-0.000203
1323	1.3154e+02	-12.6750	-67.702766	0.000557	5.574392	1.888655	-0.000223
1324	1.3164e+02	-12.7184	-67.888475	0.000466	4.662219	1.579602	-0.000187
1325	1.3174e+02	-12.7601	-68.114554	0.000568	5.675745	1.922994	-0.000227
1326	1.3184e+02	-12.7857	-68.328522	0.000537	5.371687	1.819977	-0.000215
1327	1.3194e+02	-12.8323	-68.514231	0.000466	4.662219	1.579602	-0.000187
1328	1.3204e+02	-12.8772	-68.736273	0.000557	5.574392	1.888655	-0.000223
1329	1.3214e+02	-12.9109	-68.954278	0.000547	5.473039	1.854316	-0.000219
1330	1.3224e+02	-12.9462	-69.172284	0.000547	5.473039	1.854316	-0.000219
1331	1.3234e+02	-12.9798	-69.378178	0.000517	5.168982	1.751298	-0.000207
1332	1.3243e+02	-13.0344	-69.608294	0.000578	5.777097	1.957334	-0.000231
1333	1.3253e+02	-13.0601	-69.810151	0.000507	5.067629	1.716959	-0.000203
1334	1.3263e+02	-13.1114	-70.016045	0.000517	5.168982	1.751298	-0.000207
1335	1.3273e+02	-13.1547	-70.230013	0.000537	5.371687	1.819977	-0.000215
1336	1.3283e+02	-13.1932	-70.452056	0.000557	5.574392	1.888655	-0.000223
1337	1.3293e+02	-13.2317	-70.641801	0.000476	4.763571	1.613942	-0.000191
1338	1.3303e+02	-13.2718	-70.831547	0.000476	4.763571	1.613942	-0.000191
1339	1.3313e+02	-13.3248	-71.077812	0.000618	6.182508	2.094690	-0.000248
1340	1.3323e+02	-13.3440	-71.287743	0.000527	5.270334	1.785638	-0.000211
1341	1.3333e+02	-13.4034	-71.481525	0.000486	4.864924	1.648281	-0.000195
1342	1.3343e+02	-13.4242	-71.699531	0.000547	5.473039	1.854316	-0.000219
1343	1.3353e+02	-13.4804	-71.893313	0.000486	4.864924	1.648281	-0.000195
1344	1.3363e+02	-13.5092	-72.151690	0.000649	6.486565	2.197708	-0.000260
1345	1.3373e+02	-13.5477	-72.337398	0.000466	4.662219	1.579602	-0.000187
1346	1.3383e+02	-13.5814	-72.559441	0.000557	5.574392	1.888655	-0.000223
1347	1.3393e+02	-13.6376	-72.757260	0.000497	4.966277	1.682620	-0.000199
1348	1.3403e+02	-13.6729	-72.902597	0.000365	3.648693	1.236211	-0.000146
1349	1.3413e+02	-13.7114	-73.173085	0.000679	6.790623	2.300725	-0.000272
1350	1.3423e+02	-13.7483	-73.391091	0.000547	5.473039	1.854316	-0.000219
1351	1.3432e+02	-13.7948	-73.609096	0.000547	5.473039	1.854316	-0.000219
1352	1.3442e+02	-13.8317	-73.782693	0.000436	4.358161	1.476585	-0.000174
1353	1.3452e+02	-13.8750	-74.041069	0.000649	6.486565	2.197708	-0.000260
1354	1.3462e+02	-13.9087	-74.251000	0.000527	5.270334	1.785638	-0.000211
1355	1.3472e+02	-13.9504	-74.481117	0.000578	5.777097	1.957334	-0.000231
1356	1.3482e+02	-13.9921	-74.650677	0.000426	4.256808	1.442246	-0.000170
1357	1.3492e+02	-14.0242	-74.892905	0.000608	6.081155	2.060351	-0.000243
1358	1.3502e+02	-14.0595	-75.078613	0.000466	4.662219	1.579602	-0.000187
1359	1.3512e+02	-14.1060	-75.316804	0.000598	5.979802	2.026012	-0.000239
1360	1.3522e+02	-14.1493	-75.526735	0.000527	5.270334	1.785638	-0.000211
1361	1.3532e+02	-14.1926	-75.748778	0.000557	5.574392	1.888655	-0.000223
1362	1.3542e+02	-14.2247	-75.926412	0.000446	4.459514	1.510924	-0.000179
1363	1.3552e+02	-14.2632	-76.116157	0.000476	4.763571	1.613942	-0.000191
1364	1.3562e+02	-14.3114	-76.382608	0.000669	6.689270	2.266386	-0.000268
1365	1.3572e+02	-14.3595	-76.600613	0.000547	5.473039	1.854316	-0.000219
1366	1.3582e+02	-14.3868	-76.806507	0.000517	5.168982	1.751298	-0.000207
1367	1.3592e+02	-14.4269	-77.000290	0.000486	4.864924	1.648281	-0.000195
1368	1.3602e+02	-14.4750	-77.230407	0.000578	5.777097	1.957334	-0.000231
1369	1.3612e+02	-14.5119	-77.456486	0.000568	5.675745	1.922994	-0.000227
1370	1.3622e+02	-14.5472	-77.646232	0.000476	4.763571	1.613942	-0.000191
1371	1.3631e+02	-14.5889	-77.884423	0.000598	5.979802	2.026012	-0.000239
1372	1.3641e+02	-14.6354	-78.118577	0.000588	5.878450	1.991673	-0.000235
1373	1.3651e+02	-14.6659	-78.292173	0.000436	4.358161	1.476585	-0.000174
1374	1.3661e+02	-14.7124	-78.530364	0.000598	5.979802	2.026012	-0.000239
1375	1.3671e+02	-14.7509	-78.780667	0.000628	6.283860	2.129029	-0.000252
1376	1.3681e+02	-14.7798	-79.018858	0.000598	5.979802	2.026012	-0.000239
1377	1.3691e+02	-14.8311	-79.188418	0.000426	4.256808	1.442246	-0.000170
1378	1.3701e+02	-14.8680	-79.394311	0.000517	5.168982	1.751298	-0.000207
1379	1.3711e+02	-14.9081	-79.652688	0.000649	6.486565	2.197708	-0.000260
1380	1.3721e+02	-14.9434	-79.834359	0.000456	4.560866	1.545263	-0.000183
1381	1.3731e+02	-14.9900	-80.064476	0.000578	5.777097	1.957334	-0.000231
1382	1.3741e+02	-15.0188	-80.318816	0.000639	6.385213	2.163369	-0.000256
1383	1.3751e+02	-15.0702	-80.536821	0.000547	5.473039	1.854316	-0.000219
1384	1.3761e+02	-15.1135	-80.734640	0.000497	4.966277	1.682620	-0.000199
1385	1.3771e+02	-15.1504	-80.964757	0.000578	5.777097	1.957334	-0.000231
1386	1.3781e+02	-15.1873	-81.194874	0.000578	5.777097	1.957334	-0.000231
1387	1.3791e+02	-15.2322	-81.429028	0.000588	5.878450	1.991673	-0.000235
1388	1.3801e+02	-15.2595	-81.655107	0.000568	5.675745	1.922994	-0.000227
1389	1.3811e+02	-15.3076	-81.856964	0.000507	5.067629	1.716959	-0.000203
1390	1.3821e+02	-15.3477	-82.083044	0.000568	5.675745	1.922994	-0.000227
1391	1.3831e+02	-15.3894	-82.313161	0.000578	5.777097	1.957334	-0.000231
1392	1.3840e+02	-15.4199	-82.527129	0.000537	5.371687	1.819977	-0.000215
1393	1.3850e+02	-15.4648	-82.797617	0.000679	6.790623	2.300725	-0.000272
1394	1.3860e+02	-15.5033	-83.011585	0.000537	5.371687	1.819977	-0.000215
1395	1.3870e+02	-15.5450	-83.229590	0.000547	5.473039	1.854316	-0.000219
1396	1.3880e+02	-15.5835	-83.455670	0.000568	5.675745	1.922994	-0.000227
1397	1.3890e+02	-15.6268	-83.714047	0.000649	6.486565	2.197708	-0.000260
1398	1.3900e+02	-15.6701	-83.871495	0.000395	3.952751	1.339228	-0.000158
1399	1.3910e+02	-15.7006	-84.109686	0.000598	5.979802	2.026012	-0.000239
1400	1.3920e+02	-15.7488	-84.335766	0.000568	5.675745	1.922994	-0.000227
1401	1.3930e+02	-15.7840	-84.577994	0.000608	6.081155	2.060351	-0.000243
1402	1.3940e+02	-15.8161	-84.779850	0.000507	5.067629	1.716959	-0.000203
1403	1.3950e+02	-15.8675	-85.050339	0.000679	6.790623	2.300725	-0.000272
1404	1.3960e+02	-15.8979	-85.328901	0.000699	6.993328	2.369404	-0.000280
1405	1.3970e+02	-15.9461	-85.498461	0.000426	4.256808	1.442246	-0.000170
1406	1.3980e+02	-15.9798	-85.684169	0.000466	4.662219	1.579602	-0.000187
1407	1.3990e+02	-16.0231	-85.950620	0.000669	6.689270	2.266386	-0.000268
1408	1.4000e+02	-16.0696	-86.192848	0.000608	6.081155	2.060351	-0.000243
1409	1.4010e+02	-16.1017	-86.406816	0.000537	5.371687	1.819977	-0.000215
1410	1.4020e+02	-16.1418	-86.640970	0.000588	5.878450	1.991673	-0.000235
1411	1.4029e+02	-16.1691	-86.883198	0.000608	6.081155	2.060351	-0.000243
1412	1.4039e+02	-16.2220	-87.125426	0.000608	6.081155	2.060351	-0.000243
1413	1.4049e+02	-16.2605	-87.339395	0.000537	5.371687	1.819977	-0.000215
1414	1.4059e+02	-16.2958	-87.597771	0.000649	6.486565	2.197708	-0.000260
1415	1.4069e+02	-16.3455	-87.815777	0.000547	5.473039	1.854316	-0.000219
1416	1.4079e+02	-16.3712	-88.086265	0.000679	6.790623	2.300725	-0.000272
1417	1.4089e+02	-16.4177	-88.292159	0.000517	5.168982	1.751298	-0.000207
1418	1.4099e+02	-16.4658	-88.538424	0.000618	6.182508	2.094690	-0.000248
1419	1.4109e+02	-16.5043	-88.772578	0.000588	5.878450	1.991673	-0.000235
1420	1.4119e+02	-16.5525	-89.026917	0.000639	6.385213	2.163369	-0.000256
1421	1.4129e+02	-16.5926	-89.277220	0.000628	6.283860	2.129029	-0.000252
1422	1.4139e+02	-16.6215	-89.531559	0.000639	6.385213	2.163369	-0.000256
1423	1.4149e+02	-16.6600	-89.733416	0.000507	5.067629	1.716959	-0.000203
1424	1.4159e+02	-16.7049	-90.011978	0.000699	6.993328	2.369404	-0.000280
1425	1.4169e+02	-16.7418	-90.266318	0.000639	6.385213	2.163369	-0.000256
1426	1.4179e+02	-16.7835	-90.492398	0.000568	5.675745	1.922994	-0.000227
1427	1.4189e+02	-16.8108	-90.718477	0.000568	5.675745	1.922994	-0.000227
1428	1.4199e+02	-16.8573	-90.993002	0.000689	6.891976	2.335065	-0.000276
1429	1.4209e+02	-16.8990	-91.235231	0.000608	6.081155	2.060351	-0.000243
1430	1.4219e+02	-16.9343	-91.489570	0.000639	6.385213	2.163369	-0.000256
1431	1.4228e+02	-16.9824	-91.751984	0.000659	6.587918	2.232047	-0.000264
1432	1.4238e+02	-17.0193	-91.949804	0.000497	4.966277	1.682620	-0.000199
1433	1.4248e+02	-17.0498	-92.240477	0.000730	7.297386	2.472421	-0.000292
1434	1.4258e+02	-17.1011	-92.519040	0.000699	6.993328	2.369404	-0.000280
1435	1.4268e+02	-17.1428	-92.741082	0.000557	5.574392	1.888655	-0.000223
1436	1.4278e+02	-17.1701	-93.039830	0.000750	7.500091	2.541100	-0.000300
1437	1.4288e+02	-17.2214	-93.261873	0.000557	5.574392	1.888655	-0.000223
1438	1.4298e+02	-17.2583	-93.504101	0.000608	6.081155	2.060351	-0.000243
1439	1.4308e+02	-17.2920	-93.782663	0.000699	6.993328	2.369404	-0.000280
1440	1.4318e+02	-17.3402	-94.085448	0.000760	7.601444	2.575439	-0.000304
1441	1.4328e+02	-17.3819	-94.307491	0.000557	5.574392	1.888655	-0.000223
1442	1.4338e+02	-17.4043	-94.622387	0.000791	7.905501	2.678456	-0.000316
1443	1.4348e+02	-17.4637	-94.860578	0.000598	5.979802	2.026012	-0.000239
1444	1.4358e+02	-17.4974	-95.106844	0.000618	6.182508	2.094690	-0.000248
1445	1.4368e+02	-17.5439	-95.361183	0.000639	6.385213	2.163369	-0.000256
1446	1.4378e+02	-17.5712	-95.611486	0.000628	6.283860	2.129029	-0.000252
1447	1.4388e+02	-17.6129	-95.886011	0.000689	6.891976	2.335065	-0.000276
1448	1.4398e+02	-17.6594	-96.180722	0.000740	7.398739	2.506760	-0.000296
1449	1.4408e+02	-17.6947	-96.439099	0.000649	6.486565	2.197708	-0.000260
1450	1.4418e+02	-17.7316	-96.713624	0.000689	6.891976	2.335065	-0.000276
1451	1.4428e+02	-17.7733	-96.955852	0.000608	6.081155	2.060351	-0.000243
1452	1.4437e+02	-17.8150	-97.258637	0.000760	7.601444	2.575439	-0.000304
1453	1.4447e+02	-17.8551	-97.525088	0.000669	6.689270	2.266386	-0.000268
1454	1.4457e+02	-17.9032	-97.848059	0.000811	8.108207	2.747135	-0.000325
1455	1.4467e+02	-17.9417	-98.090287	0.000608	6.081155	2.060351	-0.000243
1456	1.4477e+02	-17.9738	-98.397109	0.000770	7.702796	2.609778	-0.000308
1457	1.4487e+02	-18.0155	-98.594929	0.000497	4.966277	1.682620	-0.000199
1458	1.4497e+02	-18.0540	-98.909826	0.000791	7.905501	2.678456	-0.000316
1459	1.4507e+02	-18.0941	-99.220685	0.000780	7.804149	2.644117	-0.000312
1460	1.4517e+02	-18.1359	-99.462913	0.000608	6.081155	2.060351	-0.000243
1461	1.4527e+02	-18.1760	-99.765698	0.000760	7.601444	2.575439	-0.000304
1462	1.4537e+02	-18.2096	-100.056372	0.000730	7.297386	2.472421	-0.000292
1463	1.4547e+02	-18.2546	-100.330897	0.000689	6.891976	2.335065	-0.000276
1464	1.4557e+02	-18.2899	-100.621571	0.000730	7.297386	2.472421	-0.000292
1465	1.4567e+02	-18.3219	-100.896096	0.000689	6.891976	2.335065	-0.000276
1466	1.4577e+02	-18.3749	-101.206956	0.000780	7.804149	2.644117	-0.000312
1467	1.4587e+02	-18.4150	-101.497630	0.000730	7.297386	2.472421	-0.000292
1468	1.4597e+02	-18.4551	-101.792340	0.000740	7.398739	2.506760	-0.000296
1469	1.4607e+02	-18.4952	-102.091089	0.000750	7.500091	2.541100	-0.000300
1470	1.4617e+02	-18.5369	-102.353502	0.000659	6.587918	2.232047	-0.000264
1471	1.4626e+02	-18.5706	-102.688585	0.000841	8.412264	2.850152	-0.000337
1472	1.4636e+02	-18.6091	-102.987333	0.000750	7.500091	2.541100	-0.000300
1473	1.4646e+02	-18.6428	-103.253784	0.000669	6.689270	2.266386	-0.000268
1474	1.4656e+02	-18.6925	-103.580792	0.000821	8.209559	2.781474	-0.000329
1475	1.4666e+02	-18.7374	-103.879540	0.000750	7.500091	2.541100	-0.000300
1476	1.4676e+02	-18.7663	-104.194436	0.000791	7.905501	2.678456	-0.000316
1477	1.4686e+02	-18.8048	-104.489147	0.000740	7.398739	2.506760	-0.000296
1478	1.4696e+02	-18.8594	-104.800007	0.000780	7.804149	2.644117	-0.000312
1479	1.4706e+02	-18.9027	-105.118940	0.000801	8.006854	2.712796	-0.000321
1480	1.4716e+02	-18.9380	-105.397503	0.000699	6.993328	2.369404	-0.000280
1481	1.4726e+02	-18.9733	-105.704325	0.000770	7.702796	2.609778	-0.000308
1482	1.4736e+02	-19.0166	-106.059593	0.000892	8.919027	3.021848	-0.000357
1483	1.4746e+02	-19.0567	-106.390638	0.000831	8.310912	2.815813	-0.000333
1484	1.4756e+02	-19.0920	-106.741869	0.000882	8.817675	2.987509	-0.000353
1485	1.4766e+02	-19.1369	-107.024468	0.000709	7.094681	2.403743	-0.000284
1486	1.4776e+02	-19.1642	-107.399922	0.000943	9.425790	3.193544	-0.000377
1487	1.4786e+02	-19.2171	-107.702707	0.000760	7.601444	2.575439	-0.000304
1488	1.4796e+02	-19.2428	-108.045864	0.000861	8.614969	2.918831	-0.000345
1489	1.4806e+02	-19.2973	-108.360760	0.000791	7.905501	2.678456	-0.000316
1490	1.4816e+02	-19.3294	-108.691805	0.000831	8.310912	2.815813	-0.000333
1491	1.4825e+02	-19.3711	-108.998628	0.000770	7.702796	2.609778	-0.000308
1492	1.4835e+02	-19.4080	-109.353896	0.000892	8.919027	3.021848	-0.000357
1493	1.4845e+02	-19.4513	-109.697052	0.000861	8.614969	2.918831	-0.000345
1494	1.4855e+02	-19.4946	-110.003875	0.000770	7.702796	2.609778	-0.000308
1495	1.4865e+02	-19.5235	-110.310697	0.000770	7.702796	2.609778	-0.000308
1496	1.4875e+02	-19.5732	-110.702299	0.000983	9.831200	3.330901	-0.000394
1497	1.4885e+02	-19.6053	-111.049493	0.000872	8.716322	2.953170	-0.000349
1498	1.4895e+02	-19.6470	-111.388612	0.000851	8.513617	2.884491	-0.000341
1499	1.4905e+02	-19.6936	-111.751954	0.000912	9.121732	3.090527	-0.000365
1500	1.4915e+02	-19.7224	-112.070888	0.000801	8.006854	2.712796	-0.000321
1501	1.4925e+02	-19.7641	-112.446342	0.000943	9.425790	3.193544	-0.000377
1502	1.4935e+02	-19.8043	-112.801610	0.000892	8.919027	3.021848	-0.000357
1503	1.4945e+02	-19.8428	-113.144766	0.000861	8.614969	2.918831	-0.000345
1504	1.4955e+02	-19.8797	-113.504071	0.000902	9.020380	3.056187	-0.000361
1505	1.4965e+02	-19.9230	-113.827042	0.000811	8.108207	2.747135	-0.000325
1506	1.4975e+02	-19.9711	-114.234793	0.001024	10.236611	3.468258	-0.000410
1507	1.4985e+02	-20.0016	-114.618321	0.000963	9.628495	3.262223	-0.000385
1508	1.4995e+02	-19.9599	-114.690989	-0.000182	-1.824346	-0.618105	-0.000073
1509	1.5005e+02	-19.9326	-114.711175	-0.000051	-0.506763	-0.171696	-0.000020
1510	1.5015e+02	-19.8877	-114.783843	-0.000182	-1.824346	-0.618105	-0.000073
1511	1.5025e+02	-19.8524	-114.824215	-0.000101	-1.013526	-0.343392	-0.000041
1512	1.5034e+02	-19.8139	-114.852475	-0.000071	-0.709468	-0.240374	-0.000028
1513	1.5044e+02	-19.7674	-114.860549	-0.000020	-0.202705	-0.068678	-0.000008
1514	1.5054e+02	-19.7256	-114.896883	-0.000091	-0.912173	-0.309053	-0.000037
1515	1.5064e+02	-19.6887	-114.876697	0.000051	0.506763	0.171696	0.000020
1516	1.5074e+02	-19.6486	-114.884772	-0.000020	-0.202705	-0.068678	-0.000008
1517	1.5084e+02	-19.6101	-114.828252	0.000142	1.418936	0.480749	0.000057
1518	1.5094e+02	-19.5668	-114.824215	0.000010	0.101353	0.034339	0.000004
1519	1.5104e+02	-19.5235	-114.783843	0.000101	1.013526	0.343392	0.000041
1520	1.5114e+02	-19.4786	-114.820178	-0.000091	-0.912173	-0.309053	-0.000037
1521	1.5124e+02	-19.4545	-114.739435	0.000203	2.027052	0.686784	0.000081
1522	1.5134e+02	-19.4064	-114.695026	0.000111	1.114878	0.377731	0.000045
1523	1.5144e+02	-19.3679	-114.658692	0.000091	0.912173	0.309053	0.000037
1524	1.5154e+02	-19.3294	-114.602172	0.000142	1.418936	0.480749	0.000057
1525	1.5164e+02	-19.2941	-114.561801	0.000101	1.013526	0.343392	0.000041
1526	1.5174e+02	-19.2476	-114.513355	0.000122	1.216231	0.412070	0.000049
1527	1.5184e+02	-19.2155	-114.392241	0.000304	3.040577	1.030176	0.000122
1528	1.5194e+02	-19.1658	-114.384167	0.000020	0.202705	0.068678	0.000008
1529	1.5204e+02	-19.1337	-114.307461	0.000193	1.925699	0.652445	0.000077
1530	1.5214e+02	-19.0936	-114.259016	0.000122	1.216231	0.412070	0.000049
1531	1.5224e+02	-19.0535	-114.178273	0.000203	2.027052	0.686784	0.000081
1532	1.5233e+02	-19.0037	-114.113679	0.000162	1.621641	0.549427	0.000065
1533	1.5243e+02	-18.9652	-114.057159	0.000142	1.418936	0.480749	0.000057
1534	1.5253e+02	-18.9332	-113.948156	0.000274	2.736520	0.927158	0.000110
1535	1.5263e+02	-18.8898	-113.867413	0.000203	2.027052	0.686784	0.000081
1536	1.5273e+02	-18.8465	-113.794745	0.000182	1.824346	0.618105	0.000073
1537	1.5283e+02	-18.8225	-113.705928	0.000223	2.229757	0.755462	0.000089
1538	1.5293e+02	-18.7711	-113.605000	0.000253	2.533815	0.858480	0.000101
1539	1.5303e+02	-18.7246	-113.544443	0.000152	1.520289	0.515088	0.000061
1540	1.5313e+02	-18.6957	-113.455626	0.000223	2.229757	0.755462	0.000089
1541	1.5323e+02	-18.6508	-113.391031	0.000162	1.621641	0.549427	0.000065
1542	1.5333e+02	-18.6107	-113.257806	0.000334	3.344635	1.133193	0.000134
1543	1.5343e+02	-18.5658	-113.177063	0.000203	2.027052	0.686784	0.000081
1544	1.5353e+02	-18.5353	-113.084209	0.000233	2.331109	0.789801	0.000093
1545	1.5363e+02	-18.4888	-112.987318	0.000243	2.432462	0.824140	0.000097
1546	1.5373e+02	-18.4519	-112.894464	0.000233	2.331109	0.789801	0.000093
1547	1.5383e+02	-18.4118	-112.797573	0.000243	2.432462	0.824140	0.000097
1548	1.5393e+02	-18.3845	-112.700681	0.000243	2.432462	0.824140	0.000097
1549	1.5403e+02	-18.3364	-112.539196	0.000405	4.054103	1.373567	0.000162
1550	1.5413e+02	-18.2979	-112.478639	0.000152	1.520289	0.515088	0.000061
1551	1.5422e+02	-18.2562	-112.365599	0.000284	2.837872	0.961497	0.000114
1552	1.5432e+02	-18.2032	-112.292931	0.000182	1.824346	0.618105	0.000073
1553	1.5442e+02	-18.1711	-112.155668	0.000345	3.445988	1.167532	0.000138
1554	1.5452e+02	-18.1326	-112.082999	0.000182	1.824346	0.618105	0.000073
1555	1.5462e+02	-18.0974	-111.913440	0.000426	4.256808	1.442246	0.000170
1556	1.5472e+02	-18.0476	-111.840771	0.000182	1.824346	0.618105	0.000073
1557	1.5482e+02	-18.0171	-111.695434	0.000365	3.648693	1.236211	0.000146
1558	1.5492e+02	-17.9658	-111.610655	0.000213	2.128404	0.721123	0.000085
1559	1.5502e+02	-17.9321	-111.493578	0.000294	2.939225	0.995836	0.000118
1560	1.5512e+02	-17.8888	-111.372464	0.000304	3.040577	1.030176	0.000122
1561	1.5522e+02	-17.8631	-111.291721	0.000203	2.027052	0.686784	0.000081
1562	1.5532e+02	-17.8198	-111.114087	0.000446	4.459514	1.510924	0.000179
1563	1.5542e+02	-17.7797	-111.009121	0.000264	2.635167	0.892819	0.000105
1564	1.5552e+02	-17.7332	-110.940490	0.000172	1.722994	0.583766	0.000069
1565	1.5562e+02	-17.6995	-110.770930	0.000426	4.256808	1.442246	0.000170
1566	1.5572e+02	-17.6594	-110.629631	0.000355	3.547340	1.201871	0.000142
1567	1.5582e+02	-17.6193	-110.504479	0.000314	3.141930	1.064515	0.000126
1568	1.5592e+02	-17.5744	-110.403551	0.000253	2.533815	0.858480	0.000101
1569	1.5602e+02	-17.5327	-110.270326	0.000334	3.344635	1.133193	0.000134
1570	1.5612e+02	-17.4958	-110.157286	0.000284	2.837872	0.961497	0.000114
1571	1.5622e+02	-17.4637	-110.020023	0.000345	3.445988	1.167532	0.000138
1572	1.5631e+02	-17.4236	-109.915058	0.000264	2.635167	0.892819	0.000105
1573	1.5641e+02	-17.3770	-109.781832	0.000334	3.344635	1.133193	0.000134
1574	1.5651e+02	-17.3369	-109.624384	0.000395	3.952751	1.339228	0.000158
1575	1.5661e+02	-17.2904	-109.495195	0.000324	3.243283	1.098854	0.000130
1576	1.5671e+02	-17.2567	-109.357933	0.000345	3.445988	1.167532	0.000138
1577	1.5681e+02	-17.2230	-109.236819	0.000304	3.040577	1.030176	0.000122
1578	1.5691e+02	-17.1878	-109.156076	0.000203	2.027052	0.686784	0.000081
1579	1.5701e+02	-17.1492	-108.994591	0.000405	4.054103	1.373567	0.000162
1580	1.5711e+02	-17.1011	-108.796771	0.000497	4.966277	1.682620	0.000199
1581	1.5721e+02	-17.0642	-108.663546	0.000334	3.344635	1.133193	0.000134
1582	1.5731e+02	-17.0209	-108.594914	0.000172	1.722994	0.583766	0.000069
1583	1.5741e+02	-16.9808	-108.421317	0.000436	4.358161	1.476585	0.000174
1584	1.5751e+02	-16.9423	-108.320389	0.000253	2.533815	0.858480	0.000101
1585	1.5761e+02	-16.8942	-108.142755	0.000446	4.459514	1.510924	0.000179
1586	1.5771e+02	-16.8621	-108.001455	0.000355	3.547340	1.201871	0.000142
1587	1.5781e+02	-16.8252	-107.884378	0.000294	2.939225	0.995836	0.000118
1588	1.5791e+02	-16.7851	-107.735004	0.000375	3.750046	1.270550	0.000150
1589	1.5801e+02	-16.7402	-107.650224	0.000213	2.128404	0.721123	0.000085
1590	1.5811e+02	-16.7065	-107.504888	0.000365	3.648693	1.236211	0.000146
1591	1.5821e+02	-16.6664	-107.331291	0.000436	4.358161	1.476585	0.000174
1592	1.5830e+02	-16.6166	-107.214214	0.000294	2.939225	0.995836	0.000118
1593	1.5840e+02	-16.5797	-107.060803	0.000385	3.851398	1.304889	0.000154
1594	1.5850e+02	-16.5412	-106.923540	0.000345	3.445988	1.167532	0.000138
1595	1.5860e+02	-16.4979	-106.798389	0.000314	3.141930	1.064515	0.000126
1596	1.5870e+02	-16.4626	-106.673238	0.000314	3.141930	1.064515	0.000126
1597	1.5880e+02	-16.4306	-106.495604	0.000446	4.459514	1.510924	0.000179
1598	1.5890e+02	-16.3776	-106.378527	0.000294	2.939225	0.995836	0.000118
1599	1.5900e+02	-16.3407	-106.229153	0.000375	3.750046	1.270550	0.000150
1600	1.5910e+02	-16.3070	-106.120150	0.000274	2.736520	0.927158	0.000110
1601	1.5920e+02	-16.2621	-105.962702	0.000395	3.952751	1.339228	0.000158
1602	1.5930e+02	-16.2204	-105.764882	0.000497	4.966277	1.682620	0.000199
1603	1.5940e+02	-16.1771	-105.684139	0.000203	2.027052	0.686784	0.000081
1604	1.5950e+02	-16.1306	-105.506505	0.000446	4.459514	1.510924	0.000179
1605	1.5960e+02	-16.1113	-105.373280	0.000334	3.344635	1.133193	0.000134
1606	1.5970e+02	-16.0584	-105.244092	0.000324	3.243283	1.098854	0.000130
1607	1.5980e+02	-16.0311	-105.094718	0.000375	3.750046	1.270550	0.000150
1608	1.5990e+02	-15.9766	-104.933232	0.000405	4.054103	1.373567	0.000162
1609	1.6000e+02	-15.9461	-104.836341	0.000243	2.432462	0.824140	0.000097
1610	1.6010e+02	-15.8996	-104.658707	0.000446	4.459514	1.510924	0.000179
1611	1.6019e+02	-15.8610	-104.549704	0.000274	2.736520	0.927158	0.000110
1612	1.6029e+02	-15.8290	-104.355922	0.000486	4.864924	1.648281	0.000195
1613	1.6039e+02	-15.7857	-104.246919	0.000274	2.736520	0.927158	0.000110
1614	1.6049e+02	-15.7391	-104.081396	0.000416	4.155456	1.407907	0.000166
1615	1.6059e+02	-15.7119	-103.932022	0.000375	3.750046	1.270550	0.000150
1616	1.6069e+02	-15.6669	-103.823020	0.000274	2.736520	0.927158	0.000110
1617	1.6079e+02	-15.6188	-103.621163	0.000507	5.067629	1.716959	0.000203
1618	1.6089e+02	-15.5964	-103.500049	0.000304	3.040577	1.030176	0.000122
1619	1.6099e+02	-15.5546	-103.346638	0.000385	3.851398	1.304889	0.000154
1620	1.6109e+02	-15.5017	-103.225524	0.000304	3.040577	1.030176	0.000122
1621	1.6119e+02	-15.4825	-103.027704	0.000497	4.966277	1.682620	0.000199
1622	1.6129e+02	-15.4327	-102.910627	0.000294	2.939225	0.995836	0.000118
1623	1.6139e+02	-15.3814	-102.749142	0.000405	4.054103	1.373567	0.000162
1624	1.6149e+02	-15.3461	-102.571508	0.000446	4.459514	1.510924	0.000179
1625	1.6159e+02	-15.3092	-102.410022	0.000405	4.054103	1.373567	0.000162
1626	1.6169e+02	-15.2675	-102.309094	0.000253	2.533815	0.858480	0.000101
1627	1.6179e+02	-15.2242	-102.131460	0.000446	4.459514	1.510924	0.000179
1628	1.6189e+02	-15.1905	-101.986123	0.000365	3.648693	1.236211	0.000146
1629	1.6199e+02	-15.1456	-101.869046	0.000294	2.939225	0.995836	0.000118
1630	1.6209e+02	-15.1087	-101.707561	0.000405	4.054103	1.373567	0.000162
1631	1.6219e+02	-15.0718	-101.525890	0.000456	4.560866	1.545263	0.000183
1632	1.6228e+02	-15.0124	-101.336144	0.000476	4.763571	1.613942	0.000191
1633	1.6238e+02	-14.9948	-101.194844	0.000355	3.547340	1.201871	0.000142
1634	1.6248e+02	-14.9547	-101.065656	0.000324	3.243283	1.098854	0.000130
1635	1.6258e+02	-14.9049	-100.904171	0.000405	4.054103	1.373567	0.000162
1636	1.6268e+02	-14.8632	-100.754797	0.000375	3.750046	1.270550	0.000150
1637	1.6278e+02	-14.8215	-100.621571	0.000334	3.344635	1.133193	0.000134
1638	1.6288e+02	-14.7830	-100.452011	0.000426	4.256808	1.442246	0.000170
1639	1.6298e+02	-14.7477	-100.314749	0.000345	3.445988	1.167532	0.000138
1640	1.6308e+02	-14.7124	-100.185560	0.000324	3.243283	1.098854	0.000130
1641	1.6318e+02	-14.6723	-99.983704	0.000507	5.067629	1.716959	0.000203
1642	1.6328e+02	-14.6290	-99.866627	0.000294	2.939225	0.995836	0.000118
1643	1.6338e+02	-14.5889	-99.680919	0.000466	4.662219	1.579602	0.000187
1644	1.6348e+02	-14.5504	-99.531544	0.000375	3.750046	1.270550	0.000150
1645	1.6358e+02	-14.5039	-99.370059	0.000405	4.054103	1.373567	0.000162
1646	1.6368e+02	-14.4670	-99.240871	0.000324	3.243283	1.098854	0.000130
1647	1.6378e+02	-14.4269	-99.051125	0.000476	4.763571	1.613942	0.000191
1648	1.6388e+02	-14.3868	-98.913863	0.000345	3.445988	1.167532	0.000138
1649	1.6398e+02	-14.3563	-98.740266	0.000436	4.358161	1.476585	0.000174
1650	1.6408e+02	-14.3033	-98.586855	0.000385	3.851398	1.304889	0.000154
1651	1.6418e+02	-14.2632	-98.449592	0.000345	3.445988	1.167532	0.000138
1652	1.6427e+02	-14.2295	-98.284070	0.000416	4.155456	1.407907	0.000166
1653	1.6437e+02	-14.1894	-98.098361	0.000466	4.662219	1.579602	0.000187
1654	1.6447e+02	-14.1541	-97.957062	0.000355	3.547340	1.201871	0.000142
1655	1.6457e+02	-14.1108	-97.803650	0.000385	3.851398	1.304889	0.000154
1656	1.6467e+02	-14.0739	-97.650239	0.000385	3.851398	1.304889	0.000154
1657	1.6477e+02	-14.0274	-97.500865	0.000375	3.750046	1.270550	0.000150
1658	1.6487e+02	-13.9921	-97.355528	0.000365	3.648693	1.236211	0.000146
1659	1.6497e+02	-13.9520	-97.194043	0.000405	4.054103	1.373567	0.000162
1660	1.6507e+02	-13.9183	-97.068892	0.000314	3.141930	1.064515	0.000126
1661	1.6517e+02	-13.8702	-96.838775	0.000578	5.777097	1.957334	0.000231
1662	1.6527e+02	-13.8397	-96.697475	0.000355	3.547340	1.201871	0.000142
1663	1.6537e+02	-13.7852	-96.556175	0.000355	3.547340	1.201871	0.000142
1664	1.6547e+02	-13.7483	-96.398727	0.000395	3.952751	1.339228	0.000158
1665	1.6557e+02	-13.7098	-96.245316	0.000385	3.851398	1.304889	0.000154
1666	1.6567e+02	-13.6713	-96.063645	0.000456	4.560866	1.545263	0.000183
1667	1.6577e+02	-13.6264	-95.918308	0.000365	3.648693	1.236211	0.000146
1668	1.6587e+02	-13.5911	-95.772971	0.000365	3.648693	1.236211	0.000146
1669	1.6597e+02	-13.5574	-95.591300	0.000456	4.560866	1.545263	0.000183
1670	1.6607e+02	-13.5125	-95.425777	0.000416	4.155456	1.407907	0.000166
1671	1.6616e+02	-13.4675	-95.272366	0.000385	3.851398	1.304889	0.000154
1672	1.6626e+02	-13.4354	-95.114918	0.000395	3.952751	1.339228	0.000158
1673	1.6636e+02	-13.3969	-94.904987	0.000527	5.270334	1.785638	0.000211
1674	1.6646e+02	-13.3536	-94.832318	0.000182	1.824346	0.618105	0.000073
1675	1.6656e+02	-13.3119	-94.654685	0.000446	4.459514	1.510924	0.000179
1676	1.6666e+02	-13.2814	-94.448791	0.000517	5.168982	1.751298	0.000207
1677	1.6676e+02	-13.2365	-94.327677	0.000304	3.040577	1.030176	0.000122
1678	1.6686e+02	-13.1852	-94.166191	0.000405	4.054103	1.373567	0.000162
1679	1.6696e+02	-13.1435	-93.968371	0.000497	4.966277	1.682620	0.000199
1680	1.6706e+02	-13.1002	-93.806886	0.000405	4.054103	1.373567	0.000162
1681	1.6716e+02	-13.0697	-93.625215	0.000456	4.560866	1.545263	0.000183
1682	1.6726e+02	-13.0328	-93.483915	0.000355	3.547340	1.201871	0.000142
1683	1.6736e+02	-13.0007	-93.261873	0.000557	5.574392	1.888655	0.000223
1684	1.6746e+02	-12.9542	-93.112499	0.000375	3.750046	1.270550	0.000150
1685	1.6756e+02	-12.9157	-93.011570	0.000253	2.533815	0.858480	0.000101
1686	1.6766e+02	-12.8740	-92.825862	0.000466	4.662219	1.579602	0.000187
1687	1.6776e+02	-12.8451	-92.664377	0.000405	4.054103	1.373567	0.000162
1688	1.6786e+02	-12.7873	-92.523077	0.000355	3.547340	1.201871	0.000142
1689	1.6796e+02	-12.7520	-92.305072	0.000547	5.473039	1.854316	0.000219
1690	1.6806e+02	-12.7087	-92.127438	0.000446	4.459514	1.510924	0.000179
1691	1.6816e+02	-12.6718	-91.969989	0.000395	3.952751	1.339228	0.000158
1692	1.6825e+02	-12.6398	-91.800430	0.000426	4.256808	1.442246	0.000170
1693	1.6835e+02	-12.5884	-91.634907	0.000416	4.155456	1.407907	0.000166
1694	1.6845e+02	-12.5579	-91.501682	0.000334	3.344635	1.133193	0.000134
1695	1.6855e+02	-12.5178	-91.307899	0.000486	4.864924	1.648281	0.000195
1696	1.6865e+02	-12.4729	-91.146414	0.000405	4.054103	1.373567	0.000162
1697	1.6875e+02	-12.4424	-90.993002	0.000385	3.851398	1.304889	0.000154
1698	1.6885e+02	-12.3943	-90.787108	0.000517	5.168982	1.751298	0.000207
1699	1.6895e+02	-12.3558	-90.641772	0.000365	3.648693	1.236211	0.000146
1700	1.6905e+02	-12.3173	-90.452026	0.000476	4.763571	1.613942	0.000191
1701	1.6915e+02	-12.2868	-90.294578	0.000395	3.952751	1.339228	0.000158
1702	1.6925e+02	-12.2403	-90.129055	0.000416	4.155456	1.407907	0.000166
1703	1.6935e+02	-12.1922	-89.911050	0.000547	5.473039	1.854316	0.000219
1704	1.6945e+02	-12.1649	-89.749565	0.000405	4.054103	1.373567	0.000162
1705	1.6955e+02	-12.1184	-89.580005	0.000426	4.256808	1.442246	0.000170
1706	1.6965e+02	-12.0831	-89.390260	0.000476	4.763571	1.613942	0.000191
1707	1.6975e+02	-12.0366	-89.236848	0.000385	3.851398	1.304889	0.000154
1708	1.6985e+02	-12.0029	-89.055177	0.000456	4.560866	1.545263	0.000183
1709	1.6995e+02	-11.9596	-88.901766	0.000385	3.851398	1.304889	0.000154
1710	1.7005e+02	-11.9178	-88.756429	0.000365	3.648693	1.236211	0.000146
1711	1.7015e+02	-11.8809	-88.522275	0.000588	5.878450	1.991673	0.000235
1712	1.7024e+02	-11.8328	-88.372901	0.000375	3.750046	1.270550	0.000150
1713	1.7034e+02	-11.7959	-88.223527	0.000375	3.750046	1.270550	0.000150
1714	1.7044e+02	-11.7574	-88.005522	0.000547	5.473039	1.854316	0.000219
1715	1.7054e+02	-11.7221	-87.860185	0.000365	3.648693	1.236211	0.000146
1716	1.7064e+02	-11.6852	-87.658328	0.000507	5.067629	1.716959	0.000203
1717	1.7074e+02	-11.6387	-87.517029	0.000355	3.547340	1.201871	0.000142
1718	1.7084e+02	-11.6082	-87.323246	0.000486	4.864924	1.648281	0.000195
1719	1.7094e+02	-11.5441	-87.181946	0.000355	3.547340	1.201871	0.000142
1720	1.7104e+02	-11.5200	-86.980089	0.000507	5.067629	1.716959	0.000203
1721	1.7114e+02	-11.4815	-86.798418	0.000456	4.560866	1.545263	0.000183
1722	1.7124e+02	-11.4462	-86.632896	0.000416	4.155456	1.407907	0.000166
1723	1.7134e+02	-11.4029	-86.451225	0.000456	4.560866	1.545263	0.000183
1724	1.7144e+02	-11.3548	-86.289739	0.000405	4.054103	1.373567	0.000162
1725	1.7154e+02	-11.3179	-86.120180	0.000426	4.256808	1.442246	0.000170
1726	1.7164e+02	-11.2794	-85.930434	0.000476	4.763571	1.613942	0.000191
1727	1.7174e+02	-11.2377	-85.748763	0.000456	4.560866	1.545263	0.000183
1728	1.7184e+02	-11.1895	-85.559018	0.000476	4.763571	1.613942	0.000191
1729	1.7194e+02	-11.1623	-85.385421	0.000436	4.358161	1.476585	0.000174
1730	1.7204e+02	-11.1286	-85.232010	0.000385	3.851398	1.304889	0.000154
1731	1.7213e+02	-11.0804	-85.018042	0.000537	5.371687	1.819977	0.000215
1732	1.7223e+02	-11.0451	-84.880779	0.000345	3.445988	1.167532	0.000138
1733	1.7233e+02	-10.9970	-84.682959	0.000497	4.966277	1.682620	0.000199
1734	1.7243e+02	-10.9746	-84.501288	0.000456	4.560866	1.545263	0.000183
1735	1.7253e+02	-10.9216	-84.283283	0.000547	5.473039	1.854316	0.000219
1736	1.7263e+02	-10.8847	-84.125835	0.000395	3.952751	1.339228	0.000158
1737	1.7273e+02	-10.8462	-83.891681	0.000588	5.878450	1.991673	0.000235
1738	1.7283e+02	-10.7997	-83.701935	0.000476	4.763571	1.613942	0.000191
1739	1.7293e+02	-10.7644	-83.544487	0.000395	3.952751	1.339228	0.000158
1740	1.7303e+02	-10.7243	-83.383002	0.000405	4.054103	1.373567	0.000162
1741	1.7313e+02	-10.6810	-83.213442	0.000426	4.256808	1.442246	0.000170
1742	1.7323e+02	-10.6425	-83.003511	0.000527	5.270334	1.785638	0.000211
1743	1.7333e+02	-10.6040	-82.809728	0.000486	4.864924	1.648281	0.000195
1744	1.7343e+02	-10.5639	-82.615946	0.000486	4.864924	1.648281	0.000195
1745	1.7353e+02	-10.5222	-82.450423	0.000416	4.155456	1.407907	0.000166
1746	1.7363e+02	-10.4821	-82.264715	0.000466	4.662219	1.579602	0.000187
1747	1.7373e+02	-10.4452	-82.042672	0.000557	5.574392	1.888655	0.000223
1748	1.7383e+02	-10.4034	-81.856964	0.000466	4.662219	1.579602	0.000187
1749	1.7393e+02	-10.3698	-81.655107	0.000507	5.067629	1.716959	0.000203
1750	1.7403e+02	-10.3329	-81.533993	0.000304	3.040577	1.030176	0.000122
1751	1.7413e+02	-10.2847	-81.263505	0.000679	6.790623	2.300725	0.000272
1752	1.7422e+02	-10.2527	-81.118168	0.000365	3.648693	1.236211	0.000146
1753	1.7432e+02	-10.2077	-80.920349	0.000497	4.966277	1.682620	0.000199
1754	1.7442e+02	-10.1676	-80.722529	0.000497	4.966277	1.682620	0.000199
1755	1.7452e+02	-10.1211	-80.532784	0.000476	4.763571	1.613942	0.000191
1756	1.7462e+02	-10.0858	-80.322853	0.000527	5.270334	1.785638	0.000211
1757	1.7472e+02	-10.0489	-80.165404	0.000395	3.952751	1.339228	0.000158
1758	1.7482e+02	-10.0040	-79.963548	0.000507	5.067629	1.716959	0.000203
1759	1.7492e+02	-9.9687	-79.798025	0.000416	4.155456	1.407907	0.000166
1760	1.7502e+02	-9.9238	-79.580020	0.000547	5.473039	1.854316	0.000219
1761	1.7512e+02	-9.8837	-79.418534	0.000405	4.054103	1.373567	0.000162
1762	1.7522e+02	-9.8468	-79.208603	0.000527	5.270334	1.785638	0.000211
1763	1.7532e+02	-9.8067	-78.994635	0.000537	5.371687	1.819977	0.000215
1764	1.7542e+02	-9.7746	-78.829112	0.000416	4.155456	1.407907	0.000166
1765	1.7552e+02	-9.7313	-78.603033	0.000568	5.675745	1.922994	0.000227
1766	1.7562e+02	-9.6912	-78.437510	0.000416	4.155456	1.407907	0.000166
1767	1.7572e+02	-9.6398	-78.227579	0.000527	5.270334	1.785638	0.000211
1768	1.7582e+02	-9.6094	-78.066094	0.000405	4.054103	1.373567	0.000162
1769	1.7592e+02	-9.5692	-77.876348	0.000476	4.763571	1.613942	0.000191
1770	1.7602e+02	-9.5259	-77.686603	0.000476	4.763571	1.613942	0.000191
1771	1.7612e+02	-9.4858	-77.476672	0.000527	5.270334	1.785638	0.000211
1772	1.7621e+02	-9.4586	-77.307112	0.000426	4.256808	1.442246	0.000170
1773	1.7631e+02	-9.4168	-77.113330	0.000486	4.864924	1.648281	0.000195
1774	1.7641e+02	-9.3623	-76.915510	0.000497	4.966277	1.682620	0.000199
1775	1.7651e+02	-9.3334	-76.749988	0.000416	4.155456	1.407907	0.000166
1776	1.7661e+02	-9.2901	-76.536019	0.000537	5.371687	1.819977	0.000215
1777	1.7671e+02	-9.2484	-76.330125	0.000517	5.168982	1.751298	0.000207
1778	1.7681e+02	-9.2051	-76.148454	0.000456	4.560866	1.545263	0.000183
1779	1.7691e+02	-9.1682	-75.922375	0.000568	5.675745	1.922994	0.000227
1780	1.7701e+02	-9.1297	-75.728592	0.000486	4.864924	1.648281	0.000195
1781	1.7711e+02	-9.0928	-75.575181	0.000385	3.851398	1.304889	0.000154
1782	1.7721e+02	-9.0399	-75.381399	0.000486	4.864924	1.648281	0.000195
1783	1.7731e+02	-9.0110	-75.167430	0.000537	5.371687	1.819977	0.000215
1784	1.7741e+02	-8.9661	-74.969611	0.000497	4.966277	1.682620	0.000199
1785	1.7751e+02	-8.9260	-74.787940	0.000456	4.560866	1.545263	0.000183
1786	1.7761e+02	-8.8874	-74.557823	0.000578	5.777097	1.957334	0.000231
1787	1.7771e+02	-8.8538	-74.355966	0.000507	5.067629	1.716959	0.000203
1788	1.7781e+02	-8.8169	-74.186406	0.000426	4.256808	1.442246	0.000170
1789	1.7791e+02	-8.7671	-73.928030	0.000649	6.486565	2.197708	0.000260
1790	1.7801e+02	-8.7286	-73.782693	0.000365	3.648693	1.236211	0.000146
1791	1.7810e+02	-8.6901	-73.601022	0.000456	4.560866	1.545263	0.000183
1792	1.7820e+02	-8.6516	-73.362831	0.000598	5.979802	2.026012	0.000239
1793	1.7830e+02	-8.6051	-73.128677	0.000588	5.878450	1.991673	0.000235
1794	1.7840e+02	-8.5698	-72.963154	0.000416	4.155456	1.407907	0.000166
1795	1.7850e+02	-8.5425	-72.753223	0.000527	5.270334	1.785638	0.000211
1796	1.7860e+02	-8.4928	-72.559441	0.000486	4.864924	1.648281	0.000195
1797	1.7870e+02	-8.4543	-72.353547	0.000517	5.168982	1.751298	0.000207
1798	1.7880e+02	-8.4110	-72.123430	0.000578	5.777097	1.957334	0.000231
1799	1.7890e+02	-8.3741	-71.941759	0.000456	4.560866	1.545263	0.000183
1800	1.7900e+02	-8.3340	-71.760088	0.000456	4.560866	1.545263	0.000183
1801	1.7910e+02	-8.2987	-71.546120	0.000537	5.371687	1.819977	0.000215
1802	1.7920e+02	-8.2393	-71.295817	0.000628	6.283860	2.129029	0.000252
1803	1.7930e+02	-8.2137	-71.150480	0.000365	3.648693	1.236211	0.000146
1804	1.7940e+02	-8.1671	-70.944586	0.000517	5.168982	1.751298	0.000207
1805	1.7950e+02	-8.1367	-70.694284	0.000628	6.283860	2.129029	0.000252
1806	1.7960e+02	-8.0869	-70.504539	0.000476	4.763571	1.613942	0.000191
1807	1.7970e+02	-8.0516	-70.302682	0.000507	5.067629	1.716959	0.000203
1808	1.7980e+02	-8.0228	-70.076602	0.000568	5.675745	1.922994	0.000227
1809	1.7990e+02	-7.9746	-69.919154	0.000395	3.952751	1.339228	0.000158
1810	1.8000e+02	-7.9297	-69.656740	0.000659	6.587918	2.232047	0.000264
1811	1.8009e+02	-7.8912	-69.430660	0.000568	5.675745	1.922994	0.000227
1812	1.8019e+02	-7.8463	-69.277249	0.000385	3.851398	1.304889	0.000154
1813	1.8029e+02	-7.8222	-69.075392	0.000507	5.067629	1.716959	0.000203
1814	1.8039e+02	-7.7709	-68.841239	0.000588	5.878450	1.991673	0.000235
1815	1.8049e+02	-7.7340	-68.659567	0.000456	4.560866	1.545263	0.000183
1816	1.8059e+02	-7.6955	-68.494045	0.000416	4.155456	1.407907	0.000166
1817	1.8069e+02	-7.6474	-68.276040	0.000547	5.473039	1.854316	0.000219
1818	1.8079e+02	-7.6137	-68.049960	0.000568	5.675745	1.922994	0.000227
1819	1.8089e+02	-7.5672	-67.799658	0.000628	6.283860	2.129029	0.000252
1820	1.8099e+02	-7.5383	-67.622024	0.000446	4.459514	1.510924	0.000179
1821	1.8109e+02	-7.4966	-67.399981	0.000557	5.574392	1.888655	0.000223
1822	1.8119e+02	-7.4581	-67.250607	0.000375	3.750046	1.270550	0.000150
1823	1.8129e+02	-7.4132	-67.008379	0.000608	6.081155	2.060351	0.000243
1824	1.8139e+02	-7.3698	-66.806522	0.000507	5.067629	1.716959	0.000203
1825	1.8149e+02	-7.3329	-66.636962	0.000426	4.256808	1.442246	0.000170
1826	1.8159e+02	-7.2977	-66.398771	0.000598	5.979802	2.026012	0.000239
1827	1.8169e+02	-7.2559	-66.172692	0.000568	5.675745	1.922994	0.000227
1828	1.8179e+02	-7.2078	-65.934501	0.000598	5.979802	2.026012	0.000239
1829	1.8189e+02	-7.1677	-65.773015	0.000405	4.054103	1.373567	0.000162
1830	1.8199e+02	-7.1388	-65.530787	0.000608	6.081155	2.060351	0.000243
1831	1.8209e+02	-7.1019	-65.300671	0.000578	5.777097	1.957334	0.000231
1832	1.8218e+02	-7.0570	-65.106888	0.000486	4.864924	1.648281	0.000195
1833	1.8228e+02	-7.0201	-64.929254	0.000446	4.459514	1.510924	0.000179
1834	1.8238e+02	-6.9768	-64.707212	0.000557	5.574392	1.888655	0.000223
1835	1.8248e+02	-6.9303	-64.529578	0.000446	4.459514	1.510924	0.000179
1836	1.8258e+02	-6.8966	-64.303498	0.000568	5.675745	1.922994	0.000227
1837	1.8268e+02	-6.8549	-64.061270	0.000608	6.081155	2.060351	0.000243
1838	1.8278e+02	-6.8212	-63.879599	0.000456	4.560866	1.545263	0.000183
1839	1.8288e+02	-6.7731	-63.669668	0.000527	5.270334	1.785638	0.000211
1840	1.8298e+02	-6.7426	-63.447625	0.000557	5.574392	1.888655	0.000223
1841	1.8308e+02	-6.6993	-63.217509	0.000578	5.777097	1.957334	0.000231
1842	1.8318e+02	-6.6544	-63.031800	0.000466	4.662219	1.579602	0.000187
1843	1.8328e+02	-6.6159	-62.765349	0.000669	6.689270	2.266386	0.000268
1844	1.8338e+02	-6.5725	-62.559455	0.000517	5.168982	1.751298	0.000207
1845	1.8348e+02	-6.5372	-62.410081	0.000375	3.750046	1.270550	0.000150
1846	1.8358e+02	-6.4987	-62.103259	0.000770	7.702796	2.609778	0.000308
1847	1.8368e+02	-6.4651	-61.917551	0.000466	4.662219	1.579602	0.000187
1848	1.8378e+02	-6.4153	-61.760103	0.000395	3.952751	1.339228	0.000158
1849	1.8388e+02	-6.3800	-61.509800	0.000628	6.283860	2.129029	0.000252
1850	1.8398e+02	-6.3463	-61.283721	0.000568	5.675745	1.922994	0.000227
1851	1.8407e+02	-6.3046	-61.045529	0.000598	5.979802	2.026012	0.000239
1852	1.8417e+02	-6.2677	-60.867896	0.000446	4.459514	1.510924	0.000179
1853	1.8427e+02	-6.2212	-60.625667	0.000608	6.081155	2.060351	0.000243
1854	1.8437e+02	-6.1795	-60.403625	0.000557	5.574392	1.888655	0.000223
1855	1.8447e+02	-6.1410	-60.189657	0.000537	5.371687	1.819977	0.000215
1856	1.8457e+02	-6.1057	-59.967614	0.000557	5.574392	1.888655	0.000223
1857	1.8467e+02	-6.0656	-59.729423	0.000598	5.979802	2.026012	0.000239
1858	1.8477e+02	-6.0287	-59.519492	0.000527	5.270334	1.785638	0.000211
1859	1.8487e+02	-5.9790	-59.325710	0.000486	4.864924	1.648281	0.000195
1860	1.8497e+02	-5.9437	-59.099630	0.000568	5.675745	1.922994	0.000227
1861	1.8507e+02	-5.9068	-58.873550	0.000568	5.675745	1.922994	0.000227
1862	1.8517e+02	-5.8651	-58.631322	0.000608	6.081155	2.060351	0.000243
1863	1.8527e+02	-5.8250	-58.421391	0.000527	5.270334	1.785638	0.000211
1864	1.8537e+02	-5.7784	-58.215497	0.000517	5.168982	1.751298	0.000207
1865	1.8547e+02	-5.7432	-57.957121	0.000649	6.486565	2.197708	0.000260
1866	1.8557e+02	-5.6998	-57.747190	0.000527	5.270334	1.785638	0.000211
1867	1.8567e+02	-5.6565	-57.517073	0.000578	5.777097	1.957334	0.000231
1868	1.8577e+02	-5.6228	-57.290993	0.000568	5.675745	1.922994	0.000227
1869	1.8587e+02	-5.5891	-57.052802	0.000598	5.979802	2.026012	0.000239
1870	1.8597e+02	-5.5426	-56.826723	0.000568	5.675745	1.922994	0.000227
1871	1.8606e+02	-5.5009	-56.624866	0.000507	5.067629	1.716959	0.000203
1872	1.8616e+02	-5.4672	-56.410898	0.000537	5.371687	1.819977	0.000215
1873	1.8626e+02	-5.4255	-56.164632	0.000618	6.182508	2.094690	0.000248
1874	1.8636e+02	-5.3918	-55.930479	0.000588	5.878450	1.991673	0.000235
1875	1.8646e+02	-5.3517	-55.676139	0.000639	6.385213	2.163369	0.000256
1876	1.8656e+02	-5.2988	-55.458134	0.000547	5.473039	1.854316	0.000219
1877	1.8666e+02	-5.2699	-55.308760	0.000375	3.750046	1.270550	0.000150
1878	1.8676e+02	-5.2250	-55.034234	0.000689	6.891976	2.335065	0.000276
1879	1.8686e+02	-5.1865	-54.792006	0.000608	6.081155	2.060351	0.000243
1880	1.8696e+02	-5.1464	-54.537667	0.000639	6.385213	2.163369	0.000256
1881	1.8706e+02	-5.1095	-54.291401	0.000618	6.182508	2.094690	0.000248
1882	1.8716e+02	-5.0630	-54.129916	0.000405	4.054103	1.373567	0.000162
1883	1.8726e+02	-5.0277	-53.895762	0.000588	5.878450	1.991673	0.000235
1884	1.8736e+02	-5.0004	-53.641423	0.000639	6.385213	2.163369	0.000256
1885	1.8746e+02	-4.9491	-53.395157	0.000618	6.182508	2.094690	0.000248
1886	1.8756e+02	-4.9041	-53.209449	0.000466	4.662219	1.579602	0.000187
1887	1.8766e+02	-4.8640	-52.971258	0.000598	5.979802	2.026012	0.000239
1888	1.8776e+02	-4.8287	-52.700770	0.000679	6.790623	2.300725	0.000272
1889	1.8786e+02	-4.7886	-52.454505	0.000618	6.182508	2.094690	0.000248
1890	1.8796e+02	-4.7469	-52.240536	0.000537	5.371687	1.819977	0.000215
1891	1.8806e+02	-4.7132	-52.030605	0.000527	5.270334	1.785638	0.000211
1892	1.8815e+02	-4.6763	-51.816637	0.000537	5.371687	1.819977	0.000215
1893	1.8825e+02	-4.6298	-51.578446	0.000598	5.979802	2.026012	0.000239
1894	1.8835e+02	-4.5881	-51.295847	0.000709	7.094681	2.403743	0.000284
1895	1.8845e+02	-4.5464	-51.081878	0.000537	5.371687	1.819977	0.000215
1896	1.8855e+02	-4.5111	-50.827539	0.000639	6.385213	2.163369	0.000256
1897	1.8865e+02	-4.4726	-50.589348	0.000598	5.979802	2.026012	0.000239
1898	1.8875e+02	-4.4309	-50.387491	0.000507	5.067629	1.716959	0.000203
1899	1.8885e+02	-4.3892	-50.129114	0.000649	6.486565	2.197708	0.000260
1900	1.8895e+02	-4.3523	-49.886886	0.000608	6.081155	2.060351	0.000243
1901	1.8905e+02	-4.3106	-49.680992	0.000517	5.168982	1.751298	0.000207
1902	1.8915e+02	-4.2753	-49.418579	0.000659	6.587918	2.232047	0.000264
1903	1.8925e+02	-4.2159	-49.164239	0.000639	6.385213	2.163369	0.000256
1904	1.8935e+02	-4.1870	-48.934122	0.000578	5.777097	1.957334	0.000231
1905	1.8945e+02	-4.1502	-48.655560	0.000699	6.993328	2.369404	0.000280
1906	1.8955e+02	-4.1116	-48.449666	0.000517	5.168982	1.751298	0.000207
1907	1.8965e+02	-4.0651	-48.175141	0.000689	6.891976	2.335065	0.000276
1908	1.8975e+02	-4.0282	-47.973284	0.000507	5.067629	1.716959	0.000203
1909	1.8985e+02	-3.9849	-47.702796	0.000679	6.790623	2.300725	0.000272
1910	1.8995e+02	-3.9496	-47.444419	0.000649	6.486565	2.197708	0.000260
1911	1.9004e+02	-3.9159	-47.242562	0.000507	5.067629	1.716959	0.000203
1912	1.9014e+02	-3.8678	-46.972074	0.000679	6.790623	2.300725	0.000272
1913	1.9024e+02	-3.8309	-46.750032	0.000557	5.574392	1.888655	0.000223
1914	1.9034e+02	-3.7924	-46.451284	0.000750	7.500091	2.541100	0.000300
1915	1.9044e+02	-3.7491	-46.213093	0.000598	5.979802	2.026012	0.000239
1916	1.9054e+02	-3.7106	-46.007199	0.000517	5.168982	1.751298	0.000207
1917	1.9064e+02	-3.6721	-45.756896	0.000628	6.283860	2.129029	0.000252
1918	1.9074e+02	-3.6224	-45.454111	0.000760	7.601444	2.575439	0.000304
1919	1.9084e+02	-3.5935	-45.215920	0.000598	5.979802	2.026012	0.000239
1920	1.9094e+02	-3.5566	-44.961581	0.000639	6.385213	2.163369	0.000256
1921	1.9104e+02	-3.5101	-44.727427	0.000588	5.878450	1.991673	0.000235
1922	1.9114e+02	-3.4748	-44.481162	0.000618	6.182508	2.094690	0.000248
1923	1.9124e+02	-3.4315	-44.255082	0.000568	5.675745	1.922994	0.000227
1924	1.9134e+02	-3.3881	-43.956334	0.000750	7.500091	2.541100	0.000300
1925	1.9144e+02	-3.3448	-43.742366	0.000537	5.371687	1.819977	0.000215
1926	1.9154e+02	-3.3095	-43.496100	0.000618	6.182508	2.094690	0.000248
1927	1.9164e+02	-3.2710	-43.237724	0.000649	6.486565	2.197708	0.000260
1928	1.9174e+02	-3.2373	-43.015681	0.000557	5.574392	1.888655	0.000223
1929	1.9184e+02	-3.1844	-42.733082	0.000709	7.094681	2.403743	0.000284
1930	1.9194e+02	-3.1475	-42.458557	0.000689	6.891976	2.335065	0.000276
1931	1.9203e+02	-3.1218	-42.228440	0.000578	5.777097	1.957334	0.000231
1932	1.9213e+02	-3.0753	-41.957952	0.000679	6.790623	2.300725	0.000272
1933	1.9223e+02	-3.0336	-41.699575	0.000649	6.486565	2.197708	0.000260
1934	1.9233e+02	-2.9871	-41.445235	0.000639	6.385213	2.163369	0.000256
1935	1.9243e+02	-2.9582	-41.227230	0.000547	5.473039	1.854316	0.000219
1936	1.9253e+02	-2.9245	-40.952705	0.000689	6.891976	2.335065	0.000276
1937	1.9263e+02	-2.8652	-40.690291	0.000659	6.587918	2.232047	0.000264
1938	1.9273e+02	-2.8379	-40.407692	0.000709	7.094681	2.403743	0.000284
1939	1.9283e+02	-2.7978	-40.149315	0.000649	6.486565	2.197708	0.000260
1940	1.9293e+02	-2.7545	-39.919198	0.000578	5.777097	1.957334	0.000231
1941	1.9303e+02	-2.7208	-39.636599	0.000709	7.094681	2.403743	0.000284
1942	1.9313e+02	-2.6791	-39.386296	0.000628	6.283860	2.129029	0.000252
1943	1.9323e+02	-2.6390	-39.115808	0.000679	6.790623	2.300725	0.000272
1944	1.9333e+02	-2.6005	-38.885691	0.000578	5.777097	1.957334	0.000231
1945	1.9343e+02	-2.5491	-38.595018	0.000730	7.297386	2.472421	0.000292
1946	1.9353e+02	-2.5106	-38.344715	0.000628	6.283860	2.129029	0.000252
1947	1.9363e+02	-2.4753	-38.102487	0.000608	6.081155	2.060351	0.000243
1948	1.9373e+02	-2.4449	-37.823925	0.000699	6.993328	2.369404	0.000280
1949	1.9383e+02	-2.4031	-37.573622	0.000628	6.283860	2.129029	0.000252
1950	1.9393e+02	-2.3550	-37.307171	0.000669	6.689270	2.266386	0.000268
1951	1.9403e+02	-2.3133	-37.052832	0.000639	6.385213	2.163369	0.000256
1952	1.9412e+02	-2.2812	-36.818678	0.000588	5.878450	1.991673	0.000235
1953	1.9422e+02	-2.2347	-36.532041	0.000720	7.196033	2.438082	0.000288
1954	1.9432e+02	-2.1994	-36.249442	0.000709	7.094681	2.403743	0.000284
1955	1.9442e+02	-2.1561	-35.966842	0.000709	7.094681	2.403743	0.000284
1956	1.9452e+02	-2.1192	-35.688280	0.000699	6.993328	2.369404	0.000280
1957	1.9462e+02	-2.0871	-35.462200	0.000568	5.675745	1.922994	0.000227
1958	1.9472e+02	-2.0342	-35.203824	0.000649	6.486565	2.197708	0.000260
1959	1.9482e+02	-1.9909	-34.909113	0.000740	7.398739	2.506760	0.000296
1960	1.9492e+02	-1.9507	-34.662847	0.000618	6.182508	2.094690	0.000248
1961	1.9502e+02	-1.9203	-34.364099	0.000750	7.500091	2.541100	0.000300
1962	1.9512e+02	-1.8802	-34.129946	0.000588	5.878450	1.991673	0.000235
1963	1.9522e+02	-1.8368	-33.851383	0.000699	6.993328	2.369404	0.000280
1964	1.9532e+02	-1.7967	-33.580895	0.000679	6.790623	2.300725	0.000272
1965	1.9542e+02	-1.7518	-33.278110	0.000760	7.601444	2.575439	0.000304
1966	1.9552e+02	-1.7165	-33.003585	0.000689	6.891976	2.335065	0.000276
1967	1.9562e+02	-1.6780	-32.716948	0.000720	7.196033	2.438082	0.000288
1968	1.9572e+02	-1.6443	-32.478757	0.000598	5.979802	2.026012	0.000239
1969	1.9582e+02	-1.5978	-32.200195	0.000699	6.993328	2.369404	0.000280
1970	1.9592e+02	-1.5689	-31.893372	0.000770	7.702796	2.609778	0.000308
1971	1.9601e+02	-1.5224	-31.655181	0.000598	5.979802	2.026012	0.000239
1972	1.9611e+02	-1.4711	-31.340285	0.000791	7.905501	2.678456	0.000316
1973	1.9621e+02	-1.4470	-31.077871	0.000659	6.587918	2.232047	0.000264
1974	1.9631e+02	-1.4037	-30.779123	0.000750	7.500091	2.541100	0.000300
1975	1.9641e+02	-1.3604	-30.561118	0.000547	5.473039	1.854316	0.000219
1976	1.9651e+02	-1.3219	-30.270444	0.000730	7.297386	2.472421	0.000292
1977	1.9661e+02	-1.2850	-29.971696	0.000750	7.500091	2.541100	0.000300
1978	1.9671e+02	-1.2401	-29.737542	0.000588	5.878450	1.991673	0.000235
1979	1.9681e+02	-1.2048	-29.446868	0.000730	7.297386	2.472421	0.000292
1980	1.9691e+02	-1.1679	-29.164269	0.000709	7.094681	2.403743	0.000284
1981	1.9701e+02	-1.1246	-28.881669	0.000709	7.094681	2.403743	0.000284
1982	1.9711e+02	-1.0813	-28.562735	0.000801	8.006854	2.712796	0.000321
1983	1.9721e+02	-1.0428	-28.360879	0.000507	5.067629	1.716959	0.000203
1984	1.9731e+02	-1.0042	-28.025796	0.000841	8.412264	2.850152	0.000337
1985	1.9741e+02	-0.9609	-27.763382	0.000659	6.587918	2.232047	0.000264
1986	1.9751e+02	-0.9208	-27.484820	0.000699	6.993328	2.369404	0.000280
1987	1.9761e+02	-0.8791	-27.157812	0.000821	8.209559	2.781474	0.000329
1988	1.9771e+02	-0.8470	-26.919621	0.000598	5.979802	2.026012	0.000239
1989	1.9781e+02	-0.7957	-26.653170	0.000669	6.689270	2.266386	0.000268
1990	1.9791e+02	-0.7524	-26.362496	0.000730	7.297386	2.472421	0.000292
1991	1.9800e+02	-0.7171	-26.051637	0.000780	7.804149	2.644117	0.000312
1992	1.9810e+02	-0.6834	-25.793260	0.000649	6.486565	2.197708	0.000260
1993	1.9820e+02	-0.6497	-25.526809	0.000669	6.689270	2.266386	0.000268
1994	1.9830e+02	-0.6016	-25.264395	0.000659	6.587918	2.232047	0.000264
1995	1.9840e+02	-0.5663	-24.941425	0.000811	8.108207	2.747135	0.000325
1996	1.9850e+02	-0.5230	-24.658825	0.000709	7.094681	2.403743	0.000284
1997	1.9860e+02	-0.4861	-24.444857	0.000537	5.371687	1.819977	0.000215
1998	1.9870e+02	-0.4380	-24.101700	0.000861	8.614969	2.918831	0.000345
1999	1.9880e+02	-0.4075	-23.811027	0.000730	7.297386	2.472421	0.000292
2000	1.9890e+02	-0.3642	-23.556687	0.000639	6.385213	2.163369	0.000256
2001	1.9900e+02	-0.3192	-23.274088	0.000709	7.094681	2.403743	0.000284
2002	1.9910e+02	-0.2823	-22.991488	0.000709	7.094681	2.403743	0.000284
2003	1.9920e+02	-0.2422	-22.716963	0.000689	6.891976	2.335065	0.000276
2004	1.9930e+02	-0.2005	-22.430326	0.000720	7.196033	2.438082	0.000288
2005	1.9940e+02	-0.1652	-22.151764	0.000699	6.993328	2.369404	0.000280
2006	1.9950e+02	-0.1251	-21.828793	0.000811	8.108207	2.747135	0.000325
2007	1.9960e+02	-0.0834	-21.558305	0.000679	6.790623	2.300725	0.000272
2008	1.9970e+02	-0.0481	-21.295891	0.000659	6.587918	2.232047	0.000264
2009	1.9980e+02	-0.0064	-20.976957	0.000659	6.587918	2.232047	0.000321

Center data before PMax,+/-Pr and +/-Vc Calc.

PMax (uC/cm2):	1.15e+02
Pr (uC/cm2):	1.09e+01
-Pr (uC/cm2):	-2.10e+01
PLoss (uC/cm2):	-2.08e+01
-Vc:	-1.53e+00
C (Max-Eff) (nF):	5.75e-01
K (Eff):	1.95e+03
Vert. (+/-Pr) Shift (uC/cm2):	-5.05e+00
Offset (uC/cm2):	1.57e-01

A (Loop Area - uC/cm2·Volts):	7.62e-02



Hysteresis Version: 5.48.1 - Radiant Technologies, Inc., 1999 - 9/12/24

