»»»»»»»»»»»»»»»»»»»»»»»»»»»»»»»»»»»» Hysteresis ««««««««««««««««««««««««««««««««««««
»»»  Executed Version:	5.48.1
»»»  Vision Version:	5.48.4 (R)
»»»  Vision Compiled:	9/18/24
»»»  Driver Version:	5.47.0
»»»  Windows Version:	Windows 8 or 8.1
»»»  Processor Information:	x86 (AMD or Intel) - 32 Processors
»»»  Tester Name:	PMF21124-494 (100V)
»»»  Tester S/N:	PMF21124-494
»»»  Internal Amp Type:	100V RevK 270k
»»»  Internal Amp S/N:	iAB2-596/K     
»»»  Execution Count:	1
»»»»»»»»»»»»»»»»»»»»»»»»»»»»»»»»»»»»»»»»»»««««««««««««««««««««««««««««««««««««««««««

Stored:	6/5/2025 - 13:44:27
Configured:	06/05/25 01:31:43 PM
Executed:	06/05/25 01:43:46 PM

»»»»»»»»»»»»»»»»»»»»»»»»»»»»»»»»»»» Sample Info ««««««««««««««««««««««««««««««««««««
Sample Name:	
Lot Name:	
Wafer Name:	
Die Row/Column:	0/0
Capacitor Number:	0
Sample Area (cm2):	1.00e-04
Sample Thickness (microns):	3.00e-01

Amplifier:	Internal

»»»»»»»»»»»»»»»»»»»»»»»»»»»»»»»»»»» Tester Info «««««««««««««««««««««««««««««««««««
Tester Name:	PMF21124-494 (100V)
Tester Serial Number:	PMF21124-494
Return Signal Amp. Level:	0.19 [Index: 3]

»»»»»»»»»»»»»»»»»»»»»»»»»»»»»»»» Hysteresis Info ««««««««««««««««««««««««««««««««««
Task Name:	Hyst-303
Volts:	20.00
Field:	666.67 (kV/cm)
DCBias:	0.00
DCField:	0.00 (kV/cm)
Hysteresis Period (ms):	2.00e+02
Preset:	Enabled
Preset Delay (ms):	1.00e+03
Profile:	Standard Bipolar

»»»»»»»»»»»»»»»»»»»»»»»»»»»»»»»»»»»»»» Data «««««««««««««««««««««««««««««««««««««««
Points:	2009

Valid Data

Point	Time (ms)	Drive Voltage	Measured Polarization (uC/cm2)	Capacitance (uF)	Normalized Capacitance (uF/cm2)	Dielectric Constant	Instantaneous Current (mA)
   1	0.0000e+00	-0.0193	22.759353	0.000476	4.763189	1.613812	0.000191
   2	9.9500e-02	0.0144	22.949098	0.000476	4.763189	1.613812	0.000191
   3	1.9900e-01	0.0561	23.199401	0.000628	6.283356	2.128859	0.000252
   4	2.9850e-01	0.0963	23.389146	0.000476	4.763189	1.613812	0.000191
   5	3.9800e-01	0.1444	23.615225	0.000568	5.675289	1.922840	0.000227
   6	4.9750e-01	0.1749	23.885714	0.000679	6.790078	2.300541	0.000272
   7	5.9700e-01	0.2118	24.103719	0.000547	5.472600	1.854167	0.000219
   8	6.9650e-01	0.2695	24.402467	0.000750	7.499489	2.540896	0.000300
   9	7.9600e-01	0.2968	24.628547	0.000568	5.675289	1.922840	0.000227
  10	8.9550e-01	0.3433	24.822329	0.000486	4.864534	1.648149	0.000195
  11	9.9500e-01	0.3882	25.088780	0.000669	6.688734	2.266204	0.000268
  12	1.0945e+00	0.4203	25.347157	0.000649	6.486045	2.197532	0.000260
  13	1.1940e+00	0.4572	25.553051	0.000517	5.168567	1.751158	0.000207
  14	1.2935e+00	0.5069	25.795279	0.000608	6.080667	2.060186	0.000243
  15	1.3930e+00	0.5310	26.053655	0.000649	6.486045	2.197532	0.000260
  16	1.4925e+00	0.5759	26.320106	0.000669	6.688734	2.266204	0.000268
  17	1.5920e+00	0.6289	26.570409	0.000628	6.283356	2.128859	0.000252
  18	1.6915e+00	0.6593	26.784377	0.000537	5.371256	1.819831	0.000215
  19	1.7910e+00	0.6866	27.054865	0.000679	6.790078	2.300541	0.000272
  20	1.8905e+00	0.7283	27.309205	0.000638	6.384700	2.163195	0.000256
  21	1.9900e+00	0.7732	27.563544	0.000638	6.384700	2.163195	0.000256
  22	2.0895e+00	0.8182	27.769438	0.000517	5.168567	1.751158	0.000207
  23	2.1890e+00	0.8535	28.060112	0.000730	7.296801	2.472223	0.000292
  24	2.2885e+00	0.8903	28.270043	0.000527	5.269911	1.785494	0.000211
  25	2.3880e+00	0.9321	28.528420	0.000649	6.486045	2.197532	0.000260
  26	2.4875e+00	0.9786	28.798908	0.000679	6.790078	2.300541	0.000272
  27	2.5870e+00	1.0171	29.045173	0.000618	6.182012	2.094522	0.000248
  28	2.6865e+00	1.0604	29.315661	0.000679	6.790078	2.300541	0.000272
  29	2.7860e+00	1.0925	29.545778	0.000578	5.776634	1.957176	0.000231
  30	2.8855e+00	1.1342	29.796080	0.000628	6.283356	2.128859	0.000252
  31	2.9850e+00	1.1711	30.022160	0.000568	5.675289	1.922840	0.000227
  32	3.0845e+00	1.2096	30.268425	0.000618	6.182012	2.094522	0.000248
  33	3.1840e+00	1.2577	30.534876	0.000669	6.688734	2.266204	0.000268
  34	3.2835e+00	1.2946	30.805364	0.000679	6.790078	2.300541	0.000272
  35	3.3830e+00	1.3411	31.047592	0.000608	6.080667	2.060186	0.000243
  36	3.4825e+00	1.3652	31.326155	0.000699	6.992767	2.369214	0.000280
  37	3.5820e+00	1.4117	31.560309	0.000588	5.877978	1.991513	0.000235
  38	3.6815e+00	1.4518	31.814648	0.000638	6.384700	2.163195	0.000256
  39	3.7810e+00	1.4855	32.089173	0.000689	6.891423	2.334877	0.000276
  40	3.8805e+00	1.5320	32.311216	0.000557	5.573945	1.888504	0.000223
  41	3.9800e+00	1.5625	32.537295	0.000568	5.675289	1.922840	0.000227
  42	4.0795e+00	1.6203	32.823932	0.000720	7.195456	2.437887	0.000288
  43	4.1790e+00	1.6556	33.066160	0.000608	6.080667	2.060186	0.000243
  44	4.2785e+00	1.6893	33.364908	0.000750	7.499489	2.540896	0.000300
  45	4.3780e+00	1.7358	33.599062	0.000588	5.877978	1.991513	0.000235
  46	4.4775e+00	1.7663	33.841290	0.000608	6.080667	2.060186	0.000243
  47	4.5770e+00	1.8096	34.123890	0.000709	7.094112	2.403550	0.000284
  48	4.6765e+00	1.8497	34.366118	0.000608	6.080667	2.060186	0.000243
  49	4.7760e+00	1.9058	34.697163	0.000831	8.310245	2.815587	0.000333
  50	4.8755e+00	1.9379	34.886908	0.000476	4.763189	1.613812	0.000191
  51	4.9750e+00	1.9700	35.137211	0.000628	6.283356	2.128859	0.000252
  52	5.0745e+00	2.0117	35.439996	0.000760	7.600834	2.575232	0.000304
  53	5.1740e+00	2.0534	35.710484	0.000679	6.790078	2.300541	0.000272
  54	5.2735e+00	2.0887	35.940601	0.000578	5.776634	1.957176	0.000231
  55	5.3730e+00	2.1256	36.211089	0.000679	6.790078	2.300541	0.000272
  56	5.4725e+00	2.1625	36.481577	0.000679	6.790078	2.300541	0.000272
  57	5.5720e+00	2.2106	36.707657	0.000568	5.675289	1.922840	0.000227
  58	5.6715e+00	2.2572	37.046776	0.000851	8.512934	2.884260	0.000341
  59	5.7710e+00	2.2860	37.240559	0.000486	4.864534	1.648149	0.000195
  60	5.8705e+00	2.3310	37.543344	0.000760	7.600834	2.575232	0.000304
  61	5.9700e+00	2.3727	37.813832	0.000679	6.790078	2.300541	0.000272
  62	6.0695e+00	2.4112	38.060097	0.000618	6.182012	2.094522	0.000248
  63	6.1690e+00	2.4609	38.362882	0.000760	7.600834	2.575232	0.000304
  64	6.2685e+00	2.4850	38.597036	0.000588	5.877978	1.991513	0.000235
  65	6.3680e+00	2.5299	38.851376	0.000638	6.384700	2.163195	0.000256
  66	6.4675e+00	2.5780	39.154161	0.000760	7.600834	2.575232	0.000304
  67	6.5670e+00	2.6133	39.380241	0.000568	5.675289	1.922840	0.000227
  68	6.6665e+00	2.6486	39.654766	0.000689	6.891423	2.334877	0.000276
  69	6.7660e+00	2.6919	39.909105	0.000638	6.384700	2.163195	0.000256
  70	6.8655e+00	2.7256	40.199779	0.000730	7.296801	2.472223	0.000292
  71	6.9650e+00	2.7785	40.462193	0.000659	6.587389	2.231868	0.000264
  72	7.0645e+00	2.8106	40.708458	0.000618	6.182012	2.094522	0.000248
  73	7.1640e+00	2.8459	41.007206	0.000750	7.499489	2.540896	0.000300
  74	7.2635e+00	2.8908	41.249434	0.000608	6.080667	2.060186	0.000243
  75	7.3630e+00	2.9277	41.540108	0.000730	7.296801	2.472223	0.000292
  76	7.4625e+00	2.9646	41.774262	0.000588	5.877978	1.991513	0.000235
  77	7.5620e+00	3.0015	42.056862	0.000709	7.094112	2.403550	0.000284
  78	7.6615e+00	3.0513	42.339461	0.000709	7.094112	2.403550	0.000284
  79	7.7610e+00	3.0881	42.630135	0.000730	7.296801	2.472223	0.000292
  80	7.8605e+00	3.1234	42.880437	0.000628	6.283356	2.128859	0.000252
  81	7.9600e+00	3.1668	43.118628	0.000598	5.979323	2.025849	0.000239
  82	8.0595e+00	3.2020	43.377005	0.000649	6.486045	2.197532	0.000260
  83	8.1590e+00	3.2438	43.708050	0.000831	8.310245	2.815587	0.000333
  84	8.2585e+00	3.2935	43.946241	0.000598	5.979323	2.025849	0.000239
  85	8.3580e+00	3.3320	44.204618	0.000649	6.486045	2.197532	0.000260
  86	8.4575e+00	3.3641	44.442809	0.000598	5.979323	2.025849	0.000239
  87	8.5570e+00	3.4122	44.737520	0.000740	7.398145	2.506559	0.000296
  88	8.6565e+00	3.4427	44.991859	0.000638	6.384700	2.163195	0.000256
  89	8.7560e+00	3.4892	45.262347	0.000679	6.790078	2.300541	0.000272
  90	8.8555e+00	3.5277	45.561095	0.000750	7.499489	2.540896	0.000300
  91	8.9550e+00	3.5742	45.831583	0.000679	6.790078	2.300541	0.000272
  92	9.0545e+00	3.6031	46.077849	0.000618	6.182012	2.094522	0.000248
  93	9.1540e+00	3.6384	46.344300	0.000669	6.688734	2.266204	0.000268
  94	9.2535e+00	3.6833	46.639011	0.000740	7.398145	2.506559	0.000296
  95	9.3530e+00	3.7314	46.929684	0.000730	7.296801	2.472223	0.000292
  96	9.4525e+00	3.7587	47.204210	0.000689	6.891423	2.334877	0.000276
  97	9.5520e+00	3.8004	47.458549	0.000638	6.384700	2.163195	0.000256
  98	9.6515e+00	3.8453	47.676554	0.000547	5.472600	1.854167	0.000219
  99	9.7510e+00	3.8855	47.991451	0.000790	7.904867	2.678242	0.000316
 100	9.8505e+00	3.9159	48.213494	0.000557	5.573945	1.888504	0.000223
 101	9.9500e+00	3.9592	48.524353	0.000780	7.803523	2.643905	0.000312
 102	1.0050e+01	4.0058	48.790804	0.000669	6.688734	2.266204	0.000268
 103	1.0149e+01	4.0395	49.020921	0.000578	5.776634	1.957176	0.000231
 104	1.0248e+01	4.0748	49.343892	0.000811	8.107556	2.746914	0.000325
 105	1.0348e+01	4.1181	49.549785	0.000517	5.168567	1.751158	0.000207
 106	1.0447e+01	4.1646	49.812199	0.000659	6.587389	2.231868	0.000264
 107	1.0547e+01	4.2047	50.098836	0.000720	7.195456	2.437887	0.000288
 108	1.0646e+01	4.2400	50.405658	0.000770	7.702178	2.609569	0.000308
 109	1.0746e+01	4.2833	50.696332	0.000730	7.296801	2.472223	0.000292
 110	1.0845e+01	4.3202	50.950672	0.000638	6.384700	2.163195	0.000256
 111	1.0945e+01	4.3619	51.200974	0.000628	6.283356	2.128859	0.000252
 112	1.1044e+01	4.4100	51.459351	0.000649	6.486045	2.197532	0.000260
 113	1.1144e+01	4.4389	51.741950	0.000709	7.094112	2.403550	0.000284
 114	1.1243e+01	4.4774	51.996290	0.000638	6.384700	2.163195	0.000256
 115	1.1343e+01	4.5271	52.270815	0.000689	6.891423	2.334877	0.000276
 116	1.1443e+01	4.5608	52.553414	0.000709	7.094112	2.403550	0.000284
 117	1.1542e+01	4.5993	52.815828	0.000659	6.587389	2.231868	0.000264
 118	1.1642e+01	4.6426	53.082279	0.000669	6.688734	2.266204	0.000268
 119	1.1741e+01	4.6812	53.376990	0.000740	7.398145	2.506559	0.000296
 120	1.1841e+01	4.7245	53.619218	0.000608	6.080667	2.060186	0.000243
 121	1.1940e+01	4.7598	53.938152	0.000801	8.006212	2.712578	0.000321
 122	1.2040e+01	4.8063	54.172306	0.000588	5.877978	1.991513	0.000235
 123	1.2139e+01	4.8496	54.450868	0.000699	6.992767	2.369214	0.000280
 124	1.2239e+01	4.8817	54.705208	0.000638	6.384700	2.163195	0.000256
 125	1.2338e+01	4.9122	54.999919	0.000740	7.398145	2.506559	0.000296
 126	1.2438e+01	4.9683	55.213887	0.000537	5.371256	1.819831	0.000215
 127	1.2537e+01	5.0020	55.496486	0.000709	7.094112	2.403550	0.000284
 128	1.2636e+01	5.0309	55.738715	0.000608	6.080667	2.060186	0.000243
 129	1.2736e+01	5.0726	56.057648	0.000801	8.006212	2.712578	0.000321
 130	1.2835e+01	5.1191	56.332174	0.000689	6.891423	2.334877	0.000276
 131	1.2935e+01	5.1688	56.574402	0.000608	6.080667	2.060186	0.000243
 132	1.3034e+01	5.2041	56.848927	0.000689	6.891423	2.334877	0.000276
 133	1.3134e+01	5.2410	57.103266	0.000638	6.384700	2.163195	0.000256
 134	1.3233e+01	5.2795	57.389903	0.000720	7.195456	2.437887	0.000288
 135	1.3333e+01	5.3196	57.656354	0.000669	6.688734	2.266204	0.000268
 136	1.3432e+01	5.3565	57.890508	0.000588	5.877978	1.991513	0.000235
 137	1.3532e+01	5.4015	58.177145	0.000720	7.195456	2.437887	0.000288
 138	1.3632e+01	5.4464	58.435521	0.000649	6.486045	2.197532	0.000260
 139	1.3731e+01	5.4785	58.782715	0.000872	8.715623	2.952933	0.000349
 140	1.3831e+01	5.5202	58.992646	0.000527	5.269911	1.785494	0.000211
 141	1.3930e+01	5.5635	59.251023	0.000649	6.486045	2.197532	0.000260
 142	1.4030e+01	5.5924	59.456917	0.000517	5.168567	1.751158	0.000207
 143	1.4129e+01	5.6373	59.759702	0.000760	7.600834	2.575232	0.000304
 144	1.4229e+01	5.6774	60.010004	0.000628	6.283356	2.128859	0.000252
 145	1.4328e+01	5.7095	60.316826	0.000770	7.702178	2.609569	0.000308
 146	1.4428e+01	5.7624	60.542906	0.000568	5.675289	1.922840	0.000227
 147	1.4527e+01	5.7993	60.813394	0.000679	6.790078	2.300541	0.000272
 148	1.4627e+01	5.8298	61.071771	0.000649	6.486045	2.197532	0.000260
 149	1.4726e+01	5.8875	61.342259	0.000679	6.790078	2.300541	0.000272
 150	1.4825e+01	5.9132	61.616784	0.000689	6.891423	2.334877	0.000276
 151	1.4925e+01	5.9565	61.842864	0.000568	5.675289	1.922840	0.000227
 152	1.5024e+01	5.9902	62.109315	0.000669	6.688734	2.266204	0.000268
 153	1.5124e+01	6.0319	62.371729	0.000659	6.587389	2.231868	0.000264
 154	1.5223e+01	6.0833	62.662402	0.000730	7.296801	2.472223	0.000292
 155	1.5323e+01	6.1234	62.880408	0.000547	5.472600	1.854167	0.000219
 156	1.5422e+01	6.1586	63.154933	0.000689	6.891423	2.334877	0.000276
 157	1.5522e+01	6.2084	63.477904	0.000811	8.107556	2.746914	0.000325
 158	1.5621e+01	6.2324	63.712058	0.000588	5.877978	1.991513	0.000235
 159	1.5721e+01	6.2645	63.938137	0.000568	5.675289	1.922840	0.000227
 160	1.5820e+01	6.3207	64.204588	0.000669	6.688734	2.266204	0.000268
 161	1.5920e+01	6.3528	64.454891	0.000628	6.283356	2.128859	0.000252
 162	1.6020e+01	6.3913	64.753639	0.000750	7.499489	2.540896	0.000300
 163	1.6119e+01	6.4282	64.991830	0.000598	5.979323	2.025849	0.000239
 164	1.6218e+01	6.4763	65.266355	0.000689	6.891423	2.334877	0.000276
 165	1.6318e+01	6.5244	65.496472	0.000578	5.776634	1.957176	0.000231
 166	1.6418e+01	6.5629	65.779071	0.000709	7.094112	2.403550	0.000284
 167	1.6517e+01	6.6062	66.049559	0.000679	6.790078	2.300541	0.000272
 168	1.6616e+01	6.6319	66.287750	0.000598	5.979323	2.025849	0.000239
 169	1.6716e+01	6.6720	66.558238	0.000679	6.790078	2.300541	0.000272
 170	1.6816e+01	6.7089	66.856986	0.000750	7.499489	2.540896	0.000300
 171	1.6915e+01	6.7554	67.079029	0.000557	5.573945	1.888504	0.000223
 172	1.7015e+01	6.7987	67.325294	0.000618	6.182012	2.094522	0.000248
 173	1.7114e+01	6.8212	67.603857	0.000699	6.992767	2.369214	0.000280
 174	1.7213e+01	6.8773	67.846085	0.000608	6.080667	2.060186	0.000243
 175	1.7313e+01	6.9046	68.100424	0.000638	6.384700	2.163195	0.000256
 176	1.7413e+01	6.9527	68.362838	0.000659	6.587389	2.231868	0.000264
 177	1.7512e+01	6.9880	68.629289	0.000669	6.688734	2.266204	0.000268
 178	1.7611e+01	7.0281	68.887666	0.000649	6.486045	2.197532	0.000260
 179	1.7711e+01	7.0763	69.194488	0.000770	7.702178	2.609569	0.000308
 180	1.7811e+01	7.1148	69.396345	0.000507	5.067223	1.716821	0.000203
 181	1.7910e+01	7.1549	69.682981	0.000720	7.195456	2.437887	0.000288
 182	1.8009e+01	7.1918	69.961544	0.000699	6.992767	2.369214	0.000280
 183	1.8109e+01	7.2351	70.179549	0.000547	5.472600	1.854167	0.000219
 184	1.8209e+01	7.2640	70.478297	0.000750	7.499489	2.540896	0.000300
 185	1.8308e+01	7.3073	70.716488	0.000598	5.979323	2.025849	0.000239
 186	1.8407e+01	7.3474	70.982939	0.000669	6.688734	2.266204	0.000268
 187	1.8507e+01	7.3923	71.233242	0.000628	6.283356	2.128859	0.000252
 188	1.8607e+01	7.4324	71.483544	0.000628	6.283356	2.128859	0.000252
 189	1.8706e+01	7.4661	71.774218	0.000730	7.296801	2.472223	0.000292
 190	1.8805e+01	7.5062	72.032594	0.000649	6.486045	2.197532	0.000260
 191	1.8905e+01	7.5447	72.238488	0.000517	5.168567	1.751158	0.000207
 192	1.9005e+01	7.5912	72.533199	0.000740	7.398145	2.506559	0.000296
 193	1.9104e+01	7.6297	72.735056	0.000507	5.067223	1.716821	0.000203
 194	1.9203e+01	7.6682	73.037841	0.000760	7.600834	2.575232	0.000304
 195	1.9303e+01	7.7035	73.284106	0.000618	6.182012	2.094522	0.000248
 196	1.9402e+01	7.7468	73.526335	0.000608	6.080667	2.060186	0.000243
 197	1.9502e+01	7.7966	73.796823	0.000679	6.790078	2.300541	0.000272
 198	1.9602e+01	7.8287	74.075385	0.000699	6.992767	2.369214	0.000280
 199	1.9701e+01	7.8720	74.333762	0.000649	6.486045	2.197532	0.000260
 200	1.9800e+01	7.9008	74.592138	0.000649	6.486045	2.197532	0.000260
 201	1.9900e+01	7.9458	74.830329	0.000598	5.979323	2.025849	0.000239
 202	2.0000e+01	7.9891	75.056409	0.000568	5.675289	1.922840	0.000227
 203	2.0099e+01	8.0244	75.330934	0.000689	6.891423	2.334877	0.000276
 204	2.0198e+01	8.0709	75.565088	0.000588	5.877978	1.991513	0.000235
 205	2.0298e+01	8.1110	75.839613	0.000689	6.891423	2.334877	0.000276
 206	2.0398e+01	8.1463	76.045507	0.000517	5.168567	1.751158	0.000207
 207	2.0497e+01	8.1832	76.328107	0.000709	7.094112	2.403550	0.000284
 208	2.0596e+01	8.2201	76.590521	0.000659	6.587389	2.231868	0.000264
 209	2.0696e+01	8.2554	76.861009	0.000679	6.790078	2.300541	0.000272
 210	2.0796e+01	8.3019	77.095163	0.000588	5.877978	1.991513	0.000235
 211	2.0895e+01	8.3388	77.361614	0.000669	6.688734	2.266204	0.000268
 212	2.0994e+01	8.3901	77.619990	0.000649	6.486045	2.197532	0.000260
 213	2.1094e+01	8.4238	77.833958	0.000537	5.371256	1.819831	0.000215
 214	2.1194e+01	8.4639	78.104447	0.000679	6.790078	2.300541	0.000272
 215	2.1293e+01	8.4976	78.395120	0.000730	7.296801	2.472223	0.000292
 216	2.1392e+01	8.5490	78.657534	0.000659	6.587389	2.231868	0.000264
 217	2.1492e+01	8.5842	78.843242	0.000466	4.661845	1.579476	0.000187
 218	2.1591e+01	8.6308	79.113730	0.000679	6.790078	2.300541	0.000272
 219	2.1691e+01	8.6757	79.359996	0.000618	6.182012	2.094522	0.000248
 220	2.1791e+01	8.6982	79.634521	0.000689	6.891423	2.334877	0.000276
 221	2.1890e+01	8.7527	79.933269	0.000750	7.499489	2.540896	0.000300
 222	2.1989e+01	8.7832	80.175497	0.000608	6.080667	2.060186	0.000243
 223	2.2089e+01	8.8297	80.393503	0.000547	5.472600	1.854167	0.000219
 224	2.2189e+01	8.8634	80.655916	0.000659	6.587389	2.231868	0.000264
 225	2.2288e+01	8.9051	80.906219	0.000628	6.283356	2.128859	0.000252
 226	2.2387e+01	8.9420	81.136335	0.000578	5.776634	1.957176	0.000231
 227	2.2487e+01	8.9853	81.394712	0.000649	6.486045	2.197532	0.000260
 228	2.2587e+01	9.0238	81.689423	0.000740	7.398145	2.506559	0.000296
 229	2.2686e+01	9.0655	81.923577	0.000588	5.877978	1.991513	0.000235
 230	2.2785e+01	9.1104	82.173879	0.000628	6.283356	2.128859	0.000252
 231	2.2885e+01	9.1425	82.428219	0.000638	6.384700	2.163195	0.000256
 232	2.2985e+01	9.1810	82.662373	0.000588	5.877978	1.991513	0.000235
 233	2.3084e+01	9.2259	82.912675	0.000628	6.283356	2.128859	0.000252
 234	2.3183e+01	9.2580	83.199312	0.000720	7.195456	2.437887	0.000288
 235	2.3283e+01	9.3046	83.433466	0.000588	5.877978	1.991513	0.000235
 236	2.3383e+01	9.3302	83.732214	0.000750	7.499489	2.540896	0.000300
 237	2.3482e+01	9.3816	83.909848	0.000446	4.459156	1.510803	0.000179
 238	2.3581e+01	9.4249	84.200522	0.000730	7.296801	2.472223	0.000292
 239	2.3681e+01	9.4586	84.418527	0.000547	5.472600	1.854167	0.000219
 240	2.3780e+01	9.5003	84.689015	0.000679	6.790078	2.300541	0.000272
 241	2.3880e+01	9.5420	84.923169	0.000588	5.877978	1.991513	0.000235
 242	2.3980e+01	9.5853	85.217880	0.000740	7.398145	2.506559	0.000296
 243	2.4079e+01	9.6190	85.427811	0.000527	5.269911	1.785494	0.000211
 244	2.4178e+01	9.6735	85.694262	0.000669	6.688734	2.266204	0.000268
 245	2.4278e+01	9.7088	85.976861	0.000709	7.094112	2.403550	0.000284
 246	2.4378e+01	9.7425	86.154495	0.000446	4.459156	1.510803	0.000179
 247	2.4477e+01	9.7842	86.420946	0.000669	6.688734	2.266204	0.000268
 248	2.4576e+01	9.8211	86.679323	0.000649	6.486045	2.197532	0.000260
 249	2.4676e+01	9.8596	86.913477	0.000588	5.877978	1.991513	0.000235
 250	2.4776e+01	9.8965	87.163779	0.000628	6.283356	2.128859	0.000252
 251	2.4875e+01	9.9302	87.393896	0.000578	5.776634	1.957176	0.000231
 252	2.4974e+01	9.9767	87.660347	0.000669	6.688734	2.266204	0.000268
 253	2.5074e+01	10.0216	87.951021	0.000730	7.296801	2.472223	0.000292
 254	2.5174e+01	10.0505	88.156915	0.000517	5.168567	1.751158	0.000207
 255	2.5273e+01	10.1002	88.382994	0.000568	5.675289	1.922840	0.000227
 256	2.5372e+01	10.1371	88.641371	0.000649	6.486045	2.197532	0.000260
 257	2.5472e+01	10.1740	88.907822	0.000669	6.688734	2.266204	0.000268
 258	2.5572e+01	10.2125	89.097567	0.000476	4.763189	1.613812	0.000191
 259	2.5671e+01	10.2559	89.396315	0.000750	7.499489	2.540896	0.000300
 260	2.5770e+01	10.3104	89.622395	0.000568	5.675289	1.922840	0.000227
 261	2.5870e+01	10.3377	89.888846	0.000669	6.688734	2.266204	0.000268
 262	2.5970e+01	10.3842	90.110888	0.000557	5.573945	1.888504	0.000223
 263	2.6069e+01	10.4211	90.357154	0.000618	6.182012	2.094522	0.000248
 264	2.6169e+01	10.4500	90.607456	0.000628	6.283356	2.128859	0.000252
 265	2.6268e+01	10.4917	90.833536	0.000568	5.675289	1.922840	0.000227
 266	2.6367e+01	10.5446	91.099986	0.000669	6.688734	2.266204	0.000268
 267	2.6467e+01	10.5719	91.342215	0.000608	6.080667	2.060186	0.000243
 268	2.6567e+01	10.6232	91.584443	0.000608	6.080667	2.060186	0.000243
 269	2.6666e+01	10.6569	91.806485	0.000557	5.573945	1.888504	0.000223
 270	2.6765e+01	10.7002	92.028528	0.000557	5.573945	1.888504	0.000223
 271	2.6865e+01	10.7419	92.294979	0.000669	6.688734	2.266204	0.000268
 272	2.6965e+01	10.7756	92.553355	0.000649	6.486045	2.197532	0.000260
 273	2.7064e+01	10.8173	92.779435	0.000568	5.675289	1.922840	0.000227
 274	2.7163e+01	10.8623	93.005515	0.000568	5.675289	1.922840	0.000227
 275	2.7263e+01	10.8831	93.231594	0.000568	5.675289	1.922840	0.000227
 276	2.7363e+01	10.9361	93.530342	0.000750	7.499489	2.540896	0.000300
 277	2.7462e+01	10.9778	93.748348	0.000547	5.472600	1.854167	0.000219
 278	2.7561e+01	11.0098	93.990576	0.000608	6.080667	2.060186	0.000243
 279	2.7661e+01	11.0564	94.204544	0.000537	5.371256	1.819831	0.000215
 280	2.7761e+01	11.0981	94.458883	0.000638	6.384700	2.163195	0.000256
 281	2.7860e+01	11.1334	94.713223	0.000638	6.384700	2.163195	0.000256
 282	2.7959e+01	11.1767	94.967563	0.000638	6.384700	2.163195	0.000256
 283	2.8059e+01	11.2168	95.149234	0.000456	4.560500	1.545139	0.000183
 284	2.8159e+01	11.2473	95.431833	0.000709	7.094112	2.403550	0.000284
 285	2.8258e+01	11.2938	95.645801	0.000537	5.371256	1.819831	0.000215
 286	2.8358e+01	11.3339	95.875918	0.000578	5.776634	1.957176	0.000231
 287	2.8457e+01	11.3772	96.130258	0.000638	6.384700	2.163195	0.000256
 288	2.8556e+01	11.4125	96.332114	0.000507	5.067223	1.716821	0.000203
 289	2.8656e+01	11.4494	96.590491	0.000649	6.486045	2.197532	0.000260
 290	2.8756e+01	11.5072	96.844831	0.000638	6.384700	2.163195	0.000256
 291	2.8855e+01	11.5392	97.115319	0.000679	6.790078	2.300541	0.000272
 292	2.8954e+01	11.5794	97.361584	0.000618	6.182012	2.094522	0.000248
 293	2.9054e+01	11.6066	97.571515	0.000527	5.269911	1.785494	0.000211
 294	2.9154e+01	11.6483	97.793558	0.000557	5.573945	1.888504	0.000223
 295	2.9253e+01	11.6965	98.043860	0.000628	6.283356	2.128859	0.000252
 296	2.9352e+01	11.7350	98.265902	0.000557	5.573945	1.888504	0.000223
 297	2.9452e+01	11.7670	98.512168	0.000618	6.182012	2.094522	0.000248
 298	2.9552e+01	11.8072	98.754396	0.000608	6.080667	2.060186	0.000243
 299	2.9651e+01	11.8617	98.944141	0.000476	4.763189	1.613812	0.000191
 300	2.9750e+01	11.8954	99.202518	0.000649	6.486045	2.197532	0.000260
 301	2.9850e+01	11.9419	99.460895	0.000649	6.486045	2.197532	0.000260
 302	2.9950e+01	11.9804	99.666789	0.000517	5.168567	1.751158	0.000207
 303	3.0049e+01	12.0109	99.872682	0.000517	5.168567	1.751158	0.000207
 304	3.0148e+01	12.0494	100.139133	0.000669	6.688734	2.266204	0.000268
 305	3.0248e+01	12.0959	100.332916	0.000486	4.864534	1.648149	0.000195
 306	3.0348e+01	12.1376	100.603404	0.000679	6.790078	2.300541	0.000272
 307	3.0447e+01	12.1761	100.829484	0.000568	5.675289	1.922840	0.000227
 308	3.0547e+01	12.2226	101.075749	0.000618	6.182012	2.094522	0.000248
 309	3.0646e+01	12.2563	101.261457	0.000466	4.661845	1.579476	0.000187
 310	3.0745e+01	12.2916	101.511760	0.000628	6.283356	2.128859	0.000252
 311	3.0845e+01	12.3462	101.717653	0.000517	5.168567	1.751158	0.000207
 312	3.0945e+01	12.3718	101.988142	0.000679	6.790078	2.300541	0.000272
 313	3.1044e+01	12.4103	102.173850	0.000466	4.661845	1.579476	0.000187
 314	3.1143e+01	12.4553	102.408004	0.000588	5.877978	1.991513	0.000235
 315	3.1243e+01	12.4841	102.617935	0.000527	5.269911	1.785494	0.000211
 316	3.1343e+01	12.5323	102.872274	0.000638	6.384700	2.163195	0.000256
 317	3.1442e+01	12.5676	103.126614	0.000638	6.384700	2.163195	0.000256
 318	3.1541e+01	12.6045	103.344619	0.000547	5.472600	1.854167	0.000219
 319	3.1641e+01	12.6478	103.542439	0.000497	4.965878	1.682485	0.000199
 320	3.1741e+01	12.7007	103.784667	0.000608	6.080667	2.060186	0.000243
 321	3.1840e+01	12.7312	103.990561	0.000517	5.168567	1.751158	0.000207
 322	3.1939e+01	12.7633	104.232789	0.000608	6.080667	2.060186	0.000243
 323	3.2039e+01	12.8098	104.454832	0.000557	5.573945	1.888504	0.000223
 324	3.2139e+01	12.8451	104.705134	0.000628	6.283356	2.128859	0.000252
 325	3.2238e+01	12.8948	104.919102	0.000537	5.371256	1.819831	0.000215
 326	3.2337e+01	12.9301	105.141145	0.000557	5.573945	1.888504	0.000223
 327	3.2437e+01	12.9606	105.355113	0.000537	5.371256	1.819831	0.000215
 328	3.2536e+01	13.0071	105.601378	0.000618	6.182012	2.094522	0.000248
 329	3.2636e+01	13.0424	105.819383	0.000547	5.472600	1.854167	0.000219
 330	3.2736e+01	13.0954	106.017203	0.000497	4.965878	1.682485	0.000199
 331	3.2835e+01	13.1194	106.295765	0.000699	6.992767	2.369214	0.000280
 332	3.2934e+01	13.1691	106.493585	0.000497	4.965878	1.682485	0.000199
 333	3.3034e+01	13.2076	106.719665	0.000568	5.675289	1.922840	0.000227
 334	3.3133e+01	13.2510	106.917484	0.000497	4.965878	1.682485	0.000199
 335	3.3233e+01	13.2911	107.179898	0.000659	6.587389	2.231868	0.000264
 336	3.3333e+01	13.3199	107.401941	0.000557	5.573945	1.888504	0.000223
 337	3.3432e+01	13.3681	107.611872	0.000527	5.269911	1.785494	0.000211
 338	3.3532e+01	13.4146	107.878323	0.000669	6.688734	2.266204	0.000268
 339	3.3631e+01	13.4515	108.076142	0.000497	4.965878	1.682485	0.000199
 340	3.3730e+01	13.4804	108.302222	0.000568	5.675289	1.922840	0.000227
 341	3.3830e+01	13.5333	108.524264	0.000557	5.573945	1.888504	0.000223
 342	3.3929e+01	13.5670	108.754381	0.000578	5.776634	1.957176	0.000231
 343	3.4029e+01	13.6007	108.988535	0.000588	5.877978	1.991513	0.000235
 344	3.4129e+01	13.6488	109.198466	0.000527	5.269911	1.785494	0.000211
 345	3.4228e+01	13.6857	109.408397	0.000527	5.269911	1.785494	0.000211
 346	3.4328e+01	13.7226	109.626402	0.000547	5.472600	1.854167	0.000219
 347	3.4427e+01	13.7707	109.876705	0.000628	6.283356	2.128859	0.000252
 348	3.4526e+01	13.7964	110.050302	0.000436	4.357811	1.476466	0.000174
 349	3.4626e+01	13.8413	110.288493	0.000598	5.979323	2.025849	0.000239
 350	3.4725e+01	13.8862	110.542832	0.000638	6.384700	2.163195	0.000256
 351	3.4825e+01	13.9263	110.776986	0.000588	5.877978	1.991513	0.000235
 352	3.4925e+01	13.9665	110.954620	0.000446	4.459156	1.510803	0.000179
 353	3.5024e+01	14.0066	111.192811	0.000598	5.979323	2.025849	0.000239
 354	3.5123e+01	14.0483	111.439076	0.000618	6.182012	2.094522	0.000248
 355	3.5223e+01	14.0804	111.616710	0.000446	4.459156	1.510803	0.000179
 356	3.5322e+01	14.1221	111.867013	0.000628	6.283356	2.128859	0.000252
 357	3.5422e+01	14.1622	112.113278	0.000618	6.182012	2.094522	0.000248
 358	3.5522e+01	14.1991	112.282838	0.000426	4.256467	1.442130	0.000170
 359	3.5621e+01	14.2456	112.492769	0.000527	5.269911	1.785494	0.000211
 360	3.5721e+01	14.2745	112.698663	0.000517	5.168567	1.751158	0.000207
 361	3.5820e+01	14.3162	112.953002	0.000638	6.384700	2.163195	0.000256
 362	3.5919e+01	14.3675	113.179082	0.000568	5.675289	1.922840	0.000227
 363	3.6019e+01	14.4060	113.397087	0.000547	5.472600	1.854167	0.000219
 364	3.6118e+01	14.4397	113.623167	0.000568	5.675289	1.922840	0.000227
 365	3.6218e+01	14.4782	113.877506	0.000638	6.384700	2.163195	0.000256
 366	3.6318e+01	14.5215	114.063215	0.000466	4.661845	1.579476	0.000187
 367	3.6417e+01	14.5696	114.252960	0.000476	4.763189	1.613812	0.000191
 368	3.6517e+01	14.6049	114.483077	0.000578	5.776634	1.957176	0.000231
 369	3.6616e+01	14.6450	114.701082	0.000547	5.472600	1.854167	0.000219
 370	3.6715e+01	14.6803	114.923124	0.000557	5.573945	1.888504	0.000223
 371	3.6815e+01	14.7140	115.116907	0.000486	4.864534	1.648149	0.000195
 372	3.6914e+01	14.7589	115.367209	0.000628	6.283356	2.128859	0.000252
 373	3.7014e+01	14.8023	115.577140	0.000527	5.269911	1.785494	0.000211
 374	3.7114e+01	14.8456	115.799183	0.000557	5.573945	1.888504	0.000223
 375	3.7213e+01	14.8761	116.021225	0.000557	5.573945	1.888504	0.000223
 376	3.7313e+01	14.9178	116.210971	0.000476	4.763189	1.613812	0.000191
 377	3.7412e+01	14.9595	116.449162	0.000598	5.979323	2.025849	0.000239
 378	3.7511e+01	15.0108	116.687353	0.000598	5.979323	2.025849	0.000239
 379	3.7611e+01	15.0429	116.897284	0.000527	5.269911	1.785494	0.000211
 380	3.7711e+01	15.0846	117.099141	0.000507	5.067223	1.716821	0.000203
 381	3.7810e+01	15.1231	117.321183	0.000557	5.573945	1.888504	0.000223
 382	3.7910e+01	15.1600	117.539188	0.000547	5.472600	1.854167	0.000219
 383	3.8009e+01	15.2017	117.765268	0.000568	5.675289	1.922840	0.000227
 384	3.8108e+01	15.2354	117.926753	0.000405	4.053778	1.373457	0.000162
 385	3.8208e+01	15.2771	118.164944	0.000598	5.979323	2.025849	0.000239
 386	3.8307e+01	15.3204	118.395061	0.000578	5.776634	1.957176	0.000231
 387	3.8407e+01	15.3573	118.600955	0.000517	5.168567	1.751158	0.000207
 388	3.8507e+01	15.3958	118.818960	0.000547	5.472600	1.854167	0.000219
 389	3.8606e+01	15.4391	119.041003	0.000557	5.573945	1.888504	0.000223
 390	3.8706e+01	15.4744	119.283231	0.000608	6.080667	2.060186	0.000243
 391	3.8805e+01	15.5177	119.493162	0.000527	5.269911	1.785494	0.000211
 392	3.8904e+01	15.5562	119.703093	0.000527	5.269911	1.785494	0.000211
 393	3.9004e+01	15.5996	119.921099	0.000547	5.472600	1.854167	0.000219
 394	3.9103e+01	15.6349	120.131030	0.000527	5.269911	1.785494	0.000211
 395	3.9203e+01	15.6766	120.344998	0.000537	5.371256	1.819831	0.000215
 396	3.9303e+01	15.7215	120.587226	0.000608	6.080667	2.060186	0.000243
 397	3.9402e+01	15.7520	120.785046	0.000497	4.965878	1.682485	0.000199
 398	3.9502e+01	15.7857	120.982865	0.000497	4.965878	1.682485	0.000199
 399	3.9601e+01	15.8418	121.208945	0.000568	5.675289	1.922840	0.000227
 400	3.9700e+01	15.8771	121.443099	0.000588	5.877978	1.991513	0.000235
 401	3.9800e+01	15.9108	121.661104	0.000547	5.472600	1.854167	0.000219
 402	3.9900e+01	15.9573	121.866998	0.000517	5.168567	1.751158	0.000207
 403	3.9999e+01	15.9942	122.048669	0.000456	4.560500	1.545139	0.000183
 404	4.0099e+01	16.0311	122.294934	0.000618	6.182012	2.094522	0.000248
 405	4.0198e+01	16.0808	122.529088	0.000588	5.877978	1.991513	0.000235
 406	4.0297e+01	16.1161	122.702685	0.000436	4.357811	1.476466	0.000174
 407	4.0397e+01	16.1546	122.928765	0.000568	5.675289	1.922840	0.000227
 408	4.0496e+01	16.1931	123.166956	0.000598	5.979323	2.025849	0.000239
 409	4.0596e+01	16.2348	123.336515	0.000426	4.256467	1.442130	0.000170
 410	4.0696e+01	16.2733	123.574706	0.000598	5.979323	2.025849	0.000239
 411	4.0795e+01	16.3150	123.804823	0.000578	5.776634	1.957176	0.000231
 412	4.0895e+01	16.3584	123.978420	0.000436	4.357811	1.476466	0.000174
 413	4.0994e+01	16.3937	124.160091	0.000456	4.560500	1.545139	0.000183
 414	4.1093e+01	16.4434	124.434616	0.000689	6.891423	2.334877	0.000276
 415	4.1193e+01	16.4707	124.612250	0.000446	4.459156	1.510803	0.000179
 416	4.1292e+01	16.5188	124.846404	0.000588	5.877978	1.991513	0.000235
 417	4.1392e+01	16.5557	125.052298	0.000517	5.168567	1.751158	0.000207
 418	4.1492e+01	16.5958	125.302600	0.000628	6.283356	2.128859	0.000252
 419	4.1591e+01	16.6327	125.472160	0.000426	4.256467	1.442130	0.000170
 420	4.1691e+01	16.6776	125.686128	0.000537	5.371256	1.819831	0.000215
 421	4.1790e+01	16.7097	125.916245	0.000578	5.776634	1.957176	0.000231
 422	4.1889e+01	16.7530	126.118102	0.000507	5.067223	1.716821	0.000203
 423	4.1989e+01	16.7883	126.283624	0.000416	4.155123	1.407794	0.000166
 424	4.2089e+01	16.8316	126.550075	0.000669	6.688734	2.266204	0.000268
 425	4.2188e+01	16.8829	126.727709	0.000446	4.459156	1.510803	0.000179
 426	4.2288e+01	16.9070	126.941678	0.000537	5.371256	1.819831	0.000215
 427	4.2387e+01	16.9567	127.135460	0.000486	4.864534	1.648149	0.000195
 428	4.2486e+01	16.9920	127.365577	0.000578	5.776634	1.957176	0.000231
 429	4.2586e+01	17.0305	127.575508	0.000527	5.269911	1.785494	0.000211
 430	4.2685e+01	17.0738	127.797550	0.000557	5.573945	1.888504	0.000223
 431	4.2785e+01	17.1075	127.934813	0.000345	3.445711	1.167439	0.000138
 432	4.2885e+01	17.1509	128.201264	0.000669	6.688734	2.266204	0.000268
 433	4.2984e+01	17.1878	128.407158	0.000517	5.168567	1.751158	0.000207
 434	4.3084e+01	17.2359	128.633237	0.000568	5.675289	1.922840	0.000227
 435	4.3183e+01	17.2664	128.806834	0.000436	4.357811	1.476466	0.000174
 436	4.3282e+01	17.3049	128.984468	0.000446	4.459156	1.510803	0.000179
 437	4.3382e+01	17.3610	129.210548	0.000568	5.675289	1.922840	0.000227
 438	4.3481e+01	17.3867	129.436627	0.000568	5.675289	1.922840	0.000227
 439	4.3581e+01	17.4268	129.654633	0.000547	5.472600	1.854167	0.000219
 440	4.3681e+01	17.4749	129.892824	0.000598	5.979323	2.025849	0.000239
 441	4.3780e+01	17.5070	130.058346	0.000416	4.155123	1.407794	0.000166
 442	4.3880e+01	17.5439	130.252129	0.000486	4.864534	1.648149	0.000195
 443	4.3979e+01	17.5968	130.462060	0.000527	5.269911	1.785494	0.000211
 444	4.4078e+01	17.6305	130.655842	0.000486	4.864534	1.648149	0.000195
 445	4.4178e+01	17.6770	130.902108	0.000618	6.182012	2.094522	0.000248
 446	4.4278e+01	17.7059	131.091853	0.000476	4.763189	1.613812	0.000191
 447	4.4377e+01	17.7460	131.293710	0.000507	5.067223	1.716821	0.000203
 448	4.4477e+01	17.7909	131.483455	0.000476	4.763189	1.613812	0.000191
 449	4.4576e+01	17.8391	131.733758	0.000628	6.283356	2.128859	0.000252
 450	4.4675e+01	17.8695	131.895243	0.000405	4.053778	1.373457	0.000162
 451	4.4775e+01	17.9113	132.084989	0.000476	4.763189	1.613812	0.000191
 452	4.4874e+01	17.9514	132.335291	0.000628	6.283356	2.128859	0.000252
 453	4.4974e+01	17.9883	132.520999	0.000466	4.661845	1.579476	0.000187
 454	4.5074e+01	18.0268	132.734967	0.000537	5.371256	1.819831	0.000215
 455	4.5173e+01	18.0685	132.944898	0.000527	5.269911	1.785494	0.000211
 456	4.5273e+01	18.0990	133.122532	0.000446	4.459156	1.510803	0.000179
 457	4.5372e+01	18.1519	133.348612	0.000568	5.675289	1.922840	0.000227
 458	4.5471e+01	18.1936	133.562580	0.000537	5.371256	1.819831	0.000215
 459	4.5571e+01	18.2225	133.744251	0.000456	4.560500	1.545139	0.000183
 460	4.5670e+01	18.2642	133.954182	0.000527	5.269911	1.785494	0.000211
 461	4.5770e+01	18.3123	134.147965	0.000486	4.864534	1.648149	0.000195
 462	4.5870e+01	18.3476	134.357896	0.000527	5.269911	1.785494	0.000211
 463	4.5969e+01	18.3861	134.579938	0.000557	5.573945	1.888504	0.000223
 464	4.6069e+01	18.4246	134.773721	0.000486	4.864534	1.648149	0.000195
 465	4.6168e+01	18.4663	134.919058	0.000365	3.648400	1.236111	0.000146
 466	4.6267e+01	18.5016	135.157249	0.000598	5.979323	2.025849	0.000239
 467	4.6367e+01	18.5481	135.367180	0.000527	5.269911	1.785494	0.000211
 468	4.6467e+01	18.5963	135.585185	0.000547	5.472600	1.854167	0.000219
 469	4.6566e+01	18.6267	135.754745	0.000426	4.256467	1.442130	0.000170
 470	4.6666e+01	18.6717	135.932379	0.000446	4.459156	1.510803	0.000179
 471	4.6765e+01	18.7021	136.154421	0.000557	5.573945	1.888504	0.000223
 472	4.6864e+01	18.7423	136.348204	0.000486	4.864534	1.648149	0.000195
 473	4.6964e+01	18.7872	136.541986	0.000486	4.864534	1.648149	0.000195
 474	4.7063e+01	18.8305	136.719620	0.000446	4.459156	1.510803	0.000179
 475	4.7163e+01	18.8610	136.921477	0.000507	5.067223	1.716821	0.000203
 476	4.7263e+01	18.9123	137.127371	0.000517	5.168567	1.751158	0.000207
 477	4.7362e+01	18.9460	137.353451	0.000568	5.675289	1.922840	0.000227
 478	4.7462e+01	18.9925	137.506862	0.000385	3.851089	1.304784	0.000154
 479	4.7561e+01	19.0326	137.720830	0.000537	5.371256	1.819831	0.000215
 480	4.7660e+01	19.0663	137.930761	0.000527	5.269911	1.785494	0.000211
 481	4.7760e+01	19.1080	138.100321	0.000426	4.256467	1.442130	0.000170
 482	4.7859e+01	19.1481	138.277955	0.000446	4.459156	1.510803	0.000179
 483	4.7959e+01	19.1866	138.483849	0.000517	5.168567	1.751158	0.000207
 484	4.8059e+01	19.2235	138.709928	0.000568	5.675289	1.922840	0.000227
 485	4.8158e+01	19.2652	138.883525	0.000436	4.357811	1.476466	0.000174
 486	4.8258e+01	19.3037	139.077308	0.000486	4.864534	1.648149	0.000195
 487	4.8357e+01	19.3406	139.307424	0.000578	5.776634	1.957176	0.000231
 488	4.8456e+01	19.3872	139.448724	0.000355	3.547056	1.201775	0.000142
 489	4.8556e+01	19.4192	139.654618	0.000517	5.168567	1.751158	0.000207
 490	4.8656e+01	19.4642	139.876660	0.000557	5.573945	1.888504	0.000223
 491	4.8755e+01	19.4946	140.034109	0.000395	3.952434	1.339121	0.000158
 492	4.8855e+01	19.5380	140.235966	0.000507	5.067223	1.716821	0.000203
 493	4.8954e+01	19.5893	140.462045	0.000568	5.675289	1.922840	0.000227
 494	4.9053e+01	19.6198	140.635642	0.000436	4.357811	1.476466	0.000174
 495	4.9153e+01	19.6551	140.817313	0.000456	4.560500	1.545139	0.000183
 496	4.9252e+01	19.7016	141.011096	0.000486	4.864534	1.648149	0.000195
 497	4.9352e+01	19.7529	141.208915	0.000497	4.965878	1.682485	0.000199
 498	4.9452e+01	19.7770	141.418846	0.000527	5.269911	1.785494	0.000211
 499	4.9551e+01	19.8187	141.616666	0.000497	4.965878	1.682485	0.000199
 500	4.9651e+01	19.8524	141.786226	0.000426	4.256467	1.442130	0.000170
 501	4.9750e+01	19.9005	142.036528	0.000628	6.283356	2.128859	0.000252
 502	4.9849e+01	19.9374	142.177828	0.000355	3.547056	1.201775	0.000142
 503	4.9949e+01	19.9839	142.387759	0.000527	5.269911	1.785494	0.000211
 504	5.0048e+01	19.9438	142.290868	0.000243	2.432267	0.824074	-0.000097
 505	5.0148e+01	19.9005	142.157642	0.000334	3.344367	1.133102	-0.000134
 506	5.0248e+01	19.8588	142.048640	0.000274	2.736300	0.927084	-0.000110
 507	5.0347e+01	19.8219	141.883117	0.000416	4.155123	1.407794	-0.000166
 508	5.0447e+01	19.7770	141.757966	0.000314	3.141678	1.064429	-0.000126
 509	5.0546e+01	19.7465	141.600517	0.000395	3.952434	1.339121	-0.000158
 510	5.0645e+01	19.7032	141.507663	0.000233	2.330922	0.789738	-0.000093
 511	5.0745e+01	19.6567	141.374438	0.000334	3.344367	1.133102	-0.000134
 512	5.0844e+01	19.6214	141.253324	0.000304	3.040334	1.030093	-0.000122
 513	5.0944e+01	19.5829	141.067616	0.000466	4.661845	1.579476	-0.000187
 514	5.1044e+01	19.5428	140.938427	0.000324	3.243022	1.098766	-0.000130
 515	5.1143e+01	19.5011	140.829425	0.000274	2.736300	0.927084	-0.000110
 516	5.1242e+01	19.4593	140.647753	0.000456	4.560500	1.545139	-0.000183
 517	5.1342e+01	19.4112	140.538751	0.000274	2.736300	0.927084	-0.000110
 518	5.1441e+01	19.3759	140.377265	0.000405	4.053778	1.373457	-0.000162
 519	5.1541e+01	19.3358	140.272300	0.000263	2.634956	0.892747	-0.000105
 520	5.1641e+01	19.3069	140.110814	0.000405	4.053778	1.373457	-0.000162
 521	5.1740e+01	19.2652	139.997775	0.000284	2.837645	0.961420	-0.000114
 522	5.1840e+01	19.2187	139.840326	0.000395	3.952434	1.339121	-0.000158
 523	5.1939e+01	19.1818	139.707101	0.000334	3.344367	1.133102	-0.000134
 524	5.2038e+01	19.1449	139.557727	0.000375	3.749745	1.270448	-0.000150
 525	5.2138e+01	19.1048	139.388167	0.000426	4.256467	1.442130	-0.000170
 526	5.2237e+01	19.0647	139.246867	0.000355	3.547056	1.201775	-0.000142
 527	5.2337e+01	19.0214	139.057122	0.000476	4.763189	1.613812	-0.000191
 528	5.2437e+01	18.9877	138.968305	0.000223	2.229578	0.755401	-0.000089
 529	5.2536e+01	18.9444	138.782597	0.000466	4.661845	1.579476	-0.000187
 530	5.2636e+01	18.9091	138.637260	0.000365	3.648400	1.236111	-0.000146
 531	5.2735e+01	18.8562	138.495960	0.000355	3.547056	1.201775	-0.000142
 532	5.2834e+01	18.8337	138.330437	0.000416	4.155123	1.407794	-0.000166
 533	5.2934e+01	18.7759	138.201249	0.000324	3.243022	1.098766	-0.000130
 534	5.3033e+01	18.7535	138.055912	0.000365	3.648400	1.236111	-0.000146
 535	5.3133e+01	18.7005	137.874241	0.000456	4.560500	1.545139	-0.000183
 536	5.3233e+01	18.6669	137.797536	0.000193	1.925545	0.652392	-0.000077
 537	5.3332e+01	18.6348	137.583567	0.000537	5.371256	1.819831	-0.000215
 538	5.3431e+01	18.6027	137.446305	0.000345	3.445711	1.167439	-0.000138
 539	5.3531e+01	18.5417	137.296931	0.000375	3.749745	1.270448	-0.000150
 540	5.3630e+01	18.5064	137.119297	0.000446	4.459156	1.510803	-0.000179
 541	5.3730e+01	18.4567	136.941663	0.000446	4.459156	1.510803	-0.000179
 542	5.3830e+01	18.4326	136.836697	0.000263	2.634956	0.892747	-0.000105
 543	5.3929e+01	18.3829	136.667138	0.000426	4.256467	1.442130	-0.000170
 544	5.4029e+01	18.3540	136.505652	0.000405	4.053778	1.373457	-0.000162
 545	5.4128e+01	18.3107	136.364352	0.000355	3.547056	1.201775	-0.000142
 546	5.4227e+01	18.2690	136.174607	0.000476	4.763189	1.613812	-0.000191
 547	5.4327e+01	18.2321	136.053493	0.000304	3.040334	1.030093	-0.000122
 548	5.4426e+01	18.1856	135.896045	0.000395	3.952434	1.339121	-0.000158
 549	5.4526e+01	18.1455	135.742633	0.000385	3.851089	1.304784	-0.000154
 550	5.4626e+01	18.1086	135.573074	0.000426	4.256467	1.442130	-0.000170
 551	5.4725e+01	18.0717	135.447923	0.000314	3.141678	1.064429	-0.000126
 552	5.4825e+01	18.0300	135.233954	0.000537	5.371256	1.819831	-0.000215
 553	5.4924e+01	17.9915	135.141100	0.000233	2.330922	0.789738	-0.000093
 554	5.5023e+01	17.9449	134.939243	0.000507	5.067223	1.716821	-0.000203
 555	5.5123e+01	17.9113	134.801981	0.000345	3.445711	1.167439	-0.000138
 556	5.5222e+01	17.8679	134.652607	0.000375	3.749745	1.270448	-0.000150
 557	5.5322e+01	17.8310	134.458824	0.000486	4.864534	1.648149	-0.000195
 558	5.5422e+01	17.7877	134.337710	0.000304	3.040334	1.030093	-0.000122
 559	5.5521e+01	17.7476	134.147965	0.000476	4.763189	1.613812	-0.000191
 560	5.5620e+01	17.7155	134.018777	0.000324	3.243022	1.098766	-0.000130
 561	5.5720e+01	17.6754	133.824994	0.000486	4.864534	1.648149	-0.000195
 562	5.5819e+01	17.6273	133.687731	0.000345	3.445711	1.167439	-0.000138
 563	5.5919e+01	17.5888	133.522209	0.000416	4.155123	1.407794	-0.000166
 564	5.6019e+01	17.5487	133.360723	0.000405	4.053778	1.373457	-0.000162
 565	5.6118e+01	17.5086	133.235572	0.000314	3.141678	1.064429	-0.000126
 566	5.6218e+01	17.4605	133.049864	0.000466	4.661845	1.579476	-0.000187
 567	5.6317e+01	17.4284	132.888379	0.000405	4.053778	1.373457	-0.000162
 568	5.6416e+01	17.3931	132.718819	0.000426	4.256467	1.442130	-0.000170
 569	5.6516e+01	17.3466	132.581556	0.000345	3.445711	1.167439	-0.000138
 570	5.6615e+01	17.3113	132.428145	0.000385	3.851089	1.304784	-0.000154
 571	5.6715e+01	17.2712	132.222251	0.000517	5.168567	1.751158	-0.000207
 572	5.6815e+01	17.2263	132.097100	0.000314	3.141678	1.064429	-0.000126
 573	5.6914e+01	17.1910	131.923503	0.000436	4.357811	1.476466	-0.000174
 574	5.7014e+01	17.1541	131.786240	0.000345	3.445711	1.167439	-0.000138
 575	5.7113e+01	17.1140	131.588421	0.000497	4.965878	1.682485	-0.000199
 576	5.7212e+01	17.0787	131.426935	0.000405	4.053778	1.373457	-0.000162
 577	5.7312e+01	17.0273	131.277561	0.000375	3.749745	1.270448	-0.000150
 578	5.7411e+01	16.9872	131.075705	0.000507	5.067223	1.716821	-0.000203
 579	5.7511e+01	16.9551	130.958628	0.000294	2.938989	0.995756	-0.000118
 580	5.7611e+01	16.9070	130.793105	0.000416	4.155123	1.407794	-0.000166
 581	5.7710e+01	16.8717	130.615471	0.000446	4.459156	1.510803	-0.000179
 582	5.7809e+01	16.8364	130.462060	0.000385	3.851089	1.304784	-0.000154
 583	5.7909e+01	16.7883	130.304612	0.000395	3.952434	1.339121	-0.000158
 584	5.8008e+01	16.7546	130.139089	0.000416	4.155123	1.407794	-0.000166
 585	5.8108e+01	16.7145	129.965492	0.000436	4.357811	1.476466	-0.000174
 586	5.8208e+01	16.6840	129.820155	0.000365	3.648400	1.236111	-0.000146
 587	5.8307e+01	16.6391	129.618299	0.000507	5.067223	1.716821	-0.000203
 588	5.8407e+01	16.5894	129.452776	0.000416	4.155123	1.407794	-0.000166
 589	5.8506e+01	16.5493	129.267068	0.000466	4.661845	1.579476	-0.000187
 590	5.8605e+01	16.5172	129.125768	0.000355	3.547056	1.201775	-0.000142
 591	5.8705e+01	16.4707	128.940060	0.000466	4.661845	1.579476	-0.000187
 592	5.8804e+01	16.4338	128.762426	0.000446	4.459156	1.510803	-0.000179
 593	5.8904e+01	16.3953	128.653423	0.000274	2.736300	0.927084	-0.000110
 594	5.9004e+01	16.3568	128.431381	0.000557	5.573945	1.888504	-0.000223
 595	5.9103e+01	16.3199	128.286044	0.000365	3.648400	1.236111	-0.000146
 596	5.9203e+01	16.2862	128.072076	0.000537	5.371256	1.819831	-0.000215
 597	5.9302e+01	16.2380	127.918664	0.000385	3.851089	1.304784	-0.000154
 598	5.9401e+01	16.1931	127.749105	0.000426	4.256467	1.442130	-0.000170
 599	5.9501e+01	16.1578	127.587619	0.000405	4.053778	1.373457	-0.000162
 600	5.9600e+01	16.1081	127.405948	0.000456	4.560500	1.545139	-0.000183
 601	5.9700e+01	16.0872	127.256574	0.000375	3.749745	1.270448	-0.000150
 602	5.9800e+01	16.0359	127.107200	0.000375	3.749745	1.270448	-0.000150
 603	5.9899e+01	15.9894	126.881121	0.000568	5.675289	1.922840	-0.000227
 604	5.9998e+01	15.9557	126.719635	0.000405	4.053778	1.373457	-0.000162
 605	6.0098e+01	15.9108	126.542001	0.000446	4.459156	1.510803	-0.000179
 606	6.0197e+01	15.8819	126.392627	0.000375	3.749745	1.270448	-0.000150
 607	6.0297e+01	15.8386	126.190770	0.000507	5.067223	1.716821	-0.000203
 608	6.0397e+01	15.8033	126.009099	0.000456	4.560500	1.545139	-0.000183
 609	6.0496e+01	15.7552	125.863762	0.000365	3.648400	1.236111	-0.000146
 610	6.0596e+01	15.7183	125.718425	0.000365	3.648400	1.236111	-0.000146
 611	6.0695e+01	15.6750	125.528680	0.000476	4.763189	1.613812	-0.000191
 612	6.0794e+01	15.6477	125.351046	0.000446	4.459156	1.510803	-0.000179
 613	6.0894e+01	15.6012	125.124966	0.000568	5.675289	1.922840	-0.000227
 614	6.0993e+01	15.5546	125.020001	0.000263	2.634956	0.892747	-0.000105
 615	6.1093e+01	15.5161	124.801996	0.000547	5.472600	1.854167	-0.000219
 616	6.1193e+01	15.4841	124.604176	0.000497	4.965878	1.682485	-0.000199
 617	6.1292e+01	15.4359	124.470951	0.000334	3.344367	1.133102	-0.000134
 618	6.1392e+01	15.3974	124.297354	0.000436	4.357811	1.476466	-0.000174
 619	6.1491e+01	15.3653	124.111645	0.000466	4.661845	1.579476	-0.000187
 620	6.1590e+01	15.3300	123.917863	0.000486	4.864534	1.648149	-0.000195
 621	6.1690e+01	15.2771	123.728118	0.000476	4.763189	1.613812	-0.000191
 622	6.1789e+01	15.2338	123.590855	0.000345	3.445711	1.167439	-0.000138
 623	6.1889e+01	15.2049	123.429369	0.000405	4.053778	1.373457	-0.000162
 624	6.1989e+01	15.1584	123.235587	0.000486	4.864534	1.648149	-0.000195
 625	6.2088e+01	15.1183	123.066027	0.000426	4.256467	1.442130	-0.000170
 626	6.2188e+01	15.0862	122.892430	0.000436	4.357811	1.476466	-0.000174
 627	6.2287e+01	15.0365	122.694611	0.000497	4.965878	1.682485	-0.000199
 628	6.2386e+01	14.9948	122.504865	0.000476	4.763189	1.613812	-0.000191
 629	6.2486e+01	14.9563	122.311083	0.000486	4.864534	1.648149	-0.000195
 630	6.2586e+01	14.9226	122.129412	0.000456	4.560500	1.545139	-0.000183
 631	6.2685e+01	14.8857	121.935629	0.000486	4.864534	1.648149	-0.000195
 632	6.2785e+01	14.8456	121.774144	0.000405	4.053778	1.373457	-0.000162
 633	6.2884e+01	14.8007	121.580361	0.000486	4.864534	1.648149	-0.000195
 634	6.2983e+01	14.7541	121.426950	0.000385	3.851089	1.304784	-0.000154
 635	6.3083e+01	14.7172	121.237205	0.000476	4.763189	1.613812	-0.000191
 636	6.3182e+01	14.6868	121.067645	0.000426	4.256467	1.442130	-0.000170
 637	6.3282e+01	14.6450	120.869825	0.000497	4.965878	1.682485	-0.000199
 638	6.3382e+01	14.5985	120.696229	0.000436	4.357811	1.476466	-0.000174
 639	6.3481e+01	14.5584	120.466112	0.000578	5.776634	1.957176	-0.000231
 640	6.3581e+01	14.5183	120.340961	0.000314	3.141678	1.064429	-0.000126
 641	6.3680e+01	14.4910	120.118918	0.000557	5.573945	1.888504	-0.000223
 642	6.3779e+01	14.4381	119.949358	0.000426	4.256467	1.442130	-0.000170
 643	6.3879e+01	14.3964	119.731353	0.000547	5.472600	1.854167	-0.000219
 644	6.3978e+01	14.3627	119.569868	0.000405	4.053778	1.373457	-0.000162
 645	6.4078e+01	14.3194	119.347825	0.000557	5.573945	1.888504	-0.000223
 646	6.4177e+01	14.2745	119.178266	0.000426	4.256467	1.442130	-0.000170
 647	6.4277e+01	14.2424	118.992557	0.000466	4.661845	1.579476	-0.000187
 648	6.4376e+01	14.2007	118.774552	0.000547	5.472600	1.854167	-0.000219
 649	6.4476e+01	14.1702	118.600955	0.000436	4.357811	1.476466	-0.000174
 650	6.4576e+01	14.1172	118.399098	0.000507	5.067223	1.716821	-0.000203
 651	6.4675e+01	14.0787	118.225502	0.000436	4.357811	1.476466	-0.000174
 652	6.4775e+01	14.0451	118.072090	0.000385	3.851089	1.304784	-0.000154
 653	6.4874e+01	13.9985	117.850048	0.000557	5.573945	1.888504	-0.000223
 654	6.4974e+01	13.9697	117.644154	0.000517	5.168567	1.751158	-0.000207
 655	6.5073e+01	13.9199	117.474594	0.000426	4.256467	1.442130	-0.000170
 656	6.5172e+01	13.8862	117.300997	0.000436	4.357811	1.476466	-0.000174
 657	6.5272e+01	13.8445	117.082992	0.000547	5.472600	1.854167	-0.000219
 658	6.5371e+01	13.8012	116.893247	0.000476	4.763189	1.613812	-0.000191
 659	6.5471e+01	13.7659	116.707538	0.000466	4.661845	1.579476	-0.000187
 660	6.5570e+01	13.7130	116.513756	0.000486	4.864534	1.648149	-0.000195
 661	6.5670e+01	13.6873	116.315936	0.000497	4.965878	1.682485	-0.000199
 662	6.5769e+01	13.6424	116.126191	0.000476	4.763189	1.613812	-0.000191
 663	6.5869e+01	13.6071	115.940483	0.000466	4.661845	1.579476	-0.000187
 664	6.5969e+01	13.5734	115.722477	0.000547	5.472600	1.854167	-0.000219
 665	6.6068e+01	13.5237	115.544843	0.000446	4.459156	1.510803	-0.000179
 666	6.6168e+01	13.4884	115.334912	0.000527	5.269911	1.785494	-0.000211
 667	6.6267e+01	13.4499	115.157278	0.000446	4.459156	1.510803	-0.000179
 668	6.6367e+01	13.4098	114.991756	0.000416	4.155123	1.407794	-0.000166
 669	6.6466e+01	13.3633	114.781825	0.000527	5.269911	1.785494	-0.000211
 670	6.6566e+01	13.3232	114.579968	0.000507	5.067223	1.716821	-0.000203
 671	6.6665e+01	13.2782	114.414445	0.000416	4.155123	1.407794	-0.000166
 672	6.6764e+01	13.2381	114.184329	0.000578	5.776634	1.957176	-0.000231
 673	6.6864e+01	13.1980	114.026880	0.000395	3.952434	1.339121	-0.000158
 674	6.6963e+01	13.1724	113.792726	0.000588	5.877978	1.991513	-0.000235
 675	6.7063e+01	13.1242	113.643352	0.000375	3.749745	1.270448	-0.000150
 676	6.7162e+01	13.0873	113.437459	0.000517	5.168567	1.751158	-0.000207
 677	6.7262e+01	13.0424	113.239639	0.000497	4.965878	1.682485	-0.000199
 678	6.7362e+01	13.0135	113.082191	0.000395	3.952434	1.339121	-0.000158
 679	6.7461e+01	12.9702	112.856111	0.000568	5.675289	1.922840	-0.000227
 680	6.7561e+01	12.9253	112.625994	0.000578	5.776634	1.957176	-0.000231
 681	6.7660e+01	12.8884	112.452397	0.000436	4.357811	1.476466	-0.000174
 682	6.7760e+01	12.8483	112.246503	0.000517	5.168567	1.751158	-0.000207
 683	6.7859e+01	12.8146	112.097129	0.000375	3.749745	1.270448	-0.000150
 684	6.7959e+01	12.7777	111.891236	0.000517	5.168567	1.751158	-0.000207
 685	6.8058e+01	12.7328	111.685342	0.000517	5.168567	1.751158	-0.000207
 686	6.8157e+01	12.6863	111.487522	0.000497	4.965878	1.682485	-0.000199
 687	6.8257e+01	12.6494	111.305851	0.000456	4.560500	1.545139	-0.000183
 688	6.8356e+01	12.6093	111.083808	0.000557	5.573945	1.888504	-0.000223
 689	6.8456e+01	12.5756	110.898100	0.000466	4.661845	1.579476	-0.000187
 690	6.8555e+01	12.5371	110.688169	0.000527	5.269911	1.785494	-0.000211
 691	6.8655e+01	12.4890	110.478238	0.000527	5.269911	1.785494	-0.000211
 692	6.8754e+01	12.4472	110.288493	0.000476	4.763189	1.613812	-0.000191
 693	6.8854e+01	12.4103	110.098747	0.000476	4.763189	1.613812	-0.000191
 694	6.8954e+01	12.3718	109.892853	0.000517	5.168567	1.751158	-0.000207
 695	6.9053e+01	12.3333	109.695034	0.000497	4.965878	1.682485	-0.000199
 696	6.9153e+01	12.2868	109.509325	0.000466	4.661845	1.579476	-0.000187
 697	6.9252e+01	12.2579	109.295357	0.000537	5.371256	1.819831	-0.000215
 698	6.9352e+01	12.2130	109.113686	0.000456	4.560500	1.545139	-0.000183
 699	6.9451e+01	12.1729	108.911829	0.000507	5.067223	1.716821	-0.000203
 700	6.9550e+01	12.1312	108.689787	0.000557	5.573945	1.888504	-0.000223
 701	6.9650e+01	12.0895	108.459670	0.000578	5.776634	1.957176	-0.000231
 702	6.9749e+01	12.0574	108.241665	0.000547	5.472600	1.854167	-0.000219
 703	6.9849e+01	12.0189	108.100365	0.000355	3.547056	1.201775	-0.000142
 704	6.9948e+01	11.9740	107.858137	0.000608	6.080667	2.060186	-0.000243
 705	7.0048e+01	11.9355	107.672429	0.000466	4.661845	1.579476	-0.000187
 706	7.0147e+01	11.8906	107.458461	0.000537	5.371256	1.819831	-0.000215
 707	7.0247e+01	11.8537	107.296975	0.000405	4.053778	1.373457	-0.000162
 708	7.0347e+01	11.8264	107.054747	0.000608	6.080667	2.060186	-0.000243
 709	7.0446e+01	11.7687	106.844816	0.000527	5.269911	1.785494	-0.000211
 710	7.0546e+01	11.7334	106.642959	0.000507	5.067223	1.716821	-0.000203
 711	7.0645e+01	11.6997	106.433028	0.000527	5.269911	1.785494	-0.000211
 712	7.0745e+01	11.6628	106.194837	0.000598	5.979323	2.025849	-0.000239
 713	7.0844e+01	11.6146	106.049500	0.000365	3.648400	1.236111	-0.000146
 714	7.0944e+01	11.5761	105.855718	0.000486	4.864534	1.648149	-0.000195
 715	7.1043e+01	11.5264	105.653861	0.000507	5.067223	1.716821	-0.000203
 716	7.1142e+01	11.4927	105.411633	0.000608	6.080667	2.060186	-0.000243
 717	7.1242e+01	11.4526	105.238036	0.000436	4.357811	1.476466	-0.000174
 718	7.1341e+01	11.4061	104.995808	0.000608	6.080667	2.060186	-0.000243
 719	7.1441e+01	11.3660	104.785877	0.000527	5.269911	1.785494	-0.000211
 720	7.1540e+01	11.3387	104.584020	0.000507	5.067223	1.716821	-0.000203
 721	7.1640e+01	11.3002	104.382163	0.000507	5.067223	1.716821	-0.000203
 722	7.1740e+01	11.2601	104.180306	0.000507	5.067223	1.716821	-0.000203
 723	7.1839e+01	11.2136	103.986524	0.000486	4.864534	1.648149	-0.000195
 724	7.1939e+01	11.1719	103.788704	0.000497	4.965878	1.682485	-0.000199
 725	7.2038e+01	11.1350	103.582810	0.000517	5.168567	1.751158	-0.000207
 726	7.2138e+01	11.0917	103.364805	0.000547	5.472600	1.854167	-0.000219
 727	7.2237e+01	11.0516	103.150837	0.000537	5.371256	1.819831	-0.000215
 728	7.2337e+01	11.0243	102.977240	0.000436	4.357811	1.476466	-0.000174
 729	7.2436e+01	10.9778	102.722900	0.000638	6.384700	2.163195	-0.000256
 730	7.2535e+01	10.9393	102.549303	0.000436	4.357811	1.476466	-0.000174
 731	7.2635e+01	10.8927	102.335335	0.000537	5.371256	1.819831	-0.000215
 732	7.2734e+01	10.8574	102.105219	0.000578	5.776634	1.957176	-0.000231
 733	7.2834e+01	10.8173	101.895287	0.000527	5.269911	1.785494	-0.000211
 734	7.2933e+01	10.7804	101.705542	0.000476	4.763189	1.613812	-0.000191
 735	7.3033e+01	10.7355	101.463314	0.000608	6.080667	2.060186	-0.000243
 736	7.3132e+01	10.6906	101.289717	0.000436	4.357811	1.476466	-0.000174
 737	7.3232e+01	10.6441	101.095935	0.000486	4.864534	1.648149	-0.000195
 738	7.3332e+01	10.6168	100.898115	0.000497	4.965878	1.682485	-0.000199
 739	7.3431e+01	10.5735	100.659924	0.000598	5.979323	2.025849	-0.000239
 740	7.3531e+01	10.5462	100.441919	0.000547	5.472600	1.854167	-0.000219
 741	7.3630e+01	10.4965	100.252173	0.000476	4.763189	1.613812	-0.000191
 742	7.3730e+01	10.4596	100.066465	0.000466	4.661845	1.579476	-0.000187
 743	7.3829e+01	10.4179	99.820200	0.000618	6.182012	2.094522	-0.000248
 744	7.3928e+01	10.3778	99.626417	0.000486	4.864534	1.648149	-0.000195
 745	7.4028e+01	10.3409	99.392263	0.000588	5.877978	1.991513	-0.000235
 746	7.4127e+01	10.3024	99.202518	0.000476	4.763189	1.613812	-0.000191
 747	7.4227e+01	10.2575	99.000661	0.000507	5.067223	1.716821	-0.000203
 748	7.4326e+01	10.2206	98.738247	0.000659	6.587389	2.231868	-0.000264
 749	7.4426e+01	10.1805	98.556576	0.000456	4.560500	1.545139	-0.000183
 750	7.4525e+01	10.1355	98.358757	0.000497	4.965878	1.682485	-0.000199
 751	7.4625e+01	10.1083	98.120566	0.000598	5.979323	2.025849	-0.000239
 752	7.4725e+01	10.0617	97.870263	0.000628	6.283356	2.128859	-0.000252
 753	7.4824e+01	10.0184	97.708778	0.000405	4.053778	1.373457	-0.000162
 754	7.4924e+01	9.9719	97.454438	0.000638	6.384700	2.163195	-0.000256
 755	7.5023e+01	9.9318	97.252581	0.000507	5.067223	1.716821	-0.000203
 756	7.5123e+01	9.8981	97.038613	0.000537	5.371256	1.819831	-0.000215
 757	7.5222e+01	9.8644	96.820608	0.000547	5.472600	1.854167	-0.000219
 758	7.5322e+01	9.8243	96.614714	0.000517	5.168567	1.751158	-0.000207
 759	7.5421e+01	9.7778	96.404783	0.000527	5.269911	1.785494	-0.000211
 760	7.5520e+01	9.7361	96.166592	0.000598	5.979323	2.025849	-0.000239
 761	7.5620e+01	9.7056	95.948587	0.000547	5.472600	1.854167	-0.000219
 762	7.5719e+01	9.6575	95.710396	0.000598	5.979323	2.025849	-0.000239
 763	7.5819e+01	9.6254	95.524687	0.000466	4.661845	1.579476	-0.000187
 764	7.5918e+01	9.5837	95.290533	0.000588	5.877978	1.991513	-0.000235
 765	7.6018e+01	9.5484	95.112899	0.000446	4.459156	1.510803	-0.000179
 766	7.6118e+01	9.4987	94.870671	0.000608	6.080667	2.060186	-0.000243
 767	7.6217e+01	9.4602	94.616332	0.000638	6.384700	2.163195	-0.000256
 768	7.6317e+01	9.4249	94.434661	0.000456	4.560500	1.545139	-0.000183
 769	7.6416e+01	9.3864	94.200507	0.000588	5.877978	1.991513	-0.000235
 770	7.6516e+01	9.3350	93.978464	0.000557	5.573945	1.888504	-0.000223
 771	7.6615e+01	9.3078	93.764496	0.000537	5.371256	1.819831	-0.000215
 772	7.6715e+01	9.2564	93.542454	0.000557	5.573945	1.888504	-0.000223
 773	7.6814e+01	9.2179	93.324448	0.000547	5.472600	1.854167	-0.000219
 774	7.6913e+01	9.1842	93.106443	0.000547	5.472600	1.854167	-0.000219
 775	7.7013e+01	9.1489	92.872289	0.000588	5.877978	1.991513	-0.000235
 776	7.7112e+01	9.1120	92.658321	0.000537	5.371256	1.819831	-0.000215
 777	7.7212e+01	9.0623	92.480687	0.000446	4.459156	1.510803	-0.000179
 778	7.7311e+01	9.0254	92.222310	0.000649	6.486045	2.197532	-0.000260
 779	7.7411e+01	8.9821	92.008342	0.000537	5.371256	1.819831	-0.000215
 780	7.7510e+01	8.9436	91.758040	0.000628	6.283356	2.128859	-0.000252
 781	7.7610e+01	8.9019	91.531960	0.000568	5.675289	1.922840	-0.000227
 782	7.7710e+01	8.8666	91.334140	0.000497	4.965878	1.682485	-0.000199
 783	7.7809e+01	8.8217	91.104024	0.000578	5.776634	1.957176	-0.000231
 784	7.7909e+01	8.7912	90.845647	0.000649	6.486045	2.197532	-0.000260
 785	7.8008e+01	8.7447	90.655902	0.000476	4.763189	1.613812	-0.000191
 786	7.8108e+01	8.7014	90.454045	0.000507	5.067223	1.716821	-0.000203
 787	7.8207e+01	8.6629	90.232002	0.000557	5.573945	1.888504	-0.000223
 788	7.8306e+01	8.6340	89.949403	0.000709	7.094112	2.403550	-0.000284
 789	7.8406e+01	8.5859	89.755620	0.000486	4.864534	1.648149	-0.000195
 790	7.8505e+01	8.5457	89.517429	0.000598	5.979323	2.025849	-0.000239
 791	7.8605e+01	8.5089	89.287313	0.000578	5.776634	1.957176	-0.000231
 792	7.8704e+01	8.4703	89.081419	0.000517	5.168567	1.751158	-0.000207
 793	7.8804e+01	8.4222	88.827079	0.000638	6.384700	2.163195	-0.000256
 794	7.8903e+01	8.3837	88.629259	0.000497	4.965878	1.682485	-0.000199
 795	7.9003e+01	8.3532	88.391068	0.000598	5.979323	2.025849	-0.000239
 796	7.9103e+01	8.3019	88.136729	0.000638	6.384700	2.163195	-0.000256
 797	7.9202e+01	8.2602	87.930835	0.000517	5.168567	1.751158	-0.000207
 798	7.9302e+01	8.2329	87.696681	0.000588	5.877978	1.991513	-0.000235
 799	7.9401e+01	8.1864	87.478676	0.000547	5.472600	1.854167	-0.000219
 800	7.9501e+01	8.1511	87.232410	0.000618	6.182012	2.094522	-0.000248
 801	7.9600e+01	8.1014	87.014405	0.000547	5.472600	1.854167	-0.000219
 802	7.9700e+01	8.0581	86.756028	0.000649	6.486045	2.197532	-0.000260
 803	7.9799e+01	8.0147	86.566283	0.000476	4.763189	1.613812	-0.000191
 804	7.9898e+01	7.9875	86.324055	0.000608	6.080667	2.060186	-0.000243
 805	7.9998e+01	7.9490	86.073753	0.000628	6.283356	2.128859	-0.000252
 806	8.0097e+01	7.8992	85.884007	0.000476	4.763189	1.613812	-0.000191
 807	8.0197e+01	7.8720	85.657928	0.000568	5.675289	1.922840	-0.000227
 808	8.0296e+01	7.8222	85.375328	0.000709	7.094112	2.403550	-0.000284
 809	8.0396e+01	7.7902	85.137137	0.000598	5.979323	2.025849	-0.000239
 810	8.0496e+01	7.7468	84.898946	0.000598	5.979323	2.025849	-0.000239
 811	8.0595e+01	7.7083	84.656718	0.000608	6.080667	2.060186	-0.000243
 812	8.0695e+01	7.6666	84.422564	0.000588	5.877978	1.991513	-0.000235
 813	8.0794e+01	7.6249	84.208596	0.000537	5.371256	1.819831	-0.000215
 814	8.0894e+01	7.5816	83.950219	0.000649	6.486045	2.197532	-0.000260
 815	8.0993e+01	7.5511	83.740288	0.000527	5.269911	1.785494	-0.000211
 816	8.1093e+01	7.5110	83.465763	0.000689	6.891423	2.334877	-0.000276
 817	8.1192e+01	7.4645	83.247757	0.000547	5.472600	1.854167	-0.000219
 818	8.1291e+01	7.4340	82.985344	0.000659	6.587389	2.231868	-0.000264
 819	8.1391e+01	7.3875	82.771375	0.000537	5.371256	1.819831	-0.000215
 820	8.1490e+01	7.3570	82.521073	0.000628	6.283356	2.128859	-0.000252
 821	8.1590e+01	7.3137	82.270771	0.000628	6.283356	2.128859	-0.000252
 822	8.1689e+01	7.2752	82.032580	0.000598	5.979323	2.025849	-0.000239
 823	8.1789e+01	7.2287	81.778240	0.000638	6.384700	2.163195	-0.000256
 824	8.1888e+01	7.1822	81.576383	0.000507	5.067223	1.716821	-0.000203
 825	8.1988e+01	7.1517	81.346267	0.000578	5.776634	1.957176	-0.000231
 826	8.2088e+01	7.1100	81.087890	0.000649	6.486045	2.197532	-0.000260
 827	8.2187e+01	7.0666	80.837587	0.000628	6.283356	2.128859	-0.000252
 828	8.2287e+01	7.0346	80.587285	0.000628	6.283356	2.128859	-0.000252
 829	8.2386e+01	6.9977	80.361205	0.000568	5.675289	1.922840	-0.000227
 830	8.2486e+01	6.9592	80.123014	0.000598	5.979323	2.025849	-0.000239
 831	8.2585e+01	6.9094	79.872712	0.000628	6.283356	2.128859	-0.000252
 832	8.2684e+01	6.8741	79.642595	0.000578	5.776634	1.957176	-0.000231
 833	8.2784e+01	6.8340	79.343847	0.000750	7.499489	2.540896	-0.000300
 834	8.2883e+01	6.7875	79.158139	0.000466	4.661845	1.579476	-0.000187
 835	8.2983e+01	6.7538	78.895725	0.000659	6.587389	2.231868	-0.000264
 836	8.3082e+01	6.7185	78.633311	0.000659	6.587389	2.231868	-0.000264
 837	8.3182e+01	6.6736	78.411269	0.000557	5.573945	1.888504	-0.000223
 838	8.3281e+01	6.6351	78.169041	0.000608	6.080667	2.060186	-0.000243
 839	8.3381e+01	6.5806	77.930850	0.000598	5.979323	2.025849	-0.000239
 840	8.3481e+01	6.5581	77.728993	0.000507	5.067223	1.716821	-0.000203
 841	8.3580e+01	6.5148	77.442356	0.000720	7.195456	2.437887	-0.000288
 842	8.3680e+01	6.4859	77.216277	0.000568	5.675289	1.922840	-0.000227
 843	8.3779e+01	6.4378	76.982123	0.000588	5.877978	1.991513	-0.000235
 844	8.3879e+01	6.3929	76.727783	0.000638	6.384700	2.163195	-0.000256
 845	8.3978e+01	6.3560	76.501704	0.000568	5.675289	1.922840	-0.000227
 846	8.4078e+01	6.3143	76.231216	0.000679	6.790078	2.300541	-0.000272
 847	8.4177e+01	6.2790	75.993025	0.000598	5.979323	2.025849	-0.000239
 848	8.4276e+01	6.2421	75.730611	0.000659	6.587389	2.231868	-0.000264
 849	8.4376e+01	6.1923	75.496457	0.000588	5.877978	1.991513	-0.000235
 850	8.4475e+01	6.1570	75.274414	0.000557	5.573945	1.888504	-0.000223
 851	8.4575e+01	6.1282	75.007963	0.000669	6.688734	2.266204	-0.000268
 852	8.4674e+01	6.0816	74.733438	0.000689	6.891423	2.334877	-0.000276
 853	8.4774e+01	6.0383	74.475062	0.000649	6.486045	2.197532	-0.000260
 854	8.4874e+01	5.9982	74.224759	0.000628	6.283356	2.128859	-0.000252
 855	8.4973e+01	5.9565	73.982531	0.000608	6.080667	2.060186	-0.000243
 856	8.5073e+01	5.9196	73.768563	0.000537	5.371256	1.819831	-0.000215
 857	8.5172e+01	5.8811	73.530372	0.000598	5.979323	2.025849	-0.000239
 858	8.5272e+01	5.8378	73.239698	0.000730	7.296801	2.472223	-0.000292
 859	8.5371e+01	5.7945	72.973247	0.000669	6.688734	2.266204	-0.000268
 860	8.5471e+01	5.7608	72.763316	0.000527	5.269911	1.785494	-0.000211
 861	8.5570e+01	5.7159	72.484754	0.000699	6.992767	2.369214	-0.000280
 862	8.5669e+01	5.6806	72.266748	0.000547	5.472600	1.854167	-0.000219
 863	8.5769e+01	5.6389	72.016446	0.000628	6.283356	2.128859	-0.000252
 864	8.5868e+01	5.5875	71.737883	0.000699	6.992767	2.369214	-0.000280
 865	8.5968e+01	5.5635	71.499692	0.000598	5.979323	2.025849	-0.000239
 866	8.6067e+01	5.5218	71.281687	0.000547	5.472600	1.854167	-0.000219
 867	8.6167e+01	5.4769	70.995051	0.000720	7.195456	2.437887	-0.000288
 868	8.6266e+01	5.4319	70.789157	0.000517	5.168567	1.751158	-0.000207
 869	8.6366e+01	5.4015	70.494446	0.000740	7.398145	2.506559	-0.000296
 870	8.6466e+01	5.3630	70.268366	0.000568	5.675289	1.922840	-0.000227
 871	8.6565e+01	5.3116	70.005952	0.000659	6.587389	2.231868	-0.000264
 872	8.6665e+01	5.2779	69.739501	0.000669	6.688734	2.266204	-0.000268
 873	8.6764e+01	5.2378	69.481125	0.000649	6.486045	2.197532	-0.000260
 874	8.6864e+01	5.2009	69.206599	0.000689	6.891423	2.334877	-0.000276
 875	8.6963e+01	5.1448	68.968408	0.000598	5.979323	2.025849	-0.000239
 876	8.7063e+01	5.1239	68.685809	0.000709	7.094112	2.403550	-0.000284
 877	8.7162e+01	5.0886	68.411284	0.000689	6.891423	2.334877	-0.000276
 878	8.7261e+01	5.0405	68.205390	0.000517	5.168567	1.751158	-0.000207
 879	8.7361e+01	4.9908	67.963162	0.000608	6.080667	2.060186	-0.000243
 880	8.7460e+01	4.9475	67.737082	0.000568	5.675289	1.922840	-0.000227
 881	8.7560e+01	4.9282	67.434297	0.000760	7.600834	2.575232	-0.000304
 882	8.7659e+01	4.8785	67.200143	0.000588	5.877978	1.991513	-0.000235
 883	8.7759e+01	4.8448	66.961952	0.000598	5.979323	2.025849	-0.000239
 884	8.7859e+01	4.8047	66.683390	0.000699	6.992767	2.369214	-0.000280
 885	8.7958e+01	4.7678	66.412901	0.000679	6.790078	2.300541	-0.000272
 886	8.8058e+01	4.7132	66.186822	0.000568	5.675289	1.922840	-0.000227
 887	8.8157e+01	4.6779	65.944594	0.000608	6.080667	2.060186	-0.000243
 888	8.8257e+01	4.6410	65.657957	0.000720	7.195456	2.437887	-0.000288
 889	8.8356e+01	4.5945	65.359209	0.000750	7.499489	2.540896	-0.000300
 890	8.8456e+01	4.5608	65.125055	0.000588	5.877978	1.991513	-0.000235
 891	8.8555e+01	4.5239	64.870716	0.000638	6.384700	2.163195	-0.000256
 892	8.8654e+01	4.4870	64.648673	0.000557	5.573945	1.888504	-0.000223
 893	8.8754e+01	4.4277	64.325702	0.000811	8.107556	2.746914	-0.000325
 894	8.8853e+01	4.4020	64.123845	0.000507	5.067223	1.716821	-0.000203
 895	8.8953e+01	4.3683	63.833172	0.000730	7.296801	2.472223	-0.000292
 896	8.9052e+01	4.3330	63.607092	0.000568	5.675289	1.922840	-0.000227
 897	8.9152e+01	4.2849	63.324493	0.000709	7.094112	2.403550	-0.000284
 898	8.9251e+01	4.2400	63.098413	0.000568	5.675289	1.922840	-0.000227
 899	8.9351e+01	4.2031	62.819851	0.000699	6.992767	2.369214	-0.000280
 900	8.9451e+01	4.1550	62.577623	0.000608	6.080667	2.060186	-0.000243
 901	8.9550e+01	4.1197	62.303097	0.000689	6.891423	2.334877	-0.000276
 902	8.9650e+01	4.0940	62.044721	0.000649	6.486045	2.197532	-0.000260
 903	8.9749e+01	4.0427	61.778270	0.000669	6.688734	2.266204	-0.000268
 904	8.9849e+01	4.0042	61.548153	0.000578	5.776634	1.957176	-0.000231
 905	8.9948e+01	3.9657	61.297850	0.000628	6.283356	2.128859	-0.000252
 906	9.0047e+01	3.9368	60.995065	0.000760	7.600834	2.575232	-0.000304
 907	9.0147e+01	3.8806	60.760911	0.000588	5.877978	1.991513	-0.000235
 908	9.0246e+01	3.8518	60.526758	0.000588	5.877978	1.991513	-0.000235
 909	9.0346e+01	3.8052	60.248195	0.000699	6.992767	2.369214	-0.000280
 910	9.0445e+01	3.7699	59.965596	0.000709	7.094112	2.403550	-0.000284
 911	9.0545e+01	3.7218	59.719330	0.000618	6.182012	2.094522	-0.000248
 912	9.0644e+01	3.6817	59.436731	0.000709	7.094112	2.403550	-0.000284
 913	9.0744e+01	3.6464	59.222763	0.000537	5.371256	1.819831	-0.000215
 914	9.0844e+01	3.6015	58.956312	0.000669	6.688734	2.266204	-0.000268
 915	9.0943e+01	3.5662	58.689861	0.000669	6.688734	2.266204	-0.000268
 916	9.1043e+01	3.5181	58.407261	0.000709	7.094112	2.403550	-0.000284
 917	9.1142e+01	3.4860	58.144847	0.000659	6.587389	2.231868	-0.000264
 918	9.1242e+01	3.4443	57.914731	0.000578	5.776634	1.957176	-0.000231
 919	9.1341e+01	3.3994	57.648280	0.000669	6.688734	2.266204	-0.000268
 920	9.1441e+01	3.3609	57.353569	0.000740	7.398145	2.506559	-0.000296
 921	9.1540e+01	3.3272	57.087118	0.000669	6.688734	2.266204	-0.000268
 922	9.1639e+01	3.2999	56.792407	0.000740	7.398145	2.506559	-0.000296
 923	9.1739e+01	3.2422	56.570365	0.000557	5.573945	1.888504	-0.000223
 924	9.1838e+01	3.2053	56.279691	0.000730	7.296801	2.472223	-0.000292
 925	9.1938e+01	3.1700	56.021314	0.000649	6.486045	2.197532	-0.000260
 926	9.2037e+01	3.1299	55.766975	0.000638	6.384700	2.163195	-0.000256
 927	9.2137e+01	3.0898	55.472264	0.000740	7.398145	2.506559	-0.000296
 928	9.2237e+01	3.0480	55.217924	0.000638	6.384700	2.163195	-0.000256
 929	9.2336e+01	3.0047	54.923213	0.000740	7.398145	2.506559	-0.000296
 930	9.2436e+01	2.9646	54.685022	0.000598	5.979323	2.025849	-0.000239
 931	9.2535e+01	2.9213	54.450868	0.000588	5.877978	1.991513	-0.000235
 932	9.2635e+01	2.8876	54.200566	0.000628	6.283356	2.128859	-0.000252
 933	9.2734e+01	2.8395	53.853372	0.000872	8.715623	2.952933	-0.000349
 934	9.2834e+01	2.8074	53.627293	0.000568	5.675289	1.922840	-0.000227
 935	9.2933e+01	2.7721	53.324507	0.000760	7.600834	2.575232	-0.000304
 936	9.3032e+01	2.7384	53.094391	0.000578	5.776634	1.957176	-0.000231
 937	9.3132e+01	2.6935	52.795643	0.000750	7.499489	2.540896	-0.000300
 938	9.3231e+01	2.6534	52.565526	0.000578	5.776634	1.957176	-0.000231
 939	9.3331e+01	2.6037	52.291001	0.000689	6.891423	2.334877	-0.000276
 940	9.3430e+01	2.5716	52.008401	0.000709	7.094112	2.403550	-0.000284
 941	9.3530e+01	2.5363	51.754062	0.000638	6.384700	2.163195	-0.000256
 942	9.3629e+01	2.4930	51.455314	0.000750	7.499489	2.540896	-0.000300
 943	9.3729e+01	2.4384	51.168677	0.000720	7.195456	2.437887	-0.000288
 944	9.3829e+01	2.4176	50.918374	0.000628	6.283356	2.128859	-0.000252
 945	9.3928e+01	2.3727	50.627701	0.000730	7.296801	2.472223	-0.000292
 946	9.4028e+01	2.3326	50.365287	0.000659	6.587389	2.231868	-0.000264
 947	9.4127e+01	2.2957	50.123059	0.000608	6.080667	2.060186	-0.000243
 948	9.4227e+01	2.2556	49.844496	0.000699	6.992767	2.369214	-0.000280
 949	9.4326e+01	2.2106	49.598231	0.000618	6.182012	2.094522	-0.000248
 950	9.4425e+01	2.1737	49.283335	0.000790	7.904867	2.678242	-0.000316
 951	9.4525e+01	2.1192	49.045144	0.000598	5.979323	2.025849	-0.000239
 952	9.4624e+01	2.0887	48.734284	0.000780	7.803523	2.643905	-0.000312
 953	9.4724e+01	2.0550	48.463796	0.000679	6.790078	2.300541	-0.000272
 954	9.4823e+01	2.0101	48.193308	0.000679	6.790078	2.300541	-0.000272
 955	9.4923e+01	1.9684	47.983377	0.000527	5.269911	1.785494	-0.000211
 956	9.5022e+01	1.9315	47.684629	0.000750	7.499489	2.540896	-0.000300
 957	9.5122e+01	1.8946	47.410104	0.000689	6.891423	2.334877	-0.000276
 958	9.5222e+01	1.8593	47.127504	0.000709	7.094112	2.403550	-0.000284
 959	9.5321e+01	1.8144	46.861053	0.000669	6.688734	2.266204	-0.000268
 960	9.5421e+01	1.7695	46.578454	0.000709	7.094112	2.403550	-0.000284
 961	9.5520e+01	1.7358	46.303928	0.000689	6.891423	2.334877	-0.000276
 962	9.5620e+01	1.6925	46.029403	0.000689	6.891423	2.334877	-0.000276
 963	9.5719e+01	1.6556	45.783138	0.000618	6.182012	2.094522	-0.000248
 964	9.5819e+01	1.6187	45.480353	0.000760	7.600834	2.575232	-0.000304
 965	9.5918e+01	1.5770	45.177567	0.000760	7.600834	2.575232	-0.000304
 966	9.6017e+01	1.5272	44.935339	0.000608	6.080667	2.060186	-0.000243
 967	9.6117e+01	1.4951	44.656777	0.000699	6.992767	2.369214	-0.000280
 968	9.6216e+01	1.4470	44.358029	0.000750	7.499489	2.540896	-0.000300
 969	9.6316e+01	1.4117	44.091578	0.000669	6.688734	2.266204	-0.000268
 970	9.6415e+01	1.3764	43.825127	0.000669	6.688734	2.266204	-0.000268
 971	9.6515e+01	1.3363	43.542528	0.000709	7.094112	2.403550	-0.000284
 972	9.6615e+01	1.2882	43.219557	0.000811	8.107556	2.746914	-0.000325
 973	9.6714e+01	1.2577	42.973291	0.000618	6.182012	2.094522	-0.000248
 974	9.6814e+01	1.2224	42.678580	0.000740	7.398145	2.506559	-0.000296
 975	9.6913e+01	1.1775	42.424241	0.000638	6.384700	2.163195	-0.000256
 976	9.7013e+01	1.1422	42.137604	0.000720	7.195456	2.437887	-0.000288
 977	9.7112e+01	1.0845	41.850968	0.000720	7.195456	2.437887	-0.000288
 978	9.7212e+01	1.0508	41.552220	0.000750	7.499489	2.540896	-0.000300
 979	9.7311e+01	1.0251	41.269620	0.000709	7.094112	2.403550	-0.000284
 980	9.7410e+01	0.9754	40.999132	0.000679	6.790078	2.300541	-0.000272
 981	9.7510e+01	0.9289	40.716532	0.000709	7.094112	2.403550	-0.000284
 982	9.7609e+01	0.8968	40.442007	0.000689	6.891423	2.334877	-0.000276
 983	9.7709e+01	0.8583	40.143259	0.000750	7.499489	2.540896	-0.000300
 984	9.7808e+01	0.8166	39.884883	0.000649	6.486045	2.197532	-0.000260
 985	9.7908e+01	0.7732	39.574023	0.000780	7.803523	2.643905	-0.000312
 986	9.8007e+01	0.7331	39.251052	0.000811	8.107556	2.746914	-0.000325
 987	9.8107e+01	0.6930	38.988638	0.000659	6.587389	2.231868	-0.000264
 988	9.8207e+01	0.6481	38.714113	0.000689	6.891423	2.334877	-0.000276
 989	9.8306e+01	0.6112	38.435551	0.000699	6.992767	2.369214	-0.000280
 990	9.8406e+01	0.5823	38.112580	0.000811	8.107556	2.746914	-0.000325
 991	9.8505e+01	0.5358	37.858240	0.000638	6.384700	2.163195	-0.000256
 992	9.8605e+01	0.4957	37.583715	0.000689	6.891423	2.334877	-0.000276
 993	9.8704e+01	0.4588	37.297079	0.000720	7.195456	2.437887	-0.000288
 994	9.8803e+01	0.4187	37.022553	0.000689	6.891423	2.334877	-0.000276
 995	9.8903e+01	0.3770	36.711694	0.000780	7.803523	2.643905	-0.000312
 996	9.9002e+01	0.3417	36.465429	0.000618	6.182012	2.094522	-0.000248
 997	9.9102e+01	0.2936	36.154569	0.000780	7.803523	2.643905	-0.000312
 998	9.9201e+01	0.2583	35.871970	0.000709	7.094112	2.403550	-0.000284
 999	9.9301e+01	0.2198	35.597444	0.000689	6.891423	2.334877	-0.000276
1000	9.9400e+01	0.1813	35.318882	0.000699	6.992767	2.369214	-0.000280
1001	9.9500e+01	0.1396	35.016097	0.000760	7.600834	2.575232	-0.000304
1002	9.9600e+01	0.1011	34.729460	0.000720	7.195456	2.437887	-0.000288
1003	9.9699e+01	0.0497	34.454935	0.000689	6.891423	2.334877	-0.000276
1004	9.9799e+01	0.0193	34.168298	0.000720	7.195456	2.437887	-0.000288
1005	9.9898e+01	-0.0128	33.938182	0.000578	5.776634	1.957176	-0.000231
1006	9.9998e+01	-0.0594	33.635396	0.000760	7.600834	2.575232	-0.000304
1007	1.0010e+02	-0.0946	33.385094	0.000628	6.283356	2.128859	-0.000252
1008	1.0020e+02	-0.1315	33.082309	0.000760	7.600834	2.575232	-0.000304
1009	1.0030e+02	-0.1733	32.803746	0.000699	6.992767	2.369214	-0.000280
1010	1.0040e+02	-0.2198	32.521147	0.000709	7.094112	2.403550	-0.000284
1011	1.0050e+02	-0.2487	32.226436	0.000740	7.398145	2.506559	-0.000296
1012	1.0059e+02	-0.2888	31.923651	0.000760	7.600834	2.575232	-0.000304
1013	1.0069e+02	-0.3321	31.632977	0.000730	7.296801	2.472223	-0.000292
1014	1.0079e+02	-0.3786	31.346340	0.000720	7.195456	2.437887	-0.000288
1015	1.0089e+02	-0.4139	31.092001	0.000638	6.384700	2.163195	-0.000256
1016	1.0099e+02	-0.4572	30.785179	0.000770	7.702178	2.609569	-0.000308
1017	1.0109e+02	-0.4925	30.510653	0.000689	6.891423	2.334877	-0.000276
1018	1.0119e+02	-0.5182	30.183645	0.000821	8.208901	2.781251	-0.000329
1019	1.0129e+02	-0.5727	29.929306	0.000638	6.384700	2.163195	-0.000256
1020	1.0139e+02	-0.6128	29.626521	0.000760	7.600834	2.575232	-0.000304
1021	1.0149e+02	-0.6465	29.376218	0.000628	6.283356	2.128859	-0.000252
1022	1.0159e+02	-0.6914	29.073433	0.000760	7.600834	2.575232	-0.000304
1023	1.0169e+02	-0.7315	28.770648	0.000760	7.600834	2.575232	-0.000304
1024	1.0179e+02	-0.7684	28.496123	0.000689	6.891423	2.334877	-0.000276
1025	1.0189e+02	-0.8085	28.217560	0.000699	6.992767	2.369214	-0.000280
1026	1.0199e+02	-0.8518	27.866329	0.000882	8.816967	2.987269	-0.000353
1027	1.0209e+02	-0.8855	27.616027	0.000628	6.283356	2.128859	-0.000252
1028	1.0219e+02	-0.9256	27.321316	0.000740	7.398145	2.506559	-0.000296
1029	1.0229e+02	-0.9786	27.030642	0.000730	7.296801	2.472223	-0.000292
1030	1.0239e+02	-1.0075	26.764191	0.000669	6.688734	2.266204	-0.000268
1031	1.0248e+02	-1.0540	26.465443	0.000750	7.499489	2.540896	-0.000300
1032	1.0258e+02	-1.0989	26.186881	0.000699	6.992767	2.369214	-0.000280
1033	1.0268e+02	-1.1326	25.851799	0.000841	8.411589	2.849924	-0.000337
1034	1.0278e+02	-1.1679	25.601496	0.000628	6.283356	2.128859	-0.000252
1035	1.0288e+02	-1.2080	25.282563	0.000801	8.006212	2.712578	-0.000321
1036	1.0298e+02	-1.2529	24.995926	0.000720	7.195456	2.437887	-0.000288
1037	1.0308e+02	-1.2898	24.733512	0.000659	6.587389	2.231868	-0.000264
1038	1.0318e+02	-1.3251	24.438801	0.000740	7.398145	2.506559	-0.000296
1039	1.0328e+02	-1.3780	24.131979	0.000770	7.702178	2.609569	-0.000308
1040	1.0338e+02	-1.4149	23.865528	0.000669	6.688734	2.266204	-0.000268
1041	1.0348e+02	-1.4518	23.554668	0.000780	7.803523	2.643905	-0.000312
1042	1.0358e+02	-1.4871	23.296292	0.000649	6.486045	2.197532	-0.000260
1043	1.0368e+02	-1.5288	22.969284	0.000821	8.208901	2.781251	-0.000329
1044	1.0378e+02	-1.5721	22.686684	0.000709	7.094112	2.403550	-0.000284
1045	1.0388e+02	-1.6090	22.408122	0.000699	6.992767	2.369214	-0.000280
1046	1.0398e+02	-1.6556	22.137634	0.000679	6.790078	2.300541	-0.000272
1047	1.0408e+02	-1.6780	21.838886	0.000750	7.499489	2.540896	-0.000300
1048	1.0418e+02	-1.7246	21.548212	0.000730	7.296801	2.472223	-0.000292
1049	1.0428e+02	-1.7775	21.253501	0.000740	7.398145	2.506559	-0.000296
1050	1.0438e+02	-1.8144	20.987050	0.000669	6.688734	2.266204	-0.000268
1051	1.0447e+02	-1.8545	20.688302	0.000750	7.499489	2.540896	-0.000300
1052	1.0457e+02	-1.8882	20.389554	0.000750	7.499489	2.540896	-0.000300
1053	1.0467e+02	-1.9235	20.102917	0.000720	7.195456	2.437887	-0.000288
1054	1.0477e+02	-1.9652	19.792058	0.000780	7.803523	2.643905	-0.000312
1055	1.0487e+02	-2.0085	19.517533	0.000689	6.891423	2.334877	-0.000276
1056	1.0497e+02	-2.0406	19.263193	0.000638	6.384700	2.163195	-0.000256
1057	1.0507e+02	-2.0903	18.972519	0.000730	7.296801	2.472223	-0.000292
1058	1.0517e+02	-2.1288	18.641474	0.000831	8.310245	2.815587	-0.000333
1059	1.0527e+02	-2.1673	18.419432	0.000557	5.573945	1.888504	-0.000223
1060	1.0537e+02	-2.2122	18.100498	0.000801	8.006212	2.712578	-0.000321
1061	1.0547e+02	-2.2475	17.813861	0.000720	7.195456	2.437887	-0.000288
1062	1.0557e+02	-2.2973	17.527225	0.000720	7.195456	2.437887	-0.000288
1063	1.0567e+02	-2.3197	17.248662	0.000699	6.992767	2.369214	-0.000280
1064	1.0577e+02	-2.3695	16.953952	0.000740	7.398145	2.506559	-0.000296
1065	1.0587e+02	-2.3999	16.727872	0.000568	5.675289	1.922840	-0.000227
1066	1.0597e+02	-2.4497	16.392790	0.000841	8.411589	2.849924	-0.000337
1067	1.0607e+02	-2.4866	16.106153	0.000720	7.195456	2.437887	-0.000288
1068	1.0617e+02	-2.5251	15.839702	0.000669	6.688734	2.266204	-0.000268
1069	1.0627e+02	-2.5604	15.573251	0.000669	6.688734	2.266204	-0.000268
1070	1.0637e+02	-2.6085	15.282577	0.000730	7.296801	2.472223	-0.000292
1071	1.0647e+02	-2.6454	14.943458	0.000851	8.512934	2.884260	-0.000341
1072	1.0656e+02	-2.6855	14.697193	0.000618	6.182012	2.094522	-0.000248
1073	1.0666e+02	-2.7208	14.450927	0.000618	6.182012	2.094522	-0.000248
1074	1.0676e+02	-2.7657	14.152179	0.000750	7.499489	2.540896	-0.000300
1075	1.0686e+02	-2.8058	13.861506	0.000730	7.296801	2.472223	-0.000292
1076	1.0696e+02	-2.8491	13.574869	0.000720	7.195456	2.437887	-0.000288
1077	1.0706e+02	-2.8828	13.292269	0.000709	7.094112	2.403550	-0.000284
1078	1.0716e+02	-2.9165	13.009670	0.000709	7.094112	2.403550	-0.000284
1079	1.0726e+02	-2.9582	12.755330	0.000638	6.384700	2.163195	-0.000256
1080	1.0736e+02	-3.0079	12.456582	0.000750	7.499489	2.540896	-0.000300
1081	1.0746e+02	-3.0336	12.149760	0.000770	7.702178	2.609569	-0.000308
1082	1.0756e+02	-3.0865	11.899458	0.000628	6.283356	2.128859	-0.000252
1083	1.0766e+02	-3.1315	11.584561	0.000790	7.904867	2.678242	-0.000316
1084	1.0776e+02	-3.1635	11.326184	0.000649	6.486045	2.197532	-0.000260
1085	1.0786e+02	-3.2085	11.035511	0.000730	7.296801	2.472223	-0.000292
1086	1.0796e+02	-3.2470	10.781171	0.000638	6.384700	2.163195	-0.000256
1087	1.0806e+02	-3.2807	10.486460	0.000740	7.398145	2.506559	-0.000296
1088	1.0816e+02	-3.3224	10.199823	0.000720	7.195456	2.437887	-0.000288
1089	1.0826e+02	-3.3657	9.937410	0.000659	6.587389	2.231868	-0.000264
1090	1.0836e+02	-3.3962	9.630587	0.000770	7.702178	2.609569	-0.000308
1091	1.0845e+02	-3.4363	9.392396	0.000598	5.979323	2.025849	-0.000239
1092	1.0855e+02	-3.4828	9.033091	0.000902	9.019656	3.055942	-0.000361
1093	1.0865e+02	-3.5165	8.827197	0.000517	5.168567	1.751158	-0.000207
1094	1.0875e+02	-3.5614	8.536524	0.000730	7.296801	2.472223	-0.000292
1095	1.0885e+02	-3.6047	8.229701	0.000770	7.702178	2.609569	-0.000308
1096	1.0895e+02	-3.6416	7.939027	0.000730	7.296801	2.472223	-0.000292
1097	1.0905e+02	-3.6785	7.660465	0.000699	6.992767	2.369214	-0.000280
1098	1.0915e+02	-3.7202	7.414200	0.000618	6.182012	2.094522	-0.000248
1099	1.0925e+02	-3.7603	7.087192	0.000821	8.208901	2.781251	-0.000329
1100	1.0935e+02	-3.8036	6.877261	0.000527	5.269911	1.785494	-0.000211
1101	1.0945e+02	-3.8341	6.562364	0.000790	7.904867	2.678242	-0.000316
1102	1.0955e+02	-3.8855	6.251505	0.000780	7.803523	2.643905	-0.000312
1103	1.0965e+02	-3.9223	6.025425	0.000568	5.675289	1.922840	-0.000227
1104	1.0975e+02	-3.9609	5.738788	0.000720	7.195456	2.437887	-0.000288
1105	1.0985e+02	-4.0026	5.444078	0.000740	7.398145	2.506559	-0.000296
1106	1.0995e+02	-4.0427	5.177627	0.000669	6.688734	2.266204	-0.000268
1107	1.1005e+02	-4.0796	4.915213	0.000659	6.587389	2.231868	-0.000264
1108	1.1015e+02	-4.1197	4.608390	0.000770	7.702178	2.609569	-0.000308
1109	1.1025e+02	-4.1598	4.358088	0.000628	6.283356	2.128859	-0.000252
1110	1.1035e+02	-4.1935	4.103748	0.000638	6.384700	2.163195	-0.000256
1111	1.1044e+02	-4.2304	3.805000	0.000750	7.499489	2.540896	-0.000300
1112	1.1054e+02	-4.2785	3.498178	0.000770	7.702178	2.609569	-0.000308
1113	1.1064e+02	-4.3170	3.219616	0.000699	6.992767	2.369214	-0.000280
1114	1.1074e+02	-4.3571	2.985462	0.000588	5.877978	1.991513	-0.000235
1115	1.1084e+02	-4.3940	2.698825	0.000720	7.195456	2.437887	-0.000288
1116	1.1094e+02	-4.4341	2.420263	0.000699	6.992767	2.369214	-0.000280
1117	1.1104e+02	-4.4838	2.149775	0.000679	6.790078	2.300541	-0.000272
1118	1.1114e+02	-4.5111	1.911584	0.000598	5.979323	2.025849	-0.000239
1119	1.1124e+02	-4.5592	1.633021	0.000699	6.992767	2.369214	-0.000280
1120	1.1134e+02	-4.5945	1.342348	0.000730	7.296801	2.472223	-0.000292
1121	1.1144e+02	-4.6426	1.096082	0.000618	6.182012	2.094522	-0.000248
1122	1.1154e+02	-4.6699	0.781186	0.000790	7.904867	2.678242	-0.000316
1123	1.1164e+02	-4.7116	0.526846	0.000638	6.384700	2.163195	-0.000256
1124	1.1174e+02	-4.7614	0.252321	0.000689	6.891423	2.334877	-0.000276
1125	1.1184e+02	-4.7999	0.026241	0.000568	5.675289	1.922840	-0.000227
1126	1.1194e+02	-4.8400	-0.324989	0.000882	8.816967	2.987269	-0.000353
1127	1.1204e+02	-4.8785	-0.551069	0.000568	5.675289	1.922840	-0.000227
1128	1.1214e+02	-4.9122	-0.833669	0.000709	7.094112	2.403550	-0.000284
1129	1.1224e+02	-4.9555	-1.079934	0.000618	6.182012	2.094522	-0.000248
1130	1.1234e+02	-4.9876	-1.358496	0.000699	6.992767	2.369214	-0.000280
1131	1.1244e+02	-5.0341	-1.653207	0.000740	7.398145	2.506559	-0.000296
1132	1.1253e+02	-5.0758	-1.883324	0.000578	5.776634	1.957176	-0.000231
1133	1.1263e+02	-5.1111	-2.153812	0.000679	6.790078	2.300541	-0.000272
1134	1.1273e+02	-5.1528	-2.448523	0.000740	7.398145	2.506559	-0.000296
1135	1.1283e+02	-5.2025	-2.723048	0.000689	6.891423	2.334877	-0.000276
1136	1.1293e+02	-5.2346	-3.017759	0.000740	7.398145	2.506559	-0.000296
1137	1.1303e+02	-5.2827	-3.247876	0.000578	5.776634	1.957176	-0.000231
1138	1.1313e+02	-5.3164	-3.530475	0.000709	7.094112	2.403550	-0.000284
1139	1.1323e+02	-5.3565	-3.780778	0.000628	6.283356	2.128859	-0.000252
1140	1.1333e+02	-5.4031	-4.075489	0.000740	7.398145	2.506559	-0.000296
1141	1.1343e+02	-5.4335	-4.354051	0.000699	6.992767	2.369214	-0.000280
1142	1.1353e+02	-5.4736	-4.612428	0.000649	6.486045	2.197532	-0.000260
1143	1.1363e+02	-5.5186	-4.866767	0.000638	6.384700	2.163195	-0.000256
1144	1.1373e+02	-5.5539	-5.145329	0.000699	6.992767	2.369214	-0.000280
1145	1.1383e+02	-5.5972	-5.460226	0.000790	7.904867	2.678242	-0.000316
1146	1.1393e+02	-5.6405	-5.678231	0.000547	5.472600	1.854167	-0.000219
1147	1.1403e+02	-5.6726	-5.948720	0.000679	6.790078	2.300541	-0.000272
1148	1.1413e+02	-5.7047	-6.219208	0.000679	6.790078	2.300541	-0.000272
1149	1.1423e+02	-5.7672	-6.481621	0.000659	6.587389	2.231868	-0.000264
1150	1.1433e+02	-5.8089	-6.719812	0.000598	5.979323	2.025849	-0.000239
1151	1.1442e+02	-5.8314	-7.034709	0.000790	7.904867	2.678242	-0.000316
1152	1.1452e+02	-5.8811	-7.280974	0.000618	6.182012	2.094522	-0.000248
1153	1.1462e+02	-5.9164	-7.571648	0.000730	7.296801	2.472223	-0.000292
1154	1.1472e+02	-5.9549	-7.846173	0.000689	6.891423	2.334877	-0.000276
1155	1.1482e+02	-5.9870	-8.092439	0.000618	6.182012	2.094522	-0.000248
1156	1.1492e+02	-6.0255	-8.383112	0.000730	7.296801	2.472223	-0.000292
1157	1.1502e+02	-6.0672	-8.593043	0.000527	5.269911	1.785494	-0.000211
1158	1.1512e+02	-6.1137	-8.895829	0.000760	7.600834	2.575232	-0.000304
1159	1.1522e+02	-6.1506	-9.170354	0.000689	6.891423	2.334877	-0.000276
1160	1.1532e+02	-6.2004	-9.404508	0.000588	5.877978	1.991513	-0.000235
1161	1.1542e+02	-6.2324	-9.674996	0.000679	6.790078	2.300541	-0.000272
1162	1.1552e+02	-6.2693	-9.937410	0.000659	6.587389	2.231868	-0.000264
1163	1.1562e+02	-6.3143	-10.220009	0.000709	7.094112	2.403550	-0.000284
1164	1.1572e+02	-6.3447	-10.482423	0.000659	6.587389	2.231868	-0.000264
1165	1.1582e+02	-6.3961	-10.744837	0.000659	6.587389	2.231868	-0.000264
1166	1.1592e+02	-6.4314	-11.015325	0.000679	6.790078	2.300541	-0.000272
1167	1.1602e+02	-6.4651	-11.233330	0.000547	5.472600	1.854167	-0.000219
1168	1.1612e+02	-6.5148	-11.519967	0.000720	7.195456	2.437887	-0.000288
1169	1.1622e+02	-6.5421	-11.742009	0.000557	5.573945	1.888504	-0.000223
1170	1.1632e+02	-6.5870	-12.016535	0.000689	6.891423	2.334877	-0.000276
1171	1.1642e+02	-6.6271	-12.270874	0.000638	6.384700	2.163195	-0.000256
1172	1.1651e+02	-6.6672	-12.557511	0.000720	7.195456	2.437887	-0.000288
1173	1.1661e+02	-6.7105	-12.783590	0.000568	5.675289	1.922840	-0.000227
1174	1.1671e+02	-6.7442	-13.037930	0.000638	6.384700	2.163195	-0.000256
1175	1.1681e+02	-6.7875	-13.288232	0.000628	6.283356	2.128859	-0.000252
1176	1.1691e+02	-6.8324	-13.591017	0.000760	7.600834	2.575232	-0.000304
1177	1.1701e+02	-6.8741	-13.837283	0.000618	6.182012	2.094522	-0.000248
1178	1.1711e+02	-6.9094	-14.087585	0.000628	6.283356	2.128859	-0.000252
1179	1.1721e+02	-6.9399	-14.325776	0.000598	5.979323	2.025849	-0.000239
1180	1.1731e+02	-6.9961	-14.612413	0.000720	7.195456	2.437887	-0.000288
1181	1.1741e+02	-7.0281	-14.846567	0.000588	5.877978	1.991513	-0.000235
1182	1.1751e+02	-7.0618	-15.125129	0.000699	6.992767	2.369214	-0.000280
1183	1.1761e+02	-7.1068	-15.383506	0.000649	6.486045	2.197532	-0.000260
1184	1.1771e+02	-7.1549	-15.649957	0.000669	6.688734	2.266204	-0.000268
1185	1.1781e+02	-7.1886	-15.888148	0.000598	5.979323	2.025849	-0.000239
1186	1.1791e+02	-7.2303	-16.170747	0.000709	7.094112	2.403550	-0.000284
1187	1.1801e+02	-7.2688	-16.417012	0.000618	6.182012	2.094522	-0.000248
1188	1.1811e+02	-7.3073	-16.643092	0.000568	5.675289	1.922840	-0.000227
1189	1.1821e+02	-7.3474	-16.937803	0.000740	7.398145	2.506559	-0.000296
1190	1.1831e+02	-7.3763	-17.175994	0.000598	5.979323	2.025849	-0.000239
1191	1.1841e+02	-7.4212	-17.430334	0.000638	6.384700	2.163195	-0.000256
1192	1.1850e+02	-7.4613	-17.668525	0.000598	5.979323	2.025849	-0.000239
1193	1.1860e+02	-7.5046	-17.959198	0.000730	7.296801	2.472223	-0.000292
1194	1.1870e+02	-7.5415	-18.169129	0.000527	5.269911	1.785494	-0.000211
1195	1.1880e+02	-7.5848	-18.419432	0.000628	6.283356	2.128859	-0.000252
1196	1.1890e+02	-7.6233	-18.702031	0.000709	7.094112	2.403550	-0.000284
1197	1.1900e+02	-7.6634	-18.968482	0.000669	6.688734	2.266204	-0.000268
1198	1.1910e+02	-7.7051	-19.186488	0.000547	5.472600	1.854167	-0.000219
1199	1.1920e+02	-7.7436	-19.465050	0.000699	6.992767	2.369214	-0.000280
1200	1.1930e+02	-7.7853	-19.719390	0.000638	6.384700	2.163195	-0.000256
1201	1.1940e+02	-7.8190	-19.969692	0.000628	6.283356	2.128859	-0.000252
1202	1.1950e+02	-7.8639	-20.211920	0.000608	6.080667	2.060186	-0.000243
1203	1.1960e+02	-7.8992	-20.458185	0.000618	6.182012	2.094522	-0.000248
1204	1.1970e+02	-7.9410	-20.712525	0.000638	6.384700	2.163195	-0.000256
1205	1.1980e+02	-7.9875	-20.974939	0.000659	6.587389	2.231868	-0.000264
1206	1.1990e+02	-8.0196	-21.201018	0.000568	5.675289	1.922840	-0.000227
1207	1.2000e+02	-8.0693	-21.507841	0.000770	7.702178	2.609569	-0.000308
1208	1.2010e+02	-8.0998	-21.729883	0.000557	5.573945	1.888504	-0.000223
1209	1.2020e+02	-8.1479	-22.016520	0.000720	7.195456	2.437887	-0.000288
1210	1.2030e+02	-8.1864	-22.222414	0.000517	5.168567	1.751158	-0.000207
1211	1.2039e+02	-8.2217	-22.488865	0.000669	6.688734	2.266204	-0.000268
1212	1.2049e+02	-8.2650	-22.751278	0.000659	6.587389	2.231868	-0.000264
1213	1.2059e+02	-8.2971	-22.961210	0.000527	5.269911	1.785494	-0.000211
1214	1.2069e+02	-8.3388	-23.231698	0.000679	6.790078	2.300541	-0.000272
1215	1.2079e+02	-8.3837	-23.461814	0.000578	5.776634	1.957176	-0.000231
1216	1.2089e+02	-8.4302	-23.720191	0.000649	6.486045	2.197532	-0.000260
1217	1.2099e+02	-8.4607	-23.958382	0.000598	5.979323	2.025849	-0.000239
1218	1.2109e+02	-8.4976	-24.208684	0.000628	6.283356	2.128859	-0.000252
1219	1.2119e+02	-8.5393	-24.511470	0.000760	7.600834	2.575232	-0.000304
1220	1.2129e+02	-8.5859	-24.757735	0.000618	6.182012	2.094522	-0.000248
1221	1.2139e+02	-8.6276	-24.947480	0.000476	4.763189	1.613812	-0.000191
1222	1.2149e+02	-8.6580	-25.213931	0.000669	6.688734	2.266204	-0.000268
1223	1.2159e+02	-8.6965	-25.448085	0.000588	5.877978	1.991513	-0.000235
1224	1.2169e+02	-8.7302	-25.678202	0.000578	5.776634	1.957176	-0.000231
1225	1.2179e+02	-8.7816	-25.924467	0.000618	6.182012	2.094522	-0.000248
1226	1.2189e+02	-8.8153	-26.194955	0.000679	6.790078	2.300541	-0.000272
1227	1.2199e+02	-8.8554	-26.412961	0.000547	5.472600	1.854167	-0.000219
1228	1.2209e+02	-8.9035	-26.667300	0.000638	6.384700	2.163195	-0.000256
1229	1.2219e+02	-8.9372	-26.885305	0.000547	5.472600	1.854167	-0.000219
1230	1.2229e+02	-8.9805	-27.115422	0.000578	5.776634	1.957176	-0.000231
1231	1.2239e+02	-9.0142	-27.373799	0.000649	6.486045	2.197532	-0.000260
1232	1.2248e+02	-9.0623	-27.660436	0.000720	7.195456	2.437887	-0.000288
1233	1.2258e+02	-9.1072	-27.890552	0.000578	5.776634	1.957176	-0.000231
1234	1.2268e+02	-9.1457	-28.064149	0.000436	4.357811	1.476466	-0.000174
1235	1.2278e+02	-9.1778	-28.346749	0.000709	7.094112	2.403550	-0.000284
1236	1.2288e+02	-9.2179	-28.576865	0.000578	5.776634	1.957176	-0.000231
1237	1.2298e+02	-9.2596	-28.839279	0.000659	6.587389	2.231868	-0.000264
1238	1.2308e+02	-9.2981	-29.085544	0.000618	6.182012	2.094522	-0.000248
1239	1.2318e+02	-9.3382	-29.295475	0.000527	5.269911	1.785494	-0.000211
1240	1.2328e+02	-9.3832	-29.505407	0.000527	5.269911	1.785494	-0.000211
1241	1.2338e+02	-9.4201	-29.771858	0.000669	6.688734	2.266204	-0.000268
1242	1.2348e+02	-9.4537	-29.997937	0.000568	5.675289	1.922840	-0.000227
1243	1.2358e+02	-9.4971	-30.219980	0.000557	5.573945	1.888504	-0.000223
1244	1.2368e+02	-9.5420	-30.486431	0.000669	6.688734	2.266204	-0.000268
1245	1.2378e+02	-9.5885	-30.789216	0.000760	7.600834	2.575232	-0.000304
1246	1.2388e+02	-9.6222	-30.978961	0.000476	4.763189	1.613812	-0.000191
1247	1.2398e+02	-9.6543	-31.196966	0.000547	5.472600	1.854167	-0.000219
1248	1.2408e+02	-9.6912	-31.459380	0.000659	6.587389	2.231868	-0.000264
1249	1.2418e+02	-9.7345	-31.665274	0.000517	5.168567	1.751158	-0.000207
1250	1.2428e+02	-9.7730	-31.919614	0.000638	6.384700	2.163195	-0.000256
1251	1.2438e+02	-9.8227	-32.173953	0.000638	6.384700	2.163195	-0.000256
1252	1.2447e+02	-9.8580	-32.395996	0.000557	5.573945	1.888504	-0.000223
1253	1.2457e+02	-9.8949	-32.622075	0.000568	5.675289	1.922840	-0.000227
1254	1.2467e+02	-9.9382	-32.872378	0.000628	6.283356	2.128859	-0.000252
1255	1.2477e+02	-9.9783	-33.078272	0.000517	5.168567	1.751158	-0.000207
1256	1.2487e+02	-10.0136	-33.348760	0.000679	6.790078	2.300541	-0.000272
1257	1.2497e+02	-10.0537	-33.578877	0.000578	5.776634	1.957176	-0.000231
1258	1.2507e+02	-10.0970	-33.829179	0.000628	6.283356	2.128859	-0.000252
1259	1.2517e+02	-10.1339	-34.018924	0.000476	4.763189	1.613812	-0.000191
1260	1.2527e+02	-10.1789	-34.301524	0.000709	7.094112	2.403550	-0.000284
1261	1.2537e+02	-10.2158	-34.535678	0.000588	5.877978	1.991513	-0.000235
1262	1.2547e+02	-10.2510	-34.790017	0.000638	6.384700	2.163195	-0.000256
1263	1.2557e+02	-10.2912	-35.020134	0.000578	5.776634	1.957176	-0.000231
1264	1.2567e+02	-10.3393	-35.282548	0.000659	6.587389	2.231868	-0.000264
1265	1.2577e+02	-10.3714	-35.496516	0.000537	5.371256	1.819831	-0.000215
1266	1.2587e+02	-10.4147	-35.706447	0.000527	5.269911	1.785494	-0.000211
1267	1.2597e+02	-10.4628	-35.952712	0.000618	6.182012	2.094522	-0.000248
1268	1.2607e+02	-10.4901	-36.170718	0.000547	5.472600	1.854167	-0.000219
1269	1.2617e+02	-10.5366	-36.429094	0.000649	6.486045	2.197532	-0.000260
1270	1.2627e+02	-10.5735	-36.659211	0.000578	5.776634	1.957176	-0.000231
1271	1.2636e+02	-10.6136	-36.877216	0.000547	5.472600	1.854167	-0.000219
1272	1.2646e+02	-10.6537	-37.127519	0.000628	6.283356	2.128859	-0.000252
1273	1.2656e+02	-10.6890	-37.361673	0.000588	5.877978	1.991513	-0.000235
1274	1.2666e+02	-10.7243	-37.571604	0.000527	5.269911	1.785494	-0.000211
1275	1.2676e+02	-10.7772	-37.817869	0.000618	6.182012	2.094522	-0.000248
1276	1.2686e+02	-10.8093	-38.052023	0.000588	5.877978	1.991513	-0.000235
1277	1.2696e+02	-10.8526	-38.270028	0.000547	5.472600	1.854167	-0.000219
1278	1.2706e+02	-10.8976	-38.540516	0.000679	6.790078	2.300541	-0.000272
1279	1.2716e+02	-10.9296	-38.738336	0.000497	4.965878	1.682485	-0.000199
1280	1.2726e+02	-10.9762	-38.980564	0.000608	6.080667	2.060186	-0.000243
1281	1.2736e+02	-11.0179	-39.238941	0.000649	6.486045	2.197532	-0.000260
1282	1.2746e+02	-11.0467	-39.501355	0.000659	6.587389	2.231868	-0.000264
1283	1.2756e+02	-11.0869	-39.638617	0.000345	3.445711	1.167439	-0.000138
1284	1.2766e+02	-11.1270	-39.913142	0.000689	6.891423	2.334877	-0.000276
1285	1.2776e+02	-11.1687	-40.110962	0.000497	4.965878	1.682485	-0.000199
1286	1.2786e+02	-11.2008	-40.349153	0.000598	5.979323	2.025849	-0.000239
1287	1.2796e+02	-11.2473	-40.579270	0.000578	5.776634	1.957176	-0.000231
1288	1.2806e+02	-11.2922	-40.857832	0.000699	6.992767	2.369214	-0.000280
1289	1.2816e+02	-11.3291	-41.079875	0.000557	5.573945	1.888504	-0.000223
1290	1.2826e+02	-11.3676	-41.350363	0.000679	6.790078	2.300541	-0.000272
1291	1.2835e+02	-11.4045	-41.548182	0.000497	4.965878	1.682485	-0.000199
1292	1.2845e+02	-11.4446	-41.770225	0.000557	5.573945	1.888504	-0.000223
1293	1.2855e+02	-11.4959	-41.984193	0.000537	5.371256	1.819831	-0.000215
1294	1.2865e+02	-11.5392	-42.278904	0.000740	7.398145	2.506559	-0.000296
1295	1.2875e+02	-11.5745	-42.484798	0.000517	5.168567	1.751158	-0.000207
1296	1.2885e+02	-11.6146	-42.706840	0.000557	5.573945	1.888504	-0.000223
1297	1.2895e+02	-11.6483	-42.953106	0.000618	6.182012	2.094522	-0.000248
1298	1.2905e+02	-11.6933	-43.199371	0.000618	6.182012	2.094522	-0.000248
1299	1.2915e+02	-11.7285	-43.433525	0.000588	5.877978	1.991513	-0.000235
1300	1.2925e+02	-11.7703	-43.651530	0.000547	5.472600	1.854167	-0.000219
1301	1.2935e+02	-11.8136	-43.889721	0.000598	5.979323	2.025849	-0.000239
1302	1.2945e+02	-11.8601	-44.131949	0.000608	6.080667	2.060186	-0.000243
1303	1.2955e+02	-11.8954	-44.422623	0.000730	7.296801	2.472223	-0.000292
1304	1.2965e+02	-11.9339	-44.648703	0.000568	5.675289	1.922840	-0.000227
1305	1.2975e+02	-11.9724	-44.907079	0.000649	6.486045	2.197532	-0.000260
1306	1.2985e+02	-12.0093	-45.133159	0.000568	5.675289	1.922840	-0.000227
1307	1.2995e+02	-12.0478	-45.431907	0.000750	7.499489	2.540896	-0.000300
1308	1.3005e+02	-12.0863	-45.625690	0.000486	4.864534	1.648149	-0.000195
1309	1.3015e+02	-12.1184	-45.908289	0.000709	7.094112	2.403550	-0.000284
1310	1.3025e+02	-12.1569	-46.154554	0.000618	6.182012	2.094522	-0.000248
1311	1.3034e+02	-12.2082	-46.416968	0.000659	6.587389	2.231868	-0.000264
1312	1.3044e+02	-12.2467	-46.679382	0.000659	6.587389	2.231868	-0.000264
1313	1.3054e+02	-12.2916	-46.901424	0.000557	5.573945	1.888504	-0.000223
1314	1.3064e+02	-12.3205	-47.208247	0.000770	7.702178	2.609569	-0.000308
1315	1.3074e+02	-12.3686	-47.438363	0.000578	5.776634	1.957176	-0.000231
1316	1.3084e+02	-12.4087	-47.708852	0.000679	6.790078	2.300541	-0.000272
1317	1.3094e+02	-12.4424	-48.007600	0.000750	7.499489	2.540896	-0.000300
1318	1.3104e+02	-12.4809	-48.265976	0.000649	6.486045	2.197532	-0.000260
1319	1.3114e+02	-12.5226	-48.556650	0.000730	7.296801	2.472223	-0.000292
1320	1.3124e+02	-12.5692	-48.806953	0.000628	6.283356	2.128859	-0.000252
1321	1.3134e+02	-12.6045	-49.065329	0.000649	6.486045	2.197532	-0.000260
1322	1.3144e+02	-12.6430	-49.343892	0.000699	6.992767	2.369214	-0.000280
1323	1.3154e+02	-12.6783	-49.606305	0.000659	6.587389	2.231868	-0.000264
1324	1.3164e+02	-12.7264	-49.892942	0.000720	7.195456	2.437887	-0.000288
1325	1.3174e+02	-12.7681	-50.171504	0.000699	6.992767	2.369214	-0.000280
1326	1.3184e+02	-12.8050	-50.450067	0.000699	6.992767	2.369214	-0.000280
1327	1.3194e+02	-12.8371	-50.748815	0.000750	7.499489	2.540896	-0.000300
1328	1.3204e+02	-12.8836	-50.995080	0.000618	6.182012	2.094522	-0.000248
1329	1.3214e+02	-12.9237	-51.330162	0.000841	8.411589	2.849924	-0.000337
1330	1.3224e+02	-12.9638	-51.588539	0.000649	6.486045	2.197532	-0.000260
1331	1.3234e+02	-13.0039	-51.883250	0.000740	7.398145	2.506559	-0.000296
1332	1.3243e+02	-13.0520	-52.145664	0.000659	6.587389	2.231868	-0.000264
1333	1.3253e+02	-13.0905	-52.452486	0.000770	7.702178	2.609569	-0.000308
1334	1.3263e+02	-13.1242	-52.714900	0.000659	6.587389	2.231868	-0.000264
1335	1.3273e+02	-13.1579	-53.045945	0.000831	8.310245	2.815587	-0.000333
1336	1.3283e+02	-13.2109	-53.284136	0.000598	5.979323	2.025849	-0.000239
1337	1.3293e+02	-13.2462	-53.590958	0.000770	7.702178	2.609569	-0.000308
1338	1.3303e+02	-13.2895	-53.954301	0.000912	9.121001	3.090279	-0.000365
1339	1.3313e+02	-13.3264	-54.172306	0.000547	5.472600	1.854167	-0.000219
1340	1.3323e+02	-13.3568	-54.462980	0.000730	7.296801	2.472223	-0.000292
1341	1.3333e+02	-13.4002	-54.794025	0.000831	8.310245	2.815587	-0.000333
1342	1.3343e+02	-13.4387	-55.084699	0.000730	7.296801	2.472223	-0.000292
1343	1.3353e+02	-13.4772	-55.391521	0.000770	7.702178	2.609569	-0.000308
1344	1.3363e+02	-13.5205	-55.698343	0.000770	7.702178	2.609569	-0.000308
1345	1.3373e+02	-13.5622	-55.976906	0.000699	6.992767	2.369214	-0.000280
1346	1.3383e+02	-13.5975	-56.247394	0.000679	6.790078	2.300541	-0.000272
1347	1.3393e+02	-13.6376	-56.614773	0.000922	9.222345	3.124615	-0.000369
1348	1.3403e+02	-13.6809	-56.929670	0.000790	7.904867	2.678242	-0.000316
1349	1.3413e+02	-13.7178	-57.200158	0.000679	6.790078	2.300541	-0.000272
1350	1.3423e+02	-13.7579	-57.523129	0.000811	8.107556	2.746914	-0.000325
1351	1.3432e+02	-13.7980	-57.813802	0.000730	7.296801	2.472223	-0.000292
1352	1.3442e+02	-13.8445	-58.152922	0.000851	8.512934	2.884260	-0.000341
1353	1.3452e+02	-13.8830	-58.431484	0.000699	6.992767	2.369214	-0.000280
1354	1.3462e+02	-13.9199	-58.782715	0.000882	8.816967	2.987269	-0.000353
1355	1.3472e+02	-13.9568	-59.089537	0.000770	7.702178	2.609569	-0.000308
1356	1.3482e+02	-14.0001	-59.388285	0.000750	7.499489	2.540896	-0.000300
1357	1.3492e+02	-14.0354	-59.707219	0.000801	8.006212	2.712578	-0.000321
1358	1.3502e+02	-14.0707	-60.014041	0.000770	7.702178	2.609569	-0.000308
1359	1.3512e+02	-14.1124	-60.357198	0.000861	8.614278	2.918597	-0.000345
1360	1.3522e+02	-14.1686	-60.684206	0.000821	8.208901	2.781251	-0.000329
1361	1.3532e+02	-14.2039	-60.946620	0.000659	6.587389	2.231868	-0.000264
1362	1.3542e+02	-14.2360	-61.301888	0.000892	8.918312	3.021606	-0.000357
1363	1.3552e+02	-14.2841	-61.657156	0.000892	8.918312	3.021606	-0.000357
1364	1.3562e+02	-14.3194	-61.972052	0.000790	7.904867	2.678242	-0.000316
1365	1.3572e+02	-14.3563	-62.311172	0.000851	8.512934	2.884260	-0.000341
1366	1.3582e+02	-14.4012	-62.622031	0.000780	7.803523	2.643905	-0.000312
1367	1.3592e+02	-14.4413	-62.977299	0.000892	8.918312	3.021606	-0.000357
1368	1.3602e+02	-14.4814	-63.276047	0.000750	7.499489	2.540896	-0.000300
1369	1.3612e+02	-14.5103	-63.635352	0.000902	9.019656	3.055942	-0.000361
1370	1.3622e+02	-14.5568	-63.962360	0.000821	8.208901	2.781251	-0.000329
1371	1.3631e+02	-14.5969	-64.293405	0.000831	8.310245	2.815587	-0.000333
1372	1.3641e+02	-14.6402	-64.624450	0.000831	8.310245	2.815587	-0.000333
1373	1.3651e+02	-14.6755	-64.971644	0.000872	8.715623	2.952933	-0.000349
1374	1.3661e+02	-14.7220	-65.314801	0.000861	8.614278	2.918597	-0.000345
1375	1.3671e+02	-14.7541	-65.637771	0.000811	8.107556	2.746914	-0.000325
1376	1.3681e+02	-14.8023	-65.948631	0.000780	7.803523	2.643905	-0.000312
1377	1.3691e+02	-14.8311	-66.364456	0.001044	10.438479	3.536652	-0.000418
1378	1.3701e+02	-14.8777	-66.739909	0.000943	9.425034	3.193288	-0.000377
1379	1.3711e+02	-14.9129	-67.030583	0.000730	7.296801	2.472223	-0.000292
1380	1.3721e+02	-14.9498	-67.397963	0.000922	9.222345	3.124615	-0.000369
1381	1.3731e+02	-15.0044	-67.753231	0.000892	8.918312	3.021606	-0.000357
1382	1.3741e+02	-15.0333	-68.084276	0.000831	8.310245	2.815587	-0.000333
1383	1.3751e+02	-15.0782	-68.395135	0.000780	7.803523	2.643905	-0.000312
1384	1.3761e+02	-15.1247	-68.810960	0.001044	10.438479	3.536652	-0.000418
1385	1.3771e+02	-15.1584	-69.158154	0.000872	8.715623	2.952933	-0.000349
1386	1.3781e+02	-15.1921	-69.497273	0.000851	8.512934	2.884260	-0.000341
1387	1.3791e+02	-15.2322	-69.888875	0.000983	9.830412	3.330634	-0.000394
1388	1.3801e+02	-15.2787	-70.284515	0.000993	9.931756	3.364970	-0.000398
1389	1.3811e+02	-15.3188	-70.583263	0.000750	7.499489	2.540896	-0.000300
1390	1.3821e+02	-15.3637	-70.986976	0.001013	10.134445	3.433643	-0.000406
1391	1.3831e+02	-15.3894	-71.342244	0.000892	8.918312	3.021606	-0.000357
1392	1.3840e+02	-15.4311	-71.713661	0.000932	9.323690	3.158952	-0.000373
1393	1.3850e+02	-15.4841	-72.068929	0.000892	8.918312	3.021606	-0.000357
1394	1.3860e+02	-15.5129	-72.440345	0.000932	9.323690	3.158952	-0.000373
1395	1.3870e+02	-15.5627	-72.835984	0.000993	9.931756	3.364970	-0.000398
1396	1.3880e+02	-15.5947	-73.167030	0.000831	8.310245	2.815587	-0.000333
1397	1.3890e+02	-15.6332	-73.582855	0.001044	10.438479	3.536652	-0.000418
1398	1.3900e+02	-15.6669	-73.926011	0.000861	8.614278	2.918597	-0.000345
1399	1.3910e+02	-15.7119	-74.313576	0.000973	9.729067	3.296297	-0.000390
1400	1.3920e+02	-15.7600	-74.737475	0.001064	10.641167	3.605325	-0.000426
1401	1.3930e+02	-15.8001	-75.096780	0.000902	9.019656	3.055942	-0.000361
1402	1.3940e+02	-15.8322	-75.431863	0.000841	8.411589	2.849924	-0.000337
1403	1.3950e+02	-15.8739	-75.855762	0.001064	10.641167	3.605325	-0.000426
1404	1.3960e+02	-15.9124	-76.259476	0.001013	10.134445	3.433643	-0.000406
1405	1.3970e+02	-15.9605	-76.618781	0.000902	9.019656	3.055942	-0.000361
1406	1.3980e+02	-15.9814	-77.026531	0.001024	10.235790	3.467979	-0.000410
1407	1.3990e+02	-16.0375	-77.414096	0.000973	9.729067	3.296297	-0.000390
1408	1.4000e+02	-16.0824	-77.817810	0.001013	10.134445	3.433643	-0.000406
1409	1.4010e+02	-16.1145	-78.237672	0.001054	10.539823	3.570989	-0.000422
1410	1.4020e+02	-16.1450	-78.661571	0.001064	10.641167	3.605325	-0.000426
1411	1.4029e+02	-16.1851	-79.037025	0.000943	9.425034	3.193288	-0.000377
1412	1.4039e+02	-16.2284	-79.481110	0.001115	11.147890	3.777007	-0.000446
1413	1.4049e+02	-16.2765	-79.844452	0.000912	9.121001	3.090279	-0.000365
1414	1.4059e+02	-16.3167	-80.252203	0.001024	10.235790	3.467979	-0.000410
1415	1.4069e+02	-16.3503	-80.700325	0.001125	11.249234	3.811344	-0.000450
1416	1.4079e+02	-16.3808	-81.095964	0.000993	9.931756	3.364970	-0.000398
1417	1.4089e+02	-16.4273	-81.527938	0.001084	10.843856	3.673998	-0.000434
1418	1.4099e+02	-16.4723	-81.947800	0.001054	10.539823	3.570989	-0.000422
1419	1.4109e+02	-16.5108	-82.383810	0.001095	10.945201	3.708334	-0.000438
1420	1.4119e+02	-16.5557	-82.755227	0.000932	9.323690	3.158952	-0.000373
1421	1.4129e+02	-16.5926	-83.239683	0.001216	12.161334	4.120372	-0.000487
1422	1.4139e+02	-16.6327	-83.683768	0.001115	11.147890	3.777007	-0.000446
1423	1.4149e+02	-16.6696	-84.075370	0.000983	9.830412	3.330634	-0.000394
1424	1.4159e+02	-16.7113	-84.539641	0.001165	11.654612	3.948689	-0.000467
1425	1.4169e+02	-16.7498	-84.963540	0.001064	10.641167	3.605325	-0.000426
1426	1.4179e+02	-16.7851	-85.456071	0.001236	12.364023	4.189044	-0.000495
1427	1.4189e+02	-16.8268	-85.892081	0.001095	10.945201	3.708334	-0.000438
1428	1.4199e+02	-16.8621	-86.311944	0.001054	10.539823	3.570989	-0.000422
1429	1.4209e+02	-16.9054	-86.808511	0.001247	12.465368	4.223381	-0.000499
1430	1.4219e+02	-16.9535	-87.244522	0.001095	10.945201	3.708334	-0.000438
1431	1.4228e+02	-16.9808	-87.696681	0.001135	11.350579	3.845680	-0.000454
1432	1.4238e+02	-17.0225	-88.144803	0.001125	11.249234	3.811344	-0.000450
1433	1.4248e+02	-17.0674	-88.609074	0.001165	11.654612	3.948689	-0.000467
1434	1.4258e+02	-17.1156	-89.069307	0.001155	11.553267	3.914353	-0.000463
1435	1.4268e+02	-17.1380	-89.553764	0.001216	12.161334	4.120372	-0.000487
1436	1.4278e+02	-17.1861	-90.038220	0.001216	12.161334	4.120372	-0.000487
1437	1.4288e+02	-17.2327	-90.514602	0.001196	11.958645	4.051699	-0.000479
1438	1.4298e+02	-17.2551	-91.003095	0.001226	12.262679	4.154708	-0.000491
1439	1.4308e+02	-17.3177	-91.463329	0.001155	11.553267	3.914353	-0.000463
1440	1.4318e+02	-17.3530	-91.972008	0.001277	12.769401	4.326390	-0.000511
1441	1.4328e+02	-17.3883	-92.472613	0.001257	12.566712	4.257717	-0.000503
1442	1.4338e+02	-17.4268	-92.997440	0.001317	13.174779	4.463736	-0.000527
1443	1.4348e+02	-17.4589	-93.485934	0.001226	12.262679	4.154708	-0.000491
1444	1.4358e+02	-17.4990	-93.962316	0.001196	11.958645	4.051699	-0.000479
1445	1.4368e+02	-17.5455	-94.470995	0.001277	12.769401	4.326390	-0.000511
1446	1.4378e+02	-17.5920	-95.024082	0.001388	13.884190	4.704091	-0.000556
1447	1.4388e+02	-17.6225	-95.516613	0.001236	12.364023	4.189044	-0.000495
1448	1.4398e+02	-17.6722	-95.997032	0.001206	12.059990	4.086035	-0.000483
1449	1.4408e+02	-17.6995	-96.533971	0.001348	13.478812	4.566745	-0.000540
1450	1.4418e+02	-17.7412	-97.046687	0.001287	12.870745	4.360727	-0.000515
1451	1.4428e+02	-17.7781	-97.559404	0.001287	12.870745	4.360727	-0.000515
1452	1.4437e+02	-17.8198	-98.108454	0.001378	13.782845	4.669754	-0.000552
1453	1.4447e+02	-17.8519	-98.653467	0.001368	13.681501	4.635418	-0.000548
1454	1.4457e+02	-17.9081	-99.158109	0.001267	12.668056	4.292054	-0.000507
1455	1.4467e+02	-17.9417	-99.715234	0.001399	13.985534	4.738427	-0.000560
1456	1.4477e+02	-17.9979	-100.268322	0.001388	13.884190	4.704091	-0.000556
1457	1.4487e+02	-18.0236	-100.825446	0.001399	13.985534	4.738427	-0.000560
1458	1.4497e+02	-18.0621	-101.422943	0.001500	14.998979	5.081792	-0.000600
1459	1.4507e+02	-18.1038	-101.887213	0.001165	11.654612	3.948689	-0.000467
1460	1.4517e+02	-18.1471	-102.456449	0.001429	14.289568	4.841437	-0.000572
1461	1.4527e+02	-18.1808	-103.126614	0.001682	16.823179	5.699847	-0.000674
1462	1.4537e+02	-18.2273	-103.659516	0.001338	13.377468	4.532409	-0.000536
1463	1.4547e+02	-18.2594	-104.236826	0.001449	14.492257	4.910109	-0.000580
1464	1.4557e+02	-18.3059	-104.842397	0.001520	15.201668	5.150464	-0.000609
1465	1.4567e+02	-18.3524	-105.395484	0.001388	13.884190	4.704091	-0.000556
1466	1.4577e+02	-18.3845	-105.988943	0.001490	14.897634	5.047455	-0.000596
1467	1.4587e+02	-18.4310	-106.642959	0.001642	16.417801	5.562502	-0.000657
1468	1.4597e+02	-18.4615	-107.224307	0.001459	14.593601	4.944446	-0.000584
1469	1.4607e+02	-18.5048	-107.850063	0.001571	15.708390	5.322147	-0.000629
1470	1.4617e+02	-18.5417	-108.443522	0.001490	14.897634	5.047455	-0.000596
1471	1.4626e+02	-18.5850	-109.036981	0.001490	14.897634	5.047455	-0.000596
1472	1.4636e+02	-18.6219	-109.686959	0.001632	16.316457	5.528165	-0.000653
1473	1.4646e+02	-18.6636	-110.324827	0.001601	16.012423	5.425156	-0.000641
1474	1.4656e+02	-18.6989	-110.974806	0.001632	16.316457	5.528165	-0.000653
1475	1.4666e+02	-18.7439	-111.624785	0.001632	16.316457	5.528165	-0.000653
1476	1.4676e+02	-18.7824	-112.254578	0.001581	15.809734	5.356483	-0.000633
1477	1.4686e+02	-18.8225	-112.916668	0.001662	16.620490	5.631174	-0.000665
1478	1.4696e+02	-18.8594	-113.566647	0.001632	16.316457	5.528165	-0.000653
1479	1.4706e+02	-18.9011	-114.220663	0.001642	16.417801	5.562502	-0.000657
1480	1.4716e+02	-18.9444	-114.963496	0.001865	18.647379	6.317903	-0.000747
1481	1.4726e+02	-18.9845	-115.617512	0.001642	16.417801	5.562502	-0.000657
1482	1.4736e+02	-19.0294	-116.239231	0.001561	15.607046	5.287810	-0.000625
1483	1.4746e+02	-19.0663	-116.998212	0.001905	19.052757	6.455249	-0.000763
1484	1.4756e+02	-19.1080	-117.680488	0.001713	17.127212	5.802857	-0.000686
1485	1.4766e+02	-19.1497	-118.386987	0.001774	17.735279	6.008875	-0.000710
1486	1.4776e+02	-19.1786	-119.113671	0.001824	18.242001	6.180557	-0.000730
1487	1.4786e+02	-19.2267	-119.816133	0.001763	17.633935	5.974539	-0.000706
1488	1.4796e+02	-19.2572	-120.518595	0.001763	17.633935	5.974539	-0.000706
1489	1.4806e+02	-19.3053	-121.273539	0.001895	18.951412	6.420912	-0.000759
1490	1.4816e+02	-19.3422	-121.984075	0.001784	17.836623	6.043212	-0.000714
1491	1.4825e+02	-19.3775	-122.775353	0.001986	19.863513	6.729940	-0.000795
1492	1.4835e+02	-19.4160	-123.498001	0.001814	18.140657	6.146221	-0.000726
1493	1.4845e+02	-19.4593	-124.301391	0.002017	20.167546	6.832950	-0.000807
1494	1.4855e+02	-19.4946	-125.040187	0.001855	18.546035	6.283567	-0.000743
1495	1.4865e+02	-19.5412	-125.787057	0.001875	18.748724	6.352240	-0.000751
1496	1.4875e+02	-19.5716	-126.582372	0.001996	19.964857	6.764277	-0.000799
1497	1.4885e+02	-19.6166	-127.381725	0.002007	20.066201	6.798613	-0.000803
1498	1.4895e+02	-19.6535	-128.168967	0.001976	19.762168	6.695604	-0.000791
1499	1.4905e+02	-19.6968	-128.980431	0.002037	20.370235	6.901622	-0.000816
1500	1.4915e+02	-19.7369	-129.791895	0.002037	20.370235	6.901622	-0.000816
1501	1.4925e+02	-19.7850	-130.643731	0.002138	21.383679	7.244987	-0.000856
1502	1.4935e+02	-19.8171	-131.467307	0.002067	20.674268	7.004632	-0.000828
1503	1.4945e+02	-19.8684	-132.278771	0.002037	20.370235	6.901622	-0.000816
1504	1.4955e+02	-19.8957	-133.122532	0.002118	21.180990	7.176314	-0.000848
1505	1.4965e+02	-19.9374	-133.982442	0.002159	21.586368	7.313660	-0.000864
1506	1.4975e+02	-19.9903	-134.830241	0.002128	21.282335	7.210650	-0.000852
1507	1.4985e+02	-20.0096	-135.686114	0.002149	21.485024	7.279323	-0.000860
1508	1.4995e+02	-19.9759	-136.227090	-0.001358	-13.580157	-4.601082	-0.000544
1509	1.5005e+02	-19.9390	-136.743843	-0.001297	-12.972090	-4.395063	-0.000519
1510	1.5015e+02	-19.8973	-137.179854	-0.001095	-10.945201	-3.708334	-0.000438
1511	1.5025e+02	-19.8668	-137.599716	-0.001054	-10.539823	-3.570989	-0.000422
1512	1.5034e+02	-19.8187	-137.922687	-0.000811	-8.107556	-2.746914	-0.000325
1513	1.5044e+02	-19.7786	-138.306215	-0.000963	-9.627723	-3.261961	-0.000385
1514	1.5054e+02	-19.7385	-138.641297	-0.000841	-8.411589	-2.849924	-0.000337
1515	1.5064e+02	-19.6952	-138.952156	-0.000780	-7.803523	-2.643905	-0.000312
1516	1.5074e+02	-19.6502	-139.222644	-0.000679	-6.790078	-2.300541	-0.000272
1517	1.5084e+02	-19.6214	-139.517355	-0.000740	-7.398145	-2.506559	-0.000296
1518	1.5094e+02	-19.5700	-139.751509	-0.000588	-5.877978	-1.991513	-0.000235
1519	1.5104e+02	-19.5347	-140.009886	-0.000649	-6.486045	-2.197532	-0.000260
1520	1.5114e+02	-19.4898	-140.219817	-0.000527	-5.269911	-1.785494	-0.000211
1521	1.5124e+02	-19.4658	-140.437822	-0.000547	-5.472600	-1.854167	-0.000219
1522	1.5134e+02	-19.4241	-140.595271	-0.000395	-3.952434	-1.339121	-0.000158
1523	1.5144e+02	-19.3743	-140.801165	-0.000517	-5.168567	-1.751158	-0.000207
1524	1.5154e+02	-19.3454	-140.962650	-0.000405	-4.053778	-1.373457	-0.000162
1525	1.5164e+02	-19.3037	-141.116061	-0.000385	-3.851089	-1.304784	-0.000154
1526	1.5174e+02	-19.2604	-141.257361	-0.000355	-3.547056	-1.201775	-0.000142
1527	1.5184e+02	-19.2283	-141.394624	-0.000345	-3.445711	-1.167439	-0.000138
1528	1.5194e+02	-19.1770	-141.483441	-0.000223	-2.229578	-0.755401	-0.000089
1529	1.5204e+02	-19.1385	-141.624740	-0.000355	-3.547056	-1.201775	-0.000142
1530	1.5214e+02	-19.1080	-141.721632	-0.000243	-2.432267	-0.824074	-0.000097
1531	1.5224e+02	-19.0647	-141.854857	-0.000334	-3.344367	-1.133102	-0.000134
1532	1.5233e+02	-19.0102	-141.891191	-0.000091	-0.912100	-0.309028	-0.000037
1533	1.5243e+02	-18.9829	-142.016342	-0.000314	-3.141678	-1.064429	-0.000126
1534	1.5253e+02	-18.9332	-142.064788	-0.000122	-1.216133	-0.412037	-0.000049
1535	1.5263e+02	-18.9011	-142.109197	-0.000111	-1.114789	-0.377701	-0.000045
1536	1.5273e+02	-18.8706	-142.153605	-0.000111	-1.114789	-0.377701	-0.000045
1537	1.5283e+02	-18.8225	-142.206088	-0.000132	-1.317478	-0.446374	-0.000053
1538	1.5293e+02	-18.7856	-142.258571	-0.000132	-1.317478	-0.446374	-0.000053
1539	1.5303e+02	-18.7423	-142.278756	-0.000051	-0.506722	-0.171682	-0.000020
1540	1.5313e+02	-18.7086	-142.327202	-0.000122	-1.216133	-0.412037	-0.000049
1541	1.5323e+02	-18.6669	-142.355462	-0.000071	-0.709411	-0.240355	-0.000028
1542	1.5333e+02	-18.6155	-142.379685	-0.000061	-0.608067	-0.206019	-0.000024
1543	1.5343e+02	-18.5786	-142.387759	-0.000020	-0.202689	-0.068673	-0.000008
1544	1.5353e+02	-18.5449	-142.379685	0.000020	0.202689	0.068673	0.000008
1545	1.5363e+02	-18.5032	-142.351425	0.000071	0.709411	0.240355	0.000028
1546	1.5373e+02	-18.4711	-142.367573	-0.000041	-0.405378	-0.137346	-0.000016
1547	1.5383e+02	-18.4214	-142.327202	0.000101	1.013445	0.343364	0.000041
1548	1.5393e+02	-18.3845	-142.335276	-0.000020	-0.202689	-0.068673	-0.000008
1549	1.5403e+02	-18.3428	-142.302979	0.000081	0.810756	0.274691	0.000032
1550	1.5413e+02	-18.3075	-142.282793	0.000051	0.506722	0.171682	0.000020
1551	1.5422e+02	-18.2626	-142.262608	0.000051	0.506722	0.171682	0.000020
1552	1.5432e+02	-18.2209	-142.218199	0.000111	1.114789	0.377701	0.000045
1553	1.5442e+02	-18.1872	-142.161679	0.000142	1.418822	0.480710	0.000057
1554	1.5452e+02	-18.1423	-142.141494	0.000051	0.506722	0.171682	0.000020
1555	1.5462e+02	-18.1038	-142.072862	0.000172	1.722856	0.583719	0.000069
1556	1.5472e+02	-18.0588	-142.040565	0.000081	0.810756	0.274691	0.000032
1557	1.5482e+02	-18.0284	-141.971934	0.000172	1.722856	0.583719	0.000069
1558	1.5492e+02	-17.9899	-141.923488	0.000122	1.216133	0.412037	0.000049
1559	1.5502e+02	-17.9514	-141.830634	0.000233	2.330922	0.789738	0.000093
1560	1.5512e+02	-17.9048	-141.810449	0.000051	0.506722	0.171682	0.000020
1561	1.5522e+02	-17.8695	-141.733743	0.000193	1.925545	0.652392	0.000077
1562	1.5532e+02	-17.8262	-141.636852	0.000243	2.432267	0.824074	0.000097
1563	1.5542e+02	-17.7829	-141.552072	0.000213	2.128233	0.721065	0.000085
1564	1.5552e+02	-17.7364	-141.495552	0.000142	1.418822	0.480710	0.000057
1565	1.5562e+02	-17.7059	-141.386549	0.000274	2.736300	0.927084	0.000110
1566	1.5572e+02	-17.6722	-141.301769	0.000213	2.128233	0.721065	0.000085
1567	1.5582e+02	-17.6273	-141.208915	0.000233	2.330922	0.789738	0.000093
1568	1.5592e+02	-17.5840	-141.116061	0.000233	2.330922	0.789738	0.000093
1569	1.5602e+02	-17.5455	-141.027244	0.000223	2.229578	0.755401	0.000089
1570	1.5612e+02	-17.5086	-140.970724	0.000142	1.418822	0.480710	0.000057
1571	1.5622e+02	-17.4653	-140.877870	0.000233	2.330922	0.789738	0.000093
1572	1.5631e+02	-17.4268	-140.793090	0.000213	2.128233	0.721065	0.000085
1573	1.5641e+02	-17.3915	-140.680050	0.000284	2.837645	0.961420	0.000114
1574	1.5651e+02	-17.3466	-140.583159	0.000243	2.432267	0.824074	0.000097
1575	1.5661e+02	-17.3065	-140.486268	0.000243	2.432267	0.824074	0.000097
1576	1.5671e+02	-17.2680	-140.373228	0.000284	2.837645	0.961420	0.000114
1577	1.5681e+02	-17.2214	-140.244040	0.000324	3.243022	1.098766	0.000130
1578	1.5691e+02	-17.1861	-140.118889	0.000314	3.141678	1.064429	0.000126
1579	1.5701e+02	-17.1412	-140.050257	0.000172	1.722856	0.583719	0.000069
1580	1.5711e+02	-17.1075	-139.929143	0.000304	3.040334	1.030093	0.000122
1581	1.5721e+02	-17.0771	-139.763621	0.000416	4.155123	1.407794	0.000166
1582	1.5731e+02	-17.0305	-139.674804	0.000223	2.229578	0.755401	0.000089
1583	1.5741e+02	-16.9872	-139.553690	0.000304	3.040334	1.030093	0.000122
1584	1.5751e+02	-16.9567	-139.489095	0.000162	1.621511	0.549383	0.000065
1585	1.5761e+02	-16.9006	-139.315499	0.000436	4.357811	1.476466	0.000174
1586	1.5771e+02	-16.8637	-139.210533	0.000263	2.634956	0.892747	0.000105
1587	1.5781e+02	-16.8396	-139.117679	0.000233	2.330922	0.789738	0.000093
1588	1.5791e+02	-16.7867	-138.988491	0.000324	3.243022	1.098766	0.000130
1589	1.5801e+02	-16.7514	-138.883525	0.000263	2.634956	0.892747	0.000105
1590	1.5811e+02	-16.7145	-138.774522	0.000274	2.736300	0.927084	0.000110
1591	1.5821e+02	-16.6664	-138.617074	0.000395	3.952434	1.339121	0.000158
1592	1.5830e+02	-16.6327	-138.471737	0.000365	3.648400	1.236111	0.000146
1593	1.5840e+02	-16.5701	-138.354660	0.000294	2.938989	0.995756	0.000118
1594	1.5850e+02	-16.5428	-138.281992	0.000182	1.824200	0.618056	0.000073
1595	1.5860e+02	-16.5092	-138.112432	0.000426	4.256467	1.442130	0.000170
1596	1.5870e+02	-16.4707	-137.979207	0.000334	3.344367	1.133102	0.000134
1597	1.5880e+02	-16.4306	-137.805610	0.000436	4.357811	1.476466	0.000174
1598	1.5890e+02	-16.3888	-137.724867	0.000203	2.026889	0.686729	0.000081
1599	1.5900e+02	-16.3439	-137.595679	0.000324	3.243022	1.098766	0.000130
1600	1.5910e+02	-16.3118	-137.498788	0.000243	2.432267	0.824074	0.000097
1601	1.5920e+02	-16.2685	-137.300968	0.000497	4.965878	1.682485	0.000199
1602	1.5930e+02	-16.2300	-137.208114	0.000233	2.330922	0.789738	0.000093
1603	1.5940e+02	-16.1979	-137.030480	0.000446	4.459156	1.510803	0.000179
1604	1.5950e+02	-16.1562	-136.901291	0.000324	3.243022	1.098766	0.000130
1605	1.5960e+02	-16.1145	-136.792289	0.000274	2.736300	0.927084	0.000110
1606	1.5970e+02	-16.0744	-136.634840	0.000395	3.952434	1.339121	0.000158
1607	1.5980e+02	-16.0391	-136.497578	0.000345	3.445711	1.167439	0.000138
1608	1.5990e+02	-15.9846	-136.360315	0.000345	3.445711	1.167439	0.000138
1609	1.6000e+02	-15.9621	-136.206904	0.000385	3.851089	1.304784	0.000154
1610	1.6010e+02	-15.9204	-136.073679	0.000334	3.344367	1.133102	0.000134
1611	1.6019e+02	-15.8771	-135.944490	0.000324	3.243022	1.098766	0.000130
1612	1.6029e+02	-15.8322	-135.758782	0.000466	4.661845	1.579476	0.000187
1613	1.6039e+02	-15.7985	-135.633631	0.000314	3.141678	1.064429	0.000126
1614	1.6049e+02	-15.7504	-135.500405	0.000334	3.344367	1.133102	0.000134
1615	1.6059e+02	-15.7038	-135.371217	0.000324	3.243022	1.098766	0.000130
1616	1.6069e+02	-15.6734	-135.197620	0.000436	4.357811	1.476466	0.000174
1617	1.6079e+02	-15.6365	-135.064395	0.000334	3.344367	1.133102	0.000134
1618	1.6089e+02	-15.6012	-134.902909	0.000405	4.053778	1.373457	0.000162
1619	1.6099e+02	-15.5627	-134.765647	0.000345	3.445711	1.167439	0.000138
1620	1.6109e+02	-15.5065	-134.640495	0.000314	3.141678	1.064429	0.000126
1621	1.6119e+02	-15.4680	-134.479010	0.000405	4.053778	1.373457	0.000162
1622	1.6129e+02	-15.4375	-134.349822	0.000324	3.243022	1.098766	0.000130
1623	1.6139e+02	-15.4022	-134.204485	0.000365	3.648400	1.236111	0.000146
1624	1.6149e+02	-15.3541	-134.051074	0.000385	3.851089	1.304784	0.000154
1625	1.6159e+02	-15.3188	-133.885551	0.000416	4.155123	1.407794	0.000166
1626	1.6169e+02	-15.2755	-133.711954	0.000436	4.357811	1.476466	0.000174
1627	1.6179e+02	-15.2450	-133.550469	0.000405	4.053778	1.373457	0.000162
1628	1.6189e+02	-15.1921	-133.405132	0.000365	3.648400	1.236111	0.000146
1629	1.6199e+02	-15.1488	-133.275944	0.000324	3.243022	1.098766	0.000130
1630	1.6209e+02	-15.1071	-133.114458	0.000405	4.053778	1.373457	0.000162
1631	1.6219e+02	-15.0798	-132.965084	0.000375	3.749745	1.270448	0.000150
1632	1.6228e+02	-15.0333	-132.803599	0.000405	4.053778	1.373457	0.000162
1633	1.6238e+02	-14.9835	-132.638076	0.000416	4.155123	1.407794	0.000166
1634	1.6248e+02	-14.9563	-132.496776	0.000355	3.547056	1.201775	0.000142
1635	1.6258e+02	-14.9129	-132.323180	0.000436	4.357811	1.476466	0.000174
1636	1.6268e+02	-14.8825	-132.165731	0.000395	3.952434	1.339121	0.000158
1637	1.6278e+02	-14.8359	-132.000209	0.000416	4.155123	1.407794	0.000166
1638	1.6288e+02	-14.7926	-131.879095	0.000304	3.040334	1.030093	0.000122
1639	1.6298e+02	-14.7541	-131.737795	0.000355	3.547056	1.201775	0.000142
1640	1.6308e+02	-14.7253	-131.535938	0.000507	5.067223	1.716821	0.000203
1641	1.6318e+02	-14.6835	-131.410787	0.000314	3.141678	1.064429	0.000126
1642	1.6328e+02	-14.6450	-131.261413	0.000375	3.749745	1.270448	0.000150
1643	1.6338e+02	-14.5953	-131.108002	0.000385	3.851089	1.304784	0.000154
1644	1.6348e+02	-14.5520	-130.958628	0.000375	3.749745	1.270448	0.000150
1645	1.6358e+02	-14.5183	-130.728511	0.000578	5.776634	1.957176	0.000231
1646	1.6368e+02	-14.4814	-130.611434	0.000294	2.938989	0.995756	0.000118
1647	1.6378e+02	-14.4445	-130.445911	0.000416	4.155123	1.407794	0.000166
1648	1.6388e+02	-14.3948	-130.260203	0.000466	4.661845	1.579476	0.000187
1649	1.6398e+02	-14.3659	-130.175423	0.000213	2.128233	0.721065	0.000085
1650	1.6408e+02	-14.3130	-129.977604	0.000497	4.965878	1.682485	0.000199
1651	1.6418e+02	-14.2761	-129.840341	0.000345	3.445711	1.167439	0.000138
1652	1.6427e+02	-14.2311	-129.695004	0.000365	3.648400	1.236111	0.000146
1653	1.6437e+02	-14.2007	-129.529482	0.000416	4.155123	1.407794	0.000166
1654	1.6447e+02	-14.1590	-129.400293	0.000324	3.243022	1.098766	0.000130
1655	1.6457e+02	-14.1076	-129.162102	0.000598	5.979323	2.025849	0.000239
1656	1.6467e+02	-14.0820	-129.032914	0.000324	3.243022	1.098766	0.000130
1657	1.6477e+02	-14.0386	-128.907763	0.000314	3.141678	1.064429	0.000126
1658	1.6487e+02	-14.0050	-128.730129	0.000446	4.459156	1.510803	0.000179
1659	1.6497e+02	-13.9616	-128.584792	0.000365	3.648400	1.236111	0.000146
1660	1.6507e+02	-13.9247	-128.382935	0.000507	5.067223	1.716821	0.000203
1661	1.6517e+02	-13.8798	-128.229524	0.000385	3.851089	1.304784	0.000154
1662	1.6527e+02	-13.8365	-128.080150	0.000375	3.749745	1.270448	0.000150
1663	1.6537e+02	-13.8012	-127.874256	0.000517	5.168567	1.751158	0.000207
1664	1.6547e+02	-13.7595	-127.724882	0.000375	3.749745	1.270448	0.000150
1665	1.6557e+02	-13.7146	-127.567434	0.000395	3.952434	1.339121	0.000158
1666	1.6567e+02	-13.6745	-127.426134	0.000355	3.547056	1.201775	0.000142
1667	1.6577e+02	-13.6328	-127.248500	0.000446	4.459156	1.510803	0.000179
1668	1.6587e+02	-13.6023	-127.103163	0.000365	3.648400	1.236111	0.000146
1669	1.6597e+02	-13.5606	-126.925529	0.000446	4.459156	1.510803	0.000179
1670	1.6607e+02	-13.5125	-126.764044	0.000405	4.053778	1.373457	0.000162
1671	1.6616e+02	-13.4964	-126.590447	0.000436	4.357811	1.476466	0.000174
1672	1.6626e+02	-13.4483	-126.356293	0.000588	5.877978	1.991513	0.000235
1673	1.6636e+02	-13.4082	-126.243253	0.000284	2.837645	0.961420	0.000114
1674	1.6646e+02	-13.3617	-126.057545	0.000466	4.661845	1.579476	0.000187
1675	1.6656e+02	-13.3232	-125.916245	0.000355	3.547056	1.201775	0.000142
1676	1.6666e+02	-13.2782	-125.718425	0.000497	4.965878	1.682485	0.000199
1677	1.6676e+02	-13.2445	-125.601349	0.000294	2.938989	0.995756	0.000118
1678	1.6686e+02	-13.2012	-125.399492	0.000507	5.067223	1.716821	0.000203
1679	1.6696e+02	-13.1611	-125.229932	0.000426	4.256467	1.442130	0.000170
1680	1.6706e+02	-13.1242	-125.028075	0.000507	5.067223	1.716821	0.000203
1681	1.6716e+02	-13.0825	-124.870627	0.000395	3.952434	1.339121	0.000158
1682	1.6726e+02	-13.0392	-124.688956	0.000456	4.560500	1.545139	0.000183
1683	1.6736e+02	-13.0055	-124.515359	0.000436	4.357811	1.476466	0.000174
1684	1.6746e+02	-12.9590	-124.361948	0.000385	3.851089	1.304784	0.000154
1685	1.6756e+02	-12.9221	-124.176240	0.000466	4.661845	1.579476	0.000187
1686	1.6766e+02	-12.8804	-124.022828	0.000385	3.851089	1.304784	0.000154
1687	1.6776e+02	-12.8419	-123.825009	0.000497	4.965878	1.682485	0.000199
1688	1.6786e+02	-12.8050	-123.663523	0.000405	4.053778	1.373457	0.000162
1689	1.6796e+02	-12.7633	-123.522224	0.000355	3.547056	1.201775	0.000142
1690	1.6806e+02	-12.7264	-123.344590	0.000446	4.459156	1.510803	0.000179
1691	1.6816e+02	-12.6831	-123.150807	0.000486	4.864534	1.648149	0.000195
1692	1.6825e+02	-12.6558	-122.920690	0.000578	5.776634	1.957176	0.000231
1693	1.6835e+02	-12.6077	-122.775353	0.000365	3.648400	1.236111	0.000146
1694	1.6845e+02	-12.5724	-122.601757	0.000436	4.357811	1.476466	0.000174
1695	1.6855e+02	-12.5291	-122.412011	0.000476	4.763189	1.613812	0.000191
1696	1.6865e+02	-12.4761	-122.226303	0.000466	4.661845	1.579476	0.000187
1697	1.6875e+02	-12.4424	-122.060780	0.000416	4.155123	1.407794	0.000166
1698	1.6885e+02	-12.4055	-121.907369	0.000385	3.851089	1.304784	0.000154
1699	1.6895e+02	-12.3622	-121.701475	0.000517	5.168567	1.751158	0.000207
1700	1.6905e+02	-12.3301	-121.580361	0.000304	3.040334	1.030093	0.000122
1701	1.6915e+02	-12.2868	-121.386579	0.000486	4.864534	1.648149	0.000195
1702	1.6925e+02	-12.2467	-121.257390	0.000324	3.243022	1.098766	0.000130
1703	1.6935e+02	-12.2002	-121.023237	0.000588	5.877978	1.991513	0.000235
1704	1.6945e+02	-12.1681	-120.857714	0.000416	4.155123	1.407794	0.000166
1705	1.6955e+02	-12.1104	-120.684117	0.000436	4.357811	1.476466	0.000174
1706	1.6965e+02	-12.0863	-120.506483	0.000446	4.459156	1.510803	0.000179
1707	1.6975e+02	-12.0446	-120.332886	0.000436	4.357811	1.476466	0.000174
1708	1.6985e+02	-12.0093	-120.082584	0.000628	6.283356	2.128859	0.000252
1709	1.6995e+02	-11.9724	-119.945321	0.000345	3.445711	1.167439	0.000138
1710	1.7005e+02	-11.9275	-119.808059	0.000345	3.445711	1.167439	0.000138
1711	1.7015e+02	-11.8922	-119.561793	0.000618	6.182012	2.094522	0.000248
1712	1.7024e+02	-11.8473	-119.396271	0.000416	4.155123	1.407794	0.000166
1713	1.7034e+02	-11.8039	-119.194414	0.000507	5.067223	1.716821	0.000203
1714	1.7044e+02	-11.7670	-119.045040	0.000375	3.749745	1.270448	0.000150
1715	1.7054e+02	-11.7269	-118.871443	0.000436	4.357811	1.476466	0.000174
1716	1.7064e+02	-11.6852	-118.705921	0.000416	4.155123	1.407794	0.000166
1717	1.7074e+02	-11.6548	-118.500027	0.000517	5.168567	1.751158	0.000207
1718	1.7084e+02	-11.6050	-118.326430	0.000436	4.357811	1.476466	0.000174
1719	1.7094e+02	-11.5745	-118.112462	0.000537	5.371256	1.819831	0.000215
1720	1.7104e+02	-11.5296	-117.942902	0.000426	4.256467	1.442130	0.000170
1721	1.7114e+02	-11.4879	-117.737008	0.000517	5.168567	1.751158	0.000207
1722	1.7124e+02	-11.4542	-117.567448	0.000426	4.256467	1.442130	0.000170
1723	1.7134e+02	-11.4189	-117.365592	0.000507	5.067223	1.716821	0.000203
1724	1.7144e+02	-11.3756	-117.179883	0.000466	4.661845	1.579476	0.000187
1725	1.7154e+02	-11.3307	-117.018398	0.000405	4.053778	1.373457	0.000162
1726	1.7164e+02	-11.2906	-116.816541	0.000507	5.067223	1.716821	0.000203
1727	1.7174e+02	-11.2505	-116.614684	0.000507	5.067223	1.716821	0.000203
1728	1.7184e+02	-11.2120	-116.465310	0.000375	3.749745	1.270448	0.000150
1729	1.7194e+02	-11.1799	-116.259416	0.000517	5.168567	1.751158	0.000207
1730	1.7204e+02	-11.1270	-116.045448	0.000537	5.371256	1.819831	0.000215
1731	1.7213e+02	-11.0933	-115.847629	0.000497	4.965878	1.682485	0.000199
1732	1.7223e+02	-11.0467	-115.657883	0.000476	4.763189	1.613812	0.000191
1733	1.7233e+02	-11.0050	-115.476212	0.000456	4.560500	1.545139	0.000183
1734	1.7243e+02	-10.9697	-115.274355	0.000507	5.067223	1.716821	0.000203
1735	1.7253e+02	-10.9328	-115.092684	0.000456	4.560500	1.545139	0.000183
1736	1.7263e+02	-10.8943	-114.842382	0.000628	6.283356	2.128859	0.000252
1737	1.7273e+02	-10.8558	-114.688971	0.000385	3.851089	1.304784	0.000154
1738	1.7283e+02	-10.8157	-114.495188	0.000486	4.864534	1.648149	0.000195
1739	1.7293e+02	-10.7724	-114.301406	0.000486	4.864534	1.648149	0.000195
1740	1.7303e+02	-10.7371	-114.119734	0.000456	4.560500	1.545139	0.000183
1741	1.7313e+02	-10.7002	-113.917878	0.000507	5.067223	1.716821	0.000203
1742	1.7323e+02	-10.6585	-113.744281	0.000436	4.357811	1.476466	0.000174
1743	1.7333e+02	-10.6120	-113.510127	0.000588	5.877978	1.991513	0.000235
1744	1.7343e+02	-10.5767	-113.332493	0.000446	4.459156	1.510803	0.000179
1745	1.7353e+02	-10.5382	-113.114488	0.000547	5.472600	1.854167	0.000219
1746	1.7363e+02	-10.5029	-112.924742	0.000476	4.763189	1.613812	0.000191
1747	1.7373e+02	-10.4452	-112.722886	0.000507	5.067223	1.716821	0.000203
1748	1.7383e+02	-10.4099	-112.533140	0.000476	4.763189	1.613812	0.000191
1749	1.7393e+02	-10.3778	-112.303023	0.000578	5.776634	1.957176	0.000231
1750	1.7403e+02	-10.3473	-112.133464	0.000426	4.256467	1.442130	0.000170
1751	1.7413e+02	-10.2928	-111.923533	0.000527	5.269911	1.785494	0.000211
1752	1.7422e+02	-10.2559	-111.729750	0.000486	4.864534	1.648149	0.000195
1753	1.7432e+02	-10.2077	-111.556153	0.000436	4.357811	1.476466	0.000174
1754	1.7442e+02	-10.1756	-111.398705	0.000395	3.952434	1.339121	0.000158
1755	1.7452e+02	-10.1323	-111.108031	0.000730	7.296801	2.472223	0.000292
1756	1.7462e+02	-10.0858	-110.962694	0.000365	3.648400	1.236111	0.000146
1757	1.7472e+02	-10.0585	-110.744689	0.000547	5.472600	1.854167	0.000219
1758	1.7482e+02	-10.0072	-110.530721	0.000537	5.371256	1.819831	0.000215
1759	1.7492e+02	-9.9783	-110.332901	0.000497	4.965878	1.682485	0.000199
1760	1.7502e+02	-9.9414	-110.131044	0.000507	5.067223	1.716821	0.000203
1761	1.7512e+02	-9.8901	-109.981670	0.000375	3.749745	1.270448	0.000150
1762	1.7522e+02	-9.8468	-109.723294	0.000649	6.486045	2.197532	0.000260
1763	1.7532e+02	-9.8195	-109.537585	0.000466	4.661845	1.579476	0.000187
1764	1.7542e+02	-9.7762	-109.323617	0.000537	5.371256	1.819831	0.000215
1765	1.7552e+02	-9.7345	-109.145983	0.000446	4.459156	1.510803	0.000179
1766	1.7562e+02	-9.6960	-108.927978	0.000547	5.472600	1.854167	0.000219
1767	1.7572e+02	-9.6591	-108.774567	0.000385	3.851089	1.304784	0.000154
1768	1.7582e+02	-9.6142	-108.552524	0.000557	5.573945	1.888504	0.000223
1769	1.7592e+02	-9.5757	-108.322408	0.000578	5.776634	1.957176	0.000231
1770	1.7602e+02	-9.5484	-108.144774	0.000446	4.459156	1.510803	0.000179
1771	1.7612e+02	-9.5003	-107.922731	0.000557	5.573945	1.888504	0.000223
1772	1.7621e+02	-9.4634	-107.749134	0.000436	4.357811	1.476466	0.000174
1773	1.7631e+02	-9.4217	-107.474609	0.000689	6.891423	2.334877	0.000276
1774	1.7641e+02	-9.3799	-107.353495	0.000304	3.040334	1.030093	0.000122
1775	1.7651e+02	-9.3447	-107.111267	0.000608	6.080667	2.060186	0.000243
1776	1.7661e+02	-9.2997	-106.909410	0.000507	5.067223	1.716821	0.000203
1777	1.7671e+02	-9.2564	-106.671219	0.000598	5.979323	2.025849	0.000239
1778	1.7681e+02	-9.2243	-106.529919	0.000355	3.547056	1.201775	0.000142
1779	1.7691e+02	-9.1730	-106.303840	0.000568	5.675289	1.922840	0.000227
1780	1.7701e+02	-9.1281	-106.081797	0.000557	5.573945	1.888504	0.000223
1781	1.7711e+02	-9.0960	-105.871866	0.000527	5.269911	1.785494	0.000211
1782	1.7721e+02	-9.0575	-105.645787	0.000568	5.675289	1.922840	0.000227
1783	1.7731e+02	-9.0158	-105.468153	0.000446	4.459156	1.510803	0.000179
1784	1.7741e+02	-8.9869	-105.238036	0.000578	5.776634	1.957176	0.000231
1785	1.7751e+02	-8.9388	-105.116922	0.000304	3.040334	1.030093	0.000122
1786	1.7761e+02	-8.8987	-104.870656	0.000618	6.182012	2.094522	0.000248
1787	1.7771e+02	-8.8554	-104.588057	0.000709	7.094112	2.403550	0.000284
1788	1.7781e+02	-8.8185	-104.434646	0.000385	3.851089	1.304784	0.000154
1789	1.7791e+02	-8.7880	-104.224715	0.000527	5.269911	1.785494	0.000211
1790	1.7801e+02	-8.7383	-104.006709	0.000547	5.472600	1.854167	0.000219
1791	1.7810e+02	-8.6965	-103.796778	0.000527	5.269911	1.785494	0.000211
1792	1.7820e+02	-8.6677	-103.594922	0.000507	5.067223	1.716821	0.000203
1793	1.7830e+02	-8.6308	-103.389028	0.000517	5.168567	1.751158	0.000207
1794	1.7840e+02	-8.5842	-103.183134	0.000517	5.168567	1.751158	0.000207
1795	1.7850e+02	-8.5329	-102.932831	0.000628	6.283356	2.128859	0.000252
1796	1.7860e+02	-8.5040	-102.739049	0.000486	4.864534	1.648149	0.000195
1797	1.7870e+02	-8.4639	-102.549303	0.000476	4.763189	1.613812	0.000191
1798	1.7880e+02	-8.4238	-102.274778	0.000689	6.891423	2.334877	0.000276
1799	1.7890e+02	-8.3837	-102.060810	0.000537	5.371256	1.819831	0.000215
1800	1.7900e+02	-8.3436	-101.903362	0.000395	3.952434	1.339121	0.000158
1801	1.7910e+02	-8.2971	-101.644985	0.000649	6.486045	2.197532	0.000260
1802	1.7920e+02	-8.2538	-101.467351	0.000446	4.459156	1.510803	0.000179
1803	1.7930e+02	-8.2281	-101.253383	0.000537	5.371256	1.819831	0.000215
1804	1.7940e+02	-8.1816	-100.999043	0.000638	6.384700	2.163195	0.000256
1805	1.7950e+02	-8.1447	-100.841595	0.000395	3.952434	1.339121	0.000158
1806	1.7960e+02	-8.1014	-100.575144	0.000669	6.688734	2.266204	0.000268
1807	1.7970e+02	-8.0597	-100.385399	0.000476	4.763189	1.613812	0.000191
1808	1.7980e+02	-8.0276	-100.215839	0.000426	4.256467	1.442130	0.000170
1809	1.7990e+02	-7.9827	-99.989759	0.000568	5.675289	1.922840	0.000227
1810	1.8000e+02	-7.9506	-99.775791	0.000537	5.371256	1.819831	0.000215
1811	1.8009e+02	-7.9073	-99.509340	0.000669	6.688734	2.266204	0.000268
1812	1.8019e+02	-7.8591	-99.376115	0.000334	3.344367	1.133102	0.000134
1813	1.8029e+02	-7.8206	-99.133887	0.000608	6.080667	2.060186	0.000243
1814	1.8039e+02	-7.7821	-98.907807	0.000568	5.675289	1.922840	0.000227
1815	1.8049e+02	-7.7388	-98.653467	0.000638	6.384700	2.163195	0.000256
1816	1.8059e+02	-7.7035	-98.463722	0.000476	4.763189	1.613812	0.000191
1817	1.8069e+02	-7.6634	-98.225531	0.000598	5.979323	2.025849	0.000239
1818	1.8079e+02	-7.6201	-98.039823	0.000466	4.661845	1.579476	0.000187
1819	1.8089e+02	-7.5896	-97.829892	0.000527	5.269911	1.785494	0.000211
1820	1.8099e+02	-7.5431	-97.603812	0.000568	5.675289	1.922840	0.000227
1821	1.8109e+02	-7.5046	-97.410030	0.000486	4.864534	1.648149	0.000195
1822	1.8119e+02	-7.4597	-97.187987	0.000557	5.573945	1.888504	0.000223
1823	1.8129e+02	-7.4244	-96.986130	0.000507	5.067223	1.716821	0.000203
1824	1.8139e+02	-7.3843	-96.747939	0.000598	5.979323	2.025849	0.000239
1825	1.8149e+02	-7.3554	-96.582417	0.000416	4.155123	1.407794	0.000166
1826	1.8159e+02	-7.3089	-96.299817	0.000709	7.094112	2.403550	0.000284
1827	1.8169e+02	-7.2640	-96.106035	0.000486	4.864534	1.648149	0.000195
1828	1.8179e+02	-7.2255	-95.892067	0.000537	5.371256	1.819831	0.000215
1829	1.8189e+02	-7.1886	-95.670024	0.000557	5.573945	1.888504	0.000223
1830	1.8199e+02	-7.1485	-95.435870	0.000588	5.877978	1.991513	0.000235
1831	1.8209e+02	-7.1019	-95.209791	0.000568	5.675289	1.922840	0.000227
1832	1.8218e+02	-7.0682	-94.975637	0.000588	5.877978	1.991513	0.000235
1833	1.8228e+02	-7.0265	-94.806077	0.000426	4.256467	1.442130	0.000170
1834	1.8238e+02	-6.9784	-94.563849	0.000608	6.080667	2.060186	0.000243
1835	1.8248e+02	-6.9383	-94.378141	0.000466	4.661845	1.579476	0.000187
1836	1.8258e+02	-6.9030	-94.127838	0.000628	6.283356	2.128859	0.000252
1837	1.8268e+02	-6.8613	-93.869462	0.000649	6.486045	2.197532	0.000260
1838	1.8278e+02	-6.8292	-93.671642	0.000497	4.965878	1.682485	0.000199
1839	1.8288e+02	-6.7843	-93.417302	0.000638	6.384700	2.163195	0.000256
1840	1.8298e+02	-6.7474	-93.199297	0.000547	5.472600	1.854167	0.000219
1841	1.8308e+02	-6.7073	-93.001477	0.000497	4.965878	1.682485	0.000199
1842	1.8318e+02	-6.6768	-92.807695	0.000486	4.864534	1.648149	0.000195
1843	1.8328e+02	-6.6303	-92.565467	0.000608	6.080667	2.060186	0.000243
1844	1.8338e+02	-6.5822	-92.347461	0.000547	5.472600	1.854167	0.000219
1845	1.8348e+02	-6.5453	-92.085048	0.000659	6.587389	2.231868	0.000264
1846	1.8358e+02	-6.5084	-91.887228	0.000497	4.965878	1.682485	0.000199
1847	1.8368e+02	-6.4651	-91.608666	0.000699	6.992767	2.369214	0.000280
1848	1.8378e+02	-6.4346	-91.435069	0.000436	4.357811	1.476466	0.000174
1849	1.8388e+02	-6.3993	-91.196878	0.000598	5.979323	2.025849	0.000239
1850	1.8398e+02	-6.3496	-90.926390	0.000679	6.790078	2.300541	0.000272
1851	1.8407e+02	-6.3127	-90.772979	0.000385	3.851089	1.304784	0.000154
1852	1.8417e+02	-6.2742	-90.518639	0.000638	6.384700	2.163195	0.000256
1853	1.8427e+02	-6.2340	-90.308708	0.000527	5.269911	1.785494	0.000211
1854	1.8437e+02	-6.1875	-90.038220	0.000679	6.790078	2.300541	0.000272
1855	1.8447e+02	-6.1635	-89.868660	0.000426	4.256467	1.442130	0.000170
1856	1.8457e+02	-6.1169	-89.553764	0.000790	7.904867	2.678242	0.000316
1857	1.8467e+02	-6.0800	-89.347870	0.000517	5.168567	1.751158	0.000207
1858	1.8477e+02	-6.0351	-89.150050	0.000497	4.965878	1.682485	0.000199
1859	1.8487e+02	-5.9982	-88.903785	0.000618	6.182012	2.094522	0.000248
1860	1.8497e+02	-5.9549	-88.665594	0.000598	5.979323	2.025849	0.000239
1861	1.8507e+02	-5.9036	-88.435477	0.000578	5.776634	1.957176	0.000231
1862	1.8517e+02	-5.8715	-88.225546	0.000527	5.269911	1.785494	0.000211
1863	1.8527e+02	-5.8250	-88.015615	0.000527	5.269911	1.785494	0.000211
1864	1.8537e+02	-5.7897	-87.777424	0.000598	5.979323	2.025849	0.000239
1865	1.8547e+02	-5.7512	-87.482713	0.000740	7.398145	2.506559	0.000296
1866	1.8557e+02	-5.7159	-87.337376	0.000365	3.648400	1.236111	0.000146
1867	1.8567e+02	-5.6694	-87.038628	0.000750	7.499489	2.540896	0.000300
1868	1.8577e+02	-5.6325	-86.844845	0.000486	4.864534	1.648149	0.000195
1869	1.8587e+02	-5.5940	-86.578394	0.000669	6.688734	2.266204	0.000268
1870	1.8597e+02	-5.5522	-86.376538	0.000507	5.067223	1.716821	0.000203
1871	1.8606e+02	-5.5170	-86.146421	0.000578	5.776634	1.957176	0.000231
1872	1.8616e+02	-5.4704	-85.871896	0.000689	6.891423	2.334877	0.000276
1873	1.8626e+02	-5.4416	-85.649853	0.000557	5.573945	1.888504	0.000223
1874	1.8636e+02	-5.3950	-85.443959	0.000517	5.168567	1.751158	0.000207
1875	1.8646e+02	-5.3533	-85.185583	0.000649	6.486045	2.197532	0.000260
1876	1.8656e+02	-5.3132	-84.959503	0.000568	5.675289	1.922840	0.000227
1877	1.8666e+02	-5.2731	-84.721312	0.000598	5.979323	2.025849	0.000239
1878	1.8676e+02	-5.2426	-84.487158	0.000588	5.877978	1.991513	0.000235
1879	1.8686e+02	-5.2009	-84.244930	0.000608	6.080667	2.060186	0.000243
1880	1.8696e+02	-5.1512	-84.022888	0.000557	5.573945	1.888504	0.000223
1881	1.8706e+02	-5.1127	-83.728177	0.000740	7.398145	2.506559	0.000296
1882	1.8716e+02	-5.0790	-83.562654	0.000416	4.155123	1.407794	0.000166
1883	1.8726e+02	-5.0373	-83.312352	0.000628	6.283356	2.128859	0.000252
1884	1.8736e+02	-4.9956	-83.062049	0.000628	6.283356	2.128859	0.000252
1885	1.8746e+02	-4.9587	-82.803673	0.000649	6.486045	2.197532	0.000260
1886	1.8756e+02	-4.9186	-82.577593	0.000568	5.675289	1.922840	0.000227
1887	1.8766e+02	-4.8785	-82.331328	0.000618	6.182012	2.094522	0.000248
1888	1.8776e+02	-4.8368	-82.097174	0.000588	5.877978	1.991513	0.000235
1889	1.8786e+02	-4.7983	-81.818611	0.000699	6.992767	2.369214	0.000280
1890	1.8796e+02	-4.7566	-81.540049	0.000699	6.992767	2.369214	0.000280
1891	1.8806e+02	-4.7148	-81.362415	0.000446	4.459156	1.510803	0.000179
1892	1.8815e+02	-4.6876	-81.116150	0.000618	6.182012	2.094522	0.000248
1893	1.8825e+02	-4.6298	-80.829513	0.000720	7.195456	2.437887	0.000288
1894	1.8835e+02	-4.5913	-80.651879	0.000446	4.459156	1.510803	0.000179
1895	1.8845e+02	-4.5624	-80.369280	0.000709	7.094112	2.403550	0.000284
1896	1.8855e+02	-4.5111	-80.151274	0.000547	5.472600	1.854167	0.000219
1897	1.8865e+02	-4.4854	-79.892898	0.000649	6.486045	2.197532	0.000260
1898	1.8875e+02	-4.4357	-79.630484	0.000659	6.587389	2.231868	0.000264
1899	1.8885e+02	-4.3988	-79.416516	0.000537	5.371256	1.819831	0.000215
1900	1.8895e+02	-4.3587	-79.141990	0.000689	6.891423	2.334877	0.000276
1901	1.8905e+02	-4.3282	-78.859391	0.000709	7.094112	2.403550	0.000284
1902	1.8915e+02	-4.2833	-78.661571	0.000497	4.965878	1.682485	0.000199
1903	1.8925e+02	-4.2432	-78.403195	0.000649	6.486045	2.197532	0.000260
1904	1.8935e+02	-4.1951	-78.140781	0.000659	6.587389	2.231868	0.000264
1905	1.8945e+02	-4.1614	-77.858181	0.000709	7.094112	2.403550	0.000284
1906	1.8955e+02	-4.1213	-77.644213	0.000537	5.371256	1.819831	0.000215
1907	1.8965e+02	-4.0764	-77.369688	0.000689	6.891423	2.334877	0.000276
1908	1.8975e+02	-4.0346	-77.171868	0.000497	4.965878	1.682485	0.000199
1909	1.8985e+02	-4.0026	-76.893306	0.000699	6.992767	2.369214	0.000280
1910	1.8995e+02	-3.9641	-76.606669	0.000720	7.195456	2.437887	0.000288
1911	1.9004e+02	-3.9240	-76.360404	0.000618	6.182012	2.094522	0.000248
1912	1.9014e+02	-3.8806	-76.089916	0.000679	6.790078	2.300541	0.000272
1913	1.9024e+02	-3.8325	-75.847688	0.000608	6.080667	2.060186	0.000243
1914	1.9034e+02	-3.7972	-75.605460	0.000608	6.080667	2.060186	0.000243
1915	1.9044e+02	-3.7635	-75.395528	0.000527	5.269911	1.785494	0.000211
1916	1.9054e+02	-3.7170	-75.084669	0.000780	7.803523	2.643905	0.000312
1917	1.9064e+02	-3.6737	-74.838404	0.000618	6.182012	2.094522	0.000248
1918	1.9074e+02	-3.6512	-74.596176	0.000608	6.080667	2.060186	0.000243
1919	1.9084e+02	-3.5999	-74.341836	0.000638	6.384700	2.163195	0.000256
1920	1.9094e+02	-3.5630	-74.123831	0.000547	5.472600	1.854167	0.000219
1921	1.9104e+02	-3.5309	-73.865454	0.000649	6.486045	2.197532	0.000260
1922	1.9114e+02	-3.4828	-73.550557	0.000790	7.904867	2.678242	0.000316
1923	1.9124e+02	-3.4443	-73.328515	0.000557	5.573945	1.888504	0.000223
1924	1.9134e+02	-3.3978	-73.090324	0.000598	5.979323	2.025849	0.000239
1925	1.9144e+02	-3.3625	-72.831947	0.000649	6.486045	2.197532	0.000260
1926	1.9154e+02	-3.3256	-72.537236	0.000740	7.398145	2.506559	0.000296
1927	1.9164e+02	-3.2726	-72.307120	0.000578	5.776634	1.957176	0.000231
1928	1.9174e+02	-3.2406	-72.105263	0.000507	5.067223	1.716821	0.000203
1929	1.9184e+02	-3.2020	-71.806515	0.000750	7.499489	2.540896	0.000300
1930	1.9194e+02	-3.1652	-71.515841	0.000730	7.296801	2.472223	0.000292
1931	1.9203e+02	-3.1218	-71.249390	0.000669	6.688734	2.266204	0.000268
1932	1.9213e+02	-3.0801	-71.027348	0.000557	5.573945	1.888504	0.000223
1933	1.9223e+02	-3.0480	-70.777045	0.000628	6.283356	2.128859	0.000252
1934	1.9233e+02	-3.0111	-70.538854	0.000598	5.979323	2.025849	0.000239
1935	1.9243e+02	-2.9646	-70.256255	0.000709	7.094112	2.403550	0.000284
1936	1.9253e+02	-2.9293	-69.945395	0.000780	7.803523	2.643905	0.000312
1937	1.9263e+02	-2.8812	-69.719316	0.000568	5.675289	1.922840	0.000227
1938	1.9273e+02	-2.8363	-69.460939	0.000649	6.486045	2.197532	0.000260
1939	1.9283e+02	-2.7978	-69.154117	0.000770	7.702178	2.609569	0.000308
1940	1.9293e+02	-2.7657	-68.956297	0.000497	4.965878	1.682485	0.000199
1941	1.9303e+02	-2.7208	-68.681772	0.000689	6.891423	2.334877	0.000276
1942	1.9313e+02	-2.6887	-68.395135	0.000720	7.195456	2.437887	0.000288
1943	1.9323e+02	-2.6534	-68.140796	0.000638	6.384700	2.163195	0.000256
1944	1.9333e+02	-2.6005	-67.886456	0.000638	6.384700	2.163195	0.000256
1945	1.9343e+02	-2.5652	-67.611931	0.000689	6.891423	2.334877	0.000276
1946	1.9353e+02	-2.5235	-67.377777	0.000588	5.877978	1.991513	0.000235
1947	1.9363e+02	-2.4866	-67.083066	0.000740	7.398145	2.506559	0.000296
1948	1.9373e+02	-2.4513	-66.824689	0.000649	6.486045	2.197532	0.000260
1949	1.9383e+02	-2.4080	-66.550164	0.000689	6.891423	2.334877	0.000276
1950	1.9393e+02	-2.3662	-66.287750	0.000659	6.587389	2.231868	0.000264
1951	1.9403e+02	-2.3245	-66.017262	0.000679	6.790078	2.300541	0.000272
1952	1.9412e+02	-2.2973	-65.783108	0.000588	5.877978	1.991513	0.000235
1953	1.9422e+02	-2.2475	-65.508583	0.000689	6.891423	2.334877	0.000276
1954	1.9432e+02	-2.2042	-65.234058	0.000689	6.891423	2.334877	0.000276
1955	1.9442e+02	-2.1657	-64.947421	0.000720	7.195456	2.437887	0.000288
1956	1.9452e+02	-2.1208	-64.713267	0.000588	5.877978	1.991513	0.000235
1957	1.9462e+02	-2.0935	-64.430668	0.000709	7.094112	2.403550	0.000284
1958	1.9472e+02	-2.0422	-64.152105	0.000699	6.992767	2.369214	0.000280
1959	1.9482e+02	-2.0085	-63.869506	0.000709	7.094112	2.403550	0.000284
1960	1.9492e+02	-1.9700	-63.619204	0.000628	6.283356	2.128859	0.000252
1961	1.9502e+02	-1.9299	-63.385050	0.000588	5.877978	1.991513	0.000235
1962	1.9512e+02	-1.8898	-63.094376	0.000730	7.296801	2.472223	0.000292
1963	1.9522e+02	-1.8497	-62.827925	0.000669	6.688734	2.266204	0.000268
1964	1.9532e+02	-1.7983	-62.496880	0.000831	8.310245	2.815587	0.000333
1965	1.9542e+02	-1.7647	-62.262726	0.000588	5.877978	1.991513	0.000235
1966	1.9552e+02	-1.7197	-61.968015	0.000740	7.398145	2.506559	0.000296
1967	1.9562e+02	-1.6909	-61.733861	0.000588	5.877978	1.991513	0.000235
1968	1.9572e+02	-1.6395	-61.459336	0.000689	6.891423	2.334877	0.000276
1969	1.9582e+02	-1.6155	-61.184811	0.000689	6.891423	2.334877	0.000276
1970	1.9592e+02	-1.5738	-60.890100	0.000740	7.398145	2.506559	0.000296
1971	1.9601e+02	-1.5176	-60.631723	0.000649	6.486045	2.197532	0.000260
1972	1.9611e+02	-1.4903	-60.361235	0.000679	6.790078	2.300541	0.000272
1973	1.9621e+02	-1.4615	-60.119007	0.000608	6.080667	2.060186	0.000243
1974	1.9631e+02	-1.4053	-59.800073	0.000801	8.006212	2.712578	0.000321
1975	1.9641e+02	-1.3604	-59.553808	0.000618	6.182012	2.094522	0.000248
1976	1.9651e+02	-1.3283	-59.283320	0.000679	6.790078	2.300541	0.000272
1977	1.9661e+02	-1.2882	-58.988609	0.000740	7.398145	2.506559	0.000296
1978	1.9671e+02	-1.2449	-58.762529	0.000568	5.675289	1.922840	0.000227
1979	1.9681e+02	-1.2112	-58.467818	0.000740	7.398145	2.506559	0.000296
1980	1.9691e+02	-1.1759	-58.189256	0.000699	6.992767	2.369214	0.000280
1981	1.9701e+02	-1.1374	-57.934916	0.000638	6.384700	2.163195	0.000256
1982	1.9711e+02	-1.0893	-57.648280	0.000720	7.195456	2.437887	0.000288
1983	1.9721e+02	-1.0556	-57.353569	0.000740	7.398145	2.506559	0.000296
1984	1.9731e+02	-1.0075	-57.107304	0.000618	6.182012	2.094522	0.000248
1985	1.9741e+02	-0.9690	-56.812593	0.000740	7.398145	2.506559	0.000296
1986	1.9751e+02	-0.9353	-56.558253	0.000638	6.384700	2.163195	0.000256
1987	1.9761e+02	-0.8823	-56.251431	0.000770	7.702178	2.609569	0.000308
1988	1.9771e+02	-0.8486	-56.013240	0.000598	5.979323	2.025849	0.000239
1989	1.9781e+02	-0.8069	-55.706417	0.000770	7.702178	2.609569	0.000308
1990	1.9791e+02	-0.7732	-55.460152	0.000618	6.182012	2.094522	0.000248
1991	1.9800e+02	-0.7315	-55.157367	0.000760	7.600834	2.575232	0.000304
1992	1.9810e+02	-0.6946	-54.923213	0.000588	5.877978	1.991513	0.000235
1993	1.9820e+02	-0.6481	-54.652725	0.000679	6.790078	2.300541	0.000272
1994	1.9830e+02	-0.6080	-54.398386	0.000638	6.384700	2.163195	0.000256
1995	1.9840e+02	-0.5711	-54.063303	0.000841	8.411589	2.849924	0.000337
1996	1.9850e+02	-0.5326	-53.817038	0.000618	6.182012	2.094522	0.000248
1997	1.9860e+02	-0.4909	-53.526364	0.000730	7.296801	2.472223	0.000292
1998	1.9870e+02	-0.4428	-53.263950	0.000659	6.587389	2.231868	0.000264
1999	1.9880e+02	-0.4123	-53.013648	0.000628	6.283356	2.128859	0.000252
2000	1.9890e+02	-0.3770	-52.686640	0.000821	8.208901	2.781251	0.000329
2001	1.9900e+02	-0.3369	-52.440375	0.000618	6.182012	2.094522	0.000248
2002	1.9910e+02	-0.2888	-52.129515	0.000780	7.803523	2.643905	0.000312
2003	1.9920e+02	-0.2551	-51.826730	0.000760	7.600834	2.575232	0.000304
2004	1.9930e+02	-0.2198	-51.592576	0.000588	5.877978	1.991513	0.000235
2005	1.9940e+02	-0.1781	-51.330162	0.000659	6.587389	2.231868	0.000264
2006	1.9950e+02	-0.1428	-51.059674	0.000679	6.790078	2.300541	0.000272
2007	1.9960e+02	-0.1011	-50.769000	0.000730	7.296801	2.472223	0.000292
2008	1.9970e+02	-0.0626	-50.502550	0.000669	6.688734	2.266204	0.000268
2009	1.9980e+02	-0.0160	-50.191690	0.000669	6.688734	2.266204	0.000312

Center data before PMax,+/-Pr and +/-Vc Calc.

PMax (uC/cm2):	1.42e+02
Pr (uC/cm2):	3.40e+01
-Pr (uC/cm2):	-5.02e+01
PLoss (uC/cm2):	-7.30e+01
-Vc:	-4.80e+00
C (Max-Eff) (nF):	7.13e-01
K (Eff):	2.41e+03
Vert. (+/-Pr) Shift (uC/cm2):	-8.08e+00
Offset (uC/cm2):	-2.28e+01

A (Loop Area - uC/cm2·Volts):	1.27e-01



Hysteresis Version: 5.48.1 - Radiant Technologies, Inc., 1999 - 9/12/24

