»»»»»»»»»»»»»»»»»»»»»»»»»»»»»»»»»»»» Hysteresis ««««««««««««««««««««««««««««««««««««
»»»  Executed Version:	5.48.1
»»»  Vision Version:	5.48.4 (R)
»»»  Vision Compiled:	9/18/24
»»»  Driver Version:	5.47.0
»»»  Windows Version:	Windows 8 or 8.1
»»»  Processor Information:	x86 (AMD or Intel) - 32 Processors
»»»  Tester Name:	PMF21124-494 (100V)
»»»  Tester S/N:	PMF21124-494
»»»  Internal Amp Type:	100V RevK 270k
»»»  Internal Amp S/N:	iAB2-596/K     
»»»  Execution Count:	1
»»»»»»»»»»»»»»»»»»»»»»»»»»»»»»»»»»»»»»»»»»««««««««««««««««««««««««««««««««««««««««««

Stored:	6/5/2025 - 15:43:30
Configured:	06/05/25 02:51:50 PM
Executed:	06/05/25 03:42:55 PM

»»»»»»»»»»»»»»»»»»»»»»»»»»»»»»»»»»» Sample Info ««««««««««««««««««««««««««««««««««««
Sample Name:	
Lot Name:	
Wafer Name:	
Die Row/Column:	0/0
Capacitor Number:	0
Sample Area (cm2):	1.00e-04
Sample Thickness (microns):	3.00e-01

Amplifier:	Internal

»»»»»»»»»»»»»»»»»»»»»»»»»»»»»»»»»»» Tester Info «««««««««««««««««««««««««««««««««««
Tester Name:	PMF21124-494 (100V)
Tester Serial Number:	PMF21124-494
Return Signal Amp. Level:	0.19 [Index: 3]

»»»»»»»»»»»»»»»»»»»»»»»»»»»»»»»» Hysteresis Info ««««««««««««««««««««««««««««««««««
Task Name:	Hyst-353
Volts:	20.00
Field:	666.67 (kV/cm)
DCBias:	0.00
DCField:	0.00 (kV/cm)
Hysteresis Period (ms):	2.00e+02
Preset:	Enabled
Preset Delay (ms):	1.00e+03
Profile:	Standard Bipolar

»»»»»»»»»»»»»»»»»»»»»»»»»»»»»»»»»»»»»» Data «««««««««««««««««««««««««««««««««««««««
Points:	2009

Valid Data

Point	Time (ms)	Drive Voltage	Measured Polarization (uC/cm2)	Capacitance (uF)	Normalized Capacitance (uF/cm2)	Dielectric Constant	Instantaneous Current (mA)
   1	0.0000e+00	0.0048	-0.902300	0.000537	5.372118	1.820123	0.000215
   2	9.9500e-02	0.0337	-0.688332	0.000537	5.372118	1.820123	0.000215
   3	1.9900e-01	0.0770	-0.385546	0.000760	7.602054	2.575645	0.000304
   4	2.9850e-01	0.1075	-0.054501	0.000831	8.311579	2.816039	0.000333
   5	3.9800e-01	0.1492	0.211950	0.000669	6.689807	2.266568	0.000268
   6	4.9750e-01	0.1861	0.518772	0.000770	7.703414	2.609987	0.000308
   7	5.9700e-01	0.2278	0.841743	0.000811	8.108857	2.747355	0.000325
   8	6.9650e-01	0.2551	1.083971	0.000608	6.081643	2.060516	0.000243
   9	7.9600e-01	0.3080	1.382719	0.000750	7.500693	2.541304	0.000300
  10	8.9550e-01	0.3529	1.677430	0.000740	7.399332	2.506962	0.000296
  11	9.9500e-01	0.3866	2.008475	0.000831	8.311579	2.816039	0.000333
  12	1.0945e+00	0.4267	2.319334	0.000780	7.804775	2.644329	0.000312
  13	1.1940e+00	0.4668	2.630194	0.000780	7.804775	2.644329	0.000312
  14	1.2935e+00	0.4989	2.953165	0.000811	8.108857	2.747355	0.000325
  15	1.3930e+00	0.5390	3.231727	0.000699	6.993889	2.369594	0.000280
  16	1.4925e+00	0.5888	3.542587	0.000780	7.804775	2.644329	0.000312
  17	1.5920e+00	0.6289	3.885743	0.000862	8.615661	2.919065	0.000345
  18	1.6915e+00	0.6625	4.156231	0.000679	6.791168	2.300910	0.000272
  19	1.7910e+00	0.7107	4.483239	0.000821	8.210218	2.781697	0.000329
  20	1.8905e+00	0.7508	4.773913	0.000730	7.297971	2.472620	0.000292
  21	1.9900e+00	0.7813	5.100921	0.000821	8.210218	2.781697	0.000329
  22	2.0895e+00	0.8246	5.472337	0.000933	9.325186	3.159458	0.000373
  23	2.1890e+00	0.8679	5.734751	0.000659	6.588446	2.232226	0.000264
  24	2.2885e+00	0.9048	6.029462	0.000740	7.399332	2.506962	0.000296
  25	2.3880e+00	0.9497	6.352433	0.000811	8.108857	2.747355	0.000325
  26	2.4875e+00	0.9882	6.695590	0.000862	8.615661	2.919065	0.000345
  27	2.5870e+00	1.0283	6.949929	0.000639	6.385725	2.163542	0.000256
  28	2.6865e+00	1.0652	7.325383	0.000943	9.426546	3.193800	0.000377
  29	2.7860e+00	1.1037	7.591834	0.000669	6.689807	2.266568	0.000268
  30	2.8855e+00	1.1374	7.951139	0.000902	9.021104	3.056433	0.000361
  31	2.9850e+00	1.1919	8.306407	0.000892	8.919743	3.022091	0.000357
  32	3.0845e+00	1.2337	8.564783	0.000649	6.487086	2.197884	0.000260
  33	3.1840e+00	1.2722	8.891791	0.000821	8.210218	2.781697	0.000329
  34	3.2835e+00	1.3026	9.222837	0.000831	8.311579	2.816039	0.000333
  35	3.3830e+00	1.3443	9.513510	0.000730	7.297971	2.472620	0.000292
  36	3.4825e+00	1.3812	9.884927	0.000933	9.325186	3.159458	0.000373
  37	3.5820e+00	1.4230	10.179638	0.000740	7.399332	2.506962	0.000296
  38	3.6815e+00	1.4647	10.510683	0.000831	8.311579	2.816039	0.000333
  39	3.7810e+00	1.5080	10.801357	0.000730	7.297971	2.472620	0.000292
  40	3.8805e+00	1.5417	11.148550	0.000872	8.717021	2.953407	0.000349
  41	3.9800e+00	1.5802	11.483633	0.000841	8.412939	2.850381	0.000337
  42	4.0795e+00	1.6090	11.766232	0.000710	7.095250	2.403936	0.000284
  43	4.1790e+00	1.6668	12.097277	0.000831	8.311579	2.816039	0.000333
  44	4.2785e+00	1.7053	12.412174	0.000791	7.906136	2.678671	0.000316
  45	4.3780e+00	1.7486	12.731108	0.000801	8.007496	2.713013	0.000321
  46	4.4775e+00	1.7839	13.074264	0.000862	8.615661	2.919065	0.000345
  47	4.5770e+00	1.8240	13.397235	0.000811	8.108857	2.747355	0.000325
  48	4.6765e+00	1.8593	13.736354	0.000851	8.514300	2.884723	0.000341
  49	4.7760e+00	1.9042	14.022991	0.000720	7.196611	2.438278	0.000288
  50	4.8755e+00	1.9395	14.362110	0.000851	8.514300	2.884723	0.000341
  51	4.9750e+00	1.9828	14.672970	0.000780	7.804775	2.644329	0.000312
  52	5.0745e+00	2.0278	14.995941	0.000811	8.108857	2.747355	0.000325
  53	5.1740e+00	2.0727	15.355246	0.000902	9.021104	3.056433	0.000361
  54	5.2735e+00	2.1015	15.653994	0.000750	7.500693	2.541304	0.000300
  55	5.3730e+00	2.1433	15.981002	0.000821	8.210218	2.781697	0.000329
  56	5.4725e+00	2.1898	16.295898	0.000791	7.906136	2.678671	0.000316
  57	5.5720e+00	2.2299	16.626944	0.000831	8.311579	2.816039	0.000333
  58	5.6715e+00	2.2668	16.990286	0.000912	9.122464	3.090775	0.000365
  59	5.7710e+00	2.3037	17.236551	0.000618	6.183004	2.094858	0.000248
  60	5.8705e+00	2.3438	17.612005	0.000943	9.426546	3.193800	0.000377
  61	5.9700e+00	2.3855	17.890567	0.000699	6.993889	2.369594	0.000280
  62	6.0695e+00	2.4336	18.249872	0.000902	9.021104	3.056433	0.000361
  63	6.1690e+00	2.4513	18.532472	0.000710	7.095250	2.403936	0.000284
  64	6.2685e+00	2.5026	18.891777	0.000902	9.021104	3.056433	0.000361
  65	6.3680e+00	2.5427	19.190525	0.000750	7.500693	2.541304	0.000300
  66	6.4675e+00	2.5908	19.529644	0.000851	8.514300	2.884723	0.000341
  67	6.5670e+00	2.6165	19.840504	0.000780	7.804775	2.644329	0.000312
  68	6.6665e+00	2.6582	20.147326	0.000770	7.703414	2.609987	0.000308
  69	6.7660e+00	2.7015	20.466260	0.000801	8.007496	2.713013	0.000321
  70	6.8655e+00	2.7432	20.793268	0.000821	8.210218	2.781697	0.000329
  71	6.9650e+00	2.7898	21.116238	0.000811	8.108857	2.747355	0.000325
  72	7.0645e+00	2.8218	21.431135	0.000791	7.906136	2.678671	0.000316
  73	7.1640e+00	2.8603	21.754106	0.000811	8.108857	2.747355	0.000325
  74	7.2635e+00	2.9069	22.060928	0.000770	7.703414	2.609987	0.000308
  75	7.3630e+00	2.9422	22.400048	0.000851	8.514300	2.884723	0.000341
  76	7.4625e+00	2.9775	22.706870	0.000770	7.703414	2.609987	0.000308
  77	7.5620e+00	3.0176	23.005618	0.000750	7.500693	2.541304	0.000300
  78	7.6615e+00	3.0705	23.372997	0.000922	9.223825	3.125117	0.000369
  79	7.7610e+00	3.1026	23.675783	0.000760	7.602054	2.575645	0.000304
  80	7.8605e+00	3.1427	23.982605	0.000770	7.703414	2.609987	0.000308
  81	7.9600e+00	3.1732	24.305576	0.000811	8.108857	2.747355	0.000325
  82	8.0595e+00	3.2309	24.620472	0.000791	7.906136	2.678671	0.000316
  83	8.1590e+00	3.2550	24.915183	0.000740	7.399332	2.506962	0.000296
  84	8.2585e+00	3.3047	25.302748	0.000973	9.730629	3.296826	0.000390
  85	8.3580e+00	3.3416	25.557088	0.000639	6.385725	2.163542	0.000256
  86	8.4575e+00	3.3785	25.876022	0.000801	8.007496	2.713013	0.000321
  87	8.5570e+00	3.4138	26.211104	0.000841	8.412939	2.850381	0.000337
  88	8.6565e+00	3.4667	26.501778	0.000730	7.297971	2.472620	0.000292
  89	8.7560e+00	3.4988	26.873194	0.000933	9.325186	3.159458	0.000373
  90	8.8555e+00	3.5389	27.139645	0.000669	6.689807	2.266568	0.000268
  91	8.9550e+00	3.5806	27.498950	0.000902	9.021104	3.056433	0.000361
  92	9.0545e+00	3.6191	27.777512	0.000699	6.993889	2.369594	0.000280
  93	9.1540e+00	3.6544	28.120669	0.000862	8.615661	2.919065	0.000345
  94	9.2535e+00	3.6881	28.383083	0.000659	6.588446	2.232226	0.000264
  95	9.3530e+00	3.7363	28.710091	0.000821	8.210218	2.781697	0.000329
  96	9.4525e+00	3.7780	29.029025	0.000801	8.007496	2.713013	0.000321
  97	9.5520e+00	3.8149	29.384292	0.000892	8.919743	3.022091	0.000357
  98	9.6515e+00	3.8582	29.679003	0.000740	7.399332	2.506962	0.000296
  99	9.7510e+00	3.9015	29.973714	0.000740	7.399332	2.506962	0.000296
 100	9.8505e+00	3.9352	30.304759	0.000831	8.311579	2.816039	0.000333
 101	9.9500e+00	3.9785	30.639842	0.000841	8.412939	2.850381	0.000337
 102	1.0050e+01	4.0170	30.942627	0.000760	7.602054	2.575645	0.000304
 103	1.0149e+01	4.0539	31.261561	0.000801	8.007496	2.713013	0.000321
 104	1.0248e+01	4.0908	31.544160	0.000710	7.095250	2.403936	0.000284
 105	1.0348e+01	4.1229	31.883279	0.000851	8.514300	2.884723	0.000341
 106	1.0447e+01	4.1710	32.206250	0.000811	8.108857	2.747355	0.000325
 107	1.0547e+01	4.2191	32.496924	0.000730	7.297971	2.472620	0.000292
 108	1.0646e+01	4.2624	32.823932	0.000821	8.210218	2.781697	0.000329
 109	1.0746e+01	4.2897	33.142866	0.000801	8.007496	2.713013	0.000321
 110	1.0845e+01	4.3411	33.441614	0.000750	7.500693	2.541304	0.000300
 111	1.0945e+01	4.3731	33.808993	0.000922	9.223825	3.125117	0.000369
 112	1.1044e+01	4.4213	34.075444	0.000669	6.689807	2.266568	0.000268
 113	1.1144e+01	4.4534	34.398415	0.000811	8.108857	2.747355	0.000325
 114	1.1243e+01	4.4983	34.709275	0.000780	7.804775	2.644329	0.000312
 115	1.1343e+01	4.5384	35.003985	0.000740	7.399332	2.506962	0.000296
 116	1.1443e+01	4.5785	35.335031	0.000831	8.311579	2.816039	0.000333
 117	1.1542e+01	4.6154	35.605519	0.000679	6.791168	2.300910	0.000272
 118	1.1642e+01	4.6603	35.948675	0.000862	8.615661	2.919065	0.000345
 119	1.1741e+01	4.6940	36.219163	0.000679	6.791168	2.300910	0.000272
 120	1.1841e+01	4.7341	36.570394	0.000882	8.818382	2.987749	0.000353
 121	1.1940e+01	4.7742	36.885291	0.000791	7.906136	2.678671	0.000316
 122	1.2040e+01	4.8255	37.180002	0.000740	7.399332	2.506962	0.000296
 123	1.2139e+01	4.8544	37.470675	0.000730	7.297971	2.472620	0.000292
 124	1.2239e+01	4.8977	37.777498	0.000770	7.703414	2.609987	0.000308
 125	1.2338e+01	4.9282	38.064134	0.000720	7.196611	2.438278	0.000288
 126	1.2438e+01	4.9747	38.391142	0.000821	8.210218	2.781697	0.000329
 127	1.2537e+01	5.0116	38.689890	0.000750	7.500693	2.541304	0.000300
 128	1.2636e+01	5.0549	39.029010	0.000851	8.514300	2.884723	0.000341
 129	1.2736e+01	5.0950	39.279312	0.000628	6.284364	2.129200	0.000252
 130	1.2835e+01	5.1335	39.630543	0.000882	8.818382	2.987749	0.000353
 131	1.2935e+01	5.1769	39.937365	0.000770	7.703414	2.609987	0.000308
 132	1.3034e+01	5.2138	40.207853	0.000679	6.791168	2.300910	0.000272
 133	1.3134e+01	5.2410	40.546973	0.000851	8.514300	2.884723	0.000341
 134	1.3233e+01	5.2892	40.853795	0.000770	7.703414	2.609987	0.000308
 135	1.3333e+01	5.3293	41.116209	0.000659	6.588446	2.232226	0.000264
 136	1.3432e+01	5.3774	41.394771	0.000699	6.993889	2.369594	0.000280
 137	1.3532e+01	5.4111	41.786373	0.000983	9.831989	3.331168	0.000394
 138	1.3632e+01	5.4512	42.040713	0.000639	6.385725	2.163542	0.000256
 139	1.3731e+01	5.4897	42.387907	0.000872	8.717021	2.953407	0.000349
 140	1.3831e+01	5.5330	42.678580	0.000730	7.297971	2.472620	0.000292
 141	1.3930e+01	5.5795	42.993477	0.000791	7.906136	2.678671	0.000316
 142	1.4030e+01	5.6164	43.243779	0.000628	6.284364	2.129200	0.000252
 143	1.4129e+01	5.6533	43.562713	0.000801	8.007496	2.713013	0.000321
 144	1.4229e+01	5.6918	43.897795	0.000841	8.412939	2.850381	0.000337
 145	1.4328e+01	5.7255	44.180395	0.000710	7.095250	2.403936	0.000284
 146	1.4428e+01	5.7656	44.503366	0.000811	8.108857	2.747355	0.000325
 147	1.4527e+01	5.8073	44.769817	0.000669	6.689807	2.266568	0.000268
 148	1.4627e+01	5.8506	45.088750	0.000801	8.007496	2.713013	0.000321
 149	1.4726e+01	5.8859	45.403647	0.000791	7.906136	2.678671	0.000316
 150	1.4825e+01	5.9357	45.726618	0.000811	8.108857	2.747355	0.000325
 151	1.4925e+01	5.9758	46.049589	0.000811	8.108857	2.747355	0.000325
 152	1.5024e+01	6.0191	46.291817	0.000608	6.081643	2.060516	0.000243
 153	1.5124e+01	6.0431	46.630936	0.000851	8.514300	2.884723	0.000341
 154	1.5223e+01	6.0977	46.909499	0.000699	6.993889	2.369594	0.000280
 155	1.5323e+01	6.1314	47.200172	0.000730	7.297971	2.472620	0.000292
 156	1.5422e+01	6.1667	47.539292	0.000851	8.514300	2.884723	0.000341
 157	1.5522e+01	6.2132	47.829966	0.000730	7.297971	2.472620	0.000292
 158	1.5621e+01	6.2581	48.136788	0.000770	7.703414	2.609987	0.000308
 159	1.5721e+01	6.2886	48.427462	0.000730	7.297971	2.472620	0.000292
 160	1.5820e+01	6.3335	48.710061	0.000710	7.095250	2.403936	0.000284
 161	1.5920e+01	6.3656	49.057255	0.000872	8.717021	2.953407	0.000349
 162	1.6020e+01	6.4089	49.323706	0.000669	6.689807	2.266568	0.000268
 163	1.6119e+01	6.4458	49.646677	0.000811	8.108857	2.747355	0.000325
 164	1.6218e+01	6.4939	49.961573	0.000791	7.906136	2.678671	0.000316
 165	1.6318e+01	6.5276	50.207839	0.000618	6.183004	2.094858	0.000248
 166	1.6418e+01	6.5709	50.510624	0.000760	7.602054	2.575645	0.000304
 167	1.6517e+01	6.6078	50.825520	0.000791	7.906136	2.678671	0.000316
 168	1.6616e+01	6.6447	51.083897	0.000649	6.487086	2.197884	0.000260
 169	1.6716e+01	6.6832	51.427054	0.000862	8.615661	2.919065	0.000345
 170	1.6816e+01	6.7298	51.701579	0.000689	6.892529	2.335252	0.000276
 171	1.6915e+01	6.7667	51.996290	0.000740	7.399332	2.506962	0.000296
 172	1.7015e+01	6.8100	52.311186	0.000791	7.906136	2.678671	0.000316
 173	1.7114e+01	6.8388	52.601860	0.000730	7.297971	2.472620	0.000292
 174	1.7213e+01	6.8902	52.912720	0.000780	7.804775	2.644329	0.000312
 175	1.7313e+01	6.9303	53.187245	0.000689	6.892529	2.335252	0.000276
 176	1.7413e+01	6.9688	53.457733	0.000679	6.791168	2.300910	0.000272
 177	1.7512e+01	7.0009	53.776667	0.000801	8.007496	2.713013	0.000321
 178	1.7611e+01	7.0506	54.075415	0.000750	7.500693	2.541304	0.000300
 179	1.7711e+01	7.0827	54.378200	0.000760	7.602054	2.575645	0.000304
 180	1.7811e+01	7.1276	54.624465	0.000618	6.183004	2.094858	0.000248
 181	1.7910e+01	7.1693	54.979733	0.000892	8.919743	3.022091	0.000357
 182	1.8009e+01	7.1966	55.254258	0.000689	6.892529	2.335252	0.000276
 183	1.8109e+01	7.2383	55.536858	0.000710	7.095250	2.403936	0.000284
 184	1.8209e+01	7.2864	55.811383	0.000689	6.892529	2.335252	0.000276
 185	1.8308e+01	7.3281	56.154540	0.000862	8.615661	2.919065	0.000345
 186	1.8407e+01	7.3634	56.384656	0.000578	5.777561	1.957491	0.000231
 187	1.8507e+01	7.4003	56.723776	0.000851	8.514300	2.884723	0.000341
 188	1.8607e+01	7.4356	56.961967	0.000598	5.980282	2.026174	0.000239
 189	1.8706e+01	7.4854	57.284938	0.000811	8.108857	2.747355	0.000325
 190	1.8805e+01	7.5222	57.571574	0.000720	7.196611	2.438278	0.000288
 191	1.8905e+01	7.5624	57.870322	0.000750	7.500693	2.541304	0.000300
 192	1.9005e+01	7.6025	58.201367	0.000831	8.311579	2.816039	0.000333
 193	1.9104e+01	7.6426	58.435521	0.000588	5.878921	1.991833	0.000235
 194	1.9203e+01	7.6730	58.742344	0.000770	7.703414	2.609987	0.000308
 195	1.9303e+01	7.7180	59.016869	0.000689	6.892529	2.335252	0.000276
 196	1.9402e+01	7.7565	59.319654	0.000760	7.602054	2.575645	0.000304
 197	1.9502e+01	7.7982	59.618402	0.000750	7.500693	2.541304	0.000300
 198	1.9602e+01	7.8383	59.872742	0.000639	6.385725	2.163542	0.000256
 199	1.9701e+01	7.8800	60.163415	0.000730	7.297971	2.472620	0.000292
 200	1.9800e+01	7.9265	60.462163	0.000750	7.500693	2.541304	0.000300
 201	1.9900e+01	7.9618	60.773023	0.000780	7.804775	2.644329	0.000312
 202	2.0000e+01	7.9987	61.039474	0.000669	6.689807	2.266568	0.000268
 203	2.0099e+01	8.0436	61.330148	0.000730	7.297971	2.472620	0.000292
 204	2.0198e+01	8.0773	61.604673	0.000689	6.892529	2.335252	0.000276
 205	2.0298e+01	8.1174	61.931681	0.000821	8.210218	2.781697	0.000329
 206	2.0398e+01	8.1511	62.246577	0.000791	7.906136	2.678671	0.000316
 207	2.0497e+01	8.2008	62.513028	0.000669	6.689807	2.266568	0.000268
 208	2.0596e+01	8.2361	62.787554	0.000689	6.892529	2.335252	0.000276
 209	2.0696e+01	8.2827	63.054005	0.000669	6.689807	2.266568	0.000268
 210	2.0796e+01	8.3147	63.381013	0.000821	8.210218	2.781697	0.000329
 211	2.0895e+01	8.3597	63.627278	0.000618	6.183004	2.094858	0.000248
 212	2.0994e+01	8.3998	63.954286	0.000821	8.210218	2.781697	0.000329
 213	2.1094e+01	8.4335	64.216700	0.000659	6.588446	2.232226	0.000264
 214	2.1194e+01	8.4784	64.487188	0.000679	6.791168	2.300910	0.000272
 215	2.1293e+01	8.5185	64.777861	0.000730	7.297971	2.472620	0.000292
 216	2.1392e+01	8.5602	65.072572	0.000740	7.399332	2.506962	0.000296
 217	2.1492e+01	8.5923	65.371320	0.000750	7.500693	2.541304	0.000300
 218	2.1591e+01	8.6420	65.657957	0.000720	7.196611	2.438278	0.000288
 219	2.1691e+01	8.6741	65.875962	0.000547	5.473479	1.854465	0.000219
 220	2.1791e+01	8.7222	66.170673	0.000740	7.399332	2.506962	0.000296
 221	2.1890e+01	8.7495	66.481533	0.000780	7.804775	2.644329	0.000312
 222	2.1989e+01	8.7992	66.727798	0.000618	6.183004	2.094858	0.000248
 223	2.2089e+01	8.8281	67.030583	0.000760	7.602054	2.575645	0.000304
 224	2.2189e+01	8.8762	67.280886	0.000628	6.284364	2.129200	0.000252
 225	2.2288e+01	8.9179	67.599819	0.000801	8.007496	2.713013	0.000321
 226	2.2387e+01	8.9628	67.854159	0.000639	6.385725	2.163542	0.000256
 227	2.2487e+01	9.0030	68.128684	0.000689	6.892529	2.335252	0.000276
 228	2.2587e+01	9.0382	68.407247	0.000699	6.993889	2.369594	0.000280
 229	2.2686e+01	9.0800	68.705995	0.000750	7.500693	2.541304	0.000300
 230	2.2785e+01	9.1169	68.976483	0.000679	6.791168	2.300910	0.000272
 231	2.2885e+01	9.1586	69.222748	0.000618	6.183004	2.094858	0.000248
 232	2.2985e+01	9.1906	69.481125	0.000649	6.487086	2.197884	0.000260
 233	2.3084e+01	9.2404	69.767761	0.000720	7.196611	2.438278	0.000288
 234	2.3183e+01	9.2853	70.050361	0.000710	7.095250	2.403936	0.000284
 235	2.3283e+01	9.3174	70.328923	0.000699	6.993889	2.369594	0.000280
 236	2.3383e+01	9.3527	70.599411	0.000679	6.791168	2.300910	0.000272
 237	2.3482e+01	9.4008	70.882011	0.000710	7.095250	2.403936	0.000284
 238	2.3581e+01	9.4393	71.120202	0.000598	5.980282	2.026174	0.000239
 239	2.3681e+01	9.4858	71.378578	0.000649	6.487086	2.197884	0.000260
 240	2.3780e+01	9.5083	71.681364	0.000760	7.602054	2.575645	0.000304
 241	2.3880e+01	9.5532	71.939740	0.000649	6.487086	2.197884	0.000260
 242	2.3980e+01	9.5997	72.218303	0.000699	6.993889	2.369594	0.000280
 243	2.4079e+01	9.6318	72.496865	0.000699	6.993889	2.369594	0.000280
 244	2.4178e+01	9.6703	72.739093	0.000608	6.081643	2.060516	0.000243
 245	2.4278e+01	9.7217	73.017656	0.000699	6.993889	2.369594	0.000280
 246	2.4378e+01	9.7537	73.292181	0.000689	6.892529	2.335252	0.000276
 247	2.4477e+01	9.7922	73.570743	0.000699	6.993889	2.369594	0.000280
 248	2.4576e+01	9.8388	73.804897	0.000588	5.878921	1.991833	0.000235
 249	2.4676e+01	9.8692	74.075385	0.000679	6.791168	2.300910	0.000272
 250	2.4776e+01	9.9110	74.353947	0.000699	6.993889	2.369594	0.000280
 251	2.4875e+01	9.9478	74.648658	0.000740	7.399332	2.506962	0.000296
 252	2.4974e+01	9.9880	74.870701	0.000557	5.574839	1.888807	0.000223
 253	2.5074e+01	10.0281	75.121003	0.000628	6.284364	2.129200	0.000252
 254	2.5174e+01	10.0730	75.407640	0.000720	7.196611	2.438278	0.000288
 255	2.5273e+01	10.1147	75.653905	0.000618	6.183004	2.094858	0.000248
 256	2.5372e+01	10.1516	75.952653	0.000750	7.500693	2.541304	0.000300
 257	2.5472e+01	10.1965	76.190844	0.000598	5.980282	2.026174	0.000239
 258	2.5572e+01	10.2334	76.461332	0.000679	6.791168	2.300910	0.000272
 259	2.5671e+01	10.2719	76.747969	0.000720	7.196611	2.438278	0.000288
 260	2.5770e+01	10.3184	76.994234	0.000618	6.183004	2.094858	0.000248
 261	2.5870e+01	10.3553	77.260685	0.000669	6.689807	2.266568	0.000268
 262	2.5970e+01	10.3906	77.531173	0.000679	6.791168	2.300910	0.000272
 263	2.6069e+01	10.4259	77.789550	0.000649	6.487086	2.197884	0.000260
 264	2.6169e+01	10.4708	78.023704	0.000588	5.878921	1.991833	0.000235
 265	2.6268e+01	10.5061	78.278043	0.000639	6.385725	2.163542	0.000256
 266	2.6367e+01	10.5526	78.536420	0.000649	6.487086	2.197884	0.000260
 267	2.6467e+01	10.5976	78.798834	0.000659	6.588446	2.232226	0.000264
 268	2.6567e+01	10.6345	79.032988	0.000588	5.878921	1.991833	0.000235
 269	2.6666e+01	10.6762	79.331736	0.000750	7.500693	2.541304	0.000300
 270	2.6765e+01	10.7179	79.590113	0.000649	6.487086	2.197884	0.000260
 271	2.6865e+01	10.7452	79.844452	0.000639	6.385725	2.163542	0.000256
 272	2.6965e+01	10.7853	80.118977	0.000689	6.892529	2.335252	0.000276
 273	2.7064e+01	10.8318	80.417725	0.000750	7.500693	2.541304	0.000300
 274	2.7163e+01	10.8671	80.619582	0.000507	5.068036	1.717097	0.000203
 275	2.7263e+01	10.9088	80.890070	0.000679	6.791168	2.300910	0.000272
 276	2.7363e+01	10.9489	81.128261	0.000598	5.980282	2.026174	0.000239
 277	2.7462e+01	10.9890	81.374527	0.000618	6.183004	2.094858	0.000248
 278	2.7561e+01	11.0275	81.628866	0.000639	6.385725	2.163542	0.000256
 279	2.7661e+01	11.0692	81.919540	0.000730	7.297971	2.472620	0.000292
 280	2.7761e+01	11.1061	82.121397	0.000507	5.068036	1.717097	0.000203
 281	2.7860e+01	11.1542	82.387848	0.000669	6.689807	2.266568	0.000268
 282	2.7959e+01	11.1767	82.646224	0.000649	6.487086	2.197884	0.000260
 283	2.8059e+01	11.2168	82.904601	0.000649	6.487086	2.197884	0.000260
 284	2.8159e+01	11.2665	83.167015	0.000659	6.588446	2.232226	0.000264
 285	2.8258e+01	11.3050	83.409243	0.000608	6.081643	2.060516	0.000243
 286	2.8358e+01	11.3516	83.671657	0.000659	6.588446	2.232226	0.000264
 287	2.8457e+01	11.3949	83.901773	0.000578	5.777561	1.957491	0.000231
 288	2.8556e+01	11.4270	84.172262	0.000679	6.791168	2.300910	0.000272
 289	2.8656e+01	11.4638	84.438713	0.000669	6.689807	2.266568	0.000268
 290	2.8756e+01	11.5152	84.648644	0.000527	5.270757	1.785781	0.000211
 291	2.8855e+01	11.5473	84.907020	0.000649	6.487086	2.197884	0.000260
 292	2.8954e+01	11.5890	85.153286	0.000618	6.183004	2.094858	0.000248
 293	2.9054e+01	11.6275	85.391477	0.000598	5.980282	2.026174	0.000239
 294	2.9154e+01	11.6628	85.633705	0.000608	6.081643	2.060516	0.000243
 295	2.9253e+01	11.7061	85.879970	0.000618	6.183004	2.094858	0.000248
 296	2.9352e+01	11.7542	86.146421	0.000669	6.689807	2.266568	0.000268
 297	2.9452e+01	11.7847	86.416909	0.000679	6.791168	2.300910	0.000272
 298	2.9552e+01	11.8216	86.618766	0.000507	5.068036	1.717097	0.000203
 299	2.9651e+01	11.8713	86.941737	0.000811	8.108857	2.747355	0.000325
 300	2.9750e+01	11.8970	87.143593	0.000507	5.068036	1.717097	0.000203
 301	2.9850e+01	11.9403	87.389859	0.000618	6.183004	2.094858	0.000248
 302	2.9950e+01	11.9868	87.632087	0.000608	6.081643	2.060516	0.000243
 303	3.0049e+01	12.0317	87.898538	0.000669	6.689807	2.266568	0.000268
 304	3.0148e+01	12.0783	88.128655	0.000578	5.777561	1.957491	0.000231
 305	3.0248e+01	12.1104	88.358771	0.000578	5.777561	1.957491	0.000231
 306	3.0348e+01	12.1505	88.625222	0.000669	6.689807	2.266568	0.000268
 307	3.0447e+01	12.1874	88.875525	0.000628	6.284364	2.129200	0.000252
 308	3.0547e+01	12.2259	89.129864	0.000639	6.385725	2.163542	0.000256
 309	3.0646e+01	12.2676	89.372092	0.000608	6.081643	2.060516	0.000243
 310	3.0745e+01	12.3013	89.618358	0.000618	6.183004	2.094858	0.000248
 311	3.0845e+01	12.3414	89.884809	0.000669	6.689807	2.266568	0.000268
 312	3.0945e+01	12.3847	90.094740	0.000527	5.270757	1.785781	0.000211
 313	3.1044e+01	12.4232	90.381376	0.000720	7.196611	2.438278	0.000288
 314	3.1143e+01	12.4601	90.615530	0.000588	5.878921	1.991833	0.000235
 315	3.1243e+01	12.5082	90.853721	0.000598	5.980282	2.026174	0.000239
 316	3.1343e+01	12.5531	91.083838	0.000578	5.777561	1.957491	0.000231
 317	3.1442e+01	12.5804	91.386623	0.000760	7.602054	2.575645	0.000304
 318	3.1541e+01	12.6269	91.576369	0.000476	4.763954	1.614071	0.000191
 319	3.1641e+01	12.6686	91.826671	0.000628	6.284364	2.129200	0.000252
 320	3.1741e+01	12.6975	92.052751	0.000568	5.676200	1.923149	0.000227
 321	3.1840e+01	12.7424	92.331313	0.000699	6.993889	2.369594	0.000280
 322	3.1939e+01	12.7873	92.565467	0.000588	5.878921	1.991833	0.000235
 323	3.2039e+01	12.8258	92.795584	0.000578	5.777561	1.957491	0.000231
 324	3.2139e+01	12.8676	93.053960	0.000649	6.487086	2.197884	0.000260
 325	3.2238e+01	12.9044	93.296188	0.000608	6.081643	2.060516	0.000243
 326	3.2337e+01	12.9446	93.542454	0.000618	6.183004	2.094858	0.000248
 327	3.2437e+01	12.9782	93.788719	0.000618	6.183004	2.094858	0.000248
 328	3.2536e+01	13.0296	93.994613	0.000517	5.169396	1.751439	0.000207
 329	3.2636e+01	13.0569	94.248952	0.000639	6.385725	2.163542	0.000256
 330	3.2736e+01	13.1066	94.515403	0.000669	6.689807	2.266568	0.000268
 331	3.2835e+01	13.1306	94.745520	0.000578	5.777561	1.957491	0.000231
 332	3.2934e+01	13.1740	94.971600	0.000568	5.676200	1.923149	0.000227
 333	3.3034e+01	13.2157	95.217865	0.000618	6.183004	2.094858	0.000248
 334	3.3133e+01	13.2542	95.452019	0.000588	5.878921	1.991833	0.000235
 335	3.3233e+01	13.2959	95.698284	0.000618	6.183004	2.094858	0.000248
 336	3.3333e+01	13.3312	95.944549	0.000618	6.183004	2.094858	0.000248
 337	3.3432e+01	13.3745	96.178703	0.000588	5.878921	1.991833	0.000235
 338	3.3532e+01	13.4242	96.453228	0.000689	6.892529	2.335252	0.000276
 339	3.3631e+01	13.4563	96.671234	0.000547	5.473479	1.854465	0.000219
 340	3.3730e+01	13.4996	96.881165	0.000527	5.270757	1.785781	0.000211
 341	3.3830e+01	13.5397	97.151653	0.000679	6.791168	2.300910	0.000272
 342	3.3929e+01	13.5766	97.418104	0.000669	6.689807	2.266568	0.000268
 343	3.4029e+01	13.6071	97.611886	0.000487	4.865314	1.648413	0.000195
 344	3.4129e+01	13.6633	97.862189	0.000628	6.284364	2.129200	0.000252
 345	3.4228e+01	13.6889	98.100380	0.000598	5.980282	2.026174	0.000239
 346	3.4328e+01	13.7419	98.350682	0.000628	6.284364	2.129200	0.000252
 347	3.4427e+01	13.7755	98.576762	0.000568	5.676200	1.923149	0.000227
 348	3.4526e+01	13.8157	98.818990	0.000608	6.081643	2.060516	0.000243
 349	3.4626e+01	13.8590	99.061218	0.000608	6.081643	2.060516	0.000243
 350	3.4725e+01	13.8927	99.315558	0.000639	6.385725	2.163542	0.000256
 351	3.4825e+01	13.9440	99.549712	0.000588	5.878921	1.991833	0.000235
 352	3.4925e+01	13.9745	99.731383	0.000456	4.561232	1.545387	0.000183
 353	3.5024e+01	14.0210	99.985722	0.000639	6.385725	2.163542	0.000256
 354	3.5123e+01	14.0563	100.244099	0.000649	6.487086	2.197884	0.000260
 355	3.5223e+01	14.0932	100.449993	0.000517	5.169396	1.751439	0.000207
 356	3.5322e+01	14.1381	100.708370	0.000649	6.487086	2.197884	0.000260
 357	3.5422e+01	14.1766	100.978858	0.000679	6.791168	2.300910	0.000272
 358	3.5522e+01	14.2071	101.221086	0.000608	6.081643	2.060516	0.000243
 359	3.5621e+01	14.2552	101.414868	0.000487	4.865314	1.648413	0.000195
 360	3.5721e+01	14.2889	101.677282	0.000659	6.588446	2.232226	0.000264
 361	3.5820e+01	14.3338	101.911436	0.000588	5.878921	1.991833	0.000235
 362	3.5919e+01	14.3787	102.125404	0.000537	5.372118	1.820123	0.000215
 363	3.6019e+01	14.4060	102.347447	0.000557	5.574839	1.888807	0.000223
 364	3.6118e+01	14.4525	102.642158	0.000740	7.399332	2.506962	0.000296
 365	3.6218e+01	14.4926	102.884386	0.000608	6.081643	2.060516	0.000243
 366	3.6318e+01	14.5327	103.090280	0.000517	5.169396	1.751439	0.000207
 367	3.6417e+01	14.5745	103.320396	0.000578	5.777561	1.957491	0.000231
 368	3.6517e+01	14.6114	103.566662	0.000618	6.183004	2.094858	0.000248
 369	3.6616e+01	14.6515	103.796778	0.000578	5.777561	1.957491	0.000231
 370	3.6715e+01	14.6851	104.006709	0.000527	5.270757	1.785781	0.000211
 371	3.6815e+01	14.7188	104.252975	0.000618	6.183004	2.094858	0.000248
 372	3.6914e+01	14.7766	104.511351	0.000649	6.487086	2.197884	0.000260
 373	3.7014e+01	14.8103	104.749542	0.000598	5.980282	2.026174	0.000239
 374	3.7114e+01	14.8456	104.935251	0.000466	4.662593	1.579729	0.000187
 375	3.7213e+01	14.8873	105.229962	0.000740	7.399332	2.506962	0.000296
 376	3.7313e+01	14.9258	105.452004	0.000557	5.574839	1.888807	0.000223
 377	3.7412e+01	14.9707	105.682121	0.000578	5.777561	1.957491	0.000231
 378	3.7511e+01	15.0188	105.896089	0.000537	5.372118	1.820123	0.000215
 379	3.7611e+01	15.0509	106.154466	0.000649	6.487086	2.197884	0.000260
 380	3.7711e+01	15.0862	106.348248	0.000487	4.865314	1.648413	0.000195
 381	3.7810e+01	15.1359	106.618736	0.000679	6.791168	2.300910	0.000272
 382	3.7910e+01	15.1680	106.836742	0.000547	5.473479	1.854465	0.000219
 383	3.8009e+01	15.2178	107.070895	0.000588	5.878921	1.991833	0.000235
 384	3.8108e+01	15.2530	107.292938	0.000557	5.574839	1.888807	0.000223
 385	3.8208e+01	15.2867	107.510943	0.000547	5.473479	1.854465	0.000219
 386	3.8307e+01	15.3284	107.789506	0.000699	6.993889	2.369594	0.000280
 387	3.8407e+01	15.3702	108.019622	0.000578	5.777561	1.957491	0.000231
 388	3.8507e+01	15.4071	108.225516	0.000517	5.169396	1.751439	0.000207
 389	3.8606e+01	15.4536	108.459670	0.000588	5.878921	1.991833	0.000235
 390	3.8706e+01	15.4889	108.693824	0.000588	5.878921	1.991833	0.000235
 391	3.8805e+01	15.5290	108.936052	0.000608	6.081643	2.060516	0.000243
 392	3.8904e+01	15.5739	109.133872	0.000497	4.966675	1.682755	0.000199
 393	3.9004e+01	15.6140	109.392249	0.000649	6.487086	2.197884	0.000260
 394	3.9103e+01	15.6509	109.606217	0.000537	5.372118	1.820123	0.000215
 395	3.9203e+01	15.6910	109.799999	0.000487	4.865314	1.648413	0.000195
 396	3.9303e+01	15.7263	110.046265	0.000618	6.183004	2.094858	0.000248
 397	3.9402e+01	15.7728	110.272344	0.000568	5.676200	1.923149	0.000227
 398	3.9502e+01	15.8113	110.530721	0.000649	6.487086	2.197884	0.000260
 399	3.9601e+01	15.8466	110.676058	0.000365	3.648986	1.236310	0.000146
 400	3.9700e+01	15.8883	110.966731	0.000730	7.297971	2.472620	0.000292
 401	3.9800e+01	15.9284	111.160514	0.000487	4.865314	1.648413	0.000195
 402	3.9900e+01	15.9669	111.370445	0.000527	5.270757	1.785781	0.000211
 403	3.9999e+01	16.0118	111.604599	0.000588	5.878921	1.991833	0.000235
 404	4.0099e+01	16.0584	111.858938	0.000639	6.385725	2.163542	0.000256
 405	4.0198e+01	16.0905	112.085018	0.000568	5.676200	1.923149	0.000227
 406	4.0297e+01	16.1290	112.282838	0.000497	4.966675	1.682755	0.000199
 407	4.0397e+01	16.1610	112.533140	0.000628	6.284364	2.129200	0.000252
 408	4.0496e+01	16.2028	112.730960	0.000497	4.966675	1.682755	0.000199
 409	4.0596e+01	16.2461	112.977225	0.000618	6.183004	2.094858	0.000248
 410	4.0696e+01	16.2846	113.219453	0.000608	6.081643	2.060516	0.000243
 411	4.0795e+01	16.3263	113.389013	0.000426	4.257150	1.442361	0.000170
 412	4.0895e+01	16.3760	113.627204	0.000598	5.980282	2.026174	0.000239
 413	4.0994e+01	16.4097	113.845209	0.000547	5.473479	1.854465	0.000219
 414	4.1093e+01	16.4418	114.083400	0.000598	5.980282	2.026174	0.000239
 415	4.1193e+01	16.4803	114.289294	0.000517	5.169396	1.751439	0.000207
 416	4.1292e+01	16.5284	114.511337	0.000557	5.574839	1.888807	0.000223
 417	4.1392e+01	16.5701	114.729342	0.000547	5.473479	1.854465	0.000219
 418	4.1492e+01	16.6022	114.983682	0.000639	6.385725	2.163542	0.000256
 419	4.1591e+01	16.6391	115.193613	0.000527	5.270757	1.785781	0.000211
 420	4.1691e+01	16.6936	115.411618	0.000547	5.473479	1.854465	0.000219
 421	4.1790e+01	16.7354	115.617512	0.000517	5.169396	1.751439	0.000207
 422	4.1889e+01	16.7674	115.867814	0.000628	6.284364	2.129200	0.000252
 423	4.1989e+01	16.8059	116.057560	0.000476	4.763954	1.614071	0.000191
 424	4.2089e+01	16.8428	116.279602	0.000557	5.574839	1.888807	0.000223
 425	4.2188e+01	16.8813	116.485496	0.000517	5.169396	1.751439	0.000207
 426	4.2288e+01	16.9295	116.755984	0.000679	6.791168	2.300910	0.000272
 427	4.2387e+01	16.9664	116.949767	0.000487	4.865314	1.648413	0.000195
 428	4.2486e+01	17.0065	117.151623	0.000507	5.068036	1.717097	0.000203
 429	4.2586e+01	17.0466	117.349443	0.000497	4.966675	1.682755	0.000199
 430	4.2685e+01	17.0867	117.652228	0.000760	7.602054	2.575645	0.000304
 431	4.2785e+01	17.1220	117.825825	0.000436	4.358511	1.476703	0.000174
 432	4.2885e+01	17.1733	117.999422	0.000436	4.358511	1.476703	0.000174
 433	4.2984e+01	17.2054	118.265873	0.000669	6.689807	2.266568	0.000268
 434	4.3084e+01	17.2519	118.516175	0.000628	6.284364	2.129200	0.000252
 435	4.3183e+01	17.2792	118.722069	0.000517	5.169396	1.751439	0.000207
 436	4.3282e+01	17.3289	118.932000	0.000527	5.270757	1.785781	0.000211
 437	4.3382e+01	17.3642	119.162117	0.000578	5.777561	1.957491	0.000231
 438	4.3481e+01	17.4027	119.380122	0.000547	5.473479	1.854465	0.000219
 439	4.3581e+01	17.4492	119.602165	0.000557	5.574839	1.888807	0.000223
 440	4.3681e+01	17.4749	119.812096	0.000527	5.270757	1.785781	0.000211
 441	4.3780e+01	17.5295	120.030101	0.000547	5.473479	1.854465	0.000219
 442	4.3880e+01	17.5647	120.235995	0.000517	5.169396	1.751439	0.000207
 443	4.3979e+01	17.5952	120.490335	0.000639	6.385725	2.163542	0.000256
 444	4.4078e+01	17.6450	120.659894	0.000426	4.257150	1.442361	0.000170
 445	4.4178e+01	17.6819	120.910197	0.000628	6.284364	2.129200	0.000252
 446	4.4278e+01	17.7188	121.136276	0.000568	5.676200	1.923149	0.000227
 447	4.4377e+01	17.7653	121.362356	0.000568	5.676200	1.923149	0.000227
 448	4.4477e+01	17.8054	121.568250	0.000517	5.169396	1.751439	0.000207
 449	4.4576e+01	17.8375	121.753958	0.000466	4.662593	1.579729	0.000187
 450	4.4675e+01	17.8776	121.996186	0.000608	6.081643	2.060516	0.000243
 451	4.4775e+01	17.9241	122.189969	0.000487	4.865314	1.648413	0.000195
 452	4.4874e+01	17.9498	122.416048	0.000568	5.676200	1.923149	0.000227
 453	4.4974e+01	18.0059	122.597720	0.000456	4.561232	1.545387	0.000183
 454	4.5074e+01	18.0396	122.823799	0.000568	5.676200	1.923149	0.000227
 455	4.5173e+01	18.0797	123.049879	0.000568	5.676200	1.923149	0.000227
 456	4.5273e+01	18.1166	123.243661	0.000487	4.865314	1.648413	0.000195
 457	4.5372e+01	18.1599	123.465704	0.000557	5.574839	1.888807	0.000223
 458	4.5471e+01	18.1984	123.675635	0.000527	5.270757	1.785781	0.000211
 459	4.5571e+01	18.2353	123.901714	0.000568	5.676200	1.923149	0.000227
 460	4.5670e+01	18.2786	124.111645	0.000527	5.270757	1.785781	0.000211
 461	4.5770e+01	18.3155	124.374059	0.000659	6.588446	2.232226	0.000264
 462	4.5870e+01	18.3588	124.535545	0.000405	4.054429	1.373678	0.000162
 463	4.5969e+01	18.3989	124.781810	0.000618	6.183004	2.094858	0.000248
 464	4.6069e+01	18.4439	124.979630	0.000497	4.966675	1.682755	0.000199
 465	4.6168e+01	18.4824	125.193598	0.000537	5.372118	1.820123	0.000215
 466	4.6267e+01	18.5241	125.379306	0.000466	4.662593	1.579729	0.000187
 467	4.6367e+01	18.5546	125.605386	0.000568	5.676200	1.923149	0.000227
 468	4.6467e+01	18.6059	125.791094	0.000466	4.662593	1.579729	0.000187
 469	4.6566e+01	18.6476	126.037359	0.000618	6.183004	2.094858	0.000248
 470	4.6666e+01	18.6717	126.214993	0.000446	4.459871	1.511045	0.000179
 471	4.6765e+01	18.7198	126.428961	0.000537	5.372118	1.820123	0.000215
 472	4.6864e+01	18.7583	126.683301	0.000639	6.385725	2.163542	0.000256
 473	4.6964e+01	18.7968	126.877083	0.000487	4.865314	1.648413	0.000195
 474	4.7063e+01	18.8433	127.111237	0.000588	5.878921	1.991833	0.000235
 475	4.7163e+01	18.8866	127.325205	0.000537	5.372118	1.820123	0.000215
 476	4.7263e+01	18.9171	127.535137	0.000527	5.270757	1.785781	0.000211
 477	4.7362e+01	18.9604	127.769290	0.000588	5.878921	1.991833	0.000235
 478	4.7462e+01	19.0070	127.967110	0.000497	4.966675	1.682755	0.000199
 479	4.7561e+01	19.0374	128.189153	0.000557	5.574839	1.888807	0.000223
 480	4.7660e+01	19.0807	128.415232	0.000568	5.676200	1.923149	0.000227
 481	4.7760e+01	19.1192	128.576718	0.000405	4.054429	1.373678	0.000162
 482	4.7859e+01	19.1626	128.859317	0.000710	7.095250	2.403936	0.000284
 483	4.7959e+01	19.1898	129.065211	0.000517	5.169396	1.751439	0.000207
 484	4.8059e+01	19.2364	129.283216	0.000547	5.473479	1.854465	0.000219
 485	4.8158e+01	19.2797	129.493147	0.000527	5.270757	1.785781	0.000211
 486	4.8258e+01	19.3182	129.650596	0.000395	3.953068	1.339336	0.000158
 487	4.8357e+01	19.3615	129.917047	0.000669	6.689807	2.266568	0.000268
 488	4.8456e+01	19.4032	130.118903	0.000507	5.068036	1.717097	0.000203
 489	4.8556e+01	19.4353	130.353057	0.000588	5.878921	1.991833	0.000235
 490	4.8656e+01	19.4642	130.554914	0.000507	5.068036	1.717097	0.000203
 491	4.8755e+01	19.5171	130.752734	0.000497	4.966675	1.682755	0.000199
 492	4.8855e+01	19.5508	130.954591	0.000507	5.068036	1.717097	0.000203
 493	4.8954e+01	19.5989	131.188744	0.000588	5.878921	1.991833	0.000235
 494	4.9053e+01	19.6390	131.410787	0.000557	5.574839	1.888807	0.000223
 495	4.9153e+01	19.6663	131.612644	0.000507	5.068036	1.717097	0.000203
 496	4.9252e+01	19.7160	131.842760	0.000578	5.777561	1.957491	0.000231
 497	4.9352e+01	19.7593	132.097100	0.000639	6.385725	2.163542	0.000256
 498	4.9452e+01	19.7978	132.266660	0.000426	4.257150	1.442361	0.000170
 499	4.9551e+01	19.8283	132.452368	0.000466	4.662593	1.579729	0.000187
 500	4.9651e+01	19.8813	132.678447	0.000568	5.676200	1.923149	0.000227
 501	4.9750e+01	19.9117	132.932787	0.000639	6.385725	2.163542	0.000256
 502	4.9849e+01	19.9567	133.154829	0.000557	5.574839	1.888807	0.000223
 503	4.9949e+01	19.9968	133.324389	0.000426	4.257150	1.442361	0.000170
 504	5.0048e+01	19.9486	133.235572	0.000223	2.229936	0.755523	-0.000089
 505	5.0148e+01	19.9101	133.126570	0.000274	2.736739	0.927232	-0.000110
 506	5.0248e+01	19.8700	132.993344	0.000334	3.344904	1.133284	-0.000134
 507	5.0347e+01	19.8251	132.795524	0.000497	4.966675	1.682755	-0.000199
 508	5.0447e+01	19.7850	132.710745	0.000213	2.128575	0.721181	-0.000085
 509	5.0546e+01	19.7497	132.565408	0.000365	3.648986	1.236310	-0.000146
 510	5.0645e+01	19.7192	132.448331	0.000294	2.939461	0.995916	-0.000118
 511	5.0745e+01	19.6759	132.290882	0.000395	3.953068	1.339336	-0.000158
 512	5.0844e+01	19.6374	132.145546	0.000365	3.648986	1.236310	-0.000146
 513	5.0944e+01	19.5893	131.988097	0.000395	3.953068	1.339336	-0.000158
 514	5.1044e+01	19.5524	131.842760	0.000365	3.648986	1.236310	-0.000146
 515	5.1143e+01	19.5187	131.745869	0.000243	2.432657	0.824207	-0.000097
 516	5.1242e+01	19.4754	131.604569	0.000355	3.547625	1.201968	-0.000142
 517	5.1342e+01	19.4289	131.471344	0.000334	3.344904	1.133284	-0.000134
 518	5.1441e+01	19.4000	131.326007	0.000365	3.648986	1.236310	-0.000146
 519	5.1541e+01	19.3583	131.196819	0.000324	3.243543	1.098942	-0.000130
 520	5.1641e+01	19.3166	131.031296	0.000416	4.155789	1.408020	-0.000166
 521	5.1740e+01	19.2781	130.906145	0.000314	3.142182	1.064600	-0.000126
 522	5.1840e+01	19.2380	130.764845	0.000355	3.547625	1.201968	-0.000142
 523	5.1939e+01	19.1979	130.623545	0.000355	3.547625	1.201968	-0.000142
 524	5.2038e+01	19.1626	130.462060	0.000405	4.054429	1.373678	-0.000162
 525	5.2138e+01	19.1144	130.292500	0.000426	4.257150	1.442361	-0.000170
 526	5.2237e+01	19.0791	130.171386	0.000304	3.040821	1.030258	-0.000122
 527	5.2337e+01	19.0406	130.017975	0.000385	3.851707	1.304994	-0.000154
 528	5.2437e+01	19.0005	129.880712	0.000345	3.446264	1.167626	-0.000138
 529	5.2536e+01	18.9588	129.711153	0.000426	4.257150	1.442361	-0.000170
 530	5.2636e+01	18.9091	129.537556	0.000436	4.358511	1.476703	-0.000174
 531	5.2735e+01	18.8850	129.436627	0.000253	2.534018	0.858548	-0.000101
 532	5.2834e+01	18.8417	129.283216	0.000385	3.851707	1.304994	-0.000154
 533	5.2934e+01	18.8032	129.089434	0.000487	4.865314	1.648413	-0.000195
 534	5.3033e+01	18.7599	128.952171	0.000345	3.446264	1.167626	-0.000138
 535	5.3133e+01	18.7230	128.794723	0.000395	3.953068	1.339336	-0.000158
 536	5.3233e+01	18.6781	128.673609	0.000304	3.040821	1.030258	-0.000122
 537	5.3332e+01	18.6380	128.463678	0.000527	5.270757	1.785781	-0.000211
 538	5.3431e+01	18.6075	128.314304	0.000375	3.750346	1.270652	-0.000150
 539	5.3531e+01	18.5530	128.185115	0.000324	3.243543	1.098942	-0.000130
 540	5.3630e+01	18.5193	128.027667	0.000395	3.953068	1.339336	-0.000158
 541	5.3730e+01	18.4824	127.886367	0.000355	3.547625	1.201968	-0.000142
 542	5.3830e+01	18.4423	127.700659	0.000466	4.662593	1.579729	-0.000187
 543	5.3929e+01	18.4086	127.559359	0.000355	3.547625	1.201968	-0.000142
 544	5.4029e+01	18.3556	127.389800	0.000426	4.257150	1.442361	-0.000170
 545	5.4128e+01	18.3219	127.260611	0.000324	3.243543	1.098942	-0.000130
 546	5.4227e+01	18.2818	127.082977	0.000446	4.459871	1.511045	-0.000179
 547	5.4327e+01	18.2369	126.909380	0.000436	4.358511	1.476703	-0.000174
 548	5.4426e+01	18.1920	126.764044	0.000365	3.648986	1.236310	-0.000146
 549	5.4526e+01	18.1679	126.594484	0.000426	4.257150	1.442361	-0.000170
 550	5.4626e+01	18.1214	126.424924	0.000426	4.257150	1.442361	-0.000170
 551	5.4725e+01	18.0717	126.275550	0.000375	3.750346	1.270652	-0.000150
 552	5.4825e+01	18.0476	126.110028	0.000416	4.155789	1.408020	-0.000166
 553	5.4924e+01	17.9979	125.984876	0.000314	3.142182	1.064600	-0.000126
 554	5.5023e+01	17.9546	125.791094	0.000487	4.865314	1.648413	-0.000195
 555	5.5123e+01	17.9273	125.605386	0.000466	4.662593	1.579729	-0.000187
 556	5.5222e+01	17.8744	125.447937	0.000395	3.953068	1.339336	-0.000158
 557	5.5322e+01	17.8391	125.290489	0.000395	3.953068	1.339336	-0.000158
 558	5.5422e+01	17.7909	125.112855	0.000446	4.459871	1.511045	-0.000179
 559	5.5521e+01	17.7589	124.971555	0.000355	3.547625	1.201968	-0.000142
 560	5.5620e+01	17.7204	124.793921	0.000446	4.459871	1.511045	-0.000179
 561	5.5720e+01	17.6851	124.608213	0.000466	4.662593	1.579729	-0.000187
 562	5.5819e+01	17.6530	124.450765	0.000395	3.953068	1.339336	-0.000158
 563	5.5919e+01	17.6129	124.301391	0.000375	3.750346	1.270652	-0.000150
 564	5.6019e+01	17.5696	124.091460	0.000527	5.270757	1.785781	-0.000211
 565	5.6118e+01	17.5295	123.913826	0.000446	4.459871	1.511045	-0.000179
 566	5.6218e+01	17.4813	123.772526	0.000355	3.547625	1.201968	-0.000142
 567	5.6317e+01	17.4444	123.594892	0.000446	4.459871	1.511045	-0.000179
 568	5.6416e+01	17.4107	123.425332	0.000426	4.257150	1.442361	-0.000170
 569	5.6516e+01	17.3594	123.263847	0.000405	4.054429	1.373678	-0.000162
 570	5.6615e+01	17.3273	123.070064	0.000487	4.865314	1.648413	-0.000195
 571	5.6715e+01	17.2792	122.896468	0.000436	4.358511	1.476703	-0.000174
 572	5.6815e+01	17.2391	122.739019	0.000395	3.953068	1.339336	-0.000158
 573	5.6914e+01	17.2038	122.557348	0.000456	4.561232	1.545387	-0.000183
 574	5.7014e+01	17.1605	122.416048	0.000355	3.547625	1.201968	-0.000142
 575	5.7113e+01	17.1236	122.226303	0.000476	4.763954	1.614071	-0.000191
 576	5.7212e+01	17.0738	122.056743	0.000426	4.257150	1.442361	-0.000170
 577	5.7312e+01	17.0418	121.875072	0.000456	4.561232	1.545387	-0.000183
 578	5.7411e+01	17.0049	121.717624	0.000395	3.953068	1.339336	-0.000158
 579	5.7511e+01	16.9680	121.535953	0.000456	4.561232	1.545387	-0.000183
 580	5.7611e+01	16.9214	121.358319	0.000446	4.459871	1.511045	-0.000179
 581	5.7710e+01	16.8926	121.148388	0.000527	5.270757	1.785781	-0.000211
 582	5.7809e+01	16.8477	120.994977	0.000385	3.851707	1.304994	-0.000154
 583	5.7909e+01	16.8108	120.861751	0.000334	3.344904	1.133284	-0.000134
 584	5.8008e+01	16.7658	120.627597	0.000588	5.878921	1.991833	-0.000235
 585	5.8108e+01	16.7305	120.458038	0.000426	4.257150	1.442361	-0.000170
 586	5.8208e+01	16.6888	120.312701	0.000365	3.648986	1.236310	-0.000146
 587	5.8307e+01	16.6407	120.151215	0.000405	4.054429	1.373678	-0.000162
 588	5.8407e+01	16.6102	119.953396	0.000497	4.966675	1.682755	-0.000199
 589	5.8506e+01	16.5669	119.747502	0.000517	5.169396	1.751439	-0.000207
 590	5.8605e+01	16.5284	119.598128	0.000375	3.750346	1.270652	-0.000150
 591	5.8705e+01	16.4819	119.420494	0.000446	4.459871	1.511045	-0.000179
 592	5.8804e+01	16.4418	119.230748	0.000476	4.763954	1.614071	-0.000191
 593	5.8904e+01	16.4033	119.049077	0.000456	4.561232	1.545387	-0.000183
 594	5.9004e+01	16.3568	118.879518	0.000426	4.257150	1.442361	-0.000170
 595	5.9103e+01	16.3343	118.693809	0.000466	4.662593	1.579729	-0.000187
 596	5.9203e+01	16.2942	118.495990	0.000497	4.966675	1.682755	-0.000199
 597	5.9302e+01	16.2461	118.334504	0.000405	4.054429	1.373678	-0.000162
 598	5.9401e+01	16.2156	118.144759	0.000476	4.763954	1.614071	-0.000191
 599	5.9501e+01	16.1610	117.971162	0.000436	4.358511	1.476703	-0.000174
 600	5.9600e+01	16.1274	117.801602	0.000426	4.257150	1.442361	-0.000170
 601	5.9700e+01	16.0937	117.603783	0.000497	4.966675	1.682755	-0.000199
 602	5.9800e+01	16.0503	117.426149	0.000446	4.459871	1.511045	-0.000179
 603	5.9899e+01	16.0167	117.220255	0.000517	5.169396	1.751439	-0.000207
 604	5.9998e+01	15.9717	117.026472	0.000487	4.865314	1.648413	-0.000195
 605	6.0098e+01	15.9316	116.864987	0.000405	4.054429	1.373678	-0.000162
 606	6.0197e+01	15.8867	116.655056	0.000527	5.270757	1.785781	-0.000211
 607	6.0297e+01	15.8466	116.505682	0.000375	3.750346	1.270652	-0.000150
 608	6.0397e+01	15.8113	116.295751	0.000527	5.270757	1.785781	-0.000211
 609	6.0496e+01	15.7776	116.146377	0.000375	3.750346	1.270652	-0.000150
 610	6.0596e+01	15.7263	115.940483	0.000517	5.169396	1.751439	-0.000207
 611	6.0695e+01	15.6894	115.738626	0.000507	5.068036	1.717097	-0.000203
 612	6.0794e+01	15.6445	115.528695	0.000527	5.270757	1.785781	-0.000211
 613	6.0894e+01	15.6172	115.375284	0.000385	3.851707	1.304994	-0.000154
 614	6.0993e+01	15.5771	115.181501	0.000487	4.865314	1.648413	-0.000195
 615	6.1093e+01	15.5338	114.999830	0.000456	4.561232	1.545387	-0.000183
 616	6.1193e+01	15.4873	114.806048	0.000487	4.865314	1.648413	-0.000195
 617	6.1292e+01	15.4568	114.636488	0.000426	4.257150	1.442361	-0.000170
 618	6.1392e+01	15.4167	114.430594	0.000517	5.169396	1.751439	-0.000207
 619	6.1491e+01	15.3702	114.232774	0.000497	4.966675	1.682755	-0.000199
 620	6.1590e+01	15.3349	114.034955	0.000497	4.966675	1.682755	-0.000199
 621	6.1690e+01	15.2915	113.833098	0.000507	5.068036	1.717097	-0.000203
 622	6.1789e+01	15.2482	113.647390	0.000466	4.662593	1.579729	-0.000187
 623	6.1889e+01	15.2081	113.481867	0.000416	4.155789	1.408020	-0.000166
 624	6.1989e+01	15.1744	113.267899	0.000537	5.372118	1.820123	-0.000215
 625	6.2088e+01	15.1343	113.049894	0.000547	5.473479	1.854465	-0.000219
 626	6.2188e+01	15.0910	112.827851	0.000557	5.574839	1.888807	-0.000223
 627	6.2287e+01	15.0477	112.682514	0.000365	3.648986	1.236310	-0.000146
 628	6.2386e+01	15.0076	112.460472	0.000557	5.574839	1.888807	-0.000223
 629	6.2486e+01	14.9771	112.254578	0.000517	5.169396	1.751439	-0.000207
 630	6.2586e+01	14.9322	112.076944	0.000446	4.459871	1.511045	-0.000179
 631	6.2685e+01	14.9033	111.887198	0.000476	4.763954	1.614071	-0.000191
 632	6.2785e+01	14.8504	111.725713	0.000405	4.054429	1.373678	-0.000162
 633	6.2884e+01	14.8119	111.471373	0.000639	6.385725	2.163542	-0.000256
 634	6.2983e+01	14.7702	111.301814	0.000426	4.257150	1.442361	-0.000170
 635	6.3083e+01	14.7381	111.087846	0.000537	5.372118	1.820123	-0.000215
 636	6.3182e+01	14.6884	110.914249	0.000436	4.358511	1.476703	-0.000174
 637	6.3282e+01	14.6643	110.680095	0.000588	5.878921	1.991833	-0.000235
 638	6.3382e+01	14.6114	110.490349	0.000476	4.763954	1.614071	-0.000191
 639	6.3481e+01	14.5680	110.280418	0.000527	5.270757	1.785781	-0.000211
 640	6.3581e+01	14.5376	110.118933	0.000405	4.054429	1.373678	-0.000162
 641	6.3680e+01	14.4991	109.909002	0.000527	5.270757	1.785781	-0.000211
 642	6.3779e+01	14.4525	109.719257	0.000476	4.763954	1.614071	-0.000191
 643	6.3879e+01	14.4124	109.533548	0.000466	4.662593	1.579729	-0.000187
 644	6.3978e+01	14.3803	109.335729	0.000497	4.966675	1.682755	-0.000199
 645	6.4078e+01	14.3386	109.101575	0.000588	5.878921	1.991833	-0.000235
 646	6.4177e+01	14.2953	108.911829	0.000476	4.763954	1.614071	-0.000191
 647	6.4277e+01	14.2568	108.726121	0.000466	4.662593	1.579729	-0.000187
 648	6.4376e+01	14.2055	108.528301	0.000497	4.966675	1.682755	-0.000199
 649	6.4476e+01	14.1638	108.322408	0.000517	5.169396	1.751439	-0.000207
 650	6.4576e+01	14.1349	108.156885	0.000416	4.155789	1.408020	-0.000166
 651	6.4675e+01	14.1012	107.922731	0.000588	5.878921	1.991833	-0.000235
 652	6.4775e+01	14.0499	107.737023	0.000466	4.662593	1.579729	-0.000187
 653	6.4874e+01	14.0114	107.551315	0.000466	4.662593	1.579729	-0.000187
 654	6.4974e+01	13.9761	107.345421	0.000517	5.169396	1.751439	-0.000207
 655	6.5073e+01	13.9408	107.151638	0.000487	4.865314	1.648413	-0.000195
 656	6.5172e+01	13.8927	106.909410	0.000608	6.081643	2.060516	-0.000243
 657	6.5272e+01	13.8606	106.747925	0.000405	4.054429	1.373678	-0.000162
 658	6.5371e+01	13.8173	106.546068	0.000507	5.068036	1.717097	-0.000203
 659	6.5471e+01	13.7739	106.356322	0.000476	4.763954	1.614071	-0.000191
 660	6.5570e+01	13.7322	106.134280	0.000557	5.574839	1.888807	-0.000223
 661	6.5670e+01	13.7066	105.948572	0.000466	4.662593	1.579729	-0.000187
 662	6.5769e+01	13.6504	105.694232	0.000639	6.385725	2.163542	-0.000256
 663	6.5869e+01	13.6119	105.524672	0.000426	4.257150	1.442361	-0.000170
 664	6.5969e+01	13.5734	105.363187	0.000405	4.054429	1.373678	-0.000162
 665	6.6068e+01	13.5365	105.116922	0.000618	6.183004	2.094858	-0.000248
 666	6.6168e+01	13.4964	104.935251	0.000456	4.561232	1.545387	-0.000183
 667	6.6267e+01	13.4675	104.725320	0.000527	5.270757	1.785781	-0.000211
 668	6.6367e+01	13.4114	104.523463	0.000507	5.068036	1.717097	-0.000203
 669	6.6466e+01	13.3793	104.341792	0.000456	4.561232	1.545387	-0.000183
 670	6.6566e+01	13.3376	104.111675	0.000578	5.777561	1.957491	-0.000231
 671	6.6665e+01	13.2927	103.885595	0.000568	5.676200	1.923149	-0.000227
 672	6.6764e+01	13.2622	103.703924	0.000456	4.561232	1.545387	-0.000183
 673	6.6864e+01	13.2189	103.518216	0.000466	4.662593	1.579729	-0.000187
 674	6.6963e+01	13.1788	103.300211	0.000547	5.473479	1.854465	-0.000219
 675	6.7063e+01	13.1419	103.106428	0.000487	4.865314	1.648413	-0.000195
 676	6.7162e+01	13.0905	102.884386	0.000557	5.574839	1.888807	-0.000223
 677	6.7262e+01	13.0665	102.662343	0.000557	5.574839	1.888807	-0.000223
 678	6.7362e+01	13.0167	102.484709	0.000446	4.459871	1.511045	-0.000179
 679	6.7461e+01	12.9831	102.282852	0.000507	5.068036	1.717097	-0.000203
 680	6.7561e+01	12.9397	102.060810	0.000557	5.574839	1.888807	-0.000223
 681	6.7660e+01	12.9044	101.867028	0.000487	4.865314	1.648413	-0.000195
 682	6.7760e+01	12.8611	101.681319	0.000466	4.662593	1.579729	-0.000187
 683	6.7859e+01	12.8258	101.459277	0.000557	5.574839	1.888807	-0.000223
 684	6.7959e+01	12.7857	101.273569	0.000466	4.662593	1.579729	-0.000187
 685	6.8058e+01	12.7408	101.039415	0.000588	5.878921	1.991833	-0.000235
 686	6.8157e+01	12.7007	100.861781	0.000446	4.459871	1.511045	-0.000179
 687	6.8257e+01	12.6606	100.623590	0.000598	5.980282	2.026174	-0.000239
 688	6.8356e+01	12.6189	100.409622	0.000537	5.372118	1.820123	-0.000215
 689	6.8456e+01	12.5804	100.215839	0.000487	4.865314	1.648413	-0.000195
 690	6.8555e+01	12.5435	100.030131	0.000466	4.662593	1.579729	-0.000187
 691	6.8655e+01	12.5066	99.808088	0.000557	5.574839	1.888807	-0.000223
 692	6.8754e+01	12.4601	99.598157	0.000527	5.270757	1.785781	-0.000211
 693	6.8854e+01	12.4312	99.416486	0.000456	4.561232	1.545387	-0.000183
 694	6.8954e+01	12.3895	99.162147	0.000639	6.385725	2.163542	-0.000256
 695	6.9053e+01	12.3462	98.972401	0.000476	4.763954	1.614071	-0.000191
 696	6.9153e+01	12.3093	98.758433	0.000537	5.372118	1.820123	-0.000215
 697	6.9252e+01	12.2660	98.536391	0.000557	5.574839	1.888807	-0.000223
 698	6.9352e+01	12.2243	98.346645	0.000476	4.763954	1.614071	-0.000191
 699	6.9451e+01	12.1761	98.128640	0.000547	5.473479	1.854465	-0.000219
 700	6.9550e+01	12.1424	97.963117	0.000416	4.155789	1.408020	-0.000166
 701	6.9650e+01	12.1055	97.700703	0.000659	6.588446	2.232226	-0.000264
 702	6.9749e+01	12.0702	97.478661	0.000557	5.574839	1.888807	-0.000223
 703	6.9849e+01	12.0189	97.305064	0.000436	4.358511	1.476703	-0.000174
 704	6.9948e+01	11.9740	97.074947	0.000578	5.777561	1.957491	-0.000231
 705	7.0048e+01	11.9467	96.852905	0.000557	5.574839	1.888807	-0.000223
 706	7.0147e+01	11.9050	96.651048	0.000507	5.068036	1.717097	-0.000203
 707	7.0247e+01	11.8713	96.453228	0.000497	4.966675	1.682755	-0.000199
 708	7.0347e+01	11.8184	96.223112	0.000578	5.777561	1.957491	-0.000231
 709	7.0446e+01	11.7831	96.029329	0.000487	4.865314	1.648413	-0.000195
 710	7.0546e+01	11.7542	95.791138	0.000598	5.980282	2.026174	-0.000239
 711	7.0645e+01	11.7061	95.609467	0.000456	4.561232	1.545387	-0.000183
 712	7.0745e+01	11.6740	95.371276	0.000598	5.980282	2.026174	-0.000239
 713	7.0844e+01	11.6259	95.193642	0.000446	4.459871	1.511045	-0.000179
 714	7.0944e+01	11.5890	94.967563	0.000568	5.676200	1.923149	-0.000227
 715	7.1043e+01	11.5553	94.753594	0.000537	5.372118	1.820123	-0.000215
 716	7.1142e+01	11.5023	94.515403	0.000598	5.980282	2.026174	-0.000239
 717	7.1242e+01	11.4687	94.305472	0.000527	5.270757	1.785781	-0.000211
 718	7.1341e+01	11.4350	94.099578	0.000517	5.169396	1.751439	-0.000207
 719	7.1441e+01	11.3965	93.893684	0.000517	5.169396	1.751439	-0.000207
 720	7.1540e+01	11.3419	93.671642	0.000557	5.574839	1.888807	-0.000223
 721	7.1640e+01	11.3130	93.445562	0.000568	5.676200	1.923149	-0.000227
 722	7.1740e+01	11.2745	93.207371	0.000598	5.980282	2.026174	-0.000239
 723	7.1839e+01	11.2216	93.025700	0.000456	4.561232	1.545387	-0.000183
 724	7.1939e+01	11.1927	92.787509	0.000598	5.980282	2.026174	-0.000239
 725	7.2038e+01	11.1510	92.541244	0.000618	6.183004	2.094858	-0.000248
 726	7.2138e+01	11.1045	92.383796	0.000395	3.953068	1.339336	-0.000158
 727	7.2237e+01	11.0692	92.097159	0.000720	7.196611	2.438278	-0.000288
 728	7.2337e+01	11.0275	91.899339	0.000497	4.966675	1.682755	-0.000199
 729	7.2436e+01	10.9954	91.673260	0.000568	5.676200	1.923149	-0.000227
 730	7.2535e+01	10.9521	91.426994	0.000618	6.183004	2.094858	-0.000248
 731	7.2635e+01	10.9088	91.192841	0.000588	5.878921	1.991833	-0.000235
 732	7.2734e+01	10.8703	90.990984	0.000507	5.068036	1.717097	-0.000203
 733	7.2834e+01	10.8270	90.772979	0.000547	5.473479	1.854465	-0.000219
 734	7.2933e+01	10.7933	90.526713	0.000618	6.183004	2.094858	-0.000248
 735	7.3033e+01	10.7468	90.341005	0.000466	4.662593	1.579729	-0.000187
 736	7.3132e+01	10.7050	90.118963	0.000557	5.574839	1.888807	-0.000223
 737	7.3232e+01	10.6617	89.888846	0.000578	5.777561	1.957491	-0.000231
 738	7.3332e+01	10.6393	89.634506	0.000639	6.385725	2.163542	-0.000256
 739	7.3431e+01	10.5879	89.384204	0.000628	6.284364	2.129200	-0.000252
 740	7.3531e+01	10.5526	89.190421	0.000487	4.865314	1.648413	-0.000195
 741	7.3630e+01	10.5061	88.952230	0.000598	5.980282	2.026174	-0.000239
 742	7.3730e+01	10.4660	88.697891	0.000639	6.385725	2.163542	-0.000256
 743	7.3829e+01	10.4291	88.512182	0.000466	4.662593	1.579729	-0.000187
 744	7.3928e+01	10.3922	88.253806	0.000649	6.487086	2.197884	-0.000260
 745	7.4028e+01	10.3569	88.011578	0.000608	6.081643	2.060516	-0.000243
 746	7.4127e+01	10.3088	87.797609	0.000537	5.372118	1.820123	-0.000215
 747	7.4227e+01	10.2687	87.583641	0.000537	5.372118	1.820123	-0.000215
 748	7.4326e+01	10.2286	87.333339	0.000628	6.284364	2.129200	-0.000252
 749	7.4426e+01	10.1901	87.115334	0.000547	5.473479	1.854465	-0.000219
 750	7.4525e+01	10.1516	86.881180	0.000588	5.878921	1.991833	-0.000235
 751	7.4625e+01	10.1147	86.638952	0.000608	6.081643	2.060516	-0.000243
 752	7.4725e+01	10.0650	86.392686	0.000618	6.183004	2.094858	-0.000248
 753	7.4824e+01	10.0345	86.198904	0.000487	4.865314	1.648413	-0.000195
 754	7.4924e+01	9.9960	85.936490	0.000659	6.588446	2.232226	-0.000264
 755	7.5023e+01	9.9575	85.710410	0.000568	5.676200	1.923149	-0.000227
 756	7.5123e+01	9.9142	85.464145	0.000618	6.183004	2.094858	-0.000248
 757	7.5222e+01	9.8708	85.229991	0.000588	5.878921	1.991833	-0.000235
 758	7.5322e+01	9.8339	84.955466	0.000689	6.892529	2.335252	-0.000276
 759	7.5421e+01	9.7970	84.765721	0.000476	4.763954	1.614071	-0.000191
 760	7.5520e+01	9.7537	84.543678	0.000557	5.574839	1.888807	-0.000223
 761	7.5620e+01	9.7088	84.293376	0.000628	6.284364	2.129200	-0.000252
 762	7.5719e+01	9.6671	84.030962	0.000659	6.588446	2.232226	-0.000264
 763	7.5819e+01	9.6350	83.796808	0.000588	5.878921	1.991833	-0.000235
 764	7.5918e+01	9.5949	83.623211	0.000436	4.358511	1.476703	-0.000174
 765	7.6018e+01	9.5484	83.328500	0.000740	7.399332	2.506962	-0.000296
 766	7.6118e+01	9.5131	83.074161	0.000639	6.385725	2.163542	-0.000256
 767	7.6217e+01	9.4794	82.840007	0.000588	5.878921	1.991833	-0.000235
 768	7.6317e+01	9.4329	82.626039	0.000537	5.372118	1.820123	-0.000215
 769	7.6416e+01	9.3944	82.383810	0.000608	6.081643	2.060516	-0.000243
 770	7.6516e+01	9.3591	82.141582	0.000608	6.081643	2.060516	-0.000243
 771	7.6615e+01	9.3190	81.919540	0.000557	5.574839	1.888807	-0.000223
 772	7.6715e+01	9.2741	81.677312	0.000608	6.081643	2.060516	-0.000243
 773	7.6814e+01	9.2259	81.439121	0.000598	5.980282	2.026174	-0.000239
 774	7.6913e+01	9.2019	81.188818	0.000628	6.284364	2.129200	-0.000252
 775	7.7013e+01	9.1554	80.934479	0.000639	6.385725	2.163542	-0.000256
 776	7.7112e+01	9.1136	80.712436	0.000557	5.574839	1.888807	-0.000223
 777	7.7212e+01	9.0832	80.458097	0.000639	6.385725	2.163542	-0.000256
 778	7.7311e+01	9.0286	80.244128	0.000537	5.372118	1.820123	-0.000215
 779	7.7411e+01	8.9917	79.973640	0.000679	6.791168	2.300910	-0.000272
 780	7.7510e+01	8.9548	79.707189	0.000669	6.689807	2.266568	-0.000268
 781	7.7610e+01	8.9260	79.489184	0.000547	5.473479	1.854465	-0.000219
 782	7.7710e+01	8.8714	79.259067	0.000578	5.777561	1.957491	-0.000231
 783	7.7809e+01	8.8361	78.976468	0.000710	7.095250	2.403936	-0.000284
 784	7.7909e+01	8.7992	78.710017	0.000669	6.689807	2.266568	-0.000268
 785	7.8008e+01	8.7543	78.455677	0.000639	6.385725	2.163542	-0.000256
 786	7.8108e+01	8.7238	78.253821	0.000507	5.068036	1.717097	-0.000203
 787	7.8207e+01	8.6789	77.963147	0.000730	7.297971	2.472620	-0.000292
 788	7.8306e+01	8.6388	77.737067	0.000568	5.676200	1.923149	-0.000227
 789	7.8406e+01	8.5939	77.494839	0.000608	6.081643	2.060516	-0.000243
 790	7.8505e+01	8.5586	77.244537	0.000628	6.284364	2.129200	-0.000252
 791	7.8605e+01	8.5137	76.994234	0.000628	6.284364	2.129200	-0.000252
 792	7.8704e+01	8.4928	76.752006	0.000608	6.081643	2.060516	-0.000243
 793	7.8804e+01	8.4351	76.485555	0.000669	6.689807	2.266568	-0.000268
 794	7.8903e+01	8.4062	76.211030	0.000689	6.892529	2.335252	-0.000276
 795	7.9003e+01	8.3532	75.924393	0.000720	7.196611	2.438278	-0.000288
 796	7.9103e+01	8.3228	75.710425	0.000537	5.372118	1.820123	-0.000215
 797	7.9202e+01	8.2810	75.492420	0.000547	5.473479	1.854465	-0.000219
 798	7.9302e+01	8.2361	75.169449	0.000811	8.108857	2.747355	-0.000325
 799	7.9401e+01	8.1976	74.967592	0.000507	5.068036	1.717097	-0.000203
 800	7.9501e+01	8.1607	74.693067	0.000689	6.892529	2.335252	-0.000276
 801	7.9600e+01	8.1206	74.458913	0.000588	5.878921	1.991833	-0.000235
 802	7.9700e+01	8.0757	74.168239	0.000730	7.297971	2.472620	-0.000292
 803	7.9799e+01	8.0452	73.926011	0.000608	6.081643	2.060516	-0.000243
 804	7.9898e+01	7.9987	73.643412	0.000710	7.095250	2.403936	-0.000284
 805	7.9998e+01	7.9538	73.441555	0.000507	5.068036	1.717097	-0.000203
 806	8.0097e+01	7.9185	73.187215	0.000639	6.385725	2.163542	-0.000256
 807	8.0197e+01	7.8944	72.932876	0.000639	6.385725	2.163542	-0.000256
 808	8.0296e+01	7.8383	72.678536	0.000639	6.385725	2.163542	-0.000256
 809	8.0396e+01	7.8062	72.412085	0.000669	6.689807	2.266568	-0.000268
 810	8.0496e+01	7.7581	72.153708	0.000649	6.487086	2.197884	-0.000260
 811	8.0595e+01	7.7228	71.883220	0.000679	6.791168	2.300910	-0.000272
 812	8.0695e+01	7.6859	71.632918	0.000628	6.284364	2.129200	-0.000252
 813	8.0794e+01	7.6442	71.394727	0.000598	5.980282	2.026174	-0.000239
 814	8.0894e+01	7.5928	71.128276	0.000669	6.689807	2.266568	-0.000268
 815	8.0993e+01	7.5575	70.894122	0.000588	5.878921	1.991833	-0.000235
 816	8.1093e+01	7.5239	70.631708	0.000659	6.588446	2.232226	-0.000264
 817	8.1192e+01	7.4870	70.393517	0.000598	5.980282	2.026174	-0.000239
 818	8.1291e+01	7.4404	70.098806	0.000740	7.399332	2.506962	-0.000296
 819	8.1391e+01	7.3971	69.836393	0.000659	6.588446	2.232226	-0.000264
 820	8.1490e+01	7.3650	69.578016	0.000649	6.487086	2.197884	-0.000260
 821	8.1590e+01	7.3233	69.323676	0.000639	6.385725	2.163542	-0.000256
 822	8.1689e+01	7.2816	69.069337	0.000639	6.385725	2.163542	-0.000256
 823	8.1789e+01	7.2383	68.827109	0.000608	6.081643	2.060516	-0.000243
 824	8.1888e+01	7.2078	68.552583	0.000689	6.892529	2.335252	-0.000276
 825	8.1988e+01	7.1533	68.298244	0.000639	6.385725	2.163542	-0.000256
 826	8.2088e+01	7.1340	68.060053	0.000598	5.980282	2.026174	-0.000239
 827	8.2187e+01	7.0907	67.757268	0.000760	7.602054	2.575645	-0.000304
 828	8.2287e+01	7.0458	67.519077	0.000598	5.980282	2.026174	-0.000239
 829	8.2386e+01	7.0073	67.264737	0.000639	6.385725	2.163542	-0.000256
 830	8.2486e+01	6.9527	67.038657	0.000568	5.676200	1.923149	-0.000227
 831	8.2585e+01	6.9207	66.735872	0.000760	7.602054	2.575645	-0.000304
 832	8.2684e+01	6.8806	66.469421	0.000669	6.689807	2.266568	-0.000268
 833	8.2784e+01	6.8453	66.202970	0.000669	6.689807	2.266568	-0.000268
 834	8.2883e+01	6.8084	65.968817	0.000588	5.878921	1.991833	-0.000235
 835	8.2983e+01	6.7634	65.690254	0.000699	6.993889	2.369594	-0.000280
 836	8.3082e+01	6.7265	65.415729	0.000689	6.892529	2.335252	-0.000276
 837	8.3182e+01	6.6832	65.149278	0.000669	6.689807	2.266568	-0.000268
 838	8.3281e+01	6.6479	64.939347	0.000527	5.270757	1.785781	-0.000211
 839	8.3381e+01	6.5998	64.660785	0.000699	6.993889	2.369594	-0.000280
 840	8.3481e+01	6.5565	64.382222	0.000699	6.993889	2.369594	-0.000280
 841	8.3580e+01	6.5260	64.095586	0.000720	7.196611	2.438278	-0.000288
 842	8.3680e+01	6.4779	63.833172	0.000659	6.588446	2.232226	-0.000264
 843	8.3779e+01	6.4506	63.623241	0.000527	5.270757	1.785781	-0.000211
 844	8.3879e+01	6.4057	63.344678	0.000699	6.993889	2.369594	-0.000280
 845	8.3978e+01	6.3720	63.070153	0.000689	6.892529	2.335252	-0.000276
 846	8.4078e+01	6.3255	62.807739	0.000659	6.588446	2.232226	-0.000264
 847	8.4177e+01	6.2870	62.521103	0.000720	7.196611	2.438278	-0.000288
 848	8.4276e+01	6.2517	62.311172	0.000527	5.270757	1.785781	-0.000211
 849	8.4376e+01	6.2116	62.024535	0.000720	7.196611	2.438278	-0.000288
 850	8.4475e+01	6.1667	61.701564	0.000811	8.108857	2.747355	-0.000325
 851	8.4575e+01	6.1298	61.447225	0.000639	6.385725	2.163542	-0.000256
 852	8.4674e+01	6.0913	61.184811	0.000659	6.588446	2.232226	-0.000264
 853	8.4774e+01	6.0431	60.942583	0.000608	6.081643	2.060516	-0.000243
 854	8.4874e+01	6.0175	60.643834	0.000750	7.500693	2.541304	-0.000300
 855	8.4973e+01	5.9694	60.345086	0.000750	7.500693	2.541304	-0.000300
 856	8.5073e+01	5.9308	60.086710	0.000649	6.487086	2.197884	-0.000260
 857	8.5172e+01	5.8940	59.872742	0.000537	5.372118	1.820123	-0.000215
 858	8.5272e+01	5.8410	59.573994	0.000750	7.500693	2.541304	-0.000300
 859	8.5371e+01	5.8057	59.311580	0.000659	6.588446	2.232226	-0.000264
 860	8.5471e+01	5.7656	59.000720	0.000780	7.804775	2.644329	-0.000312
 861	8.5570e+01	5.7351	58.750418	0.000628	6.284364	2.129200	-0.000252
 862	8.5669e+01	5.6870	58.471855	0.000699	6.993889	2.369594	-0.000280
 863	8.5769e+01	5.6469	58.221553	0.000628	6.284364	2.129200	-0.000252
 864	8.5868e+01	5.6052	57.914731	0.000770	7.703414	2.609987	-0.000308
 865	8.5968e+01	5.5731	57.712874	0.000507	5.068036	1.717097	-0.000203
 866	8.6067e+01	5.5362	57.393940	0.000801	8.007496	2.713013	-0.000321
 867	8.6167e+01	5.4913	57.111341	0.000710	7.095250	2.403936	-0.000284
 868	8.6266e+01	5.4432	56.848927	0.000659	6.588446	2.232226	-0.000264
 869	8.6366e+01	5.4143	56.590550	0.000649	6.487086	2.197884	-0.000260
 870	8.6466e+01	5.3758	56.291802	0.000750	7.500693	2.541304	-0.000300
 871	8.6565e+01	5.3341	56.045537	0.000618	6.183004	2.094858	-0.000248
 872	8.6665e+01	5.2892	55.766975	0.000699	6.993889	2.369594	-0.000280
 873	8.6764e+01	5.2587	55.516672	0.000628	6.284364	2.129200	-0.000252
 874	8.6864e+01	5.2154	55.213887	0.000760	7.602054	2.575645	-0.000304
 875	8.6963e+01	5.1801	54.963585	0.000628	6.284364	2.129200	-0.000252
 876	8.7063e+01	5.1303	54.693096	0.000679	6.791168	2.300910	-0.000272
 877	8.7162e+01	5.0838	54.394348	0.000750	7.500693	2.541304	-0.000300
 878	8.7261e+01	5.0517	54.131935	0.000659	6.588446	2.232226	-0.000264
 879	8.7361e+01	5.0052	53.821075	0.000780	7.804775	2.644329	-0.000312
 880	8.7460e+01	4.9587	53.590958	0.000578	5.777561	1.957491	-0.000231
 881	8.7560e+01	4.9330	53.296247	0.000740	7.399332	2.506962	-0.000296
 882	8.7659e+01	4.8977	52.989425	0.000770	7.703414	2.609987	-0.000308
 883	8.7759e+01	4.8576	52.698751	0.000730	7.297971	2.472620	-0.000292
 884	8.7859e+01	4.8207	52.456523	0.000608	6.081643	2.060516	-0.000243
 885	8.7958e+01	4.7790	52.173924	0.000710	7.095250	2.403936	-0.000284
 886	8.8058e+01	4.7405	51.895361	0.000699	6.993889	2.369594	-0.000280
 887	8.8157e+01	4.6860	51.572390	0.000811	8.108857	2.747355	-0.000325
 888	8.8257e+01	4.6523	51.318051	0.000639	6.385725	2.163542	-0.000256
 889	8.8356e+01	4.6090	51.031414	0.000720	7.196611	2.438278	-0.000288
 890	8.8456e+01	4.5753	50.756889	0.000689	6.892529	2.335252	-0.000276
 891	8.8555e+01	4.5336	50.502550	0.000639	6.385725	2.163542	-0.000256
 892	8.8654e+01	4.4967	50.199764	0.000760	7.602054	2.575645	-0.000304
 893	8.8754e+01	4.4501	49.876793	0.000811	8.108857	2.747355	-0.000325
 894	8.8853e+01	4.4148	49.614380	0.000659	6.588446	2.232226	-0.000264
 895	8.8953e+01	4.3796	49.311594	0.000760	7.602054	2.575645	-0.000304
 896	8.9052e+01	4.3362	49.069366	0.000608	6.081643	2.060516	-0.000243
 897	8.9152e+01	4.2945	48.722173	0.000872	8.717021	2.953407	-0.000349
 898	8.9251e+01	4.2544	48.492056	0.000578	5.777561	1.957491	-0.000231
 899	8.9351e+01	4.2223	48.201382	0.000730	7.297971	2.472620	-0.000292
 900	8.9451e+01	4.1806	47.882448	0.000801	8.007496	2.713013	-0.000321
 901	8.9550e+01	4.1389	47.567552	0.000791	7.906136	2.678671	-0.000316
 902	8.9650e+01	4.0844	47.264767	0.000760	7.602054	2.575645	-0.000304
 903	8.9749e+01	4.0459	47.018501	0.000618	6.183004	2.094858	-0.000248
 904	8.9849e+01	4.0106	46.719753	0.000750	7.500693	2.541304	-0.000300
 905	8.9948e+01	3.9785	46.441191	0.000699	6.993889	2.369594	-0.000280
 906	9.0047e+01	3.9368	46.118220	0.000811	8.108857	2.747355	-0.000325
 907	9.0147e+01	3.9015	45.871955	0.000618	6.183004	2.094858	-0.000248
 908	9.0246e+01	3.8502	45.536873	0.000841	8.412939	2.850381	-0.000337
 909	9.0346e+01	3.8229	45.282533	0.000639	6.385725	2.163542	-0.000256
 910	9.0445e+01	3.7764	44.967636	0.000791	7.906136	2.678671	-0.000316
 911	9.0545e+01	3.7395	44.689074	0.000699	6.993889	2.369594	-0.000280
 912	9.0644e+01	3.6945	44.353992	0.000841	8.412939	2.850381	-0.000337
 913	9.0744e+01	3.6641	44.115801	0.000598	5.980282	2.026174	-0.000239
 914	9.0844e+01	3.6224	43.772644	0.000862	8.615661	2.919065	-0.000345
 915	9.0943e+01	3.5823	43.502156	0.000679	6.791168	2.300910	-0.000272
 916	9.1043e+01	3.5438	43.159000	0.000862	8.615661	2.919065	-0.000345
 917	9.1142e+01	3.5036	42.940994	0.000547	5.473479	1.854465	-0.000219
 918	9.1242e+01	3.4587	42.581689	0.000902	9.021104	3.056433	-0.000361
 919	9.1341e+01	3.4106	42.323313	0.000649	6.487086	2.197884	-0.000260
 920	9.1441e+01	3.3721	41.996305	0.000821	8.210218	2.781697	-0.000329
 921	9.1540e+01	3.3368	41.725816	0.000679	6.791168	2.300910	-0.000272
 922	9.1639e+01	3.2999	41.447254	0.000699	6.993889	2.369594	-0.000280
 923	9.1739e+01	3.2598	41.100060	0.000872	8.717021	2.953407	-0.000349
 924	9.1838e+01	3.2213	40.805349	0.000740	7.399332	2.506962	-0.000296
 925	9.1938e+01	3.1732	40.502564	0.000760	7.602054	2.575645	-0.000304
 926	9.2037e+01	3.1395	40.248225	0.000639	6.385725	2.163542	-0.000256
 927	9.2137e+01	3.0994	39.929291	0.000801	8.007496	2.713013	-0.000321
 928	9.2237e+01	3.0577	39.658803	0.000679	6.791168	2.300910	-0.000272
 929	9.2336e+01	3.0192	39.331795	0.000821	8.210218	2.781697	-0.000329
 930	9.2436e+01	2.9726	38.976527	0.000892	8.919743	3.022091	-0.000357
 931	9.2535e+01	2.9341	38.665668	0.000780	7.804775	2.644329	-0.000312
 932	9.2635e+01	2.9021	38.391142	0.000689	6.892529	2.335252	-0.000276
 933	9.2734e+01	2.8732	38.100469	0.000730	7.297971	2.472620	-0.000292
 934	9.2834e+01	2.8234	37.785572	0.000791	7.906136	2.678671	-0.000316
 935	9.2933e+01	2.7882	37.527195	0.000649	6.487086	2.197884	-0.000260
 936	9.3032e+01	2.7416	37.192113	0.000841	8.412939	2.850381	-0.000337
 937	9.3132e+01	2.7047	36.905476	0.000720	7.196611	2.438278	-0.000288
 938	9.3231e+01	2.6550	36.578468	0.000821	8.210218	2.781697	-0.000329
 939	9.3331e+01	2.6197	36.307980	0.000679	6.791168	2.300910	-0.000272
 940	9.3430e+01	2.5796	35.972898	0.000841	8.412939	2.850381	-0.000337
 941	9.3530e+01	2.5347	35.694336	0.000699	6.993889	2.369594	-0.000280
 942	9.3629e+01	2.5010	35.359253	0.000841	8.412939	2.850381	-0.000337
 943	9.3729e+01	2.4609	35.064542	0.000740	7.399332	2.506962	-0.000296
 944	9.3829e+01	2.4256	34.773869	0.000730	7.297971	2.472620	-0.000292
 945	9.3928e+01	2.3807	34.394378	0.000953	9.527907	3.228142	-0.000381
 946	9.4028e+01	2.3390	34.111778	0.000710	7.095250	2.403936	-0.000284
 947	9.4127e+01	2.3037	33.788808	0.000811	8.108857	2.747355	-0.000325
 948	9.4227e+01	2.2652	33.538505	0.000628	6.284364	2.129200	-0.000252
 949	9.4326e+01	2.2219	33.179200	0.000902	9.021104	3.056433	-0.000361
 950	9.4425e+01	2.1818	32.884489	0.000740	7.399332	2.506962	-0.000296
 951	9.4525e+01	2.1368	32.565555	0.000801	8.007496	2.713013	-0.000321
 952	9.4624e+01	2.1015	32.222399	0.000862	8.615661	2.919065	-0.000345
 953	9.4724e+01	2.0663	31.935762	0.000720	7.196611	2.438278	-0.000288
 954	9.4823e+01	2.0149	31.649126	0.000720	7.196611	2.438278	-0.000288
 955	9.4923e+01	1.9892	31.310006	0.000851	8.514300	2.884723	-0.000341
 956	9.5022e+01	1.9475	31.003184	0.000770	7.703414	2.609987	-0.000308
 957	9.5122e+01	1.9042	30.647916	0.000892	8.919743	3.022091	-0.000357
 958	9.5222e+01	1.8593	30.373391	0.000689	6.892529	2.335252	-0.000276
 959	9.5321e+01	1.8320	30.050420	0.000811	8.108857	2.747355	-0.000325
 960	9.5421e+01	1.7839	29.715338	0.000841	8.412939	2.850381	-0.000337
 961	9.5520e+01	1.7454	29.388330	0.000821	8.210218	2.781697	-0.000329
 962	9.5620e+01	1.7053	29.101693	0.000720	7.196611	2.438278	-0.000288
 963	9.5719e+01	1.6636	28.762574	0.000851	8.514300	2.884723	-0.000341
 964	9.5819e+01	1.6267	28.459788	0.000760	7.602054	2.575645	-0.000304
 965	9.5918e+01	1.5882	28.144892	0.000791	7.906136	2.678671	-0.000316
 966	9.6017e+01	1.5513	27.829995	0.000791	7.906136	2.678671	-0.000316
 967	9.6117e+01	1.5048	27.511061	0.000801	8.007496	2.713013	-0.000321
 968	9.6216e+01	1.4727	27.204239	0.000770	7.703414	2.609987	-0.000308
 969	9.6316e+01	1.4262	26.893380	0.000780	7.804775	2.644329	-0.000312
 970	9.6415e+01	1.3909	26.598669	0.000740	7.399332	2.506962	-0.000296
 971	9.6515e+01	1.3476	26.243401	0.000892	8.919743	3.022091	-0.000357
 972	9.6615e+01	1.3107	25.908319	0.000841	8.412939	2.850381	-0.000337
 973	9.6714e+01	1.2625	25.621682	0.000720	7.196611	2.438278	-0.000288
 974	9.6814e+01	1.2240	25.226043	0.000993	9.933350	3.365510	-0.000398
 975	9.6913e+01	1.1968	25.020149	0.000517	5.169396	1.751439	-0.000207
 976	9.7013e+01	1.1470	24.668918	0.000882	8.818382	2.987749	-0.000353
 977	9.7112e+01	1.1085	24.358058	0.000780	7.804775	2.644329	-0.000312
 978	9.7212e+01	1.0668	23.982605	0.000943	9.426546	3.193800	-0.000377
 979	9.7311e+01	1.0219	23.675783	0.000770	7.703414	2.609987	-0.000308
 980	9.7410e+01	0.9818	23.393183	0.000710	7.095250	2.403936	-0.000284
 981	9.7510e+01	0.9497	23.037915	0.000892	8.919743	3.022091	-0.000357
 982	9.7609e+01	0.9000	22.747241	0.000730	7.297971	2.472620	-0.000292
 983	9.7709e+01	0.8695	22.440419	0.000770	7.703414	2.609987	-0.000308
 984	9.7808e+01	0.8294	22.105337	0.000841	8.412939	2.850381	-0.000337
 985	9.7908e+01	0.7877	21.778329	0.000821	8.210218	2.781697	-0.000329
 986	9.8007e+01	0.7444	21.495729	0.000710	7.095250	2.403936	-0.000284
 987	9.8107e+01	0.7027	21.148536	0.000872	8.717021	2.953407	-0.000349
 988	9.8207e+01	0.6609	20.845750	0.000760	7.602054	2.575645	-0.000304
 989	9.8306e+01	0.6273	20.518742	0.000821	8.210218	2.781697	-0.000329
 990	9.8406e+01	0.5904	20.183660	0.000841	8.412939	2.850381	-0.000337
 991	9.8505e+01	0.5486	19.844541	0.000851	8.514300	2.884723	-0.000341
 992	9.8605e+01	0.5118	19.541756	0.000760	7.602054	2.575645	-0.000304
 993	9.8704e+01	0.4749	19.247045	0.000740	7.399332	2.506962	-0.000296
 994	9.8803e+01	0.4364	18.924074	0.000811	8.108857	2.747355	-0.000325
 995	9.8903e+01	0.3898	18.568806	0.000892	8.919743	3.022091	-0.000357
 996	9.9002e+01	0.3401	18.213538	0.000892	8.919743	3.022091	-0.000357
 997	9.9102e+01	0.3128	17.943050	0.000679	6.791168	2.300910	-0.000272
 998	9.9201e+01	0.2599	17.559522	0.000963	9.629268	3.262484	-0.000385
 999	9.9301e+01	0.2294	17.284997	0.000689	6.892529	2.335252	-0.000276
1000	9.9400e+01	0.1813	16.921654	0.000912	9.122464	3.090775	-0.000365
1001	9.9500e+01	0.1540	16.639055	0.000710	7.095250	2.403936	-0.000284
1002	9.9600e+01	0.1139	16.287824	0.000882	8.818382	2.987749	-0.000353
1003	9.9699e+01	0.0738	15.972928	0.000791	7.906136	2.678671	-0.000316
1004	9.9799e+01	0.0289	15.658031	0.000791	7.906136	2.678671	-0.000316
1005	9.9898e+01	-0.0080	15.383506	0.000689	6.892529	2.335252	-0.000276
1006	9.9998e+01	-0.0401	15.076683	0.000770	7.703414	2.609987	-0.000308
1007	1.0010e+02	-0.0786	14.741601	0.000841	8.412939	2.850381	-0.000337
1008	1.0020e+02	-0.1171	14.398445	0.000862	8.615661	2.919065	-0.000345
1009	1.0030e+02	-0.1604	14.051251	0.000872	8.717021	2.953407	-0.000349
1010	1.0040e+02	-0.2005	13.780763	0.000679	6.791168	2.300910	-0.000272
1011	1.0050e+02	-0.2390	13.465866	0.000791	7.906136	2.678671	-0.000316
1012	1.0059e+02	-0.2872	13.106561	0.000902	9.021104	3.056433	-0.000361
1013	1.0069e+02	-0.3192	12.823962	0.000710	7.095250	2.403936	-0.000284
1014	1.0079e+02	-0.3577	12.452545	0.000933	9.325186	3.159458	-0.000373
1015	1.0089e+02	-0.3962	12.153797	0.000750	7.500693	2.541304	-0.000300
1016	1.0099e+02	-0.4299	11.794492	0.000902	9.021104	3.056433	-0.000361
1017	1.0109e+02	-0.4765	11.459410	0.000841	8.412939	2.850381	-0.000337
1018	1.0119e+02	-0.5246	11.160662	0.000750	7.500693	2.541304	-0.000300
1019	1.0129e+02	-0.5599	10.817505	0.000862	8.615661	2.919065	-0.000345
1020	1.0139e+02	-0.5920	10.506646	0.000780	7.804775	2.644329	-0.000312
1021	1.0149e+02	-0.6369	10.159452	0.000872	8.717021	2.953407	-0.000349
1022	1.0159e+02	-0.6818	9.836481	0.000811	8.108857	2.747355	-0.000325
1023	1.0169e+02	-0.7171	9.517548	0.000801	8.007496	2.713013	-0.000321
1024	1.0179e+02	-0.7620	9.170354	0.000872	8.717021	2.953407	-0.000349
1025	1.0189e+02	-0.8021	8.855457	0.000791	7.906136	2.678671	-0.000316
1026	1.0199e+02	-0.8438	8.512301	0.000862	8.615661	2.919065	-0.000345
1027	1.0209e+02	-0.8679	8.221627	0.000730	7.297971	2.472620	-0.000292
1028	1.0219e+02	-0.9240	7.862322	0.000902	9.021104	3.056433	-0.000361
1029	1.0229e+02	-0.9625	7.515128	0.000872	8.717021	2.953407	-0.000349
1030	1.0239e+02	-1.0059	7.200232	0.000791	7.906136	2.678671	-0.000316
1031	1.0248e+02	-1.0428	6.885335	0.000791	7.906136	2.678671	-0.000316
1032	1.0258e+02	-1.0829	6.566401	0.000801	8.007496	2.713013	-0.000321
1033	1.0268e+02	-1.1262	6.194985	0.000933	9.325186	3.159458	-0.000373
1034	1.0278e+02	-1.1695	5.884125	0.000780	7.804775	2.644329	-0.000312
1035	1.0288e+02	-1.2032	5.553080	0.000831	8.311579	2.816039	-0.000333
1036	1.0298e+02	-1.2369	5.242221	0.000780	7.804775	2.644329	-0.000312
1037	1.0308e+02	-1.2802	4.915213	0.000821	8.210218	2.781697	-0.000329
1038	1.0318e+02	-1.3203	4.584168	0.000831	8.311579	2.816039	-0.000333
1039	1.0328e+02	-1.3604	4.208714	0.000943	9.426546	3.193800	-0.000377
1040	1.0338e+02	-1.4085	3.922077	0.000720	7.196611	2.438278	-0.000288
1041	1.0348e+02	-1.4422	3.582958	0.000851	8.514300	2.884723	-0.000341
1042	1.0358e+02	-1.4711	3.272099	0.000780	7.804775	2.644329	-0.000312
1043	1.0368e+02	-1.5224	2.908756	0.000912	9.122464	3.090775	-0.000365
1044	1.0378e+02	-1.5497	2.585785	0.000811	8.108857	2.747355	-0.000325
1045	1.0388e+02	-1.5946	2.299149	0.000720	7.196611	2.438278	-0.000288
1046	1.0398e+02	-1.6379	1.935807	0.000912	9.122464	3.090775	-0.000365
1047	1.0408e+02	-1.6668	1.633021	0.000760	7.602054	2.575645	-0.000304
1048	1.0418e+02	-1.7278	1.293902	0.000851	8.514300	2.884723	-0.000341
1049	1.0428e+02	-1.7502	0.974968	0.000801	8.007496	2.713013	-0.000321
1050	1.0438e+02	-1.7951	0.639886	0.000841	8.412939	2.850381	-0.000337
1051	1.0447e+02	-1.8401	0.312878	0.000821	8.210218	2.781697	-0.000329
1052	1.0457e+02	-1.8770	-0.030279	0.000862	8.615661	2.919065	-0.000345
1053	1.0467e+02	-1.9203	-0.377472	0.000872	8.717021	2.953407	-0.000349
1054	1.0477e+02	-1.9572	-0.639886	0.000659	6.588446	2.232226	-0.000264
1055	1.0487e+02	-1.9957	-1.019377	0.000953	9.527907	3.228142	-0.000381
1056	1.0497e+02	-2.0374	-1.350422	0.000831	8.311579	2.816039	-0.000333
1057	1.0507e+02	-2.0743	-1.665318	0.000791	7.906136	2.678671	-0.000316
1058	1.0517e+02	-2.1128	-1.972141	0.000770	7.703414	2.609987	-0.000308
1059	1.0527e+02	-2.1609	-2.319334	0.000872	8.717021	2.953407	-0.000349
1060	1.0537e+02	-2.1994	-2.666528	0.000872	8.717021	2.953407	-0.000349
1061	1.0547e+02	-2.2347	-2.977388	0.000780	7.804775	2.644329	-0.000312
1062	1.0557e+02	-2.2764	-3.340730	0.000912	9.122464	3.090775	-0.000365
1063	1.0567e+02	-2.3165	-3.627366	0.000720	7.196611	2.438278	-0.000288
1064	1.0577e+02	-2.3470	-3.982634	0.000892	8.919743	3.022091	-0.000357
1065	1.0587e+02	-2.3999	-4.265234	0.000710	7.095250	2.403936	-0.000284
1066	1.0597e+02	-2.4320	-4.648762	0.000963	9.629268	3.262484	-0.000385
1067	1.0607e+02	-2.4625	-4.967696	0.000801	8.007496	2.713013	-0.000321
1068	1.0617e+02	-2.5219	-5.290666	0.000811	8.108857	2.747355	-0.000325
1069	1.0627e+02	-2.5604	-5.609600	0.000801	8.007496	2.713013	-0.000321
1070	1.0637e+02	-2.6005	-5.952757	0.000862	8.615661	2.919065	-0.000345
1071	1.0647e+02	-2.6325	-6.303987	0.000882	8.818382	2.987749	-0.000353
1072	1.0656e+02	-2.6775	-6.606773	0.000760	7.602054	2.575645	-0.000304
1073	1.0666e+02	-2.7063	-6.933781	0.000821	8.210218	2.781697	-0.000329
1074	1.0676e+02	-2.7513	-7.280974	0.000872	8.717021	2.953407	-0.000349
1075	1.0686e+02	-2.7994	-7.599908	0.000801	8.007496	2.713013	-0.000321
1076	1.0696e+02	-2.8299	-7.914805	0.000791	7.906136	2.678671	-0.000316
1077	1.0706e+02	-2.8700	-8.253924	0.000851	8.514300	2.884723	-0.000341
1078	1.0716e+02	-2.9149	-8.589006	0.000841	8.412939	2.850381	-0.000337
1079	1.0726e+02	-2.9534	-8.956386	0.000922	9.223825	3.125117	-0.000369
1080	1.0736e+02	-2.9807	-9.247059	0.000730	7.297971	2.472620	-0.000292
1081	1.0746e+02	-3.0384	-9.533696	0.000720	7.196611	2.438278	-0.000288
1082	1.0756e+02	-3.0753	-9.864741	0.000831	8.311579	2.816039	-0.000333
1083	1.0766e+02	-3.1074	-10.187712	0.000811	8.108857	2.747355	-0.000325
1084	1.0776e+02	-3.1587	-10.555091	0.000922	9.223825	3.125117	-0.000369
1085	1.0786e+02	-3.1908	-10.837691	0.000710	7.095250	2.403936	-0.000284
1086	1.0796e+02	-3.2341	-11.184885	0.000872	8.717021	2.953407	-0.000349
1087	1.0806e+02	-3.2678	-11.479595	0.000740	7.399332	2.506962	-0.000296
1088	1.0816e+02	-3.3127	-11.806603	0.000821	8.210218	2.781697	-0.000329
1089	1.0826e+02	-3.3480	-12.129574	0.000811	8.108857	2.747355	-0.000325
1090	1.0836e+02	-3.3897	-12.456582	0.000821	8.210218	2.781697	-0.000329
1091	1.0845e+02	-3.4282	-12.799739	0.000862	8.615661	2.919065	-0.000345
1092	1.0855e+02	-3.4748	-13.142895	0.000862	8.615661	2.919065	-0.000345
1093	1.0865e+02	-3.5085	-13.449718	0.000770	7.703414	2.609987	-0.000308
1094	1.0875e+02	-3.5470	-13.760577	0.000780	7.804775	2.644329	-0.000312
1095	1.0885e+02	-3.5919	-14.067399	0.000770	7.703414	2.609987	-0.000308
1096	1.0895e+02	-3.6336	-14.370185	0.000760	7.602054	2.575645	-0.000304
1097	1.0905e+02	-3.6721	-14.725453	0.000892	8.919743	3.022091	-0.000357
1098	1.0915e+02	-3.7026	-15.012089	0.000720	7.196611	2.438278	-0.000288
1099	1.0925e+02	-3.7459	-15.302763	0.000730	7.297971	2.472620	-0.000292
1100	1.0935e+02	-3.7812	-15.674180	0.000933	9.325186	3.159458	-0.000373
1101	1.0945e+02	-3.8325	-16.001187	0.000821	8.210218	2.781697	-0.000329
1102	1.0955e+02	-3.8694	-16.291861	0.000730	7.297971	2.472620	-0.000292
1103	1.0965e+02	-3.9159	-16.626944	0.000841	8.412939	2.850381	-0.000337
1104	1.0975e+02	-3.9512	-16.941840	0.000791	7.906136	2.678671	-0.000316
1105	1.0985e+02	-3.9897	-17.260774	0.000801	8.007496	2.713013	-0.000321
1106	1.0995e+02	-4.0379	-17.559522	0.000750	7.500693	2.541304	-0.000300
1107	1.1005e+02	-4.0651	-17.878456	0.000801	8.007496	2.713013	-0.000321
1108	1.1015e+02	-4.1020	-18.189315	0.000780	7.804775	2.644329	-0.000312
1109	1.1025e+02	-4.1453	-18.508249	0.000801	8.007496	2.713013	-0.000321
1110	1.1035e+02	-4.1919	-18.827183	0.000801	8.007496	2.713013	-0.000321
1111	1.1044e+02	-4.2255	-19.101708	0.000689	6.892529	2.335252	-0.000276
1112	1.1054e+02	-4.2641	-19.436790	0.000841	8.412939	2.850381	-0.000337
1113	1.1064e+02	-4.3042	-19.771872	0.000841	8.412939	2.850381	-0.000337
1114	1.1074e+02	-4.3459	-20.066583	0.000740	7.399332	2.506962	-0.000296
1115	1.1084e+02	-4.3763	-20.341108	0.000689	6.892529	2.335252	-0.000276
1116	1.1094e+02	-4.4245	-20.680228	0.000851	8.514300	2.884723	-0.000341
1117	1.1104e+02	-4.4598	-20.974939	0.000740	7.399332	2.506962	-0.000296
1118	1.1114e+02	-4.5031	-21.338281	0.000912	9.122464	3.090775	-0.000365
1119	1.1124e+02	-4.5336	-21.596658	0.000649	6.487086	2.197884	-0.000260
1120	1.1134e+02	-4.5897	-21.907517	0.000780	7.804775	2.644329	-0.000312
1121	1.1144e+02	-4.6234	-22.206265	0.000750	7.500693	2.541304	-0.000300
1122	1.1154e+02	-4.6571	-22.533273	0.000821	8.210218	2.781697	-0.000329
1123	1.1164e+02	-4.7036	-22.876430	0.000862	8.615661	2.919065	-0.000345
1124	1.1174e+02	-4.7533	-23.134806	0.000649	6.487086	2.197884	-0.000260
1125	1.1184e+02	-4.7854	-23.453740	0.000801	8.007496	2.713013	-0.000321
1126	1.1194e+02	-4.8336	-23.788822	0.000841	8.412939	2.850381	-0.000337
1127	1.1204e+02	-4.8640	-24.083533	0.000740	7.399332	2.506962	-0.000296
1128	1.1214e+02	-4.8993	-24.414578	0.000831	8.311579	2.816039	-0.000333
1129	1.1224e+02	-4.9507	-24.648732	0.000588	5.878921	1.991833	-0.000235
1130	1.1234e+02	-4.9956	-25.008037	0.000902	9.021104	3.056433	-0.000361
1131	1.1244e+02	-5.0309	-25.310823	0.000760	7.602054	2.575645	-0.000304
1132	1.1253e+02	-5.0630	-25.601496	0.000730	7.297971	2.472620	-0.000292
1133	1.1263e+02	-5.1047	-25.888133	0.000720	7.196611	2.438278	-0.000288
1134	1.1273e+02	-5.1384	-26.215141	0.000821	8.210218	2.781697	-0.000329
1135	1.1283e+02	-5.1801	-26.509852	0.000740	7.399332	2.506962	-0.000296
1136	1.1293e+02	-5.2122	-26.796488	0.000720	7.196611	2.438278	-0.000288
1137	1.1303e+02	-5.2715	-27.111385	0.000791	7.906136	2.678671	-0.000316
1138	1.1313e+02	-5.3020	-27.406096	0.000740	7.399332	2.506962	-0.000296
1139	1.1323e+02	-5.3469	-27.684658	0.000699	6.993889	2.369594	-0.000280
1140	1.1333e+02	-5.3790	-27.947072	0.000659	6.588446	2.232226	-0.000264
1141	1.1343e+02	-5.4287	-28.306377	0.000902	9.021104	3.056433	-0.000361
1142	1.1353e+02	-5.4624	-28.609162	0.000760	7.602054	2.575645	-0.000304
1143	1.1363e+02	-5.5073	-28.920022	0.000780	7.804775	2.644329	-0.000312
1144	1.1373e+02	-5.5458	-29.182436	0.000659	6.588446	2.232226	-0.000264
1145	1.1383e+02	-5.5843	-29.477147	0.000740	7.399332	2.506962	-0.000296
1146	1.1393e+02	-5.6212	-29.775895	0.000750	7.500693	2.541304	-0.000300
1147	1.1403e+02	-5.6597	-30.066568	0.000730	7.297971	2.472620	-0.000292
1148	1.1413e+02	-5.6950	-30.377428	0.000780	7.804775	2.644329	-0.000312
1149	1.1423e+02	-5.7335	-30.615619	0.000598	5.980282	2.026174	-0.000239
1150	1.1433e+02	-5.7768	-30.930515	0.000791	7.906136	2.678671	-0.000316
1151	1.1442e+02	-5.8186	-31.233301	0.000760	7.602054	2.575645	-0.000304
1152	1.1452e+02	-5.8619	-31.499752	0.000669	6.689807	2.266568	-0.000268
1153	1.1462e+02	-5.9052	-31.838871	0.000851	8.514300	2.884723	-0.000341
1154	1.1472e+02	-5.9325	-32.101285	0.000659	6.588446	2.232226	-0.000264
1155	1.1482e+02	-5.9854	-32.412144	0.000780	7.804775	2.644329	-0.000312
1156	1.1492e+02	-6.0223	-32.706855	0.000740	7.399332	2.506962	-0.000296
1157	1.1502e+02	-6.0608	-32.928898	0.000557	5.574839	1.888807	-0.000223
1158	1.1512e+02	-6.1089	-33.272054	0.000862	8.615661	2.919065	-0.000345
1159	1.1522e+02	-6.1394	-33.526394	0.000639	6.385725	2.163542	-0.000256
1160	1.1532e+02	-6.1875	-33.804956	0.000699	6.993889	2.369594	-0.000280
1161	1.1542e+02	-6.2228	-34.079481	0.000689	6.892529	2.335252	-0.000276
1162	1.1552e+02	-6.2565	-34.378229	0.000750	7.500693	2.541304	-0.000300
1163	1.1562e+02	-6.2966	-34.681015	0.000760	7.602054	2.575645	-0.000304
1164	1.1572e+02	-6.3383	-34.975725	0.000740	7.399332	2.506962	-0.000296
1165	1.1582e+02	-6.3736	-35.242176	0.000669	6.689807	2.266568	-0.000268
1166	1.1592e+02	-6.4217	-35.540924	0.000750	7.500693	2.541304	-0.000300
1167	1.1602e+02	-6.4586	-35.750856	0.000527	5.270757	1.785781	-0.000211
1168	1.1612e+02	-6.4987	-36.065752	0.000791	7.906136	2.678671	-0.000316
1169	1.1622e+02	-6.5260	-36.352389	0.000720	7.196611	2.438278	-0.000288
1170	1.1632e+02	-6.5790	-36.622877	0.000679	6.791168	2.300910	-0.000272
1171	1.1642e+02	-6.6159	-36.921625	0.000750	7.500693	2.541304	-0.000300
1172	1.1651e+02	-6.6560	-37.175964	0.000639	6.385725	2.163542	-0.000256
1173	1.1661e+02	-6.6945	-37.470675	0.000740	7.399332	2.506962	-0.000296
1174	1.1671e+02	-6.7410	-37.733089	0.000659	6.588446	2.232226	-0.000264
1175	1.1681e+02	-6.7634	-37.999540	0.000669	6.689807	2.266568	-0.000268
1176	1.1691e+02	-6.8148	-38.322511	0.000811	8.108857	2.747355	-0.000325
1177	1.1701e+02	-6.8533	-38.568776	0.000618	6.183004	2.094858	-0.000248
1178	1.1711e+02	-6.9046	-38.831190	0.000659	6.588446	2.232226	-0.000264
1179	1.1721e+02	-6.9319	-39.081493	0.000628	6.284364	2.129200	-0.000252
1180	1.1731e+02	-6.9672	-39.432723	0.000882	8.818382	2.987749	-0.000353
1181	1.1741e+02	-7.0153	-39.699174	0.000669	6.689807	2.266568	-0.000268
1182	1.1751e+02	-7.0570	-39.925254	0.000568	5.676200	1.923149	-0.000227
1183	1.1761e+02	-7.0939	-40.248225	0.000811	8.108857	2.747355	-0.000325
1184	1.1771e+02	-7.1292	-40.522750	0.000689	6.892529	2.335252	-0.000276
1185	1.1781e+02	-7.1725	-40.785164	0.000659	6.588446	2.232226	-0.000264
1186	1.1791e+02	-7.2142	-41.027392	0.000608	6.081643	2.060516	-0.000243
1187	1.1801e+02	-7.2511	-41.354400	0.000821	8.210218	2.781697	-0.000329
1188	1.1811e+02	-7.2961	-41.596628	0.000608	6.081643	2.060516	-0.000243
1189	1.1821e+02	-7.3410	-41.859042	0.000659	6.588446	2.232226	-0.000264
1190	1.1831e+02	-7.3682	-42.141641	0.000710	7.095250	2.403936	-0.000284
1191	1.1841e+02	-7.4100	-42.412129	0.000679	6.791168	2.300910	-0.000272
1192	1.1850e+02	-7.4533	-42.662432	0.000628	6.284364	2.129200	-0.000252
1193	1.1860e+02	-7.4902	-42.949069	0.000720	7.196611	2.438278	-0.000288
1194	1.1870e+02	-7.5319	-43.251854	0.000760	7.602054	2.575645	-0.000304
1195	1.1880e+02	-7.5752	-43.502156	0.000628	6.284364	2.129200	-0.000252
1196	1.1890e+02	-7.6153	-43.740347	0.000598	5.980282	2.026174	-0.000239
1197	1.1900e+02	-7.6506	-44.010835	0.000679	6.791168	2.300910	-0.000272
1198	1.1910e+02	-7.6987	-44.297472	0.000720	7.196611	2.438278	-0.000288
1199	1.1920e+02	-7.7404	-44.604294	0.000770	7.703414	2.609987	-0.000308
1200	1.1930e+02	-7.7757	-44.862671	0.000649	6.487086	2.197884	-0.000260
1201	1.1940e+02	-7.8126	-45.088750	0.000568	5.676200	1.923149	-0.000227
1202	1.1950e+02	-7.8431	-45.383461	0.000740	7.399332	2.506962	-0.000296
1203	1.1960e+02	-7.8896	-45.621652	0.000598	5.980282	2.026174	-0.000239
1204	1.1970e+02	-7.9265	-45.880029	0.000649	6.487086	2.197884	-0.000260
1205	1.1980e+02	-7.9730	-46.138406	0.000649	6.487086	2.197884	-0.000260
1206	1.1990e+02	-8.0035	-46.412931	0.000689	6.892529	2.335252	-0.000276
1207	1.2000e+02	-8.0532	-46.723790	0.000780	7.804775	2.644329	-0.000312
1208	1.2010e+02	-8.0885	-46.945833	0.000557	5.574839	1.888807	-0.000223
1209	1.2020e+02	-8.1319	-47.212284	0.000669	6.689807	2.266568	-0.000268
1210	1.2030e+02	-8.1688	-47.474698	0.000659	6.588446	2.232226	-0.000264
1211	1.2039e+02	-8.2057	-47.737112	0.000659	6.588446	2.232226	-0.000264
1212	1.2049e+02	-8.2554	-48.003562	0.000669	6.689807	2.266568	-0.000268
1213	1.2059e+02	-8.2843	-48.257902	0.000639	6.385725	2.163542	-0.000256
1214	1.2069e+02	-8.3308	-48.524353	0.000669	6.689807	2.266568	-0.000268
1215	1.2079e+02	-8.3661	-48.782730	0.000649	6.487086	2.197884	-0.000260
1216	1.2089e+02	-8.4046	-49.028995	0.000618	6.183004	2.094858	-0.000248
1217	1.2099e+02	-8.4431	-49.303520	0.000689	6.892529	2.335252	-0.000276
1218	1.2109e+02	-8.4848	-49.594194	0.000730	7.297971	2.472620	-0.000292
1219	1.2119e+02	-8.5233	-49.848534	0.000639	6.385725	2.163542	-0.000256
1220	1.2129e+02	-8.5730	-50.110947	0.000659	6.588446	2.232226	-0.000264
1221	1.2139e+02	-8.6083	-50.389510	0.000699	6.993889	2.369594	-0.000280
1222	1.2149e+02	-8.6564	-50.651924	0.000659	6.588446	2.232226	-0.000264
1223	1.2159e+02	-8.6853	-50.865892	0.000537	5.372118	1.820123	-0.000215
1224	1.2169e+02	-8.7222	-51.140417	0.000689	6.892529	2.335252	-0.000276
1225	1.2179e+02	-8.7591	-51.406868	0.000669	6.689807	2.266568	-0.000268
1226	1.2189e+02	-8.8185	-51.645059	0.000598	5.980282	2.026174	-0.000239
1227	1.2199e+02	-8.8425	-51.919584	0.000689	6.892529	2.335252	-0.000276
1228	1.2209e+02	-8.8987	-52.206221	0.000720	7.196611	2.438278	-0.000288
1229	1.2219e+02	-8.9308	-52.452486	0.000618	6.183004	2.094858	-0.000248
1230	1.2229e+02	-8.9741	-52.694714	0.000608	6.081643	2.060516	-0.000243
1231	1.2239e+02	-9.0014	-52.916757	0.000557	5.574839	1.888807	-0.000223
1232	1.2248e+02	-9.0511	-53.183208	0.000669	6.689807	2.266568	-0.000268
1233	1.2258e+02	-9.0880	-53.485993	0.000760	7.602054	2.575645	-0.000304
1234	1.2268e+02	-9.1201	-53.716110	0.000578	5.777561	1.957491	-0.000231
1235	1.2278e+02	-9.1682	-54.014858	0.000750	7.500693	2.541304	-0.000300
1236	1.2288e+02	-9.2099	-54.265160	0.000628	6.284364	2.129200	-0.000252
1237	1.2298e+02	-9.2484	-54.491240	0.000568	5.676200	1.923149	-0.000227
1238	1.2308e+02	-9.2853	-54.765765	0.000689	6.892529	2.335252	-0.000276
1239	1.2318e+02	-9.3222	-55.028179	0.000659	6.588446	2.232226	-0.000264
1240	1.2328e+02	-9.3671	-55.254258	0.000568	5.676200	1.923149	-0.000227
1241	1.2338e+02	-9.4040	-55.536858	0.000710	7.095250	2.403936	-0.000284
1242	1.2348e+02	-9.4409	-55.815420	0.000699	6.993889	2.369594	-0.000280
1243	1.2358e+02	-9.4778	-56.061685	0.000618	6.183004	2.094858	-0.000248
1244	1.2368e+02	-9.5259	-56.303914	0.000608	6.081643	2.060516	-0.000243
1245	1.2378e+02	-9.5676	-56.578439	0.000689	6.892529	2.335252	-0.000276
1246	1.2388e+02	-9.6013	-56.824704	0.000618	6.183004	2.094858	-0.000248
1247	1.2398e+02	-9.6430	-57.091155	0.000669	6.689807	2.266568	-0.000268
1248	1.2408e+02	-9.6848	-57.333383	0.000608	6.081643	2.060516	-0.000243
1249	1.2418e+02	-9.7200	-57.599834	0.000669	6.689807	2.266568	-0.000268
1250	1.2428e+02	-9.7650	-57.854174	0.000639	6.385725	2.163542	-0.000256
1251	1.2438e+02	-9.8051	-58.160996	0.000770	7.703414	2.609987	-0.000308
1252	1.2447e+02	-9.8388	-58.338630	0.000446	4.459871	1.511045	-0.000179
1253	1.2457e+02	-9.8757	-58.605081	0.000669	6.689807	2.266568	-0.000268
1254	1.2467e+02	-9.9318	-58.835198	0.000578	5.777561	1.957491	-0.000231
1255	1.2477e+02	-9.9591	-59.117797	0.000710	7.095250	2.403936	-0.000284
1256	1.2487e+02	-10.0056	-59.364062	0.000618	6.183004	2.094858	-0.000248
1257	1.2497e+02	-10.0393	-59.658773	0.000740	7.399332	2.506962	-0.000296
1258	1.2507e+02	-10.0778	-59.933299	0.000689	6.892529	2.335252	-0.000276
1259	1.2517e+02	-10.1195	-60.119007	0.000466	4.662593	1.579729	-0.000187
1260	1.2527e+02	-10.1580	-60.446015	0.000821	8.210218	2.781697	-0.000329
1261	1.2537e+02	-10.2013	-60.643834	0.000497	4.966675	1.682755	-0.000199
1262	1.2547e+02	-10.2478	-60.898174	0.000639	6.385725	2.163542	-0.000256
1263	1.2557e+02	-10.2815	-61.184811	0.000720	7.196611	2.438278	-0.000288
1264	1.2567e+02	-10.3072	-61.431076	0.000618	6.183004	2.094858	-0.000248
1265	1.2577e+02	-10.3601	-61.661193	0.000578	5.777561	1.957491	-0.000231
1266	1.2587e+02	-10.3970	-61.959941	0.000750	7.500693	2.541304	-0.000300
1267	1.2597e+02	-10.4371	-62.186020	0.000568	5.676200	1.923149	-0.000227
1268	1.2607e+02	-10.4869	-62.472657	0.000720	7.196611	2.438278	-0.000288
1269	1.2617e+02	-10.5125	-62.674514	0.000507	5.068036	1.717097	-0.000203
1270	1.2627e+02	-10.5623	-62.953076	0.000699	6.993889	2.369594	-0.000280
1271	1.2636e+02	-10.5976	-63.175119	0.000557	5.574839	1.888807	-0.000223
1272	1.2646e+02	-10.6409	-63.441570	0.000669	6.689807	2.266568	-0.000268
1273	1.2656e+02	-10.6794	-63.647463	0.000517	5.169396	1.751439	-0.000207
1274	1.2666e+02	-10.7227	-63.958323	0.000780	7.804775	2.644329	-0.000312
1275	1.2676e+02	-10.7644	-64.176328	0.000547	5.473479	1.854465	-0.000219
1276	1.2686e+02	-10.8029	-64.499299	0.000811	8.108857	2.747355	-0.000325
1277	1.2696e+02	-10.8398	-64.672896	0.000436	4.358511	1.476703	-0.000174
1278	1.2706e+02	-10.8767	-64.963570	0.000730	7.297971	2.472620	-0.000292
1279	1.2716e+02	-10.9232	-65.189649	0.000568	5.676200	1.923149	-0.000227
1280	1.2726e+02	-10.9489	-65.472249	0.000710	7.095250	2.403936	-0.000284
1281	1.2736e+02	-10.9938	-65.718514	0.000618	6.183004	2.094858	-0.000248
1282	1.2746e+02	-11.0339	-65.940557	0.000557	5.574839	1.888807	-0.000223
1283	1.2756e+02	-11.0836	-66.231230	0.000730	7.297971	2.472620	-0.000292
1284	1.2766e+02	-11.1157	-66.449236	0.000547	5.473479	1.854465	-0.000219
1285	1.2776e+02	-11.1606	-66.760095	0.000780	7.804775	2.644329	-0.000312
1286	1.2786e+02	-11.2056	-66.982138	0.000557	5.574839	1.888807	-0.000223
1287	1.2796e+02	-11.2393	-67.212254	0.000578	5.777561	1.957491	-0.000231
1288	1.2806e+02	-11.2778	-67.482742	0.000679	6.791168	2.300910	-0.000272
1289	1.2816e+02	-11.3243	-67.700748	0.000547	5.473479	1.854465	-0.000219
1290	1.2826e+02	-11.3612	-67.963162	0.000659	6.588446	2.232226	-0.000264
1291	1.2835e+02	-11.4029	-68.229613	0.000669	6.689807	2.266568	-0.000268
1292	1.2845e+02	-11.4382	-68.463766	0.000588	5.878921	1.991833	-0.000235
1293	1.2855e+02	-11.4767	-68.766552	0.000760	7.602054	2.575645	-0.000304
1294	1.2865e+02	-11.5200	-68.992631	0.000568	5.676200	1.923149	-0.000227
1295	1.2875e+02	-11.5521	-69.238896	0.000618	6.183004	2.094858	-0.000248
1296	1.2885e+02	-11.5938	-69.477087	0.000598	5.980282	2.026174	-0.000239
1297	1.2895e+02	-11.6355	-69.779873	0.000760	7.602054	2.575645	-0.000304
1298	1.2905e+02	-11.6820	-70.042286	0.000659	6.588446	2.232226	-0.000264
1299	1.2915e+02	-11.7253	-70.219920	0.000446	4.459871	1.511045	-0.000179
1300	1.2925e+02	-11.7494	-70.494446	0.000689	6.892529	2.335252	-0.000276
1301	1.2935e+02	-11.7895	-70.764934	0.000679	6.791168	2.300910	-0.000272
1302	1.2945e+02	-11.8408	-70.982939	0.000547	5.473479	1.854465	-0.000219
1303	1.2955e+02	-11.8777	-71.273613	0.000730	7.297971	2.472620	-0.000292
1304	1.2965e+02	-11.9066	-71.491618	0.000547	5.473479	1.854465	-0.000219
1305	1.2975e+02	-11.9580	-71.729809	0.000598	5.980282	2.026174	-0.000239
1306	1.2985e+02	-11.9916	-72.000297	0.000679	6.791168	2.300910	-0.000272
1307	1.2995e+02	-12.0366	-72.238488	0.000598	5.980282	2.026174	-0.000239
1308	1.3005e+02	-12.0686	-72.476679	0.000598	5.980282	2.026174	-0.000239
1309	1.3015e+02	-12.1071	-72.710833	0.000588	5.878921	1.991833	-0.000235
1310	1.3025e+02	-12.1537	-72.985358	0.000689	6.892529	2.335252	-0.000276
1311	1.3034e+02	-12.1890	-73.276032	0.000730	7.297971	2.472620	-0.000292
1312	1.3044e+02	-12.2339	-73.490000	0.000537	5.372118	1.820123	-0.000215
1313	1.3054e+02	-12.2660	-73.716080	0.000568	5.676200	1.923149	-0.000227
1314	1.3064e+02	-12.3189	-73.974457	0.000649	6.487086	2.197884	-0.000260
1315	1.3074e+02	-12.3526	-74.273205	0.000750	7.500693	2.541304	-0.000300
1316	1.3084e+02	-12.3927	-74.471024	0.000497	4.966675	1.682755	-0.000199
1317	1.3094e+02	-12.4376	-74.721327	0.000628	6.284364	2.129200	-0.000252
1318	1.3104e+02	-12.4761	-74.959518	0.000598	5.980282	2.026174	-0.000239
1319	1.3114e+02	-12.5098	-75.205783	0.000618	6.183004	2.094858	-0.000248
1320	1.3124e+02	-12.5467	-75.468197	0.000659	6.588446	2.232226	-0.000264
1321	1.3134e+02	-12.5980	-75.674091	0.000517	5.169396	1.751439	-0.000207
1322	1.3144e+02	-12.6317	-75.940542	0.000669	6.689807	2.266568	-0.000268
1323	1.3154e+02	-12.6750	-76.162584	0.000557	5.574839	1.888807	-0.000223
1324	1.3164e+02	-12.7023	-76.412887	0.000628	6.284364	2.129200	-0.000252
1325	1.3174e+02	-12.7520	-76.683375	0.000679	6.791168	2.300910	-0.000272
1326	1.3184e+02	-12.7889	-76.925603	0.000608	6.081643	2.060516	-0.000243
1327	1.3194e+02	-12.8290	-77.151683	0.000568	5.676200	1.923149	-0.000227
1328	1.3204e+02	-12.8724	-77.377762	0.000568	5.676200	1.923149	-0.000227
1329	1.3214e+02	-12.9077	-77.619990	0.000608	6.081643	2.060516	-0.000243
1330	1.3224e+02	-12.9526	-77.910664	0.000730	7.297971	2.472620	-0.000292
1331	1.3234e+02	-12.9879	-78.120595	0.000527	5.270757	1.785781	-0.000211
1332	1.3243e+02	-13.0248	-78.391083	0.000679	6.791168	2.300910	-0.000272
1333	1.3253e+02	-13.0729	-78.609089	0.000547	5.473479	1.854465	-0.000219
1334	1.3263e+02	-13.1098	-78.859391	0.000628	6.284364	2.129200	-0.000252
1335	1.3273e+02	-13.1515	-79.089508	0.000578	5.777561	1.957491	-0.000231
1336	1.3283e+02	-13.1868	-79.327699	0.000598	5.980282	2.026174	-0.000239
1337	1.3293e+02	-13.2333	-79.610298	0.000710	7.095250	2.403936	-0.000284
1338	1.3303e+02	-13.2734	-79.844452	0.000588	5.878921	1.991833	-0.000235
1339	1.3313e+02	-13.3135	-80.098792	0.000639	6.385725	2.163542	-0.000256
1340	1.3323e+02	-13.3488	-80.308723	0.000527	5.270757	1.785781	-0.000211
1341	1.3333e+02	-13.3937	-80.567099	0.000649	6.487086	2.197884	-0.000260
1342	1.3343e+02	-13.4290	-80.793179	0.000568	5.676200	1.923149	-0.000227
1343	1.3353e+02	-13.4691	-81.063667	0.000679	6.791168	2.300910	-0.000272
1344	1.3363e+02	-13.4980	-81.297821	0.000588	5.878921	1.991833	-0.000235
1345	1.3373e+02	-13.5526	-81.568309	0.000679	6.791168	2.300910	-0.000272
1346	1.3383e+02	-13.5846	-81.774203	0.000517	5.169396	1.751439	-0.000207
1347	1.3393e+02	-13.6247	-82.008357	0.000588	5.878921	1.991833	-0.000235
1348	1.3403e+02	-13.6713	-82.303068	0.000740	7.399332	2.506962	-0.000296
1349	1.3413e+02	-13.7114	-82.533184	0.000578	5.777561	1.957491	-0.000231
1350	1.3423e+02	-13.7419	-82.763301	0.000578	5.777561	1.957491	-0.000231
1351	1.3432e+02	-13.7948	-83.017641	0.000639	6.385725	2.163542	-0.000256
1352	1.3442e+02	-13.8237	-83.255832	0.000598	5.980282	2.026174	-0.000239
1353	1.3452e+02	-13.8702	-83.502097	0.000618	6.183004	2.094858	-0.000248
1354	1.3462e+02	-13.9071	-83.740288	0.000598	5.980282	2.026174	-0.000239
1355	1.3472e+02	-13.9504	-84.014813	0.000689	6.892529	2.335252	-0.000276
1356	1.3482e+02	-13.9969	-84.244930	0.000578	5.777561	1.957491	-0.000231
1357	1.3492e+02	-14.0210	-84.475047	0.000578	5.777561	1.957491	-0.000231
1358	1.3502e+02	-14.0579	-84.729386	0.000639	6.385725	2.163542	-0.000256
1359	1.3512e+02	-14.0996	-85.003912	0.000689	6.892529	2.335252	-0.000276
1360	1.3522e+02	-14.1429	-85.234028	0.000578	5.777561	1.957491	-0.000231
1361	1.3532e+02	-14.1878	-85.516628	0.000710	7.095250	2.403936	-0.000284
1362	1.3542e+02	-14.2199	-85.758856	0.000608	6.081643	2.060516	-0.000243
1363	1.3552e+02	-14.2664	-86.001084	0.000608	6.081643	2.060516	-0.000243
1364	1.3562e+02	-14.3065	-86.255424	0.000639	6.385725	2.163542	-0.000256
1365	1.3572e+02	-14.3450	-86.497652	0.000608	6.081643	2.060516	-0.000243
1366	1.3582e+02	-14.3852	-86.743917	0.000618	6.183004	2.094858	-0.000248
1367	1.3592e+02	-14.4285	-86.965960	0.000557	5.574839	1.888807	-0.000223
1368	1.3602e+02	-14.4638	-87.260670	0.000740	7.399332	2.506962	-0.000296
1369	1.3612e+02	-14.5023	-87.458490	0.000497	4.966675	1.682755	-0.000199
1370	1.3622e+02	-14.5504	-87.761275	0.000760	7.602054	2.575645	-0.000304
1371	1.3631e+02	-14.5841	-87.999466	0.000598	5.980282	2.026174	-0.000239
1372	1.3641e+02	-14.6226	-88.245732	0.000618	6.183004	2.094858	-0.000248
1373	1.3651e+02	-14.6659	-88.467774	0.000557	5.574839	1.888807	-0.000223
1374	1.3661e+02	-14.6996	-88.762485	0.000740	7.399332	2.506962	-0.000296
1375	1.3671e+02	-14.7365	-88.984527	0.000557	5.574839	1.888807	-0.000223
1376	1.3681e+02	-14.7814	-89.238867	0.000639	6.385725	2.163542	-0.000256
1377	1.3691e+02	-14.8311	-89.477058	0.000598	5.980282	2.026174	-0.000239
1378	1.3701e+02	-14.8552	-89.735435	0.000649	6.487086	2.197884	-0.000260
1379	1.3711e+02	-14.8937	-90.018034	0.000710	7.095250	2.403936	-0.000284
1380	1.3721e+02	-14.9450	-90.232002	0.000537	5.372118	1.820123	-0.000215
1381	1.3731e+02	-14.9787	-90.490379	0.000649	6.487086	2.197884	-0.000260
1382	1.3741e+02	-15.0301	-90.732607	0.000608	6.081643	2.060516	-0.000243
1383	1.3751e+02	-15.0493	-90.995021	0.000659	6.588446	2.232226	-0.000264
1384	1.3761e+02	-15.0942	-91.269546	0.000689	6.892529	2.335252	-0.000276
1385	1.3771e+02	-15.1424	-91.544071	0.000689	6.892529	2.335252	-0.000276
1386	1.3781e+02	-15.1793	-91.786300	0.000608	6.081643	2.060516	-0.000243
1387	1.3791e+02	-15.2161	-92.012379	0.000568	5.676200	1.923149	-0.000227
1388	1.3801e+02	-15.2627	-92.307090	0.000740	7.399332	2.506962	-0.000296
1389	1.3811e+02	-15.3060	-92.549318	0.000608	6.081643	2.060516	-0.000243
1390	1.3821e+02	-15.3381	-92.839992	0.000730	7.297971	2.472620	-0.000292
1391	1.3831e+02	-15.3830	-93.114517	0.000689	6.892529	2.335252	-0.000276
1392	1.3840e+02	-15.4231	-93.324448	0.000527	5.270757	1.785781	-0.000211
1393	1.3850e+02	-15.4648	-93.611085	0.000720	7.196611	2.438278	-0.000288
1394	1.3860e+02	-15.4985	-93.885610	0.000689	6.892529	2.335252	-0.000276
1395	1.3870e+02	-15.5450	-94.168210	0.000710	7.095250	2.403936	-0.000284
1396	1.3880e+02	-15.5819	-94.394289	0.000568	5.676200	1.923149	-0.000227
1397	1.3890e+02	-15.6252	-94.693037	0.000750	7.500693	2.541304	-0.000300
1398	1.3900e+02	-15.6750	-94.935265	0.000608	6.081643	2.060516	-0.000243
1399	1.3910e+02	-15.6942	-95.201716	0.000669	6.689807	2.266568	-0.000268
1400	1.3920e+02	-15.7311	-95.460093	0.000649	6.487086	2.197884	-0.000260
1401	1.3930e+02	-15.7696	-95.779027	0.000801	8.007496	2.713013	-0.000321
1402	1.3940e+02	-15.8225	-96.033366	0.000639	6.385725	2.163542	-0.000256
1403	1.3950e+02	-15.8643	-96.344226	0.000780	7.804775	2.644329	-0.000312
1404	1.3960e+02	-15.8996	-96.554157	0.000527	5.270757	1.785781	-0.000211
1405	1.3970e+02	-15.9397	-96.860979	0.000770	7.703414	2.609987	-0.000308
1406	1.3980e+02	-15.9717	-97.143579	0.000710	7.095250	2.403936	-0.000284
1407	1.3990e+02	-16.0135	-97.381770	0.000598	5.980282	2.026174	-0.000239
1408	1.4000e+02	-16.0600	-97.692629	0.000780	7.804775	2.644329	-0.000312
1409	1.4010e+02	-16.0985	-97.963117	0.000679	6.791168	2.300910	-0.000272
1410	1.4020e+02	-16.1386	-98.217457	0.000639	6.385725	2.163542	-0.000256
1411	1.4029e+02	-16.1739	-98.512168	0.000740	7.399332	2.506962	-0.000296
1412	1.4039e+02	-16.2124	-98.835139	0.000811	8.108857	2.747355	-0.000325
1413	1.4049e+02	-16.2589	-99.073330	0.000598	5.980282	2.026174	-0.000239
1414	1.4059e+02	-16.2974	-99.355929	0.000710	7.095250	2.403936	-0.000284
1415	1.4069e+02	-16.3407	-99.666789	0.000780	7.804775	2.644329	-0.000312
1416	1.4079e+02	-16.3760	-99.949388	0.000710	7.095250	2.403936	-0.000284
1417	1.4089e+02	-16.4145	-100.211802	0.000659	6.588446	2.232226	-0.000264
1418	1.4099e+02	-16.4514	-100.510550	0.000750	7.500693	2.541304	-0.000300
1419	1.4109e+02	-16.5027	-100.809298	0.000750	7.500693	2.541304	-0.000300
1420	1.4119e+02	-16.5348	-101.124195	0.000791	7.906136	2.678671	-0.000316
1421	1.4129e+02	-16.5781	-101.398720	0.000689	6.892529	2.335252	-0.000276
1422	1.4139e+02	-16.6182	-101.681319	0.000710	7.095250	2.403936	-0.000284
1423	1.4149e+02	-16.6519	-101.976030	0.000740	7.399332	2.506962	-0.000296
1424	1.4159e+02	-16.6953	-102.258630	0.000710	7.095250	2.403936	-0.000284
1425	1.4169e+02	-16.7402	-102.577563	0.000801	8.007496	2.713013	-0.000321
1426	1.4179e+02	-16.7706	-102.860163	0.000710	7.095250	2.403936	-0.000284
1427	1.4189e+02	-16.8124	-103.171022	0.000780	7.804775	2.644329	-0.000312
1428	1.4199e+02	-16.8493	-103.498030	0.000821	8.210218	2.781697	-0.000329
1429	1.4209e+02	-16.8958	-103.760444	0.000659	6.588446	2.232226	-0.000264
1430	1.4219e+02	-16.9359	-104.083415	0.000811	8.108857	2.747355	-0.000325
1431	1.4228e+02	-16.9712	-104.357940	0.000689	6.892529	2.335252	-0.000276
1432	1.4238e+02	-17.0065	-104.660725	0.000760	7.602054	2.575645	-0.000304
1433	1.4248e+02	-17.0642	-104.987733	0.000821	8.210218	2.781697	-0.000329
1434	1.4258e+02	-17.0963	-105.298593	0.000780	7.804775	2.644329	-0.000312
1435	1.4268e+02	-17.1348	-105.613489	0.000791	7.906136	2.678671	-0.000316
1436	1.4278e+02	-17.1717	-105.904163	0.000730	7.297971	2.472620	-0.000292
1437	1.4288e+02	-17.2118	-106.215023	0.000780	7.804775	2.644329	-0.000312
1438	1.4298e+02	-17.2631	-106.542031	0.000821	8.210218	2.781697	-0.000329
1439	1.4308e+02	-17.2968	-106.848853	0.000770	7.703414	2.609987	-0.000308
1440	1.4318e+02	-17.3337	-107.159712	0.000780	7.804775	2.644329	-0.000312
1441	1.4328e+02	-17.3722	-107.523055	0.000912	9.122464	3.090775	-0.000365
1442	1.4338e+02	-17.4107	-107.850063	0.000821	8.210218	2.781697	-0.000329
1443	1.4348e+02	-17.4605	-108.136699	0.000720	7.196611	2.438278	-0.000288
1444	1.4358e+02	-17.4893	-108.467744	0.000831	8.311579	2.816039	-0.000333
1445	1.4368e+02	-17.5214	-108.790715	0.000811	8.108857	2.747355	-0.000325
1446	1.4378e+02	-17.5696	-109.089463	0.000750	7.500693	2.541304	-0.000300
1447	1.4388e+02	-17.6097	-109.444731	0.000892	8.919743	3.022091	-0.000357
1448	1.4398e+02	-17.6482	-109.767702	0.000811	8.108857	2.747355	-0.000325
1449	1.4408e+02	-17.6899	-110.127007	0.000902	9.021104	3.056433	-0.000361
1450	1.4418e+02	-17.7268	-110.413644	0.000720	7.196611	2.438278	-0.000288
1451	1.4428e+02	-17.7717	-110.772949	0.000902	9.021104	3.056433	-0.000361
1452	1.4437e+02	-17.8102	-111.112068	0.000851	8.514300	2.884723	-0.000341
1453	1.4447e+02	-17.8551	-111.426965	0.000791	7.906136	2.678671	-0.000316
1454	1.4457e+02	-17.8920	-111.794344	0.000922	9.223825	3.125117	-0.000369
1455	1.4467e+02	-17.9433	-112.137501	0.000862	8.615661	2.919065	-0.000345
1456	1.4477e+02	-17.9754	-112.464509	0.000821	8.210218	2.781697	-0.000329
1457	1.4487e+02	-18.0203	-112.823814	0.000902	9.021104	3.056433	-0.000361
1458	1.4497e+02	-18.0492	-113.191193	0.000922	9.223825	3.125117	-0.000369
1459	1.4507e+02	-18.0877	-113.522238	0.000831	8.311579	2.816039	-0.000333
1460	1.4517e+02	-18.1230	-113.857321	0.000841	8.412939	2.850381	-0.000337
1461	1.4527e+02	-18.1679	-114.204514	0.000872	8.717021	2.953407	-0.000349
1462	1.4537e+02	-18.2129	-114.535559	0.000831	8.311579	2.816039	-0.000333
1463	1.4547e+02	-18.2498	-114.915050	0.000953	9.527907	3.228142	-0.000381
1464	1.4557e+02	-18.2931	-115.298578	0.000963	9.629268	3.262484	-0.000385
1465	1.4567e+02	-18.3316	-115.686143	0.000973	9.730629	3.296826	-0.000390
1466	1.4577e+02	-18.3637	-116.021225	0.000841	8.412939	2.850381	-0.000337
1467	1.4587e+02	-18.4166	-116.380530	0.000902	9.021104	3.056433	-0.000361
1468	1.4597e+02	-18.4455	-116.760021	0.000953	9.527907	3.228142	-0.000381
1469	1.4607e+02	-18.4888	-117.115289	0.000892	8.919743	3.022091	-0.000357
1470	1.4617e+02	-18.5193	-117.523040	0.001024	10.237432	3.468536	-0.000410
1471	1.4626e+02	-18.5658	-117.833899	0.000780	7.804775	2.644329	-0.000312
1472	1.4636e+02	-18.6091	-118.217427	0.000963	9.629268	3.262484	-0.000385
1473	1.4646e+02	-18.6444	-118.584807	0.000922	9.223825	3.125117	-0.000369
1474	1.4656e+02	-18.6893	-119.004669	0.001054	10.541514	3.571562	-0.000422
1475	1.4666e+02	-18.7262	-119.380122	0.000943	9.426546	3.193800	-0.000377
1476	1.4676e+02	-18.7679	-119.767687	0.000973	9.730629	3.296826	-0.000390
1477	1.4686e+02	-18.8160	-120.147178	0.000953	9.527907	3.228142	-0.000381
1478	1.4696e+02	-18.8417	-120.514557	0.000922	9.223825	3.125117	-0.000369
1479	1.4706e+02	-18.8930	-120.946531	0.001085	10.845596	3.674588	-0.000434
1480	1.4716e+02	-18.9316	-121.313910	0.000922	9.223825	3.125117	-0.000369
1481	1.4726e+02	-18.9620	-121.661104	0.000872	8.717021	2.953407	-0.000349
1482	1.4736e+02	-19.0150	-122.117300	0.001145	11.453761	3.880639	-0.000458
1483	1.4746e+02	-19.0487	-122.521014	0.001014	10.136071	3.434194	-0.000406
1484	1.4756e+02	-19.0840	-122.904542	0.000963	9.629268	3.262484	-0.000385
1485	1.4766e+02	-19.1209	-123.267884	0.000912	9.122464	3.090775	-0.000365
1486	1.4776e+02	-19.1754	-123.728118	0.001156	11.555121	3.914981	-0.000463
1487	1.4786e+02	-19.2075	-124.119720	0.000983	9.831989	3.331168	-0.000394
1488	1.4796e+02	-19.2460	-124.523433	0.001014	10.136071	3.434194	-0.000406
1489	1.4806e+02	-19.2925	-124.963481	0.001105	11.048318	3.743271	-0.000442
1490	1.4816e+02	-19.3390	-125.314712	0.000882	8.818382	2.987749	-0.000353
1491	1.4825e+02	-19.3615	-125.746685	0.001085	10.845596	3.674588	-0.000434
1492	1.4835e+02	-19.4048	-126.166548	0.001054	10.541514	3.571562	-0.000422
1493	1.4845e+02	-19.4433	-126.614670	0.001125	11.251039	3.811955	-0.000450
1494	1.4855e+02	-19.4834	-126.965900	0.000882	8.818382	2.987749	-0.000353
1495	1.4865e+02	-19.5251	-127.434208	0.001176	11.757843	3.983665	-0.000471
1496	1.4875e+02	-19.5668	-127.870219	0.001095	10.946957	3.708929	-0.000438
1497	1.4885e+02	-19.6085	-128.286044	0.001044	10.440154	3.537220	-0.000418
1498	1.4895e+02	-19.6438	-128.709943	0.001064	10.642875	3.605904	-0.000426
1499	1.4905e+02	-19.6807	-129.162102	0.001135	11.352400	3.846297	-0.000454
1500	1.4915e+02	-19.7273	-129.630410	0.001176	11.757843	3.983665	-0.000471
1501	1.4925e+02	-19.7658	-130.042198	0.001034	10.338793	3.502878	-0.000414
1502	1.4935e+02	-19.7930	-130.474171	0.001085	10.845596	3.674588	-0.000434
1503	1.4945e+02	-19.8412	-130.902108	0.001074	10.744236	3.640246	-0.000430
1504	1.4955e+02	-19.8813	-131.362341	0.001156	11.555121	3.914981	-0.000463
1505	1.4965e+02	-19.9230	-131.826612	0.001166	11.656482	3.949323	-0.000467
1506	1.4975e+02	-19.9743	-132.266660	0.001105	11.048318	3.743271	-0.000442
1507	1.4985e+02	-19.9968	-132.751116	0.001216	12.163286	4.121033	-0.000487
1508	1.4995e+02	-19.9567	-132.839933	-0.000223	-2.229936	-0.755523	-0.000089
1509	1.5005e+02	-19.9198	-132.969121	-0.000324	-3.243543	-1.098942	-0.000130
1510	1.5015e+02	-19.8877	-133.066012	-0.000243	-2.432657	-0.824207	-0.000097
1511	1.5025e+02	-19.8428	-133.122532	-0.000142	-1.419050	-0.480787	-0.000057
1512	1.5034e+02	-19.8075	-133.154829	-0.000081	-0.810886	-0.274736	-0.000032
1513	1.5044e+02	-19.7674	-133.251721	-0.000243	-2.432657	-0.824207	-0.000097
1514	1.5054e+02	-19.7208	-133.239609	0.000030	0.304082	0.103026	0.000012
1515	1.5064e+02	-19.6807	-133.300166	-0.000152	-1.520411	-0.515129	-0.000061
1516	1.5074e+02	-19.6374	-133.308241	-0.000020	-0.202721	-0.068684	-0.000008
1517	1.5084e+02	-19.6069	-133.284018	0.000061	0.608164	0.206052	0.000024
1518	1.5094e+02	-19.5700	-133.279981	0.000010	0.101361	0.034342	0.000004
1519	1.5104e+02	-19.5267	-133.324389	-0.000111	-1.114968	-0.377761	-0.000045
1520	1.5114e+02	-19.4850	-133.304204	0.000051	0.506804	0.171710	0.000020
1521	1.5124e+02	-19.4481	-133.300166	0.000010	0.101361	0.034342	0.000004
1522	1.5134e+02	-19.4064	-133.223461	0.000193	1.925854	0.652497	0.000077
1523	1.5144e+02	-19.3663	-133.251721	-0.000071	-0.709525	-0.240394	-0.000028
1524	1.5154e+02	-19.3246	-133.166941	0.000213	2.128575	0.721181	0.000085
1525	1.5164e+02	-19.2941	-133.122532	0.000111	1.114968	0.377761	0.000045
1526	1.5174e+02	-19.2508	-133.114458	0.000020	0.202721	0.068684	0.000008
1527	1.5184e+02	-19.2187	-133.001418	0.000284	2.838100	0.961574	0.000114
1528	1.5194e+02	-19.1834	-133.001418	0.000000	0.000000	0.000000	0.000000
1529	1.5204e+02	-19.1241	-132.908564	0.000233	2.331296	0.789865	0.000093
1530	1.5214e+02	-19.0840	-132.868193	0.000101	1.013607	0.343419	0.000041
1531	1.5224e+02	-19.0487	-132.771302	0.000243	2.432657	0.824207	0.000097
1532	1.5233e+02	-19.0037	-132.730930	0.000101	1.013607	0.343419	0.000041
1533	1.5243e+02	-18.9652	-132.605779	0.000314	3.142182	1.064600	0.000126
1534	1.5253e+02	-18.9299	-132.520999	0.000213	2.128575	0.721181	0.000085
1535	1.5263e+02	-18.8882	-132.428145	0.000233	2.331296	0.789865	0.000093
1536	1.5273e+02	-18.8578	-132.347402	0.000203	2.027214	0.686839	0.000081
1537	1.5283e+02	-18.8128	-132.302994	0.000111	1.114968	0.377761	0.000045
1538	1.5293e+02	-18.7743	-132.185917	0.000294	2.939461	0.995916	0.000118
1539	1.5303e+02	-18.7278	-132.084989	0.000253	2.534018	0.858548	0.000101
1540	1.5313e+02	-18.6845	-131.980023	0.000264	2.635379	0.892890	0.000105
1541	1.5323e+02	-18.6540	-131.907355	0.000182	1.824493	0.618155	0.000073
1542	1.5333e+02	-18.6107	-131.782203	0.000314	3.142182	1.064600	0.000126
1543	1.5343e+02	-18.5674	-131.669164	0.000284	2.838100	0.961574	0.000114
1544	1.5353e+02	-18.5273	-131.544012	0.000314	3.142182	1.064600	0.000126
1545	1.5363e+02	-18.4952	-131.447121	0.000243	2.432657	0.824207	0.000097
1546	1.5373e+02	-18.4535	-131.330044	0.000294	2.939461	0.995916	0.000118
1547	1.5383e+02	-18.4166	-131.225079	0.000264	2.635379	0.892890	0.000105
1548	1.5393e+02	-18.3797	-131.071667	0.000385	3.851707	1.304994	0.000154
1549	1.5403e+02	-18.3316	-130.982850	0.000223	2.229936	0.755523	0.000089
1550	1.5413e+02	-18.2850	-130.853662	0.000324	3.243543	1.098942	0.000130
1551	1.5422e+02	-18.2514	-130.700251	0.000385	3.851707	1.304994	0.000154
1552	1.5432e+02	-18.2064	-130.615471	0.000213	2.128575	0.721181	0.000085
1553	1.5442e+02	-18.1727	-130.526654	0.000223	2.229936	0.755523	0.000089
1554	1.5452e+02	-18.1294	-130.365169	0.000405	4.054429	1.373678	0.000162
1555	1.5462e+02	-18.0941	-130.240017	0.000314	3.142182	1.064600	0.000126
1556	1.5472e+02	-18.0476	-130.114866	0.000314	3.142182	1.064600	0.000126
1557	1.5482e+02	-18.0139	-130.005864	0.000274	2.736739	0.927232	0.000110
1558	1.5492e+02	-17.9818	-129.836304	0.000426	4.257150	1.442361	0.000170
1559	1.5502e+02	-17.9321	-129.699041	0.000345	3.446264	1.167626	0.000138
1560	1.5512e+02	-17.8920	-129.610224	0.000223	2.229936	0.755523	0.000089
1561	1.5522e+02	-17.8535	-129.485073	0.000314	3.142182	1.064600	0.000126
1562	1.5532e+02	-17.8118	-129.343773	0.000355	3.547625	1.201968	0.000142
1563	1.5542e+02	-17.7765	-129.202474	0.000355	3.547625	1.201968	0.000142
1564	1.5552e+02	-17.7236	-129.065211	0.000345	3.446264	1.167626	0.000138
1565	1.5562e+02	-17.6867	-128.944097	0.000304	3.040821	1.030258	0.000122
1566	1.5572e+02	-17.6578	-128.818946	0.000314	3.142182	1.064600	0.000126
1567	1.5582e+02	-17.6225	-128.669572	0.000375	3.750346	1.270652	0.000150
1568	1.5592e+02	-17.5744	-128.536346	0.000334	3.344904	1.133284	0.000134
1569	1.5602e+02	-17.5327	-128.374861	0.000405	4.054429	1.373678	0.000162
1570	1.5612e+02	-17.4958	-128.241635	0.000334	3.344904	1.133284	0.000134
1571	1.5622e+02	-17.4685	-128.108410	0.000334	3.344904	1.133284	0.000134
1572	1.5631e+02	-17.4107	-127.999407	0.000274	2.736739	0.927232	0.000110
1573	1.5641e+02	-17.3754	-127.793513	0.000517	5.169396	1.751439	0.000207
1574	1.5651e+02	-17.3402	-127.688548	0.000264	2.635379	0.892890	0.000105
1575	1.5661e+02	-17.2936	-127.543211	0.000365	3.648986	1.236310	0.000146
1576	1.5671e+02	-17.2519	-127.381725	0.000405	4.054429	1.373678	0.000162
1577	1.5681e+02	-17.2150	-127.244463	0.000345	3.446264	1.167626	0.000138
1578	1.5691e+02	-17.1749	-127.070866	0.000436	4.358511	1.476703	0.000174
1579	1.5701e+02	-17.1332	-126.961863	0.000274	2.736739	0.927232	0.000110
1580	1.5711e+02	-17.0995	-126.812489	0.000375	3.750346	1.270652	0.000150
1581	1.5721e+02	-17.0594	-126.606595	0.000517	5.169396	1.751439	0.000207
1582	1.5731e+02	-17.0145	-126.537964	0.000172	1.723132	0.583813	0.000069
1583	1.5741e+02	-16.9808	-126.344181	0.000487	4.865314	1.648413	0.000195
1584	1.5751e+02	-16.9343	-126.227105	0.000294	2.939461	0.995916	0.000118
1585	1.5761e+02	-16.8894	-126.081768	0.000365	3.648986	1.236310	0.000146
1586	1.5771e+02	-16.8525	-125.896059	0.000466	4.662593	1.579729	0.000187
1587	1.5781e+02	-16.8108	-125.795131	0.000253	2.534018	0.858548	0.000101
1588	1.5791e+02	-16.7755	-125.621534	0.000436	4.358511	1.476703	0.000174
1589	1.5801e+02	-16.7386	-125.500420	0.000304	3.040821	1.030258	0.000122
1590	1.5811e+02	-16.6888	-125.326823	0.000436	4.358511	1.476703	0.000174
1591	1.5821e+02	-16.6632	-125.157264	0.000426	4.257150	1.442361	0.000170
1592	1.5830e+02	-16.6199	-125.007890	0.000375	3.750346	1.270652	0.000150
1593	1.5840e+02	-16.5830	-124.890813	0.000294	2.939461	0.995916	0.000118
1594	1.5850e+02	-16.5332	-124.717216	0.000436	4.358511	1.476703	0.000174
1595	1.5860e+02	-16.5060	-124.519396	0.000497	4.966675	1.682755	0.000199
1596	1.5870e+02	-16.4578	-124.390208	0.000324	3.243543	1.098942	0.000130
1597	1.5880e+02	-16.4257	-124.261019	0.000324	3.243543	1.098942	0.000130
1598	1.5890e+02	-16.3824	-124.115683	0.000365	3.648986	1.236310	0.000146
1599	1.5900e+02	-16.3407	-123.909789	0.000517	5.169396	1.751439	0.000207
1600	1.5910e+02	-16.3006	-123.780600	0.000324	3.243543	1.098942	0.000130
1601	1.5920e+02	-16.2477	-123.590855	0.000476	4.763954	1.614071	0.000191
1602	1.5930e+02	-16.2124	-123.441481	0.000375	3.750346	1.270652	0.000150
1603	1.5940e+02	-16.1771	-123.259810	0.000456	4.561232	1.545387	0.000183
1604	1.5950e+02	-16.1386	-123.138696	0.000304	3.040821	1.030258	0.000122
1605	1.5960e+02	-16.0953	-122.977210	0.000405	4.054429	1.373678	0.000162
1606	1.5970e+02	-16.0552	-122.803613	0.000436	4.358511	1.476703	0.000174
1607	1.5980e+02	-16.0199	-122.617905	0.000466	4.662593	1.579729	0.000187
1608	1.5990e+02	-15.9750	-122.468531	0.000375	3.750346	1.270652	0.000150
1609	1.6000e+02	-15.9284	-122.355491	0.000284	2.838100	0.961574	0.000114
1610	1.6010e+02	-15.9060	-122.173820	0.000456	4.561232	1.545387	0.000183
1611	1.6019e+02	-15.8610	-121.967926	0.000517	5.169396	1.751439	0.000207
1612	1.6029e+02	-15.8225	-121.842775	0.000314	3.142182	1.064600	0.000126
1613	1.6039e+02	-15.7808	-121.669178	0.000436	4.358511	1.476703	0.000174
1614	1.6049e+02	-15.7359	-121.491544	0.000446	4.459871	1.511045	0.000179
1615	1.6059e+02	-15.7038	-121.362356	0.000324	3.243543	1.098942	0.000130
1616	1.6069e+02	-15.6525	-121.212982	0.000375	3.750346	1.270652	0.000150
1617	1.6079e+02	-15.6156	-121.019199	0.000487	4.865314	1.648413	0.000195
1618	1.6089e+02	-15.5771	-120.894048	0.000314	3.142182	1.064600	0.000126
1619	1.6099e+02	-15.5354	-120.692191	0.000507	5.068036	1.717097	0.000203
1620	1.6109e+02	-15.4985	-120.518595	0.000436	4.358511	1.476703	0.000174
1621	1.6119e+02	-15.4552	-120.365183	0.000385	3.851707	1.304994	0.000154
1622	1.6129e+02	-15.4199	-120.195624	0.000426	4.257150	1.442361	0.000170
1623	1.6139e+02	-15.3910	-120.066435	0.000324	3.243543	1.098942	0.000130
1624	1.6149e+02	-15.3413	-119.896876	0.000426	4.257150	1.442361	0.000170
1625	1.6159e+02	-15.3028	-119.699056	0.000497	4.966675	1.682755	0.000199
1626	1.6169e+02	-15.2675	-119.517385	0.000456	4.561232	1.545387	0.000183
1627	1.6179e+02	-15.2322	-119.363974	0.000385	3.851707	1.304994	0.000154
1628	1.6189e+02	-15.1873	-119.218637	0.000365	3.648986	1.236310	0.000146
1629	1.6199e+02	-15.1440	-118.992557	0.000568	5.676200	1.923149	0.000227
1630	1.6209e+02	-15.0910	-118.871443	0.000304	3.040821	1.030258	0.000122
1631	1.6219e+02	-15.0589	-118.709958	0.000405	4.054429	1.373678	0.000162
1632	1.6228e+02	-15.0188	-118.516175	0.000487	4.865314	1.648413	0.000195
1633	1.6238e+02	-14.9787	-118.338541	0.000446	4.459871	1.511045	0.000179
1634	1.6248e+02	-14.9531	-118.201279	0.000345	3.446264	1.167626	0.000138
1635	1.6258e+02	-14.8937	-118.023645	0.000446	4.459871	1.511045	0.000179
1636	1.6268e+02	-14.8600	-117.850048	0.000436	4.358511	1.476703	0.000174
1637	1.6278e+02	-14.8343	-117.672414	0.000446	4.459871	1.511045	0.000179
1638	1.6288e+02	-14.7814	-117.490743	0.000456	4.561232	1.545387	0.000183
1639	1.6298e+02	-14.7477	-117.349443	0.000355	3.547625	1.201968	0.000142
1640	1.6308e+02	-14.7108	-117.200069	0.000375	3.750346	1.270652	0.000150
1641	1.6318e+02	-14.6563	-117.022435	0.000446	4.459871	1.511045	0.000179
1642	1.6328e+02	-14.6210	-116.828653	0.000487	4.865314	1.648413	0.000195
1643	1.6338e+02	-14.5889	-116.675241	0.000385	3.851707	1.304994	0.000154
1644	1.6348e+02	-14.5376	-116.485496	0.000476	4.763954	1.614071	0.000191
1645	1.6358e+02	-14.5007	-116.271528	0.000537	5.372118	1.820123	0.000215
1646	1.6368e+02	-14.4670	-116.154451	0.000294	2.939461	0.995916	0.000118
1647	1.6378e+02	-14.4301	-115.952594	0.000507	5.068036	1.717097	0.000203
1648	1.6388e+02	-14.3852	-115.750737	0.000507	5.068036	1.717097	0.000203
1649	1.6398e+02	-14.3450	-115.581178	0.000426	4.257150	1.442361	0.000170
1650	1.6408e+02	-14.3082	-115.423729	0.000395	3.953068	1.339336	0.000158
1651	1.6418e+02	-14.2680	-115.250132	0.000436	4.358511	1.476703	0.000174
1652	1.6427e+02	-14.2295	-115.032127	0.000547	5.473479	1.854465	0.000219
1653	1.6437e+02	-14.1846	-114.927162	0.000264	2.635379	0.892890	0.000105
1654	1.6447e+02	-14.1461	-114.717231	0.000527	5.270757	1.785781	0.000211
1655	1.6457e+02	-14.1076	-114.531522	0.000466	4.662593	1.579729	0.000187
1656	1.6467e+02	-14.0627	-114.329666	0.000507	5.068036	1.717097	0.000203
1657	1.6477e+02	-14.0258	-114.168180	0.000405	4.054429	1.373678	0.000162
1658	1.6487e+02	-13.9841	-113.929989	0.000598	5.980282	2.026174	0.000239
1659	1.6497e+02	-13.9488	-113.772541	0.000395	3.953068	1.339336	0.000158
1660	1.6507e+02	-13.9039	-113.582795	0.000476	4.763954	1.614071	0.000191
1661	1.6517e+02	-13.8702	-113.384976	0.000497	4.966675	1.682755	0.000199
1662	1.6527e+02	-13.8269	-113.247713	0.000345	3.446264	1.167626	0.000138
1663	1.6537e+02	-13.7900	-113.041819	0.000517	5.169396	1.751439	0.000207
1664	1.6547e+02	-13.7451	-112.880334	0.000405	4.054429	1.373678	0.000162
1665	1.6557e+02	-13.7146	-112.706737	0.000436	4.358511	1.476703	0.000174
1666	1.6567e+02	-13.6649	-112.500843	0.000517	5.169396	1.751439	0.000207
1667	1.6577e+02	-13.6231	-112.282838	0.000547	5.473479	1.854465	0.000219
1668	1.6587e+02	-13.5895	-112.125389	0.000395	3.953068	1.339336	0.000158
1669	1.6597e+02	-13.5510	-111.951793	0.000436	4.358511	1.476703	0.000174
1670	1.6607e+02	-13.5092	-111.725713	0.000568	5.676200	1.923149	0.000227
1671	1.6616e+02	-13.4691	-111.588450	0.000345	3.446264	1.167626	0.000138
1672	1.6626e+02	-13.4258	-111.362371	0.000568	5.676200	1.923149	0.000227
1673	1.6636e+02	-13.3953	-111.221071	0.000355	3.547625	1.201968	0.000142
1674	1.6646e+02	-13.3456	-110.999029	0.000557	5.574839	1.888807	0.000223
1675	1.6656e+02	-13.3055	-110.853692	0.000365	3.648986	1.236310	0.000146
1676	1.6666e+02	-13.2654	-110.635686	0.000547	5.473479	1.854465	0.000219
1677	1.6676e+02	-13.2269	-110.458052	0.000446	4.459871	1.511045	0.000179
1678	1.6686e+02	-13.1964	-110.236010	0.000557	5.574839	1.888807	0.000223
1679	1.6696e+02	-13.1515	-110.074524	0.000405	4.054429	1.373678	0.000162
1680	1.6706e+02	-13.1066	-109.836333	0.000598	5.980282	2.026174	0.000239
1681	1.6716e+02	-13.0697	-109.686959	0.000375	3.750346	1.270652	0.000150
1682	1.6726e+02	-13.0264	-109.497214	0.000476	4.763954	1.614071	0.000191
1683	1.6736e+02	-12.9895	-109.303432	0.000487	4.865314	1.648413	0.000195
1684	1.6746e+02	-12.9430	-109.085426	0.000547	5.473479	1.854465	0.000219
1685	1.6756e+02	-12.9125	-108.911829	0.000436	4.358511	1.476703	0.000174
1686	1.6766e+02	-12.8659	-108.709973	0.000507	5.068036	1.717097	0.000203
1687	1.6776e+02	-12.8371	-108.508116	0.000507	5.068036	1.717097	0.000203
1688	1.6786e+02	-12.7986	-108.318370	0.000476	4.763954	1.614071	0.000191
1689	1.6796e+02	-12.7537	-108.128625	0.000476	4.763954	1.614071	0.000191
1690	1.6806e+02	-12.7135	-107.950991	0.000446	4.459871	1.511045	0.000179
1691	1.6816e+02	-12.6734	-107.741060	0.000527	5.270757	1.785781	0.000211
1692	1.6825e+02	-12.6269	-107.539203	0.000507	5.068036	1.717097	0.000203
1693	1.6835e+02	-12.5948	-107.361569	0.000446	4.459871	1.511045	0.000179
1694	1.6845e+02	-12.5483	-107.179898	0.000456	4.561232	1.545387	0.000183
1695	1.6855e+02	-12.5130	-106.969967	0.000527	5.270757	1.785781	0.000211
1696	1.6865e+02	-12.4681	-106.776185	0.000487	4.865314	1.648413	0.000195
1697	1.6875e+02	-12.4408	-106.614699	0.000405	4.054429	1.373678	0.000162
1698	1.6885e+02	-12.3879	-106.372471	0.000608	6.081643	2.060516	0.000243
1699	1.6895e+02	-12.3574	-106.202911	0.000426	4.257150	1.442361	0.000170
1700	1.6905e+02	-12.3189	-105.976832	0.000568	5.676200	1.923149	0.000227
1701	1.6915e+02	-12.2772	-105.766901	0.000527	5.270757	1.785781	0.000211
1702	1.6925e+02	-12.2419	-105.589267	0.000446	4.459871	1.511045	0.000179
1703	1.6935e+02	-12.1938	-105.391447	0.000497	4.966675	1.682755	0.000199
1704	1.6945e+02	-12.1633	-105.209776	0.000456	4.561232	1.545387	0.000183
1705	1.6955e+02	-12.1120	-105.007919	0.000507	5.068036	1.717097	0.000203
1706	1.6965e+02	-12.0702	-104.773765	0.000588	5.878921	1.991833	0.000235
1707	1.6975e+02	-12.0317	-104.579983	0.000487	4.865314	1.648413	0.000195
1708	1.6985e+02	-11.9916	-104.349866	0.000578	5.777561	1.957491	0.000231
1709	1.6995e+02	-11.9547	-104.192418	0.000395	3.953068	1.339336	0.000158
1710	1.7005e+02	-11.9130	-103.966338	0.000568	5.676200	1.923149	0.000227
1711	1.7015e+02	-11.8745	-103.776593	0.000476	4.763954	1.614071	0.000191
1712	1.7024e+02	-11.8344	-103.574736	0.000507	5.068036	1.717097	0.000203
1713	1.7034e+02	-11.7991	-103.393065	0.000456	4.561232	1.545387	0.000183
1714	1.7044e+02	-11.7542	-103.171022	0.000557	5.574839	1.888807	0.000223
1715	1.7054e+02	-11.7109	-102.965128	0.000517	5.169396	1.751439	0.000207
1716	1.7064e+02	-11.6820	-102.743086	0.000557	5.574839	1.888807	0.000223
1717	1.7074e+02	-11.6435	-102.557378	0.000466	4.662593	1.579729	0.000187
1718	1.7084e+02	-11.5938	-102.355521	0.000507	5.068036	1.717097	0.000203
1719	1.7094e+02	-11.5569	-102.121367	0.000588	5.878921	1.991833	0.000235
1720	1.7104e+02	-11.5168	-101.947770	0.000436	4.358511	1.476703	0.000174
1721	1.7114e+02	-11.4863	-101.758025	0.000476	4.763954	1.614071	0.000191
1722	1.7124e+02	-11.4414	-101.499648	0.000649	6.487086	2.197884	0.000260
1723	1.7134e+02	-11.4013	-101.338163	0.000405	4.054429	1.373678	0.000162
1724	1.7144e+02	-11.3564	-101.079786	0.000649	6.487086	2.197884	0.000260
1725	1.7154e+02	-11.3227	-100.902152	0.000446	4.459871	1.511045	0.000179
1726	1.7164e+02	-11.2778	-100.720481	0.000456	4.561232	1.545387	0.000183
1727	1.7174e+02	-11.2360	-100.433844	0.000720	7.196611	2.438278	0.000288
1728	1.7184e+02	-11.2008	-100.244099	0.000476	4.763954	1.614071	0.000191
1729	1.7194e+02	-11.1655	-100.058391	0.000466	4.662593	1.579729	0.000187
1730	1.7204e+02	-11.1221	-99.872682	0.000466	4.662593	1.579729	0.000187
1731	1.7213e+02	-11.0772	-99.703123	0.000426	4.257150	1.442361	0.000170
1732	1.7223e+02	-11.0323	-99.464932	0.000598	5.980282	2.026174	0.000239
1733	1.7233e+02	-10.9938	-99.271149	0.000487	4.865314	1.648413	0.000195
1734	1.7243e+02	-10.9617	-99.032958	0.000598	5.980282	2.026174	0.000239
1735	1.7253e+02	-10.9104	-98.851287	0.000456	4.561232	1.545387	0.000183
1736	1.7263e+02	-10.8863	-98.633282	0.000547	5.473479	1.854465	0.000219
1737	1.7273e+02	-10.8446	-98.403165	0.000578	5.777561	1.957491	0.000231
1738	1.7283e+02	-10.7981	-98.201308	0.000507	5.068036	1.717097	0.000203
1739	1.7293e+02	-10.7580	-97.987340	0.000537	5.372118	1.820123	0.000215
1740	1.7303e+02	-10.7179	-97.789520	0.000497	4.966675	1.682755	0.000199
1741	1.7313e+02	-10.6794	-97.555367	0.000588	5.878921	1.991833	0.000235
1742	1.7323e+02	-10.6425	-97.357547	0.000497	4.966675	1.682755	0.000199
1743	1.7333e+02	-10.5863	-97.175876	0.000456	4.561232	1.545387	0.000183
1744	1.7343e+02	-10.5559	-96.969982	0.000517	5.169396	1.751439	0.000207
1745	1.7353e+02	-10.5125	-96.743902	0.000568	5.676200	1.923149	0.000227
1746	1.7363e+02	-10.4805	-96.542045	0.000507	5.068036	1.717097	0.000203
1747	1.7373e+02	-10.4436	-96.307892	0.000588	5.878921	1.991833	0.000235
1748	1.7383e+02	-10.4051	-96.126220	0.000456	4.561232	1.545387	0.000183
1749	1.7393e+02	-10.3585	-95.892067	0.000588	5.878921	1.991833	0.000235
1750	1.7403e+02	-10.3232	-95.722507	0.000426	4.257150	1.442361	0.000170
1751	1.7413e+02	-10.2783	-95.484316	0.000598	5.980282	2.026174	0.000239
1752	1.7422e+02	-10.2494	-95.238051	0.000618	6.183004	2.094858	0.000248
1753	1.7432e+02	-10.2029	-95.020045	0.000547	5.473479	1.854465	0.000219
1754	1.7442e+02	-10.1580	-94.814151	0.000517	5.169396	1.751439	0.000207
1755	1.7452e+02	-10.1307	-94.604220	0.000527	5.270757	1.785781	0.000211
1756	1.7462e+02	-10.0746	-94.418512	0.000466	4.662593	1.579729	0.000187
1757	1.7472e+02	-10.0505	-94.184358	0.000588	5.878921	1.991833	0.000235
1758	1.7482e+02	-9.9944	-93.913870	0.000679	6.791168	2.300910	0.000272
1759	1.7492e+02	-9.9671	-93.768533	0.000365	3.648986	1.236310	0.000146
1760	1.7502e+02	-9.9206	-93.522268	0.000618	6.183004	2.094858	0.000248
1761	1.7512e+02	-9.8789	-93.340597	0.000456	4.561232	1.545387	0.000183
1762	1.7522e+02	-9.8388	-93.114517	0.000568	5.676200	1.923149	0.000227
1763	1.7532e+02	-9.8003	-92.912660	0.000507	5.068036	1.717097	0.000203
1764	1.7542e+02	-9.7682	-92.698692	0.000537	5.372118	1.820123	0.000215
1765	1.7552e+02	-9.7233	-92.496835	0.000507	5.068036	1.717097	0.000203
1766	1.7562e+02	-9.6831	-92.294979	0.000507	5.068036	1.717097	0.000203
1767	1.7572e+02	-9.6398	-92.012379	0.000710	7.095250	2.403936	0.000284
1768	1.7582e+02	-9.5981	-91.842819	0.000426	4.257150	1.442361	0.000170
1769	1.7592e+02	-9.5564	-91.645000	0.000497	4.966675	1.682755	0.000199
1770	1.7602e+02	-9.5147	-91.374512	0.000679	6.791168	2.300910	0.000272
1771	1.7612e+02	-9.4826	-91.136321	0.000598	5.980282	2.026174	0.000239
1772	1.7621e+02	-9.4393	-90.950612	0.000466	4.662593	1.579729	0.000187
1773	1.7631e+02	-9.4104	-90.708384	0.000608	6.081643	2.060516	0.000243
1774	1.7641e+02	-9.3623	-90.506528	0.000507	5.068036	1.717097	0.000203
1775	1.7651e+02	-9.3238	-90.300634	0.000517	5.169396	1.751439	0.000207
1776	1.7661e+02	-9.2869	-90.102814	0.000497	4.966675	1.682755	0.000199
1777	1.7671e+02	-9.2436	-89.860586	0.000608	6.081643	2.060516	0.000243
1778	1.7681e+02	-9.2099	-89.590098	0.000679	6.791168	2.300910	0.000272
1779	1.7691e+02	-9.1730	-89.392278	0.000497	4.966675	1.682755	0.000199
1780	1.7701e+02	-9.1329	-89.198496	0.000487	4.865314	1.648413	0.000195
1781	1.7711e+02	-9.0896	-88.895710	0.000760	7.602054	2.575645	0.000304
1782	1.7721e+02	-9.0431	-88.742299	0.000385	3.851707	1.304994	0.000154
1783	1.7731e+02	-9.0062	-88.475848	0.000669	6.689807	2.266568	0.000268
1784	1.7741e+02	-8.9693	-88.294177	0.000456	4.561232	1.545387	0.000183
1785	1.7751e+02	-8.9260	-88.072135	0.000557	5.574839	1.888807	0.000223
1786	1.7761e+02	-8.8874	-87.878352	0.000487	4.865314	1.648413	0.000195
1787	1.7771e+02	-8.8425	-87.636124	0.000608	6.081643	2.060516	0.000243
1788	1.7781e+02	-8.8040	-87.393896	0.000608	6.081643	2.060516	0.000243
1789	1.7791e+02	-8.7623	-87.188002	0.000517	5.169396	1.751439	0.000207
1790	1.7801e+02	-8.7318	-86.965960	0.000557	5.574839	1.888807	0.000223
1791	1.7810e+02	-8.6885	-86.723731	0.000608	6.081643	2.060516	0.000243
1792	1.7820e+02	-8.6516	-86.513800	0.000527	5.270757	1.785781	0.000211
1793	1.7830e+02	-8.6067	-86.275609	0.000598	5.980282	2.026174	0.000239
1794	1.7840e+02	-8.5618	-86.073753	0.000507	5.068036	1.717097	0.000203
1795	1.7850e+02	-8.5233	-85.823450	0.000628	6.284364	2.129200	0.000252
1796	1.7860e+02	-8.4864	-85.605445	0.000547	5.473479	1.854465	0.000219
1797	1.7870e+02	-8.4399	-85.403588	0.000507	5.068036	1.717097	0.000203
1798	1.7880e+02	-8.4206	-85.181546	0.000557	5.574839	1.888807	0.000223
1799	1.7890e+02	-8.3629	-84.927206	0.000639	6.385725	2.163542	0.000256
1800	1.7900e+02	-8.3276	-84.689015	0.000598	5.980282	2.026174	0.000239
1801	1.7910e+02	-8.2843	-84.479084	0.000527	5.270757	1.785781	0.000211
1802	1.7920e+02	-8.2442	-84.273190	0.000517	5.169396	1.751439	0.000207
1803	1.7930e+02	-8.2137	-84.022888	0.000628	6.284364	2.129200	0.000252
1804	1.7940e+02	-8.1720	-83.833142	0.000476	4.763954	1.614071	0.000191
1805	1.7950e+02	-8.1319	-83.582840	0.000628	6.284364	2.129200	0.000252
1806	1.7960e+02	-8.0869	-83.352723	0.000578	5.777561	1.957491	0.000231
1807	1.7970e+02	-8.0484	-83.086272	0.000669	6.689807	2.266568	0.000268
1808	1.7980e+02	-8.0164	-82.884415	0.000507	5.068036	1.717097	0.000203
1809	1.7990e+02	-7.9730	-82.666410	0.000547	5.473479	1.854465	0.000219
1810	1.8000e+02	-7.9313	-82.432256	0.000588	5.878921	1.991833	0.000235
1811	1.8009e+02	-7.8880	-82.194065	0.000598	5.980282	2.026174	0.000239
1812	1.8019e+02	-7.8479	-81.939726	0.000639	6.385725	2.163542	0.000256
1813	1.8029e+02	-7.8110	-81.729794	0.000527	5.270757	1.785781	0.000211
1814	1.8039e+02	-7.7629	-81.487566	0.000608	6.081643	2.060516	0.000243
1815	1.8049e+02	-7.7276	-81.237264	0.000628	6.284364	2.129200	0.000252
1816	1.8059e+02	-7.6955	-80.990999	0.000618	6.183004	2.094858	0.000248
1817	1.8069e+02	-7.6474	-80.785105	0.000517	5.169396	1.751439	0.000207
1818	1.8079e+02	-7.6121	-80.522691	0.000659	6.588446	2.232226	0.000264
1819	1.8089e+02	-7.5656	-80.276426	0.000618	6.183004	2.094858	0.000248
1820	1.8099e+02	-7.5287	-80.086680	0.000476	4.763954	1.614071	0.000191
1821	1.8109e+02	-7.5030	-79.828304	0.000649	6.487086	2.197884	0.000260
1822	1.8119e+02	-7.4565	-79.586075	0.000608	6.081643	2.060516	0.000243
1823	1.8129e+02	-7.4148	-79.331736	0.000639	6.385725	2.163542	0.000256
1824	1.8139e+02	-7.3682	-79.081433	0.000628	6.284364	2.129200	0.000252
1825	1.8149e+02	-7.3346	-78.843242	0.000598	5.980282	2.026174	0.000239
1826	1.8159e+02	-7.2848	-78.592940	0.000628	6.284364	2.129200	0.000252
1827	1.8169e+02	-7.2559	-78.314378	0.000699	6.993889	2.369594	0.000280
1828	1.8179e+02	-7.2078	-78.112521	0.000507	5.068036	1.717097	0.000203
1829	1.8189e+02	-7.1773	-77.874330	0.000598	5.980282	2.026174	0.000239
1830	1.8199e+02	-7.1356	-77.624027	0.000628	6.284364	2.129200	0.000252
1831	1.8209e+02	-7.0955	-77.434282	0.000476	4.763954	1.614071	0.000191
1832	1.8218e+02	-7.0522	-77.151683	0.000710	7.095250	2.403936	0.000284
1833	1.8228e+02	-7.0137	-76.897343	0.000639	6.385725	2.163542	0.000256
1834	1.8238e+02	-6.9816	-76.691449	0.000517	5.169396	1.751439	0.000207
1835	1.8248e+02	-6.9399	-76.400775	0.000730	7.297971	2.472620	0.000292
1836	1.8258e+02	-6.8950	-76.134324	0.000669	6.689807	2.266568	0.000268
1837	1.8268e+02	-6.8453	-75.908245	0.000568	5.676200	1.923149	0.000227
1838	1.8278e+02	-6.8148	-75.661979	0.000618	6.183004	2.094858	0.000248
1839	1.8288e+02	-6.7731	-75.399566	0.000659	6.588446	2.232226	0.000264
1840	1.8298e+02	-6.7362	-75.145226	0.000639	6.385725	2.163542	0.000256
1841	1.8308e+02	-6.6929	-74.890887	0.000639	6.385725	2.163542	0.000256
1842	1.8318e+02	-6.6495	-74.644621	0.000618	6.183004	2.094858	0.000248
1843	1.8328e+02	-6.6207	-74.406430	0.000598	5.980282	2.026174	0.000239
1844	1.8338e+02	-6.5822	-74.176313	0.000578	5.777561	1.957491	0.000231
1845	1.8348e+02	-6.5308	-73.954271	0.000557	5.574839	1.888807	0.000223
1846	1.8358e+02	-6.4907	-73.635337	0.000801	8.007496	2.713013	0.000321
1847	1.8368e+02	-6.4554	-73.433481	0.000507	5.068036	1.717097	0.000203
1848	1.8378e+02	-6.4137	-73.154918	0.000699	6.993889	2.369594	0.000280
1849	1.8388e+02	-6.3832	-72.888467	0.000669	6.689807	2.266568	0.000268
1850	1.8398e+02	-6.3335	-72.666425	0.000557	5.574839	1.888807	0.000223
1851	1.8407e+02	-6.2902	-72.412085	0.000639	6.385725	2.163542	0.000256
1852	1.8417e+02	-6.2581	-72.157746	0.000639	6.385725	2.163542	0.000256
1853	1.8427e+02	-6.2196	-71.863035	0.000740	7.399332	2.506962	0.000296
1854	1.8437e+02	-6.1795	-71.636955	0.000568	5.676200	1.923149	0.000227
1855	1.8447e+02	-6.1314	-71.390690	0.000618	6.183004	2.094858	0.000248
1856	1.8457e+02	-6.1041	-71.132313	0.000649	6.487086	2.197884	0.000260
1857	1.8467e+02	-6.0576	-70.853751	0.000699	6.993889	2.369594	0.000280
1858	1.8477e+02	-6.0239	-70.619597	0.000588	5.878921	1.991833	0.000235
1859	1.8487e+02	-5.9710	-70.389480	0.000578	5.777561	1.957491	0.000231
1860	1.8497e+02	-5.9469	-70.118992	0.000679	6.791168	2.300910	0.000272
1861	1.8507e+02	-5.8988	-69.860615	0.000649	6.487086	2.197884	0.000260
1862	1.8517e+02	-5.8554	-69.578016	0.000710	7.095250	2.403936	0.000284
1863	1.8527e+02	-5.8250	-69.347899	0.000578	5.777561	1.957491	0.000231
1864	1.8537e+02	-5.7817	-69.073374	0.000689	6.892529	2.335252	0.000276
1865	1.8547e+02	-5.7432	-68.810960	0.000659	6.588446	2.232226	0.000264
1866	1.8557e+02	-5.7063	-68.536435	0.000689	6.892529	2.335252	0.000276
1867	1.8567e+02	-5.6645	-68.233650	0.000760	7.602054	2.575645	0.000304
1868	1.8577e+02	-5.6180	-68.019681	0.000537	5.372118	1.820123	0.000215
1869	1.8587e+02	-5.5859	-67.757268	0.000659	6.588446	2.232226	0.000264
1870	1.8597e+02	-5.5522	-67.527151	0.000578	5.777561	1.957491	0.000231
1871	1.8606e+02	-5.5041	-67.236477	0.000730	7.297971	2.472620	0.000292
1872	1.8616e+02	-5.4576	-66.937729	0.000750	7.500693	2.541304	0.000300
1873	1.8626e+02	-5.4335	-66.651092	0.000720	7.196611	2.438278	0.000288
1874	1.8636e+02	-5.3886	-66.420976	0.000578	5.777561	1.957491	0.000231
1875	1.8646e+02	-5.3469	-66.166636	0.000639	6.385725	2.163542	0.000256
1876	1.8656e+02	-5.3036	-65.875962	0.000730	7.297971	2.472620	0.000292
1877	1.8666e+02	-5.2587	-65.657957	0.000547	5.473479	1.854465	0.000219
1878	1.8676e+02	-5.2186	-65.343060	0.000791	7.906136	2.678671	0.000316
1879	1.8686e+02	-5.1897	-65.084684	0.000649	6.487086	2.197884	0.000260
1880	1.8696e+02	-5.1448	-64.789973	0.000740	7.399332	2.506962	0.000296
1881	1.8706e+02	-5.1079	-64.539670	0.000628	6.284364	2.129200	0.000252
1882	1.8716e+02	-5.0549	-64.265145	0.000689	6.892529	2.335252	0.000276
1883	1.8726e+02	-5.0293	-63.978509	0.000720	7.196611	2.438278	0.000288
1884	1.8736e+02	-4.9844	-63.695909	0.000710	7.095250	2.403936	0.000284
1885	1.8746e+02	-4.9330	-63.445607	0.000628	6.284364	2.129200	0.000252
1886	1.8756e+02	-4.8961	-63.142822	0.000760	7.602054	2.575645	0.000304
1887	1.8766e+02	-4.8672	-62.868296	0.000689	6.892529	2.335252	0.000276
1888	1.8776e+02	-4.8303	-62.589734	0.000699	6.993889	2.369594	0.000280
1889	1.8786e+02	-4.7838	-62.323283	0.000669	6.689807	2.266568	0.000268
1890	1.8796e+02	-4.7421	-62.093166	0.000578	5.777561	1.957491	0.000231
1891	1.8806e+02	-4.7020	-61.782307	0.000780	7.804775	2.644329	0.000312
1892	1.8815e+02	-4.6619	-61.503744	0.000699	6.993889	2.369594	0.000280
1893	1.8825e+02	-4.6234	-61.209033	0.000740	7.399332	2.506962	0.000296
1894	1.8835e+02	-4.5849	-60.962768	0.000618	6.183004	2.094858	0.000248
1895	1.8845e+02	-4.5496	-60.651909	0.000780	7.804775	2.644329	0.000312
1896	1.8855e+02	-4.5047	-60.385458	0.000669	6.689807	2.266568	0.000268
1897	1.8865e+02	-4.4646	-60.155341	0.000578	5.777561	1.957491	0.000231
1898	1.8875e+02	-4.4213	-59.812185	0.000862	8.615661	2.919065	0.000345
1899	1.8885e+02	-4.3812	-59.501325	0.000780	7.804775	2.644329	0.000312
1900	1.8895e+02	-4.3411	-59.251023	0.000628	6.284364	2.129200	0.000252
1901	1.8905e+02	-4.3138	-59.024943	0.000568	5.676200	1.923149	0.000227
1902	1.8915e+02	-4.2769	-58.742344	0.000710	7.095250	2.403936	0.000284
1903	1.8925e+02	-4.2288	-58.479930	0.000659	6.588446	2.232226	0.000264
1904	1.8935e+02	-4.1870	-58.173107	0.000770	7.703414	2.609987	0.000308
1905	1.8945e+02	-4.1469	-57.870322	0.000760	7.602054	2.575645	0.000304
1906	1.8955e+02	-4.1004	-57.615983	0.000639	6.385725	2.163542	0.000256
1907	1.8965e+02	-4.0715	-57.345495	0.000679	6.791168	2.300910	0.000272
1908	1.8975e+02	-4.0282	-57.050784	0.000740	7.399332	2.506962	0.000296
1909	1.8985e+02	-3.9865	-56.780296	0.000679	6.791168	2.300910	0.000272
1910	1.8995e+02	-3.9464	-56.485585	0.000740	7.399332	2.506962	0.000296
1911	1.9004e+02	-3.9079	-56.142428	0.000862	8.615661	2.919065	0.000345
1912	1.9014e+02	-3.8710	-55.916349	0.000568	5.676200	1.923149	0.000227
1913	1.9024e+02	-3.8261	-55.625675	0.000730	7.297971	2.472620	0.000292
1914	1.9034e+02	-3.7860	-55.322890	0.000760	7.602054	2.575645	0.000304
1915	1.9044e+02	-3.7427	-55.024142	0.000750	7.500693	2.541304	0.000300
1916	1.9054e+02	-3.7010	-54.765765	0.000649	6.487086	2.197884	0.000260
1917	1.9064e+02	-3.6625	-54.483165	0.000710	7.095250	2.403936	0.000284
1918	1.9074e+02	-3.6304	-54.208640	0.000689	6.892529	2.335252	0.000276
1919	1.9084e+02	-3.5983	-53.934115	0.000689	6.892529	2.335252	0.000276
1920	1.9094e+02	-3.5486	-53.615181	0.000801	8.007496	2.713013	0.000321
1921	1.9104e+02	-3.5117	-53.312396	0.000760	7.602054	2.575645	0.000304
1922	1.9114e+02	-3.4667	-53.066131	0.000618	6.183004	2.094858	0.000248
1923	1.9124e+02	-3.4170	-52.771420	0.000740	7.399332	2.506962	0.000296
1924	1.9134e+02	-3.3881	-52.460560	0.000780	7.804775	2.644329	0.000312
1925	1.9144e+02	-3.3512	-52.186035	0.000689	6.892529	2.335252	0.000276
1926	1.9154e+02	-3.3047	-51.919584	0.000669	6.689807	2.266568	0.000268
1927	1.9164e+02	-3.2758	-51.636985	0.000710	7.095250	2.403936	0.000284
1928	1.9174e+02	-3.2293	-51.293828	0.000862	8.615661	2.919065	0.000345
1929	1.9184e+02	-3.1972	-51.015266	0.000699	6.993889	2.369594	0.000280
1930	1.9194e+02	-3.1635	-50.712481	0.000760	7.602054	2.575645	0.000304
1931	1.9203e+02	-3.1202	-50.413733	0.000750	7.500693	2.541304	0.000300
1932	1.9213e+02	-3.0689	-50.131133	0.000710	7.095250	2.403936	0.000284
1933	1.9223e+02	-3.0288	-49.860645	0.000679	6.791168	2.300910	0.000272
1934	1.9233e+02	-2.9919	-49.485191	0.000943	9.426546	3.193800	0.000377
1935	1.9243e+02	-2.9454	-49.247000	0.000598	5.980282	2.026174	0.000239
1936	1.9253e+02	-2.9053	-48.956327	0.000730	7.297971	2.472620	0.000292
1937	1.9263e+02	-2.8620	-48.681801	0.000689	6.892529	2.335252	0.000276
1938	1.9273e+02	-2.8331	-48.362868	0.000801	8.007496	2.713013	0.000321
1939	1.9283e+02	-2.7898	-48.072194	0.000730	7.297971	2.472620	0.000292
1940	1.9293e+02	-2.7464	-47.781520	0.000730	7.297971	2.472620	0.000292
1941	1.9303e+02	-2.7047	-47.474698	0.000770	7.703414	2.609987	0.000308
1942	1.9313e+02	-2.6678	-47.151727	0.000811	8.108857	2.747355	0.000325
1943	1.9323e+02	-2.6390	-46.881239	0.000679	6.791168	2.300910	0.000272
1944	1.9333e+02	-2.5956	-46.550194	0.000831	8.311579	2.816039	0.000333
1945	1.9343e+02	-2.5523	-46.263557	0.000720	7.196611	2.438278	0.000288
1946	1.9353e+02	-2.5138	-45.980957	0.000710	7.095250	2.403936	0.000284
1947	1.9363e+02	-2.4785	-45.657987	0.000811	8.108857	2.747355	0.000325
1948	1.9373e+02	-2.4352	-45.335016	0.000811	8.108857	2.747355	0.000325
1949	1.9383e+02	-2.3967	-45.020119	0.000791	7.906136	2.678671	0.000316
1950	1.9393e+02	-2.3566	-44.733483	0.000720	7.196611	2.438278	0.000288
1951	1.9403e+02	-2.3165	-44.426660	0.000770	7.703414	2.609987	0.000308
1952	1.9412e+02	-2.2732	-44.140024	0.000720	7.196611	2.438278	0.000288
1953	1.9422e+02	-2.2267	-43.845313	0.000740	7.399332	2.506962	0.000296
1954	1.9432e+02	-2.1914	-43.546565	0.000750	7.500693	2.541304	0.000300
1955	1.9442e+02	-2.1513	-43.239742	0.000770	7.703414	2.609987	0.000308
1956	1.9452e+02	-2.1160	-42.928883	0.000780	7.804775	2.644329	0.000312
1957	1.9462e+02	-2.0871	-42.581689	0.000872	8.717021	2.953407	0.000349
1958	1.9472e+02	-2.0390	-42.274867	0.000770	7.703414	2.609987	0.000308
1959	1.9482e+02	-1.9957	-41.984193	0.000730	7.297971	2.472620	0.000292
1960	1.9492e+02	-1.9636	-41.657185	0.000821	8.210218	2.781697	0.000329
1961	1.9502e+02	-1.9187	-41.358437	0.000750	7.500693	2.541304	0.000300
1962	1.9512e+02	-1.8770	-41.023355	0.000841	8.412939	2.850381	0.000337
1963	1.9522e+02	-1.8304	-40.720570	0.000760	7.602054	2.575645	0.000304
1964	1.9532e+02	-1.7999	-40.458156	0.000659	6.588446	2.232226	0.000264
1965	1.9542e+02	-1.7518	-40.119036	0.000851	8.514300	2.884723	0.000341
1966	1.9552e+02	-1.7085	-39.792028	0.000821	8.210218	2.781697	0.000329
1967	1.9562e+02	-1.6780	-39.525577	0.000669	6.689807	2.266568	0.000268
1968	1.9572e+02	-1.6395	-39.198569	0.000821	8.210218	2.781697	0.000329
1969	1.9582e+02	-1.5914	-38.867524	0.000831	8.311579	2.816039	0.000333
1970	1.9592e+02	-1.5593	-38.552628	0.000791	7.906136	2.678671	0.000316
1971	1.9601e+02	-1.5128	-38.217545	0.000841	8.412939	2.850381	0.000337
1972	1.9611e+02	-1.4727	-37.882463	0.000841	8.412939	2.850381	0.000337
1973	1.9621e+02	-1.4342	-37.591789	0.000730	7.297971	2.472620	0.000292
1974	1.9631e+02	-1.4005	-37.228447	0.000912	9.122464	3.090775	0.000365
1975	1.9641e+02	-1.3508	-36.941811	0.000720	7.196611	2.438278	0.000288
1976	1.9651e+02	-1.3203	-36.610765	0.000831	8.311579	2.816039	0.000333
1977	1.9661e+02	-1.2882	-36.291832	0.000801	8.007496	2.713013	0.000321
1978	1.9671e+02	-1.2353	-35.944638	0.000872	8.717021	2.953407	0.000349
1979	1.9681e+02	-1.2016	-35.674150	0.000679	6.791168	2.300910	0.000272
1980	1.9691e+02	-1.1583	-35.302733	0.000933	9.325186	3.159458	0.000373
1981	1.9701e+02	-1.1214	-35.020134	0.000710	7.095250	2.403936	0.000284
1982	1.9711e+02	-1.0748	-34.652755	0.000922	9.223825	3.125117	0.000369
1983	1.9721e+02	-1.0379	-34.349969	0.000760	7.602054	2.575645	0.000304
1984	1.9731e+02	-0.9994	-34.014887	0.000841	8.412939	2.850381	0.000337
1985	1.9741e+02	-0.9641	-33.716139	0.000750	7.500693	2.541304	0.000300
1986	1.9751e+02	-0.9256	-33.304351	0.001034	10.338793	3.502878	0.000414
1987	1.9761e+02	-0.8903	-33.005603	0.000750	7.500693	2.541304	0.000300
1988	1.9771e+02	-0.8454	-32.654372	0.000882	8.818382	2.987749	0.000353
1989	1.9781e+02	-0.7893	-32.335439	0.000801	8.007496	2.713013	0.000321
1990	1.9791e+02	-0.7604	-32.016505	0.000801	8.007496	2.713013	0.000321
1991	1.9800e+02	-0.7283	-31.693534	0.000811	8.108857	2.747355	0.000325
1992	1.9810e+02	-0.6802	-31.322118	0.000933	9.325186	3.159458	0.000373
1993	1.9820e+02	-0.6353	-31.027407	0.000740	7.399332	2.506962	0.000296
1994	1.9830e+02	-0.6048	-30.704436	0.000811	8.108857	2.747355	0.000325
1995	1.9840e+02	-0.5647	-30.361279	0.000862	8.615661	2.919065	0.000345
1996	1.9850e+02	-0.5230	-29.993900	0.000922	9.223825	3.125117	0.000369
1997	1.9860e+02	-0.4861	-29.634595	0.000902	9.021104	3.056433	0.000361
1998	1.9870e+02	-0.4396	-29.331810	0.000760	7.602054	2.575645	0.000304
1999	1.9880e+02	-0.4027	-29.004802	0.000821	8.210218	2.781697	0.000329
2000	1.9890e+02	-0.3642	-28.633385	0.000933	9.325186	3.159458	0.000373
2001	1.9900e+02	-0.3257	-28.290229	0.000862	8.615661	2.919065	0.000345
2002	1.9910e+02	-0.2807	-27.971295	0.000801	8.007496	2.713013	0.000321
2003	1.9920e+02	-0.2422	-27.624101	0.000872	8.717021	2.953407	0.000349
2004	1.9930e+02	-0.1989	-27.297093	0.000821	8.210218	2.781697	0.000329
2005	1.9940e+02	-0.1668	-26.957974	0.000851	8.514300	2.884723	0.000341
2006	1.9950e+02	-0.1187	-26.594632	0.000912	9.122464	3.090775	0.000365
2007	1.9960e+02	-0.0834	-26.251475	0.000862	8.615661	2.919065	0.000345
2008	1.9970e+02	-0.0385	-25.916393	0.000841	8.412939	2.850381	0.000337
2009	1.9980e+02	-0.0048	-25.544976	0.000841	8.412939	2.850381	0.000373

Center data before PMax,+/-Pr and +/-Vc Calc.

PMax (uC/cm2):	1.33e+02
Pr (uC/cm2):	1.54e+01
-Pr (uC/cm2):	-2.55e+01
PLoss (uC/cm2):	-2.46e+01
-Vc:	-1.87e+00
C (Max-Eff) (nF):	6.67e-01
K (Eff):	2.26e+03
Vert. (+/-Pr) Shift (uC/cm2):	-5.05e+00
Offset (uC/cm2):	9.10e-01

A (Loop Area - uC/cm2·Volts):	-3.92e-03



Hysteresis Version: 5.48.1 - Radiant Technologies, Inc., 1999 - 9/12/24

