»»»»»»»»»»»»»»»»»»»»»»»»»»»»»»»»»»»» Hysteresis ««««««««««««««««««««««««««««««««««««
»»»  Executed Version:	5.48.1
»»»  Vision Version:	5.48.4 (R)
»»»  Vision Compiled:	9/18/24
»»»  Driver Version:	5.47.0
»»»  Windows Version:	Windows 8 or 8.1
»»»  Processor Information:	x86 (AMD or Intel) - 32 Processors
»»»  Tester Name:	PMF21124-494 (100V)
»»»  Tester S/N:	PMF21124-494
»»»  Internal Amp Type:	100V RevK 270k
»»»  Internal Amp S/N:	iAB2-596/K     
»»»  Execution Count:	1
»»»»»»»»»»»»»»»»»»»»»»»»»»»»»»»»»»»»»»»»»»««««««««««««««««««««««««««««««««««««««««««

Stored:	6/5/2025 - 16:2:37
Configured:	06/05/25 02:51:50 PM
Executed:	06/05/25 04:02:02 PM

»»»»»»»»»»»»»»»»»»»»»»»»»»»»»»»»»»» Sample Info ««««««««««««««««««««««««««««««««««««
Sample Name:	
Lot Name:	
Wafer Name:	
Die Row/Column:	0/0
Capacitor Number:	0
Sample Area (cm2):	1.00e-04
Sample Thickness (microns):	3.00e-01

Amplifier:	Internal

»»»»»»»»»»»»»»»»»»»»»»»»»»»»»»»»»»» Tester Info «««««««««««««««««««««««««««««««««««
Tester Name:	PMF21124-494 (100V)
Tester Serial Number:	PMF21124-494
Return Signal Amp. Level:	0.19 [Index: 3]

»»»»»»»»»»»»»»»»»»»»»»»»»»»»»»»» Hysteresis Info ««««««««««««««««««««««««««««««««««
Task Name:	Hyst-353
Volts:	20.00
Field:	666.67 (kV/cm)
DCBias:	0.00
DCField:	0.00 (kV/cm)
Hysteresis Period (ms):	2.00e+02
Preset:	Enabled
Preset Delay (ms):	1.00e+03
Profile:	Standard Bipolar

»»»»»»»»»»»»»»»»»»»»»»»»»»»»»»»»»»»»»» Data «««««««««««««««««««««««««««««««««««««««
Points:	2009

Valid Data

Point	Time (ms)	Drive Voltage	Measured Polarization (uC/cm2)	Capacitance (uF)	Normalized Capacitance (uF/cm2)	Dielectric Constant	Instantaneous Current (mA)
   1	0.0000e+00	0.0096	12.438415	0.000507	5.067121	1.716787	0.000203
   2	9.9500e-02	0.0289	12.640272	0.000507	5.067121	1.716787	0.000203
   3	1.9900e-01	0.0706	12.894612	0.000638	6.384572	2.163152	0.000256
   4	2.9850e-01	0.1171	13.197397	0.000760	7.600681	2.575181	0.000304
   5	3.9800e-01	0.1588	13.431551	0.000588	5.877860	1.991473	0.000235
   6	4.9750e-01	0.1861	13.762596	0.000831	8.310078	2.815531	0.000333
   7	5.9700e-01	0.2326	13.972527	0.000527	5.269806	1.785459	0.000211
   8	6.9650e-01	0.2679	14.275312	0.000760	7.600681	2.575181	0.000304
   9	7.9600e-01	0.3096	14.561949	0.000720	7.195312	2.437838	0.000288
  10	8.9550e-01	0.3449	14.828400	0.000669	6.688600	2.266159	0.000268
  11	9.9500e-01	0.3898	15.086776	0.000649	6.485915	2.197487	0.000260
  12	1.0945e+00	0.4315	15.405710	0.000801	8.006051	2.712524	0.000321
  13	1.1940e+00	0.4636	15.619678	0.000537	5.371148	1.819794	0.000215
  14	1.2935e+00	0.5118	15.958798	0.000851	8.512763	2.884202	0.000341
  15	1.3930e+00	0.5470	16.229286	0.000679	6.789942	2.300495	0.000272
  16	1.4925e+00	0.5920	16.475551	0.000618	6.181888	2.094480	0.000248
  17	1.5920e+00	0.6257	16.766225	0.000730	7.296654	2.472173	0.000292
  18	1.6915e+00	0.6754	17.133604	0.000922	9.222160	3.124552	0.000369
  19	1.7910e+00	0.7123	17.355647	0.000557	5.573833	1.888466	0.000223
  20	1.8905e+00	0.7540	17.666506	0.000780	7.803366	2.643852	0.000312
  21	1.9900e+00	0.7845	17.936994	0.000679	6.789942	2.300495	0.000272
  22	2.0895e+00	0.8278	18.231705	0.000740	7.397997	2.506509	0.000296
  23	2.1890e+00	0.8743	18.514304	0.000709	7.093969	2.403502	0.000284
  24	2.2885e+00	0.9128	18.821127	0.000770	7.702024	2.609516	0.000308
  25	2.3880e+00	0.9481	19.107763	0.000720	7.195312	2.437838	0.000288
  26	2.4875e+00	0.9962	19.398437	0.000730	7.296654	2.472173	0.000292
  27	2.5870e+00	1.0315	19.677000	0.000699	6.992627	2.369166	0.000280
  28	2.6865e+00	1.0652	19.967673	0.000730	7.296654	2.472173	0.000292
  29	2.7860e+00	1.0989	20.193753	0.000568	5.675175	1.922802	0.000227
  30	2.8855e+00	1.1438	20.508650	0.000790	7.904709	2.678188	0.000316
  31	2.9850e+00	1.1887	20.815472	0.000770	7.702024	2.609516	0.000308
  32	3.0845e+00	1.2288	21.098071	0.000709	7.093969	2.403502	0.000284
  33	3.1840e+00	1.2722	21.412968	0.000790	7.904709	2.678188	0.000316
  34	3.2835e+00	1.3091	21.695567	0.000709	7.093969	2.403502	0.000284
  35	3.3830e+00	1.3443	22.030650	0.000841	8.411421	2.849867	0.000337
  36	3.4825e+00	1.3893	22.325361	0.000740	7.397997	2.506509	0.000296
  37	3.5820e+00	1.4262	22.624109	0.000750	7.499339	2.540845	0.000300
  38	3.6815e+00	1.4631	22.870374	0.000618	6.181888	2.094480	0.000248
  39	3.7810e+00	1.5080	23.225642	0.000892	8.918133	3.021545	0.000357
  40	3.8805e+00	1.5513	23.528427	0.000760	7.600681	2.575181	0.000304
  41	3.9800e+00	1.5898	23.786804	0.000649	6.485915	2.197487	0.000260
  42	4.0795e+00	1.6251	24.097663	0.000780	7.803366	2.643852	0.000312
  43	4.1790e+00	1.6604	24.372188	0.000689	6.891285	2.334830	0.000276
  44	4.2785e+00	1.7085	24.674974	0.000760	7.600681	2.575181	0.000304
  45	4.3780e+00	1.7486	25.010056	0.000841	8.411421	2.849867	0.000337
  46	4.4775e+00	1.7807	25.316878	0.000770	7.702024	2.609516	0.000308
  47	4.5770e+00	1.8224	25.591403	0.000689	6.891285	2.334830	0.000276
  48	4.6765e+00	1.8721	25.841706	0.000628	6.283230	2.128816	0.000252
  49	4.7760e+00	1.9042	26.221197	0.000953	9.526187	3.227560	0.000381
  50	4.8755e+00	1.9491	26.479573	0.000649	6.485915	2.197487	0.000260
  51	4.9750e+00	1.9860	26.778321	0.000750	7.499339	2.540845	0.000300
  52	5.0745e+00	2.0181	27.105329	0.000821	8.208736	2.781195	0.000329
  53	5.1740e+00	2.0614	27.420226	0.000790	7.904709	2.678188	0.000316
  54	5.2735e+00	2.1096	27.694751	0.000689	6.891285	2.334830	0.000276
  55	5.3730e+00	2.1400	28.037908	0.000861	8.614106	2.918538	0.000345
  56	5.4725e+00	2.1882	28.284173	0.000618	6.181888	2.094480	0.000248
  57	5.5720e+00	2.2315	28.590995	0.000770	7.702024	2.609516	0.000308
  58	5.6715e+00	2.2748	28.869558	0.000699	6.992627	2.369166	0.000280
  59	5.7710e+00	2.3037	29.196566	0.000821	8.208736	2.781195	0.000329
  60	5.8705e+00	2.3486	29.503388	0.000770	7.702024	2.609516	0.000308
  61	5.9700e+00	2.3871	29.818285	0.000790	7.904709	2.678188	0.000316
  62	6.0695e+00	2.4192	30.133181	0.000790	7.904709	2.678188	0.000316
  63	6.1690e+00	2.4545	30.379446	0.000618	6.181888	2.094480	0.000248
  64	6.2685e+00	2.5058	30.726640	0.000872	8.715448	2.952874	0.000349
  65	6.3680e+00	2.5427	31.017314	0.000730	7.296654	2.472173	0.000292
  66	6.4675e+00	2.5940	31.336248	0.000801	8.006051	2.712524	0.000321
  67	6.5670e+00	2.6245	31.598661	0.000659	6.587257	2.231823	0.000264
  68	6.6665e+00	2.6614	31.921632	0.000811	8.107394	2.746859	0.000325
  69	6.7660e+00	2.7079	32.200195	0.000699	6.992627	2.369166	0.000280
  70	6.8655e+00	2.7352	32.527203	0.000821	8.208736	2.781195	0.000329
  71	6.9650e+00	2.7833	32.846136	0.000801	8.006051	2.712524	0.000321
  72	7.0645e+00	2.8218	33.084327	0.000598	5.979203	2.025809	0.000239
  73	7.1640e+00	2.8652	33.403261	0.000801	8.006051	2.712524	0.000321
  74	7.2635e+00	2.9069	33.685861	0.000709	7.093969	2.403502	0.000284
  75	7.3630e+00	2.9406	33.988646	0.000760	7.600681	2.575181	0.000304
  76	7.4625e+00	2.9742	34.315654	0.000821	8.208736	2.781195	0.000329
  77	7.5620e+00	3.0127	34.634587	0.000801	8.006051	2.712524	0.000321
  78	7.6615e+00	3.0657	34.917187	0.000709	7.093969	2.403502	0.000284
  79	7.7610e+00	3.0978	35.228046	0.000780	7.803366	2.643852	0.000312
  80	7.8605e+00	3.1411	35.510646	0.000709	7.093969	2.403502	0.000284
  81	7.9600e+00	3.1828	35.813431	0.000760	7.600681	2.575181	0.000304
  82	8.0595e+00	3.2197	36.140439	0.000821	8.208736	2.781195	0.000329
  83	8.1590e+00	3.2662	36.467447	0.000821	8.208736	2.781195	0.000329
  84	8.2585e+00	3.3079	36.721787	0.000638	6.384572	2.163152	0.000256
  85	8.3580e+00	3.3352	37.004386	0.000709	7.093969	2.403502	0.000284
  86	8.4575e+00	3.3817	37.339468	0.000841	8.411421	2.849867	0.000337
  87	8.5570e+00	3.4202	37.613994	0.000689	6.891285	2.334830	0.000276
  88	8.6565e+00	3.4571	37.912742	0.000750	7.499339	2.540845	0.000300
  89	8.7560e+00	3.5020	38.239750	0.000821	8.208736	2.781195	0.000329
  90	8.8555e+00	3.5373	38.522349	0.000709	7.093969	2.403502	0.000284
  91	8.9550e+00	3.5758	38.813023	0.000730	7.296654	2.472173	0.000292
  92	9.0545e+00	3.6191	39.127920	0.000790	7.904709	2.678188	0.000316
  93	9.1540e+00	3.6560	39.426668	0.000750	7.499339	2.540845	0.000300
  94	9.2535e+00	3.7042	39.681007	0.000638	6.384572	2.163152	0.000256
  95	9.3530e+00	3.7427	39.979755	0.000750	7.499339	2.540845	0.000300
  96	9.4525e+00	3.7732	40.306763	0.000821	8.208736	2.781195	0.000329
  97	9.5520e+00	3.8181	40.573214	0.000669	6.688600	2.266159	0.000268
  98	9.6515e+00	3.8486	40.888111	0.000790	7.904709	2.678188	0.000316
  99	9.7510e+00	3.8999	41.170710	0.000709	7.093969	2.403502	0.000284
 100	9.8505e+00	3.9368	41.449273	0.000699	6.992627	2.369166	0.000280
 101	9.9500e+00	3.9705	41.764169	0.000790	7.904709	2.678188	0.000316
 102	1.0050e+01	4.0090	42.087140	0.000811	8.107394	2.746859	0.000325
 103	1.0149e+01	4.0619	42.365702	0.000699	6.992627	2.369166	0.000280
 104	1.0248e+01	4.0908	42.644265	0.000699	6.992627	2.369166	0.000280
 105	1.0348e+01	4.1405	42.963199	0.000801	8.006051	2.712524	0.000321
 106	1.0447e+01	4.1758	43.249835	0.000720	7.195312	2.437838	0.000288
 107	1.0547e+01	4.2239	43.528398	0.000699	6.992627	2.369166	0.000280
 108	1.0646e+01	4.2496	43.831183	0.000760	7.600681	2.575181	0.000304
 109	1.0746e+01	4.2993	44.109745	0.000699	6.992627	2.369166	0.000280
 110	1.0845e+01	4.3378	44.384270	0.000689	6.891285	2.334830	0.000276
 111	1.0945e+01	4.3780	44.711278	0.000821	8.208736	2.781195	0.000329
 112	1.1044e+01	4.4100	44.961581	0.000628	6.283230	2.128816	0.000252
 113	1.1144e+01	4.4598	45.219957	0.000649	6.485915	2.197487	0.000260
 114	1.1243e+01	4.4951	45.559077	0.000851	8.512763	2.884202	0.000341
 115	1.1343e+01	4.5352	45.849751	0.000730	7.296654	2.472173	0.000292
 116	1.1443e+01	4.5737	46.128313	0.000699	6.992627	2.369166	0.000280
 117	1.1542e+01	4.6170	46.435135	0.000770	7.702024	2.609516	0.000308
 118	1.1642e+01	4.6475	46.750032	0.000790	7.904709	2.678188	0.000316
 119	1.1741e+01	4.6956	47.008409	0.000649	6.485915	2.197487	0.000260
 120	1.1841e+01	4.7341	47.295045	0.000720	7.195312	2.437838	0.000288
 121	1.1940e+01	4.7726	47.573608	0.000699	6.992627	2.369166	0.000280
 122	1.2040e+01	4.8111	47.864281	0.000730	7.296654	2.472173	0.000292
 123	1.2139e+01	4.8496	48.191289	0.000821	8.208736	2.781195	0.000329
 124	1.2239e+01	4.8929	48.473889	0.000709	7.093969	2.403502	0.000284
 125	1.2338e+01	4.9330	48.716117	0.000608	6.080545	2.060144	0.000243
 126	1.2438e+01	4.9844	48.994679	0.000699	6.992627	2.369166	0.000280
 127	1.2537e+01	5.0132	49.281316	0.000720	7.195312	2.437838	0.000288
 128	1.2636e+01	5.0533	49.596213	0.000790	7.904709	2.678188	0.000316
 129	1.2736e+01	5.0999	49.878812	0.000709	7.093969	2.403502	0.000284
 130	1.2835e+01	5.1351	50.153337	0.000689	6.891285	2.334830	0.000276
 131	1.2935e+01	5.1672	50.439974	0.000720	7.195312	2.437838	0.000288
 132	1.3034e+01	5.2089	50.754870	0.000790	7.904709	2.678188	0.000316
 133	1.3134e+01	5.2474	51.005173	0.000628	6.283230	2.128816	0.000252
 134	1.3233e+01	5.2908	51.320070	0.000790	7.904709	2.678188	0.000316
 135	1.3333e+01	5.3341	51.606706	0.000720	7.195312	2.437838	0.000288
 136	1.3432e+01	5.3758	51.836823	0.000578	5.776518	1.957137	0.000231
 137	1.3532e+01	5.4127	52.147682	0.000780	7.803366	2.643852	0.000312
 138	1.3632e+01	5.4528	52.406059	0.000649	6.485915	2.197487	0.000260
 139	1.3731e+01	5.4817	52.680584	0.000689	6.891285	2.334830	0.000276
 140	1.3831e+01	5.5362	52.987407	0.000770	7.702024	2.609516	0.000308
 141	1.3930e+01	5.5667	53.265969	0.000699	6.992627	2.369166	0.000280
 142	1.4030e+01	5.6116	53.516271	0.000628	6.283230	2.128816	0.000252
 143	1.4129e+01	5.6469	53.863465	0.000872	8.715448	2.952874	0.000349
 144	1.4229e+01	5.6838	54.109730	0.000618	6.181888	2.094480	0.000248
 145	1.4328e+01	5.7319	54.424627	0.000790	7.904709	2.678188	0.000316
 146	1.4428e+01	5.7688	54.699152	0.000689	6.891285	2.334830	0.000276
 147	1.4527e+01	5.8169	54.981752	0.000709	7.093969	2.403502	0.000284
 148	1.4627e+01	5.8554	55.215905	0.000588	5.877860	1.991473	0.000235
 149	1.4726e+01	5.8956	55.518691	0.000760	7.600681	2.575181	0.000304
 150	1.4825e+01	5.9260	55.760919	0.000608	6.080545	2.060144	0.000243
 151	1.4925e+01	5.9613	56.031407	0.000679	6.789942	2.300495	0.000272
 152	1.5024e+01	6.0127	56.334192	0.000760	7.600681	2.575181	0.000304
 153	1.5124e+01	6.0496	56.592569	0.000649	6.485915	2.197487	0.000260
 154	1.5223e+01	6.0961	56.883243	0.000730	7.296654	2.472173	0.000292
 155	1.5323e+01	6.1410	57.157768	0.000689	6.891285	2.334830	0.000276
 156	1.5422e+01	6.1699	57.452479	0.000740	7.397997	2.506509	0.000296
 157	1.5522e+01	6.2132	57.722967	0.000679	6.789942	2.300495	0.000272
 158	1.5621e+01	6.2517	58.009603	0.000720	7.195312	2.437838	0.000288
 159	1.5721e+01	6.2966	58.259906	0.000628	6.283230	2.128816	0.000252
 160	1.5820e+01	6.3319	58.526357	0.000669	6.688600	2.266159	0.000268
 161	1.5920e+01	6.3656	58.821068	0.000740	7.397997	2.506509	0.000296
 162	1.6020e+01	6.4057	59.107704	0.000720	7.195312	2.437838	0.000288
 163	1.6119e+01	6.4506	59.353970	0.000618	6.181888	2.094480	0.000248
 164	1.6218e+01	6.4923	59.624458	0.000679	6.789942	2.300495	0.000272
 165	1.6318e+01	6.5260	59.878797	0.000638	6.384572	2.163152	0.000256
 166	1.6418e+01	6.5709	60.177545	0.000750	7.499339	2.540845	0.000300
 167	1.6517e+01	6.6046	60.456108	0.000699	6.992627	2.369166	0.000280
 168	1.6616e+01	6.6399	60.746781	0.000730	7.296654	2.472173	0.000292
 169	1.6716e+01	6.6864	60.989010	0.000608	6.080545	2.060144	0.000243
 170	1.6816e+01	6.7265	61.303906	0.000790	7.904709	2.678188	0.000316
 171	1.6915e+01	6.7763	61.558246	0.000638	6.384572	2.163152	0.000256
 172	1.7015e+01	6.8019	61.840845	0.000709	7.093969	2.403502	0.000284
 173	1.7114e+01	6.8372	62.091148	0.000628	6.283230	2.128816	0.000252
 174	1.7213e+01	6.8918	62.410081	0.000801	8.006051	2.712524	0.000321
 175	1.7313e+01	6.9271	62.591752	0.000456	4.560409	1.545108	0.000183
 176	1.7413e+01	6.9752	62.914723	0.000811	8.107394	2.746859	0.000325
 177	1.7512e+01	7.0073	63.181174	0.000669	6.688600	2.266159	0.000268
 178	1.7611e+01	7.0378	63.483959	0.000760	7.600681	2.575181	0.000304
 179	1.7711e+01	7.0875	63.697928	0.000537	5.371148	1.819794	0.000215
 180	1.7811e+01	7.1276	64.000713	0.000760	7.600681	2.575181	0.000304
 181	1.7910e+01	7.1629	64.299461	0.000750	7.499339	2.540845	0.000300
 182	1.8009e+01	7.2030	64.529578	0.000578	5.776518	1.957137	0.000231
 183	1.8109e+01	7.2447	64.812177	0.000709	7.093969	2.403502	0.000284
 184	1.8209e+01	7.2864	65.078628	0.000669	6.688600	2.266159	0.000268
 185	1.8308e+01	7.3233	65.357190	0.000699	6.992627	2.369166	0.000280
 186	1.8407e+01	7.3618	65.591344	0.000588	5.877860	1.991473	0.000235
 187	1.8507e+01	7.4051	65.882018	0.000730	7.296654	2.472173	0.000292
 188	1.8607e+01	7.4404	66.160580	0.000699	6.992627	2.369166	0.000280
 189	1.8706e+01	7.4837	66.418957	0.000649	6.485915	2.197487	0.000260
 190	1.8805e+01	7.5303	66.721742	0.000760	7.600681	2.575181	0.000304
 191	1.8905e+01	7.5720	66.963970	0.000608	6.080545	2.060144	0.000243
 192	1.9005e+01	7.6041	67.230421	0.000669	6.688600	2.266159	0.000268
 193	1.9104e+01	7.6345	67.480724	0.000628	6.283230	2.128816	0.000252
 194	1.9203e+01	7.6811	67.759286	0.000699	6.992627	2.369166	0.000280
 195	1.9303e+01	7.7260	68.041886	0.000709	7.093969	2.403502	0.000284
 196	1.9402e+01	7.7725	68.272002	0.000578	5.776518	1.957137	0.000231
 197	1.9502e+01	7.8014	68.566713	0.000740	7.397997	2.506509	0.000296
 198	1.9602e+01	7.8399	68.792793	0.000568	5.675175	1.922802	0.000227
 199	1.9701e+01	7.8848	69.091541	0.000750	7.499339	2.540845	0.000300
 200	1.9800e+01	7.9281	69.333769	0.000608	6.080545	2.060144	0.000243
 201	1.9900e+01	7.9666	69.592146	0.000649	6.485915	2.197487	0.000260
 202	2.0000e+01	8.0035	69.858597	0.000669	6.688600	2.266159	0.000268
 203	2.0099e+01	8.0420	70.157345	0.000750	7.499339	2.540845	0.000300
 204	2.0198e+01	8.0869	70.339016	0.000456	4.560409	1.545108	0.000183
 205	2.0298e+01	8.1126	70.653913	0.000790	7.904709	2.678188	0.000316
 206	2.0398e+01	8.1623	70.944586	0.000730	7.296654	2.472173	0.000292
 207	2.0497e+01	8.2057	71.194889	0.000628	6.283230	2.128816	0.000252
 208	2.0596e+01	8.2522	71.437117	0.000608	6.080545	2.060144	0.000243
 209	2.0696e+01	8.2778	71.743939	0.000770	7.702024	2.609516	0.000308
 210	2.0796e+01	8.3212	71.986167	0.000608	6.080545	2.060144	0.000243
 211	2.0895e+01	8.3661	72.244544	0.000649	6.485915	2.197487	0.000260
 212	2.0994e+01	8.3982	72.535218	0.000730	7.296654	2.472173	0.000292
 213	2.1094e+01	8.4399	72.761297	0.000568	5.675175	1.922802	0.000227
 214	2.1194e+01	8.4768	73.023711	0.000659	6.587257	2.231823	0.000264
 215	2.1293e+01	8.5169	73.298236	0.000689	6.891285	2.334830	0.000276
 216	2.1392e+01	8.5650	73.572762	0.000689	6.891285	2.334830	0.000276
 217	2.1492e+01	8.6051	73.802878	0.000578	5.776518	1.957137	0.000231
 218	2.1591e+01	8.6468	74.097589	0.000740	7.397997	2.506509	0.000296
 219	2.1691e+01	8.6757	74.311558	0.000537	5.371148	1.819794	0.000215
 220	2.1791e+01	8.7254	74.614343	0.000760	7.600681	2.575181	0.000304
 221	2.1890e+01	8.7591	74.868682	0.000638	6.384572	2.163152	0.000256
 222	2.1989e+01	8.7976	75.131096	0.000659	6.587257	2.231823	0.000264
 223	2.2089e+01	8.8329	75.385436	0.000638	6.384572	2.163152	0.000256
 224	2.2189e+01	8.8794	75.631701	0.000618	6.181888	2.094480	0.000248
 225	2.2288e+01	8.9195	75.910263	0.000699	6.992627	2.369166	0.000280
 226	2.2387e+01	8.9580	76.180751	0.000679	6.789942	2.300495	0.000272
 227	2.2487e+01	8.9981	76.402794	0.000557	5.573833	1.888466	0.000223
 228	2.2587e+01	9.0415	76.673282	0.000679	6.789942	2.300495	0.000272
 229	2.2686e+01	9.0800	76.943770	0.000679	6.789942	2.300495	0.000272
 230	2.2785e+01	9.1153	77.177924	0.000588	5.877860	1.991473	0.000235
 231	2.2885e+01	9.1570	77.408041	0.000578	5.776518	1.957137	0.000231
 232	2.2985e+01	9.1971	77.694677	0.000720	7.195312	2.437838	0.000288
 233	2.3084e+01	9.2404	77.953054	0.000649	6.485915	2.197487	0.000260
 234	2.3183e+01	9.2741	78.191245	0.000598	5.979203	2.025809	0.000239
 235	2.3283e+01	9.3190	78.449622	0.000649	6.485915	2.197487	0.000260
 236	2.3383e+01	9.3527	78.720110	0.000679	6.789942	2.300495	0.000272
 237	2.3482e+01	9.3992	78.982524	0.000659	6.587257	2.231823	0.000264
 238	2.3581e+01	9.4393	79.224752	0.000608	6.080545	2.060144	0.000243
 239	2.3681e+01	9.4730	79.479091	0.000638	6.384572	2.163152	0.000256
 240	2.3780e+01	9.5179	79.705171	0.000568	5.675175	1.922802	0.000227
 241	2.3880e+01	9.5612	79.967585	0.000659	6.587257	2.231823	0.000264
 242	2.3980e+01	9.5965	80.217887	0.000628	6.283230	2.128816	0.000252
 243	2.4079e+01	9.6382	80.452041	0.000588	5.877860	1.991473	0.000235
 244	2.4178e+01	9.6799	80.706381	0.000638	6.384572	2.163152	0.000256
 245	2.4278e+01	9.7120	80.993017	0.000720	7.195312	2.437838	0.000288
 246	2.4378e+01	9.7602	81.227171	0.000588	5.877860	1.991473	0.000235
 247	2.4477e+01	9.7954	81.485548	0.000649	6.485915	2.197487	0.000260
 248	2.4576e+01	9.8291	81.715664	0.000578	5.776518	1.957137	0.000231
 249	2.4676e+01	9.8805	81.986153	0.000679	6.789942	2.300495	0.000272
 250	2.4776e+01	9.9222	82.204158	0.000547	5.472491	1.854130	0.000219
 251	2.4875e+01	9.9511	82.458497	0.000638	6.384572	2.163152	0.000256
 252	2.4974e+01	9.9976	82.708800	0.000628	6.283230	2.128816	0.000252
 253	2.5074e+01	10.0361	82.991399	0.000709	7.093969	2.403502	0.000284
 254	2.5174e+01	10.0682	83.177108	0.000466	4.661751	1.579444	0.000187
 255	2.5273e+01	10.1163	83.500078	0.000811	8.107394	2.746859	0.000325
 256	2.5372e+01	10.1516	83.665601	0.000416	4.155039	1.407765	0.000166
 257	2.5472e+01	10.1965	83.923978	0.000649	6.485915	2.197487	0.000260
 258	2.5572e+01	10.2270	84.194466	0.000679	6.789942	2.300495	0.000272
 259	2.5671e+01	10.2735	84.408434	0.000537	5.371148	1.819794	0.000215
 260	2.5770e+01	10.3104	84.634514	0.000568	5.675175	1.922802	0.000227
 261	2.5870e+01	10.3553	84.925187	0.000730	7.296654	2.472173	0.000292
 262	2.5970e+01	10.3906	85.155304	0.000578	5.776518	1.957137	0.000231
 263	2.6069e+01	10.4259	85.413681	0.000649	6.485915	2.197487	0.000260
 264	2.6169e+01	10.4788	85.623612	0.000527	5.269806	1.785459	0.000211
 265	2.6268e+01	10.5157	85.881989	0.000649	6.485915	2.197487	0.000260
 266	2.6367e+01	10.5446	86.108068	0.000568	5.675175	1.922802	0.000227
 267	2.6467e+01	10.5911	86.330111	0.000557	5.573833	1.888466	0.000223
 268	2.6567e+01	10.6361	86.560227	0.000578	5.776518	1.957137	0.000231
 269	2.6666e+01	10.6714	86.854938	0.000740	7.397997	2.506509	0.000296
 270	2.6765e+01	10.7131	87.060832	0.000517	5.168463	1.751123	0.000207
 271	2.6865e+01	10.7548	87.303060	0.000608	6.080545	2.060144	0.000243
 272	2.6965e+01	10.7869	87.569511	0.000669	6.688600	2.266159	0.000268
 273	2.7064e+01	10.8302	87.783479	0.000537	5.371148	1.819794	0.000215
 274	2.7163e+01	10.8703	88.033782	0.000628	6.283230	2.128816	0.000252
 275	2.7263e+01	10.9088	88.235639	0.000507	5.067121	1.716787	0.000203
 276	2.7363e+01	10.9489	88.477867	0.000608	6.080545	2.060144	0.000243
 277	2.7462e+01	10.9874	88.748355	0.000679	6.789942	2.300495	0.000272
 278	2.7561e+01	11.0355	88.958286	0.000527	5.269806	1.785459	0.000211
 279	2.7661e+01	11.0692	89.172254	0.000537	5.371148	1.819794	0.000215
 280	2.7761e+01	11.1029	89.471002	0.000750	7.499339	2.540845	0.000300
 281	2.7860e+01	11.1494	89.697082	0.000568	5.675175	1.922802	0.000227
 282	2.7959e+01	11.1975	89.907013	0.000527	5.269806	1.785459	0.000211
 283	2.8059e+01	11.2232	90.157315	0.000628	6.283230	2.128816	0.000252
 284	2.8159e+01	11.2633	90.347061	0.000476	4.763094	1.613780	0.000191
 285	2.8258e+01	11.3082	90.605437	0.000649	6.485915	2.197487	0.000260
 286	2.8358e+01	11.3564	90.839591	0.000588	5.877860	1.991473	0.000235
 287	2.8457e+01	11.3884	91.057597	0.000547	5.472491	1.854130	0.000219
 288	2.8556e+01	11.4350	91.336159	0.000699	6.992627	2.369166	0.000280
 289	2.8656e+01	11.4687	91.542053	0.000517	5.168463	1.751123	0.000207
 290	2.8756e+01	11.5136	91.747947	0.000517	5.168463	1.751123	0.000207
 291	2.8855e+01	11.5537	91.978064	0.000578	5.776518	1.957137	0.000231
 292	2.8954e+01	11.5858	92.216255	0.000598	5.979203	2.025809	0.000239
 293	2.9054e+01	11.6259	92.410037	0.000486	4.864436	1.648116	0.000195
 294	2.9154e+01	11.6692	92.660339	0.000628	6.283230	2.128816	0.000252
 295	2.9253e+01	11.7109	92.894493	0.000588	5.877860	1.991473	0.000235
 296	2.9352e+01	11.7414	93.092313	0.000497	4.965779	1.682451	0.000199
 297	2.9452e+01	11.7895	93.338578	0.000618	6.181888	2.094480	0.000248
 298	2.9552e+01	11.8120	93.564658	0.000568	5.675175	1.922802	0.000227
 299	2.9651e+01	11.8649	93.823035	0.000649	6.485915	2.197487	0.000260
 300	2.9750e+01	11.9066	94.008743	0.000466	4.661751	1.579444	0.000187
 301	2.9850e+01	11.9499	94.242897	0.000588	5.877860	1.991473	0.000235
 302	2.9950e+01	11.9868	94.477051	0.000588	5.877860	1.991473	0.000235
 303	3.0049e+01	12.0221	94.703130	0.000568	5.675175	1.922802	0.000227
 304	3.0148e+01	12.0670	94.941321	0.000598	5.979203	2.025809	0.000239
 305	3.0248e+01	12.1104	95.163364	0.000557	5.573833	1.888466	0.000223
 306	3.0348e+01	12.1456	95.393480	0.000578	5.776518	1.957137	0.000231
 307	3.0447e+01	12.1793	95.603411	0.000527	5.269806	1.785459	0.000211
 308	3.0547e+01	12.2226	95.849677	0.000618	6.181888	2.094480	0.000248
 309	3.0646e+01	12.2708	96.091905	0.000608	6.080545	2.060144	0.000243
 310	3.0745e+01	12.3013	96.289724	0.000497	4.965779	1.682451	0.000199
 311	3.0845e+01	12.3462	96.519841	0.000578	5.776518	1.957137	0.000231
 312	3.0945e+01	12.3975	96.737847	0.000547	5.472491	1.854130	0.000219
 313	3.1044e+01	12.4232	96.943740	0.000517	5.168463	1.751123	0.000207
 314	3.1143e+01	12.4729	97.157709	0.000537	5.371148	1.819794	0.000215
 315	3.1243e+01	12.5114	97.444345	0.000720	7.195312	2.437838	0.000288
 316	3.1343e+01	12.5451	97.626016	0.000456	4.560409	1.545108	0.000183
 317	3.1442e+01	12.5900	97.856133	0.000578	5.776518	1.957137	0.000231
 318	3.1541e+01	12.6381	98.066064	0.000527	5.269806	1.785459	0.000211
 319	3.1641e+01	12.6622	98.312329	0.000618	6.181888	2.094480	0.000248
 320	3.1741e+01	12.7039	98.518223	0.000517	5.168463	1.751123	0.000207
 321	3.1840e+01	12.7408	98.687783	0.000426	4.256382	1.442101	0.000170
 322	3.1939e+01	12.7841	98.942123	0.000638	6.384572	2.163152	0.000256
 323	3.2039e+01	12.8210	99.184351	0.000608	6.080545	2.060144	0.000243
 324	3.2139e+01	12.8659	99.386208	0.000507	5.067121	1.716787	0.000203
 325	3.2238e+01	12.9012	99.616324	0.000578	5.776518	1.957137	0.000231
 326	3.2337e+01	12.9430	99.802033	0.000466	4.661751	1.579444	0.000187
 327	3.2437e+01	12.9782	100.028112	0.000568	5.675175	1.922802	0.000227
 328	3.2536e+01	13.0216	100.286489	0.000649	6.485915	2.197487	0.000260
 329	3.2636e+01	13.0617	100.488346	0.000507	5.067121	1.716787	0.000203
 330	3.2736e+01	13.1002	100.682128	0.000486	4.864436	1.648116	0.000195
 331	3.2835e+01	13.1419	100.916282	0.000588	5.877860	1.991473	0.000235
 332	3.2934e+01	13.1772	101.138325	0.000557	5.573833	1.888466	0.000223
 333	3.3034e+01	13.2157	101.356330	0.000547	5.472491	1.854130	0.000219
 334	3.3133e+01	13.2606	101.566261	0.000527	5.269806	1.785459	0.000211
 335	3.3233e+01	13.2927	101.760043	0.000486	4.864436	1.648116	0.000195
 336	3.3333e+01	13.3408	102.006309	0.000618	6.181888	2.094480	0.000248
 337	3.3432e+01	13.3809	102.220277	0.000537	5.371148	1.819794	0.000215
 338	3.3532e+01	13.4178	102.442319	0.000557	5.573833	1.888466	0.000223
 339	3.3631e+01	13.4611	102.688585	0.000618	6.181888	2.094480	0.000248
 340	3.3730e+01	13.4916	102.906590	0.000547	5.472491	1.854130	0.000219
 341	3.3830e+01	13.5445	103.076150	0.000426	4.256382	1.442101	0.000170
 342	3.3929e+01	13.5846	103.306266	0.000578	5.776518	1.957137	0.000231
 343	3.4029e+01	13.6151	103.568680	0.000659	6.587257	2.231823	0.000264
 344	3.4129e+01	13.6600	103.738240	0.000426	4.256382	1.442101	0.000170
 345	3.4228e+01	13.6953	103.948171	0.000527	5.269806	1.785459	0.000211
 346	3.4328e+01	13.7322	104.194436	0.000618	6.181888	2.094480	0.000248
 347	3.4427e+01	13.7820	104.372070	0.000446	4.459066	1.510773	0.000179
 348	3.4526e+01	13.8205	104.614298	0.000608	6.080545	2.060144	0.000243
 349	3.4626e+01	13.8574	104.852489	0.000598	5.979203	2.025809	0.000239
 350	3.4725e+01	13.9087	105.066458	0.000537	5.371148	1.819794	0.000215
 351	3.4825e+01	13.9360	105.292537	0.000568	5.675175	1.922802	0.000227
 352	3.4925e+01	13.9889	105.498431	0.000517	5.168463	1.751123	0.000207
 353	3.5024e+01	14.0162	105.724511	0.000568	5.675175	1.922802	0.000227
 354	3.5123e+01	14.0595	105.894070	0.000426	4.256382	1.442101	0.000170
 355	3.5223e+01	14.1012	106.132261	0.000598	5.979203	2.025809	0.000239
 356	3.5322e+01	14.1349	106.358341	0.000568	5.675175	1.922802	0.000227
 357	3.5422e+01	14.1782	106.527901	0.000426	4.256382	1.442101	0.000170
 358	3.5522e+01	14.2135	106.758017	0.000578	5.776518	1.957137	0.000231
 359	3.5621e+01	14.2600	107.004283	0.000618	6.181888	2.094480	0.000248
 360	3.5721e+01	14.2937	107.210177	0.000517	5.168463	1.751123	0.000207
 361	3.5820e+01	14.3354	107.395885	0.000466	4.661751	1.579444	0.000187
 362	3.5919e+01	14.3755	107.601779	0.000517	5.168463	1.751123	0.000207
 363	3.6019e+01	14.4204	107.839970	0.000598	5.979203	2.025809	0.000239
 364	3.6118e+01	14.4525	108.090272	0.000628	6.283230	2.128816	0.000252
 365	3.6218e+01	14.4862	108.275980	0.000466	4.661751	1.579444	0.000187
 366	3.6318e+01	14.5424	108.469763	0.000486	4.864436	1.648116	0.000195
 367	3.6417e+01	14.5793	108.720065	0.000628	6.283230	2.128816	0.000252
 368	3.6517e+01	14.6114	108.929996	0.000527	5.269806	1.785459	0.000211
 369	3.6616e+01	14.6531	109.103593	0.000436	4.357724	1.476437	0.000174
 370	3.6715e+01	14.6948	109.345821	0.000608	6.080545	2.060144	0.000243
 371	3.6815e+01	14.7269	109.535567	0.000476	4.763094	1.613780	0.000191
 372	3.6914e+01	14.7702	109.721275	0.000466	4.661751	1.579444	0.000187
 373	3.7014e+01	14.8087	109.963503	0.000608	6.080545	2.060144	0.000243
 374	3.7114e+01	14.8472	110.193620	0.000578	5.776518	1.957137	0.000231
 375	3.7213e+01	14.8921	110.415662	0.000557	5.573833	1.888466	0.000223
 376	3.7313e+01	14.9370	110.605408	0.000476	4.763094	1.613780	0.000191
 377	3.7412e+01	14.9755	110.839562	0.000588	5.877860	1.991473	0.000235
 378	3.7511e+01	15.0172	111.069678	0.000578	5.776518	1.957137	0.000231
 379	3.7611e+01	15.0525	111.247312	0.000446	4.459066	1.510773	0.000179
 380	3.7711e+01	15.1022	111.465318	0.000547	5.472491	1.854130	0.000219
 381	3.7810e+01	15.1327	111.679286	0.000537	5.371148	1.819794	0.000215
 382	3.7910e+01	15.1825	111.893254	0.000537	5.371148	1.819794	0.000215
 383	3.8009e+01	15.2161	112.062814	0.000426	4.256382	1.442101	0.000170
 384	3.8108e+01	15.2466	112.301005	0.000598	5.979203	2.025809	0.000239
 385	3.8208e+01	15.2883	112.523047	0.000557	5.573833	1.888466	0.000223
 386	3.8307e+01	15.3413	112.753164	0.000578	5.776518	1.957137	0.000231
 387	3.8407e+01	15.3750	112.922724	0.000426	4.256382	1.442101	0.000170
 388	3.8507e+01	15.4103	113.156878	0.000588	5.877860	1.991473	0.000235
 389	3.8606e+01	15.4472	113.370846	0.000537	5.371148	1.819794	0.000215
 390	3.8706e+01	15.4985	113.552517	0.000456	4.560409	1.545108	0.000183
 391	3.8805e+01	15.5306	113.766485	0.000537	5.371148	1.819794	0.000215
 392	3.8904e+01	15.5723	113.992565	0.000568	5.675175	1.922802	0.000227
 393	3.9004e+01	15.6076	114.186347	0.000486	4.864436	1.648116	0.000195
 394	3.9103e+01	15.6573	114.420501	0.000588	5.877860	1.991473	0.000235
 395	3.9203e+01	15.6942	114.606209	0.000466	4.661751	1.579444	0.000187
 396	3.9303e+01	15.7311	114.824215	0.000547	5.472491	1.854130	0.000219
 397	3.9402e+01	15.7808	115.030109	0.000517	5.168463	1.751123	0.000207
 398	3.9502e+01	15.8193	115.219854	0.000476	4.763094	1.613780	0.000191
 399	3.9601e+01	15.8546	115.454008	0.000588	5.877860	1.991473	0.000235
 400	3.9700e+01	15.8915	115.639716	0.000466	4.661751	1.579444	0.000187
 401	3.9800e+01	15.9364	115.865796	0.000568	5.675175	1.922802	0.000227
 402	3.9900e+01	15.9685	116.043430	0.000446	4.459066	1.510773	0.000179
 403	3.9999e+01	16.0070	116.273546	0.000578	5.776518	1.957137	0.000231
 404	4.0099e+01	16.0503	116.475403	0.000507	5.067121	1.716787	0.000203
 405	4.0198e+01	16.0872	116.669186	0.000486	4.864436	1.648116	0.000195
 406	4.0297e+01	16.1257	116.850857	0.000456	4.560409	1.545108	0.000183
 407	4.0397e+01	16.1691	117.089048	0.000598	5.979203	2.025809	0.000239
 408	4.0496e+01	16.2108	117.286867	0.000497	4.965779	1.682451	0.000199
 409	4.0596e+01	16.2413	117.476613	0.000476	4.763094	1.613780	0.000191
 410	4.0696e+01	16.2878	117.678470	0.000507	5.067121	1.716787	0.000203
 411	4.0795e+01	16.3311	117.900512	0.000557	5.573833	1.888466	0.000223
 412	4.0895e+01	16.3664	118.070072	0.000426	4.256382	1.442101	0.000170
 413	4.0994e+01	16.4081	118.328448	0.000649	6.485915	2.197487	0.000260
 414	4.1093e+01	16.4418	118.518194	0.000476	4.763094	1.613780	0.000191
 415	4.1193e+01	16.4851	118.716014	0.000497	4.965779	1.682451	0.000199
 416	4.1292e+01	16.5188	118.934019	0.000547	5.472491	1.854130	0.000219
 417	4.1392e+01	16.5637	119.139913	0.000517	5.168463	1.751123	0.000207
 418	4.1492e+01	16.6022	119.297361	0.000395	3.952354	1.339094	0.000158
 419	4.1591e+01	16.6391	119.491144	0.000486	4.864436	1.648116	0.000195
 420	4.1691e+01	16.6856	119.721260	0.000578	5.776518	1.957137	0.000231
 421	4.1790e+01	16.7225	119.927154	0.000517	5.168463	1.751123	0.000207
 422	4.1889e+01	16.7674	120.129011	0.000507	5.067121	1.716787	0.000203
 423	4.1989e+01	16.8043	120.314719	0.000466	4.661751	1.579444	0.000187
 424	4.2089e+01	16.8428	120.512539	0.000497	4.965779	1.682451	0.000199
 425	4.2188e+01	16.8910	120.714396	0.000507	5.067121	1.716787	0.000203
 426	4.2288e+01	16.9247	120.892030	0.000446	4.459066	1.510773	0.000179
 427	4.2387e+01	16.9680	121.085812	0.000486	4.864436	1.648116	0.000195
 428	4.2486e+01	17.0065	121.307855	0.000557	5.573833	1.888466	0.000223
 429	4.2586e+01	17.0466	121.513749	0.000517	5.168463	1.751123	0.000207
 430	4.2685e+01	17.0915	121.687345	0.000436	4.357724	1.476437	0.000174
 431	4.2785e+01	17.1316	121.885165	0.000497	4.965779	1.682451	0.000199
 432	4.2885e+01	17.1685	122.095096	0.000527	5.269806	1.785459	0.000211
 433	4.2984e+01	17.2038	122.284842	0.000476	4.763094	1.613780	0.000191
 434	4.3084e+01	17.2455	122.446327	0.000405	4.053697	1.373430	0.000162
 435	4.3183e+01	17.2936	122.700666	0.000638	6.384572	2.163152	0.000256
 436	4.3282e+01	17.3225	122.902523	0.000507	5.067121	1.716787	0.000203
 437	4.3382e+01	17.3658	123.088232	0.000466	4.661751	1.579444	0.000187
 438	4.3481e+01	17.4027	123.261828	0.000436	4.357724	1.476437	0.000174
 439	4.3581e+01	17.4428	123.487908	0.000568	5.675175	1.922802	0.000227
 440	4.3681e+01	17.4861	123.661505	0.000436	4.357724	1.476437	0.000174
 441	4.3780e+01	17.5198	123.859324	0.000497	4.965779	1.682451	0.000199
 442	4.3880e+01	17.5696	124.057144	0.000497	4.965779	1.682451	0.000199
 443	4.3979e+01	17.6016	124.250927	0.000486	4.864436	1.648116	0.000195
 444	4.4078e+01	17.6482	124.444709	0.000486	4.864436	1.648116	0.000195
 445	4.4178e+01	17.6835	124.614269	0.000426	4.256382	1.442101	0.000170
 446	4.4278e+01	17.7236	124.848423	0.000588	5.877860	1.991473	0.000235
 447	4.4377e+01	17.7765	125.017982	0.000426	4.256382	1.442101	0.000170
 448	4.4477e+01	17.8022	125.240025	0.000557	5.573833	1.888466	0.000223
 449	4.4576e+01	17.8391	125.433807	0.000486	4.864436	1.648116	0.000195
 450	4.4675e+01	17.8760	125.591256	0.000395	3.952354	1.339094	0.000158
 451	4.4775e+01	17.9241	125.845595	0.000638	6.384572	2.163152	0.000256
 452	4.4874e+01	17.9658	125.970746	0.000314	3.141615	1.064408	0.000126
 453	4.4974e+01	18.0075	126.208937	0.000598	5.979203	2.025809	0.000239
 454	4.5074e+01	18.0460	126.378497	0.000426	4.256382	1.442101	0.000170
 455	4.5173e+01	18.0877	126.580354	0.000507	5.067121	1.716787	0.000203
 456	4.5273e+01	18.1278	126.741839	0.000405	4.053697	1.373430	0.000162
 457	4.5372e+01	18.1631	126.963882	0.000557	5.573833	1.888466	0.000223
 458	4.5471e+01	18.2080	127.165739	0.000507	5.067121	1.716787	0.000203
 459	4.5571e+01	18.2449	127.347410	0.000456	4.560409	1.545108	0.000183
 460	4.5670e+01	18.2818	127.541192	0.000486	4.864436	1.648116	0.000195
 461	4.5770e+01	18.3187	127.698641	0.000395	3.952354	1.339094	0.000158
 462	4.5870e+01	18.3604	127.876275	0.000446	4.459066	1.510773	0.000179
 463	4.5969e+01	18.3957	128.070057	0.000486	4.864436	1.648116	0.000195
 464	4.6069e+01	18.4374	128.279988	0.000527	5.269806	1.785459	0.000211
 465	4.6168e+01	18.4808	128.441474	0.000405	4.053697	1.373430	0.000162
 466	4.6267e+01	18.5161	128.655442	0.000537	5.371148	1.819794	0.000215
 467	4.6367e+01	18.5626	128.812890	0.000395	3.952354	1.339094	0.000158
 468	4.6467e+01	18.5931	129.026858	0.000537	5.371148	1.819794	0.000215
 469	4.6566e+01	18.6476	129.220641	0.000486	4.864436	1.648116	0.000195
 470	4.6666e+01	18.6861	129.398275	0.000446	4.459066	1.510773	0.000179
 471	4.6765e+01	18.7118	129.592057	0.000486	4.864436	1.648116	0.000195
 472	4.6864e+01	18.7631	129.753543	0.000405	4.053697	1.373430	0.000162
 473	4.6964e+01	18.8000	129.983659	0.000578	5.776518	1.957137	0.000231
 474	4.7063e+01	18.8305	130.149182	0.000416	4.155039	1.407765	0.000166
 475	4.7163e+01	18.8818	130.302593	0.000385	3.851012	1.304758	0.000154
 476	4.7263e+01	18.9091	130.528673	0.000568	5.675175	1.922802	0.000227
 477	4.7362e+01	18.9572	130.710344	0.000456	4.560409	1.545108	0.000183
 478	4.7462e+01	19.0005	130.912201	0.000507	5.067121	1.716787	0.000203
 479	4.7561e+01	19.0294	131.069649	0.000395	3.952354	1.339094	0.000158
 480	4.7660e+01	19.0791	131.303803	0.000588	5.877860	1.991473	0.000235
 481	4.7760e+01	19.1160	131.469325	0.000416	4.155039	1.407765	0.000166
 482	4.7859e+01	19.1610	131.642922	0.000436	4.357724	1.476437	0.000174
 483	4.7959e+01	19.1946	131.840742	0.000497	4.965779	1.682451	0.000199
 484	4.8059e+01	19.2396	132.046636	0.000517	5.168463	1.751123	0.000207
 485	4.8158e+01	19.2749	132.200047	0.000385	3.851012	1.304758	0.000154
 486	4.8258e+01	19.3230	132.365569	0.000416	4.155039	1.407765	0.000166
 487	4.8357e+01	19.3583	132.587612	0.000557	5.573833	1.888466	0.000223
 488	4.8456e+01	19.4048	132.753134	0.000416	4.155039	1.407765	0.000166
 489	4.8556e+01	19.4433	132.967103	0.000537	5.371148	1.819794	0.000215
 490	4.8656e+01	19.4882	133.132625	0.000416	4.155039	1.407765	0.000166
 491	4.8755e+01	19.5171	133.326408	0.000486	4.864436	1.648116	0.000195
 492	4.8855e+01	19.5556	133.463670	0.000345	3.445642	1.167415	0.000138
 493	4.8954e+01	19.5973	133.701861	0.000598	5.979203	2.025809	0.000239
 494	4.9053e+01	19.6358	133.863347	0.000405	4.053697	1.373430	0.000162
 495	4.9153e+01	19.6743	134.073278	0.000527	5.269806	1.785459	0.000211
 496	4.9252e+01	19.7208	134.234763	0.000405	4.053697	1.373430	0.000162
 497	4.9352e+01	19.7561	134.440657	0.000517	5.168463	1.751123	0.000207
 498	4.9452e+01	19.8010	134.610217	0.000426	4.256382	1.442101	0.000170
 499	4.9551e+01	19.8395	134.803999	0.000486	4.864436	1.648116	0.000195
 500	4.9651e+01	19.8764	134.985671	0.000456	4.560409	1.545108	0.000183
 501	4.9750e+01	19.9182	135.175416	0.000476	4.763094	1.613780	0.000191
 502	4.9849e+01	19.9438	135.312679	0.000345	3.445642	1.167415	0.000138
 503	4.9949e+01	20.0000	135.534721	0.000557	5.573833	1.888466	0.000223
 504	5.0048e+01	19.9486	135.425718	0.000274	2.736245	0.927065	-0.000110
 505	5.0148e+01	19.9085	135.324790	0.000253	2.533560	0.858394	-0.000101
 506	5.0248e+01	19.8797	135.175416	0.000375	3.749670	1.270422	-0.000150
 507	5.0347e+01	19.8347	135.054302	0.000304	3.040273	1.030072	-0.000122
 508	5.0447e+01	19.7978	134.917039	0.000345	3.445642	1.167415	-0.000138
 509	5.0546e+01	19.7513	134.820148	0.000243	2.432218	0.824058	-0.000097
 510	5.0645e+01	19.7112	134.682885	0.000345	3.445642	1.167415	-0.000138
 511	5.0745e+01	19.6759	134.553697	0.000324	3.242957	1.098744	-0.000130
 512	5.0844e+01	19.6294	134.408360	0.000365	3.648327	1.236087	-0.000146
 513	5.0944e+01	19.5941	134.295320	0.000284	2.837588	0.961401	-0.000114
 514	5.1044e+01	19.5476	134.162095	0.000334	3.344300	1.133079	-0.000134
 515	5.1143e+01	19.5171	134.032907	0.000324	3.242957	1.098744	-0.000130
 516	5.1242e+01	19.4690	133.895644	0.000345	3.445642	1.167415	-0.000138
 517	5.1342e+01	19.4337	133.766456	0.000324	3.242957	1.098744	-0.000130
 518	5.1441e+01	19.3952	133.584784	0.000456	4.560409	1.545108	-0.000183
 519	5.1541e+01	19.3583	133.471745	0.000284	2.837588	0.961401	-0.000114
 520	5.1641e+01	19.3118	133.314296	0.000395	3.952354	1.339094	-0.000158
 521	5.1740e+01	19.2733	133.185108	0.000324	3.242957	1.098744	-0.000130
 522	5.1840e+01	19.2412	133.076105	0.000274	2.736245	0.927065	-0.000110
 523	5.1939e+01	19.2027	132.938843	0.000345	3.445642	1.167415	-0.000138
 524	5.2038e+01	19.1594	132.777357	0.000405	4.053697	1.373430	-0.000162
 525	5.2138e+01	19.1257	132.627983	0.000375	3.749670	1.270422	-0.000150
 526	5.2237e+01	19.0840	132.494758	0.000334	3.344300	1.133079	-0.000134
 527	5.2337e+01	19.0535	132.337309	0.000395	3.952354	1.339094	-0.000158
 528	5.2437e+01	19.0037	132.216195	0.000304	3.040273	1.030072	-0.000122
 529	5.2536e+01	18.9540	132.066821	0.000375	3.749670	1.270422	-0.000150
 530	5.2636e+01	18.9283	131.909373	0.000395	3.952354	1.339094	-0.000158
 531	5.2735e+01	18.8738	131.784222	0.000314	3.141615	1.064408	-0.000126
 532	5.2834e+01	18.8417	131.638885	0.000365	3.648327	1.236087	-0.000146
 533	5.2934e+01	18.7984	131.469325	0.000426	4.256382	1.442101	-0.000170
 534	5.3033e+01	18.7727	131.360323	0.000274	2.736245	0.927065	-0.000110
 535	5.3133e+01	18.7278	131.198837	0.000405	4.053697	1.373430	-0.000162
 536	5.3233e+01	18.6909	131.037352	0.000405	4.053697	1.373430	-0.000162
 537	5.3332e+01	18.6396	130.908163	0.000324	3.242957	1.098744	-0.000130
 538	5.3431e+01	18.5963	130.730529	0.000446	4.459066	1.510773	-0.000179
 539	5.3531e+01	18.5626	130.609415	0.000304	3.040273	1.030072	-0.000122
 540	5.3630e+01	18.5225	130.468116	0.000355	3.546985	1.201751	-0.000142
 541	5.3730e+01	18.4776	130.298556	0.000426	4.256382	1.442101	-0.000170
 542	5.3830e+01	18.4455	130.153219	0.000365	3.648327	1.236087	-0.000146
 543	5.3929e+01	18.4006	130.036142	0.000294	2.938930	0.995736	-0.000118
 544	5.4029e+01	18.3604	129.866582	0.000426	4.256382	1.442101	-0.000170
 545	5.4128e+01	18.3187	129.701060	0.000416	4.155039	1.407765	-0.000166
 546	5.4227e+01	18.2850	129.555723	0.000365	3.648327	1.236087	-0.000146
 547	5.4327e+01	18.2401	129.398275	0.000395	3.952354	1.339094	-0.000158
 548	5.4426e+01	18.2000	129.289272	0.000274	2.736245	0.927065	-0.000110
 549	5.4526e+01	18.1663	129.091452	0.000497	4.965779	1.682451	-0.000199
 550	5.4626e+01	18.1230	128.974375	0.000294	2.938930	0.995736	-0.000118
 551	5.4725e+01	18.0797	128.804816	0.000426	4.256382	1.442101	-0.000170
 552	5.4825e+01	18.0444	128.627182	0.000446	4.459066	1.510773	-0.000179
 553	5.4924e+01	17.9931	128.526253	0.000253	2.533560	0.858394	-0.000101
 554	5.5023e+01	17.9754	128.360731	0.000416	4.155039	1.407765	-0.000166
 555	5.5123e+01	17.9209	128.195208	0.000416	4.155039	1.407765	-0.000166
 556	5.5222e+01	17.8888	128.057946	0.000345	3.445642	1.167415	-0.000138
 557	5.5322e+01	17.8375	127.900497	0.000395	3.952354	1.339094	-0.000158
 558	5.5422e+01	17.7974	127.734975	0.000416	4.155039	1.407765	-0.000166
 559	5.5521e+01	17.7605	127.601749	0.000334	3.344300	1.133079	-0.000134
 560	5.5620e+01	17.7236	127.472561	0.000324	3.242957	1.098744	-0.000130
 561	5.5720e+01	17.6851	127.303001	0.000426	4.256382	1.442101	-0.000170
 562	5.5819e+01	17.6450	127.101144	0.000507	5.067121	1.716787	-0.000203
 563	5.5919e+01	17.6097	126.955808	0.000365	3.648327	1.236087	-0.000146
 564	5.6019e+01	17.5631	126.778174	0.000446	4.459066	1.510773	-0.000179
 565	5.6118e+01	17.5327	126.644948	0.000334	3.344300	1.133079	-0.000134
 566	5.6218e+01	17.4813	126.487500	0.000395	3.952354	1.339094	-0.000158
 567	5.6317e+01	17.4428	126.338126	0.000375	3.749670	1.270422	-0.000150
 568	5.6416e+01	17.4091	126.168566	0.000426	4.256382	1.442101	-0.000170
 569	5.6516e+01	17.3562	126.023229	0.000365	3.648327	1.236087	-0.000146
 570	5.6615e+01	17.3257	125.845595	0.000446	4.459066	1.510773	-0.000179
 571	5.6715e+01	17.2808	125.700258	0.000365	3.648327	1.236087	-0.000146
 572	5.6815e+01	17.2471	125.522624	0.000446	4.459066	1.510773	-0.000179
 573	5.6914e+01	17.2182	125.361139	0.000405	4.053697	1.373430	-0.000162
 574	5.7014e+01	17.1685	125.235988	0.000314	3.141615	1.064408	-0.000126
 575	5.7113e+01	17.1348	125.070465	0.000416	4.155039	1.407765	-0.000166
 576	5.7212e+01	17.0947	124.917054	0.000385	3.851012	1.304758	-0.000154
 577	5.7312e+01	17.0450	124.723271	0.000486	4.864436	1.648116	-0.000195
 578	5.7411e+01	17.0113	124.590046	0.000334	3.344300	1.133079	-0.000134
 579	5.7511e+01	16.9648	124.420486	0.000426	4.256382	1.442101	-0.000170
 580	5.7611e+01	16.9391	124.254964	0.000416	4.155039	1.407765	-0.000166
 581	5.7710e+01	16.8942	124.133850	0.000304	3.040273	1.030072	-0.000122
 582	5.7809e+01	16.8380	123.952179	0.000456	4.560409	1.545108	-0.000183
 583	5.7909e+01	16.8059	123.806842	0.000365	3.648327	1.236087	-0.000146
 584	5.8008e+01	16.7642	123.604985	0.000507	5.067121	1.716787	-0.000203
 585	5.8108e+01	16.7209	123.459648	0.000365	3.648327	1.236087	-0.000146
 586	5.8208e+01	16.6824	123.282014	0.000446	4.459066	1.510773	-0.000179
 587	5.8307e+01	16.6423	123.124566	0.000395	3.952354	1.339094	-0.000158
 588	5.8407e+01	16.6150	122.983266	0.000355	3.546985	1.201751	-0.000142
 589	5.8506e+01	16.5717	122.801595	0.000456	4.560409	1.545108	-0.000183
 590	5.8605e+01	16.5300	122.623961	0.000446	4.459066	1.510773	-0.000179
 591	5.8705e+01	16.4835	122.454401	0.000426	4.256382	1.442101	-0.000170
 592	5.8804e+01	16.4482	122.272730	0.000456	4.560409	1.545108	-0.000183
 593	5.8904e+01	16.4081	122.131430	0.000355	3.546985	1.201751	-0.000142
 594	5.9004e+01	16.3680	121.961871	0.000426	4.256382	1.442101	-0.000170
 595	5.9103e+01	16.3263	121.780200	0.000456	4.560409	1.545108	-0.000183
 596	5.9203e+01	16.2846	121.638900	0.000355	3.546985	1.201751	-0.000142
 597	5.9302e+01	16.2493	121.477414	0.000405	4.053697	1.373430	-0.000162
 598	5.9401e+01	16.2092	121.271520	0.000517	5.168463	1.751123	-0.000207
 599	5.9501e+01	16.1723	121.146369	0.000314	3.141615	1.064408	-0.000126
 600	5.9600e+01	16.1290	120.968735	0.000446	4.459066	1.510773	-0.000179
 601	5.9700e+01	16.0905	120.803213	0.000416	4.155039	1.407765	-0.000166
 602	5.9800e+01	16.0520	120.617504	0.000466	4.661751	1.579444	-0.000187
 603	5.9899e+01	16.0038	120.447945	0.000426	4.256382	1.442101	-0.000170
 604	5.9998e+01	15.9701	120.262237	0.000466	4.661751	1.579444	-0.000187
 605	6.0098e+01	15.9381	120.124974	0.000345	3.445642	1.167415	-0.000138
 606	6.0197e+01	15.8883	119.902931	0.000557	5.573833	1.888466	-0.000223
 607	6.0297e+01	15.8659	119.793929	0.000274	2.736245	0.927065	-0.000110
 608	6.0397e+01	15.8097	119.571886	0.000557	5.573833	1.888466	-0.000223
 609	6.0496e+01	15.7728	119.462884	0.000274	2.736245	0.927065	-0.000110
 610	6.0596e+01	15.7327	119.232767	0.000578	5.776518	1.957137	-0.000231
 611	6.0695e+01	15.6846	119.063207	0.000426	4.256382	1.442101	-0.000170
 612	6.0794e+01	15.6493	118.873462	0.000476	4.763094	1.613780	-0.000191
 613	6.0894e+01	15.6092	118.728125	0.000365	3.648327	1.236087	-0.000146
 614	6.0993e+01	15.5675	118.554528	0.000436	4.357724	1.476437	-0.000174
 615	6.1093e+01	15.5290	118.372857	0.000456	4.560409	1.545108	-0.000183
 616	6.1193e+01	15.4969	118.223483	0.000375	3.749670	1.270422	-0.000150
 617	6.1292e+01	15.4472	118.037775	0.000466	4.661751	1.579444	-0.000187
 618	6.1392e+01	15.4103	117.856104	0.000456	4.560409	1.545108	-0.000183
 619	6.1491e+01	15.3782	117.702692	0.000385	3.851012	1.304758	-0.000154
 620	6.1590e+01	15.3349	117.537170	0.000416	4.155039	1.407765	-0.000166
 621	6.1690e+01	15.2964	117.363573	0.000436	4.357724	1.476437	-0.000174
 622	6.1789e+01	15.2546	117.137493	0.000568	5.675175	1.922802	-0.000227
 623	6.1889e+01	15.2097	116.976008	0.000405	4.053697	1.373430	-0.000162
 624	6.1989e+01	15.1648	116.806448	0.000426	4.256382	1.442101	-0.000170
 625	6.2088e+01	15.1279	116.600554	0.000517	5.168463	1.751123	-0.000207
 626	6.2188e+01	15.0782	116.443106	0.000395	3.952354	1.339094	-0.000158
 627	6.2287e+01	15.0573	116.301806	0.000355	3.546985	1.201751	-0.000142
 628	6.2386e+01	15.0060	116.095912	0.000517	5.168463	1.751123	-0.000207
 629	6.2486e+01	14.9691	115.914241	0.000456	4.560409	1.545108	-0.000183
 630	6.2586e+01	14.9434	115.720459	0.000486	4.864436	1.648116	-0.000195
 631	6.2685e+01	14.9001	115.538788	0.000456	4.560409	1.545108	-0.000183
 632	6.2785e+01	14.8600	115.365191	0.000436	4.357724	1.476437	-0.000174
 633	6.2884e+01	14.8151	115.187557	0.000446	4.459066	1.510773	-0.000179
 634	6.2983e+01	14.7718	115.017997	0.000426	4.256382	1.442101	-0.000170
 635	6.3083e+01	14.7253	114.860549	0.000395	3.952354	1.339094	-0.000158
 636	6.3182e+01	14.7028	114.682915	0.000446	4.459066	1.510773	-0.000179
 637	6.3282e+01	14.6595	114.472984	0.000527	5.269806	1.785459	-0.000211
 638	6.3382e+01	14.6210	114.311498	0.000405	4.053697	1.373430	-0.000162
 639	6.3481e+01	14.5696	114.117716	0.000486	4.864436	1.648116	-0.000195
 640	6.3581e+01	14.5376	113.936045	0.000456	4.560409	1.545108	-0.000183
 641	6.3680e+01	14.4991	113.734188	0.000507	5.067121	1.716787	-0.000203
 642	6.3779e+01	14.4573	113.564628	0.000426	4.256382	1.442101	-0.000170
 643	6.3879e+01	14.4221	113.407180	0.000395	3.952354	1.339094	-0.000158
 644	6.3978e+01	14.3739	113.213398	0.000486	4.864436	1.648116	-0.000195
 645	6.4078e+01	14.3418	113.047875	0.000416	4.155039	1.407765	-0.000166
 646	6.4177e+01	14.2905	112.866204	0.000456	4.560409	1.545108	-0.000183
 647	6.4277e+01	14.2552	112.696644	0.000426	4.256382	1.442101	-0.000170
 648	6.4376e+01	14.2103	112.490750	0.000517	5.168463	1.751123	-0.000207
 649	6.4476e+01	14.1782	112.309079	0.000456	4.560409	1.545108	-0.000183
 650	6.4576e+01	14.1461	112.127408	0.000456	4.560409	1.545108	-0.000183
 651	6.4675e+01	14.0900	111.901328	0.000568	5.675175	1.922802	-0.000227
 652	6.4775e+01	14.0515	111.743880	0.000395	3.952354	1.339094	-0.000158
 653	6.4874e+01	14.0146	111.554135	0.000476	4.763094	1.613780	-0.000191
 654	6.4974e+01	13.9841	111.388612	0.000416	4.155039	1.407765	-0.000166
 655	6.5073e+01	13.9424	111.202904	0.000466	4.661751	1.579444	-0.000187
 656	6.5172e+01	13.8878	111.017196	0.000466	4.661751	1.579444	-0.000187
 657	6.5272e+01	13.8477	110.843599	0.000436	4.357724	1.476437	-0.000174
 658	6.5371e+01	13.8173	110.633668	0.000527	5.269806	1.785459	-0.000211
 659	6.5471e+01	13.7884	110.451997	0.000456	4.560409	1.545108	-0.000183
 660	6.5570e+01	13.7338	110.266288	0.000466	4.661751	1.579444	-0.000187
 661	6.5670e+01	13.6937	110.096729	0.000426	4.256382	1.442101	-0.000170
 662	6.5769e+01	13.6616	109.890835	0.000517	5.168463	1.751123	-0.000207
 663	6.5869e+01	13.6231	109.717238	0.000436	4.357724	1.476437	-0.000174
 664	6.5969e+01	13.5782	109.523455	0.000486	4.864436	1.648116	-0.000195
 665	6.6068e+01	13.5381	109.361970	0.000405	4.053697	1.373430	-0.000162
 666	6.6168e+01	13.4948	109.107630	0.000638	6.384572	2.163152	-0.000256
 667	6.6267e+01	13.4611	108.986516	0.000304	3.040273	1.030072	-0.000122
 668	6.6367e+01	13.4226	108.792734	0.000486	4.864436	1.648116	-0.000195
 669	6.6466e+01	13.3793	108.558580	0.000588	5.877860	1.991473	-0.000235
 670	6.6566e+01	13.3376	108.389020	0.000426	4.256382	1.442101	-0.000170
 671	6.6665e+01	13.2991	108.207349	0.000456	4.560409	1.545108	-0.000183
 672	6.6764e+01	13.2574	108.017604	0.000476	4.763094	1.613780	-0.000191
 673	6.6864e+01	13.2157	107.852081	0.000416	4.155039	1.407765	-0.000166
 674	6.6963e+01	13.1804	107.650224	0.000507	5.067121	1.716787	-0.000203
 675	6.7063e+01	13.1403	107.432219	0.000547	5.472491	1.854130	-0.000219
 676	6.7162e+01	13.0970	107.258622	0.000436	4.357724	1.476437	-0.000174
 677	6.7262e+01	13.0681	107.080988	0.000446	4.459066	1.510773	-0.000179
 678	6.7362e+01	13.0232	106.887206	0.000486	4.864436	1.648116	-0.000195
 679	6.7461e+01	12.9782	106.705535	0.000456	4.560409	1.545108	-0.000183
 680	6.7561e+01	12.9413	106.531938	0.000436	4.357724	1.476437	-0.000174
 681	6.7660e+01	12.9077	106.326044	0.000517	5.168463	1.751123	-0.000207
 682	6.7760e+01	12.8724	106.168596	0.000395	3.952354	1.339094	-0.000158
 683	6.7859e+01	12.8226	105.994999	0.000436	4.357724	1.476437	-0.000174
 684	6.7959e+01	12.7841	105.793142	0.000507	5.067121	1.716787	-0.000203
 685	6.8058e+01	12.7456	105.591285	0.000507	5.067121	1.716787	-0.000203
 686	6.8157e+01	12.7007	105.397503	0.000486	4.864436	1.648116	-0.000195
 687	6.8257e+01	12.6654	105.215832	0.000456	4.560409	1.545108	-0.000183
 688	6.8356e+01	12.6189	105.005901	0.000527	5.269806	1.785459	-0.000211
 689	6.8456e+01	12.5852	104.872675	0.000334	3.344300	1.133079	-0.000134
 690	6.8555e+01	12.5531	104.662744	0.000527	5.269806	1.785459	-0.000211
 691	6.8655e+01	12.5082	104.440702	0.000557	5.573833	1.888466	-0.000223
 692	6.8754e+01	12.4617	104.250956	0.000476	4.763094	1.613780	-0.000191
 693	6.8854e+01	12.4184	104.085434	0.000416	4.155039	1.407765	-0.000166
 694	6.8954e+01	12.3847	103.831094	0.000638	6.384572	2.163152	-0.000256
 695	6.9053e+01	12.3446	103.677683	0.000385	3.851012	1.304758	-0.000154
 696	6.9153e+01	12.3045	103.471789	0.000517	5.168463	1.751123	-0.000207
 697	6.9252e+01	12.2595	103.306266	0.000416	4.155039	1.407765	-0.000166
 698	6.9352e+01	12.2275	103.116521	0.000476	4.763094	1.613780	-0.000191
 699	6.9451e+01	12.1841	102.934850	0.000456	4.560409	1.545108	-0.000183
 700	6.9550e+01	12.1473	102.700696	0.000588	5.877860	1.991473	-0.000235
 701	6.9650e+01	12.1023	102.506914	0.000486	4.864436	1.648116	-0.000195
 702	6.9749e+01	12.0606	102.349465	0.000395	3.952354	1.339094	-0.000158
 703	6.9849e+01	12.0285	102.187980	0.000405	4.053697	1.373430	-0.000162
 704	6.9948e+01	11.9884	101.949789	0.000598	5.979203	2.025809	-0.000239
 705	7.0048e+01	11.9483	101.751969	0.000497	4.965779	1.682451	-0.000199
 706	7.0147e+01	11.9098	101.538001	0.000537	5.371148	1.819794	-0.000215
 707	7.0247e+01	11.8681	101.388627	0.000375	3.749670	1.270422	-0.000150
 708	7.0347e+01	11.8232	101.190807	0.000497	4.965779	1.682451	-0.000199
 709	7.0446e+01	11.7895	100.992988	0.000497	4.965779	1.682451	-0.000199
 710	7.0546e+01	11.7478	100.783057	0.000527	5.269806	1.785459	-0.000211
 711	7.0645e+01	11.7109	100.605423	0.000446	4.459066	1.510773	-0.000179
 712	7.0745e+01	11.6596	100.431826	0.000436	4.357724	1.476437	-0.000174
 713	7.0844e+01	11.6275	100.221895	0.000527	5.269806	1.785459	-0.000211
 714	7.0944e+01	11.5890	100.040224	0.000456	4.560409	1.545108	-0.000183
 715	7.1043e+01	11.5441	99.822218	0.000547	5.472491	1.854130	-0.000219
 716	7.1142e+01	11.5184	99.592102	0.000578	5.776518	1.957137	-0.000231
 717	7.1242e+01	11.4735	99.434653	0.000395	3.952354	1.339094	-0.000158
 718	7.1341e+01	11.4270	99.240871	0.000486	4.864436	1.648116	-0.000195
 719	7.1441e+01	11.3933	99.063237	0.000446	4.459066	1.510773	-0.000179
 720	7.1540e+01	11.3467	98.865417	0.000497	4.965779	1.682451	-0.000199
 721	7.1640e+01	11.3179	98.659523	0.000517	5.168463	1.751123	-0.000207
 722	7.1740e+01	11.2745	98.465741	0.000486	4.864436	1.648116	-0.000195
 723	7.1839e+01	11.2168	98.267921	0.000497	4.965779	1.682451	-0.000199
 724	7.1939e+01	11.1927	98.049916	0.000547	5.472491	1.854130	-0.000219
 725	7.2038e+01	11.1526	97.852096	0.000497	4.965779	1.682451	-0.000199
 726	7.2138e+01	11.1061	97.678499	0.000436	4.357724	1.476437	-0.000174
 727	7.2237e+01	11.0708	97.452420	0.000568	5.675175	1.922802	-0.000227
 728	7.2337e+01	11.0291	97.242489	0.000527	5.269806	1.785459	-0.000211
 729	7.2436e+01	10.9922	97.081003	0.000405	4.053697	1.373430	-0.000162
 730	7.2535e+01	10.9585	96.854923	0.000568	5.675175	1.922802	-0.000227
 731	7.2635e+01	10.9120	96.657104	0.000497	4.965779	1.682451	-0.000199
 732	7.2734e+01	10.8751	96.459284	0.000497	4.965779	1.682451	-0.000199
 733	7.2834e+01	10.8350	96.233205	0.000568	5.675175	1.922802	-0.000227
 734	7.2933e+01	10.7933	96.059608	0.000436	4.357724	1.476437	-0.000174
 735	7.3033e+01	10.7516	95.849677	0.000527	5.269806	1.785459	-0.000211
 736	7.3132e+01	10.7115	95.663968	0.000466	4.661751	1.579444	-0.000187
 737	7.3232e+01	10.6681	95.474223	0.000476	4.763094	1.613780	-0.000191
 738	7.3332e+01	10.6393	95.260255	0.000537	5.371148	1.819794	-0.000215
 739	7.3431e+01	10.6024	95.058398	0.000507	5.067121	1.716787	-0.000203
 740	7.3531e+01	10.5542	94.884801	0.000436	4.357724	1.476437	-0.000174
 741	7.3630e+01	10.5125	94.642573	0.000608	6.080545	2.060144	-0.000243
 742	7.3730e+01	10.4708	94.440716	0.000507	5.067121	1.716787	-0.000203
 743	7.3829e+01	10.4355	94.198488	0.000608	6.080545	2.060144	-0.000243
 744	7.3928e+01	10.3906	94.008743	0.000476	4.763094	1.613780	-0.000191
 745	7.4028e+01	10.3537	93.843220	0.000416	4.155039	1.407765	-0.000166
 746	7.4127e+01	10.3248	93.637326	0.000517	5.168463	1.751123	-0.000207
 747	7.4227e+01	10.2703	93.407210	0.000578	5.776518	1.957137	-0.000231
 748	7.4326e+01	10.2350	93.160944	0.000618	6.181888	2.094480	-0.000248
 749	7.4426e+01	10.1901	93.011570	0.000375	3.749670	1.270422	-0.000150
 750	7.4525e+01	10.1500	92.825862	0.000466	4.661751	1.579444	-0.000187
 751	7.4625e+01	10.1179	92.619968	0.000517	5.168463	1.751123	-0.000207
 752	7.4725e+01	10.0746	92.381777	0.000598	5.979203	2.025809	-0.000239
 753	7.4824e+01	10.0297	92.187995	0.000486	4.864436	1.648116	-0.000195
 754	7.4924e+01	9.9912	91.990175	0.000497	4.965779	1.682451	-0.000199
 755	7.5023e+01	9.9591	91.760058	0.000578	5.776518	1.957137	-0.000231
 756	7.5123e+01	9.9190	91.542053	0.000547	5.472491	1.854130	-0.000219
 757	7.5222e+01	9.8789	91.368456	0.000436	4.357724	1.476437	-0.000174
 758	7.5322e+01	9.8356	91.110079	0.000649	6.485915	2.197487	-0.000260
 759	7.5421e+01	9.7954	90.940520	0.000426	4.256382	1.442101	-0.000170
 760	7.5520e+01	9.7553	90.718477	0.000557	5.573833	1.888466	-0.000223
 761	7.5620e+01	9.7168	90.508546	0.000527	5.269806	1.785459	-0.000211
 762	7.5719e+01	9.6799	90.250169	0.000649	6.485915	2.197487	-0.000260
 763	7.5819e+01	9.6382	90.068498	0.000456	4.560409	1.545108	-0.000183
 764	7.5918e+01	9.6045	89.858567	0.000527	5.269806	1.785459	-0.000211
 765	7.6018e+01	9.5532	89.648636	0.000527	5.269806	1.785459	-0.000211
 766	7.6118e+01	9.5163	89.418519	0.000578	5.776518	1.957137	-0.000231
 767	7.6217e+01	9.4746	89.196477	0.000557	5.573833	1.888466	-0.000223
 768	7.6317e+01	9.4297	89.010769	0.000466	4.661751	1.579444	-0.000187
 769	7.6416e+01	9.3896	88.804875	0.000517	5.168463	1.751123	-0.000207
 770	7.6516e+01	9.3623	88.554572	0.000628	6.283230	2.128816	-0.000252
 771	7.6615e+01	9.3094	88.348678	0.000517	5.168463	1.751123	-0.000207
 772	7.6715e+01	9.2693	88.118562	0.000578	5.776518	1.957137	-0.000231
 773	7.6814e+01	9.2356	87.908631	0.000527	5.269806	1.785459	-0.000211
 774	7.6913e+01	9.2035	87.686588	0.000557	5.573833	1.888466	-0.000223
 775	7.7013e+01	9.1570	87.484731	0.000507	5.067121	1.716787	-0.000203
 776	7.7112e+01	9.1201	87.242503	0.000608	6.080545	2.060144	-0.000243
 777	7.7212e+01	9.0800	87.012387	0.000578	5.776518	1.957137	-0.000231
 778	7.7311e+01	9.0415	86.802456	0.000527	5.269806	1.785459	-0.000211
 779	7.7411e+01	8.9933	86.636933	0.000416	4.155039	1.407765	-0.000166
 780	7.7510e+01	8.9612	86.358371	0.000699	6.992627	2.369166	-0.000280
 781	7.7610e+01	8.9227	86.144402	0.000537	5.371148	1.819794	-0.000215
 782	7.7710e+01	8.8762	85.962731	0.000456	4.560409	1.545108	-0.000183
 783	7.7809e+01	8.8425	85.728577	0.000588	5.877860	1.991473	-0.000235
 784	7.7909e+01	8.7960	85.538832	0.000476	4.763094	1.613780	-0.000191
 785	7.8008e+01	8.7543	85.260270	0.000699	6.992627	2.369166	-0.000280
 786	7.8108e+01	8.7190	85.070524	0.000476	4.763094	1.613780	-0.000191
 787	7.8207e+01	8.6709	84.828296	0.000608	6.080545	2.060144	-0.000243
 788	7.8306e+01	8.6340	84.614328	0.000537	5.371148	1.819794	-0.000215
 789	7.8406e+01	8.5987	84.368063	0.000618	6.181888	2.094480	-0.000248
 790	7.8505e+01	8.5618	84.166206	0.000507	5.067121	1.716787	-0.000203
 791	7.8605e+01	8.5249	83.944163	0.000557	5.573833	1.888466	-0.000223
 792	7.8704e+01	8.4800	83.718084	0.000568	5.675175	1.922802	-0.000227
 793	7.8804e+01	8.4286	83.504116	0.000537	5.371148	1.819794	-0.000215
 794	7.8903e+01	8.3950	83.261887	0.000608	6.080545	2.060144	-0.000243
 795	7.9003e+01	8.3564	83.055994	0.000517	5.168463	1.751123	-0.000207
 796	7.9103e+01	8.3292	82.817803	0.000598	5.979203	2.025809	-0.000239
 797	7.9202e+01	8.2778	82.583649	0.000588	5.877860	1.991473	-0.000235
 798	7.9302e+01	8.2345	82.305086	0.000699	6.992627	2.369166	-0.000280
 799	7.9401e+01	8.2024	82.115341	0.000476	4.763094	1.613780	-0.000191
 800	7.9501e+01	8.1655	81.893298	0.000557	5.573833	1.888466	-0.000223
 801	7.9600e+01	8.1190	81.683367	0.000527	5.269806	1.785459	-0.000211
 802	7.9700e+01	8.0741	81.437102	0.000618	6.181888	2.094480	-0.000248
 803	7.9799e+01	8.0372	81.186800	0.000628	6.283230	2.128816	-0.000252
 804	7.9898e+01	7.9939	80.956683	0.000578	5.776518	1.957137	-0.000231
 805	7.9998e+01	7.9602	80.734640	0.000557	5.573833	1.888466	-0.000223
 806	8.0097e+01	7.9249	80.472227	0.000659	6.587257	2.231823	-0.000264
 807	8.0197e+01	7.8912	80.306704	0.000416	4.155039	1.407765	-0.000166
 808	8.0296e+01	7.8511	80.044290	0.000659	6.587257	2.231823	-0.000264
 809	8.0396e+01	7.8030	79.826285	0.000547	5.472491	1.854130	-0.000219
 810	8.0496e+01	7.7629	79.596168	0.000578	5.776518	1.957137	-0.000231
 811	8.0595e+01	7.7260	79.345866	0.000628	6.283230	2.128816	-0.000252
 812	8.0695e+01	7.6859	79.083452	0.000659	6.587257	2.231823	-0.000264
 813	8.0794e+01	7.6442	78.893707	0.000476	4.763094	1.613780	-0.000191
 814	8.0894e+01	7.6041	78.651478	0.000608	6.080545	2.060144	-0.000243
 815	8.0993e+01	7.5575	78.413287	0.000598	5.979203	2.025809	-0.000239
 816	8.1093e+01	7.5222	78.187208	0.000568	5.675175	1.922802	-0.000227
 817	8.1192e+01	7.4805	77.977277	0.000527	5.269806	1.785459	-0.000211
 818	8.1291e+01	7.4404	77.702752	0.000689	6.891285	2.334830	-0.000276
 819	8.1391e+01	7.4132	77.488783	0.000537	5.371148	1.819794	-0.000215
 820	8.1490e+01	7.3618	77.226370	0.000659	6.587257	2.231823	-0.000264
 821	8.1590e+01	7.3346	77.024513	0.000507	5.067121	1.716787	-0.000203
 822	8.1689e+01	7.2816	76.774210	0.000628	6.283230	2.128816	-0.000252
 823	8.1789e+01	7.2479	76.568316	0.000517	5.168463	1.751123	-0.000207
 824	8.1888e+01	7.1998	76.293791	0.000689	6.891285	2.334830	-0.000276
 825	8.1988e+01	7.1613	76.075786	0.000547	5.472491	1.854130	-0.000219
 826	8.2088e+01	7.1196	75.853743	0.000557	5.573833	1.888466	-0.000223
 827	8.2187e+01	7.0811	75.607478	0.000618	6.181888	2.094480	-0.000248
 828	8.2287e+01	7.0490	75.353139	0.000638	6.384572	2.163152	-0.000256
 829	8.2386e+01	7.0009	75.127059	0.000568	5.675175	1.922802	-0.000227
 830	8.2486e+01	6.9640	74.896942	0.000578	5.776518	1.957137	-0.000231
 831	8.2585e+01	6.9303	74.638566	0.000649	6.485915	2.197487	-0.000260
 832	8.2684e+01	6.8870	74.420560	0.000547	5.472491	1.854130	-0.000219
 833	8.2784e+01	6.8517	74.154109	0.000669	6.688600	2.266159	-0.000268
 834	8.2883e+01	6.8052	73.875547	0.000699	6.992627	2.369166	-0.000280
 835	8.2983e+01	6.7699	73.697913	0.000446	4.459066	1.510773	-0.000179
 836	8.3082e+01	6.7233	73.411276	0.000720	7.195312	2.437838	-0.000288
 837	8.3182e+01	6.6880	73.177122	0.000588	5.877860	1.991473	-0.000235
 838	8.3281e+01	6.6431	72.967191	0.000527	5.269806	1.785459	-0.000211
 839	8.3381e+01	6.6062	72.720926	0.000618	6.181888	2.094480	-0.000248
 840	8.3481e+01	6.5645	72.498884	0.000557	5.573833	1.888466	-0.000223
 841	8.3580e+01	6.5292	72.208210	0.000730	7.296654	2.472173	-0.000292
 842	8.3680e+01	6.4891	71.974056	0.000588	5.877860	1.991473	-0.000235
 843	8.3779e+01	6.4490	71.727791	0.000618	6.181888	2.094480	-0.000248
 844	8.3879e+01	6.4137	71.529971	0.000497	4.965779	1.682451	-0.000199
 845	8.3978e+01	6.3640	71.299854	0.000578	5.776518	1.957137	-0.000231
 846	8.4078e+01	6.3335	71.069738	0.000578	5.776518	1.957137	-0.000231
 847	8.4177e+01	6.2902	70.795212	0.000689	6.891285	2.334830	-0.000276
 848	8.4276e+01	6.2581	70.552984	0.000608	6.080545	2.060144	-0.000243
 849	8.4376e+01	6.2100	70.330942	0.000557	5.573833	1.888466	-0.000223
 850	8.4475e+01	6.1795	70.068528	0.000659	6.587257	2.231823	-0.000264
 851	8.4575e+01	6.1298	69.826300	0.000608	6.080545	2.060144	-0.000243
 852	8.4674e+01	6.0881	69.592146	0.000588	5.877860	1.991473	-0.000235
 853	8.4774e+01	6.0464	69.362029	0.000578	5.776518	1.957137	-0.000231
 854	8.4874e+01	5.9998	69.099615	0.000659	6.587257	2.231823	-0.000264
 855	8.4973e+01	5.9726	68.853350	0.000618	6.181888	2.094480	-0.000248
 856	8.5073e+01	5.9292	68.586899	0.000669	6.688600	2.266159	-0.000268
 857	8.5172e+01	5.8907	68.340634	0.000618	6.181888	2.094480	-0.000248
 858	8.5272e+01	5.8571	68.114554	0.000568	5.675175	1.922802	-0.000227
 859	8.5371e+01	5.8057	67.852140	0.000659	6.587257	2.231823	-0.000264
 860	8.5471e+01	5.7817	67.658358	0.000486	4.864436	1.648116	-0.000195
 861	8.5570e+01	5.7351	67.375758	0.000709	7.093969	2.403502	-0.000284
 862	8.5669e+01	5.6934	67.145642	0.000578	5.776518	1.957137	-0.000231
 863	8.5769e+01	5.6597	66.895339	0.000628	6.283230	2.128816	-0.000252
 864	8.5868e+01	5.6148	66.628888	0.000669	6.688600	2.266159	-0.000268
 865	8.5968e+01	5.5683	66.410883	0.000547	5.472491	1.854130	-0.000219
 866	8.6067e+01	5.5330	66.136358	0.000689	6.891285	2.334830	-0.000276
 867	8.6167e+01	5.4929	65.906241	0.000578	5.776518	1.957137	-0.000231
 868	8.6266e+01	5.4496	65.643827	0.000659	6.587257	2.231823	-0.000264
 869	8.6366e+01	5.4159	65.397562	0.000618	6.181888	2.094480	-0.000248
 870	8.6466e+01	5.3630	65.151297	0.000618	6.181888	2.094480	-0.000248
 871	8.6565e+01	5.3277	64.876771	0.000689	6.891285	2.334830	-0.000276
 872	8.6665e+01	5.2940	64.646655	0.000578	5.776518	1.957137	-0.000231
 873	8.6764e+01	5.2571	64.416538	0.000578	5.776518	1.957137	-0.000231
 874	8.6864e+01	5.2138	64.170273	0.000618	6.181888	2.094480	-0.000248
 875	8.6963e+01	5.1817	63.891710	0.000699	6.992627	2.369166	-0.000280
 876	8.7063e+01	5.1351	63.665631	0.000568	5.675175	1.922802	-0.000227
 877	8.7162e+01	5.1015	63.403217	0.000659	6.587257	2.231823	-0.000264
 878	8.7261e+01	5.0517	63.140803	0.000659	6.587257	2.231823	-0.000264
 879	8.7361e+01	5.0148	62.870315	0.000679	6.789942	2.300495	-0.000272
 880	8.7460e+01	4.9699	62.587715	0.000709	7.093969	2.403502	-0.000284
 881	8.7560e+01	4.9378	62.393933	0.000486	4.864436	1.648116	-0.000195
 882	8.7659e+01	4.8945	62.163816	0.000578	5.776518	1.957137	-0.000231
 883	8.7759e+01	4.8464	61.913514	0.000628	6.283230	2.128816	-0.000252
 884	8.7859e+01	4.8223	61.618803	0.000740	7.397997	2.506509	-0.000296
 885	8.7958e+01	4.7694	61.376575	0.000608	6.080545	2.060144	-0.000243
 886	8.8058e+01	4.7325	61.134346	0.000608	6.080545	2.060144	-0.000243
 887	8.8157e+01	4.6908	60.867896	0.000669	6.688600	2.266159	-0.000268
 888	8.8257e+01	4.6539	60.617593	0.000628	6.283230	2.128816	-0.000252
 889	8.8356e+01	4.6282	60.339031	0.000699	6.992627	2.369166	-0.000280
 890	8.8456e+01	4.5801	60.108914	0.000578	5.776518	1.957137	-0.000231
 891	8.8555e+01	4.5287	59.854574	0.000638	6.384572	2.163152	-0.000256
 892	8.8654e+01	4.4951	59.616383	0.000598	5.979203	2.025809	-0.000239
 893	8.8754e+01	4.4598	59.321673	0.000740	7.397997	2.506509	-0.000296
 894	8.8853e+01	4.4165	59.055222	0.000669	6.688600	2.266159	-0.000268
 895	8.8953e+01	4.3763	58.804919	0.000628	6.283230	2.128816	-0.000252
 896	8.9052e+01	4.3346	58.566728	0.000598	5.979203	2.025809	-0.000239
 897	8.9152e+01	4.2993	58.324500	0.000608	6.080545	2.060144	-0.000243
 898	8.9251e+01	4.2641	58.041901	0.000709	7.093969	2.403502	-0.000284
 899	8.9351e+01	4.2223	57.840044	0.000507	5.067121	1.716787	-0.000203
 900	8.9451e+01	4.1758	57.533221	0.000770	7.702024	2.609516	-0.000308
 901	8.9550e+01	4.1309	57.295030	0.000598	5.979203	2.025809	-0.000239
 902	8.9650e+01	4.0924	56.984171	0.000780	7.803366	2.643852	-0.000312
 903	8.9749e+01	4.0587	56.733869	0.000628	6.283230	2.128816	-0.000252
 904	8.9849e+01	4.0154	56.491640	0.000608	6.080545	2.060144	-0.000243
 905	8.9948e+01	3.9817	56.233264	0.000649	6.485915	2.197487	-0.000260
 906	9.0047e+01	3.9352	55.930479	0.000760	7.600681	2.575181	-0.000304
 907	9.0147e+01	3.8999	55.659990	0.000679	6.789942	2.300495	-0.000272
 908	9.0246e+01	3.8598	55.425837	0.000588	5.877860	1.991473	-0.000235
 909	9.0346e+01	3.8133	55.175534	0.000628	6.283230	2.128816	-0.000252
 910	9.0445e+01	3.7748	54.905046	0.000679	6.789942	2.300495	-0.000272
 911	9.0545e+01	3.7427	54.654744	0.000628	6.283230	2.128816	-0.000252
 912	9.0644e+01	3.7074	54.347921	0.000770	7.702024	2.609516	-0.000308
 913	9.0744e+01	3.6544	54.097619	0.000628	6.283230	2.128816	-0.000252
 914	9.0844e+01	3.6143	53.863465	0.000588	5.877860	1.991473	-0.000235
 915	9.0943e+01	3.5823	53.588940	0.000689	6.891285	2.334830	-0.000276
 916	9.1043e+01	3.5405	53.302303	0.000720	7.195312	2.437838	-0.000288
 917	9.1142e+01	3.4924	53.060075	0.000608	6.080545	2.060144	-0.000243
 918	9.1242e+01	3.4523	52.757290	0.000760	7.600681	2.575181	-0.000304
 919	9.1341e+01	3.4250	52.506987	0.000628	6.283230	2.128816	-0.000252
 920	9.1441e+01	3.3801	52.204202	0.000760	7.600681	2.575181	-0.000304
 921	9.1540e+01	3.3496	51.929677	0.000689	6.891285	2.334830	-0.000276
 922	9.1639e+01	3.3015	51.695523	0.000588	5.877860	1.991473	-0.000235
 923	9.1739e+01	3.2662	51.437146	0.000649	6.485915	2.197487	-0.000260
 924	9.1838e+01	3.2181	51.170695	0.000669	6.688600	2.266159	-0.000268
 925	9.1938e+01	3.1892	50.920393	0.000628	6.283230	2.128816	-0.000252
 926	9.2037e+01	3.1411	50.621645	0.000750	7.499339	2.540845	-0.000300
 927	9.2137e+01	3.0946	50.314823	0.000770	7.702024	2.609516	-0.000308
 928	9.2237e+01	3.0609	50.072595	0.000608	6.080545	2.060144	-0.000243
 929	9.2336e+01	3.0176	49.761735	0.000780	7.803366	2.643852	-0.000312
 930	9.2436e+01	2.9742	49.491247	0.000679	6.789942	2.300495	-0.000272
 931	9.2535e+01	2.9470	49.261130	0.000578	5.776518	1.957137	-0.000231
 932	9.2635e+01	2.9021	48.958345	0.000760	7.600681	2.575181	-0.000304
 933	9.2734e+01	2.8636	48.655560	0.000760	7.600681	2.575181	-0.000304
 934	9.2834e+01	2.8218	48.381035	0.000689	6.891285	2.334830	-0.000276
 935	9.2933e+01	2.7849	48.134769	0.000618	6.181888	2.094480	-0.000248
 936	9.3032e+01	2.7432	47.900616	0.000588	5.877860	1.991473	-0.000235
 937	9.3132e+01	2.7063	47.581682	0.000801	8.006051	2.712524	-0.000321
 938	9.3231e+01	2.6614	47.307157	0.000689	6.891285	2.334830	-0.000276
 939	9.3331e+01	2.6293	47.036668	0.000679	6.789942	2.300495	-0.000272
 940	9.3430e+01	2.5844	46.733883	0.000760	7.600681	2.575181	-0.000304
 941	9.3530e+01	2.5459	46.487618	0.000618	6.181888	2.094480	-0.000248
 942	9.3629e+01	2.5026	46.180796	0.000770	7.702024	2.609516	-0.000308
 943	9.3729e+01	2.4561	45.914345	0.000669	6.688600	2.266159	-0.000268
 944	9.3829e+01	2.4320	45.599448	0.000790	7.904709	2.678188	-0.000316
 945	9.3928e+01	2.3871	45.365294	0.000588	5.877860	1.991473	-0.000235
 946	9.4028e+01	2.3486	45.066546	0.000750	7.499339	2.540845	-0.000300
 947	9.4127e+01	2.2941	44.779910	0.000720	7.195312	2.437838	-0.000288
 948	9.4227e+01	2.2636	44.485199	0.000740	7.397997	2.506509	-0.000296
 949	9.4326e+01	2.2283	44.202599	0.000709	7.093969	2.403502	-0.000284
 950	9.4425e+01	2.1769	43.924037	0.000699	6.992627	2.369166	-0.000280
 951	9.4525e+01	2.1465	43.649512	0.000689	6.891285	2.334830	-0.000276
 952	9.4624e+01	2.1096	43.383061	0.000669	6.688600	2.266159	-0.000268
 953	9.4724e+01	2.0630	43.120647	0.000659	6.587257	2.231823	-0.000264
 954	9.4823e+01	2.0197	42.834010	0.000720	7.195312	2.437838	-0.000288
 955	9.4923e+01	1.9860	42.543336	0.000730	7.296654	2.472173	-0.000292
 956	9.5022e+01	1.9427	42.256700	0.000720	7.195312	2.437838	-0.000288
 957	9.5122e+01	1.9042	41.957952	0.000750	7.499339	2.540845	-0.000300
 958	9.5222e+01	1.8593	41.671315	0.000720	7.195312	2.437838	-0.000288
 959	9.5321e+01	1.8272	41.368530	0.000760	7.600681	2.575181	-0.000304
 960	9.5421e+01	1.7807	41.106116	0.000659	6.587257	2.231823	-0.000264
 961	9.5520e+01	1.7454	40.787182	0.000801	8.006051	2.712524	-0.000321
 962	9.5620e+01	1.7021	40.516694	0.000679	6.789942	2.300495	-0.000272
 963	9.5719e+01	1.6620	40.213909	0.000760	7.600681	2.575181	-0.000304
 964	9.5819e+01	1.6283	39.943421	0.000679	6.789942	2.300495	-0.000272
 965	9.5918e+01	1.5850	39.604302	0.000851	8.512763	2.884202	-0.000341
 966	9.6017e+01	1.5465	39.341888	0.000659	6.587257	2.231823	-0.000264
 967	9.6117e+01	1.5144	39.039103	0.000760	7.600681	2.575181	-0.000304
 968	9.6216e+01	1.4711	38.788800	0.000628	6.283230	2.128816	-0.000252
 969	9.6316e+01	1.4278	38.469866	0.000801	8.006051	2.712524	-0.000321
 970	9.6415e+01	1.3828	38.159007	0.000780	7.803366	2.643852	-0.000312
 971	9.6515e+01	1.3411	37.908705	0.000628	6.283230	2.128816	-0.000252
 972	9.6615e+01	1.3091	37.622068	0.000720	7.195312	2.437838	-0.000288
 973	9.6714e+01	1.2770	37.315246	0.000770	7.702024	2.609516	-0.000308
 974	9.6814e+01	1.2160	37.028609	0.000720	7.195312	2.437838	-0.000288
 975	9.6913e+01	1.1935	36.762158	0.000669	6.688600	2.266159	-0.000268
 976	9.7013e+01	1.1486	36.439187	0.000811	8.107394	2.746859	-0.000325
 977	9.7112e+01	1.1037	36.140439	0.000750	7.499339	2.540845	-0.000300
 978	9.7212e+01	1.0620	35.821505	0.000801	8.006051	2.712524	-0.000321
 979	9.7311e+01	1.0347	35.571203	0.000628	6.283230	2.128816	-0.000252
 980	9.7410e+01	0.9946	35.276492	0.000740	7.397997	2.506509	-0.000296
 981	9.7510e+01	0.9577	34.957558	0.000801	8.006051	2.712524	-0.000321
 982	9.7609e+01	0.9096	34.674959	0.000709	7.093969	2.403502	-0.000284
 983	9.7709e+01	0.8647	34.396396	0.000699	6.992627	2.369166	-0.000280
 984	9.7808e+01	0.8342	34.105723	0.000730	7.296654	2.472173	-0.000292
 985	9.7908e+01	0.7813	33.762566	0.000861	8.614106	2.918538	-0.000345
 986	9.8007e+01	0.7588	33.500152	0.000659	6.587257	2.231823	-0.000264
 987	9.8107e+01	0.7010	33.213516	0.000720	7.195312	2.437838	-0.000288
 988	9.8207e+01	0.6706	32.886508	0.000821	8.208736	2.781195	-0.000329
 989	9.8306e+01	0.6337	32.591797	0.000740	7.397997	2.506509	-0.000296
 990	9.8406e+01	0.5952	32.305160	0.000720	7.195312	2.437838	-0.000288
 991	9.8505e+01	0.5390	32.002375	0.000760	7.600681	2.575181	-0.000304
 992	9.8605e+01	0.5085	31.683441	0.000801	8.006051	2.712524	-0.000321
 993	9.8704e+01	0.4749	31.412953	0.000679	6.789942	2.300495	-0.000272
 994	9.8803e+01	0.4347	31.077871	0.000841	8.411421	2.849867	-0.000337
 995	9.8903e+01	0.3898	30.823531	0.000638	6.384572	2.163152	-0.000256
 996	9.9002e+01	0.3449	30.496523	0.000821	8.208736	2.781195	-0.000329
 997	9.9102e+01	0.3128	30.157404	0.000851	8.512763	2.884202	-0.000341
 998	9.9201e+01	0.2679	29.899027	0.000649	6.485915	2.197487	-0.000260
 999	9.9301e+01	0.2342	29.636613	0.000659	6.587257	2.231823	-0.000264
1000	9.9400e+01	0.1957	29.293457	0.000861	8.614106	2.918538	-0.000345
1001	9.9500e+01	0.1540	28.962412	0.000831	8.310078	2.815531	-0.000333
1002	9.9600e+01	0.1091	28.671738	0.000730	7.296654	2.472173	-0.000292
1003	9.9699e+01	0.0706	28.401250	0.000679	6.789942	2.300495	-0.000272
1004	9.9799e+01	0.0289	28.094428	0.000770	7.702024	2.609516	-0.000308
1005	9.9898e+01	0.0096	27.860274	0.000588	5.877860	1.991473	-0.000235
1006	9.9998e+01	-0.0353	27.561526	0.000750	7.499339	2.540845	-0.000300
1007	1.0010e+02	-0.0914	27.242592	0.000801	8.006051	2.712524	-0.000321
1008	1.0020e+02	-0.1203	26.955955	0.000720	7.195312	2.437838	-0.000288
1009	1.0030e+02	-0.1620	26.681430	0.000689	6.891285	2.334830	-0.000276
1010	1.0040e+02	-0.1893	26.318088	0.000912	9.120818	3.090217	-0.000365
1011	1.0050e+02	-0.2374	26.067785	0.000628	6.283230	2.128816	-0.000252
1012	1.0059e+02	-0.2775	25.752889	0.000790	7.904709	2.678188	-0.000316
1013	1.0069e+02	-0.3192	25.462215	0.000730	7.296654	2.472173	-0.000292
1014	1.0079e+02	-0.3545	25.171541	0.000730	7.296654	2.472173	-0.000292
1015	1.0089e+02	-0.3978	24.888942	0.000709	7.093969	2.403502	-0.000284
1016	1.0099e+02	-0.4412	24.513488	0.000942	9.424845	3.193224	-0.000377
1017	1.0109e+02	-0.4732	24.243000	0.000679	6.789942	2.300495	-0.000272
1018	1.0119e+02	-0.5230	23.968475	0.000689	6.891285	2.334830	-0.000276
1019	1.0129e+02	-0.5551	23.657615	0.000780	7.803366	2.643852	-0.000312
1020	1.0139e+02	-0.5871	23.318496	0.000851	8.512763	2.884202	-0.000341
1021	1.0149e+02	-0.6449	23.027822	0.000730	7.296654	2.472173	-0.000292
1022	1.0159e+02	-0.6690	22.708889	0.000801	8.006051	2.712524	-0.000321
1023	1.0169e+02	-0.7091	22.393992	0.000790	7.904709	2.678188	-0.000316
1024	1.0179e+02	-0.7492	22.119467	0.000689	6.891285	2.334830	-0.000276
1025	1.0189e+02	-0.8069	21.792459	0.000821	8.208736	2.781195	-0.000329
1026	1.0199e+02	-0.8310	21.489674	0.000760	7.600681	2.575181	-0.000304
1027	1.0209e+02	-0.8839	21.207074	0.000709	7.093969	2.403502	-0.000284
1028	1.0219e+02	-0.9080	20.880066	0.000821	8.208736	2.781195	-0.000329
1029	1.0229e+02	-0.9561	20.577281	0.000760	7.600681	2.575181	-0.000304
1030	1.0239e+02	-1.0010	20.294681	0.000709	7.093969	2.403502	-0.000284
1031	1.0248e+02	-1.0363	19.959599	0.000841	8.411421	2.849867	-0.000337
1032	1.0258e+02	-1.0893	19.681037	0.000699	6.992627	2.369166	-0.000280
1033	1.0268e+02	-1.1133	19.370177	0.000780	7.803366	2.643852	-0.000312
1034	1.0278e+02	-1.1615	19.055281	0.000790	7.904709	2.678188	-0.000316
1035	1.0288e+02	-1.2016	18.695976	0.000902	9.019475	3.055881	-0.000361
1036	1.0298e+02	-1.2433	18.486045	0.000527	5.269806	1.785459	-0.000211
1037	1.0308e+02	-1.2786	18.142888	0.000861	8.614106	2.918538	-0.000345
1038	1.0318e+02	-1.3203	17.844140	0.000750	7.499339	2.540845	-0.000300
1039	1.0328e+02	-1.3604	17.521169	0.000811	8.107394	2.746859	-0.000325
1040	1.0338e+02	-1.4005	17.214347	0.000770	7.702024	2.609516	-0.000308
1041	1.0348e+02	-1.4438	16.891376	0.000811	8.107394	2.746859	-0.000325
1042	1.0358e+02	-1.4711	16.624925	0.000669	6.688600	2.266159	-0.000268
1043	1.0368e+02	-1.5256	16.301954	0.000811	8.107394	2.746859	-0.000325
1044	1.0378e+02	-1.5497	15.991095	0.000780	7.803366	2.643852	-0.000312
1045	1.0388e+02	-1.5946	15.700421	0.000730	7.296654	2.472173	-0.000292
1046	1.0398e+02	-1.6283	15.381487	0.000801	8.006051	2.712524	-0.000321
1047	1.0408e+02	-1.6748	15.070628	0.000780	7.803366	2.643852	-0.000312
1048	1.0418e+02	-1.7149	14.800140	0.000679	6.789942	2.300495	-0.000272
1049	1.0428e+02	-1.7550	14.521577	0.000699	6.992627	2.369166	-0.000280
1050	1.0438e+02	-1.7935	14.146124	0.000942	9.424845	3.193224	-0.000377
1051	1.0447e+02	-1.8288	13.875636	0.000679	6.789942	2.300495	-0.000272
1052	1.0457e+02	-1.8818	13.584962	0.000730	7.296654	2.472173	-0.000292
1053	1.0467e+02	-1.9138	13.241805	0.000861	8.614106	2.918538	-0.000345
1054	1.0477e+02	-1.9572	12.955169	0.000720	7.195312	2.437838	-0.000288
1055	1.0487e+02	-1.9941	12.636235	0.000801	8.006051	2.712524	-0.000321
1056	1.0497e+02	-2.0181	12.365747	0.000679	6.789942	2.300495	-0.000272
1057	1.0507e+02	-2.0663	12.050850	0.000790	7.904709	2.678188	-0.000316
1058	1.0517e+02	-2.1144	11.707694	0.000861	8.614106	2.918538	-0.000345
1059	1.0527e+02	-2.1513	11.400871	0.000770	7.702024	2.609516	-0.000308
1060	1.0537e+02	-2.1930	11.106160	0.000740	7.397997	2.506509	-0.000296
1061	1.0547e+02	-2.2411	10.823561	0.000709	7.093969	2.403502	-0.000284
1062	1.0557e+02	-2.2684	10.504627	0.000801	8.006051	2.712524	-0.000321
1063	1.0567e+02	-2.3117	10.205879	0.000750	7.499339	2.540845	-0.000300
1064	1.0577e+02	-2.3550	9.923280	0.000709	7.093969	2.403502	-0.000284
1065	1.0587e+02	-2.3935	9.543789	0.000953	9.526187	3.227560	-0.000381
1066	1.0597e+02	-2.4320	9.265227	0.000699	6.992627	2.369166	-0.000280
1067	1.0607e+02	-2.4673	9.002813	0.000659	6.587257	2.231823	-0.000264
1068	1.0617e+02	-2.5106	8.631396	0.000932	9.323503	3.158888	-0.000373
1069	1.0627e+02	-2.5507	8.344760	0.000720	7.195312	2.437838	-0.000288
1070	1.0637e+02	-2.5973	8.041974	0.000760	7.600681	2.575181	-0.000304
1071	1.0647e+02	-2.6293	7.779561	0.000659	6.587257	2.231823	-0.000264
1072	1.0656e+02	-2.6743	7.464664	0.000790	7.904709	2.678188	-0.000316
1073	1.0666e+02	-2.7112	7.178027	0.000720	7.195312	2.437838	-0.000288
1074	1.0676e+02	-2.7497	6.871205	0.000770	7.702024	2.609516	-0.000308
1075	1.0686e+02	-2.7962	6.528048	0.000861	8.614106	2.918538	-0.000345
1076	1.0696e+02	-2.8347	6.221226	0.000770	7.702024	2.609516	-0.000308
1077	1.0706e+02	-2.8555	5.987072	0.000588	5.877860	1.991473	-0.000235
1078	1.0716e+02	-2.9069	5.599507	0.000973	9.728872	3.296231	-0.000390
1079	1.0726e+02	-2.9502	5.288648	0.000780	7.803366	2.643852	-0.000312
1080	1.0736e+02	-2.9839	5.018160	0.000679	6.789942	2.300495	-0.000272
1081	1.0746e+02	-3.0304	4.727486	0.000730	7.296654	2.472173	-0.000292
1082	1.0756e+02	-3.0737	4.452961	0.000689	6.891285	2.334830	-0.000276
1083	1.0766e+02	-3.1090	4.134027	0.000801	8.006051	2.712524	-0.000321
1084	1.0776e+02	-3.1523	3.807019	0.000821	8.208736	2.781195	-0.000329
1085	1.0786e+02	-3.1876	3.552679	0.000638	6.384572	2.163152	-0.000256
1086	1.0796e+02	-3.2245	3.225671	0.000821	8.208736	2.781195	-0.000329
1087	1.0806e+02	-3.2742	2.934998	0.000730	7.296654	2.472173	-0.000292
1088	1.0816e+02	-3.3127	2.664510	0.000679	6.789942	2.300495	-0.000272
1089	1.0826e+02	-3.3448	2.341539	0.000811	8.107394	2.746859	-0.000325
1090	1.0836e+02	-3.3881	2.075088	0.000669	6.688600	2.266159	-0.000268
1091	1.0845e+02	-3.4298	1.768265	0.000770	7.702024	2.609516	-0.000308
1092	1.0855e+02	-3.4684	1.473555	0.000740	7.397997	2.506509	-0.000296
1093	1.0865e+02	-3.5165	1.122324	0.000882	8.816790	2.987209	-0.000353
1094	1.0875e+02	-3.5518	0.835687	0.000720	7.195312	2.437838	-0.000288
1095	1.0885e+02	-3.5951	0.553088	0.000709	7.093969	2.403502	-0.000284
1096	1.0895e+02	-3.6256	0.266451	0.000720	7.195312	2.437838	-0.000288
1097	1.0905e+02	-3.6721	-0.032297	0.000750	7.499339	2.540845	-0.000300
1098	1.0915e+02	-3.7122	-0.270488	0.000598	5.979203	2.025809	-0.000239
1099	1.0925e+02	-3.7555	-0.629793	0.000902	9.019475	3.055881	-0.000361
1100	1.0935e+02	-3.7748	-0.912393	0.000709	7.093969	2.403502	-0.000284
1101	1.0945e+02	-3.8325	-1.227289	0.000790	7.904709	2.678188	-0.000316
1102	1.0955e+02	-3.8630	-1.550260	0.000811	8.107394	2.746859	-0.000325
1103	1.0965e+02	-3.9063	-1.808637	0.000649	6.485915	2.197487	-0.000260
1104	1.0975e+02	-3.9448	-2.143719	0.000841	8.411421	2.849867	-0.000337
1105	1.0985e+02	-3.9913	-2.414207	0.000679	6.789942	2.300495	-0.000272
1106	1.0995e+02	-4.0266	-2.648361	0.000588	5.877860	1.991473	-0.000235
1107	1.1005e+02	-4.0715	-2.951146	0.000760	7.600681	2.575181	-0.000304
1108	1.1015e+02	-4.1036	-3.257969	0.000770	7.702024	2.609516	-0.000308
1109	1.1025e+02	-4.1582	-3.617274	0.000902	9.019475	3.055881	-0.000361
1110	1.1035e+02	-4.1854	-3.883725	0.000669	6.688600	2.266159	-0.000268
1111	1.1044e+02	-4.2223	-4.121916	0.000598	5.979203	2.025809	-0.000239
1112	1.1054e+02	-4.2689	-4.444886	0.000811	8.107394	2.746859	-0.000325
1113	1.1064e+02	-4.3074	-4.707300	0.000659	6.587257	2.231823	-0.000264
1114	1.1074e+02	-4.3378	-5.022197	0.000790	7.904709	2.678188	-0.000316
1115	1.1084e+02	-4.3780	-5.304796	0.000709	7.093969	2.403502	-0.000284
1116	1.1094e+02	-4.4148	-5.591433	0.000720	7.195312	2.437838	-0.000288
1117	1.1104e+02	-4.4630	-5.857884	0.000669	6.688600	2.266159	-0.000268
1118	1.1114e+02	-4.5079	-6.184892	0.000821	8.208736	2.781195	-0.000329
1119	1.1124e+02	-4.5448	-6.423083	0.000598	5.979203	2.025809	-0.000239
1120	1.1134e+02	-4.5801	-6.742017	0.000801	8.006051	2.712524	-0.000321
1121	1.1144e+02	-4.6218	-7.024616	0.000709	7.093969	2.403502	-0.000284
1122	1.1154e+02	-4.6651	-7.278956	0.000638	6.384572	2.163152	-0.000256
1123	1.1164e+02	-4.7052	-7.630187	0.000882	8.816790	2.987209	-0.000353
1124	1.1174e+02	-4.7373	-7.888563	0.000649	6.485915	2.197487	-0.000260
1125	1.1184e+02	-4.7822	-8.146940	0.000649	6.485915	2.197487	-0.000260
1126	1.1194e+02	-4.8303	-8.437614	0.000730	7.296654	2.472173	-0.000292
1127	1.1204e+02	-4.8624	-8.708102	0.000679	6.789942	2.300495	-0.000272
1128	1.1214e+02	-4.9106	-9.047221	0.000851	8.512763	2.884202	-0.000341
1129	1.1224e+02	-4.9507	-9.289449	0.000608	6.080545	2.060144	-0.000243
1130	1.1234e+02	-4.9779	-9.572049	0.000709	7.093969	2.403502	-0.000284
1131	1.1244e+02	-5.0212	-9.890983	0.000801	8.006051	2.712524	-0.000321
1132	1.1253e+02	-5.0646	-10.169545	0.000699	6.992627	2.369166	-0.000280
1133	1.1263e+02	-5.1047	-10.399662	0.000578	5.776518	1.957137	-0.000231
1134	1.1273e+02	-5.1400	-10.706484	0.000770	7.702024	2.609516	-0.000308
1135	1.1283e+02	-5.1849	-10.997158	0.000730	7.296654	2.472173	-0.000292
1136	1.1293e+02	-5.2298	-11.263609	0.000669	6.688600	2.266159	-0.000268
1137	1.1303e+02	-5.2699	-11.538134	0.000689	6.891285	2.334830	-0.000276
1138	1.1313e+02	-5.3036	-11.865142	0.000821	8.208736	2.781195	-0.000329
1139	1.1323e+02	-5.3469	-12.151779	0.000720	7.195312	2.437838	-0.000288
1140	1.1333e+02	-5.3806	-12.402081	0.000628	6.283230	2.128816	-0.000252
1141	1.1343e+02	-5.4191	-12.733126	0.000831	8.310078	2.815531	-0.000333
1142	1.1353e+02	-5.4576	-12.971317	0.000598	5.979203	2.025809	-0.000239
1143	1.1363e+02	-5.5025	-13.221620	0.000628	6.283230	2.128816	-0.000252
1144	1.1373e+02	-5.5410	-13.524405	0.000760	7.600681	2.575181	-0.000304
1145	1.1383e+02	-5.5843	-13.811041	0.000720	7.195312	2.437838	-0.000288
1146	1.1393e+02	-5.6116	-14.073455	0.000659	6.587257	2.231823	-0.000264
1147	1.1403e+02	-5.6645	-14.364129	0.000730	7.296654	2.472173	-0.000292
1148	1.1413e+02	-5.6982	-14.594246	0.000578	5.776518	1.957137	-0.000231
1149	1.1423e+02	-5.7367	-14.921254	0.000821	8.208736	2.781195	-0.000329
1150	1.1433e+02	-5.7801	-15.175593	0.000638	6.384572	2.163152	-0.000256
1151	1.1442e+02	-5.8137	-15.433970	0.000649	6.485915	2.197487	-0.000260
1152	1.1452e+02	-5.8619	-15.688309	0.000638	6.384572	2.163152	-0.000256
1153	1.1462e+02	-5.9020	-15.966872	0.000699	6.992627	2.369166	-0.000280
1154	1.1472e+02	-5.9453	-16.257546	0.000730	7.296654	2.472173	-0.000292
1155	1.1482e+02	-5.9774	-16.523997	0.000669	6.688600	2.266159	-0.000268
1156	1.1492e+02	-6.0143	-16.766225	0.000608	6.080545	2.060144	-0.000243
1157	1.1502e+02	-6.0608	-17.056898	0.000730	7.296654	2.472173	-0.000292
1158	1.1512e+02	-6.1073	-17.387944	0.000831	8.310078	2.815531	-0.000333
1159	1.1522e+02	-6.1378	-17.589800	0.000507	5.067121	1.716787	-0.000203
1160	1.1532e+02	-6.1715	-17.908734	0.000801	8.006051	2.712524	-0.000321
1161	1.1542e+02	-6.2292	-18.179222	0.000679	6.789942	2.300495	-0.000272
1162	1.1552e+02	-6.2469	-18.389153	0.000527	5.269806	1.785459	-0.000211
1163	1.1562e+02	-6.2982	-18.695976	0.000770	7.702024	2.609516	-0.000308
1164	1.1572e+02	-6.3319	-18.966464	0.000679	6.789942	2.300495	-0.000272
1165	1.1582e+02	-6.3832	-19.224840	0.000649	6.485915	2.197487	-0.000260
1166	1.1592e+02	-6.4217	-19.487254	0.000659	6.587257	2.231823	-0.000264
1167	1.1602e+02	-6.4474	-19.749668	0.000659	6.587257	2.231823	-0.000264
1168	1.1612e+02	-6.4811	-20.016119	0.000669	6.688600	2.266159	-0.000268
1169	1.1622e+02	-6.5276	-20.242199	0.000568	5.675175	1.922802	-0.000227
1170	1.1632e+02	-6.5693	-20.549021	0.000770	7.702024	2.609516	-0.000308
1171	1.1642e+02	-6.6143	-20.811435	0.000659	6.587257	2.231823	-0.000264
1172	1.1651e+02	-6.6495	-21.057700	0.000618	6.181888	2.094480	-0.000248
1173	1.1661e+02	-6.6945	-21.308002	0.000628	6.283230	2.128816	-0.000252
1174	1.1671e+02	-6.7249	-21.586565	0.000699	6.992627	2.369166	-0.000280
1175	1.1681e+02	-6.7667	-21.840904	0.000638	6.384572	2.163152	-0.000256
1176	1.1691e+02	-6.8148	-22.151764	0.000780	7.803366	2.643852	-0.000312
1177	1.1701e+02	-6.8613	-22.398029	0.000618	6.181888	2.094480	-0.000248
1178	1.1711e+02	-6.8806	-22.624109	0.000568	5.675175	1.922802	-0.000227
1179	1.1721e+02	-6.9399	-22.918820	0.000740	7.397997	2.506509	-0.000296
1180	1.1731e+02	-6.9720	-23.161048	0.000608	6.080545	2.060144	-0.000243
1181	1.1741e+02	-7.0073	-23.387127	0.000568	5.675175	1.922802	-0.000227
1182	1.1751e+02	-7.0474	-23.669727	0.000709	7.093969	2.403502	-0.000284
1183	1.1761e+02	-7.0891	-23.911955	0.000608	6.080545	2.060144	-0.000243
1184	1.1771e+02	-7.1260	-24.166295	0.000638	6.384572	2.163152	-0.000256
1185	1.1781e+02	-7.1645	-24.448894	0.000709	7.093969	2.403502	-0.000284
1186	1.1791e+02	-7.2158	-24.707271	0.000649	6.485915	2.197487	-0.000260
1187	1.1801e+02	-7.2543	-24.989870	0.000709	7.093969	2.403502	-0.000284
1188	1.1811e+02	-7.2832	-25.207876	0.000547	5.472491	1.854130	-0.000219
1189	1.1821e+02	-7.3378	-25.470289	0.000659	6.587257	2.231823	-0.000264
1190	1.1831e+02	-7.3731	-25.716555	0.000618	6.181888	2.094480	-0.000248
1191	1.1841e+02	-7.4132	-25.974931	0.000649	6.485915	2.197487	-0.000260
1192	1.1850e+02	-7.4533	-26.245419	0.000679	6.789942	2.300495	-0.000272
1193	1.1860e+02	-7.4886	-26.487648	0.000608	6.080545	2.060144	-0.000243
1194	1.1870e+02	-7.5319	-26.721801	0.000588	5.877860	1.991473	-0.000235
1195	1.1880e+02	-7.5688	-27.048809	0.000821	8.208736	2.781195	-0.000329
1196	1.1890e+02	-7.6089	-27.222406	0.000436	4.357724	1.476437	-0.000174
1197	1.1900e+02	-7.6570	-27.513080	0.000730	7.296654	2.472173	-0.000292
1198	1.1910e+02	-7.6939	-27.783568	0.000679	6.789942	2.300495	-0.000272
1199	1.1920e+02	-7.7212	-28.037908	0.000638	6.384572	2.163152	-0.000256
1200	1.1930e+02	-7.7677	-28.259950	0.000557	5.573833	1.888466	-0.000223
1201	1.1940e+02	-7.8110	-28.534475	0.000689	6.891285	2.334830	-0.000276
1202	1.1950e+02	-7.8463	-28.800926	0.000669	6.688600	2.266159	-0.000268
1203	1.1960e+02	-7.8896	-29.018932	0.000547	5.472491	1.854130	-0.000219
1204	1.1970e+02	-7.9265	-29.289420	0.000679	6.789942	2.300495	-0.000272
1205	1.1980e+02	-7.9762	-29.535685	0.000618	6.181888	2.094480	-0.000248
1206	1.1990e+02	-8.0228	-29.798099	0.000659	6.587257	2.231823	-0.000264
1207	1.2000e+02	-8.0484	-30.032253	0.000588	5.877860	1.991473	-0.000235
1208	1.2010e+02	-8.0837	-30.262369	0.000578	5.776518	1.957137	-0.000231
1209	1.2020e+02	-8.1319	-30.528820	0.000669	6.688600	2.266159	-0.000268
1210	1.2030e+02	-8.1704	-30.839680	0.000780	7.803366	2.643852	-0.000312
1211	1.2039e+02	-8.2057	-30.985017	0.000365	3.648327	1.236087	-0.000146
1212	1.2049e+02	-8.2522	-31.255505	0.000679	6.789942	2.300495	-0.000272
1213	1.2059e+02	-8.2762	-31.513882	0.000649	6.485915	2.197487	-0.000260
1214	1.2069e+02	-8.3340	-31.788407	0.000689	6.891285	2.334830	-0.000276
1215	1.2079e+02	-8.3581	-31.966041	0.000446	4.459066	1.510773	-0.000179
1216	1.2089e+02	-8.4110	-32.297086	0.000831	8.310078	2.815531	-0.000333
1217	1.2099e+02	-8.4479	-32.511054	0.000537	5.371148	1.819794	-0.000215
1218	1.2109e+02	-8.4832	-32.789616	0.000699	6.992627	2.369166	-0.000280
1219	1.2119e+02	-8.5137	-33.027807	0.000598	5.979203	2.025809	-0.000239
1220	1.2129e+02	-8.5698	-33.205441	0.000446	4.459066	1.510773	-0.000179
1221	1.2139e+02	-8.6131	-33.435558	0.000578	5.776518	1.957137	-0.000231
1222	1.2149e+02	-8.6468	-33.734306	0.000750	7.499339	2.540845	-0.000300
1223	1.2159e+02	-8.6901	-33.984609	0.000628	6.283230	2.128816	-0.000252
1224	1.2169e+02	-8.7238	-34.234911	0.000628	6.283230	2.128816	-0.000252
1225	1.2179e+02	-8.7623	-34.497325	0.000659	6.587257	2.231823	-0.000264
1226	1.2189e+02	-8.8056	-34.707256	0.000527	5.269806	1.785459	-0.000211
1227	1.2199e+02	-8.8473	-34.929298	0.000557	5.573833	1.888466	-0.000223
1228	1.2209e+02	-8.8842	-35.219972	0.000730	7.296654	2.472173	-0.000292
1229	1.2219e+02	-8.9276	-35.405680	0.000466	4.661751	1.579444	-0.000187
1230	1.2229e+02	-8.9596	-35.676169	0.000679	6.789942	2.300495	-0.000272
1231	1.2239e+02	-9.0014	-35.898211	0.000557	5.573833	1.888466	-0.000223
1232	1.2248e+02	-9.0334	-36.152551	0.000638	6.384572	2.163152	-0.000256
1233	1.2258e+02	-9.0864	-36.423039	0.000679	6.789942	2.300495	-0.000272
1234	1.2268e+02	-9.1329	-36.649118	0.000568	5.675175	1.922802	-0.000227
1235	1.2278e+02	-9.1666	-36.895384	0.000618	6.181888	2.094480	-0.000248
1236	1.2288e+02	-9.1939	-37.177983	0.000709	7.093969	2.403502	-0.000284
1237	1.2298e+02	-9.2516	-37.363691	0.000466	4.661751	1.579444	-0.000187
1238	1.2308e+02	-9.2821	-37.638216	0.000689	6.891285	2.334830	-0.000276
1239	1.2318e+02	-9.3302	-37.872370	0.000588	5.877860	1.991473	-0.000235
1240	1.2328e+02	-9.3591	-38.078264	0.000517	5.168463	1.751123	-0.000207
1241	1.2338e+02	-9.4008	-38.328567	0.000628	6.283230	2.128816	-0.000252
1242	1.2348e+02	-9.4457	-38.590981	0.000659	6.587257	2.231823	-0.000264
1243	1.2358e+02	-9.4762	-38.813023	0.000557	5.573833	1.888466	-0.000223
1244	1.2368e+02	-9.5195	-39.087548	0.000689	6.891285	2.334830	-0.000276
1245	1.2378e+02	-9.5596	-39.309591	0.000557	5.573833	1.888466	-0.000223
1246	1.2388e+02	-9.6013	-39.551819	0.000608	6.080545	2.060144	-0.000243
1247	1.2398e+02	-9.6463	-39.794047	0.000608	6.080545	2.060144	-0.000243
1248	1.2408e+02	-9.6735	-40.008015	0.000537	5.371148	1.819794	-0.000215
1249	1.2418e+02	-9.7297	-40.238132	0.000578	5.776518	1.957137	-0.000231
1250	1.2428e+02	-9.7618	-40.516694	0.000699	6.992627	2.369166	-0.000280
1251	1.2438e+02	-9.7922	-40.754885	0.000598	5.979203	2.025809	-0.000239
1252	1.2447e+02	-9.8420	-40.952705	0.000497	4.965779	1.682451	-0.000199
1253	1.2457e+02	-9.8821	-41.247416	0.000740	7.397997	2.506509	-0.000296
1254	1.2467e+02	-9.9222	-41.465421	0.000547	5.472491	1.854130	-0.000219
1255	1.2477e+02	-9.9655	-41.707649	0.000608	6.080545	2.060144	-0.000243
1256	1.2487e+02	-9.9976	-41.929692	0.000557	5.573833	1.888466	-0.000223
1257	1.2497e+02	-10.0425	-42.192106	0.000659	6.587257	2.231823	-0.000264
1258	1.2507e+02	-10.0826	-42.389925	0.000497	4.965779	1.682451	-0.000199
1259	1.2517e+02	-10.1131	-42.684636	0.000740	7.397997	2.506509	-0.000296
1260	1.2527e+02	-10.1580	-42.910716	0.000568	5.675175	1.922802	-0.000227
1261	1.2537e+02	-10.1997	-43.128721	0.000547	5.472491	1.854130	-0.000219
1262	1.2547e+02	-10.2398	-43.391135	0.000659	6.587257	2.231823	-0.000264
1263	1.2557e+02	-10.2831	-43.609140	0.000547	5.472491	1.854130	-0.000219
1264	1.2567e+02	-10.3232	-43.839257	0.000578	5.776518	1.957137	-0.000231
1265	1.2577e+02	-10.3569	-44.113782	0.000689	6.891285	2.334830	-0.000276
1266	1.2587e+02	-10.3890	-44.364085	0.000628	6.283230	2.128816	-0.000252
1267	1.2597e+02	-10.4500	-44.586127	0.000557	5.573833	1.888466	-0.000223
1268	1.2607e+02	-10.4740	-44.824318	0.000598	5.979203	2.025809	-0.000239
1269	1.2617e+02	-10.5125	-45.090769	0.000669	6.688600	2.266159	-0.000268
1270	1.2627e+02	-10.5542	-45.300700	0.000527	5.269806	1.785459	-0.000211
1271	1.2636e+02	-10.5911	-45.551003	0.000628	6.283230	2.128816	-0.000252
1272	1.2646e+02	-10.6409	-45.821491	0.000679	6.789942	2.300495	-0.000272
1273	1.2656e+02	-10.6794	-45.982976	0.000405	4.053697	1.373430	-0.000162
1274	1.2666e+02	-10.7179	-46.253464	0.000679	6.789942	2.300495	-0.000272
1275	1.2676e+02	-10.7516	-46.499729	0.000618	6.181888	2.094480	-0.000248
1276	1.2686e+02	-10.7981	-46.790403	0.000730	7.296654	2.472173	-0.000292
1277	1.2696e+02	-10.8462	-46.968037	0.000446	4.459066	1.510773	-0.000179
1278	1.2706e+02	-10.8847	-47.198154	0.000578	5.776518	1.957137	-0.000231
1279	1.2716e+02	-10.9168	-47.496902	0.000750	7.499339	2.540845	-0.000300
1280	1.2726e+02	-10.9553	-47.674536	0.000446	4.459066	1.510773	-0.000179
1281	1.2736e+02	-10.9922	-47.912727	0.000598	5.979203	2.025809	-0.000239
1282	1.2746e+02	-11.0403	-48.187252	0.000689	6.891285	2.334830	-0.000276
1283	1.2756e+02	-11.0852	-48.417369	0.000578	5.776518	1.957137	-0.000231
1284	1.2766e+02	-11.1141	-48.667671	0.000628	6.283230	2.128816	-0.000252
1285	1.2776e+02	-11.1590	-48.897788	0.000578	5.776518	1.957137	-0.000231
1286	1.2786e+02	-11.1991	-49.152128	0.000638	6.384572	2.163152	-0.000256
1287	1.2796e+02	-11.2377	-49.378207	0.000568	5.675175	1.922802	-0.000227
1288	1.2806e+02	-11.2762	-49.632547	0.000638	6.384572	2.163152	-0.000256
1289	1.2816e+02	-11.3130	-49.846515	0.000537	5.371148	1.819794	-0.000215
1290	1.2826e+02	-11.3532	-50.088743	0.000608	6.080545	2.060144	-0.000243
1291	1.2835e+02	-11.3917	-50.379417	0.000730	7.296654	2.472173	-0.000292
1292	1.2845e+02	-11.4237	-50.577237	0.000497	4.965779	1.682451	-0.000199
1293	1.2855e+02	-11.4719	-50.847725	0.000679	6.789942	2.300495	-0.000272
1294	1.2865e+02	-11.5200	-51.065730	0.000547	5.472491	1.854130	-0.000219
1295	1.2875e+02	-11.5473	-51.303921	0.000598	5.979203	2.025809	-0.000239
1296	1.2885e+02	-11.5858	-51.550186	0.000618	6.181888	2.094480	-0.000248
1297	1.2895e+02	-11.6339	-51.776266	0.000568	5.675175	1.922802	-0.000227
1298	1.2905e+02	-11.6756	-52.079051	0.000760	7.600681	2.575181	-0.000304
1299	1.2915e+02	-11.7077	-52.301093	0.000557	5.573833	1.888466	-0.000223
1300	1.2925e+02	-11.7542	-52.531210	0.000578	5.776518	1.957137	-0.000231
1301	1.2935e+02	-11.7911	-52.777476	0.000618	6.181888	2.094480	-0.000248
1302	1.2945e+02	-11.8360	-53.031815	0.000638	6.384572	2.163152	-0.000256
1303	1.2955e+02	-11.8793	-53.265969	0.000588	5.877860	1.991473	-0.000235
1304	1.2965e+02	-11.9066	-53.455714	0.000476	4.763094	1.613780	-0.000191
1305	1.2975e+02	-11.9531	-53.742351	0.000720	7.195312	2.437838	-0.000288
1306	1.2985e+02	-12.0013	-53.984579	0.000608	6.080545	2.060144	-0.000243
1307	1.2995e+02	-12.0334	-54.226807	0.000608	6.080545	2.060144	-0.000243
1308	1.3005e+02	-12.0735	-54.469035	0.000608	6.080545	2.060144	-0.000243
1309	1.3015e+02	-12.1168	-54.731449	0.000659	6.587257	2.231823	-0.000264
1310	1.3025e+02	-12.1553	-54.957529	0.000568	5.675175	1.922802	-0.000227
1311	1.3034e+02	-12.1890	-55.207831	0.000628	6.283230	2.128816	-0.000252
1312	1.3044e+02	-12.2355	-55.417762	0.000527	5.269806	1.785459	-0.000211
1313	1.3054e+02	-12.2724	-55.680176	0.000659	6.587257	2.231823	-0.000264
1314	1.3064e+02	-12.3109	-55.918367	0.000598	5.979203	2.025809	-0.000239
1315	1.3074e+02	-12.3542	-56.209041	0.000730	7.296654	2.472173	-0.000292
1316	1.3084e+02	-12.3911	-56.435120	0.000568	5.675175	1.922802	-0.000227
1317	1.3094e+02	-12.4280	-56.632940	0.000497	4.965779	1.682451	-0.000199
1318	1.3104e+02	-12.4713	-56.895354	0.000659	6.587257	2.231823	-0.000264
1319	1.3114e+02	-12.5146	-57.141619	0.000618	6.181888	2.094480	-0.000248
1320	1.3124e+02	-12.5467	-57.395959	0.000638	6.384572	2.163152	-0.000256
1321	1.3134e+02	-12.5884	-57.609927	0.000537	5.371148	1.819794	-0.000215
1322	1.3144e+02	-12.6349	-57.900601	0.000730	7.296654	2.472173	-0.000292
1323	1.3154e+02	-12.6606	-58.142829	0.000608	6.080545	2.060144	-0.000243
1324	1.3164e+02	-12.7007	-58.381020	0.000598	5.979203	2.025809	-0.000239
1325	1.3174e+02	-12.7456	-58.647471	0.000669	6.688600	2.266159	-0.000268
1326	1.3184e+02	-12.7938	-58.861439	0.000537	5.371148	1.819794	-0.000215
1327	1.3194e+02	-12.8274	-59.095593	0.000588	5.877860	1.991473	-0.000235
1328	1.3204e+02	-12.8676	-59.370118	0.000689	6.891285	2.334830	-0.000276
1329	1.3214e+02	-12.9061	-59.612346	0.000608	6.080545	2.060144	-0.000243
1330	1.3224e+02	-12.9542	-59.850537	0.000598	5.979203	2.025809	-0.000239
1331	1.3234e+02	-12.9959	-60.056431	0.000517	5.168463	1.751123	-0.000207
1332	1.3243e+02	-13.0232	-60.343068	0.000720	7.195312	2.437838	-0.000288
1333	1.3253e+02	-13.0665	-60.629705	0.000720	7.195312	2.437838	-0.000288
1334	1.3263e+02	-13.1162	-60.888081	0.000649	6.485915	2.197487	-0.000260
1335	1.3273e+02	-13.1419	-61.126272	0.000598	5.979203	2.025809	-0.000239
1336	1.3283e+02	-13.1836	-61.368500	0.000608	6.080545	2.060144	-0.000243
1337	1.3293e+02	-13.2365	-61.602654	0.000588	5.877860	1.991473	-0.000235
1338	1.3303e+02	-13.2670	-61.865068	0.000659	6.587257	2.231823	-0.000264
1339	1.3313e+02	-13.3071	-62.127482	0.000659	6.587257	2.231823	-0.000264
1340	1.3323e+02	-13.3456	-62.341450	0.000537	5.371148	1.819794	-0.000215
1341	1.3333e+02	-13.3889	-62.624050	0.000709	7.093969	2.403502	-0.000284
1342	1.3343e+02	-13.4338	-62.894538	0.000679	6.789942	2.300495	-0.000272
1343	1.3353e+02	-13.4675	-63.152914	0.000649	6.485915	2.197487	-0.000260
1344	1.3363e+02	-13.5076	-63.346697	0.000486	4.864436	1.648116	-0.000195
1345	1.3373e+02	-13.5429	-63.637371	0.000730	7.296654	2.472173	-0.000292
1346	1.3383e+02	-13.5798	-63.871525	0.000588	5.877860	1.991473	-0.000235
1347	1.3393e+02	-13.6296	-64.121827	0.000628	6.283230	2.128816	-0.000252
1348	1.3403e+02	-13.6665	-64.400389	0.000699	6.992627	2.369166	-0.000280
1349	1.3413e+02	-13.7034	-64.626469	0.000568	5.675175	1.922802	-0.000227
1350	1.3423e+02	-13.7419	-64.892920	0.000669	6.688600	2.266159	-0.000268
1351	1.3432e+02	-13.7772	-65.147259	0.000638	6.384572	2.163152	-0.000256
1352	1.3442e+02	-13.8205	-65.433896	0.000720	7.195312	2.437838	-0.000288
1353	1.3452e+02	-13.8670	-65.668050	0.000588	5.877860	1.991473	-0.000235
1354	1.3462e+02	-13.9007	-65.954687	0.000720	7.195312	2.437838	-0.000288
1355	1.3472e+02	-13.9488	-66.209026	0.000638	6.384572	2.163152	-0.000256
1356	1.3482e+02	-13.9825	-66.459329	0.000628	6.283230	2.128816	-0.000252
1357	1.3492e+02	-14.0242	-66.725779	0.000669	6.688600	2.266159	-0.000268
1358	1.3502e+02	-14.0643	-66.947822	0.000557	5.573833	1.888466	-0.000223
1359	1.3512e+02	-14.1076	-67.238496	0.000730	7.296654	2.472173	-0.000292
1360	1.3522e+02	-14.1429	-67.521095	0.000709	7.093969	2.403502	-0.000284
1361	1.3532e+02	-14.1846	-67.763323	0.000608	6.080545	2.060144	-0.000243
1362	1.3542e+02	-14.2199	-68.029774	0.000669	6.688600	2.266159	-0.000268
1363	1.3552e+02	-14.2697	-68.332560	0.000760	7.600681	2.575181	-0.000304
1364	1.3562e+02	-14.3049	-68.554602	0.000557	5.573833	1.888466	-0.000223
1365	1.3572e+02	-14.3483	-68.841239	0.000720	7.195312	2.437838	-0.000288
1366	1.3582e+02	-14.3819	-69.099615	0.000649	6.485915	2.197487	-0.000260
1367	1.3592e+02	-14.4237	-69.382215	0.000709	7.093969	2.403502	-0.000284
1368	1.3602e+02	-14.4686	-69.680963	0.000750	7.499339	2.540845	-0.000300
1369	1.3612e+02	-14.4991	-69.935302	0.000638	6.384572	2.163152	-0.000256
1370	1.3622e+02	-14.5327	-70.225976	0.000730	7.296654	2.472173	-0.000292
1371	1.3631e+02	-14.5857	-70.472241	0.000618	6.181888	2.094480	-0.000248
1372	1.3641e+02	-14.6242	-70.738692	0.000669	6.688600	2.266159	-0.000268
1373	1.3651e+02	-14.6627	-71.001106	0.000659	6.587257	2.231823	-0.000264
1374	1.3661e+02	-14.6980	-71.328114	0.000821	8.208736	2.781195	-0.000329
1375	1.3671e+02	-14.7429	-71.542082	0.000537	5.371148	1.819794	-0.000215
1376	1.3681e+02	-14.7750	-71.885239	0.000861	8.614106	2.918538	-0.000345
1377	1.3691e+02	-14.8183	-72.119393	0.000588	5.877860	1.991473	-0.000235
1378	1.3701e+02	-14.8504	-72.357584	0.000598	5.979203	2.025809	-0.000239
1379	1.3711e+02	-14.9033	-72.628072	0.000679	6.789942	2.300495	-0.000272
1380	1.3721e+02	-14.9434	-72.959117	0.000831	8.310078	2.815531	-0.000333
1381	1.3731e+02	-14.9739	-73.225568	0.000669	6.688600	2.266159	-0.000268
1382	1.3741e+02	-15.0140	-73.548539	0.000811	8.107394	2.746859	-0.000325
1383	1.3751e+02	-15.0573	-73.831138	0.000709	7.093969	2.403502	-0.000284
1384	1.3761e+02	-15.1006	-74.061255	0.000578	5.776518	1.957137	-0.000231
1385	1.3771e+02	-15.1456	-74.412486	0.000882	8.816790	2.987209	-0.000353
1386	1.3781e+02	-15.1776	-74.715271	0.000760	7.600681	2.575181	-0.000304
1387	1.3791e+02	-15.2210	-75.018056	0.000760	7.600681	2.575181	-0.000304
1388	1.3801e+02	-15.2563	-75.284507	0.000669	6.688600	2.266159	-0.000268
1389	1.3811e+02	-15.3076	-75.591330	0.000770	7.702024	2.609516	-0.000308
1390	1.3821e+02	-15.3397	-75.865855	0.000689	6.891285	2.334830	-0.000276
1391	1.3831e+02	-15.3830	-76.160566	0.000740	7.397997	2.506509	-0.000296
1392	1.3840e+02	-15.4199	-76.475462	0.000790	7.904709	2.678188	-0.000316
1393	1.3850e+02	-15.4632	-76.782285	0.000770	7.702024	2.609516	-0.000308
1394	1.3860e+02	-15.4969	-77.109293	0.000821	8.208736	2.781195	-0.000329
1395	1.3870e+02	-15.5514	-77.387855	0.000699	6.992627	2.369166	-0.000280
1396	1.3880e+02	-15.5819	-77.694677	0.000770	7.702024	2.609516	-0.000308
1397	1.3890e+02	-15.6172	-78.041871	0.000872	8.715448	2.952874	-0.000349
1398	1.3900e+02	-15.6637	-78.344656	0.000760	7.600681	2.575181	-0.000304
1399	1.3910e+02	-15.7006	-78.655516	0.000780	7.803366	2.643852	-0.000312
1400	1.3920e+02	-15.7439	-78.966375	0.000780	7.803366	2.643852	-0.000312
1401	1.3930e+02	-15.7776	-79.301457	0.000841	8.411421	2.849867	-0.000337
1402	1.3940e+02	-15.8081	-79.600205	0.000750	7.499339	2.540845	-0.000300
1403	1.3950e+02	-15.8530	-79.935288	0.000841	8.411421	2.849867	-0.000337
1404	1.3960e+02	-15.8883	-80.302667	0.000922	9.222160	3.124552	-0.000369
1405	1.3970e+02	-15.9381	-80.577192	0.000689	6.891285	2.334830	-0.000276
1406	1.3980e+02	-15.9766	-80.892089	0.000790	7.904709	2.678188	-0.000316
1407	1.3990e+02	-16.0199	-81.219097	0.000821	8.208736	2.781195	-0.000329
1408	1.4000e+02	-16.0632	-81.574365	0.000892	8.918133	3.021545	-0.000357
1409	1.4010e+02	-16.0905	-81.897336	0.000811	8.107394	2.746859	-0.000325
1410	1.4020e+02	-16.1386	-82.220306	0.000811	8.107394	2.746859	-0.000325
1411	1.4029e+02	-16.1707	-82.535203	0.000790	7.904709	2.678188	-0.000316
1412	1.4039e+02	-16.2124	-82.914694	0.000953	9.526187	3.227560	-0.000381
1413	1.4049e+02	-16.2541	-83.282073	0.000922	9.222160	3.124552	-0.000369
1414	1.4059e+02	-16.2958	-83.576784	0.000740	7.397997	2.506509	-0.000296
1415	1.4069e+02	-16.3471	-83.944163	0.000922	9.222160	3.124552	-0.000369
1416	1.4079e+02	-16.3744	-84.299431	0.000892	8.918133	3.021545	-0.000357
1417	1.4089e+02	-16.4241	-84.650662	0.000882	8.816790	2.987209	-0.000353
1418	1.4099e+02	-16.4466	-84.981707	0.000831	8.310078	2.815531	-0.000333
1419	1.4109e+02	-16.4963	-85.328901	0.000872	8.715448	2.952874	-0.000349
1420	1.4119e+02	-16.5348	-85.740689	0.001034	10.336927	3.502246	-0.000414
1421	1.4129e+02	-16.5781	-86.059623	0.000801	8.006051	2.712524	-0.000321
1422	1.4139e+02	-16.6182	-86.414890	0.000892	8.918133	3.021545	-0.000357
1423	1.4149e+02	-16.6519	-86.786307	0.000932	9.323503	3.158888	-0.000373
1424	1.4159e+02	-16.6953	-87.165798	0.000953	9.526187	3.227560	-0.000381
1425	1.4169e+02	-16.7370	-87.545288	0.000953	9.526187	3.227560	-0.000381
1426	1.4179e+02	-16.7771	-87.957076	0.001034	10.336927	3.502246	-0.000414
1427	1.4189e+02	-16.8092	-88.332530	0.000942	9.424845	3.193224	-0.000377
1428	1.4199e+02	-16.8477	-88.667612	0.000841	8.411421	2.849867	-0.000337
1429	1.4209e+02	-16.8894	-89.079400	0.001034	10.336927	3.502246	-0.000414
1430	1.4219e+02	-16.9311	-89.466965	0.000973	9.728872	3.296231	-0.000390
1431	1.4228e+02	-16.9760	-89.830307	0.000912	9.120818	3.090217	-0.000365
1432	1.4238e+02	-17.0081	-90.254207	0.001064	10.640954	3.605253	-0.000426
1433	1.4248e+02	-17.0610	-90.637734	0.000963	9.627530	3.261895	-0.000385
1434	1.4258e+02	-17.0915	-91.077782	0.001105	11.046324	3.742596	-0.000442
1435	1.4268e+02	-17.1316	-91.453236	0.000942	9.424845	3.193224	-0.000377
1436	1.4278e+02	-17.1669	-91.852912	0.001003	10.032900	3.399238	-0.000402
1437	1.4288e+02	-17.2086	-92.280849	0.001074	10.742296	3.639589	-0.000430
1438	1.4298e+02	-17.2487	-92.668414	0.000973	9.728872	3.296231	-0.000390
1439	1.4308e+02	-17.2920	-93.084239	0.001044	10.438269	3.536581	-0.000418
1440	1.4318e+02	-17.3353	-93.520249	0.001094	10.944981	3.708260	-0.000438
1441	1.4328e+02	-17.3722	-93.968371	0.001125	11.249009	3.811267	-0.000450
1442	1.4338e+02	-17.4075	-94.380159	0.001034	10.336927	3.502246	-0.000414
1443	1.4348e+02	-17.4557	-94.747539	0.000922	9.222160	3.124552	-0.000369
1444	1.4358e+02	-17.4781	-95.187586	0.001105	11.046324	3.742596	-0.000442
1445	1.4368e+02	-17.5343	-95.659931	0.001186	11.857063	4.017282	-0.000475
1446	1.4378e+02	-17.5696	-96.091905	0.001084	10.843639	3.673924	-0.000434
1447	1.4388e+02	-17.6016	-96.560213	0.001176	11.755721	3.982946	-0.000471
1448	1.4398e+02	-17.6498	-96.976038	0.001044	10.438269	3.536581	-0.000418
1449	1.4408e+02	-17.6899	-97.436271	0.001155	11.553036	3.914274	-0.000463
1450	1.4418e+02	-17.7252	-97.864207	0.001074	10.742296	3.639589	-0.000430
1451	1.4428e+02	-17.7765	-98.324441	0.001155	11.553036	3.914274	-0.000463
1452	1.4437e+02	-17.8198	-98.804860	0.001206	12.059748	4.085953	-0.000483
1453	1.4447e+02	-17.8471	-99.252982	0.001125	11.249009	3.811267	-0.000450
1454	1.4457e+02	-17.8936	-99.733401	0.001206	12.059748	4.085953	-0.000483
1455	1.4467e+02	-17.9305	-100.201709	0.001176	11.755721	3.982946	-0.000471
1456	1.4477e+02	-17.9786	-100.657905	0.001145	11.451693	3.879939	-0.000458
1457	1.4487e+02	-18.0107	-101.166584	0.001277	12.769145	4.326303	-0.000511
1458	1.4497e+02	-18.0476	-101.614707	0.001125	11.249009	3.811267	-0.000450
1459	1.4507e+02	-18.0893	-102.091089	0.001196	11.958405	4.051617	-0.000479
1460	1.4517e+02	-18.1278	-102.579582	0.001226	12.262433	4.154625	-0.000491
1461	1.4527e+02	-18.1695	-103.108447	0.001328	13.275857	4.497982	-0.000532
1462	1.4537e+02	-18.2113	-103.592903	0.001216	12.161090	4.120289	-0.000487
1463	1.4547e+02	-18.2449	-104.097545	0.001267	12.667802	4.291968	-0.000507
1464	1.4557e+02	-18.2834	-104.569890	0.001186	11.857063	4.017282	-0.000475
1465	1.4567e+02	-18.3348	-105.058383	0.001226	12.262433	4.154625	-0.000491
1466	1.4577e+02	-18.3620	-105.607434	0.001378	13.782569	4.669661	-0.000552
1467	1.4587e+02	-18.4086	-106.071704	0.001165	11.654378	3.948610	-0.000467
1468	1.4597e+02	-18.4503	-106.657089	0.001469	14.694651	4.978682	-0.000588
1469	1.4607e+02	-18.4792	-107.121360	0.001165	11.654378	3.948610	-0.000467
1470	1.4617e+02	-18.5385	-107.674447	0.001388	13.883911	4.703997	-0.000556
1471	1.4626e+02	-18.5674	-108.239646	0.001419	14.187939	4.807004	-0.000568
1472	1.4636e+02	-18.6187	-108.752363	0.001287	12.870487	4.360639	-0.000515
1473	1.4646e+02	-18.6556	-109.277190	0.001317	13.174515	4.463646	-0.000527
1474	1.4656e+02	-18.6893	-109.789906	0.001287	12.870487	4.360639	-0.000515
1475	1.4666e+02	-18.7262	-110.359143	0.001429	14.289281	4.841339	-0.000572
1476	1.4676e+02	-18.7663	-110.948564	0.001480	14.795993	5.013018	-0.000592
1477	1.4686e+02	-18.8048	-111.481466	0.001338	13.377199	4.532318	-0.000536
1478	1.4696e+02	-18.8481	-112.022442	0.001358	13.579884	4.600989	-0.000544
1479	1.4706e+02	-18.8802	-112.591679	0.001429	14.289281	4.841339	-0.000572
1480	1.4716e+02	-18.9380	-113.185138	0.001490	14.897336	5.047354	-0.000596
1481	1.4726e+02	-18.9636	-113.746299	0.001409	14.086596	4.772668	-0.000564
1482	1.4736e+02	-19.0053	-114.311498	0.001419	14.187939	4.807004	-0.000568
1483	1.4746e+02	-19.0471	-114.908995	0.001500	14.998678	5.081690	-0.000600
1484	1.4756e+02	-19.0856	-115.494379	0.001469	14.694651	4.978682	-0.000588
1485	1.4766e+02	-19.1192	-116.067652	0.001439	14.390624	4.875675	-0.000576
1486	1.4776e+02	-19.1561	-116.673223	0.001520	15.201363	5.150361	-0.000609
1487	1.4786e+02	-19.2139	-117.278793	0.001520	15.201363	5.150361	-0.000609
1488	1.4796e+02	-19.2428	-117.904549	0.001571	15.708075	5.322040	-0.000629
1489	1.4806e+02	-19.2829	-118.502045	0.001500	14.998678	5.081690	-0.000600
1490	1.4816e+02	-19.3150	-119.111653	0.001530	15.302705	5.184697	-0.000613
1491	1.4825e+02	-19.3599	-119.721260	0.001530	15.302705	5.184697	-0.000613
1492	1.4835e+02	-19.4016	-120.363165	0.001611	16.113445	5.459383	-0.000645
1493	1.4845e+02	-19.4417	-120.988921	0.001571	15.708075	5.322040	-0.000629
1494	1.4855e+02	-19.4914	-121.651011	0.001662	16.620157	5.631062	-0.000665
1495	1.4865e+02	-19.5219	-122.260619	0.001530	15.302705	5.184697	-0.000613
1496	1.4875e+02	-19.5668	-122.922709	0.001662	16.620157	5.631062	-0.000665
1497	1.4885e+02	-19.5973	-123.588836	0.001672	16.721499	5.665397	-0.000669
1498	1.4895e+02	-19.6438	-124.222667	0.001591	15.910760	5.390711	-0.000637
1499	1.4905e+02	-19.6807	-124.880720	0.001652	16.518814	5.596726	-0.000661
1500	1.4915e+02	-19.7240	-125.567033	0.001723	17.228211	5.837076	-0.000690
1501	1.4925e+02	-19.7609	-126.204900	0.001601	16.012102	5.425047	-0.000641
1502	1.4935e+02	-19.7994	-126.915436	0.001784	17.836266	6.043090	-0.000714
1503	1.4945e+02	-19.8347	-127.593675	0.001703	17.025526	5.768405	-0.000682
1504	1.4955e+02	-19.8748	-128.263840	0.001682	16.822842	5.699733	-0.000674
1505	1.4965e+02	-19.9230	-128.978413	0.001794	17.937608	6.077426	-0.000718
1506	1.4975e+02	-19.9615	-129.692986	0.001794	17.937608	6.077426	-0.000718
1507	1.4985e+02	-20.0016	-130.359113	0.001672	16.721499	5.665397	-0.000669
1508	1.4995e+02	-19.9567	-130.783012	-0.001064	-10.640954	-3.605253	-0.000426
1509	1.5005e+02	-19.9198	-131.158466	-0.000942	-9.424845	-3.193224	-0.000377
1510	1.5015e+02	-19.8797	-131.537957	-0.000953	-9.526187	-3.227560	-0.000381
1511	1.5025e+02	-19.8395	-131.832668	-0.000740	-7.397997	-2.506509	-0.000296
1512	1.5034e+02	-19.8091	-132.119304	-0.000720	-7.195312	-2.437838	-0.000288
1513	1.5044e+02	-19.7690	-132.450349	-0.000831	-8.310078	-2.815531	-0.000333
1514	1.5054e+02	-19.7144	-132.652206	-0.000507	-5.067121	-1.716787	-0.000203
1515	1.5064e+02	-19.6775	-132.918657	-0.000669	-6.688600	-2.266159	-0.000268
1516	1.5074e+02	-19.6390	-133.108402	-0.000476	-4.763094	-1.613780	-0.000191
1517	1.5084e+02	-19.6037	-133.350631	-0.000608	-6.080545	-2.060144	-0.000243
1518	1.5094e+02	-19.5636	-133.512116	-0.000405	-4.053697	-1.373430	-0.000162
1519	1.5104e+02	-19.5187	-133.685713	-0.000436	-4.357724	-1.476437	-0.000174
1520	1.5114e+02	-19.4834	-133.847198	-0.000405	-4.053697	-1.373430	-0.000162
1521	1.5124e+02	-19.4449	-134.057129	-0.000527	-5.269806	-1.785459	-0.000211
1522	1.5134e+02	-19.4000	-134.178243	-0.000304	-3.040273	-1.030072	-0.000122
1523	1.5144e+02	-19.3711	-134.343766	-0.000416	-4.155039	-1.407765	-0.000166
1524	1.5154e+02	-19.3198	-134.476991	-0.000334	-3.344300	-1.133079	-0.000134
1525	1.5164e+02	-19.2877	-134.614254	-0.000345	-3.445642	-1.167415	-0.000138
1526	1.5174e+02	-19.2380	-134.690960	-0.000193	-1.925506	-0.652379	-0.000077
1527	1.5184e+02	-19.2107	-134.836297	-0.000365	-3.648327	-1.236087	-0.000146
1528	1.5194e+02	-19.1577	-134.872631	-0.000091	-0.912082	-0.309022	-0.000037
1529	1.5204e+02	-19.1192	-134.961448	-0.000223	-2.229533	-0.755386	-0.000089
1530	1.5214e+02	-19.0872	-135.074488	-0.000284	-2.837588	-0.961401	-0.000114
1531	1.5224e+02	-19.0438	-135.179453	-0.000263	-2.634903	-0.892729	-0.000105
1532	1.5233e+02	-19.0021	-135.179453	0.000000	0.000000	0.000000	0.000000
1533	1.5243e+02	-18.9652	-135.248084	-0.000172	-1.722821	-0.583708	-0.000069
1534	1.5253e+02	-18.9283	-135.300567	-0.000132	-1.317451	-0.446365	-0.000053
1535	1.5263e+02	-18.8866	-135.357087	-0.000142	-1.418794	-0.480700	-0.000057
1536	1.5273e+02	-18.8337	-135.349013	0.000020	0.202685	0.068671	0.000008
1537	1.5283e+02	-18.8096	-135.389384	-0.000101	-1.013424	-0.343357	-0.000041
1538	1.5293e+02	-18.7631	-135.429755	-0.000101	-1.013424	-0.343357	-0.000041
1539	1.5303e+02	-18.7310	-135.437830	-0.000020	-0.202685	-0.068671	-0.000008
1540	1.5313e+02	-18.6845	-135.518572	-0.000203	-2.026848	-0.686715	-0.000081
1541	1.5323e+02	-18.6460	-135.474164	0.000111	1.114767	0.377693	0.000045
1542	1.5333e+02	-18.6107	-135.534721	-0.000152	-1.520136	-0.515036	-0.000061
1543	1.5343e+02	-18.5642	-135.486275	0.000122	1.216109	0.412029	0.000049
1544	1.5353e+02	-18.5289	-135.514535	-0.000071	-0.709397	-0.240350	-0.000028
1545	1.5363e+02	-18.4808	-135.478201	0.000091	0.912082	0.309022	0.000037
1546	1.5373e+02	-18.4471	-135.502424	-0.000061	-0.608055	-0.206014	-0.000024
1547	1.5383e+02	-18.4038	-135.458015	0.000111	1.114767	0.377693	0.000045
1548	1.5393e+02	-18.3765	-135.449941	0.000020	0.202685	0.068671	0.000008
1549	1.5403e+02	-18.3268	-135.413607	0.000091	0.912082	0.309022	0.000037
1550	1.5413e+02	-18.2931	-135.377273	0.000091	0.912082	0.309022	0.000037
1551	1.5422e+02	-18.2465	-135.353050	0.000061	0.608055	0.206014	0.000024
1552	1.5432e+02	-18.2113	-135.336901	0.000041	0.405370	0.137343	0.000016
1553	1.5442e+02	-18.1760	-135.276344	0.000152	1.520136	0.515036	0.000061
1554	1.5452e+02	-18.1214	-135.211750	0.000162	1.621479	0.549372	0.000065
1555	1.5462e+02	-18.0845	-135.231936	-0.000051	-0.506712	-0.171679	-0.000020
1556	1.5472e+02	-18.0556	-135.151193	0.000203	2.026848	0.686715	0.000081
1557	1.5482e+02	-18.0155	-135.090636	0.000152	1.520136	0.515036	0.000061
1558	1.5492e+02	-17.9610	-135.009893	0.000203	2.026848	0.686715	0.000081
1559	1.5502e+02	-17.9289	-134.993745	0.000041	0.405370	0.137343	0.000016
1560	1.5512e+02	-17.8904	-134.896854	0.000243	2.432218	0.824058	0.000097
1561	1.5522e+02	-17.8439	-134.888779	0.000020	0.202685	0.068671	0.000008
1562	1.5532e+02	-17.8070	-134.803999	0.000213	2.128191	0.721051	0.000085
1563	1.5542e+02	-17.7717	-134.763628	0.000101	1.013424	0.343357	0.000041
1564	1.5552e+02	-17.7300	-134.670774	0.000233	2.330876	0.789722	0.000093
1565	1.5562e+02	-17.6883	-134.602143	0.000172	1.722821	0.583708	0.000069
1566	1.5572e+02	-17.6482	-134.505251	0.000243	2.432218	0.824058	0.000097
1567	1.5582e+02	-17.6065	-134.476991	0.000071	0.709397	0.240350	0.000028
1568	1.5592e+02	-17.5760	-134.367989	0.000274	2.736245	0.927065	0.000110
1569	1.5602e+02	-17.5295	-134.303395	0.000162	1.621479	0.549372	0.000065
1570	1.5612e+02	-17.4910	-134.198429	0.000263	2.634903	0.892729	0.000105
1571	1.5622e+02	-17.4508	-134.158058	0.000101	1.013424	0.343357	0.000041
1572	1.5631e+02	-17.4075	-134.024832	0.000334	3.344300	1.133079	0.000134
1573	1.5641e+02	-17.3674	-133.960238	0.000162	1.621479	0.549372	0.000065
1574	1.5651e+02	-17.3369	-133.851235	0.000274	2.736245	0.927065	0.000110
1575	1.5661e+02	-17.3000	-133.742233	0.000274	2.736245	0.927065	0.000110
1576	1.5671e+02	-17.2535	-133.649379	0.000233	2.330876	0.789722	0.000093
1577	1.5681e+02	-17.2134	-133.536339	0.000284	2.837588	0.961401	0.000114
1578	1.5691e+02	-17.1685	-133.471745	0.000162	1.621479	0.549372	0.000065
1579	1.5701e+02	-17.1364	-133.326408	0.000365	3.648327	1.236087	0.000146
1580	1.5711e+02	-17.1059	-133.281999	0.000111	1.114767	0.377693	0.000045
1581	1.5721e+02	-17.0482	-133.120514	0.000405	4.053697	1.373430	0.000162
1582	1.5731e+02	-17.0113	-133.080142	0.000101	1.013424	0.343357	0.000041
1583	1.5741e+02	-16.9744	-132.975177	0.000263	2.634903	0.892729	0.000105
1584	1.5751e+02	-16.9311	-132.825803	0.000375	3.749670	1.270422	0.000150
1585	1.5761e+02	-16.8942	-132.696615	0.000324	3.242957	1.098744	0.000130
1586	1.5771e+02	-16.8493	-132.619909	0.000193	1.925506	0.652379	0.000077
1587	1.5781e+02	-16.8108	-132.506869	0.000284	2.837588	0.961401	0.000114
1588	1.5791e+02	-16.7787	-132.361532	0.000365	3.648327	1.236087	0.000146
1589	1.5801e+02	-16.7386	-132.276752	0.000213	2.128191	0.721051	0.000085
1590	1.5811e+02	-16.6969	-132.111230	0.000416	4.155039	1.407765	0.000166
1591	1.5821e+02	-16.6584	-131.986079	0.000314	3.141615	1.064408	0.000126
1592	1.5830e+02	-16.6102	-131.937633	0.000122	1.216109	0.412029	0.000049
1593	1.5840e+02	-16.5733	-131.792296	0.000365	3.648327	1.236087	0.000146
1594	1.5850e+02	-16.5445	-131.703479	0.000223	2.229533	0.755386	0.000089
1595	1.5860e+02	-16.4947	-131.554105	0.000375	3.749670	1.270422	0.000150
1596	1.5870e+02	-16.4482	-131.432991	0.000304	3.040273	1.030072	0.000122
1597	1.5880e+02	-16.4017	-131.319951	0.000284	2.837588	0.961401	0.000114
1598	1.5890e+02	-16.3776	-131.174614	0.000365	3.648327	1.236087	0.000146
1599	1.5900e+02	-16.3327	-131.061575	0.000284	2.837588	0.961401	0.000114
1600	1.5910e+02	-16.2958	-130.960646	0.000253	2.533560	0.858394	0.000101
1601	1.5920e+02	-16.2573	-130.843569	0.000294	2.938930	0.995736	0.000118
1602	1.5930e+02	-16.2204	-130.702270	0.000355	3.546985	1.201751	0.000142
1603	1.5940e+02	-16.1723	-130.560970	0.000355	3.546985	1.201751	0.000142
1604	1.5950e+02	-16.1370	-130.435819	0.000314	3.141615	1.064408	0.000126
1605	1.5960e+02	-16.1049	-130.270296	0.000416	4.155039	1.407765	0.000166
1606	1.5970e+02	-16.0584	-130.165330	0.000263	2.634903	0.892729	0.000105
1607	1.5980e+02	-16.0199	-130.052291	0.000284	2.837588	0.961401	0.000114
1608	1.5990e+02	-15.9750	-129.943288	0.000274	2.736245	0.927065	0.000110
1609	1.6000e+02	-15.9381	-129.777765	0.000416	4.155039	1.407765	0.000166
1610	1.6010e+02	-15.9060	-129.620317	0.000395	3.952354	1.339094	0.000158
1611	1.6019e+02	-15.8594	-129.535537	0.000213	2.128191	0.721051	0.000085
1612	1.6029e+02	-15.8193	-129.374052	0.000405	4.053697	1.373430	0.000162
1613	1.6039e+02	-15.7776	-129.220641	0.000385	3.851012	1.304758	0.000154
1614	1.6049e+02	-15.7391	-129.119712	0.000253	2.533560	0.858394	0.000101
1615	1.6059e+02	-15.6990	-128.929967	0.000476	4.763094	1.613780	0.000191
1616	1.6069e+02	-15.6589	-128.812890	0.000294	2.938930	0.995736	0.000118
1617	1.6079e+02	-15.6172	-128.659479	0.000385	3.851012	1.304758	0.000154
1618	1.6089e+02	-15.5755	-128.538365	0.000304	3.040273	1.030072	0.000122
1619	1.6099e+02	-15.5530	-128.421288	0.000294	2.938930	0.995736	0.000118
1620	1.6109e+02	-15.4985	-128.267877	0.000385	3.851012	1.304758	0.000154
1621	1.6119e+02	-15.4632	-128.110428	0.000395	3.952354	1.339094	0.000158
1622	1.6129e+02	-15.4199	-127.989314	0.000304	3.040273	1.030072	0.000122
1623	1.6139e+02	-15.3766	-127.835903	0.000385	3.851012	1.304758	0.000154
1624	1.6149e+02	-15.3413	-127.682492	0.000385	3.851012	1.304758	0.000154
1625	1.6159e+02	-15.3060	-127.545229	0.000345	3.445642	1.167415	0.000138
1626	1.6169e+02	-15.2611	-127.395855	0.000375	3.749670	1.270422	0.000150
1627	1.6179e+02	-15.2194	-127.266667	0.000324	3.242957	1.098744	0.000130
1628	1.6189e+02	-15.1696	-127.153627	0.000284	2.837588	0.961401	0.000114
1629	1.6199e+02	-15.1375	-126.988105	0.000416	4.155039	1.407765	0.000166
1630	1.6209e+02	-15.0958	-126.826619	0.000405	4.053697	1.373430	0.000162
1631	1.6219e+02	-15.0654	-126.685319	0.000355	3.546985	1.201751	0.000142
1632	1.6228e+02	-15.0188	-126.511723	0.000436	4.357724	1.476437	0.000174
1633	1.6238e+02	-14.9819	-126.382534	0.000324	3.242957	1.098744	0.000130
1634	1.6248e+02	-14.9370	-126.265457	0.000294	2.938930	0.995736	0.000118
1635	1.6258e+02	-14.9049	-126.063601	0.000507	5.067121	1.716787	0.000203
1636	1.6268e+02	-14.8632	-125.950561	0.000284	2.837588	0.961401	0.000114
1637	1.6278e+02	-14.8279	-125.768890	0.000456	4.560409	1.545108	0.000183
1638	1.6288e+02	-14.7782	-125.643738	0.000314	3.141615	1.064408	0.000126
1639	1.6298e+02	-14.7349	-125.502439	0.000355	3.546985	1.201751	0.000142
1640	1.6308e+02	-14.7124	-125.320768	0.000456	4.560409	1.545108	0.000183
1641	1.6318e+02	-14.6595	-125.187542	0.000334	3.344300	1.133079	0.000134
1642	1.6328e+02	-14.6226	-125.046242	0.000355	3.546985	1.201751	0.000142
1643	1.6338e+02	-14.5857	-124.856497	0.000476	4.763094	1.613780	0.000191
1644	1.6348e+02	-14.5360	-124.755569	0.000253	2.533560	0.858394	0.000101
1645	1.6358e+02	-14.4975	-124.598120	0.000395	3.952354	1.339094	0.000158
1646	1.6368e+02	-14.4573	-124.428561	0.000426	4.256382	1.442101	0.000170
1647	1.6378e+02	-14.4237	-124.263038	0.000416	4.155039	1.407765	0.000166
1648	1.6388e+02	-14.3819	-124.121738	0.000355	3.546985	1.201751	0.000142
1649	1.6398e+02	-14.3515	-124.004661	0.000294	2.938930	0.995736	0.000118
1650	1.6408e+02	-14.3017	-123.786656	0.000547	5.472491	1.854130	0.000219
1651	1.6418e+02	-14.2584	-123.673616	0.000284	2.837588	0.961401	0.000114
1652	1.6427e+02	-14.2328	-123.512131	0.000405	4.053697	1.373430	0.000162
1653	1.6437e+02	-14.1814	-123.350645	0.000405	4.053697	1.373430	0.000162
1654	1.6447e+02	-14.1381	-123.205308	0.000365	3.648327	1.236087	0.000146
1655	1.6457e+02	-14.0964	-123.011526	0.000486	4.864436	1.648116	0.000195
1656	1.6467e+02	-14.0611	-122.866189	0.000365	3.648327	1.236087	0.000146
1657	1.6477e+02	-14.0258	-122.704704	0.000405	4.053697	1.373430	0.000162
1658	1.6487e+02	-13.9825	-122.514958	0.000476	4.763094	1.613780	0.000191
1659	1.6497e+02	-13.9520	-122.393844	0.000304	3.040273	1.030072	0.000122
1660	1.6507e+02	-13.9087	-122.240433	0.000385	3.851012	1.304758	0.000154
1661	1.6517e+02	-13.8654	-122.066836	0.000436	4.357724	1.476437	0.000174
1662	1.6527e+02	-13.8285	-121.905351	0.000405	4.053697	1.373430	0.000162
1663	1.6537e+02	-13.7788	-121.727717	0.000446	4.459066	1.510773	0.000179
1664	1.6547e+02	-13.7338	-121.533934	0.000486	4.864436	1.648116	0.000195
1665	1.6557e+02	-13.7082	-121.392635	0.000355	3.546985	1.201751	0.000142
1666	1.6567e+02	-13.6649	-121.227112	0.000416	4.155039	1.407765	0.000166
1667	1.6577e+02	-13.6215	-121.077738	0.000375	3.749670	1.270422	0.000150
1668	1.6587e+02	-13.5895	-120.928364	0.000375	3.749670	1.270422	0.000150
1669	1.6597e+02	-13.5510	-120.754767	0.000436	4.357724	1.476437	0.000174
1670	1.6607e+02	-13.5060	-120.613467	0.000355	3.546985	1.201751	0.000142
1671	1.6616e+02	-13.4788	-120.439870	0.000436	4.357724	1.476437	0.000174
1672	1.6626e+02	-13.4226	-120.262237	0.000446	4.459066	1.510773	0.000179
1673	1.6636e+02	-13.3937	-120.108825	0.000385	3.851012	1.304758	0.000154
1674	1.6646e+02	-13.3440	-119.923117	0.000466	4.661751	1.579444	0.000187
1675	1.6656e+02	-13.3103	-119.793929	0.000324	3.242957	1.098744	0.000130
1676	1.6666e+02	-13.2718	-119.608221	0.000466	4.661751	1.579444	0.000187
1677	1.6676e+02	-13.2253	-119.474995	0.000334	3.344300	1.133079	0.000134
1678	1.6686e+02	-13.1868	-119.261027	0.000537	5.371148	1.819794	0.000215
1679	1.6696e+02	-13.1467	-119.087430	0.000436	4.357724	1.476437	0.000174
1680	1.6706e+02	-13.1082	-118.905759	0.000456	4.560409	1.545108	0.000183
1681	1.6716e+02	-13.0729	-118.756385	0.000375	3.749670	1.270422	0.000150
1682	1.6726e+02	-13.0232	-118.578751	0.000446	4.459066	1.510773	0.000179
1683	1.6736e+02	-12.9831	-118.376894	0.000507	5.067121	1.716787	0.000203
1684	1.6746e+02	-12.9526	-118.243669	0.000334	3.344300	1.133079	0.000134
1685	1.6756e+02	-12.9173	-118.078146	0.000416	4.155039	1.407765	0.000166
1686	1.6766e+02	-12.8643	-117.880326	0.000497	4.965779	1.682451	0.000199
1687	1.6776e+02	-12.8290	-117.751138	0.000324	3.242957	1.098744	0.000130
1688	1.6786e+02	-12.7889	-117.561393	0.000476	4.763094	1.613780	0.000191
1689	1.6796e+02	-12.7537	-117.391833	0.000426	4.256382	1.442101	0.000170
1690	1.6806e+02	-12.7119	-117.238422	0.000385	3.851012	1.304758	0.000154
1691	1.6816e+02	-12.6718	-117.064825	0.000436	4.357724	1.476437	0.000174
1692	1.6825e+02	-12.6349	-116.871042	0.000486	4.864436	1.648116	0.000195
1693	1.6835e+02	-12.5980	-116.681297	0.000476	4.763094	1.613780	0.000191
1694	1.6845e+02	-12.5467	-116.519812	0.000405	4.053697	1.373430	0.000162
1695	1.6855e+02	-12.5018	-116.346215	0.000436	4.357724	1.476437	0.000174
1696	1.6865e+02	-12.4697	-116.200878	0.000365	3.648327	1.236087	0.000146
1697	1.6875e+02	-12.4312	-115.954613	0.000618	6.181888	2.094480	0.000248
1698	1.6885e+02	-12.3943	-115.809276	0.000365	3.648327	1.236087	0.000146
1699	1.6895e+02	-12.3510	-115.651827	0.000395	3.952354	1.339094	0.000158
1700	1.6905e+02	-12.3189	-115.502453	0.000375	3.749670	1.270422	0.000150
1701	1.6915e+02	-12.2724	-115.248114	0.000638	6.384572	2.163152	0.000256
1702	1.6925e+02	-12.2323	-115.118926	0.000324	3.242957	1.098744	0.000130
1703	1.6935e+02	-12.1970	-114.921106	0.000497	4.965779	1.682451	0.000199
1704	1.6945e+02	-12.1617	-114.767695	0.000385	3.851012	1.304758	0.000154
1705	1.6955e+02	-12.1087	-114.602172	0.000416	4.155039	1.407765	0.000166
1706	1.6965e+02	-12.0847	-114.420501	0.000456	4.560409	1.545108	0.000183
1707	1.6975e+02	-12.0334	-114.238830	0.000456	4.560409	1.545108	0.000183
1708	1.6985e+02	-11.9916	-114.053122	0.000466	4.661751	1.579444	0.000187
1709	1.6995e+02	-11.9563	-113.867413	0.000466	4.661751	1.579444	0.000187
1710	1.7005e+02	-11.9130	-113.677668	0.000476	4.763094	1.613780	0.000191
1711	1.7015e+02	-11.8842	-113.504071	0.000436	4.357724	1.476437	0.000174
1712	1.7024e+02	-11.8328	-113.334512	0.000426	4.256382	1.442101	0.000170
1713	1.7034e+02	-11.7959	-113.100358	0.000588	5.877860	1.991473	0.000235
1714	1.7044e+02	-11.7494	-112.959058	0.000355	3.546985	1.201751	0.000142
1715	1.7054e+02	-11.7109	-112.749127	0.000527	5.269806	1.785459	0.000211
1716	1.7064e+02	-11.6740	-112.607827	0.000355	3.546985	1.201751	0.000142
1717	1.7074e+02	-11.6307	-112.381748	0.000568	5.675175	1.922802	0.000227
1718	1.7084e+02	-11.5922	-112.196039	0.000466	4.661751	1.579444	0.000187
1719	1.7094e+02	-11.5505	-112.042628	0.000385	3.851012	1.304758	0.000154
1720	1.7104e+02	-11.5104	-111.840771	0.000507	5.067121	1.716787	0.000203
1721	1.7114e+02	-11.4783	-111.663137	0.000446	4.459066	1.510773	0.000179
1722	1.7124e+02	-11.4382	-111.513763	0.000375	3.749670	1.270422	0.000150
1723	1.7134e+02	-11.3981	-111.283647	0.000578	5.776518	1.957137	0.000231
1724	1.7144e+02	-11.3532	-111.118124	0.000416	4.155039	1.407765	0.000166
1725	1.7154e+02	-11.3211	-110.916267	0.000507	5.067121	1.716787	0.000203
1726	1.7164e+02	-11.2729	-110.698262	0.000547	5.472491	1.854130	0.000219
1727	1.7174e+02	-11.2425	-110.528702	0.000426	4.256382	1.442101	0.000170
1728	1.7184e+02	-11.2024	-110.334920	0.000486	4.864436	1.648116	0.000195
1729	1.7194e+02	-11.1526	-110.181509	0.000385	3.851012	1.304758	0.000154
1730	1.7204e+02	-11.1125	-109.955429	0.000568	5.675175	1.922802	0.000227
1731	1.7213e+02	-11.0724	-109.789906	0.000416	4.155039	1.407765	0.000166
1732	1.7223e+02	-11.0355	-109.624384	0.000416	4.155039	1.407765	0.000166
1733	1.7233e+02	-10.9874	-109.410416	0.000537	5.371148	1.819794	0.000215
1734	1.7243e+02	-10.9617	-109.248930	0.000405	4.053697	1.373430	0.000162
1735	1.7253e+02	-10.9296	-109.018813	0.000578	5.776518	1.957137	0.000231
1736	1.7263e+02	-10.8783	-108.837142	0.000456	4.560409	1.545108	0.000183
1737	1.7273e+02	-10.8366	-108.659508	0.000446	4.459066	1.510773	0.000179
1738	1.7283e+02	-10.7965	-108.489949	0.000426	4.256382	1.442101	0.000170
1739	1.7293e+02	-10.7532	-108.308278	0.000456	4.560409	1.545108	0.000183
1740	1.7303e+02	-10.7211	-108.074124	0.000588	5.877860	1.991473	0.000235
1741	1.7313e+02	-10.6794	-107.888415	0.000466	4.661751	1.579444	0.000187
1742	1.7323e+02	-10.6377	-107.702707	0.000466	4.661751	1.579444	0.000187
1743	1.7333e+02	-10.6008	-107.508925	0.000486	4.864436	1.648116	0.000195
1744	1.7343e+02	-10.5559	-107.339365	0.000426	4.256382	1.442101	0.000170
1745	1.7353e+02	-10.5190	-107.141545	0.000497	4.965779	1.682451	0.000199
1746	1.7363e+02	-10.4740	-106.923540	0.000547	5.472491	1.854130	0.000219
1747	1.7373e+02	-10.4371	-106.782240	0.000355	3.546985	1.201751	0.000142
1748	1.7383e+02	-10.4002	-106.531938	0.000628	6.283230	2.128816	0.000252
1749	1.7393e+02	-10.3601	-106.370452	0.000405	4.053697	1.373430	0.000162
1750	1.7403e+02	-10.3168	-106.168596	0.000507	5.067121	1.716787	0.000203
1751	1.7413e+02	-10.2799	-105.970776	0.000497	4.965779	1.682451	0.000199
1752	1.7422e+02	-10.2398	-105.797179	0.000436	4.357724	1.476437	0.000174
1753	1.7432e+02	-10.2013	-105.575137	0.000557	5.573833	1.888466	0.000223
1754	1.7442e+02	-10.1548	-105.357131	0.000547	5.472491	1.854130	0.000219
1755	1.7452e+02	-10.1259	-105.151237	0.000517	5.168463	1.751123	0.000207
1756	1.7462e+02	-10.0746	-104.989752	0.000405	4.053697	1.373430	0.000162
1757	1.7472e+02	-10.0377	-104.767710	0.000557	5.573833	1.888466	0.000223
1758	1.7482e+02	-10.0024	-104.590076	0.000446	4.459066	1.510773	0.000179
1759	1.7492e+02	-9.9655	-104.404367	0.000466	4.661751	1.579444	0.000187
1760	1.7502e+02	-9.9238	-104.218659	0.000466	4.661751	1.579444	0.000187
1761	1.7512e+02	-9.8789	-104.008728	0.000527	5.269806	1.785459	0.000211
1762	1.7522e+02	-9.8436	-103.847243	0.000405	4.053697	1.373430	0.000162
1763	1.7532e+02	-9.8035	-103.613089	0.000588	5.877860	1.991473	0.000235
1764	1.7542e+02	-9.7585	-103.439492	0.000436	4.357724	1.476437	0.000174
1765	1.7552e+02	-9.7265	-103.209375	0.000578	5.776518	1.957137	0.000231
1766	1.7562e+02	-9.6831	-103.035778	0.000436	4.357724	1.476437	0.000174
1767	1.7572e+02	-9.6430	-102.846033	0.000476	4.763094	1.613780	0.000191
1768	1.7582e+02	-9.6045	-102.652250	0.000486	4.864436	1.648116	0.000195
1769	1.7592e+02	-9.5660	-102.458468	0.000486	4.864436	1.648116	0.000195
1770	1.7602e+02	-9.5243	-102.240463	0.000547	5.472491	1.854130	0.000219
1771	1.7612e+02	-9.4762	-102.038606	0.000507	5.067121	1.716787	0.000203
1772	1.7621e+02	-9.4441	-101.852898	0.000466	4.661751	1.579444	0.000187
1773	1.7631e+02	-9.4104	-101.655078	0.000497	4.965779	1.682451	0.000199
1774	1.7641e+02	-9.3655	-101.445147	0.000527	5.269806	1.785459	0.000211
1775	1.7651e+02	-9.3174	-101.259439	0.000466	4.661751	1.579444	0.000187
1776	1.7661e+02	-9.2885	-101.085842	0.000436	4.357724	1.476437	0.000174
1777	1.7671e+02	-9.2404	-100.847651	0.000598	5.979203	2.025809	0.000239
1778	1.7681e+02	-9.2099	-100.665980	0.000456	4.560409	1.545108	0.000183
1779	1.7691e+02	-9.1602	-100.423751	0.000608	6.080545	2.060144	0.000243
1780	1.7701e+02	-9.1217	-100.254192	0.000426	4.256382	1.442101	0.000170
1781	1.7711e+02	-9.0944	-100.084632	0.000426	4.256382	1.442101	0.000170
1782	1.7721e+02	-9.0495	-99.862590	0.000557	5.573833	1.888466	0.000223
1783	1.7731e+02	-8.9981	-99.664770	0.000497	4.965779	1.682451	0.000199
1784	1.7741e+02	-8.9596	-99.470987	0.000486	4.864436	1.648116	0.000195
1785	1.7751e+02	-8.9211	-99.281242	0.000476	4.763094	1.613780	0.000191
1786	1.7761e+02	-8.8810	-99.006717	0.000689	6.891285	2.334830	0.000276
1787	1.7771e+02	-8.8457	-98.849269	0.000395	3.952354	1.339094	0.000158
1788	1.7781e+02	-8.8040	-98.635300	0.000537	5.371148	1.819794	0.000215
1789	1.7791e+02	-8.7575	-98.421332	0.000537	5.371148	1.819794	0.000215
1790	1.7801e+02	-8.7270	-98.207364	0.000537	5.371148	1.819794	0.000215
1791	1.7810e+02	-8.6821	-98.033767	0.000436	4.357724	1.476437	0.000174
1792	1.7820e+02	-8.6420	-97.783465	0.000628	6.283230	2.128816	0.000252
1793	1.7830e+02	-8.6003	-97.626016	0.000395	3.952354	1.339094	0.000158
1794	1.7840e+02	-8.5746	-97.387825	0.000598	5.979203	2.025809	0.000239
1795	1.7850e+02	-8.5249	-97.198080	0.000476	4.763094	1.613780	0.000191
1796	1.7860e+02	-8.4832	-97.008335	0.000476	4.763094	1.613780	0.000191
1797	1.7870e+02	-8.4447	-96.790329	0.000547	5.472491	1.854130	0.000219
1798	1.7880e+02	-8.4094	-96.588473	0.000507	5.067121	1.716787	0.000203
1799	1.7890e+02	-8.3725	-96.386616	0.000507	5.067121	1.716787	0.000203
1800	1.7900e+02	-8.3260	-96.208982	0.000446	4.459066	1.510773	0.000179
1801	1.7910e+02	-8.2891	-95.958679	0.000628	6.283230	2.128816	0.000252
1802	1.7920e+02	-8.2490	-95.789120	0.000426	4.256382	1.442101	0.000170
1803	1.7930e+02	-8.2073	-95.579189	0.000527	5.269806	1.785459	0.000211
1804	1.7940e+02	-8.1768	-95.377332	0.000507	5.067121	1.716787	0.000203
1805	1.7950e+02	-8.1158	-95.143178	0.000588	5.877860	1.991473	0.000235
1806	1.7960e+02	-8.0885	-94.941321	0.000507	5.067121	1.716787	0.000203
1807	1.7970e+02	-8.0532	-94.719279	0.000557	5.573833	1.888466	0.000223
1808	1.7980e+02	-8.0051	-94.513385	0.000517	5.168463	1.751123	0.000207
1809	1.7990e+02	-7.9778	-94.319602	0.000486	4.864436	1.648116	0.000195
1810	1.8000e+02	-7.9233	-94.117745	0.000507	5.067121	1.716787	0.000203
1811	1.8009e+02	-7.8848	-93.919926	0.000497	4.965779	1.682451	0.000199
1812	1.8019e+02	-7.8479	-93.669623	0.000628	6.283230	2.128816	0.000252
1813	1.8029e+02	-7.8174	-93.463729	0.000517	5.168463	1.751123	0.000207
1814	1.8039e+02	-7.7709	-93.273984	0.000476	4.763094	1.613780	0.000191
1815	1.8049e+02	-7.7212	-93.019645	0.000638	6.384572	2.163152	0.000256
1816	1.8059e+02	-7.6891	-92.829899	0.000476	4.763094	1.613780	0.000191
1817	1.8069e+02	-7.6474	-92.603820	0.000568	5.675175	1.922802	0.000227
1818	1.8079e+02	-7.6057	-92.389851	0.000537	5.371148	1.819794	0.000215
1819	1.8089e+02	-7.5720	-92.196069	0.000486	4.864436	1.648116	0.000195
1820	1.8099e+02	-7.5303	-91.990175	0.000517	5.168463	1.751123	0.000207
1821	1.8109e+02	-7.4918	-91.760058	0.000578	5.776518	1.957137	0.000231
1822	1.8119e+02	-7.4581	-91.533979	0.000568	5.675175	1.922802	0.000227
1823	1.8129e+02	-7.4132	-91.332122	0.000507	5.067121	1.716787	0.000203
1824	1.8139e+02	-7.3682	-91.102005	0.000578	5.776518	1.957137	0.000231
1825	1.8149e+02	-7.3378	-90.892074	0.000527	5.269806	1.785459	0.000211
1826	1.8159e+02	-7.2944	-90.665994	0.000568	5.675175	1.922802	0.000227
1827	1.8169e+02	-7.2559	-90.419729	0.000618	6.181888	2.094480	0.000248
1828	1.8179e+02	-7.2078	-90.246132	0.000436	4.357724	1.476437	0.000174
1829	1.8189e+02	-7.1757	-90.036201	0.000527	5.269806	1.785459	0.000211
1830	1.8199e+02	-7.1292	-89.789936	0.000618	6.181888	2.094480	0.000248
1831	1.8209e+02	-7.0923	-89.596153	0.000486	4.864436	1.648116	0.000195
1832	1.8218e+02	-7.0522	-89.357962	0.000598	5.979203	2.025809	0.000239
1833	1.8228e+02	-7.0121	-89.123809	0.000588	5.877860	1.991473	0.000235
1834	1.8238e+02	-6.9832	-88.958286	0.000416	4.155039	1.407765	0.000166
1835	1.8248e+02	-6.9319	-88.695872	0.000659	6.587257	2.231823	0.000264
1836	1.8258e+02	-6.8806	-88.477867	0.000547	5.472491	1.854130	0.000219
1837	1.8268e+02	-6.8469	-88.227564	0.000628	6.283230	2.128816	0.000252
1838	1.8278e+02	-6.8100	-88.062042	0.000416	4.155039	1.407765	0.000166
1839	1.8288e+02	-6.7731	-87.831925	0.000578	5.776518	1.957137	0.000231
1840	1.8298e+02	-6.7346	-87.601808	0.000578	5.776518	1.957137	0.000231
1841	1.8308e+02	-6.6977	-87.359580	0.000608	6.080545	2.060144	0.000243
1842	1.8318e+02	-6.6511	-87.149649	0.000527	5.269806	1.785459	0.000211
1843	1.8328e+02	-6.6175	-86.915495	0.000588	5.877860	1.991473	0.000235
1844	1.8338e+02	-6.5709	-86.685379	0.000578	5.776518	1.957137	0.000231
1845	1.8348e+02	-6.5276	-86.443150	0.000608	6.080545	2.060144	0.000243
1846	1.8358e+02	-6.4827	-86.237257	0.000517	5.168463	1.751123	0.000207
1847	1.8368e+02	-6.4442	-85.970806	0.000669	6.688600	2.266159	0.000268
1848	1.8378e+02	-6.4282	-85.833543	0.000345	3.445642	1.167415	0.000138
1849	1.8388e+02	-6.3752	-85.559018	0.000689	6.891285	2.334830	0.000276
1850	1.8398e+02	-6.3319	-85.341012	0.000547	5.472491	1.854130	0.000219
1851	1.8407e+02	-6.2934	-85.127044	0.000537	5.371148	1.819794	0.000215
1852	1.8417e+02	-6.2469	-84.880779	0.000618	6.181888	2.094480	0.000248
1853	1.8427e+02	-6.2164	-84.602217	0.000699	6.992627	2.369166	0.000280
1854	1.8437e+02	-6.1731	-84.444768	0.000395	3.952354	1.339094	0.000158
1855	1.8447e+02	-6.1282	-84.154094	0.000730	7.296654	2.472173	0.000292
1856	1.8457e+02	-6.1025	-83.948201	0.000517	5.168463	1.751123	0.000207
1857	1.8467e+02	-6.0640	-83.734232	0.000537	5.371148	1.819794	0.000215
1858	1.8477e+02	-6.0143	-83.463744	0.000679	6.789942	2.300495	0.000272
1859	1.8487e+02	-5.9822	-83.233628	0.000578	5.776518	1.957137	0.000231
1860	1.8497e+02	-5.9341	-83.031771	0.000507	5.067121	1.716787	0.000203
1861	1.8507e+02	-5.9004	-82.785505	0.000618	6.181888	2.094480	0.000248
1862	1.8517e+02	-5.8571	-82.563463	0.000557	5.573833	1.888466	0.000223
1863	1.8527e+02	-5.8186	-82.292975	0.000679	6.789942	2.300495	0.000272
1864	1.8537e+02	-5.7801	-82.083044	0.000527	5.269806	1.785459	0.000211
1865	1.8547e+02	-5.7383	-81.824667	0.000649	6.485915	2.197487	0.000260
1866	1.8557e+02	-5.6950	-81.602625	0.000557	5.573833	1.888466	0.000223
1867	1.8567e+02	-5.6629	-81.372508	0.000578	5.776518	1.957137	0.000231
1868	1.8577e+02	-5.6244	-81.097983	0.000689	6.891285	2.334830	0.000276
1869	1.8587e+02	-5.5811	-80.888052	0.000527	5.269806	1.785459	0.000211
1870	1.8597e+02	-5.5394	-80.657935	0.000578	5.776518	1.957137	0.000231
1871	1.8606e+02	-5.5041	-80.387447	0.000679	6.789942	2.300495	0.000272
1872	1.8616e+02	-5.4640	-80.137144	0.000628	6.283230	2.128816	0.000252
1873	1.8626e+02	-5.4207	-79.907028	0.000578	5.776518	1.957137	0.000231
1874	1.8636e+02	-5.3758	-79.693059	0.000537	5.371148	1.819794	0.000215
1875	1.8646e+02	-5.3373	-79.422571	0.000679	6.789942	2.300495	0.000272
1876	1.8656e+02	-5.2940	-79.156120	0.000669	6.688600	2.266159	0.000268
1877	1.8666e+02	-5.2667	-78.950226	0.000517	5.168463	1.751123	0.000207
1878	1.8676e+02	-5.2218	-78.703961	0.000618	6.181888	2.094480	0.000248
1879	1.8686e+02	-5.1785	-78.417325	0.000720	7.195312	2.437838	0.000288
1880	1.8696e+02	-5.1448	-78.195282	0.000557	5.573833	1.888466	0.000223
1881	1.8706e+02	-5.1047	-77.924794	0.000679	6.789942	2.300495	0.000272
1882	1.8716e+02	-5.0630	-77.731012	0.000486	4.864436	1.648116	0.000195
1883	1.8726e+02	-5.0164	-77.472635	0.000649	6.485915	2.197487	0.000260
1884	1.8736e+02	-4.9860	-77.194072	0.000699	6.992627	2.369166	0.000280
1885	1.8746e+02	-4.9442	-76.935696	0.000649	6.485915	2.197487	0.000260
1886	1.8756e+02	-4.9025	-76.721728	0.000537	5.371148	1.819794	0.000215
1887	1.8766e+02	-4.8576	-76.479499	0.000608	6.080545	2.060144	0.000243
1888	1.8776e+02	-4.8207	-76.225160	0.000638	6.384572	2.163152	0.000256
1889	1.8786e+02	-4.7774	-75.934486	0.000730	7.296654	2.472173	0.000292
1890	1.8796e+02	-4.7357	-75.708406	0.000568	5.675175	1.922802	0.000227
1891	1.8806e+02	-4.6972	-75.458104	0.000628	6.283230	2.128816	0.000252
1892	1.8815e+02	-4.6539	-75.183579	0.000689	6.891285	2.334830	0.000276
1893	1.8825e+02	-4.6234	-74.949425	0.000588	5.877860	1.991473	0.000235
1894	1.8835e+02	-4.5769	-74.707197	0.000608	6.080545	2.060144	0.000243
1895	1.8845e+02	-4.5480	-74.404412	0.000760	7.600681	2.575181	0.000304
1896	1.8855e+02	-4.5079	-74.170258	0.000588	5.877860	1.991473	0.000235
1897	1.8865e+02	-4.4582	-73.919955	0.000628	6.283230	2.128816	0.000252
1898	1.8875e+02	-4.4181	-73.677727	0.000608	6.080545	2.060144	0.000243
1899	1.8885e+02	-4.3876	-73.415313	0.000659	6.587257	2.231823	0.000264
1900	1.8895e+02	-4.3571	-73.116565	0.000750	7.499339	2.540845	0.000300
1901	1.8905e+02	-4.3074	-72.906634	0.000527	5.269806	1.785459	0.000211
1902	1.8915e+02	-4.2657	-72.668443	0.000598	5.979203	2.025809	0.000239
1903	1.8925e+02	-4.2239	-72.381807	0.000720	7.195312	2.437838	0.000288
1904	1.8935e+02	-4.1870	-72.163801	0.000547	5.472491	1.854130	0.000219
1905	1.8945e+02	-4.1405	-71.865053	0.000750	7.499339	2.540845	0.000300
1906	1.8955e+02	-4.1020	-71.590528	0.000689	6.891285	2.334830	0.000276
1907	1.8965e+02	-4.0635	-71.372523	0.000547	5.472491	1.854130	0.000219
1908	1.8975e+02	-4.0250	-71.073775	0.000750	7.499339	2.540845	0.000300
1909	1.8985e+02	-3.9833	-70.859806	0.000537	5.371148	1.819794	0.000215
1910	1.8995e+02	-3.9480	-70.548947	0.000780	7.803366	2.643852	0.000312
1911	1.9004e+02	-3.9031	-70.322867	0.000568	5.675175	1.922802	0.000227
1912	1.9014e+02	-3.8630	-70.007971	0.000790	7.904709	2.678188	0.000316
1913	1.9024e+02	-3.8357	-69.810151	0.000497	4.965779	1.682451	0.000199
1914	1.9034e+02	-3.7844	-69.503329	0.000770	7.702024	2.609516	0.000308
1915	1.9044e+02	-3.7411	-69.220729	0.000709	7.093969	2.403502	0.000284
1916	1.9054e+02	-3.6913	-68.978501	0.000608	6.080545	2.060144	0.000243
1917	1.9064e+02	-3.6625	-68.712050	0.000669	6.688600	2.266159	0.000268
1918	1.9074e+02	-3.6191	-68.465785	0.000618	6.181888	2.094480	0.000248
1919	1.9084e+02	-3.5919	-68.187223	0.000699	6.992627	2.369166	0.000280
1920	1.9094e+02	-3.5454	-67.916735	0.000679	6.789942	2.300495	0.000272
1921	1.9104e+02	-3.5101	-67.646246	0.000679	6.789942	2.300495	0.000272
1922	1.9114e+02	-3.4651	-67.412093	0.000588	5.877860	1.991473	0.000235
1923	1.9124e+02	-3.4250	-67.072973	0.000851	8.512763	2.884202	0.000341
1924	1.9134e+02	-3.3801	-66.850931	0.000557	5.573833	1.888466	0.000223
1925	1.9144e+02	-3.3480	-66.600628	0.000628	6.283230	2.128816	0.000252
1926	1.9154e+02	-3.3127	-66.289769	0.000780	7.803366	2.643852	0.000312
1927	1.9164e+02	-3.2582	-66.071763	0.000547	5.472491	1.854130	0.000219
1928	1.9174e+02	-3.2181	-65.732644	0.000851	8.512763	2.884202	0.000341
1929	1.9184e+02	-3.1956	-65.474267	0.000649	6.485915	2.197487	0.000260
1930	1.9194e+02	-3.1539	-65.228002	0.000618	6.181888	2.094480	0.000248
1931	1.9203e+02	-3.1138	-64.977700	0.000628	6.283230	2.128816	0.000252
1932	1.9213e+02	-3.0689	-64.711249	0.000669	6.688600	2.266159	0.000268
1933	1.9223e+02	-3.0304	-64.416538	0.000740	7.397997	2.506509	0.000296
1934	1.9233e+02	-2.9871	-64.133938	0.000709	7.093969	2.403502	0.000284
1935	1.9243e+02	-2.9454	-63.875562	0.000649	6.485915	2.197487	0.000260
1936	1.9253e+02	-2.9037	-63.637371	0.000598	5.979203	2.025809	0.000239
1937	1.9263e+02	-2.8716	-63.310363	0.000821	8.208736	2.781195	0.000329
1938	1.9273e+02	-2.8395	-63.108506	0.000507	5.067121	1.716787	0.000203
1939	1.9283e+02	-2.7866	-62.833981	0.000689	6.891285	2.334830	0.000276
1940	1.9293e+02	-2.7481	-62.498898	0.000841	8.411421	2.849867	0.000337
1941	1.9303e+02	-2.7144	-62.260707	0.000598	5.979203	2.025809	0.000239
1942	1.9313e+02	-2.6662	-61.970034	0.000730	7.296654	2.472173	0.000292
1943	1.9323e+02	-2.6293	-61.695508	0.000689	6.891285	2.334830	0.000276
1944	1.9333e+02	-2.5956	-61.404835	0.000730	7.296654	2.472173	0.000292
1945	1.9343e+02	-2.5539	-61.122235	0.000709	7.093969	2.403502	0.000284
1946	1.9353e+02	-2.5106	-60.835598	0.000720	7.195312	2.437838	0.000288
1947	1.9363e+02	-2.4673	-60.565110	0.000679	6.789942	2.300495	0.000272
1948	1.9373e+02	-2.4304	-60.234065	0.000831	8.310078	2.815531	0.000333
1949	1.9383e+02	-2.3855	-60.012023	0.000557	5.573833	1.888466	0.000223
1950	1.9393e+02	-2.3534	-59.725386	0.000720	7.195312	2.437838	0.000288
1951	1.9403e+02	-2.3197	-59.446824	0.000699	6.992627	2.369166	0.000280
1952	1.9412e+02	-2.2652	-59.140001	0.000770	7.702024	2.609516	0.000308
1953	1.9422e+02	-2.2315	-58.861439	0.000699	6.992627	2.369166	0.000280
1954	1.9432e+02	-2.1962	-58.574802	0.000720	7.195312	2.437838	0.000288
1955	1.9442e+02	-2.1593	-58.320463	0.000638	6.384572	2.163152	0.000256
1956	1.9452e+02	-2.1031	-58.025752	0.000740	7.397997	2.506509	0.000296
1957	1.9462e+02	-2.0775	-57.727004	0.000750	7.499339	2.540845	0.000300
1958	1.9472e+02	-2.0390	-57.444404	0.000709	7.093969	2.403502	0.000284
1959	1.9482e+02	-1.9892	-57.133545	0.000780	7.803366	2.643852	0.000312
1960	1.9492e+02	-1.9556	-56.867094	0.000669	6.688600	2.266159	0.000268
1961	1.9502e+02	-1.9155	-56.584495	0.000709	7.093969	2.403502	0.000284
1962	1.9512e+02	-1.8657	-56.269598	0.000790	7.904709	2.678188	0.000316
1963	1.9522e+02	-1.8385	-56.023333	0.000618	6.181888	2.094480	0.000248
1964	1.9532e+02	-1.7887	-55.676139	0.000872	8.715448	2.952874	0.000349
1965	1.9542e+02	-1.7631	-55.441985	0.000588	5.877860	1.991473	0.000235
1966	1.9552e+02	-1.7181	-55.155348	0.000720	7.195312	2.437838	0.000288
1967	1.9562e+02	-1.6780	-54.848526	0.000770	7.702024	2.609516	0.000308
1968	1.9572e+02	-1.6299	-54.541704	0.000770	7.702024	2.609516	0.000308
1969	1.9582e+02	-1.5898	-54.238919	0.000760	7.600681	2.575181	0.000304
1970	1.9592e+02	-1.5561	-53.984579	0.000638	6.384572	2.163152	0.000256
1971	1.9601e+02	-1.5112	-53.641423	0.000861	8.614106	2.918538	0.000345
1972	1.9611e+02	-1.4743	-53.346712	0.000740	7.397997	2.506509	0.000296
1973	1.9621e+02	-1.4326	-53.064112	0.000709	7.093969	2.403502	0.000284
1974	1.9631e+02	-1.3957	-52.781513	0.000709	7.093969	2.403502	0.000284
1975	1.9641e+02	-1.3524	-52.519099	0.000659	6.587257	2.231823	0.000264
1976	1.9651e+02	-1.3139	-52.192091	0.000821	8.208736	2.781195	0.000329
1977	1.9661e+02	-1.2722	-51.897380	0.000740	7.397997	2.506509	0.000296
1978	1.9671e+02	-1.2337	-51.578446	0.000801	8.006051	2.712524	0.000321
1979	1.9681e+02	-1.1935	-51.303921	0.000689	6.891285	2.334830	0.000276
1980	1.9691e+02	-1.1599	-50.980950	0.000811	8.107394	2.746859	0.000325
1981	1.9701e+02	-1.1214	-50.690276	0.000730	7.296654	2.472173	0.000292
1982	1.9711e+02	-1.0764	-50.395565	0.000740	7.397997	2.506509	0.000296
1983	1.9721e+02	-1.0363	-50.092780	0.000760	7.600681	2.575181	0.000304
1984	1.9731e+02	-0.9850	-49.769809	0.000811	8.107394	2.746859	0.000325
1985	1.9741e+02	-0.9625	-49.507396	0.000659	6.587257	2.231823	0.000264
1986	1.9751e+02	-0.9224	-49.168276	0.000851	8.512763	2.884202	0.000341
1987	1.9761e+02	-0.8743	-48.873565	0.000740	7.397997	2.506509	0.000296
1988	1.9771e+02	-0.8310	-48.530409	0.000861	8.614106	2.918538	0.000345
1989	1.9781e+02	-0.7989	-48.259921	0.000679	6.789942	2.300495	0.000272
1990	1.9791e+02	-0.7636	-47.932913	0.000821	8.208736	2.781195	0.000329
1991	1.9800e+02	-0.7139	-47.634165	0.000750	7.499339	2.540845	0.000300
1992	1.9810e+02	-0.6754	-47.359639	0.000689	6.891285	2.334830	0.000276
1993	1.9820e+02	-0.6385	-47.040706	0.000801	8.006051	2.712524	0.000321
1994	1.9830e+02	-0.5904	-46.721772	0.000801	8.006051	2.712524	0.000321
1995	1.9840e+02	-0.5470	-46.394764	0.000821	8.208736	2.781195	0.000329
1996	1.9850e+02	-0.5214	-46.071793	0.000811	8.107394	2.746859	0.000325
1997	1.9860e+02	-0.4781	-45.769008	0.000760	7.600681	2.575181	0.000304
1998	1.9870e+02	-0.4412	-45.474297	0.000740	7.397997	2.506509	0.000296
1999	1.9880e+02	-0.3914	-45.106918	0.000922	9.222160	3.124552	0.000369
2000	1.9890e+02	-0.3610	-44.816244	0.000730	7.296654	2.472173	0.000292
2001	1.9900e+02	-0.3208	-44.485199	0.000831	8.310078	2.815531	0.000333
2002	1.9910e+02	-0.2839	-44.214711	0.000679	6.789942	2.300495	0.000272
2003	1.9920e+02	-0.2342	-43.871554	0.000861	8.614106	2.918538	0.000345
2004	1.9930e+02	-0.1957	-43.588955	0.000709	7.093969	2.403502	0.000284
2005	1.9940e+02	-0.1636	-43.261947	0.000821	8.208736	2.781195	0.000329
2006	1.9950e+02	-0.1251	-42.918790	0.000861	8.614106	2.918538	0.000345
2007	1.9960e+02	-0.0786	-42.616005	0.000760	7.600681	2.575181	0.000304
2008	1.9970e+02	-0.0433	-42.321294	0.000740	7.397997	2.506509	0.000296
2009	1.9980e+02	-0.0016	-41.957952	0.000740	7.397997	2.506509	0.000365

Center data before PMax,+/-Pr and +/-Vc Calc.

PMax (uC/cm2):	1.36e+02
Pr (uC/cm2):	2.78e+01
-Pr (uC/cm2):	-4.20e+01
PLoss (uC/cm2):	-5.44e+01
-Vc:	-3.67e+00
C (Max-Eff) (nF):	6.78e-01
K (Eff):	2.30e+03
Vert. (+/-Pr) Shift (uC/cm2):	-7.08e+00
Offset (uC/cm2):	-1.25e+01

A (Loop Area - uC/cm2·Volts):	9.38e-02



Hysteresis Version: 5.48.1 - Radiant Technologies, Inc., 1999 - 9/12/24

