»»»»»»»»»»»»»»»»»»»»»»»»»»»»»»»»»»»» Hysteresis ««««««««««««««««««««««««««««««««««««
»»»  Executed Version:	5.48.1
»»»  Vision Version:	5.48.4 (R)
»»»  Vision Compiled:	9/18/24
»»»  Driver Version:	5.47.0
»»»  Windows Version:	Windows 8 or 8.1
»»»  Processor Information:	x86 (AMD or Intel) - 32 Processors
»»»  Tester Name:	PMF21124-494 (100V)
»»»  Tester S/N:	PMF21124-494
»»»  Internal Amp Type:	100V RevK 270k
»»»  Internal Amp S/N:	iAB2-596/K     
»»»  Execution Count:	1
»»»»»»»»»»»»»»»»»»»»»»»»»»»»»»»»»»»»»»»»»»««««««««««««««««««««««««««««««««««««««««««

Stored:	6/5/2025 - 15:47:29
Configured:	06/05/25 02:51:50 PM
Executed:	06/05/25 03:46:51 PM

»»»»»»»»»»»»»»»»»»»»»»»»»»»»»»»»»»» Sample Info ««««««««««««««««««««««««««««««««««««
Sample Name:	
Lot Name:	
Wafer Name:	
Die Row/Column:	0/0
Capacitor Number:	0
Sample Area (cm2):	1.00e-04
Sample Thickness (microns):	3.00e-01

Amplifier:	Internal

»»»»»»»»»»»»»»»»»»»»»»»»»»»»»»»»»»» Tester Info «««««««««««««««««««««««««««««««««««
Tester Name:	PMF21124-494 (100V)
Tester Serial Number:	PMF21124-494
Return Signal Amp. Level:	0.19 [Index: 3]

»»»»»»»»»»»»»»»»»»»»»»»»»»»»»»»» Hysteresis Info ««««««««««««««««««««««««««««««««««
Task Name:	Hyst-353
Volts:	20.00
Field:	666.67 (kV/cm)
DCBias:	0.00
DCField:	0.00 (kV/cm)
Hysteresis Period (ms):	1.00e+00
Preset:	Enabled
Preset Delay (ms):	1.00e+03
Profile:	Standard Bipolar

»»»»»»»»»»»»»»»»»»»»»»»»»»»»»»»»»»»»»» Data «««««««««««««««««««««««««««««««««««««««
Points:	2001

Valid Data

Point	Time (ms)	Drive Voltage	Measured Polarization (uC/cm2)	Capacitance (uF)	Normalized Capacitance (uF/cm2)	Dielectric Constant	Instantaneous Current (mA)
   1	0.0000e+00	0.0176	5.394269	0.000051	0.505110	0.171136	0.004033
   2	5.0000e-04	0.0241	5.414435	0.000051	0.505110	0.171136	0.004033
   3	1.0000e-03	0.0578	5.462832	0.000121	1.212265	0.410727	0.009679
   4	1.5000e-03	0.0979	5.547527	0.000212	2.121464	0.718771	0.016939
   5	2.0000e-03	0.1283	5.817745	0.000677	6.768480	2.293223	0.054044
   6	2.5000e-03	0.1668	6.281551	0.001162	11.617540	3.936129	0.092761
   7	3.0000e-03	0.2086	6.511438	0.000576	5.758259	1.950951	0.045977
   8	3.5000e-03	0.2471	6.729225	0.000546	5.455193	1.848269	0.043557
   9	4.0000e-03	0.2872	7.059939	0.000828	8.283811	2.806631	0.066143
  10	4.5000e-03	0.3208	7.435017	0.000940	9.395054	3.183131	0.075016
  11	5.0000e-03	0.3610	7.697169	0.000657	6.566436	2.224769	0.052430
  12	5.5000e-03	0.4075	7.959320	0.000657	6.566436	2.224769	0.052430
  13	6.0000e-03	0.4508	8.201306	0.000606	6.061325	2.053633	0.048397
  14	6.5000e-03	0.4941	8.544119	0.000859	8.586878	2.909313	0.068563
  15	7.0000e-03	0.5214	8.786105	0.000606	6.061325	2.053633	0.048397
  16	7.5000e-03	0.5727	9.116819	0.000828	8.283811	2.806631	0.066143
  17	8.0000e-03	0.6032	9.383004	0.000667	6.667458	2.258996	0.053237
  18	8.5000e-03	0.6497	9.669354	0.000717	7.172568	2.430132	0.057270
  19	9.0000e-03	0.6898	9.967803	0.000748	7.475635	2.532814	0.059690
  20	9.5000e-03	0.7347	10.242054	0.000687	6.869502	2.327450	0.054850
  21	1.0000e-02	0.7700	10.576801	0.000838	8.384834	2.840859	0.066949
  22	1.0500e-02	0.8053	10.923648	0.000869	8.687900	2.943540	0.069369
  23	1.1000e-02	0.8535	11.153534	0.000576	5.758259	1.950951	0.045977
  24	1.1500e-02	0.8775	11.415686	0.000657	6.566436	2.224769	0.052430
  25	1.2000e-02	0.9256	11.746400	0.000828	8.283811	2.806631	0.066143
  26	1.2500e-02	0.9722	12.028717	0.000707	7.071546	2.395905	0.056463
  27	1.3000e-02	1.0091	12.323133	0.000737	7.374613	2.498586	0.058883
  28	1.3500e-02	1.0524	12.690145	0.000919	9.193010	3.114676	0.073402
  29	1.4000e-02	1.0845	12.928098	0.000596	5.960303	2.019405	0.047591
  30	1.4500e-02	1.1310	13.170083	0.000606	6.061325	2.053633	0.048397
  31	1.5000e-02	1.1695	13.476599	0.000768	7.677679	2.601268	0.061303
  32	1.5500e-02	1.2080	13.831512	0.000889	8.889944	3.011995	0.070983
  33	1.6000e-02	1.2465	14.113829	0.000707	7.071546	2.395905	0.056463
  34	1.6500e-02	1.2914	14.464708	0.000879	8.788922	2.977767	0.070176
  35	1.7000e-02	1.3251	14.718793	0.000636	6.364392	2.156314	0.050817
  36	1.7500e-02	1.3716	15.009176	0.000727	7.273591	2.464359	0.058077
  37	1.8000e-02	1.4101	15.360056	0.000879	8.788922	2.977767	0.070176
  38	1.8500e-02	1.4454	15.602042	0.000606	6.061325	2.053633	0.048397
  39	1.9000e-02	1.4887	15.928723	0.000818	8.182789	2.772404	0.065336
  40	1.9500e-02	1.5288	16.174742	0.000616	6.162348	2.087860	0.049204
  41	2.0000e-02	1.5770	16.420761	0.000616	6.162348	2.087860	0.049204
  42	2.0500e-02	1.6042	16.731310	0.000778	7.778701	2.635495	0.062110
  43	2.1000e-02	1.6556	17.017660	0.000717	7.172568	2.430132	0.057270
  44	2.1500e-02	1.6893	17.364506	0.000869	8.687900	2.943540	0.069369
  45	2.2000e-02	1.7294	17.679088	0.000788	7.879723	2.669722	0.062916
  46	2.2500e-02	1.7711	18.025934	0.000869	8.687900	2.943540	0.069369
  47	2.3000e-02	1.8096	18.267920	0.000606	6.061325	2.053633	0.048397
  48	2.3500e-02	1.8593	18.550237	0.000707	7.071546	2.395905	0.056463
  49	2.4000e-02	1.8850	18.872885	0.000808	8.081767	2.738177	0.064530
  50	2.4500e-02	1.9203	19.159235	0.000717	7.172568	2.430132	0.057270
  51	2.5000e-02	1.9700	19.493982	0.000838	8.384834	2.840859	0.066949
  52	2.5500e-02	2.0149	19.723869	0.000576	5.758259	1.950951	0.045977
  53	2.6000e-02	2.0470	19.977954	0.000636	6.364392	2.156314	0.050817
  54	2.6500e-02	2.0839	20.373198	0.000990	9.900165	3.354267	0.079049
  55	2.7000e-02	2.1336	20.728110	0.000889	8.889944	3.011995	0.070983
  56	2.7500e-02	2.1721	20.990262	0.000657	6.566436	2.224769	0.052430
  57	2.8000e-02	2.2187	21.264512	0.000687	6.869502	2.327450	0.054850
  58	2.8500e-02	2.2475	21.562962	0.000748	7.475635	2.532814	0.059690
  59	2.9000e-02	2.2892	21.780749	0.000546	5.455193	1.848269	0.043557
  60	2.9500e-02	2.3261	22.119529	0.000849	8.485856	2.875086	0.067756
  61	3.0000e-02	2.3662	22.514773	0.000990	9.900165	3.354267	0.079049
  62	3.0500e-02	2.3967	22.845487	0.000828	8.283811	2.806631	0.066143
  63	3.1000e-02	2.4465	23.131837	0.000717	7.172568	2.430132	0.057270
  64	3.1500e-02	2.5026	23.337525	0.000515	5.152127	1.745588	0.041138
  65	3.2000e-02	2.5299	23.688405	0.000879	8.788922	2.977767	0.070176
  66	3.2500e-02	2.5668	24.019119	0.000828	8.283811	2.806631	0.066143
  67	3.3000e-02	2.6085	24.091715	0.000182	1.818398	0.616090	0.014519
  68	3.3500e-02	2.6486	24.495024	0.001010	10.102209	3.422721	0.080662
  69	3.4000e-02	2.6935	24.841871	0.000869	8.687900	2.943540	0.069369
  70	3.4500e-02	2.7320	25.152419	0.000778	7.778701	2.635495	0.062110
  71	3.5000e-02	2.7673	25.479100	0.000818	8.182789	2.772404	0.065336
  72	3.5500e-02	2.8234	25.696888	0.000546	5.455193	1.848269	0.043557
  73	3.6000e-02	2.8459	26.104231	0.001020	10.203231	3.456948	0.081469
  74	3.6500e-02	2.8908	26.362349	0.000647	6.465414	2.190542	0.051624
  75	3.7000e-02	2.9309	26.636600	0.000687	6.869502	2.327450	0.054850
  76	3.7500e-02	2.9775	26.926983	0.000727	7.273591	2.464359	0.058077
  77	3.8000e-02	3.0160	27.298028	0.000929	9.294032	3.148903	0.074209
  78	3.8500e-02	3.0561	27.531948	0.000586	5.859281	1.985178	0.046784
  79	3.9000e-02	3.0962	27.802165	0.000677	6.768480	2.293223	0.054044
  80	3.9500e-02	3.1331	28.124813	0.000808	8.081767	2.738177	0.064530
  81	4.0000e-02	3.1587	28.435362	0.000778	7.778701	2.635495	0.062110
  82	4.0500e-02	3.2085	28.854804	0.001051	10.506297	3.559630	0.083888
  83	4.1000e-02	3.2470	29.056459	0.000505	5.051105	1.711361	0.040331
  84	4.1500e-02	3.2823	29.318610	0.000657	6.566436	2.224769	0.052430
  85	4.2000e-02	3.3304	29.645291	0.000818	8.182789	2.772404	0.065336
  86	4.2500e-02	3.3705	29.907443	0.000657	6.566436	2.224769	0.052430
  87	4.3000e-02	3.3978	30.326885	0.001051	10.506297	3.559630	0.083888
  88	4.3500e-02	3.4507	30.552738	0.000566	5.657237	1.916724	0.045171
  89	4.4000e-02	3.4892	30.831022	0.000697	6.970524	2.361678	0.055657
  90	4.4500e-02	3.5341	31.064942	0.000586	5.859281	1.985178	0.046784
  91	4.5000e-02	3.5694	31.407755	0.000859	8.586878	2.909313	0.068563
  92	4.5500e-02	3.6031	31.698138	0.000727	7.273591	2.464359	0.058077
  93	4.6000e-02	3.6448	31.988522	0.000727	7.273591	2.464359	0.058077
  94	4.6500e-02	3.6881	32.234541	0.000616	6.162348	2.087860	0.049204
  95	4.7000e-02	3.7330	32.549122	0.000788	7.879723	2.669722	0.062916
  96	4.7500e-02	3.7667	32.924200	0.000940	9.395054	3.183131	0.075016
  97	4.8000e-02	3.8117	33.222650	0.000748	7.475635	2.532814	0.059690
  98	4.8500e-02	3.8470	33.472702	0.000626	6.263370	2.122087	0.050010
  99	4.9000e-02	3.8838	33.807449	0.000838	8.384834	2.840859	0.066949
 100	4.9500e-02	3.9272	34.041369	0.000586	5.859281	1.985178	0.046784
 101	5.0000e-02	3.9641	34.448712	0.001020	10.203231	3.456948	0.081469
 102	5.0500e-02	3.9929	34.779426	0.000828	8.283811	2.806631	0.066143
 103	5.1000e-02	4.0555	34.993180	0.000535	5.354171	1.814042	0.042751
 104	5.1500e-02	4.0940	35.243232	0.000626	6.263370	2.122087	0.050010
 105	5.2000e-02	4.1325	35.521516	0.000697	6.970524	2.361678	0.055657
 106	5.2500e-02	4.1662	35.900627	0.000950	9.496077	3.217358	0.075822
 107	5.3000e-02	4.2191	36.186977	0.000717	7.172568	2.430132	0.057270
 108	5.3500e-02	4.2496	36.469294	0.000707	7.071546	2.395905	0.056463
 109	5.4000e-02	4.2785	36.771777	0.000758	7.576657	2.567041	0.060496
 110	5.4500e-02	4.3314	37.074259	0.000758	7.576657	2.567041	0.060496
 111	5.5000e-02	4.3699	37.328344	0.000636	6.364392	2.156314	0.050817
 112	5.5500e-02	4.4068	37.578396	0.000626	6.263370	2.122087	0.050010
 113	5.6000e-02	4.4566	37.836515	0.000647	6.465414	2.190542	0.051624
 114	5.6500e-02	4.4870	38.203527	0.000919	9.193010	3.114676	0.073402
 115	5.7000e-02	4.5336	38.445512	0.000606	6.061325	2.053633	0.048397
 116	5.7500e-02	4.5673	38.832690	0.000970	9.698121	3.285812	0.077435
 117	5.8000e-02	4.6041	39.090808	0.000647	6.465414	2.190542	0.051624
 118	5.8500e-02	4.6443	39.413456	0.000808	8.081767	2.738177	0.064530
 119	5.9000e-02	4.6828	39.695773	0.000707	7.071546	2.395905	0.056463
 120	5.9500e-02	4.7261	40.038586	0.000859	8.586878	2.909313	0.068563
 121	6.0000e-02	4.7662	40.248308	0.000525	5.253149	1.779815	0.041944
 122	6.0500e-02	4.8063	40.619353	0.000929	9.294032	3.148903	0.074209
 123	6.1000e-02	4.8512	40.905703	0.000717	7.172568	2.430132	0.057270
 124	6.1500e-02	4.8913	41.167854	0.000657	6.566436	2.224769	0.052430
 125	6.2000e-02	4.9298	41.542932	0.000940	9.395054	3.183131	0.075016
 126	6.2500e-02	4.9731	41.797017	0.000636	6.364392	2.156314	0.050817
 127	6.3000e-02	5.0068	42.071268	0.000687	6.869502	2.327450	0.054850
 128	6.3500e-02	5.0453	42.353585	0.000707	7.071546	2.395905	0.056463
 129	6.4000e-02	5.0806	42.607670	0.000636	6.364392	2.156314	0.050817
 130	6.4500e-02	5.1207	42.934351	0.000818	8.182789	2.772404	0.065336
 131	6.5000e-02	5.1688	43.204569	0.000677	6.768480	2.293223	0.054044
 132	6.5500e-02	5.2089	43.535283	0.000828	8.283811	2.806631	0.066143
 133	6.6000e-02	5.2507	43.765169	0.000576	5.758259	1.950951	0.045977
 134	6.6500e-02	5.2811	44.128148	0.000909	9.091988	3.080449	0.072596
 135	6.7000e-02	5.3341	44.398366	0.000677	6.768480	2.293223	0.054044
 136	6.7500e-02	5.3790	44.660517	0.000657	6.566436	2.224769	0.052430
 137	6.8000e-02	5.4095	45.039629	0.000950	9.496077	3.217358	0.075822
 138	6.8500e-02	5.4448	45.257416	0.000546	5.455193	1.848269	0.043557
 139	6.9000e-02	5.4977	45.527634	0.000677	6.768480	2.293223	0.054044
 140	6.9500e-02	5.5234	45.882546	0.000889	8.889944	3.011995	0.070983
 141	7.0000e-02	5.5683	46.031771	0.000374	3.737817	1.266407	0.029845
 142	7.0500e-02	5.6100	46.342319	0.000778	7.778701	2.635495	0.062110
 143	7.1000e-02	5.6549	46.701265	0.000899	8.990966	3.046222	0.071789
 144	7.1500e-02	5.6918	46.975516	0.000687	6.869502	2.327450	0.054850
 145	7.2000e-02	5.7271	47.277998	0.000758	7.576657	2.567041	0.060496
 146	7.2500e-02	5.7688	47.503852	0.000566	5.657237	1.916724	0.045171
 147	7.3000e-02	5.8057	47.798268	0.000737	7.374613	2.498586	0.058883
 148	7.3500e-02	5.8522	48.056386	0.000647	6.465414	2.190542	0.051624
 149	7.4000e-02	5.8923	48.354836	0.000748	7.475635	2.532814	0.059690
 150	7.4500e-02	5.9276	48.653285	0.000748	7.475635	2.532814	0.059690
 151	7.5000e-02	5.9597	48.919469	0.000667	6.667458	2.258996	0.053237
 152	7.5500e-02	6.0062	49.230018	0.000778	7.778701	2.635495	0.062110
 153	7.6000e-02	6.0512	49.520401	0.000727	7.273591	2.464359	0.058077
 154	7.6500e-02	6.1025	49.855148	0.000838	8.384834	2.840859	0.066949
 155	7.7000e-02	6.1218	50.145531	0.000727	7.273591	2.464359	0.058077
 156	7.7500e-02	6.1715	50.395584	0.000626	6.263370	2.122087	0.050010
 157	7.8000e-02	6.2052	50.698066	0.000758	7.576657	2.567041	0.060496
 158	7.8500e-02	6.2501	50.944085	0.000616	6.162348	2.087860	0.049204
 159	7.9000e-02	6.2838	51.222369	0.000697	6.970524	2.361678	0.055657
 160	7.9500e-02	6.3351	51.536950	0.000788	7.879723	2.669722	0.062916
 161	8.0000e-02	6.3736	51.762804	0.000566	5.657237	1.916724	0.045171
 162	8.0500e-02	6.4137	51.944293	0.000455	4.545994	1.540224	0.036298
 163	8.1000e-02	6.4474	52.468596	0.001313	13.132872	4.449537	0.104861
 164	8.1500e-02	6.4923	52.682350	0.000535	5.354171	1.814042	0.042751
 165	8.2000e-02	6.5244	52.916270	0.000586	5.859281	1.985178	0.046784
 166	8.2500e-02	6.5661	53.138091	0.000556	5.556215	1.882497	0.044364
 167	8.3000e-02	6.6126	53.404275	0.000667	6.667458	2.258996	0.053237
 168	8.3500e-02	6.6544	53.630129	0.000566	5.657237	1.916724	0.045171
 169	8.4000e-02	6.6929	53.884214	0.000636	6.364392	2.156314	0.050817
 170	8.4500e-02	6.7314	54.210895	0.000818	8.182789	2.772404	0.065336
 171	8.5000e-02	6.7699	54.493212	0.000707	7.071546	2.395905	0.056463
 172	8.5500e-02	6.8036	54.674701	0.000455	4.545994	1.540224	0.036298
 173	8.6000e-02	6.8453	55.045746	0.000929	9.294032	3.148903	0.074209
 174	8.6500e-02	6.8950	55.291765	0.000616	6.162348	2.087860	0.049204
 175	8.7000e-02	6.9271	55.682976	0.000980	9.799143	3.320039	0.078242
 176	8.7500e-02	6.9704	55.965293	0.000707	7.071546	2.395905	0.056463
 177	8.8000e-02	7.0121	56.110484	0.000364	3.636795	1.232180	0.029038
 178	8.8500e-02	7.0474	56.449265	0.000849	8.485856	2.875086	0.067756
 179	8.9000e-02	7.0875	56.763846	0.000788	7.879723	2.669722	0.062916
 180	8.9500e-02	7.1260	56.969534	0.000515	5.152127	1.745588	0.041138
 181	9.0000e-02	7.1741	57.159090	0.000475	4.748038	1.608679	0.037911
 182	9.0500e-02	7.2094	57.380910	0.000556	5.556215	1.882497	0.044364
 183	9.1000e-02	7.2447	57.804386	0.001061	10.607320	3.593857	0.084695
 184	9.1500e-02	7.2848	58.118967	0.000788	7.879723	2.669722	0.062916
 185	9.2000e-02	7.3297	58.336755	0.000546	5.455193	1.848269	0.043557
 186	9.2500e-02	7.3682	58.594873	0.000647	6.465414	2.190542	0.051624
 187	9.3000e-02	7.4116	58.788462	0.000485	4.849060	1.642906	0.038718
 188	9.3500e-02	7.4485	59.143374	0.000889	8.889944	3.011995	0.070983
 189	9.4000e-02	7.4982	59.453923	0.000778	7.778701	2.635495	0.062110
 190	9.4500e-02	7.5319	59.655578	0.000505	5.051105	1.711361	0.040331
 191	9.5000e-02	7.5720	59.949994	0.000737	7.374613	2.498586	0.058883
 192	9.5500e-02	7.6089	60.337172	0.000970	9.698121	3.285812	0.077435
 193	9.6000e-02	7.6490	60.514628	0.000444	4.444972	1.505997	0.035491
 194	9.6500e-02	7.6859	60.748548	0.000586	5.859281	1.985178	0.046784
 195	9.7000e-02	7.7324	60.994567	0.000616	6.162348	2.087860	0.049204
 196	9.7500e-02	7.7773	61.268817	0.000687	6.869502	2.327450	0.054850
 197	9.8000e-02	7.8094	61.603565	0.000838	8.384834	2.840859	0.066949
 198	9.8500e-02	7.8463	61.853617	0.000626	6.263370	2.122087	0.050010
 199	9.9000e-02	7.8960	62.148033	0.000737	7.374613	2.498586	0.058883
 200	9.9500e-02	7.9265	62.293224	0.000364	3.636795	1.232180	0.029038
 201	1.0000e-01	7.9650	62.611839	0.000798	7.980745	2.703950	0.063723
 202	1.0050e-01	8.0083	62.898189	0.000717	7.172568	2.430132	0.057270
 203	1.0100e-01	8.0436	63.204705	0.000768	7.677679	2.601268	0.061303
 204	1.0150e-01	8.0918	63.499121	0.000737	7.374613	2.498586	0.058883
 205	1.0200e-01	8.1270	63.757239	0.000647	6.465414	2.190542	0.051624
 206	1.0250e-01	8.1752	63.979060	0.000556	5.556215	1.882497	0.044364
 207	1.0300e-01	8.2121	64.257343	0.000697	6.970524	2.361678	0.055657
 208	1.0350e-01	8.2442	64.628389	0.000929	9.294032	3.148903	0.074209
 209	1.0400e-01	8.2827	64.777613	0.000374	3.737817	1.266407	0.029845
 210	1.0450e-01	8.3276	64.926838	0.000374	3.737817	1.266407	0.029845
 211	1.0500e-01	8.3661	65.314015	0.000970	9.698121	3.285812	0.077435
 212	1.0550e-01	8.3982	65.572134	0.000647	6.465414	2.190542	0.051624
 213	1.0600e-01	8.4511	65.818153	0.000616	6.162348	2.087860	0.049204
 214	1.0650e-01	8.4928	66.048039	0.000576	5.758259	1.950951	0.045977
 215	1.0700e-01	8.5297	66.362621	0.000788	7.879723	2.669722	0.062916
 216	1.0750e-01	8.5730	66.487647	0.000313	3.131685	1.061044	0.025005
 217	1.0800e-01	8.6083	66.798196	0.000778	7.778701	2.635495	0.062110
 218	1.0850e-01	8.6516	67.056314	0.000647	6.465414	2.190542	0.051624
 219	1.0900e-01	8.6869	67.423326	0.000919	9.193010	3.114676	0.073402
 220	1.0950e-01	8.7383	67.592716	0.000424	4.242928	1.437543	0.033878
 221	1.1000e-01	8.7655	67.871000	0.000697	6.970524	2.361678	0.055657
 222	1.1050e-01	8.8040	68.117019	0.000616	6.162348	2.087860	0.049204
 223	1.1100e-01	8.8425	68.399336	0.000707	7.071546	2.395905	0.056463
 224	1.1150e-01	8.8891	68.657454	0.000647	6.465414	2.190542	0.051624
 225	1.1200e-01	8.9211	68.895407	0.000596	5.960303	2.019405	0.047591
 226	1.1250e-01	8.9725	69.133360	0.000596	5.960303	2.019405	0.047591
 227	1.1300e-01	9.0094	69.355180	0.000556	5.556215	1.882497	0.044364
 228	1.1350e-01	9.0431	69.585067	0.000576	5.758259	1.950951	0.045977
 229	1.1400e-01	9.0848	69.911748	0.000818	8.182789	2.772404	0.065336
 230	1.1450e-01	9.1329	70.169866	0.000647	6.465414	2.190542	0.051624
 231	1.1500e-01	9.1634	70.440084	0.000677	6.768480	2.293223	0.054044
 232	1.1550e-01	9.2131	70.710301	0.000677	6.768480	2.293223	0.054044
 233	1.1600e-01	9.2532	71.016817	0.000768	7.677679	2.601268	0.061303
 234	1.1650e-01	9.2901	71.246703	0.000576	5.758259	1.950951	0.045977
 235	1.1700e-01	9.3222	71.412060	0.000414	4.141906	1.403316	0.033071
 236	1.1750e-01	9.3751	71.585484	0.000434	4.343950	1.471770	0.034685
 237	1.1800e-01	9.4088	71.908132	0.000808	8.081767	2.738177	0.064530
 238	1.1850e-01	9.4489	72.254978	0.000869	8.687900	2.943540	0.069369
 239	1.1900e-01	9.4842	72.505030	0.000626	6.263370	2.122087	0.050010
 240	1.1950e-01	9.5356	72.779281	0.000687	6.869502	2.327450	0.054850
 241	1.2000e-01	9.5709	72.900274	0.000303	3.030663	1.026816	0.024199
 242	1.2050e-01	9.6045	73.126127	0.000566	5.657237	1.916724	0.045171
 243	1.2100e-01	9.6479	73.388279	0.000657	6.566436	2.224769	0.052430
 244	1.2150e-01	9.6848	73.759324	0.000929	9.294032	3.148903	0.074209
 245	1.2200e-01	9.7345	73.900482	0.000354	3.535773	1.197952	0.028232
 246	1.2250e-01	9.7730	74.182799	0.000707	7.071546	2.395905	0.056463
 247	1.2300e-01	9.8147	74.388487	0.000515	5.152127	1.745588	0.041138
 248	1.2350e-01	9.8596	74.578043	0.000475	4.748038	1.608679	0.037911
 249	1.2400e-01	9.8853	74.864393	0.000717	7.172568	2.430132	0.057270
 250	1.2450e-01	9.9318	75.138644	0.000687	6.869502	2.327450	0.054850
 251	1.2500e-01	9.9751	75.433060	0.000737	7.374613	2.498586	0.058883
 252	1.2550e-01	10.0040	75.662946	0.000576	5.758259	1.950951	0.045977
 253	1.2600e-01	10.0473	75.852502	0.000475	4.748038	1.608679	0.037911
 254	1.2650e-01	10.0874	76.058190	0.000515	5.152127	1.745588	0.041138
 255	1.2700e-01	10.1275	76.364705	0.000768	7.677679	2.601268	0.061303
 256	1.2750e-01	10.1724	76.574427	0.000525	5.253149	1.779815	0.041944
 257	1.2800e-01	10.2061	76.913207	0.000849	8.485856	2.875086	0.067756
 258	1.2850e-01	10.2527	77.094696	0.000455	4.545994	1.540224	0.036298
 259	1.2900e-01	10.2960	77.437510	0.000859	8.586878	2.909313	0.068563
 260	1.2950e-01	10.3297	77.614966	0.000444	4.444972	1.505997	0.035491
 261	1.3000e-01	10.3746	77.856952	0.000606	6.061325	2.053633	0.048397
 262	1.3050e-01	10.4083	78.050541	0.000485	4.849060	1.642906	0.038718
 263	1.3100e-01	10.4532	78.320758	0.000677	6.768480	2.293223	0.054044
 264	1.3150e-01	10.4869	78.611141	0.000727	7.273591	2.464359	0.058077
 265	1.3200e-01	10.5350	78.905558	0.000737	7.374613	2.498586	0.058883
 266	1.3250e-01	10.5735	79.111246	0.000515	5.152127	1.745588	0.041138
 267	1.3300e-01	10.6136	79.304834	0.000485	4.849060	1.642906	0.038718
 268	1.3350e-01	10.6441	79.518589	0.000535	5.354171	1.814042	0.042751
 269	1.3400e-01	10.6954	79.792839	0.000687	6.869502	2.327450	0.054850
 270	1.3450e-01	10.7307	80.042891	0.000626	6.263370	2.122087	0.050010
 271	1.3500e-01	10.7708	80.288910	0.000616	6.162348	2.087860	0.049204
 272	1.3550e-01	10.8141	80.454267	0.000414	4.141906	1.403316	0.033071
 273	1.3600e-01	10.8494	80.659955	0.000515	5.152127	1.745588	0.041138
 274	1.3650e-01	10.8927	80.950339	0.000727	7.273591	2.464359	0.058077
 275	1.3700e-01	10.9264	81.131828	0.000455	4.545994	1.540224	0.036298
 276	1.3750e-01	10.9633	81.410112	0.000697	6.970524	2.361678	0.055657
 277	1.3800e-01	11.0179	81.571436	0.000404	4.040884	1.369088	0.032265
 278	1.3850e-01	11.0548	81.898117	0.000818	8.182789	2.772404	0.065336
 279	1.3900e-01	11.0949	82.236897	0.000849	8.485856	2.875086	0.067756
 280	1.3950e-01	11.1238	82.495015	0.000647	6.465414	2.190542	0.051624
 281	1.4000e-01	11.1751	82.668439	0.000434	4.343950	1.471770	0.034685
 282	1.4050e-01	11.2120	82.845895	0.000444	4.444972	1.505997	0.035491
 283	1.4100e-01	11.2473	83.144344	0.000748	7.475635	2.532814	0.059690
 284	1.4150e-01	11.2922	83.325834	0.000455	4.545994	1.540224	0.036298
 285	1.4200e-01	11.3291	83.587985	0.000657	6.566436	2.224769	0.052430
 286	1.4250e-01	11.3724	83.777541	0.000475	4.748038	1.608679	0.037911
 287	1.4300e-01	11.4013	84.031626	0.000636	6.364392	2.156314	0.050817
 288	1.4350e-01	11.4494	84.241347	0.000525	5.253149	1.779815	0.041944
 289	1.4400e-01	11.4911	84.455101	0.000535	5.354171	1.814042	0.042751
 290	1.4450e-01	11.5328	84.725319	0.000677	6.768480	2.293223	0.054044
 291	1.4500e-01	11.5681	84.987470	0.000657	6.566436	2.224769	0.052430
 292	1.4550e-01	11.6146	85.128629	0.000354	3.535773	1.197952	0.028232
 293	1.4600e-01	11.6596	85.338350	0.000525	5.253149	1.779815	0.041944
 294	1.4650e-01	11.6900	85.640832	0.000758	7.576657	2.567041	0.060496
 295	1.4700e-01	11.7237	85.886851	0.000616	6.162348	2.087860	0.049204
 296	1.4750e-01	11.7654	86.161102	0.000687	6.869502	2.327450	0.054850
 297	1.4800e-01	11.8104	86.342591	0.000455	4.545994	1.540224	0.036298
 298	1.4850e-01	11.8457	86.560379	0.000546	5.455193	1.848269	0.043557
 299	1.4900e-01	11.8906	86.822530	0.000657	6.566436	2.224769	0.052430
 300	1.4950e-01	11.9243	87.052417	0.000576	5.758259	1.950951	0.045977
 301	1.5000e-01	11.9692	87.294403	0.000606	6.061325	2.053633	0.048397
 302	1.5050e-01	12.0045	87.540422	0.000616	6.162348	2.087860	0.049204
 303	1.5100e-01	12.0542	87.661415	0.000303	3.030663	1.026816	0.024199
 304	1.5150e-01	12.0895	87.971963	0.000778	7.778701	2.635495	0.062110
 305	1.5200e-01	12.1280	88.193784	0.000556	5.556215	1.882497	0.044364
 306	1.5250e-01	12.1681	88.451902	0.000647	6.465414	2.190542	0.051624
 307	1.5300e-01	12.2114	88.625325	0.000434	4.343950	1.471770	0.034685
 308	1.5350e-01	12.2515	88.871344	0.000616	6.162348	2.087860	0.049204
 309	1.5400e-01	12.2900	89.137529	0.000667	6.667458	2.258996	0.053237
 310	1.5450e-01	12.3333	89.327084	0.000475	4.748038	1.608679	0.037911
 311	1.5500e-01	12.3751	89.544872	0.000546	5.455193	1.848269	0.043557
 312	1.5550e-01	12.4168	89.694096	0.000374	3.737817	1.266407	0.029845
 313	1.5600e-01	12.4456	89.996579	0.000758	7.576657	2.567041	0.060496
 314	1.5650e-01	12.4906	90.230498	0.000586	5.859281	1.985178	0.046784
 315	1.5700e-01	12.5307	90.468451	0.000596	5.960303	2.019405	0.047591
 316	1.5750e-01	12.5692	90.637841	0.000424	4.242928	1.437543	0.033878
 317	1.5800e-01	12.6093	90.964522	0.000818	8.182789	2.772404	0.065336
 318	1.5850e-01	12.6574	91.154078	0.000475	4.748038	1.608679	0.037911
 319	1.5900e-01	12.6847	91.375898	0.000556	5.556215	1.882497	0.044364
 320	1.5950e-01	12.7360	91.593686	0.000546	5.455193	1.848269	0.043557
 321	1.6000e-01	12.7633	91.771142	0.000444	4.444972	1.505997	0.035491
 322	1.6050e-01	12.8146	92.041360	0.000677	6.768480	2.293223	0.054044
 323	1.6100e-01	12.8467	92.311577	0.000677	6.768480	2.293223	0.054044
 324	1.6150e-01	12.8900	92.614060	0.000758	7.576657	2.567041	0.060496
 325	1.6200e-01	12.9365	92.722953	0.000273	2.727596	0.924135	0.021779
 326	1.6250e-01	12.9622	92.835880	0.000283	2.828619	0.958362	0.022585
 327	1.6300e-01	13.0071	93.118197	0.000707	7.071546	2.395905	0.056463
 328	1.6350e-01	13.0456	93.315819	0.000495	4.950082	1.677133	0.039524
 329	1.6400e-01	13.0889	93.626368	0.000778	7.778701	2.635495	0.062110
 330	1.6450e-01	13.1355	93.702996	0.000192	1.919420	0.650317	0.015326
 331	1.6500e-01	13.1708	93.936916	0.000586	5.859281	1.985178	0.046784
 332	1.6550e-01	13.2076	94.255531	0.000798	7.980745	2.703950	0.063723
 333	1.6600e-01	13.2510	94.384590	0.000323	3.232707	1.095271	0.025812
 334	1.6650e-01	13.2879	94.683039	0.000748	7.475635	2.532814	0.059690
 335	1.6700e-01	13.3360	94.908893	0.000566	5.657237	1.916724	0.045171
 336	1.6750e-01	13.3665	95.106515	0.000495	4.950082	1.677133	0.039524
 337	1.6800e-01	13.4098	95.223475	0.000293	2.929641	0.992589	0.023392
 338	1.6850e-01	13.4547	95.457394	0.000586	5.859281	1.985178	0.046784
 339	1.6900e-01	13.4836	95.739711	0.000707	7.071546	2.395905	0.056463
 340	1.6950e-01	13.5365	95.969598	0.000576	5.758259	1.950951	0.045977
 341	1.7000e-01	13.5734	96.138988	0.000424	4.242928	1.437543	0.033878
 342	1.7050e-01	13.6023	96.437437	0.000748	7.475635	2.532814	0.059690
 343	1.7100e-01	13.6552	96.618927	0.000455	4.545994	1.540224	0.036298
 344	1.7150e-01	13.6841	96.808482	0.000475	4.748038	1.608679	0.037911
 345	1.7200e-01	13.7274	97.086766	0.000697	6.970524	2.361678	0.055657
 346	1.7250e-01	13.7659	97.288421	0.000505	5.051105	1.711361	0.040331
 347	1.7300e-01	13.8092	97.413447	0.000313	3.131685	1.061044	0.025005
 348	1.7350e-01	13.8461	97.598970	0.000465	4.647016	1.574452	0.037105
 349	1.7400e-01	13.8911	97.812724	0.000535	5.354171	1.814042	0.042751
 350	1.7450e-01	13.9328	97.994213	0.000455	4.545994	1.540224	0.036298
 351	1.7500e-01	13.9713	98.264431	0.000677	6.768480	2.293223	0.054044
 352	1.7550e-01	14.0114	98.522549	0.000647	6.465414	2.190542	0.051624
 353	1.7600e-01	14.0451	98.748403	0.000566	5.657237	1.916724	0.045171
 354	1.7650e-01	14.0916	98.990389	0.000606	6.061325	2.053633	0.048397
 355	1.7700e-01	14.1205	99.083150	0.000232	2.323508	0.787226	0.018552
 356	1.7750e-01	14.1702	99.325136	0.000606	6.061325	2.053633	0.048397
 357	1.7800e-01	14.2135	99.518725	0.000485	4.849060	1.642906	0.038718
 358	1.7850e-01	14.2456	99.792975	0.000687	6.869502	2.327450	0.054850
 359	1.7900e-01	14.2873	100.038994	0.000616	6.162348	2.087860	0.049204
 360	1.7950e-01	14.3306	100.188219	0.000374	3.737817	1.266407	0.029845
 361	1.8000e-01	14.3691	100.397940	0.000525	5.253149	1.779815	0.041944
 362	1.8050e-01	14.4044	100.518933	0.000303	3.030663	1.026816	0.024199
 363	1.8100e-01	14.4477	100.825449	0.000768	7.677679	2.601268	0.061303
 364	1.8150e-01	14.4894	101.035170	0.000525	5.253149	1.779815	0.041944
 365	1.8200e-01	14.5343	101.232791	0.000495	4.950082	1.677133	0.039524
 366	1.8250e-01	14.5616	101.519141	0.000717	7.172568	2.430132	0.057270
 367	1.8300e-01	14.6130	101.749028	0.000576	5.758259	1.950951	0.045977
 368	1.8350e-01	14.6595	101.906319	0.000394	3.939862	1.334861	0.031458
 369	1.8400e-01	14.6916	102.103941	0.000495	4.950082	1.677133	0.039524
 370	1.8450e-01	14.7349	102.317695	0.000535	5.354171	1.814042	0.042751
 371	1.8500e-01	14.7782	102.491118	0.000434	4.343950	1.471770	0.034685
 372	1.8550e-01	14.8087	102.716972	0.000566	5.657237	1.916724	0.045171
 373	1.8600e-01	14.8520	102.930726	0.000535	5.354171	1.814042	0.042751
 374	1.8650e-01	14.8937	103.132381	0.000505	5.051105	1.711361	0.040331
 375	1.8700e-01	14.9242	103.346135	0.000535	5.354171	1.814042	0.042751
 376	1.8750e-01	14.9643	103.604253	0.000647	6.465414	2.190542	0.051624
 377	1.8800e-01	15.0028	103.797842	0.000485	4.849060	1.642906	0.038718
 378	1.8850e-01	15.0477	104.007563	0.000525	5.253149	1.779815	0.041944
 379	1.8900e-01	15.0926	104.120490	0.000283	2.828619	0.958362	0.022585
 380	1.8950e-01	15.1263	104.382641	0.000657	6.566436	2.224769	0.052430
 381	1.9000e-01	15.1616	104.616561	0.000586	5.859281	1.985178	0.046784
 382	1.9050e-01	15.2161	104.846448	0.000576	5.758259	1.950951	0.045977
 383	1.9100e-01	15.2418	105.072301	0.000566	5.657237	1.916724	0.045171
 384	1.9150e-01	15.2932	105.217493	0.000364	3.636795	1.232180	0.029038
 385	1.9200e-01	15.3381	105.427214	0.000525	5.253149	1.779815	0.041944
 386	1.9250e-01	15.3702	105.632902	0.000515	5.152127	1.745588	0.041138
 387	1.9300e-01	15.4038	105.790193	0.000394	3.939862	1.334861	0.031458
 388	1.9350e-01	15.4488	105.935384	0.000364	3.636795	1.232180	0.029038
 389	1.9400e-01	15.4841	106.193503	0.000647	6.465414	2.190542	0.051624
 390	1.9450e-01	15.5370	106.370959	0.000444	4.444972	1.505997	0.035491
 391	1.9500e-01	15.5675	106.649243	0.000697	6.970524	2.361678	0.055657
 392	1.9550e-01	15.6108	106.850898	0.000505	5.051105	1.711361	0.040331
 393	1.9600e-01	15.6461	106.996089	0.000364	3.636795	1.232180	0.029038
 394	1.9650e-01	15.6862	107.270340	0.000687	6.869502	2.327450	0.054850
 395	1.9700e-01	15.7247	107.395366	0.000313	3.131685	1.061044	0.025005
 396	1.9750e-01	15.7680	107.673650	0.000697	6.970524	2.361678	0.055657
 397	1.9800e-01	15.8145	107.814808	0.000354	3.535773	1.197952	0.028232
 398	1.9850e-01	15.8530	108.080993	0.000667	6.667458	2.258996	0.053237
 399	1.9900e-01	15.8931	108.274582	0.000485	4.849060	1.642906	0.038718
 400	1.9950e-01	15.9397	108.431872	0.000394	3.939862	1.334861	0.031458
 401	2.0000e-01	15.9701	108.665792	0.000586	5.859281	1.985178	0.046784
 402	2.0050e-01	16.0167	108.827116	0.000404	4.040884	1.369088	0.032265
 403	2.0100e-01	16.0600	109.097334	0.000677	6.768480	2.293223	0.054044
 404	2.0150e-01	16.0905	109.222360	0.000313	3.131685	1.061044	0.025005
 405	2.0200e-01	16.1290	109.516776	0.000737	7.374613	2.498586	0.058883
 406	2.0250e-01	16.1803	109.649868	0.000333	3.333729	1.129498	0.026618
 407	2.0300e-01	16.2124	109.855556	0.000515	5.152127	1.745588	0.041138
 408	2.0350e-01	16.2477	110.089476	0.000586	5.859281	1.985178	0.046784
 409	2.0400e-01	16.2926	110.323396	0.000586	5.859281	1.985178	0.046784
 410	2.0450e-01	16.3375	110.416157	0.000232	2.323508	0.787226	0.018552
 411	2.0500e-01	16.3648	110.613779	0.000495	4.950082	1.677133	0.039524
 412	2.0550e-01	16.4097	110.771070	0.000394	3.939862	1.334861	0.031458
 413	2.0600e-01	16.4530	110.996923	0.000566	5.657237	1.916724	0.045171
 414	2.0650e-01	16.4851	111.480895	0.001212	12.122651	4.107265	0.096794
 415	2.0700e-01	16.5316	111.525259	0.000111	1.111243	0.376499	0.008873
 416	2.0750e-01	16.5781	111.618020	0.000232	2.323508	0.787226	0.018552
 417	2.0800e-01	16.6086	111.803543	0.000465	4.647016	1.574452	0.037105
 418	2.0850e-01	16.6519	111.952768	0.000374	3.737817	1.266407	0.029845
 419	2.0900e-01	16.6856	112.263316	0.000778	7.778701	2.635495	0.062110
 420	2.0950e-01	16.7273	112.444806	0.000455	4.545994	1.540224	0.036298
 421	2.1000e-01	16.7706	112.630328	0.000465	4.647016	1.574452	0.037105
 422	2.1050e-01	16.8043	112.759387	0.000323	3.232707	1.095271	0.025812
 423	2.1100e-01	16.8621	113.009439	0.000626	6.263370	2.122087	0.050010
 424	2.1150e-01	16.8958	113.219161	0.000525	5.253149	1.779815	0.041944
 425	2.1200e-01	16.9231	113.424849	0.000515	5.152127	1.745588	0.041138
 426	2.1250e-01	16.9712	113.606338	0.000455	4.545994	1.540224	0.036298
 427	2.1300e-01	17.0113	113.848324	0.000606	6.061325	2.053633	0.048397
 428	2.1350e-01	17.0562	114.009648	0.000404	4.040884	1.369088	0.032265
 429	2.1400e-01	17.0883	114.191137	0.000455	4.545994	1.540224	0.036298
 430	2.1450e-01	17.1316	114.425057	0.000586	5.859281	1.985178	0.046784
 431	2.1500e-01	17.1685	114.590414	0.000414	4.141906	1.403316	0.033071
 432	2.1550e-01	17.2150	114.820301	0.000576	5.758259	1.950951	0.045977
 433	2.1600e-01	17.2519	114.933227	0.000283	2.828619	0.958362	0.022585
 434	2.1650e-01	17.2920	115.114717	0.000455	4.545994	1.540224	0.036298
 435	2.1700e-01	17.3305	115.324438	0.000525	5.253149	1.779815	0.041944
 436	2.1750e-01	17.3787	115.509961	0.000465	4.647016	1.574452	0.037105
 437	2.1800e-01	17.4091	115.784211	0.000687	6.869502	2.327450	0.054850
 438	2.1850e-01	17.4541	115.917303	0.000333	3.333729	1.129498	0.026618
 439	2.1900e-01	17.4845	116.179455	0.000657	6.566436	2.224769	0.052430
 440	2.1950e-01	17.5343	116.381110	0.000505	5.051105	1.711361	0.040331
 441	2.2000e-01	17.5696	116.586798	0.000515	5.152127	1.745588	0.041138
 442	2.2050e-01	17.6145	116.804585	0.000546	5.455193	1.848269	0.043557
 443	2.2100e-01	17.6594	116.861049	0.000141	1.414309	0.479181	0.011293
 444	2.2150e-01	17.7027	117.115134	0.000636	6.364392	2.156314	0.050817
 445	2.2200e-01	17.7316	117.393418	0.000697	6.970524	2.361678	0.055657
 446	2.2250e-01	17.7733	117.619271	0.000566	5.657237	1.916724	0.045171
 447	2.2300e-01	17.8166	117.784628	0.000414	4.141906	1.403316	0.033071
 448	2.2350e-01	17.8519	117.966118	0.000455	4.545994	1.540224	0.036298
 449	2.2400e-01	17.8888	118.159706	0.000485	4.849060	1.642906	0.038718
 450	2.2450e-01	17.9289	118.175839	0.000040	0.404088	0.136909	0.003226
 451	2.2500e-01	17.9690	118.397659	0.000556	5.556215	1.882497	0.044364
 452	2.2550e-01	18.0107	118.558983	0.000404	4.040884	1.369088	0.032265
 453	2.2600e-01	18.0637	118.792903	0.000586	5.859281	1.985178	0.046784
 454	2.2650e-01	18.0861	118.982458	0.000475	4.748038	1.608679	0.037911
 455	2.2700e-01	18.1262	119.236544	0.000636	6.364392	2.156314	0.050817
 456	2.2750e-01	18.1760	119.385768	0.000374	3.737817	1.266407	0.029845
 457	2.2800e-01	18.2080	119.595489	0.000525	5.253149	1.779815	0.041944
 458	2.2850e-01	18.2578	119.821343	0.000566	5.657237	1.916724	0.045171
 459	2.2900e-01	18.2915	119.926203	0.000263	2.626574	0.889907	0.020972
 460	2.2950e-01	18.3348	120.083494	0.000394	3.939862	1.334861	0.031458
 461	2.3000e-01	18.3717	120.313381	0.000576	5.758259	1.950951	0.045977
 462	2.3050e-01	18.4134	120.515036	0.000505	5.051105	1.711361	0.040331
 463	2.3100e-01	18.4551	120.825584	0.000778	7.778701	2.635495	0.062110
 464	2.3150e-01	18.4904	120.962710	0.000343	3.434751	1.163725	0.027425
 465	2.3200e-01	18.5337	121.031273	0.000172	1.717376	0.581863	0.013713
 466	2.3250e-01	18.5690	121.309556	0.000697	6.970524	2.361678	0.055657
 467	2.3300e-01	18.5963	121.563642	0.000636	6.364392	2.156314	0.050817
 468	2.3350e-01	18.6460	121.749164	0.000465	4.647016	1.574452	0.037105
 469	2.3400e-01	18.6845	121.934687	0.000465	4.647016	1.574452	0.037105
 470	2.3450e-01	18.7374	122.007282	0.000182	1.818398	0.616090	0.014519
 471	2.3500e-01	18.7679	122.229103	0.000556	5.556215	1.882497	0.044364
 472	2.3550e-01	18.8016	122.487221	0.000647	6.465414	2.190542	0.051624
 473	2.3600e-01	18.8594	122.648545	0.000404	4.040884	1.369088	0.032265
 474	2.3650e-01	18.8914	122.842134	0.000485	4.849060	1.642906	0.038718
 475	2.3700e-01	18.9364	123.019590	0.000444	4.444972	1.505997	0.035491
 476	2.3750e-01	18.9717	123.120418	0.000253	2.525552	0.855680	0.020165
 477	2.3800e-01	19.0086	123.366437	0.000616	6.162348	2.087860	0.049204
 478	2.3850e-01	19.0599	123.547926	0.000455	4.545994	1.540224	0.036298
 479	2.3900e-01	19.0936	123.685051	0.000343	3.434751	1.163725	0.027425
 480	2.3950e-01	19.1353	123.906872	0.000556	5.556215	1.882497	0.044364
 481	2.4000e-01	19.1738	124.080295	0.000434	4.343950	1.471770	0.034685
 482	2.4050e-01	19.2107	124.314215	0.000586	5.859281	1.985178	0.046784
 483	2.4100e-01	19.2556	124.443274	0.000323	3.232707	1.095271	0.025812
 484	2.4150e-01	19.2893	124.778021	0.000838	8.384834	2.840859	0.066949
 485	2.4200e-01	19.3326	124.790120	0.000030	0.303066	0.102682	0.002420
 486	2.4250e-01	19.3807	125.209563	0.001051	10.506297	3.559630	0.083888
 487	2.4300e-01	19.4160	125.338622	0.000323	3.232707	1.095271	0.025812
 488	2.4350e-01	19.4561	125.451549	0.000283	2.828619	0.958362	0.022585
 489	2.4400e-01	19.4866	125.629005	0.000444	4.444972	1.505997	0.035491
 490	2.4450e-01	19.5299	125.741932	0.000283	2.828619	0.958362	0.022585
 491	2.4500e-01	19.5684	125.967785	0.000566	5.657237	1.916724	0.045171
 492	2.4550e-01	19.6117	126.197672	0.000576	5.758259	1.950951	0.045977
 493	2.4600e-01	19.6438	126.395294	0.000495	4.950082	1.677133	0.039524
 494	2.4650e-01	19.6904	126.488055	0.000232	2.323508	0.787226	0.018552
 495	2.4700e-01	19.7240	126.709875	0.000556	5.556215	1.882497	0.044364
 496	2.4750e-01	19.7641	126.939762	0.000576	5.758259	1.950951	0.045977
 497	2.4800e-01	19.8123	127.145450	0.000515	5.152127	1.745588	0.041138
 498	2.4850e-01	19.8620	127.266443	0.000303	3.030663	1.026816	0.024199
 499	2.4900e-01	19.8877	127.508429	0.000606	6.061325	2.053633	0.048397
 500	2.4950e-01	19.9294	127.637488	0.000323	3.232707	1.095271	0.025812
 501	2.5000e-01	19.9679	127.855275	0.000546	5.455193	1.848269	0.043557
 502	2.5050e-01	19.9743	127.891573	0.000091	0.909199	0.308045	0.007260
 503	2.5100e-01	19.9438	127.823011	0.000172	1.717376	0.581863	-0.013713
 504	2.5150e-01	19.8989	127.754448	0.000172	1.717376	0.581863	-0.013713
 505	2.5200e-01	19.8861	127.548760	0.000515	5.152127	1.745588	-0.041138
 506	2.5250e-01	19.8347	127.435833	0.000283	2.828619	0.958362	-0.022585
 507	2.5300e-01	19.7946	127.282575	0.000384	3.838839	1.300634	-0.030652
 508	2.5350e-01	19.7449	127.193847	0.000222	2.222486	0.752999	-0.017746
 509	2.5400e-01	19.7144	127.024457	0.000424	4.242928	1.437543	-0.033878
 510	2.5450e-01	19.6807	126.972027	0.000131	1.313287	0.444954	-0.010486
 511	2.5500e-01	19.6406	126.790537	0.000455	4.545994	1.540224	-0.036298
 512	2.5550e-01	19.5925	126.528386	0.000657	6.566436	2.224769	-0.052430
 513	2.5600e-01	19.5540	126.375128	0.000384	3.838839	1.300634	-0.030652
 514	2.5650e-01	19.5155	126.258168	0.000293	2.929641	0.992589	-0.023392
 515	2.5700e-01	19.4722	126.153308	0.000263	2.626574	0.889907	-0.020972
 516	2.5750e-01	19.4369	126.084745	0.000172	1.717376	0.581863	-0.013713
 517	2.5800e-01	19.3904	125.798395	0.000717	7.172568	2.430132	-0.057270
 518	2.5850e-01	19.3551	125.669336	0.000323	3.232707	1.095271	-0.025812
 519	2.5900e-01	19.3166	125.584641	0.000212	2.121464	0.718771	-0.016939
 520	2.5950e-01	19.2781	125.374920	0.000525	5.253149	1.779815	-0.041944
 521	2.6000e-01	19.2299	125.350721	0.000061	0.606133	0.205363	-0.004840
 522	2.6050e-01	19.1882	125.173265	0.000444	4.444972	1.505997	-0.035491
 523	2.6100e-01	19.1497	124.955477	0.000546	5.455193	1.848269	-0.043557
 524	2.6150e-01	19.1176	124.778021	0.000444	4.444972	1.505997	-0.035491
 525	2.6200e-01	19.0711	124.588465	0.000475	4.748038	1.608679	-0.037911
 526	2.6250e-01	19.0358	124.536035	0.000131	1.313287	0.444954	-0.010486
 527	2.6300e-01	18.9989	124.285983	0.000626	6.263370	2.122087	-0.050010
 528	2.6350e-01	18.9604	124.197255	0.000222	2.222486	0.752999	-0.017746
 529	2.6400e-01	18.9155	124.015765	0.000455	4.545994	1.540224	-0.036298
 530	2.6450e-01	18.8786	123.830243	0.000465	4.647016	1.574452	-0.037105
 531	2.6500e-01	18.8289	123.765713	0.000162	1.616353	0.547635	-0.012906
 532	2.6550e-01	18.7904	123.608423	0.000394	3.939862	1.334861	-0.031458
 533	2.6600e-01	18.7599	123.382569	0.000566	5.657237	1.916724	-0.045171
 534	2.6650e-01	18.7086	123.265609	0.000293	2.929641	0.992589	-0.023392
 535	2.6700e-01	18.6701	123.080087	0.000465	4.647016	1.574452	-0.037105
 536	2.6750e-01	18.6267	122.902630	0.000444	4.444972	1.505997	-0.035491
 537	2.6800e-01	18.5979	122.789703	0.000283	2.828619	0.958362	-0.022585
 538	2.6850e-01	18.5562	122.515453	0.000687	6.869502	2.327450	-0.054850
 539	2.6900e-01	18.5080	122.414625	0.000253	2.525552	0.855680	-0.020165
 540	2.6950e-01	18.4824	122.313798	0.000253	2.525552	0.855680	-0.020165
 541	2.7000e-01	18.4310	122.136342	0.000444	4.444972	1.505997	-0.035491
 542	2.7050e-01	18.3845	121.934687	0.000505	5.051105	1.711361	-0.040331
 543	2.7100e-01	18.3556	121.769330	0.000414	4.141906	1.403316	-0.033071
 544	2.7150e-01	18.3139	121.563642	0.000515	5.152127	1.745588	-0.041138
 545	2.7200e-01	18.2722	121.454748	0.000273	2.727596	0.924135	-0.021779
 546	2.7250e-01	18.2289	121.281325	0.000434	4.343950	1.471770	-0.034685
 547	2.7300e-01	18.1952	121.144199	0.000343	3.434751	1.163725	-0.027425
 548	2.7350e-01	18.1535	121.075637	0.000172	1.717376	0.581863	-0.013713
 549	2.7400e-01	18.1150	120.853816	0.000556	5.556215	1.882497	-0.044364
 550	2.7450e-01	18.0797	120.720724	0.000333	3.333729	1.129498	-0.026618
 551	2.7500e-01	18.0316	120.519069	0.000505	5.051105	1.711361	-0.040331
 552	2.7550e-01	17.9786	120.333546	0.000465	4.647016	1.574452	-0.037105
 553	2.7600e-01	17.9482	120.160123	0.000434	4.343950	1.471770	-0.034685
 554	2.7650e-01	17.9032	120.027031	0.000333	3.333729	1.129498	-0.026618
 555	2.7700e-01	17.8728	119.926203	0.000253	2.525552	0.855680	-0.020165
 556	2.7750e-01	17.8343	119.781012	0.000364	3.636795	1.232180	-0.029038
 557	2.7800e-01	17.7925	119.522894	0.000647	6.465414	2.190542	-0.051624
 558	2.7850e-01	17.7508	119.418033	0.000263	2.626574	0.889907	-0.020972
 559	2.7900e-01	17.7155	119.284941	0.000333	3.333729	1.129498	-0.026618
 560	2.7950e-01	17.6786	118.958260	0.000818	8.182789	2.772404	-0.065336
 561	2.8000e-01	17.6353	118.768704	0.000475	4.748038	1.608679	-0.037911
 562	2.8050e-01	17.5920	118.659811	0.000273	2.727596	0.924135	-0.021779
 563	2.8100e-01	17.5535	118.514619	0.000364	3.636795	1.232180	-0.029038
 564	2.8150e-01	17.5182	118.333130	0.000455	4.545994	1.540224	-0.036298
 565	2.8200e-01	17.4749	118.212137	0.000303	3.030663	1.026816	-0.024199
 566	2.8250e-01	17.4348	117.962084	0.000626	6.263370	2.122087	-0.050010
 567	2.8300e-01	17.3979	117.792694	0.000424	4.242928	1.437543	-0.033878
 568	2.8350e-01	17.3466	117.679768	0.000283	2.828619	0.958362	-0.022585
 569	2.8400e-01	17.3177	117.526510	0.000384	3.838839	1.300634	-0.030652
 570	2.8450e-01	17.2696	117.353087	0.000434	4.343950	1.471770	-0.034685
 571	2.8500e-01	17.2359	117.195796	0.000394	3.939862	1.334861	-0.031458
 572	2.8550e-01	17.1958	116.990108	0.000515	5.152127	1.745588	-0.041138
 573	2.8600e-01	17.1509	116.869115	0.000303	3.030663	1.026816	-0.024199
 574	2.8650e-01	17.1252	116.719890	0.000374	3.737817	1.266407	-0.029845
 575	2.8700e-01	17.0674	116.498070	0.000556	5.556215	1.882497	-0.044364
 576	2.8750e-01	17.0418	116.292382	0.000515	5.152127	1.745588	-0.041138
 577	2.8800e-01	16.9968	116.171389	0.000303	3.030663	1.026816	-0.024199
 578	2.8850e-01	16.9503	115.897138	0.000687	6.869502	2.327450	-0.054850
 579	2.8900e-01	16.9182	115.715649	0.000455	4.545994	1.540224	-0.036298
 580	2.8950e-01	16.8685	115.586589	0.000323	3.232707	1.095271	-0.025812
 581	2.9000e-01	16.8300	115.421232	0.000414	4.141906	1.403316	-0.033071
 582	2.9050e-01	16.7995	115.328471	0.000232	2.323508	0.787226	-0.018552
 583	2.9100e-01	16.7610	115.142949	0.000465	4.647016	1.574452	-0.037105
 584	2.9150e-01	16.7129	114.953393	0.000475	4.748038	1.608679	-0.037911
 585	2.9200e-01	16.6712	114.731572	0.000556	5.556215	1.882497	-0.044364
 586	2.9250e-01	16.6311	114.570249	0.000404	4.040884	1.369088	-0.032265
 587	2.9300e-01	16.5942	114.368594	0.000505	5.051105	1.711361	-0.040331
 588	2.9350e-01	16.5525	114.223402	0.000364	3.636795	1.232180	-0.029038
 589	2.9400e-01	16.5108	114.122575	0.000253	2.525552	0.855680	-0.020165
 590	2.9450e-01	16.4691	113.892688	0.000576	5.758259	1.950951	-0.045977
 591	2.9500e-01	16.4322	113.763629	0.000323	3.232707	1.095271	-0.025812
 592	2.9550e-01	16.4049	113.590206	0.000434	4.343950	1.471770	-0.034685
 593	2.9600e-01	16.3535	113.336120	0.000636	6.364392	2.156314	-0.050817
 594	2.9650e-01	16.3199	113.142532	0.000485	4.849060	1.642906	-0.038718
 595	2.9700e-01	16.2701	112.965075	0.000444	4.444972	1.505997	-0.035491
 596	2.9750e-01	16.2300	112.896513	0.000172	1.717376	0.581863	-0.013713
 597	2.9800e-01	16.1915	112.674692	0.000556	5.556215	1.882497	-0.044364
 598	2.9850e-01	16.1482	112.440772	0.000586	5.859281	1.985178	-0.046784
 599	2.9900e-01	16.1177	112.323813	0.000293	2.929641	0.992589	-0.023392
 600	2.9950e-01	16.0728	112.162489	0.000404	4.040884	1.369088	-0.032265
 601	3.0000e-01	16.0359	111.952768	0.000525	5.253149	1.779815	-0.041944
 602	3.0050e-01	15.9958	111.823708	0.000323	3.232707	1.095271	-0.025812
 603	3.0100e-01	15.9557	111.646252	0.000444	4.444972	1.505997	-0.035491
 604	3.0150e-01	15.9140	111.444597	0.000505	5.051105	1.711361	-0.040331
 605	3.0200e-01	15.8691	111.299406	0.000364	3.636795	1.232180	-0.029038
 606	3.0250e-01	15.8322	111.097751	0.000505	5.051105	1.711361	-0.040331
 607	3.0300e-01	15.7937	110.924327	0.000434	4.343950	1.471770	-0.034685
 608	3.0350e-01	15.7568	110.746871	0.000444	4.444972	1.505997	-0.035491
 609	3.0400e-01	15.7119	110.537150	0.000525	5.253149	1.779815	-0.041944
 610	3.0450e-01	15.6734	110.363727	0.000434	4.343950	1.471770	-0.034685
 611	3.0500e-01	15.6397	110.141906	0.000556	5.556215	1.882497	-0.044364
 612	3.0550e-01	15.5964	110.077377	0.000162	1.616353	0.547635	-0.012906
 613	3.0600e-01	15.5530	109.758762	0.000798	7.980745	2.703950	-0.063723
 614	3.0650e-01	15.5161	109.561140	0.000495	4.950082	1.677133	-0.039524
 615	3.0700e-01	15.4760	109.436114	0.000313	3.131685	1.061044	-0.025005
 616	3.0750e-01	15.4295	109.214294	0.000556	5.556215	1.882497	-0.044364
 617	3.0800e-01	15.3942	109.133632	0.000202	2.020442	0.684544	-0.016132
 618	3.0850e-01	15.3605	108.911811	0.000556	5.556215	1.882497	-0.044364
 619	3.0900e-01	15.3172	108.710156	0.000505	5.051105	1.711361	-0.040331
 620	3.0950e-01	15.2659	108.552865	0.000394	3.939862	1.334861	-0.031458
 621	3.1000e-01	15.2338	108.214085	0.000849	8.485856	2.875086	-0.067756
 622	3.1050e-01	15.1889	108.327012	-0.000283	-2.828619	-0.958362	0.022585
 623	3.1100e-01	15.1504	108.016463	0.000778	7.778701	2.635495	-0.062110
 624	3.1150e-01	15.1151	107.826908	0.000475	4.748038	1.608679	-0.037911
 625	3.1200e-01	15.0750	107.633319	0.000485	4.849060	1.642906	-0.038718
 626	3.1250e-01	15.0413	107.431664	0.000505	5.051105	1.711361	-0.040331
 627	3.1300e-01	14.9851	107.282439	0.000374	3.737817	1.266407	-0.029845
 628	3.1350e-01	14.9579	107.056586	0.000566	5.657237	1.916724	-0.045171
 629	3.1400e-01	14.9033	106.862997	0.000485	4.849060	1.642906	-0.038718
 630	3.1450e-01	14.8728	106.701673	0.000404	4.040884	1.369088	-0.032265
 631	3.1500e-01	14.8375	106.560515	0.000354	3.535773	1.197952	-0.028232
 632	3.1550e-01	14.7926	106.399191	0.000404	4.040884	1.369088	-0.032265
 633	3.1600e-01	14.7573	106.189470	0.000525	5.253149	1.779815	-0.041944
 634	3.1650e-01	14.7204	105.983782	0.000515	5.152127	1.745588	-0.041138
 635	3.1700e-01	14.6803	105.757928	0.000566	5.657237	1.916724	-0.045171
 636	3.1750e-01	14.6434	105.596604	0.000404	4.040884	1.369088	-0.032265
 637	3.1800e-01	14.5857	105.459479	0.000343	3.434751	1.163725	-0.027425
 638	3.1850e-01	14.5536	105.338486	0.000303	3.030663	1.026816	-0.024199
 639	3.1900e-01	14.5087	105.084401	0.000636	6.364392	2.156314	-0.050817
 640	3.1950e-01	14.4734	104.898878	0.000465	4.647016	1.574452	-0.037105
 641	3.2000e-01	14.4381	104.652859	0.000616	6.162348	2.087860	-0.049204
 642	3.2050e-01	14.4076	104.483469	0.000424	4.242928	1.437543	-0.033878
 643	3.2100e-01	14.3531	104.221318	0.000657	6.566436	2.224769	-0.052430
 644	3.2150e-01	14.3114	104.148722	0.000182	1.818398	0.616090	-0.014519
 645	3.2200e-01	14.2745	103.951100	0.000495	4.950082	1.677133	-0.039524
 646	3.2250e-01	14.2344	103.789776	0.000404	4.040884	1.369088	-0.032265
 647	3.2300e-01	14.1894	103.576022	0.000535	5.354171	1.814042	-0.042751
 648	3.2350e-01	14.1638	103.414698	0.000404	4.040884	1.369088	-0.032265
 649	3.2400e-01	14.1156	103.172712	0.000606	6.061325	2.053633	-0.048397
 650	3.2450e-01	14.0771	102.987189	0.000465	4.647016	1.574452	-0.037105
 651	3.2500e-01	14.0322	102.781501	0.000515	5.152127	1.745588	-0.041138
 652	3.2550e-01	13.9953	102.547582	0.000586	5.859281	1.985178	-0.046784
 653	3.2600e-01	13.9520	102.370125	0.000444	4.444972	1.505997	-0.035491
 654	3.2650e-01	13.9135	102.249132	0.000303	3.030663	1.026816	-0.024199
 655	3.2700e-01	13.8702	101.995047	0.000636	6.364392	2.156314	-0.050817
 656	3.2750e-01	13.8333	101.797425	0.000495	4.950082	1.677133	-0.039524
 657	3.2800e-01	13.7884	101.676432	0.000303	3.030663	1.026816	-0.024199
 658	3.2850e-01	13.7547	101.446546	0.000576	5.758259	1.950951	-0.045977
 659	3.2900e-01	13.7130	101.216659	0.000576	5.758259	1.950951	-0.045977
 660	3.2950e-01	13.6713	101.071468	0.000364	3.636795	1.232180	-0.029038
 661	3.3000e-01	13.6376	100.958541	0.000283	2.828619	0.958362	-0.022585
 662	3.3050e-01	13.5927	100.647992	0.000778	7.778701	2.635495	-0.062110
 663	3.3100e-01	13.5510	100.583463	0.000162	1.616353	0.547635	-0.012906
 664	3.3150e-01	13.5125	100.397940	0.000465	4.647016	1.574452	-0.037105
 665	3.3200e-01	13.4772	100.123689	0.000687	6.869502	2.327450	-0.054850
 666	3.3250e-01	13.4419	99.889770	0.000586	5.859281	1.985178	-0.046784
 667	3.3300e-01	13.3953	99.688115	0.000505	5.051105	1.711361	-0.040331
 668	3.3350e-01	13.3504	99.542923	0.000364	3.636795	1.232180	-0.029038
 669	3.3400e-01	13.3167	99.309003	0.000586	5.859281	1.985178	-0.046784
 670	3.3450e-01	13.2750	99.087183	0.000556	5.556215	1.882497	-0.044364
 671	3.3500e-01	13.2381	98.929892	0.000394	3.939862	1.334861	-0.031458
 672	3.3550e-01	13.1852	98.768568	0.000404	4.040884	1.369088	-0.032265
 673	3.3600e-01	13.1515	98.599178	0.000424	4.242928	1.437543	-0.033878
 674	3.3650e-01	13.1098	98.357192	0.000606	6.061325	2.053633	-0.048397
 675	3.3700e-01	13.0809	98.147471	0.000525	5.253149	1.779815	-0.041944
 676	3.3750e-01	13.0296	97.925651	0.000556	5.556215	1.882497	-0.044364
 677	3.3800e-01	12.9927	97.752227	0.000434	4.343950	1.471770	-0.034685
 678	3.3850e-01	12.9510	97.574771	0.000444	4.444972	1.505997	-0.035491
 679	3.3900e-01	12.9109	97.252123	0.000808	8.081767	2.738177	-0.064530
 680	3.3950e-01	12.8708	97.127097	0.000313	3.131685	1.061044	-0.025005
 681	3.4000e-01	12.8339	96.989972	0.000343	3.434751	1.163725	-0.027425
 682	3.4050e-01	12.7889	96.824615	0.000414	4.141906	1.403316	-0.033071
 683	3.4100e-01	12.7585	96.626993	0.000495	4.950082	1.677133	-0.039524
 684	3.4150e-01	12.7151	96.372908	0.000636	6.364392	2.156314	-0.050817
 685	3.4200e-01	12.6766	96.203518	0.000424	4.242928	1.437543	-0.033878
 686	3.4250e-01	12.6349	96.009929	0.000485	4.849060	1.642906	-0.038718
 687	3.4300e-01	12.5964	95.784075	0.000566	5.657237	1.916724	-0.045171
 688	3.4350e-01	12.5644	95.509825	0.000687	6.869502	2.327450	-0.054850
 689	3.4400e-01	12.5114	95.368666	0.000354	3.535773	1.197952	-0.028232
 690	3.4450e-01	12.4745	95.207342	0.000404	4.040884	1.369088	-0.032265
 691	3.4500e-01	12.4248	95.191210	0.000040	0.404088	0.136909	-0.003226
 692	3.4550e-01	12.3975	94.929058	0.000657	6.566436	2.224769	-0.052430
 693	3.4600e-01	12.3494	94.638675	0.000727	7.273591	2.464359	-0.058077
 694	3.4650e-01	12.3205	94.453153	0.000465	4.647016	1.574452	-0.037105
 695	3.4700e-01	12.2740	94.259564	0.000485	4.849060	1.642906	-0.038718
 696	3.4750e-01	12.2355	93.993379	0.000667	6.667458	2.258996	-0.053237
 697	3.4800e-01	12.1874	93.731228	0.000657	6.566436	2.224769	-0.052430
 698	3.4850e-01	12.1521	93.686864	0.000111	1.111243	0.376499	-0.008873
 699	3.4900e-01	12.1168	93.424713	0.000657	6.566436	2.224769	-0.052430
 700	3.4950e-01	12.0654	93.271455	0.000384	3.838839	1.300634	-0.030652
 701	3.5000e-01	12.0237	93.049634	0.000556	5.556215	1.882497	-0.044364
 702	3.5050e-01	11.9948	92.811682	0.000596	5.960303	2.019405	-0.047591
 703	3.5100e-01	11.9547	92.561629	0.000626	6.263370	2.122087	-0.050010
 704	3.5150e-01	11.9130	92.400306	0.000404	4.040884	1.369088	-0.032265
 705	3.5200e-01	11.8793	92.162353	0.000596	5.960303	2.019405	-0.047591
 706	3.5250e-01	11.8376	91.984896	0.000444	4.444972	1.505997	-0.035491
 707	3.5300e-01	11.7879	91.763076	0.000556	5.556215	1.882497	-0.044364
 708	3.5350e-01	11.7558	91.638050	0.000313	3.131685	1.061044	-0.025005
 709	3.5400e-01	11.7141	91.396064	0.000606	6.061325	2.053633	-0.048397
 710	3.5450e-01	11.6756	91.222641	0.000434	4.343950	1.471770	-0.034685
 711	3.5500e-01	11.6323	90.932258	0.000727	7.273591	2.464359	-0.058077
 712	3.5550e-01	11.5986	90.734636	0.000495	4.950082	1.677133	-0.039524
 713	3.5600e-01	11.5569	90.528948	0.000515	5.152127	1.745588	-0.041138
 714	3.5650e-01	11.5136	90.331326	0.000495	4.950082	1.677133	-0.039524
 715	3.5700e-01	11.4703	90.113539	0.000546	5.455193	1.848269	-0.043557
 716	3.5750e-01	11.4334	89.863487	0.000626	6.263370	2.122087	-0.050010
 717	3.5800e-01	11.4013	89.617467	0.000616	6.162348	2.087860	-0.049204
 718	3.5850e-01	11.3532	89.472276	0.000364	3.636795	1.232180	-0.029038
 719	3.5900e-01	11.3130	89.181893	0.000727	7.273591	2.464359	-0.058077
 720	3.5950e-01	11.2729	88.972172	0.000525	5.253149	1.779815	-0.041944
 721	3.6000e-01	11.2296	88.770517	0.000505	5.051105	1.711361	-0.040331
 722	3.6050e-01	11.1879	88.645491	0.000313	3.131685	1.061044	-0.025005
 723	3.6100e-01	11.1542	88.476101	0.000424	4.242928	1.437543	-0.033878
 724	3.6150e-01	11.1141	88.298644	0.000444	4.444972	1.505997	-0.035491
 725	3.6200e-01	11.0724	88.028427	0.000677	6.768480	2.293223	-0.054044
 726	3.6250e-01	11.0419	87.883235	0.000364	3.636795	1.232180	-0.029038
 727	3.6300e-01	11.0018	87.645282	0.000596	5.960303	2.019405	-0.047591
 728	3.6350e-01	10.9473	87.366998	0.000697	6.970524	2.361678	-0.055657
 729	3.6400e-01	10.9088	87.157277	0.000525	5.253149	1.779815	-0.041944
 730	3.6450e-01	10.8703	86.975788	0.000455	4.545994	1.540224	-0.036298
 731	3.6500e-01	10.8366	86.701537	0.000687	6.869502	2.327450	-0.054850
 732	3.6550e-01	10.7917	86.564412	0.000343	3.434751	1.163725	-0.027425
 733	3.6600e-01	10.7500	86.322426	0.000606	6.061325	2.053633	-0.048397
 734	3.6650e-01	10.7227	86.112705	0.000525	5.253149	1.779815	-0.041944
 735	3.6700e-01	10.6762	85.866686	0.000616	6.162348	2.087860	-0.049204
 736	3.6750e-01	10.6313	85.689229	0.000444	4.444972	1.505997	-0.035491
 737	3.6800e-01	10.5911	85.394813	0.000737	7.374613	2.498586	-0.058883
 738	3.6850e-01	10.5542	85.205258	0.000475	4.748038	1.608679	-0.037911
 739	3.6900e-01	10.5238	84.991503	0.000535	5.354171	1.814042	-0.042751
 740	3.6950e-01	10.4676	84.797915	0.000485	4.849060	1.642906	-0.038718
 741	3.7000e-01	10.4452	84.499465	0.000748	7.475635	2.532814	-0.059690
 742	3.7050e-01	10.3954	84.350241	0.000374	3.737817	1.266407	-0.029845
 743	3.7100e-01	10.3505	84.128420	0.000556	5.556215	1.882497	-0.044364
 744	3.7150e-01	10.3200	84.015494	0.000283	2.828619	0.958362	-0.022585
 745	3.7200e-01	10.2719	83.773508	0.000606	6.061325	2.053633	-0.048397
 746	3.7250e-01	10.2382	83.547654	0.000566	5.657237	1.916724	-0.045171
 747	3.7300e-01	10.1965	83.297602	0.000626	6.263370	2.122087	-0.050010
 748	3.7350e-01	10.1484	83.071748	0.000566	5.657237	1.916724	-0.045171
 749	3.7400e-01	10.1147	82.874127	0.000495	4.950082	1.677133	-0.039524
 750	3.7450e-01	10.0714	82.607942	0.000667	6.667458	2.258996	-0.053237
 751	3.7500e-01	10.0265	82.434519	0.000434	4.343950	1.471770	-0.034685
 752	3.7550e-01	9.9815	82.277228	0.000394	3.939862	1.334861	-0.031458
 753	3.7600e-01	9.9511	82.059441	0.000546	5.455193	1.848269	-0.043557
 754	3.7650e-01	9.9126	81.801322	0.000647	6.465414	2.190542	-0.051624
 755	3.7700e-01	9.8724	81.519005	0.000707	7.071546	2.395905	-0.056463
 756	3.7750e-01	9.8356	81.329450	0.000475	4.748038	1.608679	-0.037911
 757	3.7800e-01	9.7922	81.143927	0.000465	4.647016	1.574452	-0.037105
 758	3.7850e-01	9.7537	80.918074	0.000566	5.657237	1.916724	-0.045171
 759	3.7900e-01	9.7152	80.559128	0.000899	8.990966	3.046222	-0.071789
 760	3.7950e-01	9.6767	80.377639	0.000455	4.545994	1.540224	-0.036298
 761	3.8000e-01	9.6286	80.111454	0.000667	6.667458	2.258996	-0.053237
 762	3.8050e-01	9.5949	79.962229	0.000374	3.737817	1.266407	-0.029845
 763	3.8100e-01	9.5484	79.659747	0.000758	7.576657	2.567041	-0.060496
 764	3.8150e-01	9.5147	79.554886	0.000263	2.626574	0.889907	-0.020972
 765	3.8200e-01	9.4714	79.329033	0.000566	5.657237	1.916724	-0.045171
 766	3.8250e-01	9.4201	79.083014	0.000616	6.162348	2.087860	-0.049204
 767	3.8300e-01	9.3944	78.869260	0.000535	5.354171	1.814042	-0.042751
 768	3.8350e-01	9.3463	78.679704	0.000475	4.748038	1.608679	-0.037911
 769	3.8400e-01	9.3158	78.514347	0.000414	4.141906	1.403316	-0.033071
 770	3.8450e-01	9.2725	78.223964	0.000727	7.273591	2.464359	-0.058077
 771	3.8500e-01	9.2259	77.990044	0.000586	5.859281	1.985178	-0.046784
 772	3.8550e-01	9.1906	77.800489	0.000475	4.748038	1.608679	-0.037911
 773	3.8600e-01	9.1505	77.590767	0.000525	5.253149	1.779815	-0.041944
 774	3.8650e-01	9.1201	77.276186	0.000788	7.879723	2.669722	-0.062916
 775	3.8700e-01	9.0719	77.022101	0.000636	6.364392	2.156314	-0.050817
 776	3.8750e-01	9.0382	76.747850	0.000687	6.869502	2.327450	-0.054850
 777	3.8800e-01	8.9901	76.489732	0.000647	6.465414	2.190542	-0.051624
 778	3.8850e-01	8.9500	76.328408	0.000404	4.040884	1.369088	-0.032265
 779	3.8900e-01	8.9035	76.106587	0.000556	5.556215	1.882497	-0.044364
 780	3.8950e-01	8.8746	75.876701	0.000576	5.758259	1.950951	-0.045977
 781	3.9000e-01	8.8329	75.727476	0.000374	3.737817	1.266407	-0.029845
 782	3.9050e-01	8.7912	75.384663	0.000859	8.586878	2.909313	-0.068563
 783	3.9100e-01	8.7495	75.207206	0.000444	4.444972	1.505997	-0.035491
 784	3.9150e-01	8.7094	74.985386	0.000556	5.556215	1.882497	-0.044364
 785	3.9200e-01	8.6661	74.686936	0.000748	7.475635	2.532814	-0.059690
 786	3.9250e-01	8.6340	74.465116	0.000556	5.556215	1.882497	-0.044364
 787	3.9300e-01	8.5987	74.251362	0.000535	5.354171	1.814042	-0.042751
 788	3.9350e-01	8.5538	74.025508	0.000566	5.657237	1.916724	-0.045171
 789	3.9400e-01	8.5153	73.819820	0.000515	5.152127	1.745588	-0.041138
 790	3.9450e-01	8.4784	73.549603	0.000677	6.768480	2.293223	-0.054044
 791	3.9500e-01	8.4335	73.331815	0.000546	5.455193	1.848269	-0.043557
 792	3.9550e-01	8.3950	73.126127	0.000515	5.152127	1.745588	-0.041138
 793	3.9600e-01	8.3452	72.880108	0.000616	6.162348	2.087860	-0.049204
 794	3.9650e-01	8.3083	72.634089	0.000616	6.162348	2.087860	-0.049204
 795	3.9700e-01	8.2827	72.396136	0.000596	5.960303	2.019405	-0.047591
 796	3.9750e-01	8.2409	72.150117	0.000616	6.162348	2.087860	-0.049204
 797	3.9800e-01	8.1848	71.843602	0.000768	7.677679	2.601268	-0.061303
 798	3.9850e-01	8.1479	71.678245	0.000414	4.141906	1.403316	-0.033071
 799	3.9900e-01	8.1110	71.468524	0.000525	5.253149	1.779815	-0.041944
 800	3.9950e-01	8.0741	71.174108	0.000737	7.374613	2.498586	-0.058883
 801	4.0000e-01	8.0356	71.049082	0.000313	3.131685	1.061044	-0.025005
 802	4.0050e-01	7.9955	70.746599	0.000758	7.576657	2.567041	-0.060496
 803	4.0100e-01	7.9538	70.492514	0.000636	6.364392	2.156314	-0.050817
 804	4.0150e-01	7.9201	70.234396	0.000647	6.465414	2.190542	-0.051624
 805	4.0200e-01	7.8720	70.052906	0.000455	4.545994	1.540224	-0.036298
 806	4.0250e-01	7.8335	69.770589	0.000707	7.071546	2.395905	-0.056463
 807	4.0300e-01	7.7821	69.629431	0.000354	3.535773	1.197952	-0.028232
 808	4.0350e-01	7.7581	69.387445	0.000606	6.061325	2.053633	-0.048397
 809	4.0400e-01	7.7180	69.105128	0.000707	7.071546	2.395905	-0.056463
 810	4.0450e-01	7.6746	68.790546	0.000788	7.879723	2.669722	-0.062916
 811	4.0500e-01	7.6313	68.584858	0.000515	5.152127	1.745588	-0.041138
 812	4.0550e-01	7.5896	68.346905	0.000596	5.960303	2.019405	-0.047591
 813	4.0600e-01	7.5607	68.108953	0.000596	5.960303	2.019405	-0.047591
 814	4.0650e-01	7.5126	67.875033	0.000586	5.859281	1.985178	-0.046784
 815	4.0700e-01	7.4725	67.641113	0.000586	5.859281	1.985178	-0.046784
 816	4.0750e-01	7.4356	67.282167	0.000899	8.990966	3.046222	-0.071789
 817	4.0800e-01	7.3923	67.104711	0.000444	4.444972	1.505997	-0.035491
 818	4.0850e-01	7.3570	66.842560	0.000657	6.566436	2.224769	-0.052430
 819	4.0900e-01	7.3169	66.612673	0.000576	5.758259	1.950951	-0.045977
 820	4.0950e-01	7.2816	66.326323	0.000717	7.172568	2.430132	-0.057270
 821	4.1000e-01	7.2255	66.104503	0.000556	5.556215	1.882497	-0.044364
 822	4.1050e-01	7.1822	65.935112	0.000424	4.242928	1.437543	-0.033878
 823	4.1100e-01	7.1485	65.560034	0.000940	9.395054	3.183131	-0.075016
 824	4.1150e-01	7.1084	65.378545	0.000455	4.545994	1.540224	-0.036298
 825	4.1200e-01	7.0682	65.160758	0.000546	5.455193	1.848269	-0.043557
 826	4.1250e-01	7.0346	64.930871	0.000576	5.758259	1.950951	-0.045977
 827	4.1300e-01	6.9848	64.620322	0.000778	7.778701	2.635495	-0.062110
 828	4.1350e-01	6.9447	64.386403	0.000586	5.859281	1.985178	-0.046784
 829	4.1400e-01	6.9062	64.067788	0.000798	7.980745	2.703950	-0.063723
 830	4.1450e-01	6.8709	63.854034	0.000535	5.354171	1.814042	-0.042751
 831	4.1500e-01	6.8292	63.608015	0.000616	6.162348	2.087860	-0.049204
 832	4.1550e-01	6.8052	63.446691	0.000404	4.040884	1.369088	-0.032265
 833	4.1600e-01	6.7570	63.188572	0.000647	6.465414	2.190542	-0.051624
 834	4.1650e-01	6.7201	62.853825	0.000838	8.384834	2.840859	-0.066949
 835	4.1700e-01	6.6768	62.607806	0.000616	6.162348	2.087860	-0.049204
 836	4.1750e-01	6.6383	62.369853	0.000596	5.960303	2.019405	-0.047591
 837	4.1800e-01	6.5918	62.184331	0.000465	4.647016	1.574452	-0.037105
 838	4.1850e-01	6.5549	61.897981	0.000717	7.172568	2.430132	-0.057270
 839	4.1900e-01	6.5132	61.623730	0.000687	6.869502	2.327450	-0.054850
 840	4.1950e-01	6.4843	61.216387	0.001020	10.203231	3.456948	-0.081469
 841	4.2000e-01	6.4266	61.018765	0.000495	4.950082	1.677133	-0.039524
 842	4.2050e-01	6.3961	60.768713	0.000626	6.263370	2.122087	-0.050010
 843	4.2100e-01	6.3479	60.619489	0.000374	3.737817	1.266407	-0.029845
 844	4.2150e-01	6.3127	60.462198	0.000394	3.939862	1.334861	-0.031458
 845	4.2200e-01	6.2758	60.163748	0.000748	7.475635	2.532814	-0.059690
 846	4.2250e-01	6.2244	59.933862	0.000576	5.758259	1.950951	-0.045977
 847	4.2300e-01	6.1988	59.574916	0.000899	8.990966	3.046222	-0.071789
 848	4.2350e-01	6.1619	59.397460	0.000444	4.444972	1.505997	-0.035491
 849	4.2400e-01	6.1105	59.187739	0.000525	5.253149	1.779815	-0.041944
 850	4.2450e-01	6.0688	58.881223	0.000768	7.677679	2.601268	-0.061303
 851	4.2500e-01	6.0367	58.675535	0.000515	5.152127	1.745588	-0.041138
 852	4.2550e-01	5.9902	58.292391	0.000960	9.597099	3.251585	-0.076629
 853	4.2600e-01	5.9533	58.127034	0.000414	4.141906	1.403316	-0.033071
 854	4.2650e-01	5.9148	57.876981	0.000626	6.263370	2.122087	-0.050010
 855	4.2700e-01	5.8779	57.578532	0.000748	7.475635	2.532814	-0.059690
 856	4.2750e-01	5.8378	57.259917	0.000798	7.980745	2.703950	-0.063723
 857	4.2800e-01	5.7897	57.082461	0.000444	4.444972	1.505997	-0.035491
 858	4.2850e-01	5.7560	56.759813	0.000808	8.081767	2.738177	-0.064530
 859	4.2900e-01	5.7223	56.501695	0.000647	6.465414	2.190542	-0.051624
 860	4.2950e-01	5.6742	56.320205	0.000455	4.545994	1.540224	-0.036298
 861	4.3000e-01	5.6341	56.062087	0.000647	6.465414	2.190542	-0.051624
 862	4.3050e-01	5.5972	55.795903	0.000667	6.667458	2.258996	-0.053237
 863	4.3100e-01	5.5555	55.509553	0.000717	7.172568	2.430132	-0.057270
 864	4.3150e-01	5.5121	55.251434	0.000647	6.465414	2.190542	-0.051624
 865	4.3200e-01	5.4752	54.936853	0.000788	7.879723	2.669722	-0.062916
 866	4.3250e-01	5.4432	54.706966	0.000576	5.758259	1.950951	-0.045977
 867	4.3300e-01	5.3950	54.416583	0.000727	7.273591	2.464359	-0.058077
 868	4.3350e-01	5.3565	54.186696	0.000576	5.758259	1.950951	-0.045977
 869	4.3400e-01	5.3116	53.831784	0.000889	8.889944	3.011995	-0.070983
 870	4.3450e-01	5.2763	53.650294	0.000455	4.545994	1.540224	-0.036298
 871	4.3500e-01	5.2314	53.355878	0.000737	7.374613	2.498586	-0.058883
 872	4.3550e-01	5.2009	53.134058	0.000556	5.556215	1.882497	-0.044364
 873	4.3600e-01	5.1432	52.900138	0.000586	5.859281	1.985178	-0.046784
 874	4.3650e-01	5.1143	52.565391	0.000838	8.384834	2.840859	-0.066949
 875	4.3700e-01	5.0758	52.275008	0.000727	7.273591	2.464359	-0.058077
 876	4.3750e-01	5.0293	52.081419	0.000485	4.849060	1.642906	-0.038718
 877	4.3800e-01	4.9988	51.774903	0.000768	7.677679	2.601268	-0.061303
 878	4.3850e-01	4.9507	51.476454	0.000748	7.475635	2.532814	-0.059690
 879	4.3900e-01	4.9122	51.266733	0.000525	5.253149	1.779815	-0.041944
 880	4.3950e-01	4.8721	50.988449	0.000697	6.970524	2.361678	-0.055657
 881	4.4000e-01	4.8416	50.625470	0.000909	9.091988	3.080449	-0.072596
 882	4.4050e-01	4.7902	50.379451	0.000616	6.162348	2.087860	-0.049204
 883	4.4100e-01	4.7582	50.117300	0.000657	6.566436	2.224769	-0.052430
 884	4.4150e-01	4.7100	49.851115	0.000667	6.667458	2.258996	-0.053237
 885	4.4200e-01	4.6651	49.605096	0.000616	6.162348	2.087860	-0.049204
 886	4.4250e-01	4.6378	49.250184	0.000889	8.889944	3.011995	-0.070983
 887	4.4300e-01	4.5929	49.032396	0.000546	5.455193	1.848269	-0.043557
 888	4.4350e-01	4.5496	48.891238	0.000354	3.535773	1.197952	-0.028232
 889	4.4400e-01	4.5191	48.588755	0.000758	7.576657	2.567041	-0.060496
 890	4.4450e-01	4.4726	48.245942	0.000859	8.586878	2.909313	-0.068563
 891	4.4500e-01	4.4277	48.020089	0.000566	5.657237	1.916724	-0.045171
 892	4.4550e-01	4.3988	47.729705	0.000727	7.273591	2.464359	-0.058077
 893	4.4600e-01	4.3427	47.419157	0.000778	7.778701	2.635495	-0.062110
 894	4.4650e-01	4.3186	47.116674	0.000758	7.576657	2.567041	-0.060496
 895	4.4700e-01	4.2689	46.963417	0.000384	3.838839	1.300634	-0.030652
 896	4.4750e-01	4.2336	46.664967	0.000748	7.475635	2.532814	-0.059690
 897	4.4800e-01	4.1903	46.306022	0.000899	8.990966	3.046222	-0.071789
 898	4.4850e-01	4.1550	46.023705	0.000707	7.071546	2.395905	-0.056463
 899	4.4900e-01	4.1084	45.616362	0.001020	10.203231	3.456948	-0.081469
 900	4.4950e-01	4.0715	45.358243	0.000647	6.465414	2.190542	-0.051624
 901	4.5000e-01	4.0282	45.233217	0.000313	3.131685	1.061044	-0.025005
 902	4.5050e-01	3.9897	44.886371	0.000869	8.687900	2.943540	-0.069369
 903	4.5100e-01	3.9544	44.608087	0.000697	6.970524	2.361678	-0.055657
 904	4.5150e-01	3.9063	44.345936	0.000657	6.566436	2.224769	-0.052430
 905	4.5200e-01	3.8774	44.055553	0.000727	7.273591	2.464359	-0.058077
 906	4.5250e-01	3.8309	43.801467	0.000636	6.364392	2.156314	-0.050817
 907	4.5300e-01	3.7940	43.446555	0.000889	8.889944	3.011995	-0.070983
 908	4.5350e-01	3.7443	43.127940	0.000798	7.980745	2.703950	-0.063723
 909	4.5400e-01	3.7154	42.918219	0.000525	5.253149	1.779815	-0.041944
 910	4.5450e-01	3.6769	42.635902	0.000707	7.071546	2.395905	-0.056463
 911	4.5500e-01	3.6352	42.341486	0.000737	7.374613	2.498586	-0.058883
 912	4.5550e-01	3.5983	41.994639	0.000869	8.687900	2.943540	-0.069369
 913	4.5600e-01	3.5454	41.768786	0.000566	5.657237	1.916724	-0.045171
 914	4.5650e-01	3.5181	41.486469	0.000707	7.071546	2.395905	-0.056463
 915	4.5700e-01	3.4780	41.139622	0.000869	8.687900	2.943540	-0.069369
 916	4.5750e-01	3.4315	40.905703	0.000586	5.859281	1.985178	-0.046784
 917	4.5800e-01	3.3913	40.724213	0.000455	4.545994	1.540224	-0.036298
 918	4.5850e-01	3.3512	40.389466	0.000838	8.384834	2.840859	-0.066949
 919	4.5900e-01	3.3079	40.135381	0.000636	6.364392	2.156314	-0.050817
 920	4.5950e-01	3.2742	39.796600	0.000849	8.485856	2.875086	-0.067756
 921	4.6000e-01	3.2341	39.373125	0.001061	10.607320	3.593857	-0.084695
 922	4.6050e-01	3.1956	39.139205	0.000586	5.859281	1.985178	-0.046784
 923	4.6100e-01	3.1507	38.965782	0.000434	4.343950	1.471770	-0.034685
 924	4.6150e-01	3.1186	38.582638	0.000960	9.597099	3.251585	-0.076629
 925	4.6200e-01	3.0737	38.247891	0.000838	8.384834	2.840859	-0.066949
 926	4.6250e-01	3.0320	38.030103	0.000546	5.455193	1.848269	-0.043557
 927	4.6300e-01	2.9903	37.735687	0.000737	7.374613	2.498586	-0.058883
 928	4.6350e-01	2.9566	37.554198	0.000455	4.545994	1.540224	-0.036298
 929	4.6400e-01	2.9133	37.171053	0.000960	9.597099	3.251585	-0.076629
 930	4.6450e-01	2.8716	36.832273	0.000849	8.485856	2.875086	-0.067756
 931	4.6500e-01	2.8299	36.566088	0.000667	6.667458	2.258996	-0.053237
 932	4.6550e-01	2.7946	36.271672	0.000737	7.374613	2.498586	-0.058883
 933	4.6600e-01	2.7561	35.920793	0.000879	8.788922	2.977767	-0.070176
 934	4.6650e-01	2.7128	35.678807	0.000606	6.061325	2.053633	-0.048397
 935	4.6700e-01	2.6646	35.408589	0.000677	6.768480	2.293223	-0.054044
 936	4.6750e-01	2.6277	35.194835	0.000535	5.354171	1.814042	-0.042751
 937	4.6800e-01	2.5956	34.868154	0.000818	8.182789	2.772404	-0.065336
 938	4.6850e-01	2.5427	34.565672	0.000758	7.576657	2.567041	-0.060496
 939	4.6900e-01	2.5170	34.230924	0.000838	8.384834	2.840859	-0.066949
 940	4.6950e-01	2.4817	33.952641	0.000697	6.970524	2.361678	-0.055657
 941	4.7000e-01	2.4304	33.654191	0.000748	7.475635	2.532814	-0.059690
 942	4.7050e-01	2.3887	33.464636	0.000475	4.748038	1.608679	-0.037911
 943	4.7100e-01	2.3566	33.037127	0.001071	10.708342	3.628084	-0.085502
 944	4.7150e-01	2.3085	32.795141	0.000606	6.061325	2.053633	-0.048397
 945	4.7200e-01	2.2716	32.484593	0.000778	7.778701	2.635495	-0.062110
 946	4.7250e-01	2.2331	32.206309	0.000697	6.970524	2.361678	-0.055657
 947	4.7300e-01	2.1866	31.867529	0.000849	8.485856	2.875086	-0.067756
 948	4.7350e-01	2.1481	31.516649	0.000879	8.788922	2.977767	-0.070176
 949	4.7400e-01	2.1144	31.226266	0.000727	7.273591	2.464359	-0.058077
 950	4.7450e-01	2.0759	30.964115	0.000657	6.566436	2.224769	-0.052430
 951	4.7500e-01	2.0342	30.637434	0.000818	8.182789	2.772404	-0.065336
 952	4.7550e-01	1.9925	30.334951	0.000758	7.576657	2.567041	-0.060496
 953	4.7600e-01	1.9491	30.068767	0.000667	6.667458	2.258996	-0.053237
 954	4.7650e-01	1.9171	29.758218	0.000778	7.778701	2.635495	-0.062110
 955	4.7700e-01	1.8673	29.447669	0.000778	7.778701	2.635495	-0.062110
 956	4.7750e-01	1.8240	29.137121	0.000778	7.778701	2.635495	-0.062110
 957	4.7800e-01	1.7951	28.834638	0.000758	7.576657	2.567041	-0.060496
 958	4.7850e-01	1.7454	28.443428	0.000980	9.799143	3.320039	-0.078242
 959	4.7900e-01	1.7085	28.229674	0.000535	5.354171	1.814042	-0.042751
 960	4.7950e-01	1.6732	27.854595	0.000940	9.395054	3.183131	-0.075016
 961	4.8000e-01	1.6395	27.519848	0.000838	8.384834	2.840859	-0.066949
 962	4.8050e-01	1.5882	27.185101	0.000838	8.384834	2.840859	-0.066949
 963	4.8100e-01	1.5529	26.931016	0.000636	6.364392	2.156314	-0.050817
 964	4.8150e-01	1.5128	26.580136	0.000879	8.788922	2.977767	-0.070176
 965	4.8200e-01	1.4695	26.354283	0.000566	5.657237	1.916724	-0.045171
 966	4.8250e-01	1.4214	26.015503	0.000849	8.485856	2.875086	-0.067756
 967	4.8300e-01	1.3941	25.749318	0.000667	6.667458	2.258996	-0.053237
 968	4.8350e-01	1.3556	25.454902	0.000737	7.374613	2.498586	-0.058883
 969	4.8400e-01	1.3091	25.116122	0.000849	8.485856	2.875086	-0.067756
 970	4.8450e-01	1.2786	24.724911	0.000980	9.799143	3.320039	-0.078242
 971	4.8500e-01	1.2353	24.434528	0.000727	7.273591	2.464359	-0.058077
 972	4.8550e-01	1.1984	24.123979	0.000778	7.778701	2.635495	-0.062110
 973	4.8600e-01	1.1454	23.894093	0.000576	5.758259	1.950951	-0.045977
 974	4.8650e-01	1.1069	23.498849	0.000990	9.900165	3.354267	-0.079049
 975	4.8700e-01	1.0732	23.180234	0.000798	7.980745	2.703950	-0.063723
 976	4.8750e-01	1.0283	22.901950	0.000697	6.970524	2.361678	-0.055657
 977	4.8800e-01	0.9898	22.595435	0.000768	7.677679	2.601268	-0.061303
 978	4.8850e-01	0.9513	22.292953	0.000758	7.576657	2.567041	-0.060496
 979	4.8900e-01	0.9096	21.970305	0.000808	8.081767	2.738177	-0.064530
 980	4.8950e-01	0.8791	21.566995	0.001010	10.102209	3.422721	-0.080662
 981	4.9000e-01	0.8326	21.292744	0.000687	6.869502	2.327450	-0.054850
 982	4.9050e-01	0.7861	21.010427	0.000707	7.071546	2.395905	-0.056463
 983	4.9100e-01	0.7524	20.711978	0.000748	7.475635	2.532814	-0.059690
 984	4.9150e-01	0.7187	20.340933	0.000929	9.294032	3.148903	-0.074209
 985	4.9200e-01	0.6690	20.038450	0.000758	7.576657	2.567041	-0.060496
 986	4.9250e-01	0.6353	19.707736	0.000828	8.283811	2.806631	-0.066143
 987	4.9300e-01	0.5855	19.385088	0.000808	8.081767	2.738177	-0.064530
 988	4.9350e-01	0.5583	19.042275	0.000859	8.586878	2.909313	-0.068563
 989	4.9400e-01	0.5021	18.695429	0.000869	8.687900	2.943540	-0.069369
 990	4.9450e-01	0.4700	18.413112	0.000707	7.071546	2.395905	-0.056463
 991	4.9500e-01	0.4283	18.070298	0.000859	8.586878	2.909313	-0.068563
 992	4.9550e-01	0.3882	17.840412	0.000576	5.758259	1.950951	-0.045977
 993	4.9600e-01	0.3561	17.501631	0.000849	8.485856	2.875086	-0.067756
 994	4.9650e-01	0.3048	17.150752	0.000879	8.788922	2.977767	-0.070176
 995	4.9700e-01	0.2743	16.771641	0.000950	9.496077	3.217358	-0.075822
 996	4.9750e-01	0.2358	16.489324	0.000707	7.071546	2.395905	-0.056463
 997	4.9800e-01	0.1957	16.134411	0.000889	8.889944	3.011995	-0.070983
 998	4.9850e-01	0.1524	15.831929	0.000758	7.576657	2.567041	-0.060496
 999	4.9900e-01	0.1107	15.517347	0.000788	7.879723	2.669722	-0.062916
1000	4.9950e-01	0.0722	15.130169	0.000970	9.698121	3.285812	-0.077435
1001	5.0000e-01	0.0353	14.730893	0.001000	10.001187	3.388494	-0.079855
1002	5.0050e-01	0.0000	14.496973	0.000586	5.859281	1.985178	-0.046784
1003	5.0100e-01	-0.0481	14.214656	0.000707	7.071546	2.395905	-0.056463
1004	5.0150e-01	-0.0850	13.992836	0.000556	5.556215	1.882497	-0.044364
1005	5.0200e-01	-0.1187	13.637923	0.000889	8.889944	3.011995	-0.070983
1006	5.0250e-01	-0.1604	13.327374	0.000778	7.778701	2.635495	-0.062110
1007	5.0300e-01	-0.2069	12.940197	0.000970	9.698121	3.285812	-0.077435
1008	5.0350e-01	-0.2326	12.585284	0.000889	8.889944	3.011995	-0.070983
1009	5.0400e-01	-0.2791	12.270702	0.000788	7.879723	2.669722	-0.062916
1010	5.0450e-01	-0.3144	11.927889	0.000859	8.586878	2.909313	-0.068563
1011	5.0500e-01	-0.3593	11.492314	0.001091	10.910386	3.696539	-0.087115
1012	5.0550e-01	-0.3946	11.197898	0.000737	7.374613	2.498586	-0.058883
1013	5.0600e-01	-0.4347	10.903482	0.000737	7.374613	2.498586	-0.058883
1014	5.0650e-01	-0.4781	10.633264	0.000677	6.768480	2.293223	-0.054044
1015	5.0700e-01	-0.5278	10.314650	0.000798	7.980745	2.703950	-0.063723
1016	5.0750e-01	-0.5631	9.975869	0.000849	8.485856	2.875086	-0.067756
1017	5.0800e-01	-0.5920	9.536262	0.001101	11.011408	3.730766	-0.087922
1018	5.0850e-01	-0.6369	9.169250	0.000919	9.193010	3.114676	-0.073402
1019	5.0900e-01	-0.6770	8.899032	0.000677	6.768480	2.293223	-0.054044
1020	5.0950e-01	-0.7155	8.596550	0.000758	7.576657	2.567041	-0.060496
1021	5.1000e-01	-0.7524	8.322299	0.000687	6.869502	2.327450	-0.054850
1022	5.1050e-01	-0.7941	7.923022	0.001000	10.001187	3.388494	-0.079855
1023	5.1100e-01	-0.8374	7.511646	0.001030	10.304253	3.491176	-0.082275
1024	5.1150e-01	-0.8791	7.265627	0.000616	6.162348	2.087860	-0.049204
1025	5.1200e-01	-0.9192	6.955079	0.000778	7.778701	2.635495	-0.062110
1026	5.1250e-01	-0.9609	6.571934	0.000960	9.597099	3.251585	-0.076629
1027	5.1300e-01	-1.0042	6.212988	0.000899	8.990966	3.046222	-0.071789
1028	5.1350e-01	-1.0444	5.841943	0.000929	9.294032	3.148903	-0.074209
1029	5.1400e-01	-1.0780	5.559626	0.000707	7.071546	2.395905	-0.056463
1030	5.1450e-01	-1.1165	5.136151	0.001061	10.607320	3.593857	-0.084695
1031	5.1500e-01	-1.1518	4.761073	0.000940	9.395054	3.183131	-0.075016
1032	5.1550e-01	-1.1871	4.559418	0.000505	5.051105	1.711361	-0.040331
1033	5.1600e-01	-1.2417	4.224671	0.000838	8.384834	2.840859	-0.066949
1034	5.1650e-01	-1.2882	3.841526	0.000960	9.597099	3.251585	-0.076629
1035	5.1700e-01	-1.3283	3.474514	0.000919	9.193010	3.114676	-0.073402
1036	5.1750e-01	-1.3604	3.163966	0.000778	7.778701	2.635495	-0.062110
1037	5.1800e-01	-1.4053	2.897781	0.000667	6.667458	2.258996	-0.053237
1038	5.1850e-01	-1.4390	2.474306	0.001061	10.607320	3.593857	-0.084695
1039	5.1900e-01	-1.4935	2.179890	0.000737	7.374613	2.498586	-0.058883
1040	5.1950e-01	-1.5208	1.712050	0.001172	11.718563	3.970356	-0.093568
1041	5.2000e-01	-1.5513	1.526528	0.000465	4.647016	1.574452	-0.037105
1042	5.2050e-01	-1.6042	1.127251	0.001000	10.001187	3.388494	-0.079855
1043	5.2100e-01	-1.6443	0.736040	0.000980	9.799143	3.320039	-0.078242
1044	5.2150e-01	-1.6764	0.369029	0.000919	9.193010	3.114676	-0.073402
1045	5.2200e-01	-1.7213	0.050414	0.000798	7.980745	2.703950	-0.063723
1046	5.2250e-01	-1.7663	-0.280300	0.000828	8.283811	2.806631	-0.066143
1047	5.2300e-01	-1.8032	-0.590849	0.000778	7.778701	2.635495	-0.062110
1048	5.2350e-01	-1.8481	-0.961894	0.000929	9.294032	3.148903	-0.074209
1049	5.2400e-01	-1.8818	-1.296641	0.000838	8.384834	2.840859	-0.066949
1050	5.2450e-01	-1.9299	-1.599124	0.000758	7.576657	2.567041	-0.060496
1051	5.2500e-01	-1.9732	-1.962102	0.000909	9.091988	3.080449	-0.072596
1052	5.2550e-01	-2.0005	-2.353313	0.000980	9.799143	3.320039	-0.078242
1053	5.2600e-01	-2.0390	-2.679994	0.000818	8.182789	2.772404	-0.065336
1054	5.2650e-01	-2.0791	-3.047006	0.000919	9.193010	3.114676	-0.073402
1055	5.2700e-01	-2.1240	-3.325290	0.000697	6.970524	2.361678	-0.055657
1056	5.2750e-01	-2.1593	-3.571309	0.000616	6.162348	2.087860	-0.049204
1057	5.2800e-01	-2.2074	-3.990751	0.001051	10.506297	3.559630	-0.083888
1058	5.2850e-01	-2.2475	-4.329531	0.000849	8.485856	2.875086	-0.067756
1059	5.2900e-01	-2.2748	-4.664279	0.000838	8.384834	2.840859	-0.066949
1060	5.2950e-01	-2.3133	-5.031291	0.000919	9.193010	3.114676	-0.073402
1061	5.3000e-01	-2.3502	-5.378137	0.000869	8.687900	2.943540	-0.069369
1062	5.3050e-01	-2.4031	-5.753215	0.000940	9.395054	3.183131	-0.075016
1063	5.3100e-01	-2.4384	-6.108128	0.000889	8.889944	3.011995	-0.070983
1064	5.3150e-01	-2.4801	-6.446908	0.000849	8.485856	2.875086	-0.067756
1065	5.3200e-01	-2.5202	-6.725192	0.000697	6.970524	2.361678	-0.055657
1066	5.3250e-01	-2.5652	-7.047840	0.000808	8.081767	2.738177	-0.064530
1067	5.3300e-01	-2.6085	-7.338223	0.000727	7.273591	2.464359	-0.058077
1068	5.3350e-01	-2.6454	-7.681036	0.000859	8.586878	2.909313	-0.068563
1069	5.3400e-01	-2.6887	-8.015783	0.000838	8.384834	2.840859	-0.066949
1070	5.3450e-01	-2.7160	-8.390862	0.000940	9.395054	3.183131	-0.075016
1071	5.3500e-01	-2.7529	-8.713510	0.000808	8.081767	2.738177	-0.064530
1072	5.3550e-01	-2.8010	-9.092621	0.000950	9.496077	3.217358	-0.075822
1073	5.3600e-01	-2.8395	-9.435434	0.000859	8.586878	2.909313	-0.068563
1074	5.3650e-01	-2.8956	-9.661288	0.000566	5.657237	1.916724	-0.045171
1075	5.3700e-01	-2.9181	-9.987969	0.000818	8.182789	2.772404	-0.065336
1076	5.3750e-01	-2.9646	-10.391279	0.001010	10.102209	3.422721	-0.080662
1077	5.3800e-01	-3.0047	-10.701827	0.000778	7.778701	2.635495	-0.062110
1078	5.3850e-01	-3.0384	-11.076905	0.000940	9.395054	3.183131	-0.075016
1079	5.3900e-01	-3.0930	-11.294693	0.000546	5.455193	1.848269	-0.043557
1080	5.3950e-01	-3.1170	-11.637506	0.000859	8.586878	2.909313	-0.068563
1081	5.4000e-01	-3.1523	-12.004518	0.000919	9.193010	3.114676	-0.073402
1082	5.4050e-01	-3.2037	-12.335232	0.000828	8.283811	2.806631	-0.066143
1083	5.4100e-01	-3.2389	-12.722410	0.000970	9.698121	3.285812	-0.077435
1084	5.4150e-01	-3.2855	-12.996660	0.000687	6.869502	2.327450	-0.054850
1085	5.4200e-01	-3.3127	-13.287043	0.000727	7.273591	2.464359	-0.058077
1086	5.4250e-01	-3.3577	-13.565327	0.000697	6.970524	2.361678	-0.055657
1087	5.4300e-01	-3.4010	-13.896041	0.000828	8.283811	2.806631	-0.066143
1088	5.4350e-01	-3.4395	-14.347748	0.001131	11.314474	3.833448	-0.090341
1089	5.4400e-01	-3.4860	-14.581668	0.000586	5.859281	1.985178	-0.046784
1090	5.4450e-01	-3.5165	-14.892217	0.000778	7.778701	2.635495	-0.062110
1091	5.4500e-01	-3.5550	-15.206798	0.000788	7.879723	2.669722	-0.062916
1092	5.4550e-01	-3.6047	-15.541545	0.000838	8.384834	2.840859	-0.066949
1093	5.4600e-01	-3.6432	-15.848061	0.000768	7.677679	2.601268	-0.061303
1094	5.4650e-01	-3.6705	-16.207007	0.000899	8.990966	3.046222	-0.071789
1095	5.4700e-01	-3.7234	-16.513522	0.000768	7.677679	2.601268	-0.061303
1096	5.4750e-01	-3.7587	-16.791806	0.000697	6.970524	2.361678	-0.055657
1097	5.4800e-01	-3.7988	-17.138653	0.000869	8.687900	2.943540	-0.069369
1098	5.4850e-01	-3.8453	-17.481466	0.000859	8.586878	2.909313	-0.068563
1099	5.4900e-01	-3.8887	-17.703286	0.000556	5.556215	1.882497	-0.044364
1100	5.4950e-01	-3.9223	-18.102563	0.001000	10.001187	3.388494	-0.079855
1101	5.5000e-01	-3.9576	-18.280019	0.000444	4.444972	1.505997	-0.035491
1102	5.5050e-01	-3.9994	-18.610734	0.000828	8.283811	2.806631	-0.066143
1103	5.5100e-01	-4.0330	-19.022110	0.001030	10.304253	3.491176	-0.082275
1104	5.5150e-01	-4.0812	-19.219731	0.000495	4.950082	1.677133	-0.039524
1105	5.5200e-01	-4.1181	-19.586743	0.000919	9.193010	3.114676	-0.073402
1106	5.5250e-01	-4.1726	-19.643207	0.000141	1.414309	0.479181	-0.011293
1107	5.5300e-01	-4.2079	-20.054583	0.001030	10.304253	3.491176	-0.082275
1108	5.5350e-01	-4.2432	-20.409495	0.000889	8.889944	3.011995	-0.070983
1109	5.5400e-01	-4.2849	-20.732143	0.000808	8.081767	2.738177	-0.064530
1110	5.5450e-01	-4.3282	-21.087056	0.000889	8.889944	3.011995	-0.070983
1111	5.5500e-01	-4.3731	-21.308876	0.000556	5.556215	1.882497	-0.044364
1112	5.5550e-01	-4.3988	-21.550862	0.000606	6.061325	2.053633	-0.048397
1113	5.5600e-01	-4.4437	-21.982404	0.001081	10.809364	3.662312	-0.086308
1114	5.5650e-01	-4.4886	-22.292953	0.000778	7.778701	2.635495	-0.062110
1115	5.5700e-01	-4.5191	-22.647865	0.000889	8.889944	3.011995	-0.070983
1116	5.5750e-01	-4.5512	-22.905984	0.000647	6.465414	2.190542	-0.051624
1117	5.5800e-01	-4.6154	-23.127804	0.000556	5.556215	1.882497	-0.044364
1118	5.5850e-01	-4.6443	-23.402055	0.000687	6.869502	2.327450	-0.054850
1119	5.5900e-01	-4.6779	-23.756967	0.000889	8.889944	3.011995	-0.070983
1120	5.5950e-01	-4.7245	-24.047350	0.000727	7.273591	2.464359	-0.058077
1121	5.6000e-01	-4.7630	-24.345800	0.000748	7.475635	2.532814	-0.059690
1122	5.6050e-01	-4.8095	-24.652315	0.000768	7.677679	2.601268	-0.061303
1123	5.6100e-01	-4.8528	-24.886235	0.000586	5.859281	1.985178	-0.046784
1124	5.6150e-01	-4.8833	-25.144353	0.000647	6.465414	2.190542	-0.051624
1125	5.6200e-01	-4.9234	-25.583961	0.001101	11.011408	3.730766	-0.087922
1126	5.6250e-01	-4.9587	-25.862245	0.000697	6.970524	2.361678	-0.055657
1127	5.6300e-01	-5.0036	-26.112297	0.000626	6.263370	2.122087	-0.050010
1128	5.6350e-01	-5.0453	-26.378481	0.000667	6.667458	2.258996	-0.053237
1129	5.6400e-01	-5.0838	-26.644666	0.000667	6.667458	2.258996	-0.053237
1130	5.6450e-01	-5.1223	-26.838255	0.000485	4.849060	1.642906	-0.038718
1131	5.6500e-01	-5.1656	-27.209300	0.000929	9.294032	3.148903	-0.074209
1132	5.6550e-01	-5.1993	-27.519848	0.000778	7.778701	2.635495	-0.062110
1133	5.6600e-01	-5.2442	-27.798132	0.000697	6.970524	2.361678	-0.055657
1134	5.6650e-01	-5.2827	-28.104648	0.000768	7.677679	2.601268	-0.061303
1135	5.6700e-01	-5.3293	-28.403097	0.000748	7.475635	2.532814	-0.059690
1136	5.6750e-01	-5.3630	-28.576520	0.000434	4.343950	1.471770	-0.034685
1137	5.6800e-01	-5.4079	-28.967731	0.000980	9.799143	3.320039	-0.078242
1138	5.6850e-01	-5.4496	-29.149220	0.000455	4.545994	1.540224	-0.036298
1139	5.6900e-01	-5.4849	-29.439603	0.000727	7.273591	2.464359	-0.058077
1140	5.6950e-01	-5.5186	-29.782417	0.000859	8.586878	2.909313	-0.068563
1141	5.7000e-01	-5.5731	-29.984072	0.000505	5.051105	1.711361	-0.040331
1142	5.7050e-01	-5.6068	-30.318819	0.000838	8.384834	2.840859	-0.066949
1143	5.7100e-01	-5.6485	-30.629367	0.000778	7.778701	2.635495	-0.062110
1144	5.7150e-01	-5.6758	-30.863287	0.000586	5.859281	1.985178	-0.046784
1145	5.7200e-01	-5.7255	-31.222233	0.000899	8.990966	3.046222	-0.071789
1146	5.7250e-01	-5.7656	-31.468252	0.000616	6.162348	2.087860	-0.049204
1147	5.7300e-01	-5.8041	-31.718304	0.000626	6.263370	2.122087	-0.050010
1148	5.7350e-01	-5.8378	-32.085316	0.000919	9.193010	3.114676	-0.073402
1149	5.7400e-01	-5.8843	-32.291004	0.000515	5.152127	1.745588	-0.041138
1150	5.7450e-01	-5.9132	-32.569288	0.000697	6.970524	2.361678	-0.055657
1151	5.7500e-01	-5.9645	-32.835472	0.000667	6.667458	2.258996	-0.053237
1152	5.7550e-01	-6.0095	-33.057293	0.000556	5.556215	1.882497	-0.044364
1153	5.7600e-01	-6.0447	-33.275080	0.000546	5.455193	1.848269	-0.043557
1154	5.7650e-01	-6.0849	-33.634026	0.000899	8.990966	3.046222	-0.071789
1155	5.7700e-01	-6.1298	-33.803416	0.000424	4.242928	1.437543	-0.033878
1156	5.7750e-01	-6.1586	-34.198660	0.000990	9.900165	3.354267	-0.079049
1157	5.7800e-01	-6.2052	-34.408381	0.000525	5.253149	1.779815	-0.041944
1158	5.7850e-01	-6.2389	-34.694731	0.000717	7.172568	2.430132	-0.057270
1159	5.7900e-01	-6.2790	-34.960915	0.000667	6.667458	2.258996	-0.053237
1160	5.7950e-01	-6.3287	-35.235166	0.000687	6.869502	2.327450	-0.054850
1161	5.8000e-01	-6.3463	-35.489251	0.000636	6.364392	2.156314	-0.050817
1162	5.8050e-01	-6.4009	-35.795767	0.000768	7.677679	2.601268	-0.061303
1163	5.8100e-01	-6.4458	-36.182944	0.000970	9.698121	3.285812	-0.077435
1164	5.8150e-01	-6.4763	-36.348301	0.000414	4.141906	1.403316	-0.033071
1165	5.8200e-01	-6.5180	-36.501559	0.000384	3.838839	1.300634	-0.030652
1166	5.8250e-01	-6.5581	-36.759677	0.000647	6.465414	2.190542	-0.051624
1167	5.8300e-01	-6.6030	-37.041994	0.000707	7.071546	2.395905	-0.056463
1168	5.8350e-01	-6.6335	-37.364642	0.000808	8.081767	2.738177	-0.064530
1169	5.8400e-01	-6.6784	-37.663091	0.000748	7.475635	2.532814	-0.059690
1170	5.8450e-01	-6.7265	-37.880879	0.000546	5.455193	1.848269	-0.043557
1171	5.8500e-01	-6.7586	-38.134964	0.000636	6.364392	2.156314	-0.050817
1172	5.8550e-01	-6.7939	-38.433413	0.000748	7.475635	2.532814	-0.059690
1173	5.8600e-01	-6.8453	-38.675399	0.000606	6.061325	2.053633	-0.048397
1174	5.8650e-01	-6.8773	-38.961749	0.000717	7.172568	2.430132	-0.057270
1175	5.8700e-01	-6.9255	-39.203735	0.000606	6.061325	2.053633	-0.048397
1176	5.8750e-01	-6.9640	-39.490085	0.000717	7.172568	2.430132	-0.057270
1177	5.8800e-01	-6.9977	-39.728038	0.000596	5.960303	2.019405	-0.047591
1178	5.8850e-01	-7.0426	-39.816766	0.000222	2.222486	0.752999	-0.017746
1179	5.8900e-01	-7.0811	-40.187811	0.000929	9.294032	3.148903	-0.074209
1180	5.8950e-01	-7.1228	-40.429797	0.000606	6.061325	2.053633	-0.048397
1181	5.9000e-01	-7.1629	-40.695981	0.000667	6.667458	2.258996	-0.053237
1182	5.9050e-01	-7.2030	-40.982331	0.000717	7.172568	2.430132	-0.057270
1183	5.9100e-01	-7.2287	-41.216251	0.000586	5.859281	1.985178	-0.046784
1184	5.9150e-01	-7.2848	-41.571164	0.000889	8.889944	3.011995	-0.070983
1185	5.9200e-01	-7.3249	-41.760719	0.000475	4.748038	1.608679	-0.037911
1186	5.9250e-01	-7.3554	-42.103533	0.000859	8.586878	2.909313	-0.068563
1187	5.9300e-01	-7.3971	-42.309221	0.000515	5.152127	1.745588	-0.041138
1188	5.9350e-01	-7.4485	-42.498777	0.000475	4.748038	1.608679	-0.037911
1189	5.9400e-01	-7.4837	-42.724630	0.000566	5.657237	1.916724	-0.045171
1190	5.9450e-01	-7.5222	-43.067443	0.000859	8.586878	2.909313	-0.068563
1191	5.9500e-01	-7.5624	-43.309429	0.000606	6.061325	2.053633	-0.048397
1192	5.9550e-01	-7.6025	-43.519150	0.000525	5.253149	1.779815	-0.041944
1193	5.9600e-01	-7.6474	-43.833732	0.000788	7.879723	2.669722	-0.062916
1194	5.9650e-01	-7.6843	-44.051519	0.000546	5.455193	1.848269	-0.043557
1195	5.9700e-01	-7.7276	-44.277373	0.000566	5.657237	1.916724	-0.045171
1196	5.9750e-01	-7.7629	-44.575822	0.000748	7.475635	2.532814	-0.059690
1197	5.9800e-01	-7.7934	-44.854106	0.000697	6.970524	2.361678	-0.055657
1198	5.9850e-01	-7.8383	-45.011397	0.000394	3.939862	1.334861	-0.031458
1199	5.9900e-01	-7.8880	-45.366310	0.000889	8.889944	3.011995	-0.070983
1200	5.9950e-01	-7.9265	-45.555865	0.000475	4.748038	1.608679	-0.037911
1201	6.0000e-01	-7.9586	-45.826083	0.000677	6.768480	2.293223	-0.054044
1202	6.0050e-01	-8.0019	-46.144698	0.000798	7.980745	2.703950	-0.063723
1203	6.0100e-01	-8.0436	-46.402816	0.000647	6.465414	2.190542	-0.051624
1204	6.0150e-01	-8.0709	-46.580272	0.000444	4.444972	1.505997	-0.035491
1205	6.0200e-01	-8.1254	-46.822258	0.000606	6.061325	2.053633	-0.048397
1206	6.0250e-01	-8.1607	-47.060211	0.000596	5.960303	2.019405	-0.047591
1207	6.0300e-01	-8.1944	-47.330429	0.000677	6.768480	2.293223	-0.054044
1208	6.0350e-01	-8.2377	-47.548216	0.000546	5.455193	1.848269	-0.043557
1209	6.0400e-01	-8.2810	-47.757937	0.000525	5.253149	1.779815	-0.041944
1210	6.0450e-01	-8.3196	-47.939427	0.000455	4.545994	1.540224	-0.036298
1211	6.0500e-01	-8.3645	-48.258041	0.000798	7.980745	2.703950	-0.063723
1212	6.0550e-01	-8.4046	-48.504060	0.000616	6.162348	2.087860	-0.049204
1213	6.0600e-01	-8.4431	-48.721848	0.000546	5.455193	1.848269	-0.043557
1214	6.0650e-01	-8.4816	-48.979966	0.000647	6.465414	2.190542	-0.051624
1215	6.0700e-01	-8.5233	-49.286481	0.000768	7.677679	2.601268	-0.061303
1216	6.0750e-01	-8.5666	-49.480070	0.000485	4.849060	1.642906	-0.038718
1217	6.0800e-01	-8.5955	-49.734155	0.000636	6.364392	2.156314	-0.050817
1218	6.0850e-01	-8.6436	-49.992274	0.000647	6.465414	2.190542	-0.051624
1219	6.0900e-01	-8.6773	-50.258458	0.000667	6.667458	2.258996	-0.053237
1220	6.0950e-01	-8.7126	-50.569007	0.000778	7.778701	2.635495	-0.062110
1221	6.1000e-01	-8.7607	-50.774695	0.000515	5.152127	1.745588	-0.041138
1222	6.1050e-01	-8.7960	-50.976350	0.000505	5.051105	1.711361	-0.040331
1223	6.1100e-01	-8.8393	-51.234468	0.000647	6.465414	2.190542	-0.051624
1224	6.1150e-01	-8.8826	-51.440156	0.000515	5.152127	1.745588	-0.041138
1225	6.1200e-01	-8.9227	-51.694241	0.000636	6.364392	2.156314	-0.050817
1226	6.1250e-01	-8.9564	-51.895896	0.000505	5.051105	1.711361	-0.040331
1227	6.1300e-01	-9.0094	-52.170147	0.000687	6.869502	2.327450	-0.054850
1228	6.1350e-01	-9.0366	-52.404067	0.000586	5.859281	1.985178	-0.046784
1229	6.1400e-01	-9.0848	-52.654119	0.000626	6.263370	2.122087	-0.050010
1230	6.1450e-01	-9.1313	-52.803343	0.000374	3.737817	1.266407	-0.029845
1231	6.1500e-01	-9.1602	-52.984833	0.000455	4.545994	1.540224	-0.036298
1232	6.1550e-01	-9.1906	-53.376043	0.000980	9.799143	3.320039	-0.078242
1233	6.1600e-01	-9.2468	-53.674493	0.000748	7.475635	2.532814	-0.059690
1234	6.1650e-01	-9.2789	-53.868081	0.000485	4.849060	1.642906	-0.038718
1235	6.1700e-01	-9.3206	-54.126200	0.000647	6.465414	2.190542	-0.051624
1236	6.1750e-01	-9.3607	-54.384318	0.000647	6.465414	2.190542	-0.051624
1237	6.1800e-01	-9.3960	-54.577907	0.000485	4.849060	1.642906	-0.038718
1238	6.1850e-01	-9.4393	-54.836025	0.000647	6.465414	2.190542	-0.051624
1239	6.1900e-01	-9.4826	-55.005415	0.000424	4.242928	1.437543	-0.033878
1240	6.1950e-01	-9.5211	-55.291765	0.000717	7.172568	2.430132	-0.057270
1241	6.2000e-01	-9.5676	-55.477288	0.000465	4.647016	1.574452	-0.037105
1242	6.2050e-01	-9.5997	-55.759605	0.000707	7.071546	2.395905	-0.056463
1243	6.2100e-01	-9.6430	-56.082253	0.000808	8.081767	2.738177	-0.064530
1244	6.2150e-01	-9.6703	-56.235510	0.000384	3.838839	1.300634	-0.030652
1245	6.2200e-01	-9.7200	-56.634787	0.001000	10.001187	3.388494	-0.079855
1246	6.2250e-01	-9.7505	-56.796111	0.000404	4.040884	1.369088	-0.032265
1247	6.2300e-01	-9.8051	-57.025998	0.000576	5.758259	1.950951	-0.045977
1248	6.2350e-01	-9.8404	-57.146991	0.000303	3.030663	1.026816	-0.024199
1249	6.2400e-01	-9.8773	-57.421241	0.000687	6.869502	2.327450	-0.054850
1250	6.2450e-01	-9.9222	-57.719691	0.000748	7.475635	2.532814	-0.059690
1251	6.2500e-01	-9.9543	-57.868915	0.000374	3.737817	1.266407	-0.029845
1252	6.2550e-01	-9.9976	-58.082670	0.000535	5.354171	1.814042	-0.042751
1253	6.2600e-01	-10.0537	-58.316589	0.000586	5.859281	1.985178	-0.046784
1254	6.2650e-01	-10.0778	-58.554542	0.000596	5.960303	2.019405	-0.047591
1255	6.2700e-01	-10.1323	-58.808627	0.000636	6.364392	2.156314	-0.050817
1256	6.2750e-01	-10.1532	-59.139341	0.000828	8.283811	2.806631	-0.066143
1257	6.2800e-01	-10.1997	-59.373261	0.000586	5.859281	1.985178	-0.046784
1258	6.2850e-01	-10.2446	-59.546684	0.000434	4.343950	1.471770	-0.034685
1259	6.2900e-01	-10.2847	-59.744306	0.000495	4.950082	1.677133	-0.039524
1260	6.2950e-01	-10.3248	-60.010491	0.000667	6.667458	2.258996	-0.053237
1261	6.3000e-01	-10.3649	-60.228278	0.000546	5.455193	1.848269	-0.043557
1262	6.3050e-01	-10.4002	-60.470264	0.000606	6.061325	2.053633	-0.048397
1263	6.3100e-01	-10.4420	-60.748548	0.000697	6.970524	2.361678	-0.055657
1264	6.3150e-01	-10.4708	-60.942136	0.000485	4.849060	1.642906	-0.038718
1265	6.3200e-01	-10.5206	-61.079262	0.000343	3.434751	1.163725	-0.027425
1266	6.3250e-01	-10.5639	-61.426108	0.000869	8.687900	2.943540	-0.069369
1267	6.3300e-01	-10.6024	-61.635829	0.000525	5.253149	1.779815	-0.041944
1268	6.3350e-01	-10.6377	-61.809253	0.000434	4.343950	1.471770	-0.034685
1269	6.3400e-01	-10.6778	-62.010908	0.000505	5.051105	1.711361	-0.040331
1270	6.3450e-01	-10.7291	-62.361787	0.000879	8.788922	2.977767	-0.070176
1271	6.3500e-01	-10.7596	-62.535210	0.000434	4.343950	1.471770	-0.034685
1272	6.3550e-01	-10.8077	-62.789296	0.000636	6.364392	2.156314	-0.050817
1273	6.3600e-01	-10.8446	-63.015149	0.000566	5.657237	1.916724	-0.045171
1274	6.3650e-01	-10.8831	-63.289400	0.000687	6.869502	2.327450	-0.054850
1275	6.3700e-01	-10.9264	-63.507187	0.000546	5.455193	1.848269	-0.043557
1276	6.3750e-01	-10.9633	-63.712875	0.000515	5.152127	1.745588	-0.041138
1277	6.3800e-01	-11.0066	-63.962927	0.000626	6.263370	2.122087	-0.050010
1278	6.3850e-01	-11.0403	-64.136351	0.000434	4.343950	1.471770	-0.034685
1279	6.3900e-01	-11.0724	-64.422701	0.000717	7.172568	2.430132	-0.057270
1280	6.3950e-01	-11.1125	-64.725183	0.000758	7.576657	2.567041	-0.060496
1281	6.4000e-01	-11.1590	-64.902639	0.000444	4.444972	1.505997	-0.035491
1282	6.4050e-01	-11.2056	-65.104294	0.000505	5.051105	1.711361	-0.040331
1283	6.4100e-01	-11.2425	-65.305949	0.000505	5.051105	1.711361	-0.040331
1284	6.4150e-01	-11.2842	-65.640696	0.000838	8.384834	2.840859	-0.066949
1285	6.4200e-01	-11.3259	-65.797987	0.000394	3.939862	1.334861	-0.031458
1286	6.4250e-01	-11.3548	-66.019808	0.000556	5.556215	1.882497	-0.044364
1287	6.4300e-01	-11.4029	-66.265827	0.000616	6.162348	2.087860	-0.049204
1288	6.4350e-01	-11.4398	-66.479581	0.000535	5.354171	1.814042	-0.042751
1289	6.4400e-01	-11.4847	-66.725600	0.000616	6.162348	2.087860	-0.049204
1290	6.4450e-01	-11.5264	-66.963553	0.000596	5.960303	2.019405	-0.047591
1291	6.4500e-01	-11.5681	-67.145042	0.000455	4.545994	1.540224	-0.036298
1292	6.4550e-01	-11.6050	-67.443491	0.000748	7.475635	2.532814	-0.059690
1293	6.4600e-01	-11.6403	-67.653213	0.000525	5.253149	1.779815	-0.041944
1294	6.4650e-01	-11.6836	-67.907298	0.000636	6.364392	2.156314	-0.050817
1295	6.4700e-01	-11.7302	-68.121052	0.000535	5.354171	1.814042	-0.042751
1296	6.4750e-01	-11.7638	-68.354972	0.000586	5.859281	1.985178	-0.046784
1297	6.4800e-01	-11.8007	-68.657454	0.000758	7.576657	2.567041	-0.060496
1298	6.4850e-01	-11.8376	-68.855076	0.000495	4.950082	1.677133	-0.039524
1299	6.4900e-01	-11.8809	-69.044632	0.000475	4.748038	1.608679	-0.037911
1300	6.4950e-01	-11.9211	-69.270485	0.000566	5.657237	1.916724	-0.045171
1301	6.5000e-01	-11.9660	-69.532636	0.000657	6.566436	2.224769	-0.052430
1302	6.5050e-01	-12.0061	-69.702027	0.000424	4.242928	1.437543	-0.033878
1303	6.5100e-01	-12.0478	-69.964178	0.000657	6.566436	2.224769	-0.052430
1304	6.5150e-01	-12.0847	-70.222296	0.000647	6.465414	2.190542	-0.051624
1305	6.5200e-01	-12.1264	-70.440084	0.000546	5.455193	1.848269	-0.043557
1306	6.5250e-01	-12.1697	-70.621573	0.000455	4.545994	1.540224	-0.036298
1307	6.5300e-01	-12.2066	-70.996651	0.000940	9.395054	3.183131	-0.075016
1308	6.5350e-01	-12.2451	-71.170074	0.000434	4.343950	1.471770	-0.034685
1309	6.5400e-01	-12.2852	-71.468524	0.000748	7.475635	2.532814	-0.059690
1310	6.5450e-01	-12.3221	-71.609682	0.000354	3.535773	1.197952	-0.028232
1311	6.5500e-01	-12.3686	-71.775039	0.000414	4.141906	1.403316	-0.033071
1312	6.5550e-01	-12.4039	-72.178349	0.001010	10.102209	3.422721	-0.080662
1313	6.5600e-01	-12.4424	-72.363872	0.000465	4.647016	1.574452	-0.037105
1314	6.5650e-01	-12.4793	-72.694586	0.000828	8.283811	2.806631	-0.066143
1315	6.5700e-01	-12.5210	-72.803479	0.000273	2.727596	0.924135	-0.021779
1316	6.5750e-01	-12.5708	-73.005134	0.000505	5.051105	1.711361	-0.040331
1317	6.5800e-01	-12.6077	-73.226955	0.000556	5.556215	1.882497	-0.044364
1318	6.5850e-01	-12.6494	-73.464908	0.000596	5.960303	2.019405	-0.047591
1319	6.5900e-01	-12.6847	-73.662529	0.000495	4.950082	1.677133	-0.039524
1320	6.5950e-01	-12.7248	-73.989210	0.000818	8.182789	2.772404	-0.065336
1321	6.6000e-01	-12.7633	-74.271527	0.000707	7.071546	2.395905	-0.056463
1322	6.6050e-01	-12.8066	-74.400586	0.000323	3.232707	1.095271	-0.025812
1323	6.6100e-01	-12.8467	-74.622407	0.000556	5.556215	1.882497	-0.044364
1324	6.6150e-01	-12.8740	-74.977320	0.000889	8.889944	3.011995	-0.070983
1325	6.6200e-01	-12.9253	-75.098313	0.000303	3.030663	1.026816	-0.024199
1326	6.6250e-01	-12.9606	-75.320133	0.000556	5.556215	1.882497	-0.044364
1327	6.6300e-01	-13.0023	-75.614549	0.000737	7.374613	2.498586	-0.058883
1328	6.6350e-01	-13.0376	-75.824270	0.000525	5.253149	1.779815	-0.041944
1329	6.6400e-01	-13.0793	-76.066256	0.000606	6.061325	2.053633	-0.048397
1330	6.6450e-01	-13.1226	-76.292110	0.000566	5.657237	1.916724	-0.045171
1331	6.6500e-01	-13.1595	-76.465533	0.000434	4.343950	1.471770	-0.034685
1332	6.6550e-01	-13.2012	-76.647022	0.000455	4.545994	1.540224	-0.036298
1333	6.6600e-01	-13.2381	-76.929339	0.000707	7.071546	2.395905	-0.056463
1334	6.6650e-01	-13.2782	-77.175358	0.000616	6.162348	2.087860	-0.049204
1335	6.6700e-01	-13.3183	-77.514139	0.000849	8.485856	2.875086	-0.067756
1336	6.6750e-01	-13.3601	-77.723860	0.000525	5.253149	1.779815	-0.041944
1337	6.6800e-01	-13.3953	-77.937614	0.000535	5.354171	1.814042	-0.042751
1338	6.6850e-01	-13.4499	-78.155401	0.000546	5.455193	1.848269	-0.043557
1339	6.6900e-01	-13.4772	-78.365122	0.000525	5.253149	1.779815	-0.041944
1340	6.6950e-01	-13.5205	-78.647439	0.000707	7.071546	2.395905	-0.056463
1341	6.7000e-01	-13.5750	-78.921690	0.000687	6.869502	2.327450	-0.054850
1342	6.7050e-01	-13.5911	-79.135444	0.000535	5.354171	1.814042	-0.042751
1343	6.7100e-01	-13.6504	-79.349198	0.000535	5.354171	1.814042	-0.042751
1344	6.7150e-01	-13.6841	-79.619416	0.000677	6.768480	2.293223	-0.054044
1345	6.7200e-01	-13.7226	-79.873501	0.000636	6.364392	2.156314	-0.050817
1346	6.7250e-01	-13.7579	-80.042891	0.000424	4.242928	1.437543	-0.033878
1347	6.7300e-01	-13.7964	-80.417970	0.000940	9.395054	3.183131	-0.075016
1348	6.7350e-01	-13.8493	-80.559128	0.000354	3.535773	1.197952	-0.028232
1349	6.7400e-01	-13.8830	-80.805147	0.000616	6.162348	2.087860	-0.049204
1350	6.7450e-01	-13.9199	-81.067298	0.000657	6.566436	2.224769	-0.052430
1351	6.7500e-01	-13.9616	-81.341549	0.000687	6.869502	2.327450	-0.054850
1352	6.7550e-01	-14.0001	-81.635965	0.000737	7.374613	2.498586	-0.058883
1353	6.7600e-01	-14.0370	-81.813422	0.000444	4.444972	1.505997	-0.035491
1354	6.7650e-01	-14.0787	-82.067507	0.000636	6.364392	2.156314	-0.050817
1355	6.7700e-01	-14.1140	-82.289327	0.000556	5.556215	1.882497	-0.044364
1356	6.7750e-01	-14.1734	-82.551479	0.000657	6.566436	2.224769	-0.052430
1357	6.7800e-01	-14.1991	-82.761200	0.000525	5.253149	1.779815	-0.041944
1358	6.7850e-01	-14.2392	-83.007219	0.000616	6.162348	2.087860	-0.049204
1359	6.7900e-01	-14.2841	-83.301635	0.000737	7.374613	2.498586	-0.058883
1360	6.7950e-01	-14.3258	-83.543621	0.000606	6.061325	2.053633	-0.048397
1361	6.8000e-01	-14.3691	-83.829971	0.000717	7.172568	2.430132	-0.057270
1362	6.8050e-01	-14.3964	-84.023560	0.000485	4.849060	1.642906	-0.038718
1363	6.8100e-01	-14.4413	-84.326042	0.000758	7.576657	2.567041	-0.060496
1364	6.8150e-01	-14.4830	-84.507532	0.000455	4.545994	1.540224	-0.036298
1365	6.8200e-01	-14.5183	-84.834213	0.000818	8.182789	2.772404	-0.065336
1366	6.8250e-01	-14.5632	-85.015702	0.000455	4.545994	1.540224	-0.036298
1367	6.8300e-01	-14.6017	-85.310118	0.000737	7.374613	2.498586	-0.058883
1368	6.8350e-01	-14.6450	-85.544038	0.000586	5.859281	1.985178	-0.046784
1369	6.8400e-01	-14.6868	-85.818289	0.000687	6.869502	2.327450	-0.054850
1370	6.8450e-01	-14.7253	-85.991712	0.000434	4.343950	1.471770	-0.034685
1371	6.8500e-01	-14.7557	-86.318393	0.000818	8.182789	2.772404	-0.065336
1372	6.8550e-01	-14.7990	-86.507948	0.000475	4.748038	1.608679	-0.037911
1373	6.8600e-01	-14.8392	-86.854795	0.000869	8.687900	2.943540	-0.069369
1374	6.8650e-01	-14.8809	-87.064516	0.000525	5.253149	1.779815	-0.041944
1375	6.8700e-01	-14.9210	-87.362965	0.000748	7.475635	2.532814	-0.059690
1376	6.8750e-01	-14.9563	-87.617051	0.000636	6.364392	2.156314	-0.050817
1377	6.8800e-01	-15.0012	-87.859037	0.000606	6.061325	2.053633	-0.048397
1378	6.8850e-01	-15.0445	-88.096989	0.000596	5.960303	2.019405	-0.047591
1379	6.8900e-01	-15.0766	-88.351075	0.000636	6.364392	2.156314	-0.050817
1380	6.8950e-01	-15.1327	-88.568862	0.000546	5.455193	1.848269	-0.043557
1381	6.9000e-01	-15.1584	-88.891510	0.000808	8.081767	2.738177	-0.064530
1382	6.9050e-01	-15.2049	-89.117363	0.000566	5.657237	1.916724	-0.045171
1383	6.9100e-01	-15.2338	-89.480342	0.000909	9.091988	3.080449	-0.072596
1384	6.9150e-01	-15.2867	-89.613434	0.000333	3.333729	1.129498	-0.026618
1385	6.9200e-01	-15.3204	-89.895751	0.000707	7.071546	2.395905	-0.056463
1386	6.9250e-01	-15.3702	-90.198234	0.000758	7.576657	2.567041	-0.060496
1387	6.9300e-01	-15.4022	-90.444253	0.000616	6.162348	2.087860	-0.049204
1388	6.9350e-01	-15.4472	-90.662040	0.000546	5.455193	1.848269	-0.043557
1389	6.9400e-01	-15.4873	-90.968556	0.000768	7.677679	2.601268	-0.061303
1390	6.9450e-01	-15.5242	-91.238773	0.000677	6.768480	2.293223	-0.054044
1391	6.9500e-01	-15.5595	-91.545289	0.000768	7.677679	2.601268	-0.061303
1392	6.9550e-01	-15.6076	-91.787275	0.000606	6.061325	2.053633	-0.048397
1393	6.9600e-01	-15.6429	-92.033294	0.000616	6.162348	2.087860	-0.049204
1394	6.9650e-01	-15.6878	-92.299478	0.000667	6.667458	2.258996	-0.053237
1395	6.9700e-01	-15.7215	-92.614060	0.000788	7.879723	2.669722	-0.062916
1396	6.9750e-01	-15.7600	-92.973006	0.000899	8.990966	3.046222	-0.071789
1397	6.9800e-01	-15.8113	-93.190793	0.000546	5.455193	1.848269	-0.043557
1398	6.9850e-01	-15.8450	-93.432779	0.000606	6.061325	2.053633	-0.048397
1399	6.9900e-01	-15.8835	-93.686864	0.000636	6.364392	2.156314	-0.050817
1400	6.9950e-01	-15.9204	-93.936916	0.000626	6.263370	2.122087	-0.050010
1401	7.0000e-01	-15.9621	-94.243432	0.000768	7.677679	2.601268	-0.061303
1402	7.0050e-01	-16.0022	-94.594311	0.000879	8.788922	2.977767	-0.070176
1403	7.0100e-01	-16.0471	-94.816132	0.000556	5.556215	1.882497	-0.044364
1404	7.0150e-01	-16.0744	-95.126680	0.000778	7.778701	2.635495	-0.062110
1405	7.0200e-01	-16.1209	-95.417063	0.000727	7.273591	2.464359	-0.058077
1406	7.0250e-01	-16.1546	-95.707446	0.000727	7.273591	2.464359	-0.058077
1407	7.0300e-01	-16.1931	-95.897002	0.000475	4.748038	1.608679	-0.037911
1408	7.0350e-01	-16.2380	-96.211584	0.000788	7.879723	2.669722	-0.062916
1409	7.0400e-01	-16.2878	-96.465669	0.000636	6.364392	2.156314	-0.050817
1410	7.0450e-01	-16.3295	-96.800416	0.000838	8.384834	2.840859	-0.066949
1411	7.0500e-01	-16.3600	-97.090799	0.000727	7.273591	2.464359	-0.058077
1412	7.0550e-01	-16.3969	-97.377149	0.000717	7.172568	2.430132	-0.057270
1413	7.0600e-01	-16.4386	-97.635268	0.000647	6.465414	2.190542	-0.051624
1414	7.0650e-01	-16.4819	-97.929684	0.000737	7.374613	2.498586	-0.058883
1415	7.0700e-01	-16.5140	-98.155537	0.000566	5.657237	1.916724	-0.045171
1416	7.0750e-01	-16.5541	-98.453987	0.000748	7.475635	2.532814	-0.059690
1417	7.0800e-01	-16.6038	-98.752436	0.000748	7.475635	2.532814	-0.059690
1418	7.0850e-01	-16.6407	-99.103315	0.000879	8.788922	2.977767	-0.070176
1419	7.0900e-01	-16.6776	-99.401765	0.000748	7.475635	2.532814	-0.059690
1420	7.0950e-01	-16.7225	-99.647784	0.000616	6.162348	2.087860	-0.049204
1421	7.1000e-01	-16.7626	-99.954299	0.000768	7.677679	2.601268	-0.061303
1422	7.1050e-01	-16.8043	-100.244682	0.000727	7.273591	2.464359	-0.058077
1423	7.1100e-01	-16.8428	-100.595562	0.000879	8.788922	2.977767	-0.070176
1424	7.1150e-01	-16.8829	-100.841581	0.000616	6.162348	2.087860	-0.049204
1425	7.1200e-01	-16.9263	-101.188427	0.000869	8.687900	2.943540	-0.069369
1426	7.1250e-01	-16.9616	-101.426380	0.000596	5.960303	2.019405	-0.047591
1427	7.1300e-01	-17.0017	-101.676432	0.000626	6.263370	2.122087	-0.050010
1428	7.1350e-01	-17.0450	-102.015213	0.000849	8.485856	2.875086	-0.067756
1429	7.1400e-01	-17.0819	-102.305596	0.000727	7.273591	2.464359	-0.058077
1430	7.1450e-01	-17.1252	-102.620177	0.000788	7.879723	2.669722	-0.062916
1431	7.1500e-01	-17.1621	-102.991222	0.000929	9.294032	3.148903	-0.074209
1432	7.1550e-01	-17.2038	-103.217076	0.000566	5.657237	1.916724	-0.045171
1433	7.1600e-01	-17.2439	-103.515525	0.000748	7.475635	2.532814	-0.059690
1434	7.1650e-01	-17.2792	-103.870438	0.000889	8.889944	3.011995	-0.070983
1435	7.1700e-01	-17.3129	-104.241483	0.000929	9.294032	3.148903	-0.074209
1436	7.1750e-01	-17.3610	-104.495568	0.000636	6.364392	2.156314	-0.050817
1437	7.1800e-01	-17.4091	-104.757720	0.000657	6.566436	2.224769	-0.052430
1438	7.1850e-01	-17.4492	-105.056169	0.000748	7.475635	2.532814	-0.059690
1439	7.1900e-01	-17.4701	-105.431247	0.000940	9.395054	3.183131	-0.075016
1440	7.1950e-01	-17.5262	-105.713564	0.000707	7.071546	2.395905	-0.056463
1441	7.2000e-01	-17.5712	-106.007980	0.000737	7.374613	2.498586	-0.058883
1442	7.2050e-01	-17.5984	-106.342727	0.000838	8.384834	2.840859	-0.066949
1443	7.2100e-01	-17.6337	-106.681508	0.000849	8.485856	2.875086	-0.067756
1444	7.2150e-01	-17.6770	-106.992056	0.000778	7.778701	2.635495	-0.062110
1445	7.2200e-01	-17.7236	-107.302605	0.000778	7.778701	2.635495	-0.062110
1446	7.2250e-01	-17.7637	-107.629286	0.000818	8.182789	2.772404	-0.065336
1447	7.2300e-01	-17.8006	-107.863206	0.000586	5.859281	1.985178	-0.046784
1448	7.2350e-01	-17.8407	-108.310880	0.001121	11.213452	3.799220	-0.089535
1449	7.2400e-01	-17.8695	-108.621428	0.000778	7.778701	2.635495	-0.062110
1450	7.2450e-01	-17.9161	-108.940043	0.000798	7.980745	2.703950	-0.063723
1451	7.2500e-01	-17.9690	-109.282856	0.000859	8.586878	2.909313	-0.068563
1452	7.2550e-01	-18.0027	-109.674067	0.000980	9.799143	3.320039	-0.078242
1453	7.2600e-01	-18.0348	-109.899920	0.000566	5.657237	1.916724	-0.045171
1454	7.2650e-01	-18.0781	-110.206436	0.000768	7.677679	2.601268	-0.061303
1455	7.2700e-01	-18.1150	-110.504885	0.000748	7.475635	2.532814	-0.059690
1456	7.2750e-01	-18.1663	-110.875930	0.000929	9.294032	3.148903	-0.074209
1457	7.2800e-01	-18.2064	-111.182446	0.000768	7.677679	2.601268	-0.061303
1458	7.2850e-01	-18.2449	-111.533325	0.000879	8.788922	2.977767	-0.070176
1459	7.2900e-01	-18.2834	-111.904370	0.000929	9.294032	3.148903	-0.074209
1460	7.2950e-01	-18.3219	-112.186687	0.000707	7.071546	2.395905	-0.056463
1461	7.3000e-01	-18.3637	-112.585964	0.001000	10.001187	3.388494	-0.079855
1462	7.3050e-01	-18.3957	-112.896513	0.000778	7.778701	2.635495	-0.062110
1463	7.3100e-01	-18.4455	-113.186896	0.000727	7.273591	2.464359	-0.058077
1464	7.3150e-01	-18.4888	-113.517610	0.000828	8.283811	2.806631	-0.066143
1465	7.3200e-01	-18.5273	-113.900754	0.000960	9.597099	3.251585	-0.076629
1466	7.3250e-01	-18.5513	-114.251634	0.000879	8.788922	2.977767	-0.070176
1467	7.3300e-01	-18.6043	-114.602513	0.000879	8.788922	2.977767	-0.070176
1468	7.3350e-01	-18.6428	-114.945327	0.000859	8.586878	2.909313	-0.068563
1469	7.3400e-01	-18.6813	-115.255875	0.000778	7.778701	2.635495	-0.062110
1470	7.3450e-01	-18.7214	-115.691450	0.001091	10.910386	3.696539	-0.087115
1471	7.3500e-01	-18.7583	-115.965701	0.000687	6.869502	2.327450	-0.054850
1472	7.3550e-01	-18.8080	-116.300448	0.000838	8.384834	2.840859	-0.066949
1473	7.3600e-01	-18.8433	-116.659394	0.000899	8.990966	3.046222	-0.071789
1474	7.3650e-01	-18.8818	-117.030439	0.000929	9.294032	3.148903	-0.074209
1475	7.3700e-01	-18.9219	-117.409550	0.000950	9.496077	3.217358	-0.075822
1476	7.3750e-01	-18.9668	-117.655569	0.000616	6.162348	2.087860	-0.049204
1477	7.3800e-01	-19.0086	-118.155673	0.001253	12.526739	4.244174	-0.100021
1478	7.3850e-01	-19.0503	-118.433957	0.000697	6.970524	2.361678	-0.055657
1479	7.3900e-01	-19.0904	-118.780803	0.000869	8.687900	2.943540	-0.069369
1480	7.3950e-01	-19.1241	-119.184113	0.001010	10.102209	3.422721	-0.080662
1481	7.4000e-01	-19.1529	-119.543059	0.000899	8.990966	3.046222	-0.071789
1482	7.4050e-01	-19.1979	-119.914104	0.000929	9.294032	3.148903	-0.074209
1483	7.4100e-01	-19.2460	-120.208520	0.000737	7.374613	2.498586	-0.058883
1484	7.4150e-01	-19.2845	-120.575532	0.000919	9.193010	3.114676	-0.073402
1485	7.4200e-01	-19.3182	-121.111934	0.001344	13.435938	4.552219	-0.107280
1486	7.4250e-01	-19.3663	-121.466847	0.000889	8.889944	3.011995	-0.070983
1487	7.4300e-01	-19.4048	-121.712866	0.000616	6.162348	2.087860	-0.049204
1488	7.4350e-01	-19.4449	-122.132308	0.001051	10.506297	3.559630	-0.083888
1489	7.4400e-01	-19.4754	-122.479155	0.000869	8.687900	2.943540	-0.069369
1490	7.4450e-01	-19.5283	-122.850200	0.000929	9.294032	3.148903	-0.074209
1491	7.4500e-01	-19.5636	-123.241411	0.000980	9.799143	3.320039	-0.078242
1492	7.4550e-01	-19.6085	-123.568092	0.000818	8.182789	2.772404	-0.065336
1493	7.4600e-01	-19.6406	-123.967368	0.001000	10.001187	3.388494	-0.079855
1494	7.4650e-01	-19.6936	-124.322281	0.000889	8.889944	3.011995	-0.070983
1495	7.4700e-01	-19.7192	-124.713492	0.000980	9.799143	3.320039	-0.078242
1496	7.4750e-01	-19.7690	-125.100669	0.000970	9.698121	3.285812	-0.077435
1497	7.4800e-01	-19.8059	-125.532211	0.001081	10.809364	3.662312	-0.086308
1498	7.4850e-01	-19.8412	-125.879057	0.000869	8.687900	2.943540	-0.069369
1499	7.4900e-01	-19.8845	-126.274301	0.000990	9.900165	3.354267	-0.079049
1500	7.4950e-01	-19.9326	-126.713908	0.001101	11.011408	3.730766	-0.087922
1501	7.5000e-01	-19.9567	-127.060755	0.000869	8.687900	2.943540	-0.069369
1502	7.5050e-01	-19.9711	-127.347105	0.000717	7.172568	2.430132	-0.057270
1503	7.5100e-01	-19.9406	-127.605223	-0.000647	-6.465414	-2.190542	-0.051624
1504	7.5150e-01	-19.9101	-127.710084	-0.000263	-2.626574	-0.889907	-0.020972
1505	7.5200e-01	-19.8604	-127.685885	0.000061	0.606133	0.205363	0.004840
1506	7.5250e-01	-19.8187	-127.823011	-0.000343	-3.434751	-1.163725	-0.027425
1507	7.5300e-01	-19.7802	-127.835110	-0.000030	-0.303066	-0.102682	-0.002420
1508	7.5350e-01	-19.7433	-127.839143	-0.000010	-0.101022	-0.034227	-0.000807
1509	7.5400e-01	-19.7032	-127.879474	-0.000101	-1.010221	-0.342272	-0.008066
1510	7.5450e-01	-19.6551	-127.891573	-0.000030	-0.303066	-0.102682	-0.002420
1511	7.5500e-01	-19.6294	-127.855275	0.000091	0.909199	0.308045	0.007260
1512	7.5550e-01	-19.5829	-127.863342	-0.000020	-0.202044	-0.068454	-0.001613
1513	7.5600e-01	-19.5540	-127.835110	0.000071	0.707155	0.239590	0.005646
1514	7.5650e-01	-19.5011	-127.790746	0.000111	1.111243	0.376499	0.008873
1515	7.5700e-01	-19.4593	-127.774613	0.000040	0.404088	0.136909	0.003226
1516	7.5750e-01	-19.4192	-127.758481	0.000040	0.404088	0.136909	0.003226
1517	7.5800e-01	-19.3904	-127.734282	0.000061	0.606133	0.205363	0.004840
1518	7.5850e-01	-19.3454	-127.581025	0.000384	3.838839	1.300634	0.030652
1519	7.5900e-01	-19.3053	-127.585058	-0.000010	-0.101022	-0.034227	-0.000807
1520	7.5950e-01	-19.2572	-127.601190	-0.000040	-0.404088	-0.136909	-0.003226
1521	7.6000e-01	-19.2251	-127.593124	0.000020	0.202044	0.068454	0.001613
1522	7.6050e-01	-19.1898	-127.415668	0.000444	4.444972	1.505997	0.035491
1523	7.6100e-01	-19.1465	-127.343072	0.000182	1.818398	0.616090	0.014519
1524	7.6150e-01	-19.1064	-127.282575	0.000152	1.515331	0.513408	0.012099
1525	7.6200e-01	-19.0663	-127.258377	0.000061	0.606133	0.205363	0.004840
1526	7.6250e-01	-19.0294	-127.169649	0.000222	2.222486	0.752999	0.017746
1527	7.6300e-01	-18.9845	-127.088987	0.000202	2.020442	0.684544	0.016132
1528	7.6350e-01	-18.9428	-126.951861	0.000343	3.434751	1.163725	0.027425
1529	7.6400e-01	-18.9107	-126.935729	0.000040	0.404088	0.136909	0.003226
1530	7.6450e-01	-18.8722	-126.774405	0.000404	4.040884	1.369088	0.032265
1531	7.6500e-01	-18.8353	-126.669544	0.000263	2.626574	0.889907	0.020972
1532	7.6550e-01	-18.7936	-126.540485	0.000323	3.232707	1.095271	0.025812
1533	7.6600e-01	-18.7471	-126.572750	-0.000081	-0.808177	-0.273818	-0.006453
1534	7.6650e-01	-18.7054	-126.407393	0.000414	4.141906	1.403316	0.033071
1535	7.6700e-01	-18.6669	-126.246069	0.000404	4.040884	1.369088	0.032265
1536	7.6750e-01	-18.6284	-126.197672	0.000121	1.212265	0.410727	0.009679
1537	7.6800e-01	-18.5834	-126.117010	0.000202	2.020442	0.684544	0.016132
1538	7.6850e-01	-18.5433	-125.963752	0.000384	3.838839	1.300634	0.030652
1539	7.6900e-01	-18.5048	-125.899223	0.000162	1.616353	0.547635	0.012906
1540	7.6950e-01	-18.4663	-125.754031	0.000364	3.636795	1.232180	0.029038
1541	7.7000e-01	-18.4230	-125.681435	0.000182	1.818398	0.616090	0.014519
1542	7.7050e-01	-18.3813	-125.568508	0.000283	2.828619	0.958362	0.022585
1543	7.7100e-01	-18.3428	-125.443482	0.000313	3.131685	1.061044	0.025005
1544	7.7150e-01	-18.3059	-125.350721	0.000232	2.323508	0.787226	0.018552
1545	7.7200e-01	-18.2706	-125.145033	0.000515	5.152127	1.745588	0.041138
1546	7.7250e-01	-18.2273	-125.011941	0.000333	3.333729	1.129498	0.026618
1547	7.7300e-01	-18.1872	-124.975643	0.000091	0.909199	0.308045	0.007260
1548	7.7350e-01	-18.1407	-124.786087	0.000475	4.748038	1.608679	0.037911
1549	7.7400e-01	-18.1134	-124.749789	0.000091	0.909199	0.308045	0.007260
1550	7.7450e-01	-18.0572	-124.612664	0.000343	3.434751	1.163725	0.027425
1551	7.7500e-01	-18.0203	-124.483605	0.000323	3.232707	1.095271	0.025812
1552	7.7550e-01	-17.9834	-124.330347	0.000384	3.838839	1.300634	0.030652
1553	7.7600e-01	-17.9482	-124.201288	0.000323	3.232707	1.095271	0.025812
1554	7.7650e-01	-17.9064	-123.999633	0.000505	5.051105	1.711361	0.040331
1555	7.7700e-01	-17.8615	-123.943170	0.000141	1.414309	0.479181	0.011293
1556	7.7750e-01	-17.8262	-123.822177	0.000303	3.030663	1.026816	0.024199
1557	7.7800e-01	-17.7877	-123.693118	0.000323	3.232707	1.095271	0.025812
1558	7.7850e-01	-17.7428	-123.531794	0.000404	4.040884	1.369088	0.032265
1559	7.7900e-01	-17.7075	-123.358370	0.000434	4.343950	1.471770	0.034685
1560	7.7950e-01	-17.6690	-123.261576	0.000242	2.424530	0.821453	0.019359
1561	7.8000e-01	-17.6257	-123.108318	0.000384	3.838839	1.300634	0.030652
1562	7.8050e-01	-17.5856	-122.894564	0.000535	5.354171	1.814042	0.042751
1563	7.8100e-01	-17.5423	-122.898597	-0.000010	-0.101022	-0.034227	-0.000807
1564	7.8150e-01	-17.5070	-122.733240	0.000414	4.141906	1.403316	0.033071
1565	7.8200e-01	-17.4701	-122.527552	0.000515	5.152127	1.745588	0.041138
1566	7.8250e-01	-17.4300	-122.402526	0.000313	3.131685	1.061044	0.025005
1567	7.8300e-01	-17.3899	-122.301699	0.000253	2.525552	0.855680	0.020165
1568	7.8350e-01	-17.3450	-122.124242	0.000444	4.444972	1.505997	0.035491
1569	7.8400e-01	-17.3049	-122.015349	0.000273	2.727596	0.924135	0.021779
1570	7.8450e-01	-17.2615	-121.946786	0.000172	1.717376	0.581863	0.013713
1571	7.8500e-01	-17.2246	-121.741098	0.000515	5.152127	1.745588	0.041138
1572	7.8550e-01	-17.1894	-121.559608	0.000455	4.545994	1.540224	0.036298
1573	7.8600e-01	-17.1492	-121.402318	0.000394	3.939862	1.334861	0.031458
1574	7.8650e-01	-17.0979	-121.329722	0.000182	1.818398	0.616090	0.014519
1575	7.8700e-01	-17.0546	-121.192596	0.000343	3.434751	1.163725	0.027425
1576	7.8750e-01	-17.0337	-121.011107	0.000455	4.545994	1.540224	0.036298
1577	7.8800e-01	-16.9936	-120.853816	0.000394	3.939862	1.334861	0.031458
1578	7.8850e-01	-16.9423	-120.652161	0.000505	5.051105	1.711361	0.040331
1579	7.8900e-01	-16.9070	-120.511003	0.000354	3.535773	1.197952	0.028232
1580	7.8950e-01	-16.8589	-120.377911	0.000333	3.333729	1.129498	0.026618
1581	7.9000e-01	-16.8188	-120.260951	0.000293	2.929641	0.992589	0.023392
1582	7.9050e-01	-16.7835	-120.152057	0.000273	2.727596	0.924135	0.021779
1583	7.9100e-01	-16.7450	-119.966534	0.000465	4.647016	1.574452	0.037105
1584	7.9150e-01	-16.7097	-119.752780	0.000535	5.354171	1.814042	0.042751
1585	7.9200e-01	-16.6696	-119.631787	0.000303	3.030663	1.026816	0.024199
1586	7.9250e-01	-16.6279	-119.506761	0.000313	3.131685	1.061044	0.025005
1587	7.9300e-01	-16.5814	-119.349470	0.000394	3.939862	1.334861	0.031458
1588	7.9350e-01	-16.5445	-119.155882	0.000485	4.849060	1.642906	0.038718
1589	7.9400e-01	-16.4995	-119.030856	0.000313	3.131685	1.061044	0.025005
1590	7.9450e-01	-16.4691	-118.917929	0.000283	2.828619	0.958362	0.022585
1591	7.9500e-01	-16.4193	-118.780803	0.000343	3.434751	1.163725	0.027425
1592	7.9550e-01	-16.3921	-118.627546	0.000384	3.838839	1.300634	0.030652
1593	7.9600e-01	-16.3471	-118.429924	0.000495	4.950082	1.677133	0.039524
1594	7.9650e-01	-16.2974	-118.224236	0.000515	5.152127	1.745588	0.041138
1595	7.9700e-01	-16.2605	-118.151640	0.000182	1.818398	0.616090	0.014519
1596	7.9750e-01	-16.2156	-117.990316	0.000404	4.040884	1.369088	0.032265
1597	7.9800e-01	-16.1835	-117.804794	0.000465	4.647016	1.574452	0.037105
1598	7.9850e-01	-16.1498	-117.647503	0.000394	3.939862	1.334861	0.031458
1599	7.9900e-01	-16.1001	-117.490212	0.000394	3.939862	1.334861	0.031458
1600	7.9950e-01	-16.0632	-117.349053	0.000354	3.535773	1.197952	0.028232
1601	8.0000e-01	-16.0343	-117.195796	0.000384	3.838839	1.300634	0.030652
1602	8.0050e-01	-15.9846	-116.973975	0.000556	5.556215	1.882497	0.044364
1603	8.0100e-01	-15.9461	-116.852982	0.000303	3.030663	1.026816	0.024199
1604	8.0150e-01	-15.9028	-116.723923	0.000323	3.232707	1.095271	0.025812
1605	8.0200e-01	-15.8578	-116.522268	0.000505	5.051105	1.711361	0.040331
1606	8.0250e-01	-15.8290	-116.308514	0.000535	5.354171	1.814042	0.042751
1607	8.0300e-01	-15.7873	-116.252051	0.000141	1.414309	0.479181	0.011293
1608	8.0350e-01	-15.7423	-116.070561	0.000455	4.545994	1.540224	0.036298
1609	8.0400e-01	-15.7103	-115.913270	0.000394	3.939862	1.334861	0.031458
1610	8.0450e-01	-15.6621	-115.816476	0.000242	2.424530	0.821453	0.019359
1611	8.0500e-01	-15.6316	-115.566424	0.000626	6.263370	2.122087	0.050010
1612	8.0550e-01	-15.5851	-115.469630	0.000242	2.424530	0.821453	0.019359
1613	8.0600e-01	-15.5482	-115.280074	0.000475	4.748038	1.608679	0.037911
1614	8.0650e-01	-15.5033	-115.102618	0.000444	4.444972	1.505997	0.035491
1615	8.0700e-01	-15.4680	-114.997757	0.000263	2.626574	0.889907	0.020972
1616	8.0750e-01	-15.4327	-114.759804	0.000596	5.960303	2.019405	0.047591
1617	8.0800e-01	-15.3846	-114.610580	0.000374	3.737817	1.266407	0.029845
1618	8.0850e-01	-15.3525	-114.469421	0.000354	3.535773	1.197952	0.028232
1619	8.0900e-01	-15.3124	-114.275832	0.000485	4.849060	1.642906	0.038718
1620	8.0950e-01	-15.2643	-114.162906	0.000283	2.828619	0.958362	0.022585
1621	8.1000e-01	-15.2258	-113.965284	0.000495	4.950082	1.677133	0.039524
1622	8.1050e-01	-15.1873	-113.824125	0.000354	3.535773	1.197952	0.028232
1623	8.1100e-01	-15.1456	-113.662801	0.000404	4.040884	1.369088	0.032265
1624	8.1150e-01	-15.0958	-113.485345	0.000444	4.444972	1.505997	0.035491
1625	8.1200e-01	-15.0589	-113.372418	0.000283	2.828619	0.958362	0.022585
1626	8.1250e-01	-15.0188	-113.142532	0.000576	5.758259	1.950951	0.045977
1627	8.1300e-01	-14.9900	-113.001373	0.000354	3.535773	1.197952	0.028232
1628	8.1350e-01	-14.9466	-112.799718	0.000505	5.051105	1.711361	0.040331
1629	8.1400e-01	-14.8937	-112.654527	0.000364	3.636795	1.232180	0.029038
1630	8.1450e-01	-14.8744	-112.420607	0.000586	5.859281	1.985178	0.046784
1631	8.1500e-01	-14.8327	-112.327846	0.000232	2.323508	0.787226	0.018552
1632	8.1550e-01	-14.7862	-112.142323	0.000465	4.647016	1.574452	0.037105
1633	8.1600e-01	-14.7477	-111.912437	0.000576	5.758259	1.950951	0.045977
1634	8.1650e-01	-14.6964	-111.815642	0.000242	2.424530	0.821453	0.019359
1635	8.1700e-01	-14.6659	-111.630120	0.000465	4.647016	1.574452	0.037105
1636	8.1750e-01	-14.6194	-111.484928	0.000364	3.636795	1.232180	0.029038
1637	8.1800e-01	-14.5809	-111.380068	0.000263	2.626574	0.889907	0.020972
1638	8.1850e-01	-14.5360	-111.125982	0.000636	6.364392	2.156314	0.050817
1639	8.1900e-01	-14.5023	-111.017089	0.000273	2.727596	0.924135	0.021779
1640	8.1950e-01	-14.4557	-110.879963	0.000343	3.434751	1.163725	0.027425
1641	8.2000e-01	-14.4285	-110.581514	0.000748	7.475635	2.532814	0.059690
1642	8.2050e-01	-14.3739	-110.448422	0.000333	3.333729	1.129498	0.026618
1643	8.2100e-01	-14.3386	-110.319363	0.000323	3.232707	1.095271	0.025812
1644	8.2150e-01	-14.3082	-110.049145	0.000677	6.768480	2.293223	0.054044
1645	8.2200e-01	-14.2648	-110.004781	0.000111	1.111243	0.376499	0.008873
1646	8.2250e-01	-14.2247	-109.855556	0.000374	3.737817	1.266407	0.029845
1647	8.2300e-01	-14.1830	-109.625670	0.000576	5.758259	1.950951	0.045977
1648	8.2350e-01	-14.1365	-109.440147	0.000465	4.647016	1.574452	0.037105
1649	8.2400e-01	-14.1092	-109.270757	0.000424	4.242928	1.437543	0.033878
1650	8.2450e-01	-14.0659	-109.141698	0.000323	3.232707	1.095271	0.025812
1651	8.2500e-01	-14.0162	-108.988440	0.000384	3.838839	1.300634	0.030652
1652	8.2550e-01	-13.9777	-108.734355	0.000636	6.364392	2.156314	0.050817
1653	8.2600e-01	-13.9360	-108.669825	0.000162	1.616353	0.547635	0.012906
1654	8.2650e-01	-13.9087	-108.403641	0.000667	6.667458	2.258996	0.053237
1655	8.2700e-01	-13.8670	-108.266515	0.000343	3.434751	1.163725	0.027425
1656	8.2750e-01	-13.8253	-108.068894	0.000495	4.950082	1.677133	0.039524
1657	8.2800e-01	-13.7916	-107.927735	0.000354	3.535773	1.197952	0.028232
1658	8.2850e-01	-13.7435	-107.887404	0.000101	1.010221	0.342272	0.008066
1659	8.2900e-01	-13.7034	-107.584922	0.000758	7.576657	2.567041	0.060496
1660	8.2950e-01	-13.6616	-107.346969	0.000596	5.960303	2.019405	0.047591
1661	8.3000e-01	-13.6199	-107.189678	0.000394	3.939862	1.334861	0.031458
1662	8.3050e-01	-13.5911	-106.959791	0.000576	5.758259	1.950951	0.045977
1663	8.3100e-01	-13.5477	-106.818633	0.000354	3.535773	1.197952	0.028232
1664	8.3150e-01	-13.5044	-106.625044	0.000485	4.849060	1.642906	0.038718
1665	8.3200e-01	-13.4675	-106.536316	0.000222	2.222486	0.752999	0.017746
1666	8.3250e-01	-13.4274	-106.346760	0.000475	4.748038	1.608679	0.037911
1667	8.3300e-01	-13.3841	-106.181403	0.000414	4.141906	1.403316	0.033071
1668	8.3350e-01	-13.3408	-105.931351	0.000626	6.263370	2.122087	0.050010
1669	8.3400e-01	-13.3023	-105.717597	0.000535	5.354171	1.814042	0.042751
1670	8.3450e-01	-13.2654	-105.580472	0.000343	3.434751	1.163725	0.027425
1671	8.3500e-01	-13.2189	-105.423181	0.000394	3.939862	1.334861	0.031458
1672	8.3550e-01	-13.1820	-105.189261	0.000586	5.859281	1.985178	0.046784
1673	8.3600e-01	-13.1483	-105.023904	0.000414	4.141906	1.403316	0.033071
1674	8.3650e-01	-13.0970	-104.935176	0.000222	2.222486	0.752999	0.017746
1675	8.3700e-01	-13.0697	-104.741587	0.000485	4.849060	1.642906	0.038718
1676	8.3750e-01	-13.0200	-104.572197	0.000424	4.242928	1.437543	0.033878
1677	8.3800e-01	-12.9831	-104.390708	0.000455	4.545994	1.540224	0.036298
1678	8.3850e-01	-12.9542	-104.205185	0.000465	4.647016	1.574452	0.037105
1679	8.3900e-01	-12.9077	-103.870438	0.000838	8.384834	2.840859	0.066949
1680	8.3950e-01	-12.8595	-103.805908	0.000162	1.616353	0.547635	0.012906
1681	8.4000e-01	-12.8258	-103.624419	0.000455	4.545994	1.540224	0.036298
1682	8.4050e-01	-12.7825	-103.467128	0.000394	3.939862	1.334861	0.031458
1683	8.4100e-01	-12.7456	-103.321937	0.000364	3.636795	1.232180	0.029038
1684	8.4150e-01	-12.7071	-103.079951	0.000606	6.061325	2.053633	0.048397
1685	8.4200e-01	-12.6702	-102.870229	0.000525	5.253149	1.779815	0.041944
1686	8.4250e-01	-12.6285	-102.789568	0.000202	2.020442	0.684544	0.016132
1687	8.4300e-01	-12.5836	-102.591946	0.000495	4.950082	1.677133	0.039524
1688	8.4350e-01	-12.5403	-102.402390	0.000475	4.748038	1.608679	0.037911
1689	8.4400e-01	-12.4986	-102.176537	0.000566	5.657237	1.916724	0.045171
1690	8.4450e-01	-12.4665	-102.031345	0.000364	3.636795	1.232180	0.029038
1691	8.4500e-01	-12.4232	-101.813558	0.000546	5.455193	1.848269	0.043557
1692	8.4550e-01	-12.3831	-101.664333	0.000374	3.737817	1.266407	0.029845
1693	8.4600e-01	-12.3526	-101.466711	0.000495	4.950082	1.677133	0.039524
1694	8.4650e-01	-12.3125	-101.240858	0.000566	5.657237	1.916724	0.045171
1695	8.4700e-01	-12.2676	-101.099699	0.000354	3.535773	1.197952	0.028232
1696	8.4750e-01	-12.2355	-100.946441	0.000384	3.838839	1.300634	0.030652
1697	8.4800e-01	-12.1922	-100.752853	0.000485	4.849060	1.642906	0.038718
1698	8.4850e-01	-12.1408	-100.583463	0.000424	4.242928	1.437543	0.033878
1699	8.4900e-01	-12.1055	-100.325344	0.000647	6.465414	2.190542	0.051624
1700	8.4950e-01	-12.0670	-100.123689	0.000505	5.051105	1.711361	0.040331
1701	8.5000e-01	-12.0269	-99.958332	0.000414	4.141906	1.403316	0.033071
1702	8.5050e-01	-11.9836	-99.792975	0.000414	4.141906	1.403316	0.033071
1703	8.5100e-01	-11.9451	-99.692148	0.000253	2.525552	0.855680	0.020165
1704	8.5150e-01	-11.9066	-99.361434	0.000828	8.283811	2.806631	0.066143
1705	8.5200e-01	-11.8633	-99.321103	0.000101	1.010221	0.342272	0.008066
1706	8.5250e-01	-11.8200	-99.091216	0.000576	5.758259	1.950951	0.045977
1707	8.5300e-01	-11.7879	-98.869396	0.000556	5.556215	1.882497	0.044364
1708	8.5350e-01	-11.7462	-98.695972	0.000434	4.343950	1.471770	0.034685
1709	8.5400e-01	-11.7013	-98.462053	0.000586	5.859281	1.985178	0.046784
1710	8.5450e-01	-11.6676	-98.268464	0.000485	4.849060	1.642906	0.038718
1711	8.5500e-01	-11.6227	-98.086975	0.000455	4.545994	1.540224	0.036298
1712	8.5550e-01	-11.5826	-97.937750	0.000374	3.737817	1.266407	0.029845
1713	8.5600e-01	-11.5328	-97.695764	0.000606	6.061325	2.053633	0.048397
1714	8.5650e-01	-11.5104	-97.506208	0.000475	4.748038	1.608679	0.037911
1715	8.5700e-01	-11.4719	-97.320686	0.000465	4.647016	1.574452	0.037105
1716	8.5750e-01	-11.4189	-97.199693	0.000303	3.030663	1.026816	0.024199
1717	8.5800e-01	-11.3804	-96.913343	0.000717	7.172568	2.430132	0.057270
1718	8.5850e-01	-11.3499	-96.812515	0.000253	2.525552	0.855680	0.020165
1719	8.5900e-01	-11.2970	-96.582629	0.000576	5.758259	1.950951	0.045977
1720	8.5950e-01	-11.2649	-96.332577	0.000626	6.263370	2.122087	0.050010
1721	8.6000e-01	-11.2104	-96.255948	0.000192	1.919420	0.650317	0.015326
1722	8.6050e-01	-11.1815	-95.997829	0.000647	6.465414	2.190542	0.051624
1723	8.6100e-01	-11.1430	-95.832472	0.000414	4.141906	1.403316	0.033071
1724	8.6150e-01	-11.1093	-95.650983	0.000455	4.545994	1.540224	0.036298
1725	8.6200e-01	-11.0644	-95.437229	0.000535	5.354171	1.814042	0.042751
1726	8.6250e-01	-11.0259	-95.441262	-0.000010	-0.101022	-0.034227	-0.000807
1727	8.6300e-01	-10.9890	-95.017787	0.001061	10.607320	3.593857	0.084695
1728	8.6350e-01	-10.9441	-94.925025	0.000232	2.323508	0.787226	0.018552
1729	8.6400e-01	-10.9056	-94.715304	0.000525	5.253149	1.779815	0.041944
1730	8.6450e-01	-10.8735	-94.437020	0.000697	6.970524	2.361678	0.055657
1731	8.6500e-01	-10.8189	-94.263597	0.000434	4.343950	1.471770	0.034685
1732	8.6550e-01	-10.7788	-94.082108	0.000455	4.545994	1.540224	0.036298
1733	8.6600e-01	-10.7468	-93.888519	0.000485	4.849060	1.642906	0.038718
1734	8.6650e-01	-10.7099	-93.642500	0.000616	6.162348	2.087860	0.049204
1735	8.6700e-01	-10.6617	-93.392448	0.000626	6.263370	2.122087	0.050010
1736	8.6750e-01	-10.6280	-93.227091	0.000414	4.141906	1.403316	0.033071
1737	8.6800e-01	-10.5847	-93.150462	0.000192	1.919420	0.650317	0.015326
1738	8.6850e-01	-10.5462	-92.916542	0.000586	5.859281	1.985178	0.046784
1739	8.6900e-01	-10.5093	-92.678589	0.000596	5.960303	2.019405	0.047591
1740	8.6950e-01	-10.4676	-92.464835	0.000535	5.354171	1.814042	0.042751
1741	8.7000e-01	-10.4355	-92.279313	0.000465	4.647016	1.574452	0.037105
1742	8.7050e-01	-10.3906	-92.077658	0.000505	5.051105	1.711361	0.040331
1743	8.7100e-01	-10.3393	-91.916334	0.000404	4.040884	1.369088	0.032265
1744	8.7150e-01	-10.3056	-91.674348	0.000606	6.061325	2.053633	0.048397
1745	8.7200e-01	-10.2687	-91.492858	0.000455	4.545994	1.540224	0.036298
1746	8.7250e-01	-10.2254	-91.315402	0.000444	4.444972	1.505997	0.035491
1747	8.7300e-01	-10.1853	-91.073416	0.000606	6.061325	2.053633	0.048397
1748	8.7350e-01	-10.1420	-90.883860	0.000475	4.748038	1.608679	0.037911
1749	8.7400e-01	-10.1115	-90.730603	0.000384	3.838839	1.300634	0.030652
1750	8.7450e-01	-10.0650	-90.492650	0.000596	5.960303	2.019405	0.047591
1751	8.7500e-01	-10.0184	-90.270829	0.000556	5.556215	1.882497	0.044364
1752	8.7550e-01	-9.9799	-90.089340	0.000455	4.545994	1.540224	0.036298
1753	8.7600e-01	-9.9366	-89.936082	0.000384	3.838839	1.300634	0.030652
1754	8.7650e-01	-9.9061	-89.726361	0.000525	5.253149	1.779815	0.041944
1755	8.7700e-01	-9.8612	-89.500508	0.000566	5.657237	1.916724	0.045171
1756	8.7750e-01	-9.8243	-89.270621	0.000576	5.758259	1.950951	0.045977
1757	8.7800e-01	-9.7842	-89.052834	0.000546	5.455193	1.848269	0.043557
1758	8.7850e-01	-9.7377	-88.839079	0.000535	5.354171	1.814042	0.042751
1759	8.7900e-01	-9.7040	-88.689855	0.000374	3.737817	1.266407	0.029845
1760	8.7950e-01	-9.6655	-88.439803	0.000626	6.263370	2.122087	0.050010
1761	8.8000e-01	-9.6270	-88.222015	0.000546	5.455193	1.848269	0.043557
1762	8.8050e-01	-9.5869	-88.084890	0.000343	3.434751	1.163725	0.027425
1763	8.8100e-01	-9.5468	-87.814672	0.000677	6.768480	2.293223	0.054044
1764	8.8150e-01	-9.5035	-87.617051	0.000495	4.950082	1.677133	0.039524
1765	8.8200e-01	-9.4746	-87.362965	0.000636	6.364392	2.156314	0.050817
1766	8.8250e-01	-9.4297	-87.237939	0.000313	3.131685	1.061044	0.025005
1767	8.8300e-01	-9.3832	-86.979821	0.000647	6.465414	2.190542	0.051624
1768	8.8350e-01	-9.3511	-86.874960	0.000263	2.626574	0.889907	0.020972
1769	8.8400e-01	-9.3062	-86.745901	0.000323	3.232707	1.095271	0.025812
1770	8.8450e-01	-9.2596	-86.427286	0.000798	7.980745	2.703950	0.063723
1771	8.8500e-01	-9.2147	-86.274029	0.000384	3.838839	1.300634	0.030652
1772	8.8550e-01	-9.1826	-86.019944	0.000636	6.364392	2.156314	0.050817
1773	8.8600e-01	-9.1521	-85.745693	0.000687	6.869502	2.327450	0.054850
1774	8.8650e-01	-9.1185	-85.515806	0.000576	5.758259	1.950951	0.045977
1775	8.8700e-01	-9.0639	-85.302052	0.000535	5.354171	1.814042	0.042751
1776	8.8750e-01	-9.0270	-85.120563	0.000455	4.545994	1.540224	0.036298
1777	8.8800e-01	-8.9837	-84.890676	0.000576	5.758259	1.950951	0.045977
1778	8.8850e-01	-8.9420	-84.684988	0.000515	5.152127	1.745588	0.041138
1779	8.8900e-01	-8.9019	-84.547863	0.000343	3.434751	1.163725	0.027425
1780	8.8950e-01	-8.8618	-84.257479	0.000727	7.273591	2.464359	0.058077
1781	8.9000e-01	-8.8281	-84.059858	0.000495	4.950082	1.677133	0.039524
1782	8.9050e-01	-8.7832	-83.874335	0.000465	4.647016	1.574452	0.037105
1783	8.9100e-01	-8.7495	-83.567820	0.000768	7.677679	2.601268	0.061303
1784	8.9150e-01	-8.7046	-83.418595	0.000374	3.737817	1.266407	0.029845
1785	8.9200e-01	-8.6661	-83.200808	0.000546	5.455193	1.848269	0.043557
1786	8.9250e-01	-8.6292	-83.007219	0.000485	4.849060	1.642906	0.038718
1787	8.9300e-01	-8.5859	-82.845895	0.000404	4.040884	1.369088	0.032265
1788	8.9350e-01	-8.5490	-82.616008	0.000576	5.758259	1.950951	0.045977
1789	8.9400e-01	-8.4960	-82.333691	0.000707	7.071546	2.395905	0.056463
1790	8.9450e-01	-8.4639	-82.168334	0.000414	4.141906	1.403316	0.033071
1791	8.9500e-01	-8.4222	-82.015077	0.000384	3.838839	1.300634	0.030652
1792	8.9550e-01	-8.3853	-81.736793	0.000697	6.970524	2.361678	0.055657
1793	8.9600e-01	-8.3468	-81.486741	0.000626	6.263370	2.122087	0.050010
1794	8.9650e-01	-8.3067	-81.256854	0.000576	5.758259	1.950951	0.045977
1795	8.9700e-01	-8.2730	-81.156027	0.000253	2.525552	0.855680	0.020165
1796	8.9750e-01	-8.2201	-81.014868	0.000354	3.535773	1.197952	0.028232
1797	8.9800e-01	-8.1800	-80.692220	0.000808	8.081767	2.738177	0.064530
1798	8.9850e-01	-8.1479	-80.438135	0.000636	6.364392	2.156314	0.050817
1799	8.9900e-01	-8.1030	-80.224381	0.000535	5.354171	1.814042	0.042751
1800	8.9950e-01	-8.0581	-79.974329	0.000626	6.263370	2.122087	0.050010
1801	9.0000e-01	-8.0292	-79.764608	0.000525	5.253149	1.779815	0.041944
1802	9.0050e-01	-7.9795	-79.518589	0.000616	6.162348	2.087860	0.049204
1803	9.0100e-01	-7.9458	-79.316934	0.000505	5.051105	1.711361	0.040331
1804	9.0150e-01	-7.9121	-79.058815	0.000647	6.465414	2.190542	0.051624
1805	9.0200e-01	-7.8736	-78.845061	0.000535	5.354171	1.814042	0.042751
1806	9.0250e-01	-7.8271	-78.647439	0.000495	4.950082	1.677133	0.039524
1807	9.0300e-01	-7.7853	-78.482082	0.000414	4.141906	1.403316	0.033071
1808	9.0350e-01	-7.7372	-78.232030	0.000626	6.263370	2.122087	0.050010
1809	9.0400e-01	-7.6939	-77.998110	0.000586	5.859281	1.985178	0.046784
1810	9.0450e-01	-7.6618	-77.788389	0.000525	5.253149	1.779815	0.041944
1811	9.0500e-01	-7.6281	-77.586734	0.000505	5.051105	1.711361	0.040331
1812	9.0550e-01	-7.5784	-77.344748	0.000606	6.061325	2.053633	0.048397
1813	9.0600e-01	-7.5495	-77.102763	0.000606	6.061325	2.053633	0.048397
1814	9.0650e-01	-7.5094	-76.852710	0.000626	6.263370	2.122087	0.050010
1815	9.0700e-01	-7.4741	-76.667188	0.000465	4.647016	1.574452	0.037105
1816	9.0750e-01	-7.4228	-76.417136	0.000626	6.263370	2.122087	0.050010
1817	9.0800e-01	-7.3875	-76.146918	0.000677	6.768480	2.293223	0.054044
1818	9.0850e-01	-7.3442	-76.001727	0.000364	3.636795	1.232180	0.029038
1819	9.0900e-01	-7.3009	-75.779906	0.000556	5.556215	1.882497	0.044364
1820	9.0950e-01	-7.2704	-75.517755	0.000657	6.566436	2.224769	0.052430
1821	9.1000e-01	-7.2255	-75.267703	0.000626	6.263370	2.122087	0.050010
1822	9.1050e-01	-7.1789	-75.005551	0.000657	6.566436	2.224769	0.052430
1823	9.1100e-01	-7.1501	-74.864393	0.000354	3.535773	1.197952	0.028232
1824	9.1150e-01	-7.1068	-74.614341	0.000626	6.263370	2.122087	0.050010
1825	9.1200e-01	-7.0570	-74.340090	0.000687	6.869502	2.327450	0.054850
1826	9.1250e-01	-7.0281	-74.182799	0.000394	3.939862	1.334861	0.031458
1827	9.1300e-01	-6.9816	-73.916615	0.000667	6.667458	2.258996	0.053237
1828	9.1350e-01	-6.9415	-73.831920	0.000212	2.121464	0.718771	0.016939
1829	9.1400e-01	-6.9030	-73.460874	0.000929	9.294032	3.148903	0.074209
1830	9.1450e-01	-6.8565	-73.331815	0.000323	3.232707	1.095271	0.025812
1831	9.1500e-01	-6.8292	-73.017234	0.000788	7.879723	2.669722	0.062916
1832	9.1550e-01	-6.7634	-72.896241	0.000303	3.030663	1.026816	0.024199
1833	9.1600e-01	-6.7458	-72.537295	0.000899	8.990966	3.046222	0.071789
1834	9.1650e-01	-6.7057	-72.291276	0.000616	6.162348	2.087860	0.049204
1835	9.1700e-01	-6.6672	-72.045257	0.000616	6.162348	2.087860	0.049204
1836	9.1750e-01	-6.6303	-71.815370	0.000576	5.758259	1.950951	0.045977
1837	9.1800e-01	-6.5854	-71.625815	0.000475	4.748038	1.608679	0.037911
1838	9.1850e-01	-6.5389	-71.363663	0.000657	6.566436	2.224769	0.052430
1839	9.1900e-01	-6.4971	-71.093446	0.000677	6.768480	2.293223	0.054044
1840	9.1950e-01	-6.4635	-70.827261	0.000667	6.667458	2.258996	0.053237
1841	9.2000e-01	-6.4169	-70.686103	0.000354	3.535773	1.197952	0.028232
1842	9.2050e-01	-6.3897	-70.496547	0.000475	4.748038	1.608679	0.037911
1843	9.2100e-01	-6.3463	-70.218263	0.000697	6.970524	2.361678	0.055657
1844	9.2150e-01	-6.3078	-69.996443	0.000556	5.556215	1.882497	0.044364
1845	9.2200e-01	-6.2661	-69.810920	0.000465	4.647016	1.574452	0.037105
1846	9.2250e-01	-6.2212	-69.472140	0.000849	8.485856	2.875086	0.067756
1847	9.2300e-01	-6.1891	-69.201922	0.000677	6.768480	2.293223	0.054044
1848	9.2350e-01	-6.1506	-69.020433	0.000455	4.545994	1.540224	0.036298
1849	9.2400e-01	-6.1089	-68.778447	0.000606	6.061325	2.053633	0.048397
1850	9.2450e-01	-6.0704	-68.584858	0.000485	4.849060	1.642906	0.038718
1851	9.2500e-01	-6.0287	-68.306574	0.000697	6.970524	2.361678	0.055657
1852	9.2550e-01	-5.9902	-68.100886	0.000515	5.152127	1.745588	0.041138
1853	9.2600e-01	-5.9533	-67.883099	0.000546	5.455193	1.848269	0.043557
1854	9.2650e-01	-5.9052	-67.596749	0.000717	7.172568	2.430132	0.057270
1855	9.2700e-01	-5.8635	-67.326532	0.000677	6.768480	2.293223	0.054044
1856	9.2750e-01	-5.8282	-67.116810	0.000525	5.253149	1.779815	0.041944
1857	9.2800e-01	-5.7849	-66.838527	0.000697	6.970524	2.361678	0.055657
1858	9.2850e-01	-5.7448	-66.669136	0.000424	4.242928	1.437543	0.033878
1859	9.2900e-01	-5.7111	-66.358588	0.000778	7.778701	2.635495	0.062110
1860	9.2950e-01	-5.6645	-66.048039	0.000778	7.778701	2.635495	0.062110
1861	9.3000e-01	-5.6309	-65.886715	0.000404	4.040884	1.369088	0.032265
1862	9.3050e-01	-5.5827	-65.668928	0.000546	5.455193	1.848269	0.043557
1863	9.3100e-01	-5.5490	-65.370479	0.000748	7.475635	2.532814	0.059690
1864	9.3150e-01	-5.5041	-65.193022	0.000444	4.444972	1.505997	0.035491
1865	9.3200e-01	-5.4688	-65.023632	0.000424	4.242928	1.437543	0.033878
1866	9.3250e-01	-5.4287	-64.692918	0.000828	8.283811	2.806631	0.066143
1867	9.3300e-01	-5.3806	-64.378336	0.000788	7.879723	2.669722	0.062916
1868	9.3350e-01	-5.3469	-64.091986	0.000717	7.172568	2.430132	0.057270
1869	9.3400e-01	-5.3084	-63.894365	0.000495	4.950082	1.677133	0.039524
1870	9.3450e-01	-5.2667	-63.696743	0.000495	4.950082	1.677133	0.039524
1871	9.3500e-01	-5.2202	-63.414426	0.000707	7.071546	2.395905	0.056463
1872	9.3550e-01	-5.1833	-63.188572	0.000566	5.657237	1.916724	0.045171
1873	9.3600e-01	-5.1464	-62.910289	0.000697	6.970524	2.361678	0.055657
1874	9.3650e-01	-5.1031	-62.668303	0.000606	6.061325	2.053633	0.048397
1875	9.3700e-01	-5.0694	-62.462615	0.000515	5.152127	1.745588	0.041138
1876	9.3750e-01	-5.0229	-62.204496	0.000647	6.465414	2.190542	0.051624
1877	9.3800e-01	-4.9924	-61.906047	0.000748	7.475635	2.532814	0.059690
1878	9.3850e-01	-4.9475	-61.668094	0.000596	5.960303	2.019405	0.047591
1879	9.3900e-01	-4.9057	-61.373678	0.000737	7.374613	2.498586	0.058883
1880	9.3950e-01	-4.8624	-61.163957	0.000525	5.253149	1.779815	0.041944
1881	9.4000e-01	-4.8319	-60.881640	0.000707	7.071546	2.395905	0.056463
1882	9.4050e-01	-4.7838	-60.651753	0.000576	5.758259	1.950951	0.045977
1883	9.4100e-01	-4.7501	-60.329105	0.000808	8.081767	2.738177	0.064530
1884	9.4150e-01	-4.7052	-60.115351	0.000535	5.354171	1.814042	0.042751
1885	9.4200e-01	-4.6683	-59.905630	0.000525	5.253149	1.779815	0.041944
1886	9.4250e-01	-4.6202	-59.639446	0.000667	6.667458	2.258996	0.053237
1887	9.4300e-01	-4.5945	-59.357129	0.000707	7.071546	2.395905	0.056463
1888	9.4350e-01	-4.5384	-59.183705	0.000434	4.343950	1.471770	0.034685
1889	9.4400e-01	-4.5063	-58.909455	0.000687	6.869502	2.327450	0.054850
1890	9.4450e-01	-4.4710	-58.631171	0.000697	6.970524	2.361678	0.055657
1891	9.4500e-01	-4.4293	-58.340788	0.000727	7.273591	2.464359	0.058077
1892	9.4550e-01	-4.3908	-58.114934	0.000566	5.657237	1.916724	0.045171
1893	9.4600e-01	-4.3475	-57.804386	0.000778	7.778701	2.635495	0.062110
1894	9.4650e-01	-4.3074	-57.574499	0.000576	5.758259	1.950951	0.045977
1895	9.4700e-01	-4.2673	-57.292182	0.000707	7.071546	2.395905	0.056463
1896	9.4750e-01	-4.2304	-57.126825	0.000414	4.141906	1.403316	0.033071
1897	9.4800e-01	-4.1838	-56.816277	0.000778	7.778701	2.635495	0.062110
1898	9.4850e-01	-4.1485	-56.542026	0.000687	6.869502	2.327450	0.054850
1899	9.4900e-01	-4.1068	-56.219378	0.000808	8.081767	2.738177	0.064530
1900	9.4950e-01	-4.0683	-55.957227	0.000657	6.566436	2.224769	0.052430
1901	9.5000e-01	-4.0202	-55.735406	0.000556	5.556215	1.882497	0.044364
1902	9.5050e-01	-3.9817	-55.481321	0.000636	6.364392	2.156314	0.050817
1903	9.5100e-01	-3.9464	-55.190938	0.000727	7.273591	2.464359	0.058077
1904	9.5150e-01	-3.8983	-55.013481	0.000444	4.444972	1.505997	0.035491
1905	9.5200e-01	-3.8662	-54.678734	0.000838	8.384834	2.840859	0.066949
1906	9.5250e-01	-3.8293	-54.448848	0.000576	5.758259	1.950951	0.045977
1907	9.5300e-01	-3.7796	-54.138299	0.000778	7.778701	2.635495	0.062110
1908	9.5350e-01	-3.7363	-53.868081	0.000677	6.768480	2.293223	0.054044
1909	9.5400e-01	-3.7058	-53.533334	0.000838	8.384834	2.840859	0.066949
1910	9.5450e-01	-3.6641	-53.251017	0.000707	7.071546	2.395905	0.056463
1911	9.5500e-01	-3.6320	-53.033230	0.000546	5.455193	1.848269	0.043557
1912	9.5550e-01	-3.5919	-52.779145	0.000636	6.364392	2.156314	0.050817
1913	9.5600e-01	-3.5486	-52.436331	0.000859	8.586878	2.909313	0.068563
1914	9.5650e-01	-3.5036	-52.162081	0.000687	6.869502	2.327450	0.054850
1915	9.5700e-01	-3.4619	-51.980591	0.000455	4.545994	1.540224	0.036298
1916	9.5750e-01	-3.4250	-51.674076	0.000768	7.677679	2.601268	0.061303
1917	9.5800e-01	-3.3897	-51.387726	0.000717	7.172568	2.430132	0.057270
1918	9.5850e-01	-3.3480	-51.133641	0.000636	6.364392	2.156314	0.050817
1919	9.5900e-01	-3.3047	-50.859390	0.000687	6.869502	2.327450	0.054850
1920	9.5950e-01	-3.2614	-50.528676	0.000828	8.283811	2.806631	0.066143
1921	9.6000e-01	-3.2181	-50.282657	0.000616	6.162348	2.087860	0.049204
1922	9.6050e-01	-3.1892	-50.032605	0.000626	6.263370	2.122087	0.050010
1923	9.6100e-01	-3.1475	-49.738189	0.000737	7.374613	2.498586	0.058883
1924	9.6150e-01	-3.1074	-49.391342	0.000869	8.687900	2.943540	0.069369
1925	9.6200e-01	-3.0689	-49.153389	0.000596	5.960303	2.019405	0.047591
1926	9.6250e-01	-3.0256	-48.871072	0.000707	7.071546	2.395905	0.056463
1927	9.6300e-01	-2.9967	-48.629086	0.000606	6.061325	2.053633	0.048397
1928	9.6350e-01	-2.9438	-48.375001	0.000636	6.364392	2.156314	0.050817
1929	9.6400e-01	-2.9149	-48.016055	0.000899	8.990966	3.046222	0.071789
1930	9.6450e-01	-2.8732	-47.786169	0.000576	5.758259	1.950951	0.045977
1931	9.6500e-01	-2.8299	-47.467554	0.000798	7.980745	2.703950	0.063723
1932	9.6550e-01	-2.7769	-47.290098	0.000444	4.444972	1.505997	0.035491
1933	9.6600e-01	-2.7481	-46.931152	0.000899	8.990966	3.046222	0.071789
1934	9.6650e-01	-2.7112	-46.701265	0.000576	5.758259	1.950951	0.045977
1935	9.6700e-01	-2.6646	-46.422981	0.000697	6.970524	2.361678	0.055657
1936	9.6750e-01	-2.6213	-46.112433	0.000778	7.778701	2.635495	0.062110
1937	9.6800e-01	-2.5860	-45.809950	0.000758	7.576657	2.567041	0.060496
1938	9.6850e-01	-2.5507	-45.563931	0.000616	6.162348	2.087860	0.049204
1939	9.6900e-01	-2.5058	-45.196919	0.000919	9.193010	3.114676	0.073402
1940	9.6950e-01	-2.4625	-44.946867	0.000626	6.263370	2.122087	0.050010
1941	9.7000e-01	-2.4336	-44.644385	0.000758	7.576657	2.567041	0.060496
1942	9.7050e-01	-2.3823	-44.333836	0.000778	7.778701	2.635495	0.062110
1943	9.7100e-01	-2.3566	-44.103950	0.000576	5.758259	1.950951	0.045977
1944	9.7150e-01	-2.2973	-43.777269	0.000818	8.182789	2.772404	0.065336
1945	9.7200e-01	-2.2684	-43.470753	0.000768	7.677679	2.601268	0.061303
1946	9.7250e-01	-2.2235	-43.172304	0.000748	7.475635	2.532814	0.059690
1947	9.7300e-01	-2.1898	-42.922252	0.000626	6.263370	2.122087	0.050010
1948	9.7350e-01	-2.1433	-42.639935	0.000707	7.071546	2.395905	0.056463
1949	9.7400e-01	-2.1064	-42.325353	0.000788	7.879723	2.669722	0.062916
1950	9.7450e-01	-2.0630	-41.978507	0.000869	8.687900	2.943540	0.069369
1951	9.7500e-01	-2.0326	-41.744587	0.000586	5.859281	1.985178	0.046784
1952	9.7550e-01	-1.9812	-41.430005	0.000788	7.879723	2.669722	0.062916
1953	9.7600e-01	-1.9427	-41.131556	0.000748	7.475635	2.532814	0.059690
1954	9.7650e-01	-1.9106	-40.905703	0.000566	5.657237	1.916724	0.045171
1955	9.7700e-01	-1.8609	-40.486260	0.001051	10.506297	3.559630	0.083888
1956	9.7750e-01	-1.8224	-40.236208	0.000626	6.263370	2.122087	0.050010
1957	9.7800e-01	-1.7743	-39.921627	0.000788	7.879723	2.669722	0.062916
1958	9.7850e-01	-1.7454	-39.598979	0.000808	8.081767	2.738177	0.064530
1959	9.7900e-01	-1.7021	-39.320695	0.000697	6.970524	2.361678	0.055657
1960	9.7950e-01	-1.6636	-38.945617	0.000940	9.395054	3.183131	0.075016
1961	9.8000e-01	-1.6299	-38.679432	0.000667	6.667458	2.258996	0.053237
1962	9.8050e-01	-1.5818	-38.397115	0.000707	7.071546	2.395905	0.056463
1963	9.8100e-01	-1.5433	-38.094633	0.000758	7.576657	2.567041	0.060496
1964	9.8150e-01	-1.5016	-37.715522	0.000950	9.496077	3.217358	0.075822
1965	9.8200e-01	-1.4647	-37.441271	0.000687	6.869502	2.327450	0.054850
1966	9.8250e-01	-1.4214	-37.179119	0.000657	6.566436	2.224769	0.052430
1967	9.8300e-01	-1.3812	-36.864538	0.000788	7.879723	2.669722	0.062916
1968	9.8350e-01	-1.3492	-36.505592	0.000899	8.990966	3.046222	0.071789
1969	9.8400e-01	-1.2994	-36.126481	0.000950	9.496077	3.217358	0.075822
1970	9.8450e-01	-1.2641	-35.924826	0.000505	5.051105	1.711361	0.040331
1971	9.8500e-01	-1.2256	-35.537648	0.000970	9.698121	3.285812	0.077435
1972	9.8550e-01	-1.1807	-35.251298	0.000717	7.172568	2.430132	0.057270
1973	9.8600e-01	-1.1390	-34.952849	0.000748	7.475635	2.532814	0.059690
1974	9.8650e-01	-1.0989	-34.658433	0.000737	7.374613	2.498586	0.058883
1975	9.8700e-01	-1.0636	-34.311586	0.000869	8.687900	2.943540	0.069369
1976	9.8750e-01	-1.0283	-34.037336	0.000687	6.869502	2.327450	0.054850
1977	9.8800e-01	-0.9786	-33.702588	0.000838	8.384834	2.840859	0.066949
1978	9.8850e-01	-0.9369	-33.416238	0.000717	7.172568	2.430132	0.057270
1979	9.8900e-01	-0.9080	-33.049226	0.000919	9.193010	3.114676	0.073402
1980	9.8950e-01	-0.8583	-32.730612	0.000798	7.980745	2.703950	0.063723
1981	9.9000e-01	-0.8182	-32.411997	0.000798	7.980745	2.703950	0.063723
1982	9.9050e-01	-0.7861	-32.069184	0.000859	8.586878	2.909313	0.068563
1983	9.9100e-01	-0.7476	-31.790900	0.000697	6.970524	2.361678	0.055657
1984	9.9150e-01	-0.7043	-31.472285	0.000798	7.980745	2.703950	0.063723
1985	9.9200e-01	-0.6658	-31.133505	0.000849	8.485856	2.875086	0.067756
1986	9.9250e-01	-0.6240	-30.818923	0.000788	7.879723	2.669722	0.062916
1987	9.9300e-01	-0.5807	-30.520474	0.000748	7.475635	2.532814	0.059690
1988	9.9350e-01	-0.5454	-30.101031	0.001051	10.506297	3.559630	0.083888
1989	9.9400e-01	-0.5053	-29.786450	0.000788	7.879723	2.669722	0.062916
1990	9.9450e-01	-0.4620	-29.532365	0.000636	6.364392	2.156314	0.050817
1991	9.9500e-01	-0.4299	-29.141154	0.000980	9.799143	3.320039	0.078242
1992	9.9550e-01	-0.3818	-28.838672	0.000758	7.576657	2.567041	0.060496
1993	9.9600e-01	-0.3481	-28.556355	0.000707	7.071546	2.395905	0.056463
1994	9.9650e-01	-0.2968	-28.286137	0.000677	6.768480	2.293223	0.054044
1995	9.9700e-01	-0.2631	-27.866695	0.001051	10.506297	3.559630	0.083888
1996	9.9750e-01	-0.2294	-27.588411	0.000697	6.970524	2.361678	0.055657
1997	9.9800e-01	-0.1829	-27.253664	0.000838	8.384834	2.840859	0.066949
1998	9.9850e-01	-0.1540	-26.890685	0.000909	9.091988	3.080449	0.072596
1999	9.9900e-01	-0.1011	-26.612401	0.000697	6.970524	2.361678	0.055657
2000	9.9950e-01	-0.0626	-26.265555	0.000869	8.687900	2.943540	0.069369
2001	1.0000e+00	-0.0273	-25.817881	0.000869	8.687900	2.943540	0.089535

Center data before PMax,+/-Pr and +/-Vc Calc.

PMax (uC/cm2):	1.28e+02
Pr (uC/cm2):	1.45e+01
-Pr (uC/cm2):	-2.58e+01
PLoss (uC/cm2):	-3.12e+01
-Vc:	-1.73e+00
C (Max-Eff) (nF):	6.40e-01
K (Eff):	2.17e+03
Vert. (+/-Pr) Shift (uC/cm2):	-5.66e+00
Offset (uC/cm2):	-5.29e+00

A (Loop Area - uC/cm2·Volts):	-3.68e-01



Hysteresis Version: 5.48.1 - Radiant Technologies, Inc., 1999 - 9/12/24

