»»»»»»»»»»»»»»»»»»»»»»»»»»»»»»»»»»»» Hysteresis ««««««««««««««««««««««««««««««««««««
»»»  Executed Version:	5.48.1
»»»  Vision Version:	5.48.4 (R)
»»»  Vision Compiled:	9/18/24
»»»  Driver Version:	5.47.0
»»»  Windows Version:	Windows 8 or 8.1
»»»  Processor Information:	x86 (AMD or Intel) - 32 Processors
»»»  Tester Name:	PMF21124-494 (100V)
»»»  Tester S/N:	PMF21124-494
»»»  Internal Amp Type:	100V RevK 270k
»»»  Internal Amp S/N:	iAB2-596/K     
»»»  Execution Count:	1
»»»»»»»»»»»»»»»»»»»»»»»»»»»»»»»»»»»»»»»»»»««««««««««««««««««««««««««««««««««««««««««

Stored:	6/5/2025 - 15:12:40
Configured:	06/05/25 02:51:50 PM
Executed:	06/05/25 03:11:58 PM

»»»»»»»»»»»»»»»»»»»»»»»»»»»»»»»»»»» Sample Info ««««««««««««««««««««««««««««««««««««
Sample Name:	
Lot Name:	
Wafer Name:	
Die Row/Column:	0/0
Capacitor Number:	0
Sample Area (cm2):	1.00e-04
Sample Thickness (microns):	3.00e-01

Amplifier:	Internal

»»»»»»»»»»»»»»»»»»»»»»»»»»»»»»»»»»» Tester Info «««««««««««««««««««««««««««««««««««
Tester Name:	PMF21124-494 (100V)
Tester Serial Number:	PMF21124-494
Return Signal Amp. Level:	0.19 [Index: 3]

»»»»»»»»»»»»»»»»»»»»»»»»»»»»»»»» Hysteresis Info ««««««««««««««««««««««««««««««««««
Task Name:	Hyst-353
Volts:	20.00
Field:	666.67 (kV/cm)
DCBias:	0.00
DCField:	0.00 (kV/cm)
Hysteresis Period (ms):	2.00e+02
Preset:	Enabled
Preset Delay (ms):	1.00e+03
Profile:	Standard Bipolar

»»»»»»»»»»»»»»»»»»»»»»»»»»»»»»»»»»»»»» Data «««««««««««««««««««««««««««««««««««««««
Points:	2009

Valid Data

Point	Time (ms)	Drive Voltage	Measured Polarization (uC/cm2)	Capacitance (uF)	Normalized Capacitance (uF/cm2)	Dielectric Constant	Instantaneous Current (mA)
   1	0.0000e+00	-0.0016	-6.681460	0.000263	2.634903	0.892729	0.000105
   2	9.9500e-02	0.0144	-6.576494	0.000263	2.634903	0.892729	0.000105
   3	1.9900e-01	0.0706	-6.451343	0.000314	3.141615	1.064408	0.000126
   4	2.9850e-01	0.1027	-6.314080	0.000345	3.445642	1.167415	0.000138
   5	3.9800e-01	0.1476	-6.180855	0.000334	3.344300	1.133079	0.000134
   6	4.9750e-01	0.1893	-6.031481	0.000375	3.749670	1.270422	0.000150
   7	5.9700e-01	0.2230	-5.874032	0.000395	3.952354	1.339094	0.000158
   8	6.9650e-01	0.2599	-5.720621	0.000385	3.851012	1.304758	0.000154
   9	7.9600e-01	0.3096	-5.563173	0.000395	3.952354	1.339094	0.000158
  10	8.9550e-01	0.3417	-5.417836	0.000365	3.648327	1.236087	0.000146
  11	9.9500e-01	0.3802	-5.248276	0.000426	4.256382	1.442101	0.000170
  12	1.0945e+00	0.4267	-5.086791	0.000405	4.053697	1.373430	0.000162
  13	1.1940e+00	0.4636	-4.913194	0.000436	4.357724	1.476437	0.000174
  14	1.2935e+00	0.4941	-4.727486	0.000466	4.661751	1.579444	0.000187
  15	1.3930e+00	0.5422	-4.594260	0.000334	3.344300	1.133079	0.000134
  16	1.4925e+00	0.5823	-4.412589	0.000456	4.560409	1.545108	0.000183
  17	1.5920e+00	0.6176	-4.210733	0.000507	5.067121	1.716787	0.000203
  18	1.6915e+00	0.6609	-4.057321	0.000385	3.851012	1.304758	0.000154
  19	1.7910e+00	0.7043	-3.863539	0.000486	4.864436	1.648116	0.000195
  20	1.8905e+00	0.7347	-3.689942	0.000436	4.357724	1.476437	0.000174
  21	1.9900e+00	0.7781	-3.544605	0.000365	3.648327	1.236087	0.000146
  22	2.0895e+00	0.8246	-3.306414	0.000598	5.979203	2.025809	0.000239
  23	2.1890e+00	0.8583	-3.128780	0.000446	4.459066	1.510773	0.000179
  24	2.2885e+00	0.8968	-2.947109	0.000456	4.560409	1.545108	0.000183
  25	2.3880e+00	0.9417	-2.773512	0.000436	4.357724	1.476437	0.000174
  26	2.4875e+00	0.9802	-2.567618	0.000517	5.168463	1.751123	0.000207
  27	2.5870e+00	1.0107	-2.418244	0.000375	3.749670	1.270422	0.000150
  28	2.6865e+00	1.0620	-2.184090	0.000588	5.877860	1.991473	0.000235
  29	2.7860e+00	1.0909	-2.062976	0.000304	3.040273	1.030072	0.000122
  30	2.8855e+00	1.1470	-1.828822	0.000588	5.877860	1.991473	0.000235
  31	2.9850e+00	1.1855	-1.614854	0.000537	5.371148	1.819794	0.000215
  32	3.0845e+00	1.2160	-1.477592	0.000345	3.445642	1.167415	0.000138
  33	3.1840e+00	1.2641	-1.259586	0.000547	5.472491	1.854130	0.000219
  34	3.2835e+00	1.2914	-1.073878	0.000466	4.661751	1.579444	0.000187
  35	3.3830e+00	1.3363	-0.876058	0.000497	4.965779	1.682451	0.000199
  36	3.4825e+00	1.3732	-0.658053	0.000547	5.472491	1.854130	0.000219
  37	3.5820e+00	1.4197	-0.476382	0.000456	4.560409	1.545108	0.000183
  38	3.6815e+00	1.4631	-0.254340	0.000557	5.573833	1.888466	0.000223
  39	3.7810e+00	1.4967	-0.052483	0.000507	5.067121	1.716787	0.000203
  40	3.8805e+00	1.5353	0.145337	0.000497	4.965779	1.682451	0.000199
  41	3.9800e+00	1.5754	0.314897	0.000426	4.256382	1.442101	0.000170
  42	4.0795e+00	1.6219	0.536939	0.000557	5.573833	1.888466	0.000223
  43	4.1790e+00	1.6540	0.722647	0.000466	4.661751	1.579444	0.000187
  44	4.2785e+00	1.6925	0.940653	0.000547	5.472491	1.854130	0.000219
  45	4.3780e+00	1.7310	1.199029	0.000649	6.485915	2.197487	0.000260
  46	4.4775e+00	1.7727	1.368589	0.000426	4.256382	1.442101	0.000170
  47	4.5770e+00	1.8240	1.582557	0.000537	5.371148	1.819794	0.000215
  48	4.6765e+00	1.8561	1.768265	0.000466	4.661751	1.579444	0.000187
  49	4.7760e+00	1.8946	1.974159	0.000517	5.168463	1.751123	0.000207
  50	4.8755e+00	1.9379	2.176016	0.000507	5.067121	1.716787	0.000203
  51	4.9750e+00	1.9764	2.369799	0.000486	4.864436	1.648116	0.000195
  52	5.0745e+00	2.0133	2.636250	0.000669	6.688600	2.266159	0.000268
  53	5.1740e+00	2.0614	2.825995	0.000476	4.763094	1.613780	0.000191
  54	5.2735e+00	2.0919	3.015740	0.000476	4.763094	1.613780	0.000191
  55	5.3730e+00	2.1352	3.253931	0.000598	5.979203	2.025809	0.000239
  56	5.4725e+00	2.1737	3.435603	0.000456	4.560409	1.545108	0.000183
  57	5.5720e+00	2.2122	3.685905	0.000628	6.283230	2.128816	0.000252
  58	5.6715e+00	2.2588	3.879687	0.000486	4.864436	1.648116	0.000195
  59	5.7710e+00	2.2989	4.101730	0.000557	5.573833	1.888466	0.000223
  60	5.8705e+00	2.3293	4.311661	0.000527	5.269806	1.785459	0.000211
  61	5.9700e+00	2.3775	4.517555	0.000517	5.168463	1.751123	0.000207
  62	6.0695e+00	2.4144	4.755746	0.000598	5.979203	2.025809	0.000239
  63	6.1690e+00	2.4609	4.973751	0.000547	5.472491	1.854130	0.000219
  64	6.2685e+00	2.4962	5.179645	0.000517	5.168463	1.751123	0.000207
  65	6.3680e+00	2.5379	5.397650	0.000547	5.472491	1.854130	0.000219
  66	6.4675e+00	2.5732	5.603544	0.000517	5.168463	1.751123	0.000207
  67	6.5670e+00	2.6149	5.837698	0.000588	5.877860	1.991473	0.000235
  68	6.6665e+00	2.6550	6.031481	0.000486	4.864436	1.648116	0.000195
  69	6.7660e+00	2.6919	6.281783	0.000628	6.283230	2.128816	0.000252
  70	6.8655e+00	2.7368	6.495751	0.000537	5.371148	1.819794	0.000215
  71	6.9650e+00	2.7769	6.705682	0.000527	5.269806	1.785459	0.000211
  72	7.0645e+00	2.8218	6.935799	0.000578	5.776518	1.957137	0.000231
  73	7.1640e+00	2.8555	7.157842	0.000557	5.573833	1.888466	0.000223
  74	7.2635e+00	2.9005	7.391996	0.000588	5.877860	1.991473	0.000235
  75	7.3630e+00	2.9357	7.597889	0.000517	5.168463	1.751123	0.000207
  76	7.4625e+00	2.9807	7.828006	0.000578	5.776518	1.957137	0.000231
  77	7.5620e+00	3.0144	8.041974	0.000537	5.371148	1.819794	0.000215
  78	7.6615e+00	3.0593	8.300351	0.000649	6.485915	2.197487	0.000260
  79	7.7610e+00	3.0914	8.494134	0.000486	4.864436	1.648116	0.000195
  80	7.8605e+00	3.1331	8.744436	0.000628	6.283230	2.128816	0.000252
  81	7.9600e+00	3.1619	8.930144	0.000466	4.661751	1.579444	0.000187
  82	8.0595e+00	3.2149	9.115852	0.000466	4.661751	1.579444	0.000187
  83	8.1590e+00	3.2502	9.386341	0.000679	6.789942	2.300495	0.000272
  84	8.2585e+00	3.2983	9.612420	0.000568	5.675175	1.922802	0.000227
  85	8.3580e+00	3.3320	9.858685	0.000618	6.181888	2.094480	0.000248
  86	8.4575e+00	3.3625	10.100914	0.000608	6.080545	2.060144	0.000243
  87	8.5570e+00	3.4202	10.310845	0.000527	5.269806	1.785459	0.000211
  88	8.6565e+00	3.4491	10.540961	0.000578	5.776518	1.957137	0.000231
  89	8.7560e+00	3.4892	10.791264	0.000628	6.283230	2.128816	0.000252
  90	8.8555e+00	3.5341	10.985046	0.000486	4.864436	1.648116	0.000195
  91	8.9550e+00	3.5806	11.215163	0.000578	5.776518	1.957137	0.000231
  92	9.0545e+00	3.6111	11.465465	0.000628	6.283230	2.128816	0.000252
  93	9.1540e+00	3.6544	11.667322	0.000507	5.067121	1.716787	0.000203
  94	9.2535e+00	3.6978	11.905513	0.000598	5.979203	2.025809	0.000239
  95	9.3530e+00	3.7298	12.123519	0.000547	5.472491	1.854130	0.000219
  96	9.4525e+00	3.7732	12.410155	0.000720	7.195312	2.437838	0.000288
  97	9.5520e+00	3.8149	12.612012	0.000507	5.067121	1.716787	0.000203
  98	9.6515e+00	3.8566	12.834055	0.000557	5.573833	1.888466	0.000223
  99	9.7510e+00	3.8903	13.076283	0.000608	6.080545	2.060144	0.000243
 100	9.8505e+00	3.9256	13.322548	0.000618	6.181888	2.094480	0.000248
 101	9.9500e+00	3.9641	13.496145	0.000436	4.357724	1.476437	0.000174
 102	1.0050e+01	4.0042	13.738373	0.000608	6.080545	2.060144	0.000243
 103	1.0149e+01	4.0475	13.976564	0.000598	5.979203	2.025809	0.000239
 104	1.0248e+01	4.0860	14.230903	0.000638	6.384572	2.163152	0.000256
 105	1.0348e+01	4.1245	14.440835	0.000527	5.269806	1.785459	0.000211
 106	1.0447e+01	4.1662	14.662877	0.000557	5.573833	1.888466	0.000223
 107	1.0547e+01	4.2127	14.876845	0.000537	5.371148	1.819794	0.000215
 108	1.0646e+01	4.2544	15.135222	0.000649	6.485915	2.197487	0.000260
 109	1.0746e+01	4.2881	15.345153	0.000527	5.269806	1.785459	0.000211
 110	1.0845e+01	4.3330	15.591418	0.000618	6.181888	2.094480	0.000248
 111	1.0945e+01	4.3667	15.797312	0.000517	5.168463	1.751123	0.000207
 112	1.1044e+01	4.4229	16.007243	0.000527	5.269806	1.785459	0.000211
 113	1.1144e+01	4.4501	16.269657	0.000659	6.587257	2.231823	0.000264
 114	1.1243e+01	4.4919	16.467477	0.000497	4.965779	1.682451	0.000199
 115	1.1343e+01	4.5239	16.697593	0.000578	5.776518	1.957137	0.000231
 116	1.1443e+01	4.5608	16.939822	0.000608	6.080545	2.060144	0.000243
 117	1.1542e+01	4.6154	17.149753	0.000527	5.269806	1.785459	0.000211
 118	1.1642e+01	4.6507	17.375832	0.000568	5.675175	1.922802	0.000227
 119	1.1741e+01	4.6876	17.638246	0.000659	6.587257	2.231823	0.000264
 120	1.1841e+01	4.7213	17.844140	0.000517	5.168463	1.751123	0.000207
 121	1.1940e+01	4.7678	18.078294	0.000588	5.877860	1.991473	0.000235
 122	1.2040e+01	4.8095	18.276113	0.000497	4.965779	1.682451	0.000199
 123	1.2139e+01	4.8432	18.510267	0.000588	5.877860	1.991473	0.000235
 124	1.2239e+01	4.8881	18.776718	0.000669	6.688600	2.266159	0.000268
 125	1.2338e+01	4.9202	18.934167	0.000395	3.952354	1.339094	0.000158
 126	1.2438e+01	4.9539	19.232915	0.000750	7.499339	2.540845	0.000300
 127	1.2537e+01	5.0116	19.438809	0.000517	5.168463	1.751123	0.000207
 128	1.2636e+01	5.0469	19.668925	0.000578	5.776518	1.957137	0.000231
 129	1.2736e+01	5.0790	19.878856	0.000527	5.269806	1.785459	0.000211
 130	1.2835e+01	5.1207	20.117047	0.000598	5.979203	2.025809	0.000239
 131	1.2935e+01	5.1688	20.339090	0.000557	5.573833	1.888466	0.000223
 132	1.3034e+01	5.2105	20.597467	0.000649	6.485915	2.197487	0.000260
 133	1.3134e+01	5.2490	20.783175	0.000466	4.661751	1.579444	0.000187
 134	1.3233e+01	5.2763	21.029440	0.000618	6.181888	2.094480	0.000248
 135	1.3333e+01	5.3212	21.227260	0.000497	4.965779	1.682451	0.000199
 136	1.3432e+01	5.3678	21.473525	0.000618	6.181888	2.094480	0.000248
 137	1.3532e+01	5.4095	21.703642	0.000578	5.776518	1.957137	0.000231
 138	1.3632e+01	5.4512	21.905499	0.000507	5.067121	1.716787	0.000203
 139	1.3731e+01	5.4785	22.151764	0.000618	6.181888	2.094480	0.000248
 140	1.3831e+01	5.5234	22.393992	0.000608	6.080545	2.060144	0.000243
 141	1.3930e+01	5.5683	22.575663	0.000456	4.560409	1.545108	0.000183
 142	1.4030e+01	5.6004	22.838077	0.000659	6.587257	2.231823	0.000264
 143	1.4129e+01	5.6485	23.035897	0.000497	4.965779	1.682451	0.000199
 144	1.4229e+01	5.6870	23.245828	0.000527	5.269806	1.785459	0.000211
 145	1.4328e+01	5.7207	23.475944	0.000578	5.776518	1.957137	0.000231
 146	1.4428e+01	5.7688	23.742395	0.000669	6.688600	2.266159	0.000268
 147	1.4527e+01	5.8073	23.960401	0.000547	5.472491	1.854130	0.000219
 148	1.4627e+01	5.8346	24.190517	0.000578	5.776518	1.957137	0.000231
 149	1.4726e+01	5.8827	24.396411	0.000517	5.168463	1.751123	0.000207
 150	1.4825e+01	5.9212	24.610379	0.000537	5.371148	1.819794	0.000215
 151	1.4925e+01	5.9613	24.876830	0.000669	6.688600	2.266159	0.000268
 152	1.5024e+01	6.0014	25.082724	0.000517	5.168463	1.751123	0.000207
 153	1.5124e+01	6.0415	25.296693	0.000537	5.371148	1.819794	0.000215
 154	1.5223e+01	6.0833	25.542958	0.000618	6.181888	2.094480	0.000248
 155	1.5323e+01	6.1201	25.752889	0.000527	5.269806	1.785459	0.000211
 156	1.5422e+01	6.1619	25.987043	0.000588	5.877860	1.991473	0.000235
 157	1.5522e+01	6.1907	26.168714	0.000456	4.560409	1.545108	0.000183
 158	1.5621e+01	6.2469	26.439202	0.000679	6.789942	2.300495	0.000272
 159	1.5721e+01	6.2822	26.677393	0.000598	5.979203	2.025809	0.000239
 160	1.5820e+01	6.3143	26.859064	0.000456	4.560409	1.545108	0.000183
 161	1.5920e+01	6.3592	27.117441	0.000649	6.485915	2.197487	0.000260
 162	1.6020e+01	6.4073	27.319298	0.000507	5.067121	1.716787	0.000203
 163	1.6119e+01	6.4410	27.529229	0.000527	5.269806	1.785459	0.000211
 164	1.6218e+01	6.4779	27.759345	0.000578	5.776518	1.957137	0.000231
 165	1.6318e+01	6.5148	27.997536	0.000598	5.979203	2.025809	0.000239
 166	1.6418e+01	6.5565	28.199393	0.000507	5.067121	1.716787	0.000203
 167	1.6517e+01	6.5998	28.409324	0.000527	5.269806	1.785459	0.000211
 168	1.6616e+01	6.6415	28.659627	0.000628	6.283230	2.128816	0.000252
 169	1.6716e+01	6.6688	28.841298	0.000456	4.560409	1.545108	0.000183
 170	1.6816e+01	6.7233	29.051229	0.000527	5.269806	1.785459	0.000211
 171	1.6915e+01	6.7538	29.257123	0.000517	5.168463	1.751123	0.000207
 172	1.7015e+01	6.8019	29.527611	0.000679	6.789942	2.300495	0.000272
 173	1.7114e+01	6.8340	29.709282	0.000456	4.560409	1.545108	0.000183
 174	1.7213e+01	6.8790	29.959584	0.000628	6.283230	2.128816	0.000252
 175	1.7313e+01	6.9223	30.141255	0.000456	4.560409	1.545108	0.000183
 176	1.7413e+01	6.9511	30.383484	0.000608	6.080545	2.060144	0.000243
 177	1.7512e+01	6.9929	30.601489	0.000547	5.472491	1.854130	0.000219
 178	1.7611e+01	7.0346	30.839680	0.000598	5.979203	2.025809	0.000239
 179	1.7711e+01	7.0747	31.053648	0.000537	5.371148	1.819794	0.000215
 180	1.7811e+01	7.1148	31.255505	0.000507	5.067121	1.716787	0.000203
 181	1.7910e+01	7.1485	31.501770	0.000618	6.181888	2.094480	0.000248
 182	1.8009e+01	7.1998	31.699590	0.000497	4.965779	1.682451	0.000199
 183	1.8109e+01	7.2335	31.929707	0.000578	5.776518	1.957137	0.000231
 184	1.8209e+01	7.2768	32.155786	0.000568	5.675175	1.922802	0.000227
 185	1.8308e+01	7.3137	32.353606	0.000497	4.965779	1.682451	0.000199
 186	1.8407e+01	7.3538	32.599871	0.000618	6.181888	2.094480	0.000248
 187	1.8507e+01	7.3907	32.817876	0.000547	5.472491	1.854130	0.000219
 188	1.8607e+01	7.4324	33.027807	0.000527	5.269806	1.785459	0.000211
 189	1.8706e+01	7.4757	33.249850	0.000557	5.573833	1.888466	0.000223
 190	1.8805e+01	7.5206	33.471892	0.000557	5.573833	1.888466	0.000223
 191	1.8905e+01	7.5447	33.669712	0.000497	4.965779	1.682451	0.000199
 192	1.9005e+01	7.6009	33.907903	0.000598	5.979203	2.025809	0.000239
 193	1.9104e+01	7.6378	34.117834	0.000527	5.269806	1.785459	0.000211
 194	1.9203e+01	7.6795	34.364099	0.000618	6.181888	2.094480	0.000248
 195	1.9303e+01	7.7051	34.586142	0.000557	5.573833	1.888466	0.000223
 196	1.9402e+01	7.7500	34.796073	0.000527	5.269806	1.785459	0.000211
 197	1.9502e+01	7.7950	35.006004	0.000527	5.269806	1.785459	0.000211
 198	1.9602e+01	7.8351	35.256306	0.000628	6.283230	2.128816	0.000252
 199	1.9701e+01	7.8672	35.442015	0.000466	4.661751	1.579444	0.000187
 200	1.9800e+01	7.9121	35.668094	0.000568	5.675175	1.922802	0.000227
 201	1.9900e+01	7.9442	35.882062	0.000537	5.371148	1.819794	0.000215
 202	2.0000e+01	7.9907	36.124291	0.000608	6.080545	2.060144	0.000243
 203	2.0099e+01	8.0324	36.350370	0.000568	5.675175	1.922802	0.000227
 204	2.0198e+01	8.0725	36.548190	0.000497	4.965779	1.682451	0.000199
 205	2.0298e+01	8.1158	36.786381	0.000598	5.979203	2.025809	0.000239
 206	2.0398e+01	8.1463	37.008423	0.000557	5.573833	1.888466	0.000223
 207	2.0497e+01	8.1976	37.234503	0.000568	5.675175	1.922802	0.000227
 208	2.0596e+01	8.2313	37.436360	0.000507	5.067121	1.716787	0.000203
 209	2.0696e+01	8.2746	37.642254	0.000517	5.168463	1.751123	0.000207
 210	2.0796e+01	8.3051	37.888519	0.000618	6.181888	2.094480	0.000248
 211	2.0895e+01	8.3709	38.106524	0.000547	5.472491	1.854130	0.000219
 212	2.0994e+01	8.3885	38.300307	0.000486	4.864436	1.648116	0.000195
 213	2.1094e+01	8.4302	38.530423	0.000578	5.776518	1.957137	0.000231
 214	2.1194e+01	8.4784	38.752466	0.000557	5.573833	1.888466	0.000223
 215	2.1293e+01	8.5105	38.970471	0.000547	5.472491	1.854130	0.000219
 216	2.1392e+01	8.5522	39.196551	0.000568	5.675175	1.922802	0.000227
 217	2.1492e+01	8.5842	39.414556	0.000547	5.472491	1.854130	0.000219
 218	2.1591e+01	8.6260	39.644673	0.000578	5.776518	1.957137	0.000231
 219	2.1691e+01	8.6645	39.850567	0.000517	5.168463	1.751123	0.000207
 220	2.1791e+01	8.6998	40.068572	0.000547	5.472491	1.854130	0.000219
 221	2.1890e+01	8.7527	40.282540	0.000537	5.371148	1.819794	0.000215
 222	2.1989e+01	8.7944	40.532843	0.000628	6.283230	2.128816	0.000252
 223	2.2089e+01	8.8249	40.718551	0.000466	4.661751	1.579444	0.000187
 224	2.2189e+01	8.8794	40.928482	0.000527	5.269806	1.785459	0.000211
 225	2.2288e+01	8.9067	41.182822	0.000638	6.384572	2.163152	0.000256
 226	2.2387e+01	8.9516	41.416976	0.000588	5.877860	1.991473	0.000235
 227	2.2487e+01	8.9901	41.614795	0.000497	4.965779	1.682451	0.000199
 228	2.2587e+01	9.0334	41.820689	0.000517	5.168463	1.751123	0.000207
 229	2.2686e+01	9.0655	42.022546	0.000507	5.067121	1.716787	0.000203
 230	2.2785e+01	9.1072	42.248625	0.000568	5.675175	1.922802	0.000227
 231	2.2885e+01	9.1473	42.462594	0.000537	5.371148	1.819794	0.000215
 232	2.2985e+01	9.1890	42.692710	0.000578	5.776518	1.957137	0.000231
 233	2.3084e+01	9.2259	42.922827	0.000578	5.776518	1.957137	0.000231
 234	2.3183e+01	9.2725	43.112573	0.000476	4.763094	1.613780	0.000191
 235	2.3283e+01	9.2997	43.342689	0.000578	5.776518	1.957137	0.000231
 236	2.3383e+01	9.3559	43.605103	0.000659	6.587257	2.231823	0.000264
 237	2.3482e+01	9.3928	43.766589	0.000405	4.053697	1.373430	0.000162
 238	2.3581e+01	9.4265	44.004780	0.000598	5.979203	2.025809	0.000239
 239	2.3681e+01	9.4666	44.198562	0.000486	4.864436	1.648116	0.000195
 240	2.3780e+01	9.5051	44.420605	0.000557	5.573833	1.888466	0.000223
 241	2.3880e+01	9.5548	44.658796	0.000598	5.979203	2.025809	0.000239
 242	2.3980e+01	9.5885	44.888912	0.000578	5.776518	1.957137	0.000231
 243	2.4079e+01	9.6286	45.066546	0.000446	4.459066	1.510773	0.000179
 244	2.4178e+01	9.6607	45.264366	0.000497	4.965779	1.682451	0.000199
 245	2.4278e+01	9.7104	45.506594	0.000608	6.080545	2.060144	0.000243
 246	2.4378e+01	9.7537	45.692302	0.000466	4.661751	1.579444	0.000187
 247	2.4477e+01	9.7826	45.922419	0.000578	5.776518	1.957137	0.000231
 248	2.4576e+01	9.8243	46.148499	0.000568	5.675175	1.922802	0.000227
 249	2.4676e+01	9.8676	46.366504	0.000547	5.472491	1.854130	0.000219
 250	2.4776e+01	9.9077	46.612769	0.000618	6.181888	2.094480	0.000248
 251	2.4875e+01	9.9446	46.782329	0.000426	4.256382	1.442101	0.000170
 252	2.4974e+01	9.9847	47.012446	0.000578	5.776518	1.957137	0.000231
 253	2.5074e+01	10.0297	47.210265	0.000497	4.965779	1.682451	0.000199
 254	2.5174e+01	10.0698	47.444419	0.000588	5.877860	1.991473	0.000235
 255	2.5273e+01	10.1067	47.646276	0.000507	5.067121	1.716787	0.000203
 256	2.5372e+01	10.1436	47.900616	0.000638	6.384572	2.163152	0.000256
 257	2.5472e+01	10.1756	48.122658	0.000557	5.573833	1.888466	0.000223
 258	2.5572e+01	10.2286	48.296255	0.000436	4.357724	1.476437	0.000174
 259	2.5671e+01	10.2607	48.518297	0.000557	5.573833	1.888466	0.000223
 260	2.5770e+01	10.3088	48.764563	0.000618	6.181888	2.094480	0.000248
 261	2.5870e+01	10.3409	48.954308	0.000476	4.763094	1.613780	0.000191
 262	2.5970e+01	10.3842	49.184425	0.000578	5.776518	1.957137	0.000231
 263	2.6069e+01	10.4211	49.390319	0.000517	5.168463	1.751123	0.000207
 264	2.6169e+01	10.4612	49.620435	0.000578	5.776518	1.957137	0.000231
 265	2.6268e+01	10.5045	49.846515	0.000568	5.675175	1.922802	0.000227
 266	2.6367e+01	10.5286	50.036260	0.000476	4.763094	1.613780	0.000191
 267	2.6467e+01	10.5863	50.286563	0.000628	6.283230	2.128816	0.000252
 268	2.6567e+01	10.6296	50.452085	0.000416	4.155039	1.407765	0.000166
 269	2.6666e+01	10.6649	50.682202	0.000578	5.776518	1.957137	0.000231
 270	2.6765e+01	10.7018	50.904245	0.000557	5.573833	1.888466	0.000223
 271	2.6865e+01	10.7387	51.077841	0.000436	4.357724	1.476437	0.000174
 272	2.6965e+01	10.7804	51.316032	0.000598	5.979203	2.025809	0.000239
 273	2.7064e+01	10.8109	51.517889	0.000507	5.067121	1.716787	0.000203
 274	2.7163e+01	10.8591	51.739932	0.000557	5.573833	1.888466	0.000223
 275	2.7263e+01	10.9056	51.905454	0.000416	4.155039	1.407765	0.000166
 276	2.7363e+01	10.9409	52.143645	0.000598	5.979203	2.025809	0.000239
 277	2.7462e+01	10.9762	52.353576	0.000527	5.269806	1.785459	0.000211
 278	2.7561e+01	11.0339	52.547359	0.000486	4.864436	1.648116	0.000195
 279	2.7661e+01	11.0596	52.753253	0.000517	5.168463	1.751123	0.000207
 280	2.7761e+01	11.1109	52.979332	0.000568	5.675175	1.922802	0.000227
 281	2.7860e+01	11.1414	53.169078	0.000476	4.763094	1.613780	0.000191
 282	2.7959e+01	11.1879	53.366897	0.000497	4.965779	1.682451	0.000199
 283	2.8059e+01	11.2184	53.552606	0.000466	4.661751	1.579444	0.000187
 284	2.8159e+01	11.2601	53.770611	0.000547	5.472491	1.854130	0.000219
 285	2.8258e+01	11.3018	54.016876	0.000618	6.181888	2.094480	0.000248
 286	2.8358e+01	11.3339	54.234882	0.000547	5.472491	1.854130	0.000219
 287	2.8457e+01	11.3820	54.408478	0.000436	4.357724	1.476437	0.000174
 288	2.8556e+01	11.4205	54.642632	0.000588	5.877860	1.991473	0.000235
 289	2.8656e+01	11.4606	54.844489	0.000507	5.067121	1.716787	0.000203
 290	2.8756e+01	11.5023	55.022123	0.000446	4.459066	1.510773	0.000179
 291	2.8855e+01	11.5425	55.211868	0.000476	4.763094	1.613780	0.000191
 292	2.8954e+01	11.5745	55.433911	0.000557	5.573833	1.888466	0.000223
 293	2.9054e+01	11.6211	55.615582	0.000456	4.560409	1.545108	0.000183
 294	2.9154e+01	11.6564	55.809364	0.000486	4.864436	1.648116	0.000195
 295	2.9253e+01	11.7045	56.035444	0.000568	5.675175	1.922802	0.000227
 296	2.9352e+01	11.7318	56.225189	0.000476	4.763094	1.613780	0.000191
 297	2.9452e+01	11.7735	56.410898	0.000466	4.661751	1.579444	0.000187
 298	2.9552e+01	11.8216	56.653126	0.000608	6.080545	2.060144	0.000243
 299	2.9651e+01	11.8617	56.871131	0.000547	5.472491	1.854130	0.000219
 300	2.9750e+01	11.8922	57.044728	0.000436	4.357724	1.476437	0.000174
 301	2.9850e+01	11.9371	57.234473	0.000476	4.763094	1.613780	0.000191
 302	2.9950e+01	11.9804	57.448442	0.000537	5.371148	1.819794	0.000215
 303	3.0049e+01	12.0205	57.658373	0.000527	5.269806	1.785459	0.000211
 304	3.0148e+01	12.0654	57.868304	0.000527	5.269806	1.785459	0.000211
 305	3.0248e+01	12.0975	58.045938	0.000446	4.459066	1.510773	0.000179
 306	3.0348e+01	12.1392	58.231646	0.000466	4.661751	1.579444	0.000187
 307	3.0447e+01	12.1809	58.437540	0.000517	5.168463	1.751123	0.000207
 308	3.0547e+01	12.2146	58.667657	0.000578	5.776518	1.957137	0.000231
 309	3.0646e+01	12.2660	58.808956	0.000355	3.546985	1.201751	0.000142
 310	3.0745e+01	12.2948	58.990627	0.000456	4.560409	1.545108	0.000183
 311	3.0845e+01	12.3333	59.244967	0.000638	6.384572	2.163152	0.000256
 312	3.0945e+01	12.3767	59.454898	0.000527	5.269806	1.785459	0.000211
 313	3.1044e+01	12.4168	59.636569	0.000456	4.560409	1.545108	0.000183
 314	3.1143e+01	12.4585	59.846500	0.000527	5.269806	1.785459	0.000211
 315	3.1243e+01	12.4938	60.012023	0.000416	4.155039	1.407765	0.000166
 316	3.1343e+01	12.5387	60.225991	0.000537	5.371148	1.819794	0.000215
 317	3.1442e+01	12.5836	60.435922	0.000527	5.269806	1.785459	0.000211
 318	3.1541e+01	12.6189	60.617593	0.000456	4.560409	1.545108	0.000183
 319	3.1641e+01	12.6510	60.795227	0.000446	4.459066	1.510773	0.000179
 320	3.1741e+01	12.7023	61.013232	0.000547	5.472491	1.854130	0.000219
 321	3.1840e+01	12.7440	61.186829	0.000436	4.357724	1.476437	0.000174
 322	3.1939e+01	12.7825	61.437132	0.000628	6.283230	2.128816	0.000252
 323	3.2039e+01	12.8146	61.614766	0.000446	4.459066	1.510773	0.000179
 324	3.2139e+01	12.8547	61.828734	0.000537	5.371148	1.819794	0.000215
 325	3.2238e+01	12.8932	62.022516	0.000486	4.864436	1.648116	0.000195
 326	3.2337e+01	12.9317	62.192076	0.000426	4.256382	1.442101	0.000170
 327	3.2437e+01	12.9638	62.365673	0.000436	4.357724	1.476437	0.000174
 328	3.2536e+01	13.0087	62.579641	0.000537	5.371148	1.819794	0.000215
 329	3.2636e+01	13.0552	62.785535	0.000517	5.168463	1.751123	0.000207
 330	3.2736e+01	13.0873	62.971243	0.000466	4.661751	1.579444	0.000187
 331	3.2835e+01	13.1339	63.169063	0.000497	4.965779	1.682451	0.000199
 332	3.2934e+01	13.1740	63.370920	0.000507	5.067121	1.716787	0.000203
 333	3.3034e+01	13.2173	63.532405	0.000405	4.053697	1.373430	0.000162
 334	3.3133e+01	13.2542	63.750410	0.000547	5.472491	1.854130	0.000219
 335	3.3233e+01	13.2879	63.928044	0.000446	4.459066	1.510773	0.000179
 336	3.3333e+01	13.3312	64.105678	0.000446	4.459066	1.510773	0.000179
 337	3.3432e+01	13.3793	64.291387	0.000466	4.661751	1.579444	0.000187
 338	3.3532e+01	13.4162	64.493243	0.000507	5.067121	1.716787	0.000203
 339	3.3631e+01	13.4531	64.703174	0.000527	5.269806	1.785459	0.000211
 340	3.3730e+01	13.4964	64.896957	0.000486	4.864436	1.648116	0.000195
 341	3.3830e+01	13.5285	65.098814	0.000507	5.067121	1.716787	0.000203
 342	3.3929e+01	13.5670	65.256262	0.000395	3.952354	1.339094	0.000158
 343	3.4029e+01	13.6039	65.466193	0.000527	5.269806	1.785459	0.000211
 344	3.4129e+01	13.6472	65.696310	0.000578	5.776518	1.957137	0.000231
 345	3.4228e+01	13.6809	65.833572	0.000345	3.445642	1.167415	0.000138
 346	3.4328e+01	13.7226	66.047541	0.000537	5.371148	1.819794	0.000215
 347	3.4427e+01	13.7659	66.184803	0.000345	3.445642	1.167415	0.000138
 348	3.4526e+01	13.8044	66.378586	0.000486	4.864436	1.648116	0.000195
 349	3.4626e+01	13.8558	66.564294	0.000466	4.661751	1.579444	0.000187
 350	3.4725e+01	13.8975	66.778262	0.000537	5.371148	1.819794	0.000215
 351	3.4825e+01	13.9296	66.931673	0.000385	3.851012	1.304758	0.000154
 352	3.4925e+01	13.9745	67.173902	0.000608	6.080545	2.060144	0.000243
 353	3.5024e+01	14.0130	67.335387	0.000405	4.053697	1.373430	0.000162
 354	3.5123e+01	14.0531	67.541281	0.000517	5.168463	1.751123	0.000207
 355	3.5223e+01	14.0868	67.739101	0.000497	4.965779	1.682451	0.000199
 356	3.5322e+01	14.1253	67.904623	0.000416	4.155039	1.407765	0.000166
 357	3.5422e+01	14.1750	68.106480	0.000507	5.067121	1.716787	0.000203
 358	3.5522e+01	14.2151	68.312374	0.000517	5.168463	1.751123	0.000207
 359	3.5621e+01	14.2536	68.506156	0.000486	4.864436	1.648116	0.000195
 360	3.5721e+01	14.2921	68.708013	0.000507	5.067121	1.716787	0.000203
 361	3.5820e+01	14.3210	68.845276	0.000345	3.445642	1.167415	0.000138
 362	3.5919e+01	14.3739	69.087504	0.000608	6.080545	2.060144	0.000243
 363	3.6019e+01	14.4092	69.277249	0.000476	4.763094	1.613780	0.000191
 364	3.6118e+01	14.4493	69.462958	0.000466	4.661751	1.579444	0.000187
 365	3.6218e+01	14.4830	69.644629	0.000456	4.560409	1.545108	0.000183
 366	3.6318e+01	14.5183	69.798040	0.000385	3.851012	1.304758	0.000154
 367	3.6417e+01	14.5584	70.044305	0.000618	6.181888	2.094480	0.000248
 368	3.6517e+01	14.6049	70.205790	0.000405	4.053697	1.373430	0.000162
 369	3.6616e+01	14.6482	70.431870	0.000568	5.675175	1.922802	0.000227
 370	3.6715e+01	14.6916	70.557021	0.000314	3.141615	1.064408	0.000126
 371	3.6815e+01	14.7220	70.795212	0.000598	5.979203	2.025809	0.000239
 372	3.6914e+01	14.7638	70.988995	0.000486	4.864436	1.648116	0.000195
 373	3.7014e+01	14.8039	71.154517	0.000416	4.155039	1.407765	0.000166
 374	3.7114e+01	14.8440	71.340226	0.000466	4.661751	1.579444	0.000187
 375	3.7213e+01	14.8825	71.513822	0.000436	4.357724	1.476437	0.000174
 376	3.7313e+01	14.9258	71.735865	0.000557	5.573833	1.888466	0.000223
 377	3.7412e+01	14.9611	71.929647	0.000486	4.864436	1.648116	0.000195
 378	3.7511e+01	14.9996	72.119393	0.000476	4.763094	1.613780	0.000191
 379	3.7611e+01	15.0493	72.292990	0.000436	4.357724	1.476437	0.000174
 380	3.7711e+01	15.0766	72.470624	0.000446	4.459066	1.510773	0.000179
 381	3.7810e+01	15.1247	72.696703	0.000568	5.675175	1.922802	0.000227
 382	3.7910e+01	15.1584	72.838003	0.000355	3.546985	1.201751	0.000142
 383	3.8009e+01	15.2033	73.088305	0.000628	6.283230	2.128816	0.000252
 384	3.8108e+01	15.2450	73.237679	0.000375	3.749670	1.270422	0.000150
 385	3.8208e+01	15.2851	73.431462	0.000486	4.864436	1.648116	0.000195
 386	3.8307e+01	15.3156	73.641393	0.000527	5.269806	1.785459	0.000211
 387	3.8407e+01	15.3589	73.827101	0.000466	4.661751	1.579444	0.000187
 388	3.8507e+01	15.4006	73.996661	0.000426	4.256382	1.442101	0.000170
 389	3.8606e+01	15.4423	74.210629	0.000537	5.371148	1.819794	0.000215
 390	3.8706e+01	15.4776	74.380189	0.000426	4.256382	1.442101	0.000170
 391	3.8805e+01	15.5210	74.578008	0.000497	4.965779	1.682451	0.000199
 392	3.8904e+01	15.5643	74.743531	0.000416	4.155039	1.407765	0.000166
 393	3.9004e+01	15.6028	74.921165	0.000446	4.459066	1.510773	0.000179
 394	3.9103e+01	15.6381	75.123022	0.000507	5.067121	1.716787	0.000203
 395	3.9203e+01	15.6830	75.336990	0.000537	5.371148	1.819794	0.000215
 396	3.9303e+01	15.7135	75.498475	0.000405	4.053697	1.373430	0.000162
 397	3.9402e+01	15.7568	75.700332	0.000507	5.067121	1.716787	0.000203
 398	3.9502e+01	15.7985	75.837595	0.000345	3.445642	1.167415	0.000138
 399	3.9601e+01	15.8338	76.091934	0.000638	6.384572	2.163152	0.000256
 400	3.9700e+01	15.8819	76.261494	0.000426	4.256382	1.442101	0.000170
 401	3.9800e+01	15.9220	76.431054	0.000426	4.256382	1.442101	0.000170
 402	3.9900e+01	15.9525	76.616762	0.000466	4.661751	1.579444	0.000187
 403	3.9999e+01	15.9958	76.818619	0.000507	5.067121	1.716787	0.000203
 404	4.0099e+01	16.0471	77.032587	0.000537	5.371148	1.819794	0.000215
 405	4.0198e+01	16.0728	77.202147	0.000426	4.256382	1.442101	0.000170
 406	4.0297e+01	16.1225	77.363632	0.000405	4.053697	1.373430	0.000162
 407	4.0397e+01	16.1546	77.557415	0.000486	4.864436	1.648116	0.000195
 408	4.0496e+01	16.2044	77.726974	0.000426	4.256382	1.442101	0.000170
 409	4.0596e+01	16.2445	77.944980	0.000547	5.472491	1.854130	0.000219
 410	4.0696e+01	16.2830	78.098391	0.000385	3.851012	1.304758	0.000154
 411	4.0795e+01	16.3150	78.300248	0.000507	5.067121	1.716787	0.000203
 412	4.0895e+01	16.3648	78.485956	0.000466	4.661751	1.579444	0.000187
 413	4.0994e+01	16.4017	78.663590	0.000446	4.459066	1.510773	0.000179
 414	4.1093e+01	16.4402	78.877558	0.000537	5.371148	1.819794	0.000215
 415	4.1193e+01	16.4755	78.998672	0.000304	3.040273	1.030072	0.000122
 416	4.1292e+01	16.5236	79.228789	0.000578	5.776518	1.957137	0.000231
 417	4.1392e+01	16.5557	79.406423	0.000446	4.459066	1.510773	0.000179
 418	4.1492e+01	16.6054	79.604242	0.000497	4.965779	1.682451	0.000199
 419	4.1591e+01	16.6407	79.773802	0.000426	4.256382	1.442101	0.000170
 420	4.1691e+01	16.6744	79.959510	0.000466	4.661751	1.579444	0.000187
 421	4.1790e+01	16.7177	80.169441	0.000527	5.269806	1.785459	0.000211
 422	4.1889e+01	16.7594	80.375335	0.000517	5.168463	1.751123	0.000207
 423	4.1989e+01	16.8011	80.540858	0.000416	4.155039	1.407765	0.000166
 424	4.2089e+01	16.8396	80.710418	0.000426	4.256382	1.442101	0.000170
 425	4.2188e+01	16.8749	80.884015	0.000436	4.357724	1.476437	0.000174
 426	4.2288e+01	16.9214	81.089908	0.000517	5.168463	1.751123	0.000207
 427	4.2387e+01	16.9664	81.295802	0.000517	5.168463	1.751123	0.000207
 428	4.2486e+01	17.0049	81.477473	0.000456	4.560409	1.545108	0.000183
 429	4.2586e+01	17.0321	81.655107	0.000446	4.459066	1.510773	0.000179
 430	4.2685e+01	17.0722	81.800444	0.000365	3.648327	1.236087	0.000146
 431	4.2785e+01	17.1204	81.998264	0.000497	4.965779	1.682451	0.000199
 432	4.2885e+01	17.1589	82.200121	0.000507	5.067121	1.716787	0.000203
 433	4.2984e+01	17.1958	82.393903	0.000486	4.864436	1.648116	0.000195
 434	4.3084e+01	17.2327	82.563463	0.000426	4.256382	1.442101	0.000170
 435	4.3183e+01	17.2760	82.716874	0.000385	3.851012	1.304758	0.000154
 436	4.3282e+01	17.3177	82.930842	0.000537	5.371148	1.819794	0.000215
 437	4.3382e+01	17.3578	83.104439	0.000436	4.357724	1.476437	0.000174
 438	4.3481e+01	17.3963	83.294185	0.000476	4.763094	1.613780	0.000191
 439	4.3581e+01	17.4412	83.467781	0.000436	4.357724	1.476437	0.000174
 440	4.3681e+01	17.4733	83.657527	0.000476	4.763094	1.613780	0.000191
 441	4.3780e+01	17.5230	83.843235	0.000466	4.661751	1.579444	0.000187
 442	4.3880e+01	17.5487	84.004720	0.000405	4.053697	1.373430	0.000162
 443	4.3979e+01	17.5952	84.178317	0.000436	4.357724	1.476437	0.000174
 444	4.4078e+01	17.6353	84.351914	0.000436	4.357724	1.476437	0.000174
 445	4.4178e+01	17.6851	84.537622	0.000466	4.661751	1.579444	0.000187
 446	4.4278e+01	17.7139	84.739479	0.000507	5.067121	1.716787	0.000203
 447	4.4377e+01	17.7605	84.848482	0.000274	2.736245	0.927065	0.000110
 448	4.4477e+01	17.8006	85.054376	0.000517	5.168463	1.751123	0.000207
 449	4.4576e+01	17.8246	85.256233	0.000507	5.067121	1.716787	0.000203
 450	4.4675e+01	17.8679	85.397532	0.000355	3.546985	1.201751	0.000142
 451	4.4775e+01	17.9177	85.583241	0.000466	4.661751	1.579444	0.000187
 452	4.4874e+01	17.9530	85.801246	0.000547	5.472491	1.854130	0.000219
 453	4.4974e+01	17.9931	85.962731	0.000405	4.053697	1.373430	0.000162
 454	4.5074e+01	18.0316	86.112105	0.000375	3.749670	1.270422	0.000150
 455	4.5173e+01	18.0717	86.277628	0.000416	4.155039	1.407765	0.000166
 456	4.5273e+01	18.1118	86.459299	0.000456	4.560409	1.545108	0.000183
 457	4.5372e+01	18.1551	86.661156	0.000507	5.067121	1.716787	0.000203
 458	4.5471e+01	18.1952	86.794381	0.000334	3.344300	1.133079	0.000134
 459	4.5571e+01	18.2337	86.963941	0.000426	4.256382	1.442101	0.000170
 460	4.5670e+01	18.2818	87.169835	0.000517	5.168463	1.751123	0.000207
 461	4.5770e+01	18.3155	87.319209	0.000375	3.749670	1.270422	0.000150
 462	4.5870e+01	18.3556	87.500880	0.000456	4.560409	1.545108	0.000183
 463	4.5969e+01	18.3893	87.702737	0.000507	5.067121	1.716787	0.000203
 464	4.6069e+01	18.4374	87.860185	0.000395	3.952354	1.339094	0.000158
 465	4.6168e+01	18.4615	88.041856	0.000456	4.560409	1.545108	0.000183
 466	4.6267e+01	18.5128	88.211416	0.000426	4.256382	1.442101	0.000170
 467	4.6367e+01	18.5465	88.401161	0.000476	4.763094	1.613780	0.000191
 468	4.6467e+01	18.5915	88.546498	0.000365	3.648327	1.236087	0.000146
 469	4.6566e+01	18.6235	88.712021	0.000416	4.155039	1.407765	0.000166
 470	4.6666e+01	18.6733	88.913877	0.000507	5.067121	1.716787	0.000203
 471	4.6765e+01	18.7038	89.095549	0.000456	4.560409	1.545108	0.000183
 472	4.6864e+01	18.7519	89.252997	0.000395	3.952354	1.339094	0.000158
 473	4.6964e+01	18.7840	89.402371	0.000375	3.749670	1.270422	0.000150
 474	4.7063e+01	18.8289	89.555782	0.000385	3.851012	1.304758	0.000154
 475	4.7163e+01	18.8658	89.729379	0.000436	4.357724	1.476437	0.000174
 476	4.7263e+01	18.9139	89.894901	0.000416	4.155039	1.407765	0.000166
 477	4.7362e+01	18.9572	90.088684	0.000486	4.864436	1.648116	0.000195
 478	4.7462e+01	18.9893	90.262281	0.000436	4.357724	1.476437	0.000174
 479	4.7561e+01	19.0278	90.383395	0.000304	3.040273	1.030072	0.000122
 480	4.7660e+01	19.0727	90.589289	0.000517	5.168463	1.751123	0.000207
 481	4.7760e+01	19.1128	90.718477	0.000324	3.242957	1.098744	0.000130
 482	4.7859e+01	19.1513	90.920334	0.000507	5.067121	1.716787	0.000203
 483	4.7959e+01	19.1898	91.118154	0.000497	4.965779	1.682451	0.000199
 484	4.8059e+01	19.2283	91.267528	0.000375	3.749670	1.270422	0.000150
 485	4.8158e+01	19.2700	91.445162	0.000446	4.459066	1.510773	0.000179
 486	4.8258e+01	19.3069	91.594536	0.000375	3.749670	1.270422	0.000150
 487	4.8357e+01	19.3503	91.747947	0.000385	3.851012	1.304758	0.000154
 488	4.8456e+01	19.3839	91.917506	0.000426	4.256382	1.442101	0.000170
 489	4.8556e+01	19.4353	92.107252	0.000476	4.763094	1.613780	0.000191
 490	4.8656e+01	19.4658	92.284886	0.000446	4.459066	1.510773	0.000179
 491	4.8755e+01	19.5027	92.418111	0.000334	3.344300	1.133079	0.000134
 492	4.8855e+01	19.5524	92.591708	0.000436	4.357724	1.476437	0.000174
 493	4.8954e+01	19.5861	92.769342	0.000446	4.459066	1.510773	0.000179
 494	4.9053e+01	19.6294	92.963125	0.000486	4.864436	1.648116	0.000195
 495	4.9153e+01	19.6663	93.104424	0.000355	3.546985	1.201751	0.000142
 496	4.9252e+01	19.7112	93.269947	0.000416	4.155039	1.407765	0.000166
 497	4.9352e+01	19.7465	93.407210	0.000345	3.445642	1.167415	0.000138
 498	4.9452e+01	19.7866	93.609066	0.000507	5.067121	1.716787	0.000203
 499	4.9551e+01	19.8331	93.746329	0.000345	3.445642	1.167415	0.000138
 500	4.9651e+01	19.8652	93.891666	0.000365	3.648327	1.236087	0.000146
 501	4.9750e+01	19.9037	94.069300	0.000446	4.459066	1.510773	0.000179
 502	4.9849e+01	19.9502	94.246934	0.000446	4.459066	1.510773	0.000179
 503	4.9949e+01	19.9887	94.432642	0.000466	4.661751	1.579444	0.000187
 504	5.0048e+01	19.9454	94.424568	0.000020	0.202685	0.068671	-0.000008
 505	5.0148e+01	19.9005	94.392271	0.000081	0.810739	0.274686	-0.000032
 506	5.0248e+01	19.8604	94.355936	0.000091	0.912082	0.309022	-0.000037
 507	5.0347e+01	19.8315	94.339788	0.000041	0.405370	0.137343	-0.000016
 508	5.0447e+01	19.7866	94.271157	0.000172	1.722821	0.583708	-0.000069
 509	5.0546e+01	19.7433	94.242897	0.000071	0.709397	0.240350	-0.000028
 510	5.0645e+01	19.7048	94.198488	0.000111	1.114767	0.377693	-0.000045
 511	5.0745e+01	19.6663	94.158117	0.000101	1.013424	0.343357	-0.000041
 512	5.0844e+01	19.6198	94.121783	0.000091	0.912082	0.309022	-0.000037
 513	5.0944e+01	19.5829	94.061226	0.000152	1.520136	0.515036	-0.000061
 514	5.1044e+01	19.5492	94.008743	0.000132	1.317451	0.446365	-0.000053
 515	5.1143e+01	19.5107	93.944149	0.000162	1.621479	0.549372	-0.000065
 516	5.1242e+01	19.4609	93.863406	0.000203	2.026848	0.686715	-0.000081
 517	5.1342e+01	19.4273	93.806886	0.000142	1.418794	0.480700	-0.000057
 518	5.1441e+01	19.3855	93.754403	0.000132	1.317451	0.446365	-0.000053
 519	5.1541e+01	19.3535	93.693846	0.000152	1.520136	0.515036	-0.000061
 520	5.1641e+01	19.3085	93.625215	0.000172	1.722821	0.583708	-0.000069
 521	5.1740e+01	19.2604	93.548509	0.000193	1.925506	0.652379	-0.000077
 522	5.1840e+01	19.2235	93.504101	0.000111	1.114767	0.377693	-0.000045
 523	5.1939e+01	19.1898	93.435470	0.000172	1.722821	0.583708	-0.000069
 524	5.2038e+01	19.1481	93.378950	0.000142	1.418794	0.480700	-0.000057
 525	5.2138e+01	19.1096	93.282058	0.000243	2.432218	0.824058	-0.000097
 526	5.2237e+01	19.0759	93.221501	0.000152	1.520136	0.515036	-0.000061
 527	5.2337e+01	19.0262	93.140759	0.000203	2.026848	0.686715	-0.000081
 528	5.2437e+01	18.9877	93.080202	0.000152	1.520136	0.515036	-0.000061
 529	5.2536e+01	18.9492	93.007533	0.000182	1.824164	0.618043	-0.000073
 530	5.2636e+01	18.9171	92.906605	0.000253	2.533560	0.858394	-0.000101
 531	5.2735e+01	18.8690	92.878345	0.000071	0.709397	0.240350	-0.000028
 532	5.2834e+01	18.8369	92.789528	0.000223	2.229533	0.755386	-0.000089
 533	5.2934e+01	18.7936	92.668414	0.000304	3.040273	1.030072	-0.000122
 534	5.3033e+01	18.7487	92.619968	0.000122	1.216109	0.412029	-0.000049
 535	5.3133e+01	18.7118	92.531151	0.000223	2.229533	0.755386	-0.000089
 536	5.3233e+01	18.6813	92.414074	0.000294	2.938930	0.995736	-0.000118
 537	5.3332e+01	18.6316	92.381777	0.000081	0.810739	0.274686	-0.000032
 538	5.3431e+01	18.5979	92.272774	0.000274	2.736245	0.927065	-0.000110
 539	5.3531e+01	18.5626	92.175883	0.000243	2.432218	0.824058	-0.000097
 540	5.3630e+01	18.4984	92.155697	0.000051	0.506712	0.171679	-0.000020
 541	5.3730e+01	18.4776	92.050732	0.000263	2.634903	0.892729	-0.000105
 542	5.3830e+01	18.4294	91.945766	0.000263	2.634903	0.892729	-0.000105
 543	5.3929e+01	18.3893	91.852912	0.000233	2.330876	0.789722	-0.000093
 544	5.4029e+01	18.3460	91.764095	0.000223	2.229533	0.755386	-0.000089
 545	5.4128e+01	18.3091	91.675278	0.000223	2.229533	0.755386	-0.000089
 546	5.4227e+01	18.2690	91.558201	0.000294	2.938930	0.995736	-0.000118
 547	5.4327e+01	18.2385	91.501682	0.000142	1.418794	0.480700	-0.000057
 548	5.4426e+01	18.1792	91.404790	0.000243	2.432218	0.824058	-0.000097
 549	5.4526e+01	18.1551	91.368456	0.000091	0.912082	0.309022	-0.000037
 550	5.4626e+01	18.1182	91.267528	0.000253	2.533560	0.858394	-0.000101
 551	5.4725e+01	18.0669	91.146414	0.000304	3.040273	1.030072	-0.000122
 552	5.4825e+01	18.0268	91.073745	0.000182	1.824164	0.618043	-0.000073
 553	5.4924e+01	17.9931	90.932445	0.000355	3.546985	1.201751	-0.000142
 554	5.5023e+01	17.9594	90.871888	0.000152	1.520136	0.515036	-0.000061
 555	5.5123e+01	17.9257	90.770960	0.000253	2.533560	0.858394	-0.000101
 556	5.5222e+01	17.8776	90.674069	0.000243	2.432218	0.824058	-0.000097
 557	5.5322e+01	17.8455	90.577177	0.000243	2.432218	0.824058	-0.000097
 558	5.5422e+01	17.7974	90.460100	0.000294	2.938930	0.995736	-0.000118
 559	5.5521e+01	17.7492	90.391469	0.000172	1.722821	0.583708	-0.000069
 560	5.5620e+01	17.7268	90.282467	0.000274	2.736245	0.927065	-0.000110
 561	5.5720e+01	17.6674	90.201724	0.000203	2.026848	0.686715	-0.000081
 562	5.5819e+01	17.6289	90.116944	0.000213	2.128191	0.721051	-0.000085
 563	5.5919e+01	17.5904	89.991793	0.000314	3.141615	1.064408	-0.000126
 564	5.6019e+01	17.5519	89.915087	0.000193	1.925506	0.652379	-0.000077
 565	5.6118e+01	17.5230	89.810122	0.000263	2.634903	0.892729	-0.000105
 566	5.6218e+01	17.4765	89.709193	0.000253	2.533560	0.858394	-0.000101
 567	5.6317e+01	17.4316	89.640562	0.000172	1.722821	0.583708	-0.000069
 568	5.6416e+01	17.3931	89.527522	0.000284	2.837588	0.961401	-0.000114
 569	5.6516e+01	17.3514	89.406408	0.000304	3.040273	1.030072	-0.000122
 570	5.6615e+01	17.3273	89.309517	0.000243	2.432218	0.824058	-0.000097
 571	5.6715e+01	17.2728	89.224737	0.000213	2.128191	0.721051	-0.000085
 572	5.6815e+01	17.2359	89.127846	0.000243	2.432218	0.824058	-0.000097
 573	5.6914e+01	17.2006	88.966360	0.000405	4.053697	1.373430	-0.000162
 574	5.7014e+01	17.1637	88.873506	0.000233	2.330876	0.789722	-0.000093
 575	5.7113e+01	17.1091	88.772578	0.000253	2.533560	0.858394	-0.000101
 576	5.7212e+01	17.0851	88.679724	0.000233	2.330876	0.789722	-0.000093
 577	5.7312e+01	17.0321	88.570721	0.000274	2.736245	0.927065	-0.000110
 578	5.7411e+01	16.9968	88.477867	0.000233	2.330876	0.789722	-0.000093
 579	5.7511e+01	16.9551	88.348678	0.000324	3.242957	1.098744	-0.000130
 580	5.7611e+01	16.9214	88.271973	0.000193	1.925506	0.652379	-0.000077
 581	5.7710e+01	16.8749	88.162970	0.000274	2.736245	0.927065	-0.000110
 582	5.7809e+01	16.8316	88.041856	0.000304	3.040273	1.030072	-0.000122
 583	5.7909e+01	16.7899	87.969188	0.000182	1.824164	0.618043	-0.000073
 584	5.8008e+01	16.7498	87.852111	0.000294	2.938930	0.995736	-0.000118
 585	5.8108e+01	16.7113	87.698700	0.000385	3.851012	1.304758	-0.000154
 586	5.8208e+01	16.6808	87.613920	0.000213	2.128191	0.721051	-0.000085
 587	5.8307e+01	16.6391	87.545288	0.000172	1.722821	0.583708	-0.000069
 588	5.8407e+01	16.6038	87.464546	0.000203	2.026848	0.686715	-0.000081
 589	5.8506e+01	16.5557	87.331320	0.000334	3.344300	1.133079	-0.000134
 590	5.8605e+01	16.5204	87.234429	0.000243	2.432218	0.824058	-0.000097
 591	5.8705e+01	16.4787	87.113315	0.000304	3.040273	1.030072	-0.000122
 592	5.8804e+01	16.4370	87.008349	0.000263	2.634903	0.892729	-0.000105
 593	5.8904e+01	16.3969	86.871087	0.000345	3.445642	1.167415	-0.000138
 594	5.9004e+01	16.3568	86.786307	0.000213	2.128191	0.721051	-0.000085
 595	5.9103e+01	16.3247	86.673267	0.000284	2.837588	0.961401	-0.000114
 596	5.9203e+01	16.2846	86.552153	0.000304	3.040273	1.030072	-0.000122
 597	5.9302e+01	16.2429	86.487559	0.000162	1.621479	0.549372	-0.000065
 598	5.9401e+01	16.1915	86.346259	0.000355	3.546985	1.201751	-0.000142
 599	5.9501e+01	16.1610	86.213034	0.000334	3.344300	1.133079	-0.000134
 600	5.9600e+01	16.1241	86.120180	0.000233	2.330876	0.789722	-0.000093
 601	5.9700e+01	16.0728	85.986954	0.000334	3.344300	1.133079	-0.000134
 602	5.9800e+01	16.0487	85.890063	0.000243	2.432218	0.824058	-0.000097
 603	5.9899e+01	15.9958	85.777023	0.000284	2.837588	0.961401	-0.000114
 604	5.9998e+01	15.9653	85.647835	0.000324	3.242957	1.098744	-0.000130
 605	6.0098e+01	15.9268	85.563055	0.000213	2.128191	0.721051	-0.000085
 606	6.0197e+01	15.8819	85.429829	0.000334	3.344300	1.133079	-0.000134
 607	6.0297e+01	15.8434	85.316790	0.000284	2.837588	0.961401	-0.000114
 608	6.0397e+01	15.8065	85.203750	0.000284	2.837588	0.961401	-0.000114
 609	6.0496e+01	15.7616	85.082636	0.000304	3.040273	1.030072	-0.000122
 610	6.0596e+01	15.7311	84.953447	0.000324	3.242957	1.098744	-0.000130
 611	6.0695e+01	15.6878	84.828296	0.000314	3.141615	1.064408	-0.000126
 612	6.0794e+01	15.6397	84.691034	0.000345	3.445642	1.167415	-0.000138
 613	6.0894e+01	15.6012	84.549734	0.000355	3.546985	1.201751	-0.000142
 614	6.0993e+01	15.5611	84.477065	0.000182	1.824164	0.618043	-0.000073
 615	6.1093e+01	15.5193	84.339803	0.000345	3.445642	1.167415	-0.000138
 616	6.1193e+01	15.4937	84.230800	0.000274	2.736245	0.927065	-0.000110
 617	6.1292e+01	15.4439	84.133909	0.000243	2.432218	0.824058	-0.000097
 618	6.1392e+01	15.4071	83.972423	0.000405	4.053697	1.373430	-0.000162
 619	6.1491e+01	15.3573	83.863421	0.000274	2.736245	0.927065	-0.000110
 620	6.1590e+01	15.3220	83.726158	0.000345	3.445642	1.167415	-0.000138
 621	6.1690e+01	15.2851	83.580821	0.000365	3.648327	1.236087	-0.000146
 622	6.1789e+01	15.2402	83.496041	0.000213	2.128191	0.721051	-0.000085
 623	6.1889e+01	15.2017	83.358779	0.000345	3.445642	1.167415	-0.000138
 624	6.1989e+01	15.1664	83.213442	0.000365	3.648327	1.236087	-0.000146
 625	6.2088e+01	15.1183	83.112513	0.000253	2.533560	0.858394	-0.000101
 626	6.2188e+01	15.0910	82.959102	0.000385	3.851012	1.304758	-0.000154
 627	6.2287e+01	15.0429	82.886434	0.000182	1.824164	0.618043	-0.000073
 628	6.2386e+01	15.0140	82.704763	0.000456	4.560409	1.545108	-0.000183
 629	6.2486e+01	14.9707	82.555389	0.000375	3.749670	1.270422	-0.000150
 630	6.2586e+01	14.9146	82.462535	0.000233	2.330876	0.789722	-0.000093
 631	6.2685e+01	14.8841	82.309123	0.000385	3.851012	1.304758	-0.000154
 632	6.2785e+01	14.8520	82.216269	0.000233	2.330876	0.789722	-0.000093
 633	6.2884e+01	14.8055	82.066895	0.000375	3.749670	1.270422	-0.000150
 634	6.2983e+01	14.7557	81.953855	0.000284	2.837588	0.961401	-0.000114
 635	6.3083e+01	14.7236	81.828704	0.000314	3.141615	1.064408	-0.000126
 636	6.3182e+01	14.6819	81.683367	0.000365	3.648327	1.236087	-0.000146
 637	6.3282e+01	14.6370	81.546105	0.000345	3.445642	1.167415	-0.000138
 638	6.3382e+01	14.6001	81.384619	0.000405	4.053697	1.373430	-0.000162
 639	6.3481e+01	14.5664	81.328099	0.000142	1.418794	0.480700	-0.000057
 640	6.3581e+01	14.5263	81.146428	0.000456	4.560409	1.545108	-0.000183
 641	6.3680e+01	14.4862	81.017240	0.000324	3.242957	1.098744	-0.000130
 642	6.3779e+01	14.4493	80.851717	0.000416	4.155039	1.407765	-0.000166
 643	6.3879e+01	14.4124	80.734640	0.000294	2.938930	0.995736	-0.000118
 644	6.3978e+01	14.3627	80.625638	0.000274	2.736245	0.927065	-0.000110
 645	6.4078e+01	14.3258	80.472227	0.000385	3.851012	1.304758	-0.000154
 646	6.4177e+01	14.2937	80.318816	0.000385	3.851012	1.304758	-0.000154
 647	6.4277e+01	14.2456	80.229999	0.000223	2.229533	0.755386	-0.000089
 648	6.4376e+01	14.2071	80.092736	0.000345	3.445642	1.167415	-0.000138
 649	6.4476e+01	14.1718	79.939325	0.000385	3.851012	1.304758	-0.000154
 650	6.4576e+01	14.1301	79.781876	0.000395	3.952354	1.339094	-0.000158
 651	6.4675e+01	14.0868	79.628465	0.000385	3.851012	1.304758	-0.000154
 652	6.4775e+01	14.0451	79.531574	0.000243	2.432218	0.824058	-0.000097
 653	6.4874e+01	14.0050	79.370089	0.000405	4.053697	1.373430	-0.000162
 654	6.4974e+01	13.9681	79.269160	0.000253	2.533560	0.858394	-0.000101
 655	6.5073e+01	13.9247	79.123823	0.000365	3.648327	1.236087	-0.000146
 656	6.5172e+01	13.8814	78.978486	0.000365	3.648327	1.236087	-0.000146
 657	6.5272e+01	13.8509	78.829112	0.000375	3.749670	1.270422	-0.000150
 658	6.5371e+01	13.8012	78.679738	0.000375	3.749670	1.270422	-0.000150
 659	6.5471e+01	13.7691	78.554587	0.000314	3.141615	1.064408	-0.000126
 660	6.5570e+01	13.7290	78.421362	0.000334	3.344300	1.133079	-0.000134
 661	6.5670e+01	13.6825	78.296211	0.000314	3.141615	1.064408	-0.000126
 662	6.5769e+01	13.6584	78.158948	0.000345	3.445642	1.167415	-0.000138
 663	6.5869e+01	13.6103	78.005537	0.000385	3.851012	1.304758	-0.000154
 664	6.5969e+01	13.5750	77.835977	0.000426	4.256382	1.442101	-0.000170
 665	6.6068e+01	13.5333	77.735049	0.000253	2.533560	0.858394	-0.000101
 666	6.6168e+01	13.4868	77.573563	0.000405	4.053697	1.373430	-0.000162
 667	6.6267e+01	13.4467	77.444375	0.000324	3.242957	1.098744	-0.000130
 668	6.6367e+01	13.4050	77.266741	0.000446	4.459066	1.510773	-0.000179
 669	6.6466e+01	13.3713	77.105255	0.000405	4.053697	1.373430	-0.000162
 670	6.6566e+01	13.3264	76.996253	0.000274	2.736245	0.927065	-0.000110
 671	6.6665e+01	13.2895	76.854953	0.000355	3.546985	1.201751	-0.000142
 672	6.6764e+01	13.2574	76.681356	0.000436	4.357724	1.476437	-0.000174
 673	6.6864e+01	13.2109	76.523908	0.000395	3.952354	1.339094	-0.000158
 674	6.6963e+01	13.1772	76.386645	0.000345	3.445642	1.167415	-0.000138
 675	6.7063e+01	13.1274	76.257457	0.000324	3.242957	1.098744	-0.000130
 676	6.7162e+01	13.0937	76.104046	0.000385	3.851012	1.304758	-0.000154
 677	6.7262e+01	13.0585	75.954672	0.000375	3.749670	1.270422	-0.000150
 678	6.7362e+01	13.0119	75.813372	0.000355	3.546985	1.201751	-0.000142
 679	6.7461e+01	12.9718	75.651887	0.000405	4.053697	1.373430	-0.000162
 680	6.7561e+01	12.9301	75.486364	0.000416	4.155039	1.407765	-0.000166
 681	6.7660e+01	12.8916	75.389473	0.000243	2.432218	0.824058	-0.000097
 682	6.7760e+01	12.8531	75.203765	0.000466	4.661751	1.579444	-0.000187
 683	6.7859e+01	12.8082	75.082650	0.000304	3.040273	1.030072	-0.000122
 684	6.7959e+01	12.7681	74.921165	0.000405	4.053697	1.373430	-0.000162
 685	6.8058e+01	12.7360	74.751605	0.000426	4.256382	1.442101	-0.000170
 686	6.8157e+01	12.7007	74.614343	0.000345	3.445642	1.167415	-0.000138
 687	6.8257e+01	12.6574	74.436709	0.000446	4.459066	1.510773	-0.000179
 688	6.8356e+01	12.6237	74.319632	0.000294	2.938930	0.995736	-0.000118
 689	6.8456e+01	12.5724	74.137961	0.000456	4.560409	1.545108	-0.000183
 690	6.8555e+01	12.5435	74.016847	0.000304	3.040273	1.030072	-0.000122
 691	6.8655e+01	12.4970	73.843250	0.000436	4.357724	1.476437	-0.000174
 692	6.8754e+01	12.4601	73.714061	0.000324	3.242957	1.098744	-0.000130
 693	6.8854e+01	12.4152	73.556613	0.000395	3.952354	1.339094	-0.000158
 694	6.8954e+01	12.3815	73.435499	0.000304	3.040273	1.030072	-0.000122
 695	6.9053e+01	12.3398	73.278051	0.000395	3.952354	1.339094	-0.000158
 696	6.9153e+01	12.2932	73.124640	0.000385	3.851012	1.304758	-0.000154
 697	6.9252e+01	12.2547	72.971228	0.000385	3.851012	1.304758	-0.000154
 698	6.9352e+01	12.2162	72.821854	0.000375	3.749670	1.270422	-0.000150
 699	6.9451e+01	12.1825	72.672480	0.000375	3.749670	1.270422	-0.000150
 700	6.9550e+01	12.1424	72.539255	0.000334	3.344300	1.133079	-0.000134
 701	6.9650e+01	12.0975	72.377770	0.000405	4.053697	1.373430	-0.000162
 702	6.9749e+01	12.0558	72.220321	0.000395	3.952354	1.339094	-0.000158
 703	6.9849e+01	12.0141	72.050762	0.000426	4.256382	1.442101	-0.000170
 704	6.9948e+01	11.9788	71.917536	0.000334	3.344300	1.133079	-0.000134
 705	7.0048e+01	11.9371	71.727791	0.000476	4.763094	1.613780	-0.000191
 706	7.0147e+01	11.8938	71.610714	0.000294	2.938930	0.995736	-0.000118
 707	7.0247e+01	11.8665	71.445191	0.000416	4.155039	1.407765	-0.000166
 708	7.0347e+01	11.8136	71.283706	0.000405	4.053697	1.373430	-0.000162
 709	7.0446e+01	11.7879	71.166629	0.000294	2.938930	0.995736	-0.000118
 710	7.0546e+01	11.7366	70.988995	0.000446	4.459066	1.510773	-0.000179
 711	7.0645e+01	11.7125	70.875955	0.000284	2.837588	0.961401	-0.000114
 712	7.0745e+01	11.6596	70.702358	0.000436	4.357724	1.476437	-0.000174
 713	7.0844e+01	11.6179	70.544910	0.000395	3.952354	1.339094	-0.000158
 714	7.0944e+01	11.5810	70.371313	0.000436	4.357724	1.476437	-0.000174
 715	7.1043e+01	11.5376	70.230013	0.000355	3.546985	1.201751	-0.000142
 716	7.1142e+01	11.4975	70.052379	0.000446	4.459066	1.510773	-0.000179
 717	7.1242e+01	11.4655	69.898968	0.000385	3.851012	1.304758	-0.000154
 718	7.1341e+01	11.4221	69.757668	0.000355	3.546985	1.201751	-0.000142
 719	7.1441e+01	11.3772	69.612332	0.000365	3.648327	1.236087	-0.000146
 720	7.1540e+01	11.3467	69.442772	0.000426	4.256382	1.442101	-0.000170
 721	7.1640e+01	11.3018	69.265138	0.000446	4.459066	1.510773	-0.000179
 722	7.1740e+01	11.2617	69.103652	0.000405	4.053697	1.373430	-0.000162
 723	7.1839e+01	11.2200	68.946204	0.000395	3.952354	1.339094	-0.000158
 724	7.1939e+01	11.1799	68.853350	0.000233	2.330876	0.789722	-0.000093
 725	7.2038e+01	11.1446	68.683790	0.000426	4.256382	1.442101	-0.000170
 726	7.2138e+01	11.1045	68.526342	0.000395	3.952354	1.339094	-0.000158
 727	7.2237e+01	11.0628	68.340634	0.000466	4.661751	1.579444	-0.000187
 728	7.2337e+01	11.0211	68.211445	0.000324	3.242957	1.098744	-0.000130
 729	7.2436e+01	10.9762	68.033811	0.000446	4.459066	1.510773	-0.000179
 730	7.2535e+01	10.9361	67.848103	0.000466	4.661751	1.579444	-0.000187
 731	7.2635e+01	10.9104	67.698729	0.000375	3.749670	1.270422	-0.000150
 732	7.2734e+01	10.8623	67.521095	0.000446	4.459066	1.510773	-0.000179
 733	7.2834e+01	10.8206	67.424204	0.000243	2.432218	0.824058	-0.000097
 734	7.2933e+01	10.7788	67.238496	0.000466	4.661751	1.579444	-0.000187
 735	7.3033e+01	10.7371	67.109307	0.000324	3.242957	1.098744	-0.000130
 736	7.3132e+01	10.7018	66.923599	0.000466	4.661751	1.579444	-0.000187
 737	7.3232e+01	10.6649	66.745965	0.000446	4.459066	1.510773	-0.000179
 738	7.3332e+01	10.6296	66.592554	0.000385	3.851012	1.304758	-0.000154
 739	7.3431e+01	10.5815	66.451254	0.000355	3.546985	1.201751	-0.000142
 740	7.3531e+01	10.5494	66.233249	0.000547	5.472491	1.854130	-0.000219
 741	7.3630e+01	10.5109	66.112135	0.000304	3.040273	1.030072	-0.000122
 742	7.3730e+01	10.4628	65.942575	0.000426	4.256382	1.442101	-0.000170
 743	7.3829e+01	10.4243	65.764941	0.000446	4.459066	1.510773	-0.000179
 744	7.3928e+01	10.3858	65.631716	0.000334	3.344300	1.133079	-0.000134
 745	7.4028e+01	10.3409	65.413710	0.000547	5.472491	1.854130	-0.000219
 746	7.4127e+01	10.3040	65.272411	0.000355	3.546985	1.201751	-0.000142
 747	7.4227e+01	10.2687	65.086702	0.000466	4.661751	1.579444	-0.000187
 748	7.4326e+01	10.2254	64.937328	0.000375	3.749670	1.270422	-0.000150
 749	7.4426e+01	10.1773	64.759694	0.000446	4.459066	1.510773	-0.000179
 750	7.4525e+01	10.1516	64.658766	0.000253	2.533560	0.858394	-0.000101
 751	7.4625e+01	10.1035	64.497281	0.000405	4.053697	1.373430	-0.000162
 752	7.4725e+01	10.0634	64.315609	0.000456	4.560409	1.545108	-0.000183
 753	7.4824e+01	10.0265	64.142013	0.000436	4.357724	1.476437	-0.000174
 754	7.4924e+01	9.9863	63.964379	0.000446	4.459066	1.510773	-0.000179
 755	7.5023e+01	9.9446	63.806930	0.000395	3.952354	1.339094	-0.000158
 756	7.5123e+01	9.9061	63.633334	0.000436	4.357724	1.476437	-0.000174
 757	7.5222e+01	9.8692	63.492034	0.000355	3.546985	1.201751	-0.000142
 758	7.5322e+01	9.8227	63.350734	0.000355	3.546985	1.201751	-0.000142
 759	7.5421e+01	9.7826	63.152914	0.000497	4.965779	1.682451	-0.000199
 760	7.5520e+01	9.7441	62.991429	0.000405	4.053697	1.373430	-0.000162
 761	7.5620e+01	9.7088	62.817832	0.000436	4.357724	1.476437	-0.000174
 762	7.5719e+01	9.6623	62.640198	0.000446	4.459066	1.510773	-0.000179
 763	7.5819e+01	9.6286	62.482750	0.000395	3.952354	1.339094	-0.000158
 764	7.5918e+01	9.5805	62.329339	0.000385	3.851012	1.304758	-0.000154
 765	7.6018e+01	9.5516	62.208225	0.000304	3.040273	1.030072	-0.000122
 766	7.6118e+01	9.5051	62.010405	0.000497	4.965779	1.682451	-0.000199
 767	7.6217e+01	9.4762	61.820660	0.000476	4.763094	1.613780	-0.000191
 768	7.6317e+01	9.4361	61.703583	0.000294	2.938930	0.995736	-0.000118
 769	7.6416e+01	9.3944	61.473466	0.000578	5.776518	1.957137	-0.000231
 770	7.6516e+01	9.3511	61.336203	0.000345	3.445642	1.167415	-0.000138
 771	7.6615e+01	9.3062	61.134346	0.000507	5.067121	1.716787	-0.000203
 772	7.6715e+01	9.2741	60.984972	0.000375	3.749670	1.270422	-0.000150
 773	7.6814e+01	9.2275	60.815413	0.000426	4.256382	1.442101	-0.000170
 774	7.6913e+01	9.1842	60.649890	0.000416	4.155039	1.407765	-0.000166
 775	7.7013e+01	9.1538	60.488405	0.000405	4.053697	1.373430	-0.000162
 776	7.7112e+01	9.1120	60.294622	0.000486	4.864436	1.648116	-0.000195
 777	7.7212e+01	9.0687	60.145248	0.000375	3.749670	1.270422	-0.000150
 778	7.7311e+01	9.0366	59.923206	0.000557	5.573833	1.888466	-0.000223
 779	7.7411e+01	8.9917	59.761720	0.000405	4.053697	1.373430	-0.000162
 780	7.7510e+01	8.9500	59.580049	0.000456	4.560409	1.545108	-0.000183
 781	7.7610e+01	8.9083	59.426638	0.000385	3.851012	1.304758	-0.000154
 782	7.7710e+01	8.8698	59.188447	0.000598	5.979203	2.025809	-0.000239
 783	7.7809e+01	8.8313	59.039073	0.000375	3.749670	1.270422	-0.000150
 784	7.7909e+01	8.7912	58.869513	0.000426	4.256382	1.442101	-0.000170
 785	7.8008e+01	8.7511	58.687842	0.000456	4.560409	1.545108	-0.000183
 786	7.8108e+01	8.7078	58.506171	0.000456	4.560409	1.545108	-0.000183
 787	7.8207e+01	8.6677	58.344686	0.000405	4.053697	1.373430	-0.000162
 788	7.8306e+01	8.6211	58.154940	0.000476	4.763094	1.613780	-0.000191
 789	7.8406e+01	8.5875	58.001529	0.000385	3.851012	1.304758	-0.000154
 790	7.8505e+01	8.5490	57.803709	0.000497	4.965779	1.682451	-0.000199
 791	7.8605e+01	8.5185	57.630113	0.000436	4.357724	1.476437	-0.000174
 792	7.8704e+01	8.4768	57.420182	0.000527	5.269806	1.785459	-0.000211
 793	7.8804e+01	8.4238	57.254659	0.000416	4.155039	1.407765	-0.000166
 794	7.8903e+01	8.3869	57.097211	0.000395	3.952354	1.339094	-0.000158
 795	7.9003e+01	8.3484	56.891317	0.000517	5.168463	1.751123	-0.000207
 796	7.9103e+01	8.3099	56.709646	0.000456	4.560409	1.545108	-0.000183
 797	7.9202e+01	8.2586	56.536049	0.000436	4.357724	1.476437	-0.000174
 798	7.9302e+01	8.2377	56.346303	0.000476	4.763094	1.613780	-0.000191
 799	7.9401e+01	8.1960	56.140410	0.000517	5.168463	1.751123	-0.000207
 800	7.9501e+01	8.1495	55.950664	0.000476	4.763094	1.613780	-0.000191
 801	7.9600e+01	8.1062	55.809364	0.000355	3.546985	1.201751	-0.000142
 802	7.9700e+01	8.0741	55.599433	0.000527	5.269806	1.785459	-0.000211
 803	7.9799e+01	8.0308	55.446022	0.000385	3.851012	1.304758	-0.000154
 804	7.9898e+01	7.9891	55.223980	0.000557	5.573833	1.888466	-0.000223
 805	7.9998e+01	7.9618	55.046346	0.000446	4.459066	1.510773	-0.000179
 806	8.0097e+01	7.9089	54.888897	0.000395	3.952354	1.339094	-0.000158
 807	8.0197e+01	7.8784	54.654744	0.000588	5.877860	1.991473	-0.000235
 808	8.0296e+01	7.8287	54.473073	0.000456	4.560409	1.545108	-0.000183
 809	8.0396e+01	7.7950	54.287364	0.000466	4.661751	1.579444	-0.000187
 810	8.0496e+01	7.7517	54.097619	0.000476	4.763094	1.613780	-0.000191
 811	8.0595e+01	7.7164	53.915948	0.000456	4.560409	1.545108	-0.000183
 812	8.0695e+01	7.6730	53.718128	0.000497	4.965779	1.682451	-0.000199
 813	8.0794e+01	7.6313	53.528383	0.000476	4.763094	1.613780	-0.000191
 814	8.0894e+01	7.5960	53.366897	0.000405	4.053697	1.373430	-0.000162
 815	8.0993e+01	7.5447	53.181189	0.000466	4.661751	1.579444	-0.000187
 816	8.1093e+01	7.5190	52.983369	0.000497	4.965779	1.682451	-0.000199
 817	8.1192e+01	7.4773	52.769401	0.000537	5.371148	1.819794	-0.000215
 818	8.1291e+01	7.4356	52.595804	0.000436	4.357724	1.476437	-0.000174
 819	8.1391e+01	7.3923	52.406059	0.000476	4.763094	1.613780	-0.000191
 820	8.1490e+01	7.3490	52.220351	0.000466	4.661751	1.579444	-0.000187
 821	8.1590e+01	7.3249	52.002345	0.000547	5.472491	1.854130	-0.000219
 822	8.1689e+01	7.2736	51.840860	0.000405	4.053697	1.373430	-0.000162
 823	8.1789e+01	7.2351	51.630929	0.000527	5.269806	1.785459	-0.000211
 824	8.1888e+01	7.1950	51.449258	0.000456	4.560409	1.545108	-0.000183
 825	8.1988e+01	7.1549	51.235290	0.000537	5.371148	1.819794	-0.000215
 826	8.2088e+01	7.1244	51.053619	0.000456	4.560409	1.545108	-0.000183
 827	8.2187e+01	7.0795	50.839650	0.000537	5.371148	1.819794	-0.000215
 828	8.2287e+01	7.0362	50.637794	0.000507	5.067121	1.716787	-0.000203
 829	8.2386e+01	6.9977	50.452085	0.000466	4.661751	1.579444	-0.000187
 830	8.2486e+01	6.9576	50.278488	0.000436	4.357724	1.476437	-0.000174
 831	8.2585e+01	6.9191	50.096817	0.000456	4.560409	1.545108	-0.000183
 832	8.2684e+01	6.8822	49.882849	0.000537	5.371148	1.819794	-0.000215
 833	8.2784e+01	6.8372	49.685030	0.000497	4.965779	1.682451	-0.000199
 834	8.2883e+01	6.8019	49.471061	0.000537	5.371148	1.819794	-0.000215
 835	8.2983e+01	6.7538	49.301502	0.000426	4.256382	1.442101	-0.000170
 836	8.3082e+01	6.7233	49.075422	0.000568	5.675175	1.922802	-0.000227
 837	8.3182e+01	6.6720	48.881640	0.000486	4.864436	1.648116	-0.000195
 838	8.3281e+01	6.6351	48.655560	0.000568	5.675175	1.922802	-0.000227
 839	8.3381e+01	6.5998	48.477926	0.000446	4.459066	1.510773	-0.000179
 840	8.3481e+01	6.5597	48.267995	0.000527	5.269806	1.785459	-0.000211
 841	8.3580e+01	6.5196	48.074212	0.000486	4.864436	1.648116	-0.000195
 842	8.3680e+01	6.4763	47.892541	0.000456	4.560409	1.545108	-0.000183
 843	8.3779e+01	6.4426	47.698759	0.000486	4.864436	1.648116	-0.000195
 844	8.3879e+01	6.3977	47.492865	0.000517	5.168463	1.751123	-0.000207
 845	8.3978e+01	6.3608	47.266785	0.000568	5.675175	1.922802	-0.000227
 846	8.4078e+01	6.3239	47.056854	0.000527	5.269806	1.785459	-0.000211
 847	8.4177e+01	6.2790	46.846923	0.000527	5.269806	1.785459	-0.000211
 848	8.4276e+01	6.2517	46.641029	0.000517	5.168463	1.751123	-0.000207
 849	8.4376e+01	6.1939	46.435135	0.000517	5.168463	1.751123	-0.000207
 850	8.4475e+01	6.1570	46.265576	0.000426	4.256382	1.442101	-0.000170
 851	8.4575e+01	6.1218	46.039496	0.000568	5.675175	1.922802	-0.000227
 852	8.4674e+01	6.0784	45.829565	0.000527	5.269806	1.785459	-0.000211
 853	8.4774e+01	6.0480	45.619634	0.000527	5.269806	1.785459	-0.000211
 854	8.4874e+01	6.0095	45.409703	0.000527	5.269806	1.785459	-0.000211
 855	8.4973e+01	5.9549	45.215920	0.000486	4.864436	1.648116	-0.000195
 856	8.5073e+01	5.9180	45.022138	0.000486	4.864436	1.648116	-0.000195
 857	8.5172e+01	5.8731	44.783947	0.000598	5.979203	2.025809	-0.000239
 858	8.5272e+01	5.8426	44.618424	0.000416	4.155039	1.407765	-0.000166
 859	8.5371e+01	5.8009	44.424642	0.000486	4.864436	1.648116	-0.000195
 860	8.5471e+01	5.7656	44.218748	0.000517	5.168463	1.751123	-0.000207
 861	8.5570e+01	5.7191	44.016891	0.000507	5.067121	1.716787	-0.000203
 862	8.5669e+01	5.6758	43.798886	0.000547	5.472491	1.854130	-0.000219
 863	8.5769e+01	5.6357	43.592992	0.000517	5.168463	1.751123	-0.000207
 864	8.5868e+01	5.6084	43.383061	0.000527	5.269806	1.785459	-0.000211
 865	8.5968e+01	5.5571	43.132758	0.000628	6.283230	2.128816	-0.000252
 866	8.6067e+01	5.5266	42.934939	0.000497	4.965779	1.682451	-0.000199
 867	8.6167e+01	5.4865	42.769416	0.000416	4.155039	1.407765	-0.000166
 868	8.6266e+01	5.4464	42.559485	0.000527	5.269806	1.785459	-0.000211
 869	8.6366e+01	5.3982	42.349554	0.000527	5.269806	1.785459	-0.000211
 870	8.6466e+01	5.3710	42.151734	0.000497	4.965779	1.682451	-0.000199
 871	8.6565e+01	5.3293	41.909506	0.000608	6.080545	2.060144	-0.000243
 872	8.6665e+01	5.2892	41.752058	0.000395	3.952354	1.339094	-0.000158
 873	8.6764e+01	5.2507	41.513867	0.000598	5.979203	2.025809	-0.000239
 874	8.6864e+01	5.2073	41.295861	0.000547	5.472491	1.854130	-0.000219
 875	8.6963e+01	5.1720	41.102079	0.000486	4.864436	1.648116	-0.000195
 876	8.7063e+01	5.1303	40.900222	0.000507	5.067121	1.716787	-0.000203
 877	8.7162e+01	5.0758	40.714514	0.000466	4.661751	1.579444	-0.000187
 878	8.7261e+01	5.0373	40.480360	0.000588	5.877860	1.991473	-0.000235
 879	8.7361e+01	4.9972	40.254280	0.000568	5.675175	1.922802	-0.000227
 880	8.7460e+01	4.9651	40.064535	0.000476	4.763094	1.613780	-0.000191
 881	8.7560e+01	4.9282	39.854604	0.000527	5.269806	1.785459	-0.000211
 882	8.7659e+01	4.8801	39.664859	0.000476	4.763094	1.613780	-0.000191
 883	8.7759e+01	4.8528	39.430705	0.000588	5.877860	1.991473	-0.000235
 884	8.7859e+01	4.8079	39.208662	0.000557	5.573833	1.888466	-0.000223
 885	8.7958e+01	4.7646	39.047177	0.000405	4.053697	1.373430	-0.000162
 886	8.8058e+01	4.7197	38.796874	0.000628	6.283230	2.128816	-0.000252
 887	8.8157e+01	4.6940	38.590981	0.000517	5.168463	1.751123	-0.000207
 888	8.8257e+01	4.6426	38.385087	0.000517	5.168463	1.751123	-0.000207
 889	8.8356e+01	4.6074	38.159007	0.000568	5.675175	1.922802	-0.000227
 890	8.8456e+01	4.5656	37.973299	0.000466	4.661751	1.579444	-0.000187
 891	8.8555e+01	4.5191	37.775479	0.000497	4.965779	1.682451	-0.000199
 892	8.8654e+01	4.4870	37.545362	0.000578	5.776518	1.957137	-0.000231
 893	8.8754e+01	4.4405	37.331394	0.000537	5.371148	1.819794	-0.000215
 894	8.8853e+01	4.4132	37.101277	0.000578	5.776518	1.957137	-0.000231
 895	8.8953e+01	4.3780	36.899421	0.000507	5.067121	1.716787	-0.000203
 896	8.9052e+01	4.3298	36.665267	0.000588	5.877860	1.991473	-0.000235
 897	8.9152e+01	4.2817	36.519930	0.000365	3.648327	1.236087	-0.000146
 898	8.9251e+01	4.2464	36.261553	0.000649	6.485915	2.197487	-0.000260
 899	8.9351e+01	4.2127	36.043548	0.000547	5.472491	1.854130	-0.000219
 900	8.9451e+01	4.1726	35.805357	0.000598	5.979203	2.025809	-0.000239
 901	8.9550e+01	4.1245	35.611574	0.000486	4.864436	1.648116	-0.000195
 902	8.9650e+01	4.0860	35.401643	0.000527	5.269806	1.785459	-0.000211
 903	8.9749e+01	4.0443	35.183638	0.000547	5.472491	1.854130	-0.000219
 904	8.9849e+01	4.0026	34.973707	0.000527	5.269806	1.785459	-0.000211
 905	8.9948e+01	3.9625	34.763776	0.000527	5.269806	1.785459	-0.000211
 906	9.0047e+01	3.9256	34.513473	0.000628	6.283230	2.128816	-0.000252
 907	9.0147e+01	3.8919	34.303542	0.000527	5.269806	1.785459	-0.000211
 908	9.0246e+01	3.8534	34.089574	0.000537	5.371148	1.819794	-0.000215
 909	9.0346e+01	3.8084	33.879643	0.000527	5.269806	1.785459	-0.000211
 910	9.0445e+01	3.7780	33.677786	0.000507	5.067121	1.716787	-0.000203
 911	9.0545e+01	3.7282	33.443632	0.000588	5.877860	1.991473	-0.000235
 912	9.0644e+01	3.6945	33.229664	0.000537	5.371148	1.819794	-0.000215
 913	9.0744e+01	3.6512	33.011659	0.000547	5.472491	1.854130	-0.000219
 914	9.0844e+01	3.6127	32.769431	0.000608	6.080545	2.060144	-0.000243
 915	9.0943e+01	3.5726	32.563537	0.000517	5.168463	1.751123	-0.000207
 916	9.1043e+01	3.5197	32.329383	0.000588	5.877860	1.991473	-0.000235
 917	9.1142e+01	3.4828	32.135600	0.000486	4.864436	1.648116	-0.000195
 918	9.1242e+01	3.4459	31.937781	0.000497	4.965779	1.682451	-0.000199
 919	9.1341e+01	3.4154	31.687478	0.000628	6.283230	2.128816	-0.000252
 920	9.1441e+01	3.3817	31.469473	0.000547	5.472491	1.854130	-0.000219
 921	9.1540e+01	3.3304	31.247431	0.000557	5.573833	1.888466	-0.000223
 922	9.1639e+01	3.2903	31.005202	0.000608	6.080545	2.060144	-0.000243
 923	9.1739e+01	3.2486	30.803346	0.000507	5.067121	1.716787	-0.000203
 924	9.1838e+01	3.2053	30.577266	0.000568	5.675175	1.922802	-0.000227
 925	9.1938e+01	3.1684	30.383484	0.000486	4.864436	1.648116	-0.000195
 926	9.2037e+01	3.1315	30.145293	0.000598	5.979203	2.025809	-0.000239
 927	9.2137e+01	3.0962	29.967659	0.000446	4.459066	1.510773	-0.000179
 928	9.2237e+01	3.0609	29.745616	0.000557	5.573833	1.888466	-0.000223
 929	9.2336e+01	3.0063	29.495314	0.000628	6.283230	2.128816	-0.000252
 930	9.2436e+01	2.9710	29.281346	0.000537	5.371148	1.819794	-0.000215
 931	9.2535e+01	2.9406	29.063340	0.000547	5.472491	1.854130	-0.000219
 932	9.2635e+01	2.8956	28.825149	0.000598	5.979203	2.025809	-0.000239
 933	9.2734e+01	2.8555	28.603107	0.000557	5.573833	1.888466	-0.000223
 934	9.2834e+01	2.8138	28.364916	0.000598	5.979203	2.025809	-0.000239
 935	9.2933e+01	2.7737	28.191319	0.000436	4.357724	1.476437	-0.000174
 936	9.3032e+01	2.7304	27.936979	0.000638	6.384572	2.163152	-0.000256
 937	9.3132e+01	2.6855	27.718974	0.000547	5.472491	1.854130	-0.000219
 938	9.3231e+01	2.6518	27.484820	0.000588	5.877860	1.991473	-0.000235
 939	9.3331e+01	2.6101	27.278926	0.000517	5.168463	1.751123	-0.000207
 940	9.3430e+01	2.5780	27.028624	0.000628	6.283230	2.128816	-0.000252
 941	9.3530e+01	2.5283	26.814656	0.000537	5.371148	1.819794	-0.000215
 942	9.3629e+01	2.4962	26.596650	0.000547	5.472491	1.854130	-0.000219
 943	9.3729e+01	2.4529	26.346348	0.000628	6.283230	2.128816	-0.000252
 944	9.3829e+01	2.4256	26.124305	0.000557	5.573833	1.888466	-0.000223
 945	9.3928e+01	2.3775	25.861892	0.000659	6.587257	2.231823	-0.000264
 946	9.4028e+01	2.3310	25.724629	0.000345	3.445642	1.167415	-0.000138
 947	9.4127e+01	2.3005	25.409732	0.000790	7.904709	2.678188	-0.000316
 948	9.4227e+01	2.2652	25.191727	0.000547	5.472491	1.854130	-0.000219
 949	9.4326e+01	2.2203	24.957573	0.000588	5.877860	1.991473	-0.000235
 950	9.4425e+01	2.1769	24.755716	0.000507	5.067121	1.716787	-0.000203
 951	9.4525e+01	2.1288	24.497340	0.000649	6.485915	2.197487	-0.000260
 952	9.4624e+01	2.0983	24.251074	0.000618	6.181888	2.094480	-0.000248
 953	9.4724e+01	2.0550	24.012883	0.000598	5.979203	2.025809	-0.000239
 954	9.4823e+01	2.0133	23.815064	0.000497	4.965779	1.682451	-0.000199
 955	9.4923e+01	1.9844	23.528427	0.000720	7.195312	2.437838	-0.000288
 956	9.5022e+01	1.9363	23.342719	0.000466	4.661751	1.579444	-0.000187
 957	9.5122e+01	1.9010	23.096454	0.000618	6.181888	2.094480	-0.000248
 958	9.5222e+01	1.8641	22.870374	0.000568	5.675175	1.922802	-0.000227
 959	9.5321e+01	1.8240	22.624109	0.000618	6.181888	2.094480	-0.000248
 960	9.5421e+01	1.7743	22.426289	0.000497	4.965779	1.682451	-0.000199
 961	9.5520e+01	1.7358	22.163875	0.000659	6.587257	2.231823	-0.000264
 962	9.5620e+01	1.6973	21.901461	0.000659	6.587257	2.231823	-0.000264
 963	9.5719e+01	1.6540	21.691530	0.000527	5.269806	1.785459	-0.000211
 964	9.5819e+01	1.6123	21.445265	0.000618	6.181888	2.094480	-0.000248
 965	9.5918e+01	1.5818	21.199000	0.000618	6.181888	2.094480	-0.000248
 966	9.6017e+01	1.5385	20.944660	0.000638	6.384572	2.163152	-0.000256
 967	9.6117e+01	1.4984	20.738766	0.000517	5.168463	1.751123	-0.000207
 968	9.6216e+01	1.4615	20.480390	0.000649	6.485915	2.197487	-0.000260
 969	9.6316e+01	1.4133	20.246236	0.000588	5.877860	1.991473	-0.000235
 970	9.6415e+01	1.3812	19.995933	0.000628	6.283230	2.128816	-0.000252
 971	9.6515e+01	1.3411	19.757742	0.000598	5.979203	2.025809	-0.000239
 972	9.6615e+01	1.2994	19.515514	0.000608	6.080545	2.060144	-0.000243
 973	9.6714e+01	1.2641	19.269249	0.000618	6.181888	2.094480	-0.000248
 974	9.6814e+01	1.2224	19.031058	0.000598	5.979203	2.025809	-0.000239
 975	9.6913e+01	1.1839	18.804978	0.000568	5.675175	1.922802	-0.000227
 976	9.7013e+01	1.1374	18.534490	0.000679	6.789942	2.300495	-0.000272
 977	9.7112e+01	1.0909	18.276113	0.000649	6.485915	2.197487	-0.000260
 978	9.7212e+01	1.0604	18.037922	0.000598	5.979203	2.025809	-0.000239
 979	9.7311e+01	1.0219	17.787620	0.000628	6.283230	2.128816	-0.000252
 980	9.7410e+01	0.9738	17.557503	0.000578	5.776518	1.957137	-0.000231
 981	9.7510e+01	0.9337	17.295090	0.000659	6.587257	2.231823	-0.000264
 982	9.7609e+01	0.9048	17.069010	0.000568	5.675175	1.922802	-0.000227
 983	9.7709e+01	0.8599	16.830819	0.000598	5.979203	2.025809	-0.000239
 984	9.7808e+01	0.8246	16.592628	0.000598	5.979203	2.025809	-0.000239
 985	9.7908e+01	0.7748	16.350400	0.000608	6.080545	2.060144	-0.000243
 986	9.8007e+01	0.7315	16.075875	0.000689	6.891285	2.334830	-0.000276
 987	9.8107e+01	0.6978	15.821535	0.000638	6.384572	2.163152	-0.000256
 988	9.8207e+01	0.6658	15.639864	0.000456	4.560409	1.545108	-0.000183
 989	9.8306e+01	0.6176	15.377450	0.000659	6.587257	2.231823	-0.000264
 990	9.8406e+01	0.5839	15.155408	0.000557	5.573833	1.888466	-0.000223
 991	9.8505e+01	0.5374	14.901068	0.000638	6.384572	2.163152	-0.000256
 992	9.8605e+01	0.5069	14.654803	0.000618	6.181888	2.094480	-0.000248
 993	9.8704e+01	0.4604	14.364129	0.000730	7.296654	2.472173	-0.000292
 994	9.8803e+01	0.4219	14.166309	0.000497	4.965779	1.682451	-0.000199
 995	9.8903e+01	0.3866	13.855450	0.000780	7.803366	2.643852	-0.000312
 996	9.9002e+01	0.3433	13.637445	0.000547	5.472491	1.854130	-0.000219
 997	9.9102e+01	0.2904	13.423476	0.000537	5.371148	1.819794	-0.000215
 998	9.9201e+01	0.2631	13.128765	0.000740	7.397997	2.506509	-0.000296
 999	9.9301e+01	0.2198	12.858277	0.000679	6.789942	2.300495	-0.000272
1000	9.9400e+01	0.1765	12.620086	0.000598	5.979203	2.025809	-0.000239
1001	9.9500e+01	0.1476	12.402081	0.000547	5.472491	1.854130	-0.000219
1002	9.9600e+01	0.0963	12.095259	0.000770	7.702024	2.609516	-0.000308
1003	9.9699e+01	0.0674	11.865142	0.000578	5.776518	1.957137	-0.000231
1004	9.9799e+01	0.0257	11.606765	0.000649	6.485915	2.197487	-0.000260
1005	9.9898e+01	-0.0048	11.376649	0.000578	5.776518	1.957137	-0.000231
1006	9.9998e+01	-0.0465	11.166717	0.000527	5.269806	1.785459	-0.000211
1007	1.0010e+02	-0.0882	10.872007	0.000740	7.397997	2.506509	-0.000296
1008	1.0020e+02	-0.1299	10.662075	0.000527	5.269806	1.785459	-0.000211
1009	1.0030e+02	-0.1620	10.367365	0.000740	7.397997	2.506509	-0.000296
1010	1.0040e+02	-0.2053	10.149359	0.000547	5.472491	1.854130	-0.000219
1011	1.0050e+02	-0.2422	9.890983	0.000649	6.485915	2.197487	-0.000260
1012	1.0059e+02	-0.2888	9.636643	0.000638	6.384572	2.163152	-0.000256
1013	1.0069e+02	-0.3257	9.345969	0.000730	7.296654	2.472173	-0.000292
1014	1.0079e+02	-0.3738	9.140075	0.000517	5.168463	1.751123	-0.000207
1015	1.0089e+02	-0.4027	8.841327	0.000750	7.499339	2.540845	-0.000300
1016	1.0099e+02	-0.4460	8.582951	0.000649	6.485915	2.197487	-0.000260
1017	1.0109e+02	-0.4941	8.364945	0.000547	5.472491	1.854130	-0.000219
1018	1.0119e+02	-0.5326	8.106569	0.000649	6.485915	2.197487	-0.000260
1019	1.0129e+02	-0.5727	7.811858	0.000740	7.397997	2.506509	-0.000296
1020	1.0139e+02	-0.6048	7.597889	0.000537	5.371148	1.819794	-0.000215
1021	1.0149e+02	-0.6433	7.327401	0.000679	6.789942	2.300495	-0.000272
1022	1.0159e+02	-0.6866	7.060950	0.000669	6.688600	2.266159	-0.000268
1023	1.0169e+02	-0.7171	6.810648	0.000628	6.283230	2.128816	-0.000252
1024	1.0179e+02	-0.7668	6.588606	0.000557	5.573833	1.888466	-0.000223
1025	1.0189e+02	-0.8021	6.318117	0.000679	6.789942	2.300495	-0.000272
1026	1.0199e+02	-0.8615	6.055704	0.000659	6.587257	2.231823	-0.000264
1027	1.0209e+02	-0.8839	5.797327	0.000649	6.485915	2.197487	-0.000260
1028	1.0219e+02	-0.9305	5.534913	0.000659	6.587257	2.231823	-0.000264
1029	1.0229e+02	-0.9641	5.300759	0.000588	5.877860	1.991473	-0.000235
1030	1.0239e+02	-1.0059	5.090828	0.000527	5.269806	1.785459	-0.000211
1031	1.0248e+02	-1.0428	4.759783	0.000831	8.310078	2.815531	-0.000333
1032	1.0258e+02	-1.0829	4.501406	0.000649	6.485915	2.197487	-0.000260
1033	1.0268e+02	-1.1262	4.263215	0.000598	5.979203	2.025809	-0.000239
1034	1.0278e+02	-1.1679	4.016950	0.000618	6.181888	2.094480	-0.000248
1035	1.0288e+02	-1.2016	3.794908	0.000557	5.573833	1.888466	-0.000223
1036	1.0298e+02	-1.2417	3.536531	0.000649	6.485915	2.197487	-0.000260
1037	1.0308e+02	-1.2850	3.253931	0.000709	7.093969	2.403502	-0.000284
1038	1.0318e+02	-1.3219	2.991518	0.000659	6.587257	2.231823	-0.000264
1039	1.0328e+02	-1.3684	2.716992	0.000689	6.891285	2.334830	-0.000276
1040	1.0338e+02	-1.4037	2.503024	0.000537	5.371148	1.819794	-0.000215
1041	1.0348e+02	-1.4454	2.236573	0.000669	6.688600	2.266159	-0.000268
1042	1.0358e+02	-1.4807	1.958011	0.000699	6.992627	2.369166	-0.000280
1043	1.0368e+02	-1.5240	1.715783	0.000608	6.080545	2.060144	-0.000243
1044	1.0378e+02	-1.5625	1.445295	0.000679	6.789942	2.300495	-0.000272
1045	1.0388e+02	-1.5914	1.235364	0.000527	5.269806	1.785459	-0.000211
1046	1.0398e+02	-1.6508	0.981024	0.000638	6.384572	2.163152	-0.000256
1047	1.0408e+02	-1.6812	0.710536	0.000679	6.789942	2.300495	-0.000272
1048	1.0418e+02	-1.7213	0.472345	0.000598	5.979203	2.025809	-0.000239
1049	1.0428e+02	-1.7663	0.218005	0.000638	6.384572	2.163152	-0.000256
1050	1.0438e+02	-1.8080	-0.064594	0.000709	7.093969	2.403502	-0.000284
1051	1.0447e+02	-1.8385	-0.331045	0.000669	6.688600	2.266159	-0.000268
1052	1.0457e+02	-1.8850	-0.553088	0.000557	5.573833	1.888466	-0.000223
1053	1.0467e+02	-1.9219	-0.807427	0.000638	6.384572	2.163152	-0.000256
1054	1.0477e+02	-1.9604	-1.094064	0.000720	7.195312	2.437838	-0.000288
1055	1.0487e+02	-1.9957	-1.320143	0.000568	5.675175	1.922802	-0.000227
1056	1.0497e+02	-2.0406	-1.614854	0.000740	7.397997	2.506509	-0.000296
1057	1.0507e+02	-2.0871	-1.849008	0.000588	5.877860	1.991473	-0.000235
1058	1.0517e+02	-2.1256	-2.123533	0.000689	6.891285	2.334830	-0.000276
1059	1.0527e+02	-2.1609	-2.373836	0.000628	6.283230	2.128816	-0.000252
1060	1.0537e+02	-2.2074	-2.575693	0.000507	5.067121	1.716787	-0.000203
1061	1.0547e+02	-2.2347	-2.866366	0.000730	7.296654	2.472173	-0.000292
1062	1.0557e+02	-2.2812	-3.076297	0.000527	5.269806	1.785459	-0.000211
1063	1.0567e+02	-2.3197	-3.338711	0.000659	6.587257	2.231823	-0.000264
1064	1.0577e+02	-2.3646	-3.633422	0.000740	7.397997	2.506509	-0.000296
1065	1.0587e+02	-2.3919	-3.875650	0.000608	6.080545	2.060144	-0.000243
1066	1.0597e+02	-2.4465	-4.142101	0.000669	6.688600	2.266159	-0.000268
1067	1.0607e+02	-2.4817	-4.376255	0.000588	5.877860	1.991473	-0.000235
1068	1.0617e+02	-2.5379	-4.614446	0.000598	5.979203	2.025809	-0.000239
1069	1.0627e+02	-2.5620	-4.888971	0.000689	6.891285	2.334830	-0.000276
1070	1.0637e+02	-2.6037	-5.123125	0.000588	5.877860	1.991473	-0.000235
1071	1.0647e+02	-2.6374	-5.397650	0.000689	6.891285	2.334830	-0.000276
1072	1.0656e+02	-2.6887	-5.635841	0.000598	5.979203	2.025809	-0.000239
1073	1.0666e+02	-2.7160	-5.882107	0.000618	6.181888	2.094480	-0.000248
1074	1.0676e+02	-2.7641	-6.140483	0.000649	6.485915	2.197487	-0.000260
1075	1.0686e+02	-2.7994	-6.451343	0.000780	7.803366	2.643852	-0.000312
1076	1.0696e+02	-2.8363	-6.641088	0.000476	4.763094	1.613780	-0.000191
1077	1.0706e+02	-2.8780	-6.879279	0.000598	5.979203	2.025809	-0.000239
1078	1.0716e+02	-2.9069	-7.133619	0.000638	6.384572	2.163152	-0.000256
1079	1.0726e+02	-2.9678	-7.428330	0.000740	7.397997	2.506509	-0.000296
1080	1.0736e+02	-3.0079	-7.630187	0.000507	5.067121	1.716787	-0.000203
1081	1.0746e+02	-3.0480	-7.945083	0.000790	7.904709	2.678188	-0.000316
1082	1.0756e+02	-3.0801	-8.187311	0.000608	6.080545	2.060144	-0.000243
1083	1.0766e+02	-3.1202	-8.445688	0.000649	6.485915	2.197487	-0.000260
1084	1.0776e+02	-3.1635	-8.716176	0.000679	6.789942	2.300495	-0.000272
1085	1.0786e+02	-3.2037	-8.974553	0.000649	6.485915	2.197487	-0.000260
1086	1.0796e+02	-3.2245	-9.188521	0.000537	5.371148	1.819794	-0.000215
1087	1.0806e+02	-3.2807	-9.459009	0.000679	6.789942	2.300495	-0.000272
1088	1.0816e+02	-3.3176	-9.644717	0.000466	4.661751	1.579444	-0.000187
1089	1.0826e+02	-3.3577	-9.927317	0.000709	7.093969	2.403502	-0.000284
1090	1.0836e+02	-3.4026	-10.149359	0.000557	5.573833	1.888466	-0.000223
1091	1.0845e+02	-3.4411	-10.407736	0.000649	6.485915	2.197487	-0.000260
1092	1.0855e+02	-3.4796	-10.645927	0.000598	5.979203	2.025809	-0.000239
1093	1.0865e+02	-3.5165	-10.896229	0.000628	6.283230	2.128816	-0.000252
1094	1.0875e+02	-3.5534	-11.166717	0.000679	6.789942	2.300495	-0.000272
1095	1.0885e+02	-3.5967	-11.425094	0.000649	6.485915	2.197487	-0.000260
1096	1.0895e+02	-3.6400	-11.626951	0.000507	5.067121	1.716787	-0.000203
1097	1.0905e+02	-3.6753	-11.889365	0.000659	6.587257	2.231823	-0.000264
1098	1.0915e+02	-3.7090	-12.103333	0.000537	5.371148	1.819794	-0.000215
1099	1.0925e+02	-3.7507	-12.398044	0.000740	7.397997	2.506509	-0.000296
1100	1.0935e+02	-3.8020	-12.603938	0.000517	5.168463	1.751123	-0.000207
1101	1.0945e+02	-3.8389	-12.862314	0.000649	6.485915	2.197487	-0.000260
1102	1.0955e+02	-3.8678	-13.124728	0.000659	6.587257	2.231823	-0.000264
1103	1.0965e+02	-3.9143	-13.366956	0.000608	6.080545	2.060144	-0.000243
1104	1.0975e+02	-3.9576	-13.629370	0.000659	6.587257	2.231823	-0.000264
1105	1.0985e+02	-3.9881	-13.851413	0.000557	5.573833	1.888466	-0.000223
1106	1.0995e+02	-4.0395	-14.089604	0.000598	5.979203	2.025809	-0.000239
1107	1.1005e+02	-4.0780	-14.372203	0.000709	7.093969	2.403502	-0.000284
1108	1.1015e+02	-4.1181	-14.598283	0.000568	5.675175	1.922802	-0.000227
1109	1.1025e+02	-4.1566	-14.844548	0.000618	6.181888	2.094480	-0.000248
1110	1.1035e+02	-4.2015	-15.074665	0.000578	5.776518	1.957137	-0.000231
1111	1.1044e+02	-4.2336	-15.365339	0.000730	7.296654	2.472173	-0.000292
1112	1.1054e+02	-4.2705	-15.551047	0.000466	4.661751	1.579444	-0.000187
1113	1.1064e+02	-4.3218	-15.861906	0.000780	7.803366	2.643852	-0.000312
1114	1.1074e+02	-4.3523	-16.071837	0.000527	5.269806	1.785459	-0.000211
1115	1.1084e+02	-4.3908	-16.330214	0.000649	6.485915	2.197487	-0.000260
1116	1.1094e+02	-4.4421	-16.560331	0.000578	5.776518	1.957137	-0.000231
1117	1.1104e+02	-4.4726	-16.834856	0.000689	6.891285	2.334830	-0.000276
1118	1.1114e+02	-4.5031	-17.044787	0.000527	5.269806	1.785459	-0.000211
1119	1.1124e+02	-4.5480	-17.315275	0.000679	6.789942	2.300495	-0.000272
1120	1.1134e+02	-4.5977	-17.565578	0.000628	6.283230	2.128816	-0.000252
1121	1.1144e+02	-4.6362	-17.767434	0.000507	5.067121	1.716787	-0.000203
1122	1.1154e+02	-4.6683	-18.070220	0.000760	7.600681	2.575181	-0.000304
1123	1.1164e+02	-4.7116	-18.276113	0.000517	5.168463	1.751123	-0.000207
1124	1.1174e+02	-4.7533	-18.542564	0.000669	6.688600	2.266159	-0.000268
1125	1.1184e+02	-4.7934	-18.776718	0.000588	5.877860	1.991473	-0.000235
1126	1.1194e+02	-4.8287	-19.043169	0.000669	6.688600	2.266159	-0.000268
1127	1.1204e+02	-4.8672	-19.240989	0.000497	4.965779	1.682451	-0.000199
1128	1.1214e+02	-4.9073	-19.507440	0.000669	6.688600	2.266159	-0.000268
1129	1.1224e+02	-4.9491	-19.753705	0.000618	6.181888	2.094480	-0.000248
1130	1.1234e+02	-4.9924	-20.012082	0.000649	6.485915	2.197487	-0.000260
1131	1.1244e+02	-5.0357	-20.266421	0.000638	6.384572	2.163152	-0.000256
1132	1.1253e+02	-5.0742	-20.488464	0.000557	5.573833	1.888466	-0.000223
1133	1.1263e+02	-5.1079	-20.722618	0.000588	5.877860	1.991473	-0.000235
1134	1.1273e+02	-5.1528	-20.985032	0.000659	6.587257	2.231823	-0.000264
1135	1.1283e+02	-5.1913	-21.199000	0.000537	5.371148	1.819794	-0.000215
1136	1.1293e+02	-5.2218	-21.473525	0.000689	6.891285	2.334830	-0.000276
1137	1.1303e+02	-5.2731	-21.695567	0.000557	5.573833	1.888466	-0.000223
1138	1.1313e+02	-5.3100	-21.925684	0.000578	5.776518	1.957137	-0.000231
1139	1.1323e+02	-5.3597	-22.204247	0.000699	6.992627	2.369166	-0.000280
1140	1.1333e+02	-5.3822	-22.426289	0.000557	5.573833	1.888466	-0.000223
1141	1.1343e+02	-5.4319	-22.676591	0.000628	6.283230	2.128816	-0.000252
1142	1.1353e+02	-5.4704	-22.890560	0.000537	5.371148	1.819794	-0.000215
1143	1.1363e+02	-5.5089	-23.181233	0.000730	7.296654	2.472173	-0.000292
1144	1.1373e+02	-5.5522	-23.375016	0.000486	4.864436	1.648116	-0.000195
1145	1.1383e+02	-5.5924	-23.613207	0.000598	5.979203	2.025809	-0.000239
1146	1.1393e+02	-5.6293	-23.855435	0.000608	6.080545	2.060144	-0.000243
1147	1.1403e+02	-5.6645	-24.105737	0.000628	6.283230	2.128816	-0.000252
1148	1.1413e+02	-5.7111	-24.319706	0.000537	5.371148	1.819794	-0.000215
1149	1.1423e+02	-5.7576	-24.565971	0.000618	6.181888	2.094480	-0.000248
1150	1.1433e+02	-5.7929	-24.775902	0.000527	5.269806	1.785459	-0.000211
1151	1.1442e+02	-5.8330	-25.034279	0.000649	6.485915	2.197487	-0.000260
1152	1.1452e+02	-5.8683	-25.276507	0.000608	6.080545	2.060144	-0.000243
1153	1.1462e+02	-5.9164	-25.506624	0.000578	5.776518	1.957137	-0.000231
1154	1.1472e+02	-5.9469	-25.740777	0.000588	5.877860	1.991473	-0.000235
1155	1.1482e+02	-5.9918	-25.974931	0.000588	5.877860	1.991473	-0.000235
1156	1.1492e+02	-6.0319	-26.253494	0.000699	6.992627	2.369166	-0.000280
1157	1.1502e+02	-6.0833	-26.471499	0.000547	5.472491	1.854130	-0.000219
1158	1.1512e+02	-6.1073	-26.770247	0.000750	7.499339	2.540845	-0.000300
1159	1.1522e+02	-6.1442	-26.968067	0.000497	4.965779	1.682451	-0.000199
1160	1.1532e+02	-6.1955	-27.173961	0.000517	5.168463	1.751123	-0.000207
1161	1.1542e+02	-6.2340	-27.448486	0.000689	6.891285	2.334830	-0.000276
1162	1.1552e+02	-6.2629	-27.682640	0.000588	5.877860	1.991473	-0.000235
1163	1.1562e+02	-6.3094	-27.868348	0.000466	4.661751	1.579444	-0.000187
1164	1.1572e+02	-6.3463	-28.122688	0.000638	6.384572	2.163152	-0.000256
1165	1.1582e+02	-6.3832	-28.364916	0.000608	6.080545	2.060144	-0.000243
1166	1.1592e+02	-6.4346	-28.578884	0.000537	5.371148	1.819794	-0.000215
1167	1.1602e+02	-6.4699	-28.817075	0.000598	5.979203	2.025809	-0.000239
1168	1.1612e+02	-6.5004	-29.031043	0.000537	5.371148	1.819794	-0.000215
1169	1.1622e+02	-6.5453	-29.269234	0.000598	5.979203	2.025809	-0.000239
1170	1.1632e+02	-6.5822	-29.515499	0.000618	6.181888	2.094480	-0.000248
1171	1.1642e+02	-6.6207	-29.745616	0.000578	5.776518	1.957137	-0.000231
1172	1.1651e+02	-6.6624	-29.979770	0.000588	5.877860	1.991473	-0.000235
1173	1.1661e+02	-6.7025	-30.197775	0.000547	5.472491	1.854130	-0.000219
1174	1.1671e+02	-6.7458	-30.468263	0.000679	6.789942	2.300495	-0.000272
1175	1.1681e+02	-6.7843	-30.714529	0.000618	6.181888	2.094480	-0.000248
1176	1.1691e+02	-6.8276	-30.916385	0.000507	5.067121	1.716787	-0.000203
1177	1.1701e+02	-6.8469	-31.158614	0.000608	6.080545	2.060144	-0.000243
1178	1.1711e+02	-6.8966	-31.376619	0.000547	5.472491	1.854130	-0.000219
1179	1.1721e+02	-6.9431	-31.634996	0.000649	6.485915	2.197487	-0.000260
1180	1.1731e+02	-6.9832	-31.848964	0.000537	5.371148	1.819794	-0.000215
1181	1.1741e+02	-7.0314	-32.087155	0.000598	5.979203	2.025809	-0.000239
1182	1.1751e+02	-7.0699	-32.349569	0.000659	6.587257	2.231823	-0.000264
1183	1.1761e+02	-7.0971	-32.543351	0.000486	4.864436	1.648116	-0.000195
1184	1.1771e+02	-7.1372	-32.813839	0.000679	6.789942	2.300495	-0.000272
1185	1.1781e+02	-7.1838	-33.052030	0.000598	5.979203	2.025809	-0.000239
1186	1.1791e+02	-7.2174	-33.229664	0.000446	4.459066	1.510773	-0.000179
1187	1.1801e+02	-7.2559	-33.443632	0.000537	5.371148	1.819794	-0.000215
1188	1.1811e+02	-7.2993	-33.718158	0.000689	6.891285	2.334830	-0.000276
1189	1.1821e+02	-7.3362	-33.899829	0.000456	4.560409	1.545108	-0.000183
1190	1.1831e+02	-7.3779	-34.146094	0.000618	6.181888	2.094480	-0.000248
1191	1.1841e+02	-7.4212	-34.404471	0.000649	6.485915	2.197487	-0.000260
1192	1.1850e+02	-7.4565	-34.638625	0.000588	5.877860	1.991473	-0.000235
1193	1.1860e+02	-7.4966	-34.828370	0.000476	4.763094	1.613780	-0.000191
1194	1.1870e+02	-7.5479	-35.054450	0.000568	5.675175	1.922802	-0.000227
1195	1.1880e+02	-7.5688	-35.260344	0.000517	5.168463	1.751123	-0.000207
1196	1.1890e+02	-7.6201	-35.510646	0.000628	6.283230	2.128816	-0.000252
1197	1.1900e+02	-7.6570	-35.736726	0.000568	5.675175	1.922802	-0.000227
1198	1.1910e+02	-7.7083	-35.954731	0.000547	5.472491	1.854130	-0.000219
1199	1.1920e+02	-7.7388	-36.172736	0.000547	5.472491	1.854130	-0.000219
1200	1.1930e+02	-7.7821	-36.398816	0.000568	5.675175	1.922802	-0.000227
1201	1.1940e+02	-7.8126	-36.637007	0.000598	5.979203	2.025809	-0.000239
1202	1.1950e+02	-7.8607	-36.842901	0.000517	5.168463	1.751123	-0.000207
1203	1.1960e+02	-7.9073	-37.060906	0.000547	5.472491	1.854130	-0.000219
1204	1.1970e+02	-7.9345	-37.291023	0.000578	5.776518	1.957137	-0.000231
1205	1.1980e+02	-7.9698	-37.496917	0.000517	5.168463	1.751123	-0.000207
1206	1.1990e+02	-8.0164	-37.759331	0.000659	6.587257	2.231823	-0.000264
1207	1.2000e+02	-8.0613	-37.949076	0.000476	4.763094	1.613780	-0.000191
1208	1.2010e+02	-8.0966	-38.179193	0.000578	5.776518	1.957137	-0.000231
1209	1.2020e+02	-8.1351	-38.377012	0.000497	4.965779	1.682451	-0.000199
1210	1.2030e+02	-8.1655	-38.586943	0.000527	5.269806	1.785459	-0.000211
1211	1.2039e+02	-8.2137	-38.792837	0.000517	5.168463	1.751123	-0.000207
1212	1.2049e+02	-8.2570	-39.051214	0.000649	6.485915	2.197487	-0.000260
1213	1.2059e+02	-8.2843	-39.228848	0.000446	4.459066	1.510773	-0.000179
1214	1.2069e+02	-8.3292	-39.487225	0.000649	6.485915	2.197487	-0.000260
1215	1.2079e+02	-8.3773	-39.664859	0.000446	4.459066	1.510773	-0.000179
1216	1.2089e+02	-8.4110	-39.951495	0.000720	7.195312	2.437838	-0.000288
1217	1.2099e+02	-8.4575	-40.117018	0.000416	4.155039	1.407765	-0.000166
1218	1.2109e+02	-8.4992	-40.330986	0.000537	5.371148	1.819794	-0.000215
1219	1.2119e+02	-8.5361	-40.577251	0.000618	6.181888	2.094480	-0.000248
1220	1.2129e+02	-8.5714	-40.758922	0.000456	4.560409	1.545108	-0.000183
1221	1.2139e+02	-8.6147	-40.980965	0.000557	5.573833	1.888466	-0.000223
1222	1.2149e+02	-8.6548	-41.194933	0.000537	5.371148	1.819794	-0.000215
1223	1.2159e+02	-8.6901	-41.412938	0.000547	5.472491	1.854130	-0.000219
1224	1.2169e+02	-8.7270	-41.679389	0.000669	6.688600	2.266159	-0.000268
1225	1.2179e+02	-8.7719	-41.852986	0.000436	4.357724	1.476437	-0.000174
1226	1.2189e+02	-8.8153	-42.062917	0.000527	5.269806	1.785459	-0.000211
1227	1.2199e+02	-8.8522	-42.301108	0.000598	5.979203	2.025809	-0.000239
1228	1.2209e+02	-8.8955	-42.478742	0.000446	4.459066	1.510773	-0.000179
1229	1.2219e+02	-8.9340	-42.729045	0.000628	6.283230	2.128816	-0.000252
1230	1.2229e+02	-8.9789	-42.910716	0.000456	4.560409	1.545108	-0.000183
1231	1.2239e+02	-9.0078	-43.112573	0.000507	5.067121	1.716787	-0.000203
1232	1.2248e+02	-9.0575	-43.342689	0.000578	5.776518	1.957137	-0.000231
1233	1.2258e+02	-9.1008	-43.552620	0.000527	5.269806	1.785459	-0.000211
1234	1.2268e+02	-9.1409	-43.774663	0.000557	5.573833	1.888466	-0.000223
1235	1.2278e+02	-9.1698	-43.964408	0.000476	4.763094	1.613780	-0.000191
1236	1.2288e+02	-9.2195	-44.154154	0.000476	4.763094	1.613780	-0.000191
1237	1.2298e+02	-9.2532	-44.392345	0.000598	5.979203	2.025809	-0.000239
1238	1.2308e+02	-9.2901	-44.618424	0.000568	5.675175	1.922802	-0.000227
1239	1.2318e+02	-9.3398	-44.800095	0.000456	4.560409	1.545108	-0.000183
1240	1.2328e+02	-9.3735	-45.054435	0.000638	6.384572	2.163152	-0.000256
1241	1.2338e+02	-9.4168	-45.240143	0.000466	4.661751	1.579444	-0.000187
1242	1.2348e+02	-9.4489	-45.433926	0.000486	4.864436	1.648116	-0.000195
1243	1.2358e+02	-9.4858	-45.635782	0.000507	5.067121	1.716787	-0.000203
1244	1.2368e+02	-9.5259	-45.861862	0.000568	5.675175	1.922802	-0.000227
1245	1.2378e+02	-9.5709	-46.059682	0.000497	4.965779	1.682451	-0.000199
1246	1.2388e+02	-9.6094	-46.281724	0.000557	5.573833	1.888466	-0.000223
1247	1.2398e+02	-9.6430	-46.459358	0.000446	4.459066	1.510773	-0.000179
1248	1.2408e+02	-9.6864	-46.701586	0.000608	6.080545	2.060144	-0.000243
1249	1.2418e+02	-9.7345	-46.915554	0.000537	5.371148	1.819794	-0.000215
1250	1.2428e+02	-9.7698	-47.089151	0.000436	4.357724	1.476437	-0.000174
1251	1.2438e+02	-9.8051	-47.315231	0.000568	5.675175	1.922802	-0.000227
1252	1.2447e+02	-9.8500	-47.496902	0.000456	4.560409	1.545108	-0.000183
1253	1.2457e+02	-9.8821	-47.714907	0.000547	5.472491	1.854130	-0.000219
1254	1.2467e+02	-9.9206	-47.892541	0.000446	4.459066	1.510773	-0.000179
1255	1.2477e+02	-9.9655	-48.098435	0.000517	5.168463	1.751123	-0.000207
1256	1.2487e+02	-10.0104	-48.312403	0.000537	5.371148	1.819794	-0.000215
1257	1.2497e+02	-10.0521	-48.510223	0.000497	4.965779	1.682451	-0.000199
1258	1.2507e+02	-10.0874	-48.724191	0.000537	5.371148	1.819794	-0.000215
1259	1.2517e+02	-10.1259	-48.917974	0.000486	4.864436	1.648116	-0.000195
1260	1.2527e+02	-10.1676	-49.152128	0.000588	5.877860	1.991473	-0.000235
1261	1.2537e+02	-10.2045	-49.329762	0.000446	4.459066	1.510773	-0.000179
1262	1.2547e+02	-10.2478	-49.535656	0.000517	5.168463	1.751123	-0.000207
1263	1.2557e+02	-10.2863	-49.713289	0.000446	4.459066	1.510773	-0.000179
1264	1.2567e+02	-10.3264	-49.923221	0.000527	5.269806	1.785459	-0.000211
1265	1.2577e+02	-10.3698	-50.108929	0.000466	4.661751	1.579444	-0.000187
1266	1.2587e+02	-10.4115	-50.335008	0.000568	5.675175	1.922802	-0.000227
1267	1.2597e+02	-10.4403	-50.528791	0.000486	4.864436	1.648116	-0.000195
1268	1.2607e+02	-10.4901	-50.698351	0.000426	4.256382	1.442101	-0.000170
1269	1.2617e+02	-10.5222	-50.904245	0.000517	5.168463	1.751123	-0.000207
1270	1.2627e+02	-10.5671	-51.146473	0.000608	6.080545	2.060144	-0.000243
1271	1.2636e+02	-10.6072	-51.336218	0.000476	4.763094	1.613780	-0.000191
1272	1.2646e+02	-10.6505	-51.525963	0.000476	4.763094	1.613780	-0.000191
1273	1.2656e+02	-10.6858	-51.711672	0.000466	4.661751	1.579444	-0.000187
1274	1.2666e+02	-10.7211	-51.909491	0.000497	4.965779	1.682451	-0.000199
1275	1.2676e+02	-10.7724	-52.131534	0.000557	5.573833	1.888466	-0.000223
1276	1.2686e+02	-10.8125	-52.325316	0.000486	4.864436	1.648116	-0.000195
1277	1.2696e+02	-10.8446	-52.543322	0.000547	5.472491	1.854130	-0.000219
1278	1.2706e+02	-10.8815	-52.708844	0.000416	4.155039	1.407765	-0.000166
1279	1.2716e+02	-10.9361	-52.930887	0.000557	5.573833	1.888466	-0.000223
1280	1.2726e+02	-10.9649	-53.120632	0.000476	4.763094	1.613780	-0.000191
1281	1.2736e+02	-11.0066	-53.354786	0.000588	5.877860	1.991473	-0.000235
1282	1.2746e+02	-11.0500	-53.536457	0.000456	4.560409	1.545108	-0.000183
1283	1.2756e+02	-11.0836	-53.746388	0.000527	5.269806	1.785459	-0.000211
1284	1.2766e+02	-11.1366	-53.928059	0.000456	4.560409	1.545108	-0.000183
1285	1.2776e+02	-11.1639	-54.137990	0.000527	5.269806	1.785459	-0.000211
1286	1.2786e+02	-11.2120	-54.343884	0.000517	5.168463	1.751123	-0.000207
1287	1.2796e+02	-11.2441	-54.561889	0.000547	5.472491	1.854130	-0.000219
1288	1.2806e+02	-11.2890	-54.723375	0.000405	4.053697	1.373430	-0.000162
1289	1.2816e+02	-11.3195	-54.953492	0.000578	5.776518	1.957137	-0.000231
1290	1.2826e+02	-11.3660	-55.159386	0.000517	5.168463	1.751123	-0.000207
1291	1.2835e+02	-11.4077	-55.365280	0.000517	5.168463	1.751123	-0.000207
1292	1.2845e+02	-11.4382	-55.542913	0.000446	4.459066	1.510773	-0.000179
1293	1.2855e+02	-11.4751	-55.740733	0.000497	4.965779	1.682451	-0.000199
1294	1.2865e+02	-11.5280	-55.914330	0.000436	4.357724	1.476437	-0.000174
1295	1.2875e+02	-11.5633	-56.116187	0.000507	5.067121	1.716787	-0.000203
1296	1.2885e+02	-11.6066	-56.309969	0.000486	4.864436	1.648116	-0.000195
1297	1.2895e+02	-11.6435	-56.560272	0.000628	6.283230	2.128816	-0.000252
1298	1.2905e+02	-11.6916	-56.713683	0.000385	3.851012	1.304758	-0.000154
1299	1.2915e+02	-11.7302	-56.931688	0.000547	5.472491	1.854130	-0.000219
1300	1.2925e+02	-11.7622	-57.149694	0.000547	5.472491	1.854130	-0.000219
1301	1.2935e+02	-11.8007	-57.339439	0.000476	4.763094	1.613780	-0.000191
1302	1.2945e+02	-11.8505	-57.529184	0.000476	4.763094	1.613780	-0.000191
1303	1.2955e+02	-11.8858	-57.714893	0.000466	4.661751	1.579444	-0.000187
1304	1.2965e+02	-11.9243	-57.928861	0.000537	5.371148	1.819794	-0.000215
1305	1.2975e+02	-11.9563	-58.150903	0.000557	5.573833	1.888466	-0.000223
1306	1.2985e+02	-12.0029	-58.308351	0.000395	3.952354	1.339094	-0.000158
1307	1.2995e+02	-12.0382	-58.518283	0.000527	5.269806	1.785459	-0.000211
1308	1.3005e+02	-12.0863	-58.703991	0.000466	4.661751	1.579444	-0.000187
1309	1.3015e+02	-12.1280	-58.909885	0.000517	5.168463	1.751123	-0.000207
1310	1.3025e+02	-12.1633	-59.107704	0.000497	4.965779	1.682451	-0.000199
1311	1.3034e+02	-12.2050	-59.273227	0.000416	4.155039	1.407765	-0.000166
1312	1.3044e+02	-12.2451	-59.511418	0.000598	5.979203	2.025809	-0.000239
1313	1.3054e+02	-12.2772	-59.697126	0.000466	4.661751	1.579444	-0.000187
1314	1.3064e+02	-12.3221	-59.858612	0.000405	4.053697	1.373430	-0.000162
1315	1.3074e+02	-12.3606	-60.080654	0.000557	5.573833	1.888466	-0.000223
1316	1.3084e+02	-12.3991	-60.250214	0.000426	4.256382	1.442101	-0.000170
1317	1.3094e+02	-12.4360	-60.480330	0.000578	5.776518	1.957137	-0.000231
1318	1.3104e+02	-12.4841	-60.690262	0.000527	5.269806	1.785459	-0.000211
1319	1.3114e+02	-12.5210	-60.880007	0.000476	4.763094	1.613780	-0.000191
1320	1.3124e+02	-12.5531	-61.077827	0.000497	4.965779	1.682451	-0.000199
1321	1.3134e+02	-12.6012	-61.279683	0.000507	5.067121	1.716787	-0.000203
1322	1.3144e+02	-12.6462	-61.461354	0.000456	4.560409	1.545108	-0.000183
1323	1.3154e+02	-12.6734	-61.626877	0.000416	4.155039	1.407765	-0.000166
1324	1.3164e+02	-12.7119	-61.852957	0.000568	5.675175	1.922802	-0.000227
1325	1.3174e+02	-12.7633	-62.046739	0.000486	4.864436	1.648116	-0.000195
1326	1.3184e+02	-12.7954	-62.232447	0.000466	4.661751	1.579444	-0.000187
1327	1.3194e+02	-12.8355	-62.422193	0.000476	4.763094	1.613780	-0.000191
1328	1.3204e+02	-12.8740	-62.620012	0.000497	4.965779	1.682451	-0.000199
1329	1.3214e+02	-12.9141	-62.833981	0.000537	5.371148	1.819794	-0.000215
1330	1.3224e+02	-12.9558	-63.007577	0.000436	4.357724	1.476437	-0.000174
1331	1.3234e+02	-12.9911	-63.205397	0.000497	4.965779	1.682451	-0.000199
1332	1.3243e+02	-13.0296	-63.411291	0.000517	5.168463	1.751123	-0.000207
1333	1.3253e+02	-13.0793	-63.625259	0.000537	5.371148	1.819794	-0.000215
1334	1.3263e+02	-13.1082	-63.770596	0.000365	3.648327	1.236087	-0.000146
1335	1.3273e+02	-13.1531	-63.972453	0.000507	5.067121	1.716787	-0.000203
1336	1.3283e+02	-13.1900	-64.178347	0.000517	5.168463	1.751123	-0.000207
1337	1.3293e+02	-13.2445	-64.384241	0.000517	5.168463	1.751123	-0.000207
1338	1.3303e+02	-13.2879	-64.541689	0.000395	3.952354	1.339094	-0.000158
1339	1.3313e+02	-13.3119	-64.771806	0.000578	5.776518	1.957137	-0.000231
1340	1.3323e+02	-13.3536	-64.913106	0.000355	3.546985	1.201751	-0.000142
1341	1.3333e+02	-13.4002	-65.163408	0.000628	6.283230	2.128816	-0.000252
1342	1.3343e+02	-13.4354	-65.341042	0.000446	4.459066	1.510773	-0.000179
1343	1.3353e+02	-13.4788	-65.538862	0.000497	4.965779	1.682451	-0.000199
1344	1.3363e+02	-13.5141	-65.728607	0.000476	4.763094	1.613780	-0.000191
1345	1.3373e+02	-13.5542	-65.954687	0.000568	5.675175	1.922802	-0.000227
1346	1.3383e+02	-13.5846	-66.091949	0.000345	3.445642	1.167415	-0.000138
1347	1.3393e+02	-13.6296	-66.338214	0.000618	6.181888	2.094480	-0.000248
1348	1.3403e+02	-13.6745	-66.515848	0.000446	4.459066	1.510773	-0.000179
1349	1.3413e+02	-13.7146	-66.689445	0.000436	4.357724	1.476437	-0.000174
1350	1.3423e+02	-13.7499	-66.879191	0.000476	4.763094	1.613780	-0.000191
1351	1.3432e+02	-13.7964	-67.105270	0.000568	5.675175	1.922802	-0.000227
1352	1.3442e+02	-13.8381	-67.282904	0.000446	4.459066	1.510773	-0.000179
1353	1.3452e+02	-13.8702	-67.472650	0.000476	4.763094	1.613780	-0.000191
1354	1.3462e+02	-13.9135	-67.658358	0.000466	4.661751	1.579444	-0.000187
1355	1.3472e+02	-13.9536	-67.852140	0.000486	4.864436	1.648116	-0.000195
1356	1.3482e+02	-13.9953	-68.037849	0.000466	4.661751	1.579444	-0.000187
1357	1.3492e+02	-14.0322	-68.227594	0.000476	4.763094	1.613780	-0.000191
1358	1.3502e+02	-14.0643	-68.425414	0.000497	4.965779	1.682451	-0.000199
1359	1.3512e+02	-14.1092	-68.590936	0.000416	4.155039	1.407765	-0.000166
1360	1.3522e+02	-14.1509	-68.804904	0.000537	5.371148	1.819794	-0.000215
1361	1.3532e+02	-14.1959	-68.962353	0.000395	3.952354	1.339094	-0.000158
1362	1.3542e+02	-14.2311	-69.160172	0.000497	4.965779	1.682451	-0.000199
1363	1.3552e+02	-14.2777	-69.374141	0.000537	5.371148	1.819794	-0.000215
1364	1.3562e+02	-14.3178	-69.515440	0.000355	3.546985	1.201751	-0.000142
1365	1.3572e+02	-14.3450	-69.725371	0.000527	5.269806	1.785459	-0.000211
1366	1.3582e+02	-14.3884	-69.927228	0.000507	5.067121	1.716787	-0.000203
1367	1.3592e+02	-14.4317	-70.088714	0.000405	4.053697	1.373430	-0.000162
1368	1.3602e+02	-14.4654	-70.334979	0.000618	6.181888	2.094480	-0.000248
1369	1.3612e+02	-14.5119	-70.492427	0.000395	3.952354	1.339094	-0.000158
1370	1.3622e+02	-14.5520	-70.633727	0.000355	3.546985	1.201751	-0.000142
1371	1.3631e+02	-14.5921	-70.811361	0.000446	4.459066	1.510773	-0.000179
1372	1.3641e+02	-14.6290	-71.033403	0.000557	5.573833	1.888466	-0.000223
1373	1.3651e+02	-14.6707	-71.174703	0.000355	3.546985	1.201751	-0.000142
1374	1.3661e+02	-14.7108	-71.380597	0.000517	5.168463	1.751123	-0.000207
1375	1.3671e+02	-14.7541	-71.586491	0.000517	5.168463	1.751123	-0.000207
1376	1.3681e+02	-14.7990	-71.735865	0.000375	3.749670	1.270422	-0.000150
1377	1.3691e+02	-14.8311	-71.957907	0.000557	5.573833	1.888466	-0.000223
1378	1.3701e+02	-14.8712	-72.115356	0.000395	3.952354	1.339094	-0.000158
1379	1.3711e+02	-14.9081	-72.309138	0.000486	4.864436	1.648116	-0.000195
1380	1.3721e+02	-14.9563	-72.482735	0.000436	4.357724	1.476437	-0.000174
1381	1.3731e+02	-14.9835	-72.636146	0.000385	3.851012	1.304758	-0.000154
1382	1.3741e+02	-15.0349	-72.833966	0.000497	4.965779	1.682451	-0.000199
1383	1.3751e+02	-15.0686	-73.039860	0.000517	5.168463	1.751123	-0.000207
1384	1.3761e+02	-15.1215	-73.185197	0.000365	3.648327	1.236087	-0.000146
1385	1.3771e+02	-15.1456	-73.419351	0.000588	5.877860	1.991473	-0.000235
1386	1.3781e+02	-15.1921	-73.564687	0.000365	3.648327	1.236087	-0.000146
1387	1.3791e+02	-15.2226	-73.758470	0.000486	4.864436	1.648116	-0.000195
1388	1.3801e+02	-15.2739	-73.923992	0.000416	4.155039	1.407765	-0.000166
1389	1.3811e+02	-15.3060	-74.113738	0.000476	4.763094	1.613780	-0.000191
1390	1.3821e+02	-15.3429	-74.283298	0.000426	4.256382	1.442101	-0.000170
1391	1.3831e+02	-15.3958	-74.464969	0.000456	4.560409	1.545108	-0.000183
1392	1.3840e+02	-15.4215	-74.630491	0.000416	4.155039	1.407765	-0.000166
1393	1.3850e+02	-15.4792	-74.791977	0.000405	4.053697	1.373430	-0.000162
1394	1.3860e+02	-15.5081	-74.973648	0.000456	4.560409	1.545108	-0.000183
1395	1.3870e+02	-15.5482	-75.171467	0.000497	4.965779	1.682451	-0.000199
1396	1.3880e+02	-15.5964	-75.365250	0.000486	4.864436	1.648116	-0.000195
1397	1.3890e+02	-15.6252	-75.526735	0.000405	4.053697	1.373430	-0.000162
1398	1.3900e+02	-15.6653	-75.720518	0.000486	4.864436	1.648116	-0.000195
1399	1.3910e+02	-15.7151	-75.898152	0.000446	4.459066	1.510773	-0.000179
1400	1.3920e+02	-15.7471	-76.051563	0.000385	3.851012	1.304758	-0.000154
1401	1.3930e+02	-15.7840	-76.269568	0.000547	5.472491	1.854130	-0.000219
1402	1.3940e+02	-15.8354	-76.427017	0.000395	3.952354	1.339094	-0.000158
1403	1.3950e+02	-15.8803	-76.584465	0.000395	3.952354	1.339094	-0.000158
1404	1.3960e+02	-15.9108	-76.774210	0.000476	4.763094	1.613780	-0.000191
1405	1.3970e+02	-15.9509	-76.947807	0.000436	4.357724	1.476437	-0.000174
1406	1.3980e+02	-15.9862	-77.149664	0.000507	5.067121	1.716787	-0.000203
1407	1.3990e+02	-16.0295	-77.282889	0.000334	3.344300	1.133079	-0.000134
1408	1.4000e+02	-16.0760	-77.484746	0.000507	5.067121	1.716787	-0.000203
1409	1.4010e+02	-16.0985	-77.666417	0.000456	4.560409	1.545108	-0.000183
1410	1.4020e+02	-16.1530	-77.848088	0.000456	4.560409	1.545108	-0.000183
1411	1.4029e+02	-16.1867	-78.001500	0.000385	3.851012	1.304758	-0.000154
1412	1.4039e+02	-16.2220	-78.195282	0.000486	4.864436	1.648116	-0.000195
1413	1.4049e+02	-16.2733	-78.380990	0.000466	4.661751	1.579444	-0.000187
1414	1.4059e+02	-16.3022	-78.506142	0.000314	3.141615	1.064408	-0.000126
1415	1.4069e+02	-16.3423	-78.720110	0.000537	5.371148	1.819794	-0.000215
1416	1.4079e+02	-16.3808	-78.889669	0.000426	4.256382	1.442101	-0.000170
1417	1.4089e+02	-16.4273	-79.051155	0.000405	4.053697	1.373430	-0.000162
1418	1.4099e+02	-16.4723	-79.228789	0.000446	4.459066	1.510773	-0.000179
1419	1.4109e+02	-16.5124	-79.398349	0.000426	4.256382	1.442101	-0.000170
1420	1.4119e+02	-16.5380	-79.588094	0.000476	4.763094	1.613780	-0.000191
1421	1.4129e+02	-16.5846	-79.745542	0.000395	3.952354	1.339094	-0.000158
1422	1.4139e+02	-16.6231	-79.915102	0.000426	4.256382	1.442101	-0.000170
1423	1.4149e+02	-16.6632	-80.116959	0.000507	5.067121	1.716787	-0.000203
1424	1.4159e+02	-16.7081	-80.250184	0.000334	3.344300	1.133079	-0.000134
1425	1.4169e+02	-16.7466	-80.415707	0.000416	4.155039	1.407765	-0.000166
1426	1.4179e+02	-16.7835	-80.609489	0.000486	4.864436	1.648116	-0.000195
1427	1.4189e+02	-16.8252	-80.791160	0.000456	4.560409	1.545108	-0.000183
1428	1.4199e+02	-16.8653	-80.936497	0.000365	3.648327	1.236087	-0.000146
1429	1.4209e+02	-16.9038	-81.114131	0.000446	4.459066	1.510773	-0.000179
1430	1.4219e+02	-16.9423	-81.267542	0.000385	3.851012	1.304758	-0.000154
1431	1.4228e+02	-16.9872	-81.453251	0.000466	4.661751	1.579444	-0.000187
1432	1.4238e+02	-17.0193	-81.594550	0.000355	3.546985	1.201751	-0.000142
1433	1.4248e+02	-17.0674	-81.772184	0.000446	4.459066	1.510773	-0.000179
1434	1.4258e+02	-17.1043	-81.994227	0.000557	5.573833	1.888466	-0.000223
1435	1.4268e+02	-17.1444	-82.115341	0.000304	3.040273	1.030072	-0.000122
1436	1.4278e+02	-17.1797	-82.280863	0.000416	4.155039	1.407765	-0.000166
1437	1.4288e+02	-17.2263	-82.454460	0.000436	4.357724	1.476437	-0.000174
1438	1.4298e+02	-17.2664	-82.615946	0.000405	4.053697	1.373430	-0.000162
1439	1.4308e+02	-17.3097	-82.773394	0.000395	3.952354	1.339094	-0.000158
1440	1.4318e+02	-17.3369	-82.979288	0.000517	5.168463	1.751123	-0.000207
1441	1.4328e+02	-17.3883	-83.140773	0.000405	4.053697	1.373430	-0.000162
1442	1.4338e+02	-17.4220	-83.322444	0.000456	4.560409	1.545108	-0.000183
1443	1.4348e+02	-17.4717	-83.447596	0.000314	3.141615	1.064408	-0.000126
1444	1.4358e+02	-17.5006	-83.657527	0.000527	5.269806	1.785459	-0.000211
1445	1.4368e+02	-17.5423	-83.810938	0.000385	3.851012	1.304758	-0.000154
1446	1.4378e+02	-17.5808	-83.972423	0.000405	4.053697	1.373430	-0.000162
1447	1.4388e+02	-17.6161	-84.178317	0.000517	5.168463	1.751123	-0.000207
1448	1.4398e+02	-17.6610	-84.315580	0.000345	3.445642	1.167415	-0.000138
1449	1.4408e+02	-17.6947	-84.513400	0.000497	4.965779	1.682451	-0.000199
1450	1.4418e+02	-17.7428	-84.686996	0.000436	4.357724	1.476437	-0.000174
1451	1.4428e+02	-17.7813	-84.848482	0.000405	4.053697	1.373430	-0.000162
1452	1.4437e+02	-17.8262	-85.005930	0.000395	3.952354	1.339094	-0.000158
1453	1.4447e+02	-17.8583	-85.163378	0.000395	3.952354	1.339094	-0.000158
1454	1.4457e+02	-17.9032	-85.328901	0.000416	4.155039	1.407765	-0.000166
1455	1.4467e+02	-17.9337	-85.534795	0.000517	5.168463	1.751123	-0.000207
1456	1.4477e+02	-17.9802	-85.704355	0.000426	4.256382	1.442101	-0.000170
1457	1.4487e+02	-18.0187	-85.857766	0.000385	3.851012	1.304758	-0.000154
1458	1.4497e+02	-18.0621	-86.039437	0.000456	4.560409	1.545108	-0.000183
1459	1.4507e+02	-18.0909	-86.237257	0.000497	4.965779	1.682451	-0.000199
1460	1.4517e+02	-18.1359	-86.431039	0.000486	4.864436	1.648116	-0.000195
1461	1.4527e+02	-18.1808	-86.560227	0.000324	3.242957	1.098744	-0.000130
1462	1.4537e+02	-18.2225	-86.713639	0.000385	3.851012	1.304758	-0.000154
1463	1.4547e+02	-18.2658	-86.939718	0.000568	5.675175	1.922802	-0.000227
1464	1.4557e+02	-18.3059	-87.097166	0.000395	3.952354	1.339094	-0.000158
1465	1.4567e+02	-18.3396	-87.254615	0.000395	3.952354	1.339094	-0.000158
1466	1.4577e+02	-18.3925	-87.416100	0.000405	4.053697	1.373430	-0.000162
1467	1.4587e+02	-18.4198	-87.589697	0.000436	4.357724	1.476437	-0.000174
1468	1.4597e+02	-18.4615	-87.783479	0.000486	4.864436	1.648116	-0.000195
1469	1.4607e+02	-18.5016	-87.896519	0.000284	2.837588	0.961401	-0.000114
1470	1.4617e+02	-18.5401	-88.078190	0.000456	4.560409	1.545108	-0.000183
1471	1.4626e+02	-18.5786	-88.243713	0.000416	4.155039	1.407765	-0.000166
1472	1.4636e+02	-18.6059	-88.437495	0.000486	4.864436	1.648116	-0.000195
1473	1.4646e+02	-18.6588	-88.639352	0.000507	5.067121	1.716787	-0.000203
1474	1.4656e+02	-18.6877	-88.756429	0.000294	2.938930	0.995736	-0.000118
1475	1.4666e+02	-18.7374	-88.958286	0.000507	5.067121	1.716787	-0.000203
1476	1.4676e+02	-18.7840	-89.127846	0.000426	4.256382	1.442101	-0.000170
1477	1.4686e+02	-18.8209	-89.289331	0.000405	4.053697	1.373430	-0.000162
1478	1.4696e+02	-18.8545	-89.466965	0.000446	4.459066	1.510773	-0.000179
1479	1.4706e+02	-18.8850	-89.632488	0.000416	4.155039	1.407765	-0.000166
1480	1.4716e+02	-18.9332	-89.793973	0.000405	4.053697	1.373430	-0.000162
1481	1.4726e+02	-18.9701	-89.931236	0.000345	3.445642	1.167415	-0.000138
1482	1.4736e+02	-19.0198	-90.137130	0.000517	5.168463	1.751123	-0.000207
1483	1.4746e+02	-19.0551	-90.290541	0.000385	3.851012	1.304758	-0.000154
1484	1.4756e+02	-19.0904	-90.484323	0.000486	4.864436	1.648116	-0.000195
1485	1.4766e+02	-19.1353	-90.653883	0.000426	4.256382	1.442101	-0.000170
1486	1.4776e+02	-19.1770	-90.803257	0.000375	3.749670	1.270422	-0.000150
1487	1.4786e+02	-19.2187	-91.005114	0.000507	5.067121	1.716787	-0.000203
1488	1.4796e+02	-19.2492	-91.146414	0.000355	3.546985	1.201751	-0.000142
1489	1.4806e+02	-19.2941	-91.344233	0.000497	4.965779	1.682451	-0.000199
1490	1.4816e+02	-19.3246	-91.493607	0.000375	3.749670	1.270422	-0.000150
1491	1.4825e+02	-19.3807	-91.659130	0.000416	4.155039	1.407765	-0.000166
1492	1.4835e+02	-19.4257	-91.836764	0.000446	4.459066	1.510773	-0.000179
1493	1.4845e+02	-19.4513	-92.014398	0.000446	4.459066	1.510773	-0.000179
1494	1.4855e+02	-19.4834	-92.139549	0.000314	3.141615	1.064408	-0.000126
1495	1.4865e+02	-19.5283	-92.349480	0.000527	5.269806	1.785459	-0.000211
1496	1.4875e+02	-19.5604	-92.482705	0.000334	3.344300	1.133079	-0.000134
1497	1.4885e+02	-19.6134	-92.636117	0.000385	3.851012	1.304758	-0.000154
1498	1.4895e+02	-19.6406	-92.837973	0.000507	5.067121	1.716787	-0.000203
1499	1.4905e+02	-19.6952	-92.975236	0.000345	3.445642	1.167415	-0.000138
1500	1.4915e+02	-19.7321	-93.116536	0.000355	3.546985	1.201751	-0.000142
1501	1.4925e+02	-19.7802	-93.334541	0.000547	5.472491	1.854130	-0.000219
1502	1.4935e+02	-19.8155	-93.516212	0.000456	4.560409	1.545108	-0.000183
1503	1.4945e+02	-19.8556	-93.697883	0.000456	4.560409	1.545108	-0.000183
1504	1.4955e+02	-19.8829	-93.851295	0.000385	3.851012	1.304758	-0.000154
1505	1.4965e+02	-19.9390	-94.065263	0.000537	5.371148	1.819794	-0.000215
1506	1.4975e+02	-19.9695	-94.178302	0.000284	2.837588	0.961401	-0.000114
1507	1.4985e+02	-20.0096	-94.396308	0.000547	5.472491	1.854130	-0.000219
1508	1.4995e+02	-19.9679	-94.392271	0.000010	0.101342	0.034336	0.000004
1509	1.5005e+02	-19.9246	-94.432642	-0.000101	-1.013424	-0.343357	-0.000041
1510	1.5015e+02	-19.8845	-94.392271	0.000101	1.013424	0.343357	0.000041
1511	1.5025e+02	-19.8620	-94.347862	0.000111	1.114767	0.377693	0.000045
1512	1.5034e+02	-19.8123	-94.384196	-0.000091	-0.912082	-0.309022	-0.000037
1513	1.5044e+02	-19.7641	-94.339788	0.000111	1.114767	0.377693	0.000045
1514	1.5054e+02	-19.7224	-94.299417	0.000101	1.013424	0.343357	0.000041
1515	1.5064e+02	-19.6871	-94.275194	0.000061	0.608055	0.206014	0.000024
1516	1.5074e+02	-19.6583	-94.267119	0.000020	0.202685	0.068671	0.000008
1517	1.5084e+02	-19.6069	-94.263082	0.000010	0.101342	0.034336	0.000004
1518	1.5094e+02	-19.5781	-94.178302	0.000213	2.128191	0.721051	0.000085
1519	1.5104e+02	-19.5283	-94.186377	-0.000020	-0.202685	-0.068671	-0.000008
1520	1.5114e+02	-19.4978	-94.101597	0.000213	2.128191	0.721051	0.000085
1521	1.5124e+02	-19.4561	-94.117745	-0.000041	-0.405370	-0.137343	-0.000016
1522	1.5134e+02	-19.4144	-94.049114	0.000172	1.722821	0.583708	0.000069
1523	1.5144e+02	-19.3807	-94.004706	0.000111	1.114767	0.377693	0.000045
1524	1.5154e+02	-19.3310	-93.980483	0.000061	0.608055	0.206014	0.000024
1525	1.5164e+02	-19.2861	-93.899740	0.000203	2.026848	0.686715	0.000081
1526	1.5174e+02	-19.2556	-93.903777	-0.000010	-0.101342	-0.034336	-0.000004
1527	1.5184e+02	-19.2267	-93.814960	0.000223	2.229533	0.755386	0.000089
1528	1.5194e+02	-19.1754	-93.774589	0.000101	1.013424	0.343357	0.000041
1529	1.5204e+02	-19.1385	-93.746329	0.000071	0.709397	0.240350	0.000028
1530	1.5214e+02	-19.0888	-93.641363	0.000263	2.634903	0.892729	0.000105
1531	1.5224e+02	-19.0487	-93.580806	0.000152	1.520136	0.515036	0.000061
1532	1.5233e+02	-19.0118	-93.556584	0.000061	0.608055	0.206014	0.000024
1533	1.5243e+02	-18.9829	-93.512175	0.000111	1.114767	0.377693	0.000045
1534	1.5253e+02	-18.9380	-93.431432	0.000203	2.026848	0.686715	0.000081
1535	1.5263e+02	-18.8995	-93.318393	0.000284	2.837588	0.961401	0.000114
1536	1.5273e+02	-18.8562	-93.290133	0.000071	0.709397	0.240350	0.000028
1537	1.5283e+02	-18.8177	-93.189204	0.000253	2.533560	0.858394	0.000101
1538	1.5293e+02	-18.7743	-93.185167	0.000010	0.101342	0.034336	0.000004
1539	1.5303e+02	-18.7342	-93.120573	0.000162	1.621479	0.549372	0.000065
1540	1.5313e+02	-18.6973	-93.088276	0.000081	0.810739	0.274686	0.000032
1541	1.5323e+02	-18.6524	-92.987347	0.000253	2.533560	0.858394	0.000101
1542	1.5333e+02	-18.6123	-92.866233	0.000304	3.040273	1.030072	0.000122
1543	1.5343e+02	-18.5834	-92.870271	-0.000010	-0.101342	-0.034336	-0.000004
1544	1.5353e+02	-18.5401	-92.757231	0.000284	2.837588	0.961401	0.000114
1545	1.5363e+02	-18.5016	-92.712822	0.000111	1.114767	0.377693	0.000045
1546	1.5373e+02	-18.4599	-92.672451	0.000101	1.013424	0.343357	0.000041
1547	1.5383e+02	-18.4198	-92.535188	0.000345	3.445642	1.167415	0.000138
1548	1.5393e+02	-18.3845	-92.434260	0.000253	2.533560	0.858394	0.000101
1549	1.5403e+02	-18.3252	-92.418111	0.000041	0.405370	0.137343	0.000016
1550	1.5413e+02	-18.3011	-92.292960	0.000314	3.141615	1.064408	0.000126
1551	1.5422e+02	-18.2546	-92.244514	0.000122	1.216109	0.412029	0.000049
1552	1.5432e+02	-18.2177	-92.175883	0.000172	1.722821	0.583708	0.000069
1553	1.5442e+02	-18.1744	-92.091103	0.000213	2.128191	0.721051	0.000085
1554	1.5452e+02	-18.1294	-92.022472	0.000172	1.722821	0.583708	0.000069
1555	1.5462e+02	-18.1006	-91.925581	0.000243	2.432218	0.824058	0.000097
1556	1.5472e+02	-18.0653	-91.848875	0.000193	1.925506	0.652379	0.000077
1557	1.5482e+02	-18.0203	-91.772170	0.000193	1.925506	0.652379	0.000077
1558	1.5492e+02	-17.9754	-91.683353	0.000223	2.229533	0.755386	0.000089
1559	1.5502e+02	-17.9401	-91.602610	0.000203	2.026848	0.686715	0.000081
1560	1.5512e+02	-17.9032	-91.533979	0.000172	1.722821	0.583708	0.000069
1561	1.5522e+02	-17.8551	-91.437087	0.000243	2.432218	0.824058	0.000097
1562	1.5532e+02	-17.8230	-91.360382	0.000193	1.925506	0.652379	0.000077
1563	1.5542e+02	-17.7781	-91.243305	0.000294	2.938930	0.995736	0.000118
1564	1.5552e+02	-17.7444	-91.178711	0.000162	1.621479	0.549372	0.000065
1565	1.5562e+02	-17.7075	-91.102005	0.000193	1.925506	0.652379	0.000077
1566	1.5572e+02	-17.6610	-90.993002	0.000274	2.736245	0.927065	0.000110
1567	1.5582e+02	-17.6177	-90.940520	0.000132	1.317451	0.446365	0.000053
1568	1.5592e+02	-17.5712	-90.847666	0.000233	2.330876	0.789722	0.000093
1569	1.5602e+02	-17.5359	-90.795183	0.000132	1.317451	0.446365	0.000053
1570	1.5612e+02	-17.4958	-90.637734	0.000395	3.952354	1.339094	0.000158
1571	1.5622e+02	-17.4573	-90.581215	0.000142	1.418794	0.480700	0.000057
1572	1.5631e+02	-17.4172	-90.480286	0.000253	2.533560	0.858394	0.000101
1573	1.5641e+02	-17.3851	-90.363209	0.000294	2.938930	0.995736	0.000118
1574	1.5651e+02	-17.3418	-90.310726	0.000132	1.317451	0.446365	0.000053
1575	1.5661e+02	-17.3033	-90.229984	0.000203	2.026848	0.686715	0.000081
1576	1.5671e+02	-17.2551	-90.129055	0.000253	2.533560	0.858394	0.000101
1577	1.5681e+02	-17.2198	-90.011978	0.000294	2.938930	0.995736	0.000118
1578	1.5691e+02	-17.1829	-89.955459	0.000142	1.418794	0.480700	0.000057
1579	1.5701e+02	-17.1476	-89.822233	0.000334	3.344300	1.133079	0.000134
1580	1.5711e+02	-17.1011	-89.749565	0.000182	1.824164	0.618043	0.000073
1581	1.5721e+02	-17.0610	-89.620376	0.000324	3.242957	1.098744	0.000130
1582	1.5731e+02	-17.0209	-89.543671	0.000193	1.925506	0.652379	0.000077
1583	1.5741e+02	-16.9696	-89.410445	0.000334	3.344300	1.133079	0.000134
1584	1.5751e+02	-16.9503	-89.366037	0.000111	1.114767	0.377693	0.000045
1585	1.5761e+02	-16.8974	-89.273183	0.000233	2.330876	0.789722	0.000093
1586	1.5771e+02	-16.8573	-89.172254	0.000253	2.533560	0.858394	0.000101
1587	1.5781e+02	-16.8220	-89.051140	0.000304	3.040273	1.030072	0.000122
1588	1.5791e+02	-16.7851	-88.982509	0.000172	1.722821	0.583708	0.000069
1589	1.5801e+02	-16.7482	-88.881580	0.000253	2.533560	0.858394	0.000101
1590	1.5811e+02	-16.7049	-88.768541	0.000284	2.837588	0.961401	0.000114
1591	1.5821e+02	-16.6616	-88.639352	0.000324	3.242957	1.098744	0.000130
1592	1.5830e+02	-16.6295	-88.562647	0.000193	1.925506	0.652379	0.000077
1593	1.5840e+02	-16.5830	-88.449607	0.000284	2.837588	0.961401	0.000114
1594	1.5850e+02	-16.5428	-88.360790	0.000223	2.229533	0.755386	0.000089
1595	1.5860e+02	-16.5188	-88.223527	0.000345	3.445642	1.167415	0.000138
1596	1.5870e+02	-16.4578	-88.150859	0.000182	1.824164	0.618043	0.000073
1597	1.5880e+02	-16.4241	-88.070116	0.000203	2.026848	0.686715	0.000081
1598	1.5890e+02	-16.3840	-87.944965	0.000314	3.141615	1.064408	0.000126
1599	1.5900e+02	-16.3455	-87.815777	0.000324	3.242957	1.098744	0.000130
1600	1.5910e+02	-16.3086	-87.718885	0.000243	2.432218	0.824058	0.000097
1601	1.5920e+02	-16.2653	-87.585660	0.000334	3.344300	1.133079	0.000134
1602	1.5930e+02	-16.2236	-87.500880	0.000213	2.128191	0.721051	0.000085
1603	1.5940e+02	-16.1915	-87.383803	0.000294	2.938930	0.995736	0.000118
1604	1.5950e+02	-16.1482	-87.315172	0.000172	1.722821	0.583708	0.000069
1605	1.5960e+02	-16.1129	-87.206169	0.000274	2.736245	0.927065	0.000110
1606	1.5970e+02	-16.0584	-87.101204	0.000263	2.634903	0.892729	0.000105
1607	1.5980e+02	-16.0215	-87.004312	0.000243	2.432218	0.824058	0.000097
1608	1.5990e+02	-15.9798	-86.883198	0.000304	3.040273	1.030072	0.000122
1609	1.6000e+02	-15.9573	-86.737861	0.000365	3.648327	1.236087	0.000146
1610	1.6010e+02	-15.9156	-86.665193	0.000182	1.824164	0.618043	0.000073
1611	1.6019e+02	-15.8675	-86.540042	0.000314	3.141615	1.064408	0.000126
1612	1.6029e+02	-15.8290	-86.435076	0.000263	2.634903	0.892729	0.000105
1613	1.6039e+02	-15.7905	-86.322036	0.000284	2.837588	0.961401	0.000114
1614	1.6049e+02	-15.7455	-86.196885	0.000314	3.141615	1.064408	0.000126
1615	1.6059e+02	-15.7070	-86.124217	0.000182	1.824164	0.618043	0.000073
1616	1.6069e+02	-15.6637	-86.011177	0.000284	2.837588	0.961401	0.000114
1617	1.6079e+02	-15.6284	-85.910249	0.000253	2.533560	0.858394	0.000101
1618	1.6089e+02	-15.5867	-85.756837	0.000385	3.851012	1.304758	0.000154
1619	1.6099e+02	-15.5482	-85.668020	0.000223	2.229533	0.755386	0.000089
1620	1.6109e+02	-15.5177	-85.603426	0.000162	1.621479	0.549372	0.000065
1621	1.6119e+02	-15.4664	-85.433866	0.000426	4.256382	1.442101	0.000170
1622	1.6129e+02	-15.4391	-85.312752	0.000304	3.040273	1.030072	0.000122
1623	1.6139e+02	-15.3926	-85.256233	0.000142	1.418794	0.480700	0.000057
1624	1.6149e+02	-15.3541	-85.110896	0.000365	3.648327	1.236087	0.000146
1625	1.6159e+02	-15.3060	-85.046301	0.000162	1.621479	0.549372	0.000065
1626	1.6169e+02	-15.2739	-84.900965	0.000365	3.648327	1.236087	0.000146
1627	1.6179e+02	-15.2226	-84.832333	0.000172	1.722821	0.583708	0.000069
1628	1.6189e+02	-15.1889	-84.707182	0.000314	3.141615	1.064408	0.000126
1629	1.6199e+02	-15.1440	-84.586068	0.000304	3.040273	1.030072	0.000122
1630	1.6209e+02	-15.1071	-84.444768	0.000355	3.546985	1.201751	0.000142
1631	1.6219e+02	-15.0750	-84.327691	0.000294	2.938930	0.995736	0.000118
1632	1.6228e+02	-15.0349	-84.242911	0.000213	2.128191	0.721051	0.000085
1633	1.6238e+02	-14.9851	-84.121797	0.000304	3.040273	1.030072	0.000122
1634	1.6248e+02	-14.9531	-84.012795	0.000274	2.736245	0.927065	0.000110
1635	1.6258e+02	-14.9194	-83.863421	0.000375	3.749670	1.270422	0.000150
1636	1.6268e+02	-14.8809	-83.790752	0.000182	1.824164	0.618043	0.000073
1637	1.6278e+02	-14.8263	-83.629267	0.000405	4.053697	1.373430	0.000162
1638	1.6288e+02	-14.7910	-83.548524	0.000203	2.026848	0.686715	0.000081
1639	1.6298e+02	-14.7461	-83.439521	0.000274	2.736245	0.927065	0.000110
1640	1.6308e+02	-14.6996	-83.314370	0.000314	3.141615	1.064408	0.000126
1641	1.6318e+02	-14.6675	-83.160959	0.000385	3.851012	1.304758	0.000154
1642	1.6328e+02	-14.6258	-83.132699	0.000071	0.709397	0.240350	0.000028
1643	1.6338e+02	-14.5969	-82.987362	0.000365	3.648327	1.236087	0.000146
1644	1.6348e+02	-14.5552	-82.829914	0.000395	3.952354	1.339094	0.000158
1645	1.6358e+02	-14.5055	-82.741097	0.000223	2.229533	0.755386	0.000089
1646	1.6368e+02	-14.4734	-82.636131	0.000263	2.634903	0.892729	0.000105
1647	1.6378e+02	-14.4317	-82.523092	0.000284	2.837588	0.961401	0.000114
1648	1.6388e+02	-14.3916	-82.430237	0.000233	2.330876	0.789722	0.000093
1649	1.6398e+02	-14.3531	-82.272789	0.000395	3.952354	1.339094	0.000158
1650	1.6408e+02	-14.3226	-82.183972	0.000223	2.229533	0.755386	0.000089
1651	1.6418e+02	-14.2713	-82.022487	0.000405	4.053697	1.373430	0.000162
1652	1.6427e+02	-14.2392	-81.945781	0.000193	1.925506	0.652379	0.000077
1653	1.6437e+02	-14.1975	-81.784296	0.000405	4.053697	1.373430	0.000162
1654	1.6447e+02	-14.1558	-81.695479	0.000223	2.229533	0.755386	0.000089
1655	1.6457e+02	-14.1044	-81.610699	0.000213	2.128191	0.721051	0.000085
1656	1.6467e+02	-14.0771	-81.469399	0.000355	3.546985	1.201751	0.000142
1657	1.6477e+02	-14.0322	-81.360397	0.000274	2.736245	0.927065	0.000110
1658	1.6487e+02	-13.9889	-81.223134	0.000345	3.445642	1.167415	0.000138
1659	1.6497e+02	-13.9520	-81.138354	0.000213	2.128191	0.721051	0.000085
1660	1.6507e+02	-13.9119	-80.960720	0.000446	4.459066	1.510773	0.000179
1661	1.6517e+02	-13.8798	-80.888052	0.000182	1.824164	0.618043	0.000073
1662	1.6527e+02	-13.8365	-80.722529	0.000416	4.155039	1.407765	0.000166
1663	1.6537e+02	-13.7804	-80.593341	0.000324	3.242957	1.098744	0.000130
1664	1.6547e+02	-13.7515	-80.476264	0.000294	2.938930	0.995736	0.000118
1665	1.6557e+02	-13.7146	-80.383410	0.000233	2.330876	0.789722	0.000093
1666	1.6567e+02	-13.6745	-80.254221	0.000324	3.242957	1.098744	0.000130
1667	1.6577e+02	-13.6440	-80.125033	0.000324	3.242957	1.098744	0.000130
1668	1.6587e+02	-13.5895	-79.999882	0.000314	3.141615	1.064408	0.000126
1669	1.6597e+02	-13.5638	-79.911065	0.000223	2.229533	0.755386	0.000089
1670	1.6607e+02	-13.5108	-79.745542	0.000416	4.155039	1.407765	0.000166
1671	1.6616e+02	-13.4788	-79.612317	0.000334	3.344300	1.133079	0.000134
1672	1.6626e+02	-13.4387	-79.487166	0.000314	3.141615	1.064408	0.000126
1673	1.6636e+02	-13.3937	-79.362014	0.000314	3.141615	1.064408	0.000126
1674	1.6646e+02	-13.3536	-79.281272	0.000203	2.026848	0.686715	0.000081
1675	1.6656e+02	-13.3167	-79.164195	0.000294	2.938930	0.995736	0.000118
1676	1.6666e+02	-13.2798	-79.039043	0.000314	3.141615	1.064408	0.000126
1677	1.6676e+02	-13.2381	-78.901781	0.000345	3.445642	1.167415	0.000138
1678	1.6686e+02	-13.1884	-78.768555	0.000334	3.344300	1.133079	0.000134
1679	1.6696e+02	-13.1563	-78.651478	0.000294	2.938930	0.995736	0.000118
1680	1.6706e+02	-13.1114	-78.510179	0.000355	3.546985	1.201751	0.000142
1681	1.6716e+02	-13.0777	-78.417325	0.000233	2.330876	0.789722	0.000093
1682	1.6726e+02	-13.0376	-78.312359	0.000263	2.634903	0.892729	0.000105
1683	1.6736e+02	-12.9991	-78.187208	0.000314	3.141615	1.064408	0.000126
1684	1.6746e+02	-12.9558	-78.033797	0.000385	3.851012	1.304758	0.000154
1685	1.6756e+02	-12.9237	-77.928831	0.000263	2.634903	0.892729	0.000105
1686	1.6766e+02	-12.8804	-77.803680	0.000314	3.141615	1.064408	0.000126
1687	1.6776e+02	-12.8467	-77.654306	0.000375	3.749670	1.270422	0.000150
1688	1.6786e+02	-12.7970	-77.585675	0.000172	1.722821	0.583708	0.000069
1689	1.6796e+02	-12.7520	-77.432263	0.000385	3.851012	1.304758	0.000154
1690	1.6806e+02	-12.7168	-77.254629	0.000446	4.459066	1.510773	0.000179
1691	1.6816e+02	-12.6734	-77.141590	0.000284	2.837588	0.961401	0.000114
1692	1.6825e+02	-12.6462	-77.040661	0.000253	2.533560	0.858394	0.000101
1693	1.6835e+02	-12.5964	-76.903399	0.000345	3.445642	1.167415	0.000138
1694	1.6845e+02	-12.5611	-76.782285	0.000304	3.040273	1.030072	0.000122
1695	1.6855e+02	-12.5194	-76.640985	0.000355	3.546985	1.201751	0.000142
1696	1.6865e+02	-12.4873	-76.491611	0.000375	3.749670	1.270422	0.000150
1697	1.6875e+02	-12.4488	-76.390682	0.000253	2.533560	0.858394	0.000101
1698	1.6885e+02	-12.4023	-76.245346	0.000365	3.648327	1.236087	0.000146
1699	1.6895e+02	-12.3654	-76.120194	0.000314	3.141615	1.064408	0.000126
1700	1.6905e+02	-12.3173	-75.958709	0.000405	4.053697	1.373430	0.000162
1701	1.6915e+02	-12.2804	-75.821446	0.000345	3.445642	1.167415	0.000138
1702	1.6925e+02	-12.2387	-75.728592	0.000233	2.330876	0.789722	0.000093
1703	1.6935e+02	-12.1986	-75.550958	0.000446	4.459066	1.510773	0.000179
1704	1.6945e+02	-12.1569	-75.437918	0.000284	2.837588	0.961401	0.000114
1705	1.6955e+02	-12.1152	-75.260284	0.000446	4.459066	1.510773	0.000179
1706	1.6965e+02	-12.0831	-75.139170	0.000304	3.040273	1.030072	0.000122
1707	1.6975e+02	-12.0334	-75.005945	0.000334	3.344300	1.133079	0.000134
1708	1.6985e+02	-12.0013	-74.896942	0.000274	2.736245	0.927065	0.000110
1709	1.6995e+02	-11.9676	-74.735457	0.000405	4.053697	1.373430	0.000162
1710	1.7005e+02	-11.9259	-74.578008	0.000395	3.952354	1.339094	0.000158
1711	1.7015e+02	-11.8874	-74.485154	0.000233	2.330876	0.789722	0.000093
1712	1.7024e+02	-11.8344	-74.315595	0.000426	4.256382	1.442101	0.000170
1713	1.7034e+02	-11.8055	-74.202555	0.000284	2.837588	0.961401	0.000114
1714	1.7044e+02	-11.7590	-74.061255	0.000355	3.546985	1.201751	0.000142
1715	1.7054e+02	-11.7253	-73.895733	0.000416	4.155039	1.407765	0.000166
1716	1.7064e+02	-11.6756	-73.782693	0.000284	2.837588	0.961401	0.000114
1717	1.7074e+02	-11.6451	-73.641393	0.000355	3.546985	1.201751	0.000142
1718	1.7084e+02	-11.6018	-73.544502	0.000243	2.432218	0.824058	0.000097
1719	1.7094e+02	-11.5617	-73.334571	0.000527	5.269806	1.785459	0.000211
1720	1.7104e+02	-11.5216	-73.221531	0.000284	2.837588	0.961401	0.000114
1721	1.7114e+02	-11.4863	-73.039860	0.000456	4.560409	1.545108	0.000183
1722	1.7124e+02	-11.4478	-72.930857	0.000274	2.736245	0.927065	0.000110
1723	1.7134e+02	-11.4045	-72.769372	0.000405	4.053697	1.373430	0.000162
1724	1.7144e+02	-11.3628	-72.624035	0.000365	3.648327	1.236087	0.000146
1725	1.7154e+02	-11.3323	-72.502921	0.000304	3.040273	1.030072	0.000122
1726	1.7164e+02	-11.2890	-72.317212	0.000466	4.661751	1.579444	0.000187
1727	1.7174e+02	-11.2505	-72.220321	0.000243	2.432218	0.824058	0.000097
1728	1.7184e+02	-11.2024	-72.087096	0.000334	3.344300	1.133079	0.000134
1729	1.7194e+02	-11.1639	-71.901387	0.000466	4.661751	1.579444	0.000187
1730	1.7204e+02	-11.1270	-71.804496	0.000243	2.432218	0.824058	0.000097
1731	1.7213e+02	-11.0820	-71.630899	0.000436	4.357724	1.476437	0.000174
1732	1.7223e+02	-11.0371	-71.481525	0.000375	3.749670	1.270422	0.000150
1733	1.7233e+02	-11.0115	-71.328114	0.000385	3.851012	1.304758	0.000154
1734	1.7243e+02	-10.9601	-71.182777	0.000365	3.648327	1.236087	0.000146
1735	1.7253e+02	-10.9200	-71.041478	0.000355	3.546985	1.201751	0.000142
1736	1.7263e+02	-10.8959	-70.884029	0.000395	3.952354	1.339094	0.000158
1737	1.7273e+02	-10.8430	-70.706395	0.000446	4.459066	1.510773	0.000179
1738	1.7283e+02	-10.8061	-70.601430	0.000263	2.634903	0.892729	0.000105
1739	1.7293e+02	-10.7708	-70.407647	0.000486	4.864436	1.648116	0.000195
1740	1.7303e+02	-10.7291	-70.262310	0.000365	3.648327	1.236087	0.000146
1741	1.7313e+02	-10.6906	-70.161382	0.000253	2.533560	0.858394	0.000101
1742	1.7323e+02	-10.6473	-69.995859	0.000416	4.155039	1.407765	0.000166
1743	1.7333e+02	-10.6008	-69.830337	0.000416	4.155039	1.407765	0.000166
1744	1.7343e+02	-10.5767	-69.717297	0.000284	2.837588	0.961401	0.000114
1745	1.7353e+02	-10.5254	-69.551774	0.000416	4.155039	1.407765	0.000166
1746	1.7363e+02	-10.4901	-69.406438	0.000365	3.648327	1.236087	0.000146
1747	1.7373e+02	-10.4371	-69.236878	0.000426	4.256382	1.442101	0.000170
1748	1.7383e+02	-10.4067	-69.091541	0.000365	3.648327	1.236087	0.000146
1749	1.7393e+02	-10.3585	-68.958316	0.000334	3.344300	1.133079	0.000134
1750	1.7403e+02	-10.3313	-68.837201	0.000304	3.040273	1.030072	0.000122
1751	1.7413e+02	-10.2879	-68.655530	0.000456	4.560409	1.545108	0.000183
1752	1.7422e+02	-10.2478	-68.477896	0.000446	4.459066	1.510773	0.000179
1753	1.7432e+02	-10.2077	-68.340634	0.000345	3.445642	1.167415	0.000138
1754	1.7442e+02	-10.1676	-68.195297	0.000365	3.648327	1.236087	0.000146
1755	1.7452e+02	-10.1371	-68.029774	0.000416	4.155039	1.407765	0.000166
1756	1.7462e+02	-10.0922	-67.860215	0.000426	4.256382	1.442101	0.000170
1757	1.7472e+02	-10.0473	-67.714878	0.000365	3.648327	1.236087	0.000146
1758	1.7482e+02	-10.0072	-67.533207	0.000456	4.560409	1.545108	0.000183
1759	1.7492e+02	-9.9703	-67.359610	0.000436	4.357724	1.476437	0.000174
1760	1.7502e+02	-9.9238	-67.226384	0.000334	3.344300	1.133079	0.000134
1761	1.7512e+02	-9.8885	-66.988193	0.000598	5.979203	2.025809	0.000239
1762	1.7522e+02	-9.8564	-66.919562	0.000172	1.722821	0.583708	0.000069
1763	1.7532e+02	-9.8115	-66.741928	0.000446	4.459066	1.510773	0.000179
1764	1.7542e+02	-9.7602	-66.620814	0.000304	3.040273	1.030072	0.000122
1765	1.7552e+02	-9.7361	-66.427031	0.000486	4.864436	1.648116	0.000195
1766	1.7562e+02	-9.6912	-66.217100	0.000527	5.269806	1.785459	0.000211
1767	1.7572e+02	-9.6446	-66.108098	0.000274	2.736245	0.927065	0.000110
1768	1.7582e+02	-9.6142	-65.934501	0.000436	4.357724	1.476437	0.000174
1769	1.7592e+02	-9.5676	-65.813387	0.000304	3.040273	1.030072	0.000122
1770	1.7602e+02	-9.5291	-65.659976	0.000385	3.851012	1.304758	0.000154
1771	1.7612e+02	-9.4987	-65.490416	0.000426	4.256382	1.442101	0.000170
1772	1.7621e+02	-9.4457	-65.296633	0.000486	4.864436	1.648116	0.000195
1773	1.7631e+02	-9.4088	-65.110925	0.000466	4.661751	1.579444	0.000187
1774	1.7641e+02	-9.3783	-65.005960	0.000263	2.634903	0.892729	0.000105
1775	1.7651e+02	-9.3302	-64.800066	0.000517	5.168463	1.751123	0.000207
1776	1.7661e+02	-9.2837	-64.638580	0.000405	4.053697	1.373430	0.000162
1777	1.7671e+02	-9.2436	-64.501318	0.000345	3.445642	1.167415	0.000138
1778	1.7681e+02	-9.2115	-64.331758	0.000426	4.256382	1.442101	0.000170
1779	1.7691e+02	-9.1794	-64.158161	0.000436	4.357724	1.476437	0.000174
1780	1.7701e+02	-9.1313	-64.024936	0.000334	3.344300	1.133079	0.000134
1781	1.7711e+02	-9.0976	-63.847302	0.000446	4.459066	1.510773	0.000179
1782	1.7721e+02	-9.0463	-63.718113	0.000324	3.242957	1.098744	0.000130
1783	1.7731e+02	-9.0126	-63.512219	0.000517	5.168463	1.751123	0.000207
1784	1.7741e+02	-8.9725	-63.342660	0.000426	4.256382	1.442101	0.000170
1785	1.7751e+02	-8.9388	-63.217509	0.000314	3.141615	1.064408	0.000126
1786	1.7761e+02	-8.8923	-63.068134	0.000375	3.749670	1.270422	0.000150
1787	1.7771e+02	-8.8457	-62.886463	0.000456	4.560409	1.545108	0.000183
1788	1.7781e+02	-8.8121	-62.724978	0.000405	4.053697	1.373430	0.000162
1789	1.7791e+02	-8.7719	-62.547344	0.000446	4.459066	1.510773	0.000179
1790	1.7801e+02	-8.7350	-62.402007	0.000365	3.648327	1.236087	0.000146
1791	1.7810e+02	-8.6901	-62.196113	0.000517	5.168463	1.751123	0.000207
1792	1.7820e+02	-8.6548	-62.062888	0.000334	3.344300	1.133079	0.000134
1793	1.7830e+02	-8.6147	-61.873142	0.000476	4.763094	1.613780	0.000191
1794	1.7840e+02	-8.5762	-61.747991	0.000314	3.141615	1.064408	0.000126
1795	1.7850e+02	-8.5425	-61.505763	0.000608	6.080545	2.060144	0.000243
1796	1.7860e+02	-8.4928	-61.408872	0.000243	2.432218	0.824058	0.000097
1797	1.7870e+02	-8.4575	-61.255461	0.000385	3.851012	1.304758	0.000154
1798	1.7880e+02	-8.4142	-61.093975	0.000405	4.053697	1.373430	0.000162
1799	1.7890e+02	-8.3773	-60.904230	0.000476	4.763094	1.613780	0.000191
1800	1.7900e+02	-8.3404	-60.754856	0.000375	3.749670	1.270422	0.000150
1801	1.7910e+02	-8.2971	-60.605482	0.000375	3.749670	1.270422	0.000150
1802	1.7920e+02	-8.2570	-60.415736	0.000476	4.763094	1.613780	0.000191
1803	1.7930e+02	-8.2169	-60.221954	0.000486	4.864436	1.648116	0.000195
1804	1.7940e+02	-8.1784	-60.080654	0.000355	3.546985	1.201751	0.000142
1805	1.7950e+02	-8.1415	-59.907057	0.000436	4.357724	1.476437	0.000174
1806	1.7960e+02	-8.0982	-59.725386	0.000456	4.560409	1.545108	0.000183
1807	1.7970e+02	-8.0629	-59.567938	0.000395	3.952354	1.339094	0.000158
1808	1.7980e+02	-8.0196	-59.414527	0.000385	3.851012	1.304758	0.000154
1809	1.7990e+02	-7.9714	-59.253041	0.000405	4.053697	1.373430	0.000162
1810	1.8000e+02	-7.9393	-59.087519	0.000416	4.155039	1.407765	0.000166
1811	1.8009e+02	-7.8992	-58.901810	0.000466	4.661751	1.579444	0.000187
1812	1.8019e+02	-7.8639	-58.748399	0.000385	3.851012	1.304758	0.000154
1813	1.8029e+02	-7.8142	-58.590951	0.000395	3.952354	1.339094	0.000158
1814	1.8039e+02	-7.7661	-58.385057	0.000517	5.168463	1.751123	0.000207
1815	1.8049e+02	-7.7356	-58.243757	0.000355	3.546985	1.201751	0.000142
1816	1.8059e+02	-7.6923	-58.082272	0.000405	4.053697	1.373430	0.000162
1817	1.8069e+02	-7.6634	-57.888489	0.000486	4.864436	1.648116	0.000195
1818	1.8079e+02	-7.6201	-57.710855	0.000446	4.459066	1.510773	0.000179
1819	1.8089e+02	-7.5736	-57.529184	0.000456	4.560409	1.545108	0.000183
1820	1.8099e+02	-7.5399	-57.375773	0.000385	3.851012	1.304758	0.000154
1821	1.8109e+02	-7.5062	-57.161805	0.000537	5.371148	1.819794	0.000215
1822	1.8119e+02	-7.4597	-57.032617	0.000324	3.242957	1.098744	0.000130
1823	1.8129e+02	-7.4244	-56.863057	0.000426	4.256382	1.442101	0.000170
1824	1.8139e+02	-7.3763	-56.697534	0.000416	4.155039	1.407765	0.000166
1825	1.8149e+02	-7.3506	-56.507789	0.000476	4.763094	1.613780	0.000191
1826	1.8159e+02	-7.2944	-56.318044	0.000476	4.763094	1.613780	0.000191
1827	1.8169e+02	-7.2592	-56.196929	0.000304	3.040273	1.030072	0.000122
1828	1.8179e+02	-7.2190	-55.954701	0.000608	6.080545	2.060144	0.000243
1829	1.8189e+02	-7.1789	-55.825513	0.000324	3.242957	1.098744	0.000130
1830	1.8199e+02	-7.1485	-55.639805	0.000466	4.661751	1.579444	0.000187
1831	1.8209e+02	-7.0987	-55.413725	0.000568	5.675175	1.922802	0.000227
1832	1.8218e+02	-7.0699	-55.332982	0.000203	2.026848	0.686715	0.000081
1833	1.8228e+02	-7.0185	-55.110940	0.000557	5.573833	1.888466	0.000223
1834	1.8238e+02	-6.9704	-54.933306	0.000446	4.459066	1.510773	0.000179
1835	1.8248e+02	-6.9399	-54.751635	0.000456	4.560409	1.545108	0.000183
1836	1.8258e+02	-6.9062	-54.574001	0.000446	4.459066	1.510773	0.000179
1837	1.8268e+02	-6.8565	-54.372144	0.000507	5.067121	1.716787	0.000203
1838	1.8278e+02	-6.8228	-54.202584	0.000426	4.256382	1.442101	0.000170
1839	1.8288e+02	-6.7875	-54.065322	0.000345	3.445642	1.167415	0.000138
1840	1.8298e+02	-6.7394	-53.883651	0.000456	4.560409	1.545108	0.000183
1841	1.8308e+02	-6.7009	-53.701980	0.000456	4.560409	1.545108	0.000183
1842	1.8318e+02	-6.6672	-53.520308	0.000456	4.560409	1.545108	0.000183
1843	1.8328e+02	-6.6239	-53.370934	0.000375	3.749670	1.270422	0.000150
1844	1.8338e+02	-6.5806	-53.245783	0.000314	3.141615	1.064408	0.000126
1845	1.8348e+02	-6.5437	-52.999518	0.000618	6.181888	2.094480	0.000248
1846	1.8358e+02	-6.5020	-52.846107	0.000385	3.851012	1.304758	0.000154
1847	1.8368e+02	-6.4635	-52.644250	0.000507	5.067121	1.716787	0.000203
1848	1.8378e+02	-6.4217	-52.502950	0.000355	3.546985	1.201751	0.000142
1849	1.8388e+02	-6.3736	-52.288982	0.000537	5.371148	1.819794	0.000215
1850	1.8398e+02	-6.3576	-52.111348	0.000446	4.459066	1.510773	0.000179
1851	1.8407e+02	-6.3078	-51.974085	0.000345	3.445642	1.167415	0.000138
1852	1.8417e+02	-6.2645	-51.788377	0.000466	4.661751	1.579444	0.000187
1853	1.8427e+02	-6.2260	-51.570372	0.000547	5.472491	1.854130	0.000219
1854	1.8437e+02	-6.1875	-51.445221	0.000314	3.141615	1.064408	0.000126
1855	1.8447e+02	-6.1506	-51.207030	0.000598	5.979203	2.025809	0.000239
1856	1.8457e+02	-6.1137	-51.045544	0.000405	4.053697	1.373430	0.000162
1857	1.8467e+02	-6.0688	-50.875985	0.000426	4.256382	1.442101	0.000170
1858	1.8477e+02	-6.0271	-50.694313	0.000456	4.560409	1.545108	0.000183
1859	1.8487e+02	-5.9870	-50.488420	0.000517	5.168463	1.751123	0.000207
1860	1.8497e+02	-5.9453	-50.306748	0.000456	4.560409	1.545108	0.000183
1861	1.8507e+02	-5.9068	-50.141226	0.000416	4.155039	1.407765	0.000166
1862	1.8517e+02	-5.8683	-49.971666	0.000426	4.256382	1.442101	0.000170
1863	1.8527e+02	-5.8298	-49.769809	0.000507	5.067121	1.716787	0.000203
1864	1.8537e+02	-5.7833	-49.555841	0.000537	5.371148	1.819794	0.000215
1865	1.8547e+02	-5.7448	-49.358022	0.000497	4.965779	1.682451	0.000199
1866	1.8557e+02	-5.7111	-49.164239	0.000486	4.864436	1.648116	0.000195
1867	1.8567e+02	-5.6790	-49.010828	0.000385	3.851012	1.304758	0.000154
1868	1.8577e+02	-5.6180	-48.808971	0.000507	5.067121	1.716787	0.000203
1869	1.8587e+02	-5.5956	-48.627300	0.000456	4.560409	1.545108	0.000183
1870	1.8597e+02	-5.5426	-48.417369	0.000527	5.269806	1.785459	0.000211
1871	1.8606e+02	-5.5105	-48.239735	0.000446	4.459066	1.510773	0.000179
1872	1.8616e+02	-5.4720	-48.037878	0.000507	5.067121	1.716787	0.000203
1873	1.8626e+02	-5.4255	-47.848133	0.000476	4.763094	1.613780	0.000191
1874	1.8636e+02	-5.3870	-47.682610	0.000416	4.155039	1.407765	0.000166
1875	1.8646e+02	-5.3437	-47.456531	0.000568	5.675175	1.922802	0.000227
1876	1.8656e+02	-5.3004	-47.258711	0.000497	4.965779	1.682451	0.000199
1877	1.8666e+02	-5.2779	-47.064928	0.000486	4.864436	1.648116	0.000195
1878	1.8676e+02	-5.2234	-46.875183	0.000476	4.763094	1.613780	0.000191
1879	1.8686e+02	-5.1849	-46.689475	0.000466	4.661751	1.579444	0.000187
1880	1.8696e+02	-5.1608	-46.495692	0.000486	4.864436	1.648116	0.000195
1881	1.8706e+02	-5.1127	-46.265576	0.000578	5.776518	1.957137	0.000231
1882	1.8716e+02	-5.0726	-46.128313	0.000345	3.445642	1.167415	0.000138
1883	1.8726e+02	-5.0309	-45.934530	0.000486	4.864436	1.648116	0.000195
1884	1.8736e+02	-4.9988	-45.696339	0.000598	5.979203	2.025809	0.000239
1885	1.8746e+02	-4.9523	-45.542928	0.000385	3.851012	1.304758	0.000154
1886	1.8756e+02	-4.9041	-45.337034	0.000517	5.168463	1.751123	0.000207
1887	1.8766e+02	-4.8705	-45.102880	0.000588	5.877860	1.991473	0.000235
1888	1.8776e+02	-4.8319	-44.901024	0.000507	5.067121	1.716787	0.000203
1889	1.8786e+02	-4.7951	-44.687055	0.000537	5.371148	1.819794	0.000215
1890	1.8796e+02	-4.7421	-44.497310	0.000476	4.763094	1.613780	0.000191
1891	1.8806e+02	-4.7164	-44.291416	0.000517	5.168463	1.751123	0.000207
1892	1.8815e+02	-4.6683	-44.089559	0.000507	5.067121	1.716787	0.000203
1893	1.8825e+02	-4.6250	-43.920000	0.000426	4.256382	1.442101	0.000170
1894	1.8835e+02	-4.5929	-43.701994	0.000547	5.472491	1.854130	0.000219
1895	1.8845e+02	-4.5432	-43.516286	0.000466	4.661751	1.579444	0.000187
1896	1.8855e+02	-4.5223	-43.310392	0.000517	5.168463	1.751123	0.000207
1897	1.8865e+02	-4.4694	-43.080275	0.000578	5.776518	1.957137	0.000231
1898	1.8875e+02	-4.4325	-42.882456	0.000497	4.965779	1.682451	0.000199
1899	1.8885e+02	-4.3908	-42.700785	0.000456	4.560409	1.545108	0.000183
1900	1.8895e+02	-4.3523	-42.454519	0.000618	6.181888	2.094480	0.000248
1901	1.8905e+02	-4.3090	-42.252663	0.000507	5.067121	1.716787	0.000203
1902	1.8915e+02	-4.2753	-42.066954	0.000466	4.661751	1.579444	0.000187
1903	1.8925e+02	-4.2336	-41.857023	0.000527	5.269806	1.785459	0.000211
1904	1.8935e+02	-4.1903	-41.647092	0.000527	5.269806	1.785459	0.000211
1905	1.8945e+02	-4.1614	-41.425050	0.000557	5.573833	1.888466	0.000223
1906	1.8955e+02	-4.1116	-41.219156	0.000517	5.168463	1.751123	0.000207
1907	1.8965e+02	-4.0780	-41.017299	0.000507	5.067121	1.716787	0.000203
1908	1.8975e+02	-4.0362	-40.811405	0.000517	5.168463	1.751123	0.000207
1909	1.8985e+02	-3.9961	-40.621660	0.000476	4.763094	1.613780	0.000191
1910	1.8995e+02	-3.9512	-40.383469	0.000598	5.979203	2.025809	0.000239
1911	1.9004e+02	-3.9175	-40.169501	0.000537	5.371148	1.819794	0.000215
1912	1.9014e+02	-3.8694	-39.927272	0.000608	6.080545	2.060144	0.000243
1913	1.9024e+02	-3.8373	-39.753676	0.000436	4.357724	1.476437	0.000174
1914	1.9034e+02	-3.7940	-39.539707	0.000537	5.371148	1.819794	0.000215
1915	1.9044e+02	-3.7651	-39.358036	0.000456	4.560409	1.545108	0.000183
1916	1.9054e+02	-3.7186	-39.144068	0.000537	5.371148	1.819794	0.000215
1917	1.9064e+02	-3.6673	-38.901840	0.000608	6.080545	2.060144	0.000243
1918	1.9074e+02	-3.6320	-38.695946	0.000517	5.168463	1.751123	0.000207
1919	1.9084e+02	-3.5967	-38.494089	0.000507	5.067121	1.716787	0.000203
1920	1.9094e+02	-3.5470	-38.235713	0.000649	6.485915	2.197487	0.000260
1921	1.9104e+02	-3.5149	-38.037893	0.000497	4.965779	1.682451	0.000199
1922	1.9114e+02	-3.4651	-37.840073	0.000497	4.965779	1.682451	0.000199
1923	1.9124e+02	-3.4411	-37.609957	0.000578	5.776518	1.957137	0.000231
1924	1.9134e+02	-3.3962	-37.387914	0.000557	5.573833	1.888466	0.000223
1925	1.9144e+02	-3.3561	-37.149723	0.000598	5.979203	2.025809	0.000239
1926	1.9154e+02	-3.3127	-36.964015	0.000466	4.661751	1.579444	0.000187
1927	1.9164e+02	-3.2791	-36.754084	0.000527	5.269806	1.785459	0.000211
1928	1.9174e+02	-3.2422	-36.491670	0.000659	6.587257	2.231823	0.000264
1929	1.9184e+02	-3.2101	-36.289813	0.000507	5.067121	1.716787	0.000203
1930	1.9194e+02	-3.1684	-36.100068	0.000476	4.763094	1.613780	0.000191
1931	1.9203e+02	-3.1170	-35.837654	0.000659	6.587257	2.231823	0.000264
1932	1.9213e+02	-3.0769	-35.615611	0.000557	5.573833	1.888466	0.000223
1933	1.9223e+02	-3.0368	-35.389532	0.000568	5.675175	1.922802	0.000227
1934	1.9233e+02	-2.9999	-35.151341	0.000598	5.979203	2.025809	0.000239
1935	1.9243e+02	-2.9614	-34.961595	0.000476	4.763094	1.613780	0.000191
1936	1.9253e+02	-2.9197	-34.747627	0.000537	5.371148	1.819794	0.000215
1937	1.9263e+02	-2.8796	-34.521548	0.000568	5.675175	1.922802	0.000227
1938	1.9273e+02	-2.8443	-34.251060	0.000679	6.789942	2.300495	0.000272
1939	1.9283e+02	-2.7978	-34.033054	0.000547	5.472491	1.854130	0.000219
1940	1.9293e+02	-2.7593	-33.786789	0.000618	6.181888	2.094480	0.000248
1941	1.9303e+02	-2.7144	-33.580895	0.000517	5.168463	1.751123	0.000207
1942	1.9313e+02	-2.6775	-33.346741	0.000588	5.877860	1.991473	0.000235
1943	1.9323e+02	-2.6406	-33.152959	0.000486	4.864436	1.648116	0.000195
1944	1.9333e+02	-2.6021	-32.947065	0.000517	5.168463	1.751123	0.000207
1945	1.9343e+02	-2.5652	-32.676577	0.000679	6.789942	2.300495	0.000272
1946	1.9353e+02	-2.5202	-32.450497	0.000568	5.675175	1.922802	0.000227
1947	1.9363e+02	-2.4785	-32.208269	0.000608	6.080545	2.060144	0.000243
1948	1.9373e+02	-2.4497	-32.010449	0.000497	4.965779	1.682451	0.000199
1949	1.9383e+02	-2.3999	-31.788407	0.000557	5.573833	1.888466	0.000223
1950	1.9393e+02	-2.3598	-31.525993	0.000659	6.587257	2.231823	0.000264
1951	1.9403e+02	-2.3197	-31.332210	0.000486	4.864436	1.648116	0.000195
1952	1.9412e+02	-2.2844	-31.098057	0.000588	5.877860	1.991473	0.000235
1953	1.9422e+02	-2.2443	-30.855828	0.000608	6.080545	2.060144	0.000243
1954	1.9432e+02	-2.1994	-30.621675	0.000588	5.877860	1.991473	0.000235
1955	1.9442e+02	-2.1593	-30.395595	0.000568	5.675175	1.922802	0.000227
1956	1.9452e+02	-2.1208	-30.161441	0.000588	5.877860	1.991473	0.000235
1957	1.9462e+02	-2.0855	-29.935361	0.000568	5.675175	1.922802	0.000227
1958	1.9472e+02	-2.0454	-29.701208	0.000588	5.877860	1.991473	0.000235
1959	1.9482e+02	-1.9989	-29.454942	0.000618	6.181888	2.094480	0.000248
1960	1.9492e+02	-1.9604	-29.249048	0.000517	5.168463	1.751123	0.000207
1961	1.9502e+02	-1.9299	-29.018932	0.000578	5.776518	1.957137	0.000231
1962	1.9512e+02	-1.8834	-28.788815	0.000578	5.776518	1.957137	0.000231
1963	1.9522e+02	-1.8449	-28.558698	0.000578	5.776518	1.957137	0.000231
1964	1.9532e+02	-1.8080	-28.312433	0.000618	6.181888	2.094480	0.000248
1965	1.9542e+02	-1.7663	-28.041945	0.000679	6.789942	2.300495	0.000272
1966	1.9552e+02	-1.7197	-27.811828	0.000578	5.776518	1.957137	0.000231
1967	1.9562e+02	-1.6828	-27.589786	0.000557	5.573833	1.888466	0.000223
1968	1.9572e+02	-1.6379	-27.391966	0.000497	4.965779	1.682451	0.000199
1969	1.9582e+02	-1.6042	-27.137626	0.000638	6.384572	2.163152	0.000256
1970	1.9592e+02	-1.5593	-26.927695	0.000527	5.269806	1.785459	0.000211
1971	1.9601e+02	-1.5304	-26.693541	0.000588	5.877860	1.991473	0.000235
1972	1.9611e+02	-1.4839	-26.423053	0.000679	6.789942	2.300495	0.000272
1973	1.9621e+02	-1.4406	-26.213122	0.000527	5.269806	1.785459	0.000211
1974	1.9631e+02	-1.4117	-25.962820	0.000628	6.283230	2.128816	0.000252
1975	1.9641e+02	-1.3668	-25.720592	0.000608	6.080545	2.060144	0.000243
1976	1.9651e+02	-1.3299	-25.490475	0.000578	5.776518	1.957137	0.000231
1977	1.9661e+02	-1.2834	-25.232098	0.000649	6.485915	2.197487	0.000260
1978	1.9671e+02	-1.2433	-24.993907	0.000598	5.979203	2.025809	0.000239
1979	1.9681e+02	-1.2032	-24.783976	0.000527	5.269806	1.785459	0.000211
1980	1.9691e+02	-1.1647	-24.521562	0.000659	6.587257	2.231823	0.000264
1981	1.9701e+02	-1.1262	-24.299520	0.000557	5.573833	1.888466	0.000223
1982	1.9711e+02	-1.0941	-24.069403	0.000578	5.776518	1.957137	0.000231
1983	1.9721e+02	-1.0428	-23.786804	0.000709	7.093969	2.403502	0.000284
1984	1.9731e+02	-1.0091	-23.580910	0.000517	5.168463	1.751123	0.000207
1985	1.9741e+02	-0.9738	-23.338682	0.000608	6.080545	2.060144	0.000243
1986	1.9751e+02	-0.9256	-23.088379	0.000628	6.283230	2.128816	0.000252
1987	1.9761e+02	-0.8711	-22.825965	0.000659	6.587257	2.231823	0.000264
1988	1.9771e+02	-0.8518	-22.611997	0.000537	5.371148	1.819794	0.000215
1989	1.9781e+02	-0.8053	-22.333435	0.000699	6.992627	2.369166	0.000280
1990	1.9791e+02	-0.7700	-22.111392	0.000557	5.573833	1.888466	0.000223
1991	1.9800e+02	-0.7299	-21.873201	0.000598	5.979203	2.025809	0.000239
1992	1.9810e+02	-0.6914	-21.630973	0.000608	6.080545	2.060144	0.000243
1993	1.9820e+02	-0.6401	-21.384708	0.000618	6.181888	2.094480	0.000248
1994	1.9830e+02	-0.6064	-21.150554	0.000588	5.877860	1.991473	0.000235
1995	1.9840e+02	-0.5631	-20.916400	0.000588	5.877860	1.991473	0.000235
1996	1.9850e+02	-0.5230	-20.670135	0.000618	6.181888	2.094480	0.000248
1997	1.9860e+02	-0.4829	-20.407721	0.000659	6.587257	2.231823	0.000264
1998	1.9870e+02	-0.4492	-20.141270	0.000669	6.688600	2.266159	0.000268
1999	1.9880e+02	-0.4107	-19.943451	0.000497	4.965779	1.682451	0.000199
2000	1.9890e+02	-0.3674	-19.685074	0.000649	6.485915	2.197487	0.000260
2001	1.9900e+02	-0.3305	-19.454957	0.000578	5.776518	1.957137	0.000231
2002	1.9910e+02	-0.2872	-19.160246	0.000740	7.397997	2.506509	0.000296
2003	1.9920e+02	-0.2471	-18.946278	0.000537	5.371148	1.819794	0.000215
2004	1.9930e+02	-0.2150	-18.635419	0.000780	7.803366	2.643852	0.000312
2005	1.9940e+02	-0.1684	-18.397228	0.000598	5.979203	2.025809	0.000239
2006	1.9950e+02	-0.1251	-18.227668	0.000426	4.256382	1.442101	0.000170
2007	1.9960e+02	-0.0914	-17.908734	0.000801	8.006051	2.712524	0.000321
2008	1.9970e+02	-0.0513	-17.658432	0.000628	6.283230	2.128816	0.000252
2009	1.9980e+02	-0.0064	-17.464649	0.000628	6.283230	2.128816	0.000195

Center data before PMax,+/-Pr and +/-Vc Calc.

PMax (uC/cm2):	9.44e+01
Pr (uC/cm2):	1.14e+01
-Pr (uC/cm2):	-1.75e+01
PLoss (uC/cm2):	-1.08e+01
Vc:	1.51e+00
-Vc:	-1.80e+00
C (Max-Eff) (nF):	4.72e-01
K (Eff):	1.60e+03
Vert. (+/-Pr) Shift (uC/cm2):	-3.03e+00
Horiz. Shift (+/-Vc):	-1.46e-01
Offset (uC/cm2):	6.65e+00

A (Loop Area - uC/cm2·Volts):	1.70e-01



Hysteresis Version: 5.48.1 - Radiant Technologies, Inc., 1999 - 9/12/24

