»»»»»»»»»»»»»»»»»»»»»»»»»»»»»»»»»»»» Hysteresis ««««««««««««««««««««««««««««««««««««
»»»  Executed Version:	5.48.1
»»»  Vision Version:	5.48.4 (R)
»»»  Vision Compiled:	9/18/24
»»»  Driver Version:	5.47.0
»»»  Windows Version:	Windows 8 or 8.1
»»»  Processor Information:	x86 (AMD or Intel) - 32 Processors
»»»  Tester Name:	PMF21124-494 (100V)
»»»  Tester S/N:	PMF21124-494
»»»  Internal Amp Type:	100V RevK 270k
»»»  Internal Amp S/N:	iAB2-596/K     
»»»  Execution Count:	1
»»»»»»»»»»»»»»»»»»»»»»»»»»»»»»»»»»»»»»»»»»««««««««««««««««««««««««««««««««««««««««««

Stored:	6/16/2025 - 12:14:52
Configured:	06/16/25 10:13:01 AM
Executed:	06/16/25 12:13:49 PM

»»»»»»»»»»»»»»»»»»»»»»»»»»»»»»»»»»» Sample Info ««««««««««««««««««««««««««««««««««««
Sample Name:	
Lot Name:	
Wafer Name:	
Die Row/Column:	0/0
Capacitor Number:	0
Sample Area (cm2):	1.00e-04
Sample Thickness (microns):	3.00e-01

Amplifier:	Internal

»»»»»»»»»»»»»»»»»»»»»»»»»»»»»»»»»»» Tester Info «««««««««««««««««««««««««««««««««««
Tester Name:	PMF21124-494 (100V)
Tester Serial Number:	PMF21124-494
Return Signal Amp. Level:	0.19 [Index: 3]

»»»»»»»»»»»»»»»»»»»»»»»»»»»»»»»» Hysteresis Info ««««««««««««««««««««««««««««««««««
Task Name:	Hyst-2190
Volts:	20.00
Field:	666.67 (kV/cm)
DCBias:	0.00
DCField:	0.00 (kV/cm)
Hysteresis Period (ms):	2.00e+02
Preset:	Enabled
Preset Delay (ms):	1.00e+03
Profile:	Standard Bipolar

»»»»»»»»»»»»»»»»»»»»»»»»»»»»»»»»»»»»»» Data «««««««««««««««««««««««««««««««««««««««
Points:	2009

Valid Data

Point	Time (ms)	Drive Voltage	Measured Polarization (uC/cm2)	Capacitance (uF)	Normalized Capacitance (uF/cm2)	Dielectric Constant	Instantaneous Current (mA)
   1	0.0000e+00	0.0032	-121.126184	0.000456	4.560866	1.545263	0.000183
   2	9.9500e-02	0.0401	-120.944512	0.000456	4.560866	1.545263	0.000183
   3	1.9900e-01	0.0722	-120.718433	0.000568	5.675745	1.922994	0.000227
   4	2.9850e-01	0.1059	-120.500428	0.000547	5.473039	1.854316	0.000219
   5	3.9800e-01	0.1572	-120.254162	0.000618	6.182508	2.094690	0.000248
   6	4.9750e-01	0.2021	-120.064417	0.000476	4.763571	1.613942	0.000191
   7	5.9700e-01	0.2262	-119.842374	0.000557	5.574392	1.888655	0.000223
   8	6.9650e-01	0.2807	-119.636480	0.000517	5.168982	1.751298	0.000207
   9	7.9600e-01	0.3000	-119.418475	0.000547	5.473039	1.854316	0.000219
  10	8.9550e-01	0.3561	-119.200470	0.000547	5.473039	1.854316	0.000219
  11	9.9500e-01	0.3850	-118.982464	0.000547	5.473039	1.854316	0.000219
  12	1.0945e+00	0.4299	-118.736199	0.000618	6.182508	2.094690	0.000248
  13	1.1940e+00	0.4636	-118.518194	0.000547	5.473039	1.854316	0.000219
  14	1.2935e+00	0.5182	-118.280003	0.000598	5.979802	2.026012	0.000239
  15	1.3930e+00	0.5519	-118.041812	0.000598	5.979802	2.026012	0.000239
  16	1.4925e+00	0.6000	-117.815732	0.000568	5.675745	1.922994	0.000227
  17	1.5920e+00	0.6257	-117.601764	0.000537	5.371687	1.819977	0.000215
  18	1.6915e+00	0.6706	-117.403944	0.000497	4.966277	1.682620	0.000199
  19	1.7910e+00	0.7155	-117.169791	0.000588	5.878450	1.991673	0.000235
  20	1.8905e+00	0.7604	-116.927562	0.000608	6.081155	2.060351	0.000243
  21	1.9900e+00	0.7813	-116.701483	0.000568	5.675745	1.922994	0.000227
  22	2.0895e+00	0.8342	-116.467329	0.000588	5.878450	1.991673	0.000235
  23	2.1890e+00	0.8711	-116.233175	0.000588	5.878450	1.991673	0.000235
  24	2.2885e+00	0.9112	-116.015170	0.000547	5.473039	1.854316	0.000219
  25	2.3880e+00	0.9545	-115.772942	0.000608	6.081155	2.060351	0.000243
  26	2.4875e+00	0.9946	-115.554936	0.000547	5.473039	1.854316	0.000219
  27	2.5870e+00	1.0347	-115.336931	0.000547	5.473039	1.854316	0.000219
  28	2.6865e+00	1.0748	-115.114888	0.000557	5.574392	1.888655	0.000223
  29	2.7860e+00	1.1149	-114.876697	0.000598	5.979802	2.026012	0.000239
  30	2.8855e+00	1.1599	-114.642544	0.000588	5.878450	1.991673	0.000235
  31	2.9850e+00	1.1903	-114.376093	0.000669	6.689270	2.266386	0.000268
  32	3.0845e+00	1.2272	-114.182310	0.000486	4.864924	1.648281	0.000195
  33	3.1840e+00	1.2738	-113.944119	0.000598	5.979802	2.026012	0.000239
  34	3.2835e+00	1.3026	-113.701891	0.000608	6.081155	2.060351	0.000243
  35	3.3830e+00	1.3524	-113.467737	0.000588	5.878450	1.991673	0.000235
  36	3.4825e+00	1.3893	-113.229546	0.000598	5.979802	2.026012	0.000239
  37	3.5820e+00	1.4326	-113.007504	0.000557	5.574392	1.888655	0.000223
  38	3.6815e+00	1.4711	-112.757201	0.000628	6.283860	2.129029	0.000252
  39	3.7810e+00	1.5112	-112.551307	0.000517	5.168982	1.751298	0.000207
  40	3.8805e+00	1.5497	-112.313116	0.000598	5.979802	2.026012	0.000239
  41	3.9800e+00	1.5962	-112.099148	0.000537	5.371687	1.819977	0.000215
  42	4.0795e+00	1.6267	-111.860957	0.000598	5.979802	2.026012	0.000239
  43	4.1790e+00	1.6684	-111.610655	0.000628	6.283860	2.129029	0.000252
  44	4.2785e+00	1.7069	-111.348241	0.000659	6.587918	2.232047	0.000264
  45	4.3780e+00	1.7470	-111.126198	0.000557	5.574392	1.888655	0.000223
  46	4.4775e+00	1.7903	-110.936453	0.000476	4.763571	1.613942	0.000191
  47	4.5770e+00	1.8368	-110.674039	0.000659	6.587918	2.232047	0.000264
  48	4.6765e+00	1.8753	-110.451997	0.000557	5.574392	1.888655	0.000223
  49	4.7760e+00	1.9155	-110.169397	0.000709	7.094681	2.403743	0.000284
  50	4.8755e+00	1.9443	-109.947355	0.000557	5.574392	1.888655	0.000223
  51	4.9750e+00	1.9925	-109.688978	0.000649	6.486565	2.197708	0.000260
  52	5.0745e+00	2.0245	-109.499233	0.000476	4.763571	1.613942	0.000191
  53	5.1740e+00	2.0775	-109.216633	0.000709	7.094681	2.403743	0.000284
  54	5.2735e+00	2.1096	-108.998628	0.000547	5.473039	1.854316	0.000219
  55	5.3730e+00	2.1497	-108.748325	0.000628	6.283860	2.129029	0.000252
  56	5.4725e+00	2.1914	-108.518209	0.000578	5.777097	1.957334	0.000231
  57	5.5720e+00	2.2299	-108.263869	0.000639	6.385213	2.163369	0.000256
  58	5.6715e+00	2.2716	-108.025678	0.000598	5.979802	2.026012	0.000239
  59	5.7710e+00	2.3037	-107.795561	0.000578	5.777097	1.957334	0.000231
  60	5.8705e+00	2.3486	-107.533148	0.000659	6.587918	2.232047	0.000264
  61	5.9700e+00	2.3871	-107.307068	0.000568	5.675745	1.922994	0.000227
  62	6.0695e+00	2.4256	-107.064840	0.000608	6.081155	2.060351	0.000243
  63	6.1690e+00	2.4609	-106.842797	0.000557	5.574392	1.888655	0.000223
  64	6.2685e+00	2.5058	-106.544049	0.000750	7.500091	2.541100	0.000300
  65	6.3680e+00	2.5443	-106.322007	0.000557	5.574392	1.888655	0.000223
  66	6.4675e+00	2.5924	-106.095927	0.000568	5.675745	1.922994	0.000227
  67	6.5670e+00	2.6229	-105.861773	0.000588	5.878450	1.991673	0.000235
  68	6.6665e+00	2.6630	-105.615508	0.000618	6.182508	2.094690	0.000248
  69	6.7660e+00	2.7047	-105.369243	0.000618	6.182508	2.094690	0.000248
  70	6.8655e+00	2.7481	-105.110866	0.000649	6.486565	2.197708	0.000260
  71	6.9650e+00	2.7946	-104.872675	0.000598	5.979802	2.026012	0.000239
  72	7.0645e+00	2.8283	-104.606224	0.000669	6.689270	2.266386	0.000268
  73	7.1640e+00	2.8620	-104.380145	0.000568	5.675745	1.922994	0.000227
  74	7.2635e+00	2.9053	-104.125805	0.000639	6.385213	2.163369	0.000256
  75	7.3630e+00	2.9518	-103.891651	0.000588	5.878450	1.991673	0.000235
  76	7.4625e+00	2.9855	-103.657497	0.000588	5.878450	1.991673	0.000235
  77	7.5620e+00	3.0208	-103.415269	0.000608	6.081155	2.060351	0.000243
  78	7.6615e+00	3.0753	-103.173041	0.000608	6.081155	2.060351	0.000243
  79	7.7610e+00	3.0994	-102.910627	0.000659	6.587918	2.232047	0.000264
  80	7.8605e+00	3.1379	-102.692622	0.000547	5.473039	1.854316	0.000219
  81	7.9600e+00	3.1748	-102.450394	0.000608	6.081155	2.060351	0.000243
  82	8.0595e+00	3.2181	-102.216240	0.000588	5.878450	1.991673	0.000235
  83	8.1590e+00	3.2662	-101.957863	0.000649	6.486565	2.197708	0.000260
  84	8.2585e+00	3.3031	-101.719672	0.000598	5.979802	2.026012	0.000239
  85	8.3580e+00	3.3352	-101.469370	0.000628	6.283860	2.129029	0.000252
  86	8.4575e+00	3.3801	-101.223104	0.000618	6.182508	2.094690	0.000248
  87	8.5570e+00	3.4202	-100.980876	0.000608	6.081155	2.060351	0.000243
  88	8.6565e+00	3.4539	-100.750759	0.000578	5.777097	1.957334	0.000231
  89	8.7560e+00	3.4940	-100.468160	0.000709	7.094681	2.403743	0.000284
  90	8.8555e+00	3.5405	-100.250155	0.000547	5.473039	1.854316	0.000219
  91	8.9550e+00	3.5839	-99.991778	0.000649	6.486565	2.197708	0.000260
  92	9.0545e+00	3.6272	-99.741476	0.000628	6.283860	2.129029	0.000252
  93	9.1540e+00	3.6657	-99.462913	0.000699	6.993328	2.369404	0.000280
  94	9.2535e+00	3.6913	-99.244908	0.000547	5.473039	1.854316	0.000219
  95	9.3530e+00	3.7459	-99.030940	0.000537	5.371687	1.819977	0.000215
  96	9.4525e+00	3.7780	-98.768526	0.000659	6.587918	2.232047	0.000264
  97	9.5520e+00	3.8213	-98.514186	0.000639	6.385213	2.163369	0.000256
  98	9.6515e+00	3.8646	-98.300218	0.000537	5.371687	1.819977	0.000215
  99	9.7510e+00	3.9031	-98.066064	0.000588	5.878450	1.991673	0.000235
 100	9.8505e+00	3.9400	-97.807688	0.000649	6.486565	2.197708	0.000260
 101	9.9500e+00	3.9721	-97.553348	0.000639	6.385213	2.163369	0.000256
 102	1.0050e+01	4.0250	-97.315157	0.000598	5.979802	2.026012	0.000239
 103	1.0149e+01	4.0619	-97.068892	0.000618	6.182508	2.094690	0.000248
 104	1.0248e+01	4.1004	-96.834738	0.000588	5.878450	1.991673	0.000235
 105	1.0348e+01	4.1389	-96.572324	0.000659	6.587918	2.232047	0.000264
 106	1.0447e+01	4.1710	-96.354319	0.000547	5.473039	1.854316	0.000219
 107	1.0547e+01	4.2095	-96.104016	0.000628	6.283860	2.129029	0.000252
 108	1.0646e+01	4.2560	-95.821417	0.000709	7.094681	2.403743	0.000284
 109	1.0746e+01	4.2913	-95.579189	0.000608	6.081155	2.060351	0.000243
 110	1.0845e+01	4.3459	-95.353109	0.000568	5.675745	1.922994	0.000227
 111	1.0945e+01	4.3796	-95.139141	0.000537	5.371687	1.819977	0.000215
 112	1.1044e+01	4.4148	-94.864616	0.000689	6.891976	2.335065	0.000276
 113	1.1144e+01	4.4534	-94.658722	0.000517	5.168982	1.751298	0.000207
 114	1.1243e+01	4.5047	-94.388234	0.000679	6.790623	2.300725	0.000272
 115	1.1343e+01	4.5496	-94.166191	0.000557	5.574392	1.888655	0.000223
 116	1.1443e+01	4.5833	-93.932037	0.000588	5.878450	1.991673	0.000235
 117	1.1542e+01	4.6250	-93.697883	0.000588	5.878450	1.991673	0.000235
 118	1.1642e+01	4.6635	-93.447581	0.000628	6.283860	2.129029	0.000252
 119	1.1741e+01	4.7036	-93.201316	0.000618	6.182508	2.094690	0.000248
 120	1.1841e+01	4.7341	-92.959088	0.000608	6.081155	2.060351	0.000243
 121	1.1940e+01	4.7710	-92.728971	0.000578	5.777097	1.957334	0.000231
 122	1.2040e+01	4.8175	-92.430223	0.000750	7.500091	2.541100	0.000300
 123	1.2139e+01	4.8592	-92.200106	0.000578	5.777097	1.957334	0.000231
 124	1.2239e+01	4.8945	-91.978064	0.000557	5.574392	1.888655	0.000223
 125	1.2338e+01	4.9266	-91.780244	0.000497	4.966277	1.682620	0.000199
 126	1.2438e+01	4.9779	-91.542053	0.000598	5.979802	2.026012	0.000239
 127	1.2537e+01	5.0212	-91.251379	0.000730	7.297386	2.472421	0.000292
 128	1.2636e+01	5.0501	-91.057597	0.000486	4.864924	1.648281	0.000195
 129	1.2736e+01	5.1079	-90.799220	0.000649	6.486565	2.197708	0.000260
 130	1.2835e+01	5.1432	-90.573140	0.000568	5.675745	1.922994	0.000227
 131	1.2935e+01	5.1817	-90.330912	0.000608	6.081155	2.060351	0.000243
 132	1.3034e+01	5.2170	-90.064461	0.000669	6.689270	2.266386	0.000268
 133	1.3134e+01	5.2442	-89.826270	0.000598	5.979802	2.026012	0.000239
 134	1.3233e+01	5.3052	-89.588079	0.000598	5.979802	2.026012	0.000239
 135	1.3333e+01	5.3261	-89.366037	0.000557	5.574392	1.888655	0.000223
 136	1.3432e+01	5.3742	-89.139957	0.000568	5.675745	1.922994	0.000227
 137	1.3532e+01	5.4191	-88.865432	0.000689	6.891976	2.335065	0.000276
 138	1.3632e+01	5.4560	-88.647427	0.000547	5.473039	1.854316	0.000219
 139	1.3731e+01	5.4849	-88.413273	0.000588	5.878450	1.991673	0.000235
 140	1.3831e+01	5.5330	-88.167007	0.000618	6.182508	2.094690	0.000248
 141	1.3930e+01	5.5795	-87.957076	0.000527	5.270334	1.785638	0.000211
 142	1.4030e+01	5.6068	-87.735034	0.000557	5.574392	1.888655	0.000223
 143	1.4129e+01	5.6597	-87.444360	0.000730	7.297386	2.472421	0.000292
 144	1.4229e+01	5.7014	-87.274800	0.000426	4.256808	1.442246	0.000170
 145	1.4328e+01	5.7191	-87.016424	0.000649	6.486565	2.197708	0.000260
 146	1.4428e+01	5.7736	-86.802456	0.000537	5.371687	1.819977	0.000215
 147	1.4527e+01	5.8089	-86.552153	0.000628	6.283860	2.129029	0.000252
 148	1.4627e+01	5.8522	-86.313962	0.000598	5.979802	2.026012	0.000239
 149	1.4726e+01	5.8940	-86.075771	0.000598	5.979802	2.026012	0.000239
 150	1.4825e+01	5.9357	-85.821432	0.000639	6.385213	2.163369	0.000256
 151	1.4925e+01	5.9742	-85.583241	0.000598	5.979802	2.026012	0.000239
 152	1.5024e+01	6.0062	-85.377347	0.000517	5.168982	1.751298	0.000207
 153	1.5124e+01	6.0560	-85.143193	0.000588	5.878450	1.991673	0.000235
 154	1.5223e+01	6.0977	-84.888853	0.000639	6.385213	2.163369	0.000256
 155	1.5323e+01	6.1378	-84.678922	0.000527	5.270334	1.785638	0.000211
 156	1.5422e+01	6.1795	-84.481102	0.000497	4.966277	1.682620	0.000199
 157	1.5522e+01	6.2164	-84.190429	0.000730	7.297386	2.472421	0.000292
 158	1.5621e+01	6.2565	-83.964349	0.000568	5.675745	1.922994	0.000227
 159	1.5721e+01	6.2966	-83.722121	0.000608	6.081155	2.060351	0.000243
 160	1.5820e+01	6.3383	-83.556598	0.000416	4.155456	1.407907	0.000166
 161	1.5920e+01	6.3704	-83.282073	0.000689	6.891976	2.335065	0.000276
 162	1.6020e+01	6.4057	-83.055994	0.000568	5.675745	1.922994	0.000227
 163	1.6119e+01	6.4490	-82.805691	0.000628	6.283860	2.129029	0.000252
 164	1.6218e+01	6.4875	-82.599797	0.000517	5.168982	1.751298	0.000207
 165	1.6318e+01	6.5324	-82.414089	0.000466	4.662219	1.579602	0.000187
 166	1.6418e+01	6.5661	-82.151675	0.000659	6.587918	2.232047	0.000264
 167	1.6517e+01	6.6094	-81.917521	0.000588	5.878450	1.991673	0.000235
 168	1.6616e+01	6.6447	-81.675293	0.000608	6.081155	2.060351	0.000243
 169	1.6716e+01	6.6929	-81.453251	0.000557	5.574392	1.888655	0.000223
 170	1.6816e+01	6.7233	-81.223134	0.000578	5.777097	1.957334	0.000231
 171	1.6915e+01	6.7715	-80.997054	0.000568	5.675745	1.922994	0.000227
 172	1.7015e+01	6.8052	-80.770975	0.000568	5.675745	1.922994	0.000227
 173	1.7114e+01	6.8404	-80.532784	0.000598	5.979802	2.026012	0.000239
 174	1.7213e+01	6.8934	-80.355150	0.000446	4.459514	1.510924	0.000179
 175	1.7313e+01	6.9207	-80.096773	0.000649	6.486565	2.197708	0.000260
 176	1.7413e+01	6.9736	-79.850508	0.000618	6.182508	2.094690	0.000248
 177	1.7512e+01	7.0009	-79.640577	0.000527	5.270334	1.785638	0.000211
 178	1.7611e+01	7.0394	-79.438720	0.000507	5.067629	1.716959	0.000203
 179	1.7711e+01	7.0811	-79.192455	0.000618	6.182508	2.094690	0.000248
 180	1.7811e+01	7.1308	-78.954264	0.000598	5.979802	2.026012	0.000239
 181	1.7910e+01	7.1613	-78.724147	0.000578	5.777097	1.957334	0.000231
 182	1.8009e+01	7.2223	-78.498067	0.000568	5.675745	1.922994	0.000227
 183	1.8109e+01	7.2495	-78.324470	0.000436	4.358161	1.476585	0.000174
 184	1.8209e+01	7.2880	-78.045908	0.000699	6.993328	2.369404	0.000280
 185	1.8308e+01	7.3297	-77.856163	0.000476	4.763571	1.613942	0.000191
 186	1.8407e+01	7.3570	-77.630083	0.000568	5.675745	1.922994	0.000227
 187	1.8507e+01	7.4035	-77.408041	0.000557	5.574392	1.888655	0.000223
 188	1.8607e+01	7.4485	-77.190035	0.000547	5.473039	1.854316	0.000219
 189	1.8706e+01	7.4789	-76.931659	0.000649	6.486565	2.197708	0.000260
 190	1.8805e+01	7.5287	-76.709616	0.000557	5.574392	1.888655	0.000223
 191	1.8905e+01	7.5543	-76.511797	0.000497	4.966277	1.682620	0.000199
 192	1.9005e+01	7.6073	-76.289754	0.000557	5.574392	1.888655	0.000223
 193	1.9104e+01	7.6378	-76.055600	0.000588	5.878450	1.991673	0.000235
 194	1.9203e+01	7.6907	-75.773001	0.000709	7.094681	2.403743	0.000284
 195	1.9303e+01	7.7260	-75.603441	0.000426	4.256808	1.442246	0.000170
 196	1.9402e+01	7.7677	-75.373324	0.000578	5.777097	1.957334	0.000231
 197	1.9502e+01	7.7998	-75.143207	0.000578	5.777097	1.957334	0.000231
 198	1.9602e+01	7.8495	-74.896942	0.000618	6.182508	2.094690	0.000248
 199	1.9701e+01	7.8800	-74.682974	0.000537	5.371687	1.819977	0.000215
 200	1.9800e+01	7.9281	-74.444783	0.000598	5.979802	2.026012	0.000239
 201	1.9900e+01	7.9618	-74.259075	0.000466	4.662219	1.579602	0.000187
 202	2.0000e+01	8.0067	-74.024921	0.000588	5.878450	1.991673	0.000235
 203	2.0099e+01	8.0484	-73.839213	0.000466	4.662219	1.579602	0.000187
 204	2.0198e+01	8.0741	-73.601022	0.000598	5.979802	2.026012	0.000239
 205	2.0298e+01	8.1222	-73.362831	0.000598	5.979802	2.026012	0.000239
 206	2.0398e+01	8.1655	-73.116565	0.000618	6.182508	2.094690	0.000248
 207	2.0497e+01	8.1960	-72.910671	0.000517	5.168982	1.751298	0.000207
 208	2.0596e+01	8.2377	-72.688629	0.000557	5.574392	1.888655	0.000223
 209	2.0696e+01	8.2939	-72.470624	0.000547	5.473039	1.854316	0.000219
 210	2.0796e+01	8.3276	-72.256655	0.000537	5.371687	1.819977	0.000215
 211	2.0895e+01	8.3581	-72.074984	0.000456	4.560866	1.545263	0.000183
 212	2.0994e+01	8.4110	-71.788348	0.000720	7.196033	2.438082	0.000288
 213	2.1094e+01	8.4431	-71.586491	0.000507	5.067629	1.716959	0.000203
 214	2.1194e+01	8.4784	-71.388671	0.000497	4.966277	1.682620	0.000199
 215	2.1293e+01	8.5249	-71.186814	0.000507	5.067629	1.716959	0.000203
 216	2.1392e+01	8.5554	-70.928438	0.000649	6.486565	2.197708	0.000260
 217	2.1492e+01	8.5987	-70.722544	0.000517	5.168982	1.751298	0.000207
 218	2.1591e+01	8.6388	-70.516650	0.000517	5.168982	1.751298	0.000207
 219	2.1691e+01	8.6773	-70.290570	0.000568	5.675745	1.922994	0.000227
 220	2.1791e+01	8.7238	-70.052379	0.000598	5.979802	2.026012	0.000239
 221	2.1890e+01	8.7527	-69.818225	0.000588	5.878450	1.991673	0.000235
 222	2.1989e+01	8.8024	-69.608294	0.000527	5.270334	1.785638	0.000211
 223	2.2089e+01	8.8409	-69.394326	0.000537	5.371687	1.819977	0.000215
 224	2.2189e+01	8.8778	-69.172284	0.000557	5.574392	1.888655	0.000223
 225	2.2288e+01	8.9179	-68.950241	0.000557	5.574392	1.888655	0.000223
 226	2.2387e+01	8.9580	-68.780682	0.000426	4.256808	1.442246	0.000170
 227	2.2487e+01	8.9965	-68.558639	0.000557	5.574392	1.888655	0.000223
 228	2.2587e+01	9.0366	-68.316411	0.000608	6.081155	2.060351	0.000243
 229	2.2686e+01	9.0735	-68.090331	0.000568	5.675745	1.922994	0.000227
 230	2.2785e+01	9.1088	-67.848103	0.000608	6.081155	2.060351	0.000243
 231	2.2885e+01	9.1618	-67.626061	0.000557	5.574392	1.888655	0.000223
 232	2.2985e+01	9.1971	-67.424204	0.000507	5.067629	1.716959	0.000203
 233	2.3084e+01	9.2436	-67.218310	0.000517	5.168982	1.751298	0.000207
 234	2.3183e+01	9.2741	-66.976082	0.000608	6.081155	2.060351	0.000243
 235	2.3283e+01	9.3222	-66.790374	0.000466	4.662219	1.579602	0.000187
 236	2.3383e+01	9.3655	-66.564294	0.000568	5.675745	1.922994	0.000227
 237	2.3482e+01	9.3960	-66.326103	0.000598	5.979802	2.026012	0.000239
 238	2.3581e+01	9.4409	-66.116172	0.000527	5.270334	1.785638	0.000211
 239	2.3681e+01	9.4778	-65.894130	0.000557	5.574392	1.888655	0.000223
 240	2.3780e+01	9.5131	-65.664013	0.000578	5.777097	1.957334	0.000231
 241	2.3880e+01	9.5628	-65.446007	0.000547	5.473039	1.854316	0.000219
 242	2.3980e+01	9.5949	-65.236076	0.000527	5.270334	1.785638	0.000211
 243	2.4079e+01	9.6334	-65.001923	0.000588	5.878450	1.991673	0.000235
 244	2.4178e+01	9.6751	-64.828326	0.000436	4.358161	1.476585	0.000174
 245	2.4278e+01	9.7217	-64.598209	0.000578	5.777097	1.957334	0.000231
 246	2.4378e+01	9.7537	-64.396352	0.000507	5.067629	1.716959	0.000203
 247	2.4477e+01	9.8003	-64.137975	0.000649	6.486565	2.197708	0.000260
 248	2.4576e+01	9.8436	-63.952267	0.000466	4.662219	1.579602	0.000187
 249	2.4676e+01	9.8805	-63.742336	0.000527	5.270334	1.785638	0.000211
 250	2.4776e+01	9.9158	-63.492034	0.000628	6.283860	2.129029	0.000252
 251	2.4875e+01	9.9495	-63.294214	0.000497	4.966277	1.682620	0.000199
 252	2.4974e+01	9.9960	-63.096394	0.000497	4.966277	1.682620	0.000199
 253	2.5074e+01	10.0329	-62.854166	0.000608	6.081155	2.060351	0.000243
 254	2.5174e+01	10.0730	-62.648272	0.000517	5.168982	1.751298	0.000207
 255	2.5273e+01	10.1227	-62.418156	0.000578	5.777097	1.957334	0.000231
 256	2.5372e+01	10.1516	-62.220336	0.000497	4.966277	1.682620	0.000199
 257	2.5472e+01	10.2013	-61.974071	0.000618	6.182508	2.094690	0.000248
 258	2.5572e+01	10.2334	-61.808548	0.000416	4.155456	1.407907	0.000166
 259	2.5671e+01	10.2751	-61.542097	0.000669	6.689270	2.266386	0.000268
 260	2.5770e+01	10.3040	-61.320055	0.000557	5.574392	1.888655	0.000223
 261	2.5870e+01	10.3617	-61.114161	0.000517	5.168982	1.751298	0.000207
 262	2.5970e+01	10.3986	-60.924415	0.000476	4.763571	1.613942	0.000191
 263	2.6069e+01	10.4291	-60.674113	0.000628	6.283860	2.129029	0.000252
 264	2.6169e+01	10.4724	-60.488405	0.000466	4.662219	1.579602	0.000187
 265	2.6268e+01	10.5029	-60.278474	0.000527	5.270334	1.785638	0.000211
 266	2.6367e+01	10.5542	-60.028171	0.000628	6.283860	2.129029	0.000252
 267	2.6467e+01	10.5960	-59.834389	0.000486	4.864924	1.648281	0.000195
 268	2.6567e+01	10.6329	-59.612346	0.000557	5.574392	1.888655	0.000223
 269	2.6666e+01	10.6698	-59.386267	0.000568	5.675745	1.922994	0.000227
 270	2.6765e+01	10.7115	-59.236893	0.000375	3.750046	1.270550	0.000150
 271	2.6865e+01	10.7548	-59.002739	0.000588	5.878450	1.991673	0.000235
 272	2.6965e+01	10.7933	-58.784733	0.000547	5.473039	1.854316	0.000219
 273	2.7064e+01	10.8286	-58.554617	0.000578	5.777097	1.957334	0.000231
 274	2.7163e+01	10.8767	-58.352760	0.000507	5.067629	1.716959	0.000203
 275	2.7263e+01	10.9136	-58.118606	0.000588	5.878450	1.991673	0.000235
 276	2.7363e+01	10.9457	-57.904638	0.000537	5.371687	1.819977	0.000215
 277	2.7462e+01	10.9922	-57.702781	0.000507	5.067629	1.716959	0.000203
 278	2.7561e+01	11.0291	-57.452479	0.000628	6.283860	2.129029	0.000252
 279	2.7661e+01	11.0676	-57.258696	0.000486	4.864924	1.648281	0.000195
 280	2.7761e+01	11.1141	-57.072988	0.000466	4.662219	1.579602	0.000187
 281	2.7860e+01	11.1478	-56.842871	0.000578	5.777097	1.957334	0.000231
 282	2.7959e+01	11.1895	-56.620829	0.000557	5.574392	1.888655	0.000223
 283	2.8059e+01	11.2280	-56.414935	0.000517	5.168982	1.751298	0.000207
 284	2.8159e+01	11.2794	-56.209041	0.000517	5.168982	1.751298	0.000207
 285	2.8258e+01	11.3179	-55.958738	0.000628	6.283860	2.129029	0.000252
 286	2.8358e+01	11.3516	-55.768993	0.000476	4.763571	1.613942	0.000191
 287	2.8457e+01	11.3933	-55.546951	0.000557	5.574392	1.888655	0.000223
 288	2.8556e+01	11.4318	-55.308760	0.000598	5.979802	2.026012	0.000239
 289	2.8656e+01	11.4735	-55.058457	0.000628	6.283860	2.129029	0.000252
 290	2.8756e+01	11.5072	-54.896972	0.000405	4.054103	1.373567	0.000162
 291	2.8855e+01	11.5521	-54.670892	0.000568	5.675745	1.922994	0.000227
 292	2.8954e+01	11.5777	-54.436738	0.000588	5.878450	1.991673	0.000235
 293	2.9054e+01	11.6275	-54.190473	0.000618	6.182508	2.094690	0.000248
 294	2.9154e+01	11.6660	-53.956319	0.000588	5.878450	1.991673	0.000235
 295	2.9253e+01	11.7109	-53.770611	0.000466	4.662219	1.579602	0.000187
 296	2.9352e+01	11.7526	-53.496086	0.000689	6.891976	2.335065	0.000276
 297	2.9452e+01	11.7847	-53.245783	0.000628	6.283860	2.129029	0.000252
 298	2.9552e+01	11.8216	-53.007592	0.000598	5.979802	2.026012	0.000239
 299	2.9651e+01	11.8633	-52.769401	0.000598	5.979802	2.026012	0.000239
 300	2.9750e+01	11.9082	-52.539284	0.000578	5.777097	1.957334	0.000231
 301	2.9850e+01	11.9531	-52.305131	0.000588	5.878450	1.991673	0.000235
 302	2.9950e+01	11.9884	-52.034643	0.000679	6.790623	2.300725	0.000272
 303	3.0049e+01	12.0301	-51.780303	0.000639	6.385213	2.163369	0.000256
 304	3.0148e+01	12.0670	-51.570372	0.000527	5.270334	1.785638	0.000211
 305	3.0248e+01	12.1023	-51.279698	0.000730	7.297386	2.472421	0.000292
 306	3.0348e+01	12.1553	-51.013247	0.000669	6.689270	2.266386	0.000268
 307	3.0447e+01	12.1761	-50.738722	0.000689	6.891976	2.335065	0.000276
 308	3.0547e+01	12.2307	-50.464197	0.000689	6.891976	2.335065	0.000276
 309	3.0646e+01	12.2676	-50.213894	0.000628	6.283860	2.129029	0.000252
 310	3.0745e+01	12.3029	-49.947443	0.000669	6.689270	2.266386	0.000268
 311	3.0845e+01	12.3478	-49.689067	0.000649	6.486565	2.197708	0.000260
 312	3.0945e+01	12.3783	-49.410504	0.000699	6.993328	2.369404	0.000280
 313	3.1044e+01	12.4232	-49.127905	0.000709	7.094681	2.403743	0.000284
 314	3.1143e+01	12.4665	-48.845305	0.000709	7.094681	2.403743	0.000284
 315	3.1243e+01	12.5034	-48.554632	0.000730	7.297386	2.472421	0.000292
 316	3.1343e+01	12.5403	-48.292218	0.000659	6.587918	2.232047	0.000264
 317	3.1442e+01	12.5804	-48.017692	0.000689	6.891976	2.335065	0.000276
 318	3.1541e+01	12.6269	-47.714907	0.000760	7.601444	2.575439	0.000304
 319	3.1641e+01	12.6654	-47.383862	0.000831	8.310912	2.815813	0.000333
 320	3.1741e+01	12.6991	-47.121448	0.000659	6.587918	2.232047	0.000264
 321	3.1840e+01	12.7472	-46.814626	0.000770	7.702796	2.609778	0.000308
 322	3.1939e+01	12.7922	-46.523952	0.000730	7.297386	2.472421	0.000292
 323	3.2039e+01	12.8258	-46.217130	0.000770	7.702796	2.609778	0.000308
 324	3.2139e+01	12.8595	-45.910308	0.000770	7.702796	2.609778	0.000308
 325	3.2238e+01	12.9012	-45.595411	0.000791	7.905501	2.678456	0.000316
 326	3.2337e+01	12.9446	-45.268403	0.000821	8.209559	2.781474	0.000329
 327	3.2437e+01	12.9798	-44.973692	0.000740	7.398739	2.506760	0.000296
 328	3.2536e+01	13.0216	-44.638610	0.000841	8.412264	2.850152	0.000337
 329	3.2636e+01	13.0585	-44.360047	0.000699	6.993328	2.369404	0.000280
 330	3.2736e+01	13.1034	-44.045151	0.000791	7.905501	2.678456	0.000316
 331	3.2835e+01	13.1483	-43.714106	0.000831	8.310912	2.815813	0.000333
 332	3.2934e+01	13.1884	-43.374986	0.000851	8.513617	2.884491	0.000341
 333	3.3034e+01	13.2189	-43.043941	0.000831	8.310912	2.815813	0.000333
 334	3.3133e+01	13.2590	-42.692710	0.000882	8.817675	2.987509	0.000353
 335	3.3233e+01	13.3103	-42.393962	0.000750	7.500091	2.541100	0.000300
 336	3.3333e+01	13.3392	-42.046769	0.000872	8.716322	2.953170	0.000349
 337	3.3432e+01	13.3889	-41.703612	0.000861	8.614969	2.918831	0.000345
 338	3.3532e+01	13.4274	-41.352381	0.000882	8.817675	2.987509	0.000353
 339	3.3631e+01	13.4611	-41.013262	0.000851	8.513617	2.884491	0.000341
 340	3.3730e+01	13.4996	-40.678180	0.000841	8.412264	2.850152	0.000337
 341	3.3830e+01	13.5445	-40.314837	0.000912	9.121732	3.090527	0.000365
 342	3.3929e+01	13.5734	-39.971681	0.000861	8.614969	2.918831	0.000345
 343	3.4029e+01	13.6215	-39.608339	0.000912	9.121732	3.090527	0.000365
 344	3.4129e+01	13.6665	-39.265182	0.000861	8.614969	2.918831	0.000345
 345	3.4228e+01	13.6953	-38.905877	0.000902	9.020380	3.056187	0.000361
 346	3.4328e+01	13.7451	-38.570795	0.000841	8.412264	2.850152	0.000337
 347	3.4427e+01	13.7772	-38.163044	0.001024	10.236611	3.468258	0.000410
 348	3.4526e+01	13.8157	-37.799702	0.000912	9.121732	3.090527	0.000365
 349	3.4626e+01	13.8686	-37.456545	0.000861	8.614969	2.918831	0.000345
 350	3.4725e+01	13.8959	-37.073017	0.000963	9.628495	3.262223	0.000385
 351	3.4825e+01	13.9392	-36.693527	0.000953	9.527143	3.227883	0.000381
 352	3.4925e+01	13.9777	-36.305962	0.000973	9.729848	3.296562	0.000390
 353	3.5024e+01	14.0194	-35.954731	0.000882	8.817675	2.987509	0.000353
 354	3.5123e+01	14.0563	-35.551017	0.001014	10.135258	3.433918	0.000406
 355	3.5223e+01	14.1044	-35.171527	0.000953	9.527143	3.227883	0.000381
 356	3.5322e+01	14.1349	-34.787999	0.000963	9.628495	3.262223	0.000385
 357	3.5422e+01	14.1782	-34.388322	0.001003	10.033906	3.399579	0.000402
 358	3.5522e+01	14.2231	-34.004794	0.000963	9.628495	3.262223	0.000385
 359	3.5621e+01	14.2520	-33.576858	0.001074	10.743374	3.639954	0.000430
 360	3.5721e+01	14.2953	-33.185256	0.000983	9.831200	3.330901	0.000394
 361	3.5820e+01	14.3306	-32.769431	0.001044	10.439316	3.536936	0.000418
 362	3.5919e+01	14.3787	-32.337457	0.001084	10.844726	3.674293	0.000434
 363	3.6019e+01	14.4172	-31.945855	0.000983	9.831200	3.330901	0.000394
 364	3.6118e+01	14.4509	-31.550216	0.000993	9.932553	3.365240	0.000398
 365	3.6218e+01	14.5023	-31.126317	0.001064	10.642021	3.605614	0.000426
 366	3.6318e+01	14.5392	-30.698380	0.001074	10.743374	3.639954	0.000430
 367	3.6417e+01	14.5745	-30.246221	0.001135	11.351489	3.845989	0.000454
 368	3.6517e+01	14.6210	-29.846545	0.001003	10.033906	3.399579	0.000402
 369	3.6616e+01	14.6627	-29.386311	0.001155	11.554194	3.914667	0.000463
 370	3.6715e+01	14.6964	-28.926078	0.001155	11.554194	3.914667	0.000463
 371	3.6815e+01	14.7285	-28.546587	0.000953	9.527143	3.227883	0.000381
 372	3.6914e+01	14.7670	-28.062131	0.001216	12.162310	4.120702	0.000487
 373	3.7014e+01	14.8231	-27.662454	0.001003	10.033906	3.399579	0.000402
 374	3.7114e+01	14.8584	-27.153775	0.001277	12.770425	4.326737	0.000511
 375	3.7213e+01	14.9001	-26.741987	0.001034	10.337963	3.502597	0.000414
 376	3.7313e+01	14.9402	-26.273679	0.001176	11.756900	3.983345	0.000471
 377	3.7412e+01	14.9771	-25.785186	0.001226	12.263662	4.155041	0.000491
 378	3.7511e+01	15.0188	-25.357250	0.001074	10.743374	3.639954	0.000430
 379	3.7611e+01	15.0445	-24.905090	0.001135	11.351489	3.845989	0.000454
 380	3.7711e+01	15.0926	-24.384300	0.001307	13.074483	4.429755	0.000523
 381	3.7810e+01	15.1359	-23.911955	0.001186	11.858252	4.017685	0.000475
 382	3.7910e+01	15.1825	-23.435573	0.001196	11.959605	4.052024	0.000479
 383	3.8009e+01	15.2178	-22.995525	0.001105	11.047431	3.742971	0.000442
 384	3.8108e+01	15.2530	-22.470698	0.001318	13.175836	4.464094	0.000527
 385	3.8208e+01	15.2948	-21.978167	0.001237	12.365015	4.189381	0.000495
 386	3.8307e+01	15.3284	-21.493711	0.001216	12.162310	4.120702	0.000487
 387	3.8407e+01	15.3734	-20.985032	0.001277	12.770425	4.326737	0.000511
 388	3.8507e+01	15.4151	-20.476352	0.001277	12.770425	4.326737	0.000511
 389	3.8606e+01	15.4536	-19.939413	0.001348	13.479893	4.567112	0.000540
 390	3.8706e+01	15.5017	-19.442846	0.001247	12.466368	4.223720	0.000499
 391	3.8805e+01	15.5386	-18.934167	0.001277	12.770425	4.326737	0.000511
 392	3.8904e+01	15.5675	-18.373005	0.001409	14.088009	4.773147	0.000564
 393	3.9004e+01	15.6124	-17.836066	0.001348	13.479893	4.567112	0.000540
 394	3.9103e+01	15.6621	-17.323349	0.001287	12.871778	4.361076	0.000515
 395	3.9203e+01	15.6958	-16.778336	0.001368	13.682599	4.635790	0.000548
 396	3.9303e+01	15.7359	-16.229286	0.001378	13.783951	4.670129	0.000552
 397	3.9402e+01	15.7840	-15.688309	0.001358	13.581246	4.601451	0.000544
 398	3.9502e+01	15.8097	-15.102925	0.001470	14.696124	4.979182	0.000588
 399	3.9601e+01	15.8514	-14.582134	0.001307	13.074483	4.429755	0.000523
 400	3.9700e+01	15.8899	-13.992712	0.001480	14.797477	5.013521	0.000592
 401	3.9800e+01	15.9268	-13.451736	0.001358	13.581246	4.601451	0.000544
 402	3.9900e+01	15.9701	-12.874426	0.001449	14.493419	4.910503	0.000580
 403	3.9999e+01	16.0102	-12.301153	0.001439	14.392067	4.876164	0.000576
 404	4.0099e+01	16.0568	-11.719805	0.001459	14.594772	4.944843	0.000584
 405	4.0198e+01	16.0889	-11.106160	0.001541	15.405593	5.219556	0.000617
 406	4.0297e+01	16.1225	-10.524813	0.001459	14.594772	4.944843	0.000584
 407	4.0397e+01	16.1659	-9.890983	0.001591	15.912355	5.391252	0.000637
 408	4.0496e+01	16.1995	-9.305598	0.001470	14.696124	4.979182	0.000588
 409	4.0596e+01	16.2477	-8.675805	0.001581	15.811003	5.356913	0.000633
 410	4.0696e+01	16.2862	-8.070234	0.001520	15.202887	5.150878	0.000609
 411	4.0795e+01	16.3263	-7.432367	0.001601	16.013708	5.425591	0.000641
 412	4.0895e+01	16.3680	-6.830834	0.001510	15.101535	5.116538	0.000605
 413	4.0994e+01	16.4161	-6.144521	0.001723	17.229939	5.837661	0.000690
 414	4.1093e+01	16.4546	-5.490505	0.001642	16.419118	5.562948	0.000657
 415	4.1193e+01	16.4851	-4.852637	0.001601	16.013708	5.425591	0.000641
 416	4.1292e+01	16.5204	-4.210733	0.001612	16.115061	5.459930	0.000645
 417	4.1392e+01	16.5685	-3.528457	0.001713	17.128586	5.803322	0.000686
 418	4.1492e+01	16.6086	-2.878478	0.001632	16.317766	5.528609	0.000653
 419	4.1591e+01	16.6503	-2.167942	0.001784	17.838054	6.043696	0.000714
 420	4.1691e+01	16.6840	-1.493740	0.001693	16.925881	5.734644	0.000678
 421	4.1790e+01	16.7193	-0.803390	0.001733	17.331292	5.872001	0.000694
 422	4.1889e+01	16.7690	-0.109003	0.001743	17.432644	5.906340	0.000698
 423	4.1989e+01	16.8043	0.617682	0.001824	18.243465	6.181053	0.000730
 424	4.2089e+01	16.8412	1.344366	0.001824	18.243465	6.181053	0.000730
 425	4.2188e+01	16.8894	2.034716	0.001733	17.331292	5.872001	0.000694
 426	4.2288e+01	16.9231	2.777549	0.001865	18.648875	6.318410	0.000747
 427	4.2387e+01	16.9648	3.548642	0.001936	19.358343	6.558784	0.000775
 428	4.2486e+01	17.0113	4.291475	0.001865	18.648875	6.318410	0.000747
 429	4.2586e+01	17.0434	5.006048	0.001794	17.939407	6.078036	0.000718
 430	4.2685e+01	17.0835	5.765030	0.001905	19.054285	6.455767	0.000763
 431	4.2785e+01	17.1236	6.544197	0.001956	19.561048	6.627463	0.000783
 432	4.2885e+01	17.1621	7.311253	0.001926	19.256991	6.524445	0.000771
 433	4.2984e+01	17.2054	8.102531	0.001987	19.865106	6.730480	0.000795
 434	4.3084e+01	17.2407	8.885736	0.001966	19.662401	6.661802	0.000787
 435	4.3183e+01	17.2920	9.705274	0.002057	20.574574	6.970854	0.000824
 436	4.3282e+01	17.3241	10.544999	0.002108	21.081337	7.142550	0.000844
 437	4.3382e+01	17.3610	11.308017	0.001916	19.155638	6.490106	0.000767
 438	4.3481e+01	17.4075	12.200224	0.002240	22.398921	7.588960	0.000897
 439	4.3581e+01	17.4380	13.052060	0.002139	21.385395	7.245568	0.000856
 440	4.3681e+01	17.4829	13.847376	0.001997	19.966459	6.764819	0.000799
 441	4.3780e+01	17.5262	14.715360	0.002179	21.790805	7.382925	0.000872
 442	4.3880e+01	17.5647	15.555084	0.002108	21.081337	7.142550	0.000844
 443	4.3979e+01	17.6000	16.463440	0.002280	22.804331	7.726317	0.000913
 444	4.4078e+01	17.6530	17.327387	0.002169	21.689453	7.348585	0.000868
 445	4.4178e+01	17.6915	18.239779	0.002291	22.905684	7.760656	0.000917
 446	4.4278e+01	17.7188	19.152172	0.002291	22.905684	7.760656	0.000917
 447	4.4377e+01	17.7589	20.056490	0.002270	22.702978	7.691977	0.000909
 448	4.4477e+01	17.8038	20.985032	0.002331	23.311094	7.898012	0.000933
 449	4.4576e+01	17.8327	21.905499	0.002311	23.108389	7.829334	0.000925
 450	4.4675e+01	17.8824	22.825965	0.002311	23.108389	7.829334	0.000925
 451	4.4775e+01	17.9225	23.806989	0.002463	24.628678	8.344422	0.000986
 452	4.4874e+01	17.9658	24.779939	0.002443	24.425972	8.275743	0.000978
 453	4.4974e+01	18.0027	25.748852	0.002432	24.324620	8.241404	0.000974
 454	4.5074e+01	18.0412	26.741987	0.002493	24.932735	8.447439	0.000998
 455	4.5173e+01	18.0861	27.751271	0.002534	25.338146	8.584796	0.001014
 456	4.5273e+01	18.1150	28.724221	0.002443	24.425972	8.275743	0.000978
 457	4.5372e+01	18.1615	29.790025	0.002676	26.757082	9.065545	0.001071
 458	4.5471e+01	18.1968	30.807383	0.002554	25.540851	8.653474	0.001022
 459	4.5571e+01	18.2417	31.869150	0.002666	26.655729	9.031206	0.001067
 460	4.5670e+01	18.2866	32.955139	0.002726	27.263845	9.237241	0.001091
 461	4.5770e+01	18.3187	33.972497	0.002554	25.540851	8.653474	0.001022
 462	4.5870e+01	18.3588	35.082710	0.002787	27.871960	9.443276	0.001116
 463	4.5969e+01	18.4022	36.200996	0.002807	28.074665	9.511954	0.001124
 464	4.6069e+01	18.4407	37.323320	0.002818	28.176018	9.546293	0.001128
 465	4.6168e+01	18.4840	38.421421	0.002757	27.567902	9.340258	0.001104
 466	4.6267e+01	18.5209	39.551819	0.002838	28.378723	9.614972	0.001136
 467	4.6367e+01	18.5642	40.726625	0.002949	29.493601	9.992703	0.001181
 468	4.6467e+01	18.6059	41.881246	0.002899	28.986839	9.821007	0.001160
 469	4.6566e+01	18.6412	43.043941	0.002919	29.189544	9.889685	0.001169
 470	4.6666e+01	18.6781	44.275268	0.003091	30.912538	10.473451	0.001238
 471	4.6765e+01	18.7166	45.470260	0.003000	30.000364	10.164399	0.001201
 472	4.6864e+01	18.7631	46.689475	0.003061	30.608480	10.370434	0.001225
 473	4.6964e+01	18.7968	47.965210	0.003203	32.027416	10.851182	0.001282
 474	4.7063e+01	18.8417	49.208648	0.003122	31.216595	10.576469	0.001250
 475	4.7163e+01	18.8866	50.488420	0.003213	32.128769	10.885521	0.001286
 476	4.7263e+01	18.9219	51.760117	0.003193	31.926063	10.816843	0.001278
 477	4.7362e+01	18.9572	53.080261	0.003314	33.142294	11.228913	0.001327
 478	4.7462e+01	18.9989	54.368107	0.003233	32.331474	10.954200	0.001294
 479	4.7561e+01	19.0422	55.668065	0.003264	32.635532	11.057217	0.001306
 480	4.7660e+01	19.0711	57.052802	0.003476	34.763936	11.778340	0.001392
 481	4.7760e+01	19.1176	58.413317	0.003416	34.155820	11.572305	0.001367
 482	4.7859e+01	19.1561	59.838426	0.003578	35.777462	12.121732	0.001432
 483	4.7959e+01	19.1946	61.223163	0.003476	34.763936	11.778340	0.001392
 484	4.8059e+01	19.2476	62.620012	0.003507	35.067993	11.881358	0.001404
 485	4.8158e+01	19.2813	64.069344	0.003639	36.385577	12.327767	0.001457
 486	4.8258e+01	19.3278	65.550973	0.003720	37.196398	12.602481	0.001489
 487	4.8357e+01	19.3535	66.980119	0.003588	35.878814	12.156071	0.001436
 488	4.8456e+01	19.3920	68.502119	0.003821	38.209924	12.945873	0.001530
 489	4.8556e+01	19.4305	69.999897	0.003760	37.601808	12.739837	0.001505
 490	4.8656e+01	19.4802	71.513822	0.003801	38.007218	12.877194	0.001522
 491	4.8755e+01	19.5203	73.112528	0.004014	40.135623	13.598317	0.001607
 492	4.8855e+01	19.5572	74.650677	0.003862	38.615334	13.083229	0.001546
 493	4.8954e+01	19.6005	76.273605	0.004074	40.743738	13.804352	0.001631
 494	4.9053e+01	19.6406	77.876348	0.004024	40.236975	13.632656	0.001611
 495	4.9153e+01	19.6775	79.499277	0.004074	40.743738	13.804352	0.001631
 496	4.9252e+01	19.7192	81.134317	0.004105	41.047796	13.907370	0.001643
 497	4.9352e+01	19.7625	82.817803	0.004226	42.264027	14.319440	0.001692
 498	4.9452e+01	19.7850	84.525511	0.004287	42.872142	14.525475	0.001716
 499	4.9551e+01	19.8476	86.213034	0.004237	42.365379	14.353779	0.001696
 500	4.9651e+01	19.8780	87.985336	0.004449	44.493784	15.074902	0.001781
 501	4.9750e+01	19.9149	89.733416	0.004389	43.885668	14.868867	0.001757
 502	4.9849e+01	19.9534	91.586461	0.004652	46.520835	15.761686	0.001862
 503	4.9949e+01	19.9952	93.358764	0.004449	44.493784	15.074902	0.001781
 504	5.0048e+01	19.9583	94.808096	-0.003639	-36.385577	-12.327767	0.001457
 505	5.0148e+01	19.9133	96.124202	-0.003304	-33.040942	-11.194574	0.001323
 506	5.0248e+01	19.8732	97.391863	-0.003182	-31.824711	-10.782504	0.001274
 507	5.0347e+01	19.8412	98.546483	-0.002899	-28.986839	-9.821007	0.001160
 508	5.0447e+01	19.7962	99.676881	-0.002838	-28.378723	-9.614972	0.001136
 509	5.0546e+01	19.7481	100.750759	-0.002696	-26.959787	-9.134223	0.001079
 510	5.0645e+01	19.7208	101.792340	-0.002615	-26.148966	-8.859510	0.001047
 511	5.0745e+01	19.6759	102.765290	-0.002443	-24.425972	-8.275743	0.000978
 512	5.0844e+01	19.6310	103.685757	-0.002311	-23.108389	-7.829334	0.000925
 513	5.0944e+01	19.6005	104.586038	-0.002260	-22.601626	-7.657638	0.000905
 514	5.1044e+01	19.5508	105.437874	-0.002139	-21.385395	-7.245568	0.000856
 515	5.1143e+01	19.5187	106.237227	-0.002007	-20.067811	-6.799159	0.000803
 516	5.1242e+01	19.4802	107.012357	-0.001946	-19.459696	-6.593123	0.000779
 517	5.1342e+01	19.4337	107.791524	-0.001956	-19.561048	-6.627463	0.000783
 518	5.1441e+01	19.3936	108.502060	-0.001784	-17.838054	-6.043696	0.000714
 519	5.1541e+01	19.3551	109.164150	-0.001662	-16.621824	-5.631626	0.000665
 520	5.1641e+01	19.3198	109.830278	-0.001672	-16.723176	-5.665965	0.000669
 521	5.1740e+01	19.2749	110.476219	-0.001622	-16.216413	-5.494270	0.000649
 522	5.1840e+01	19.2364	111.085827	-0.001530	-15.304240	-5.185217	0.000613
 523	5.1939e+01	19.1979	111.651026	-0.001419	-14.189362	-4.807486	0.000568
 524	5.2038e+01	19.1610	112.220262	-0.001429	-14.290714	-4.841825	0.000572
 525	5.2138e+01	19.1160	112.737015	-0.001297	-12.973131	-4.395416	0.000519
 526	5.2237e+01	19.0727	113.205323	-0.001176	-11.756900	-3.983345	0.000471
 527	5.2337e+01	19.0390	113.714002	-0.001277	-12.770425	-4.326737	0.000511
 528	5.2437e+01	19.0086	114.162124	-0.001125	-11.250137	-3.811649	0.000450
 529	5.2536e+01	18.9508	114.614284	-0.001135	-11.351489	-3.845989	0.000454
 530	5.2636e+01	18.9171	115.050294	-0.001095	-10.946079	-3.708632	0.000438
 531	5.2735e+01	18.8802	115.462082	-0.001034	-10.337963	-3.502597	0.000414
 532	5.2834e+01	18.8369	115.809276	-0.000872	-8.716322	-2.953170	0.000349
 533	5.2934e+01	18.7872	116.196841	-0.000973	-9.729848	-3.296562	0.000390
 534	5.3033e+01	18.7551	116.564220	-0.000922	-9.223085	-3.124866	0.000369
 535	5.3133e+01	18.7198	116.846820	-0.000709	-7.094681	-2.403743	0.000284
 536	5.3233e+01	18.6845	117.165753	-0.000801	-8.006854	-2.712796	0.000321
 537	5.3332e+01	18.6364	117.448353	-0.000709	-7.094681	-2.403743	0.000284
 538	5.3431e+01	18.6043	117.747101	-0.000750	-7.500091	-2.541100	0.000300
 539	5.3531e+01	18.5626	118.029700	-0.000709	-7.094681	-2.403743	0.000284
 540	5.3630e+01	18.5305	118.280003	-0.000628	-6.283860	-2.129029	0.000252
 541	5.3730e+01	18.4824	118.510120	-0.000578	-5.777097	-1.957334	0.000231
 542	5.3830e+01	18.4503	118.752348	-0.000608	-6.081155	-2.060351	0.000243
 543	5.3929e+01	18.4070	118.970353	-0.000547	-5.473039	-1.854316	0.000219
 544	5.4029e+01	18.3620	119.164136	-0.000486	-4.864924	-1.648281	0.000195
 545	5.4128e+01	18.3171	119.337732	-0.000436	-4.358161	-1.476585	0.000174
 546	5.4227e+01	18.2850	119.527478	-0.000476	-4.763571	-1.613942	0.000191
 547	5.4327e+01	18.2337	119.656666	-0.000324	-3.243283	-1.098854	0.000130
 548	5.4426e+01	18.1904	119.806040	-0.000375	-3.750046	-1.270550	0.000150
 549	5.4526e+01	18.1663	119.967526	-0.000405	-4.054103	-1.373567	0.000162
 550	5.4626e+01	18.1150	120.124974	-0.000395	-3.952751	-1.339228	0.000158
 551	5.4725e+01	18.0893	120.258199	-0.000334	-3.344635	-1.133193	0.000134
 552	5.4825e+01	18.0460	120.351053	-0.000233	-2.331109	-0.789801	0.000093
 553	5.4924e+01	18.0027	120.488316	-0.000345	-3.445988	-1.167532	0.000138
 554	5.5023e+01	17.9610	120.536762	-0.000122	-1.216231	-0.412070	0.000049
 555	5.5123e+01	17.9209	120.674024	-0.000345	-3.445988	-1.167532	0.000138
 556	5.5222e+01	17.8824	120.682099	-0.000020	-0.202705	-0.068678	0.000008
 557	5.5322e+01	17.8439	120.783027	-0.000253	-2.533815	-0.858480	0.000101
 558	5.5422e+01	17.8038	120.855695	-0.000182	-1.824346	-0.618105	0.000073
 559	5.5521e+01	17.7653	120.928364	-0.000182	-1.824346	-0.618105	0.000073
 560	5.5620e+01	17.7188	120.968735	-0.000101	-1.013526	-0.343392	0.000041
 561	5.5720e+01	17.6899	121.013144	-0.000111	-1.114878	-0.377731	0.000045
 562	5.5819e+01	17.6401	121.029292	-0.000041	-0.405410	-0.137357	0.000016
 563	5.5919e+01	17.6161	121.110035	-0.000203	-2.027052	-0.686784	0.000081
 564	5.6019e+01	17.5615	121.085812	0.000061	0.608115	0.206035	-0.000024
 565	5.6118e+01	17.5295	121.105998	-0.000051	-0.506763	-0.171696	0.000020
 566	5.6218e+01	17.4829	121.105998	-0.000000	-0.000000	-0.000000	0.000000
 567	5.6317e+01	17.4428	121.110035	-0.000010	-0.101353	-0.034339	0.000004
 568	5.6416e+01	17.4075	121.126184	-0.000041	-0.405410	-0.137357	0.000016
 569	5.6516e+01	17.3658	121.105998	0.000051	0.506763	0.171696	-0.000020
 570	5.6615e+01	17.3257	121.110035	-0.000010	-0.101353	-0.034339	0.000004
 571	5.6715e+01	17.2888	121.065627	0.000111	1.114878	0.377731	-0.000045
 572	5.6815e+01	17.2423	121.089849	-0.000061	-0.608115	-0.206035	0.000024
 573	5.6914e+01	17.2086	121.001032	0.000223	2.229757	0.755462	-0.000089
 574	5.7014e+01	17.1765	121.001032	-0.000000	-0.000000	-0.000000	0.000000
 575	5.7113e+01	17.1284	120.976810	0.000061	0.608115	0.206035	-0.000024
 576	5.7212e+01	17.0947	120.952587	0.000061	0.608115	0.206035	-0.000024
 577	5.7312e+01	17.0466	120.887993	0.000162	1.621641	0.549427	-0.000065
 578	5.7411e+01	17.0049	120.823398	0.000162	1.621641	0.549427	-0.000065
 579	5.7511e+01	16.9648	120.783027	0.000101	1.013526	0.343392	-0.000041
 580	5.7611e+01	16.9231	120.726507	0.000142	1.418936	0.480749	-0.000057
 581	5.7710e+01	16.8829	120.629616	0.000243	2.432462	0.824140	-0.000097
 582	5.7809e+01	16.8557	120.573096	0.000142	1.418936	0.480749	-0.000057
 583	5.7909e+01	16.8075	120.524650	0.000122	1.216231	0.412070	-0.000049
 584	5.8008e+01	16.7819	120.480242	0.000111	1.114878	0.377731	-0.000045
 585	5.8108e+01	16.7257	120.379313	0.000253	2.533815	0.858480	-0.000101
 586	5.8208e+01	16.6888	120.322794	0.000142	1.418936	0.480749	-0.000057
 587	5.8307e+01	16.6487	120.201679	0.000304	3.040577	1.030176	-0.000122
 588	5.8407e+01	16.6086	120.104788	0.000243	2.432462	0.824140	-0.000097
 589	5.8506e+01	16.5685	120.044231	0.000152	1.520289	0.515088	-0.000061
 590	5.8605e+01	16.5252	119.987711	0.000142	1.418936	0.480749	-0.000057
 591	5.8705e+01	16.4771	119.882746	0.000264	2.635167	0.892819	-0.000105
 592	5.8804e+01	16.4546	119.797966	0.000213	2.128404	0.721123	-0.000085
 593	5.8904e+01	16.4113	119.693000	0.000264	2.635167	0.892819	-0.000105
 594	5.9004e+01	16.3616	119.592072	0.000253	2.533815	0.858480	-0.000101
 595	5.9103e+01	16.3263	119.474995	0.000294	2.939225	0.995836	-0.000118
 596	5.9203e+01	16.3006	119.414438	0.000152	1.520289	0.515088	-0.000061
 597	5.9302e+01	16.2477	119.289287	0.000314	3.141930	1.064515	-0.000126
 598	5.9401e+01	16.2124	119.180284	0.000274	2.736520	0.927158	-0.000110
 599	5.9501e+01	16.1675	119.067244	0.000284	2.837872	0.961497	-0.000114
 600	5.9600e+01	16.1306	118.962279	0.000264	2.635167	0.892819	-0.000105
 601	5.9700e+01	16.0824	118.849239	0.000284	2.837872	0.961497	-0.000114
 602	5.9800e+01	16.0487	118.756385	0.000233	2.331109	0.789801	-0.000093
 603	5.9899e+01	16.0054	118.647382	0.000274	2.736520	0.927158	-0.000110
 604	5.9998e+01	15.9685	118.534342	0.000284	2.837872	0.961497	-0.000114
 605	6.0098e+01	15.9300	118.445525	0.000223	2.229757	0.755462	-0.000089
 606	6.0197e+01	15.8915	118.316337	0.000324	3.243283	1.098854	-0.000130
 607	6.0297e+01	15.8530	118.239631	0.000193	1.925699	0.652445	-0.000077
 608	6.0397e+01	15.8161	118.070072	0.000426	4.256808	1.442246	-0.000170
 609	6.0496e+01	15.7744	117.977218	0.000233	2.331109	0.789801	-0.000093
 610	6.0596e+01	15.7407	117.831881	0.000365	3.648693	1.236211	-0.000146
 611	6.0695e+01	15.6910	117.775361	0.000142	1.418936	0.480749	-0.000057
 612	6.0794e+01	15.6541	117.577541	0.000497	4.966277	1.682620	-0.000199
 613	6.0894e+01	15.6124	117.484687	0.000233	2.331109	0.789801	-0.000093
 614	6.0993e+01	15.5659	117.323202	0.000405	4.054103	1.373567	-0.000162
 615	6.1093e+01	15.5306	117.173828	0.000375	3.750046	1.270550	-0.000150
 616	6.1193e+01	15.4825	117.080974	0.000233	2.331109	0.789801	-0.000093
 617	6.1292e+01	15.4568	116.967934	0.000284	2.837872	0.961497	-0.000114
 618	6.1392e+01	15.4167	116.818560	0.000375	3.750046	1.270550	-0.000150
 619	6.1491e+01	15.3750	116.709557	0.000274	2.736520	0.927158	-0.000110
 620	6.1590e+01	15.3317	116.580369	0.000324	3.243283	1.098854	-0.000130
 621	6.1690e+01	15.2948	116.406772	0.000436	4.358161	1.476585	-0.000174
 622	6.1789e+01	15.2546	116.261435	0.000365	3.648693	1.236211	-0.000146
 623	6.1889e+01	15.2161	116.132247	0.000324	3.243283	1.098854	-0.000130
 624	6.1989e+01	15.1760	116.015170	0.000294	2.939225	0.995836	-0.000118
 625	6.2088e+01	15.1407	115.890018	0.000314	3.141930	1.064515	-0.000126
 626	6.2188e+01	15.0958	115.760830	0.000324	3.243283	1.098854	-0.000130
 627	6.2287e+01	15.0573	115.611456	0.000375	3.750046	1.270550	-0.000150
 628	6.2386e+01	15.0204	115.474194	0.000345	3.445988	1.167532	-0.000138
 629	6.2486e+01	14.9707	115.336931	0.000345	3.445988	1.167532	-0.000138
 630	6.2586e+01	14.9306	115.195631	0.000355	3.547340	1.201871	-0.000142
 631	6.2685e+01	14.9033	115.062406	0.000334	3.344635	1.133193	-0.000134
 632	6.2785e+01	14.8600	114.945329	0.000294	2.939225	0.995836	-0.000118
 633	6.2884e+01	14.8167	114.795955	0.000375	3.750046	1.270550	-0.000150
 634	6.2983e+01	14.7782	114.678878	0.000294	2.939225	0.995836	-0.000118
 635	6.3083e+01	14.7429	114.501244	0.000446	4.459514	1.510924	-0.000179
 636	6.3182e+01	14.7028	114.380130	0.000304	3.040577	1.030176	-0.000122
 637	6.3282e+01	14.6579	114.190384	0.000476	4.763571	1.613942	-0.000191
 638	6.3382e+01	14.6162	114.073307	0.000294	2.939225	0.995836	-0.000118
 639	6.3481e+01	14.5745	113.940082	0.000334	3.344635	1.133193	-0.000134
 640	6.3581e+01	14.5311	113.802819	0.000345	3.445988	1.167532	-0.000138
 641	6.3680e+01	14.4975	113.657482	0.000365	3.648693	1.236211	-0.000146
 642	6.3779e+01	14.4670	113.495997	0.000405	4.054103	1.373567	-0.000162
 643	6.3879e+01	14.4188	113.350660	0.000365	3.648693	1.236211	-0.000146
 644	6.3978e+01	14.3836	113.205323	0.000365	3.648693	1.236211	-0.000146
 645	6.4078e+01	14.3386	113.043838	0.000405	4.054103	1.373567	-0.000162
 646	6.4177e+01	14.2905	112.898501	0.000365	3.648693	1.236211	-0.000146
 647	6.4277e+01	14.2520	112.753164	0.000365	3.648693	1.236211	-0.000146
 648	6.4376e+01	14.2231	112.587641	0.000416	4.155456	1.407907	-0.000166
 649	6.4476e+01	14.1734	112.442305	0.000365	3.648693	1.236211	-0.000146
 650	6.4576e+01	14.1397	112.272745	0.000426	4.256808	1.442246	-0.000170
 651	6.4675e+01	14.0964	112.151631	0.000304	3.040577	1.030176	-0.000122
 652	6.4775e+01	14.0531	111.990145	0.000405	4.054103	1.373567	-0.000162
 653	6.4874e+01	14.0226	111.864994	0.000314	3.141930	1.064515	-0.000126
 654	6.4974e+01	13.9809	111.719657	0.000365	3.648693	1.236211	-0.000146
 655	6.5073e+01	13.9360	111.542023	0.000446	4.459514	1.510924	-0.000179
 656	6.5172e+01	13.9055	111.388612	0.000385	3.851398	1.304889	-0.000154
 657	6.5272e+01	13.8558	111.231164	0.000395	3.952751	1.339228	-0.000158
 658	6.5371e+01	13.8205	111.081790	0.000375	3.750046	1.270550	-0.000150
 659	6.5471e+01	13.7820	110.924342	0.000395	3.952751	1.339228	-0.000158
 660	6.5570e+01	13.7370	110.742670	0.000456	4.560866	1.545263	-0.000183
 661	6.5670e+01	13.7050	110.585222	0.000395	3.952751	1.339228	-0.000158
 662	6.5769e+01	13.6568	110.439885	0.000365	3.648693	1.236211	-0.000146
 663	6.5869e+01	13.6247	110.298585	0.000355	3.547340	1.201871	-0.000142
 664	6.5969e+01	13.5734	110.133063	0.000416	4.155456	1.407907	-0.000166
 665	6.6068e+01	13.5333	109.995800	0.000345	3.445988	1.167532	-0.000138
 666	6.6168e+01	13.4964	109.806055	0.000476	4.763571	1.613942	-0.000191
 667	6.6267e+01	13.4611	109.672829	0.000334	3.344635	1.133193	-0.000134
 668	6.6367e+01	13.4242	109.535567	0.000345	3.445988	1.167532	-0.000138
 669	6.6466e+01	13.3793	109.345821	0.000476	4.763571	1.613942	-0.000191
 670	6.6566e+01	13.3392	109.196447	0.000375	3.750046	1.270550	-0.000150
 671	6.6665e+01	13.3007	109.059185	0.000345	3.445988	1.167532	-0.000138
 672	6.6764e+01	13.2606	108.877514	0.000456	4.560866	1.545263	-0.000183
 673	6.6864e+01	13.2141	108.703917	0.000436	4.358161	1.476585	-0.000174
 674	6.6963e+01	13.1852	108.550506	0.000385	3.851398	1.304889	-0.000154
 675	6.7063e+01	13.1435	108.397095	0.000385	3.851398	1.304889	-0.000154
 676	6.7162e+01	13.0986	108.231572	0.000416	4.155456	1.407907	-0.000166
 677	6.7262e+01	13.0552	108.041827	0.000476	4.763571	1.613942	-0.000191
 678	6.7362e+01	13.0312	107.896490	0.000365	3.648693	1.236211	-0.000146
 679	6.7461e+01	12.9895	107.726930	0.000426	4.256808	1.442246	-0.000170
 680	6.7561e+01	12.9301	107.573519	0.000385	3.851398	1.304889	-0.000154
 681	6.7660e+01	12.9157	107.420108	0.000385	3.851398	1.304889	-0.000154
 682	6.7760e+01	12.8611	107.242474	0.000446	4.459514	1.510924	-0.000179
 683	6.7859e+01	12.8242	107.068877	0.000436	4.358161	1.476585	-0.000174
 684	6.7959e+01	12.7873	106.911429	0.000395	3.952751	1.339228	-0.000158
 685	6.8058e+01	12.7472	106.749943	0.000405	4.054103	1.373567	-0.000162
 686	6.8157e+01	12.7023	106.612681	0.000345	3.445988	1.167532	-0.000138
 687	6.8257e+01	12.6670	106.418898	0.000486	4.864924	1.648281	-0.000195
 688	6.8356e+01	12.6221	106.237227	0.000456	4.560866	1.545263	-0.000183
 689	6.8456e+01	12.5836	106.067667	0.000426	4.256808	1.442246	-0.000170
 690	6.8555e+01	12.5483	105.918293	0.000375	3.750046	1.270550	-0.000150
 691	6.8655e+01	12.5130	105.740659	0.000446	4.459514	1.510924	-0.000179
 692	6.8754e+01	12.4713	105.579174	0.000405	4.054103	1.373567	-0.000162
 693	6.8854e+01	12.4296	105.421726	0.000395	3.952751	1.339228	-0.000158
 694	6.8954e+01	12.3943	105.256203	0.000416	4.155456	1.407907	-0.000166
 695	6.9053e+01	12.3510	105.038198	0.000547	5.473039	1.854316	-0.000219
 696	6.9153e+01	12.3077	104.904972	0.000334	3.344635	1.133193	-0.000134
 697	6.9252e+01	12.2676	104.747524	0.000395	3.952751	1.339228	-0.000158
 698	6.9352e+01	12.2243	104.577964	0.000426	4.256808	1.442246	-0.000170
 699	6.9451e+01	12.1777	104.428590	0.000375	3.750046	1.270550	-0.000150
 700	6.9550e+01	12.1456	104.206548	0.000557	5.574392	1.888655	-0.000223
 701	6.9650e+01	12.1136	104.057174	0.000375	3.750046	1.270550	-0.000150
 702	6.9749e+01	12.0638	103.907800	0.000375	3.750046	1.270550	-0.000150
 703	6.9849e+01	12.0253	103.705943	0.000507	5.067629	1.716959	-0.000203
 704	6.9948e+01	11.9804	103.532346	0.000436	4.358161	1.476585	-0.000174
 705	7.0048e+01	11.9531	103.366823	0.000416	4.155456	1.407907	-0.000166
 706	7.0147e+01	11.9066	103.128632	0.000598	5.979802	2.026012	-0.000239
 707	7.0247e+01	11.8665	103.043853	0.000213	2.128404	0.721123	-0.000085
 708	7.0347e+01	11.8280	102.886404	0.000395	3.952751	1.339228	-0.000158
 709	7.0446e+01	11.8023	102.704733	0.000456	4.560866	1.545263	-0.000183
 710	7.0546e+01	11.7398	102.494802	0.000527	5.270334	1.785638	-0.000211
 711	7.0645e+01	11.7077	102.357540	0.000345	3.445988	1.167532	-0.000138
 712	7.0745e+01	11.6724	102.151646	0.000517	5.168982	1.751298	-0.000207
 713	7.0844e+01	11.6339	101.965937	0.000466	4.662219	1.579602	-0.000187
 714	7.0944e+01	11.5906	101.812526	0.000385	3.851398	1.304889	-0.000154
 715	7.1043e+01	11.5505	101.663152	0.000375	3.750046	1.270550	-0.000150
 716	7.1142e+01	11.5120	101.445147	0.000547	5.473039	1.854316	-0.000219
 717	7.1242e+01	11.4703	101.295773	0.000375	3.750046	1.270550	-0.000150
 718	7.1341e+01	11.4414	101.110065	0.000466	4.662219	1.579602	-0.000187
 719	7.1441e+01	11.3933	100.940505	0.000426	4.256808	1.442246	-0.000170
 720	7.1540e+01	11.3451	100.754797	0.000466	4.662219	1.579602	-0.000187
 721	7.1640e+01	11.3114	100.589274	0.000416	4.155456	1.407907	-0.000166
 722	7.1740e+01	11.2681	100.427789	0.000405	4.054103	1.373567	-0.000162
 723	7.1839e+01	11.2280	100.246118	0.000456	4.560866	1.545263	-0.000183
 724	7.1939e+01	11.1927	100.060409	0.000466	4.662219	1.579602	-0.000187
 725	7.2038e+01	11.1526	99.886812	0.000436	4.358161	1.476585	-0.000174
 726	7.2138e+01	11.1077	99.693030	0.000486	4.864924	1.648281	-0.000195
 727	7.2237e+01	11.0660	99.491173	0.000507	5.067629	1.716959	-0.000203
 728	7.2337e+01	11.0339	99.370059	0.000304	3.040577	1.030176	-0.000122
 729	7.2436e+01	10.9906	99.168202	0.000507	5.067629	1.716959	-0.000203
 730	7.2535e+01	10.9473	98.994605	0.000436	4.358161	1.476585	-0.000174
 731	7.2635e+01	10.9024	98.804860	0.000476	4.763571	1.613942	-0.000191
 732	7.2734e+01	10.8767	98.627226	0.000446	4.459514	1.510924	-0.000179
 733	7.2834e+01	10.8398	98.437481	0.000476	4.763571	1.613942	-0.000191
 734	7.2933e+01	10.7997	98.320404	0.000294	2.939225	0.995836	-0.000118
 735	7.3033e+01	10.7403	98.082213	0.000598	5.979802	2.026012	-0.000239
 736	7.3132e+01	10.7099	97.920727	0.000405	4.054103	1.373567	-0.000162
 737	7.3232e+01	10.6746	97.751168	0.000426	4.256808	1.442246	-0.000170
 738	7.3332e+01	10.6377	97.569497	0.000456	4.560866	1.545263	-0.000183
 739	7.3431e+01	10.5927	97.391863	0.000446	4.459514	1.510924	-0.000179
 740	7.3531e+01	10.5542	97.185969	0.000517	5.168982	1.751298	-0.000207
 741	7.3630e+01	10.5190	97.020446	0.000416	4.155456	1.407907	-0.000166
 742	7.3730e+01	10.4772	96.850886	0.000426	4.256808	1.442246	-0.000170
 743	7.3829e+01	10.4275	96.657104	0.000486	4.864924	1.648281	-0.000195
 744	7.3928e+01	10.3874	96.495618	0.000405	4.054103	1.373567	-0.000162
 745	7.4028e+01	10.3601	96.309910	0.000466	4.662219	1.579602	-0.000187
 746	7.4127e+01	10.3216	96.140350	0.000426	4.256808	1.442246	-0.000170
 747	7.4227e+01	10.2799	95.922345	0.000547	5.473039	1.854316	-0.000219
 748	7.4326e+01	10.2302	95.760860	0.000405	4.054103	1.373567	-0.000162
 749	7.4426e+01	10.1901	95.579189	0.000456	4.560866	1.545263	-0.000183
 750	7.4525e+01	10.1500	95.389443	0.000476	4.763571	1.613942	-0.000191
 751	7.4625e+01	10.1147	95.236032	0.000385	3.851398	1.304889	-0.000154
 752	7.4725e+01	10.0746	94.981693	0.000639	6.385213	2.163369	-0.000256
 753	7.4824e+01	10.0232	94.860578	0.000304	3.040577	1.030176	-0.000122
 754	7.4924e+01	9.9976	94.662759	0.000497	4.966277	1.682620	-0.000199
 755	7.5023e+01	9.9559	94.473013	0.000476	4.763571	1.613942	-0.000191
 756	7.5123e+01	9.9142	94.275194	0.000497	4.966277	1.682620	-0.000199
 757	7.5222e+01	9.8773	94.093523	0.000456	4.560866	1.545263	-0.000183
 758	7.5322e+01	9.8404	93.903777	0.000476	4.763571	1.613942	-0.000191
 759	7.5421e+01	9.8083	93.750366	0.000385	3.851398	1.304889	-0.000154
 760	7.5520e+01	9.7505	93.540435	0.000527	5.270334	1.785638	-0.000211
 761	7.5620e+01	9.7120	93.419321	0.000304	3.040577	1.030176	-0.000122
 762	7.5719e+01	9.6783	93.213427	0.000517	5.168982	1.751298	-0.000207
 763	7.5819e+01	9.6350	93.019645	0.000486	4.864924	1.648281	-0.000195
 764	7.5918e+01	9.6029	92.805676	0.000537	5.371687	1.819977	-0.000215
 765	7.6018e+01	9.5532	92.628042	0.000446	4.459514	1.510924	-0.000179
 766	7.6118e+01	9.5179	92.470594	0.000395	3.952751	1.339228	-0.000158
 767	7.6217e+01	9.4810	92.268737	0.000507	5.067629	1.716959	-0.000203
 768	7.6317e+01	9.4441	92.062843	0.000517	5.168982	1.751298	-0.000207
 769	7.6416e+01	9.3928	91.881172	0.000456	4.560866	1.545263	-0.000183
 770	7.6516e+01	9.3607	91.699501	0.000456	4.560866	1.545263	-0.000183
 771	7.6615e+01	9.3174	91.497644	0.000507	5.067629	1.716959	-0.000203
 772	7.6715e+01	9.2805	91.336159	0.000405	4.054103	1.373567	-0.000162
 773	7.6814e+01	9.2388	91.138339	0.000497	4.966277	1.682620	-0.000199
 774	7.6913e+01	9.1939	90.936482	0.000507	5.067629	1.716959	-0.000203
 775	7.7013e+01	9.1570	90.770960	0.000416	4.155456	1.407907	-0.000166
 776	7.7112e+01	9.1265	90.581215	0.000476	4.763571	1.613942	-0.000191
 777	7.7212e+01	9.0719	90.375321	0.000517	5.168982	1.751298	-0.000207
 778	7.7311e+01	9.0399	90.169427	0.000517	5.168982	1.751298	-0.000207
 779	7.7411e+01	9.0014	90.003904	0.000416	4.155456	1.407907	-0.000166
 780	7.7510e+01	8.9725	89.818196	0.000466	4.662219	1.579602	-0.000187
 781	7.7610e+01	8.9260	89.632488	0.000466	4.662219	1.579602	-0.000187
 782	7.7710e+01	8.8810	89.378148	0.000639	6.385213	2.163369	-0.000256
 783	7.7809e+01	8.8393	89.220700	0.000395	3.952751	1.339228	-0.000158
 784	7.7909e+01	8.7976	89.022880	0.000497	4.966277	1.682620	-0.000199
 785	7.8008e+01	8.7671	88.821023	0.000507	5.067629	1.716959	-0.000203
 786	7.8108e+01	8.7158	88.639352	0.000456	4.560866	1.545263	-0.000183
 787	7.8207e+01	8.6725	88.469793	0.000426	4.256808	1.442246	-0.000170
 788	7.8306e+01	8.6468	88.255824	0.000537	5.371687	1.819977	-0.000215
 789	7.8406e+01	8.6019	88.066079	0.000476	4.763571	1.613942	-0.000191
 790	7.8505e+01	8.5570	87.864222	0.000507	5.067629	1.716959	-0.000203
 791	7.8605e+01	8.5313	87.662365	0.000507	5.067629	1.716959	-0.000203
 792	7.8704e+01	8.4848	87.496843	0.000416	4.155456	1.407907	-0.000166
 793	7.8804e+01	8.4431	87.299023	0.000497	4.966277	1.682620	-0.000199
 794	7.8903e+01	8.4030	87.137538	0.000405	4.054103	1.373567	-0.000162
 795	7.9003e+01	8.3613	86.911458	0.000568	5.675745	1.922994	-0.000227
 796	7.9103e+01	8.3228	86.685379	0.000568	5.675745	1.922994	-0.000227
 797	7.9202e+01	8.2843	86.519856	0.000416	4.155456	1.407907	-0.000166
 798	7.9302e+01	8.2442	86.350296	0.000426	4.256808	1.442246	-0.000170
 799	7.9401e+01	8.1960	86.132291	0.000547	5.473039	1.854316	-0.000219
 800	7.9501e+01	8.1527	85.922360	0.000527	5.270334	1.785638	-0.000211
 801	7.9600e+01	8.1206	85.728577	0.000486	4.864924	1.648281	-0.000195
 802	7.9700e+01	8.0869	85.554981	0.000436	4.358161	1.476585	-0.000174
 803	7.9799e+01	8.0404	85.357161	0.000497	4.966277	1.682620	-0.000199
 804	7.9898e+01	7.9923	85.147230	0.000527	5.270334	1.785638	-0.000211
 805	7.9998e+01	7.9634	84.953447	0.000486	4.864924	1.648281	-0.000195
 806	8.0097e+01	7.9265	84.735442	0.000547	5.473039	1.854316	-0.000219
 807	8.0197e+01	7.8800	84.529548	0.000517	5.168982	1.751298	-0.000207
 808	8.0296e+01	7.8431	84.351914	0.000446	4.459514	1.510924	-0.000179
 809	8.0396e+01	7.8094	84.125835	0.000568	5.675745	1.922994	-0.000227
 810	8.0496e+01	7.7613	83.940126	0.000466	4.662219	1.579602	-0.000187
 811	8.0595e+01	7.7148	83.730195	0.000527	5.270334	1.785638	-0.000211
 812	8.0695e+01	7.6891	83.540450	0.000476	4.763571	1.613942	-0.000191
 813	8.0794e+01	7.6361	83.366853	0.000436	4.358161	1.476585	-0.000174
 814	8.0894e+01	7.6025	83.132699	0.000588	5.878450	1.991673	-0.000235
 815	8.0993e+01	7.5607	82.946991	0.000466	4.662219	1.579602	-0.000187
 816	8.1093e+01	7.5222	82.708800	0.000598	5.979802	2.026012	-0.000239
 817	8.1192e+01	7.4821	82.506943	0.000507	5.067629	1.716959	-0.000203
 818	8.1291e+01	7.4452	82.309123	0.000497	4.966277	1.682620	-0.000199
 819	8.1391e+01	7.4051	82.123415	0.000466	4.662219	1.579602	-0.000187
 820	8.1490e+01	7.3442	81.909447	0.000537	5.371687	1.819977	-0.000215
 821	8.1590e+01	7.3201	81.703553	0.000517	5.168982	1.751298	-0.000207
 822	8.1689e+01	7.2912	81.538031	0.000416	4.155456	1.407907	-0.000166
 823	8.1789e+01	7.2495	81.307914	0.000578	5.777097	1.957334	-0.000231
 824	8.1888e+01	7.2014	81.069723	0.000598	5.979802	2.026012	-0.000239
 825	8.1988e+01	7.1677	80.875940	0.000486	4.864924	1.648281	-0.000195
 826	8.2088e+01	7.1276	80.714455	0.000405	4.054103	1.373567	-0.000162
 827	8.2187e+01	7.0891	80.484338	0.000578	5.777097	1.957334	-0.000231
 828	8.2287e+01	7.0458	80.250184	0.000588	5.878450	1.991673	-0.000235
 829	8.2386e+01	7.0041	80.056402	0.000486	4.864924	1.648281	-0.000195
 830	8.2486e+01	6.9720	79.834359	0.000557	5.574392	1.888655	-0.000223
 831	8.2585e+01	6.9158	79.644614	0.000476	4.763571	1.613942	-0.000191
 832	8.2684e+01	6.8950	79.410460	0.000588	5.878450	1.991673	-0.000235
 833	8.2784e+01	6.8421	79.228789	0.000456	4.560866	1.545263	-0.000183
 834	8.2883e+01	6.8116	79.026932	0.000507	5.067629	1.716959	-0.000203
 835	8.2983e+01	6.7731	78.821038	0.000517	5.168982	1.751298	-0.000207
 836	8.3082e+01	6.7153	78.603033	0.000547	5.473039	1.854316	-0.000219
 837	8.3182e+01	6.6864	78.389065	0.000537	5.371687	1.819977	-0.000215
 838	8.3281e+01	6.6447	78.199319	0.000476	4.763571	1.613942	-0.000191
 839	8.3381e+01	6.6062	77.940943	0.000649	6.486565	2.197708	-0.000260
 840	8.3481e+01	6.5677	77.763309	0.000446	4.459514	1.510924	-0.000179
 841	8.3580e+01	6.5453	77.521080	0.000608	6.081155	2.060351	-0.000243
 842	8.3680e+01	6.4891	77.331335	0.000476	4.763571	1.613942	-0.000191
 843	8.3779e+01	6.4618	77.129478	0.000507	5.067629	1.716959	-0.000203
 844	8.3879e+01	6.4057	76.927621	0.000507	5.067629	1.716959	-0.000203
 845	8.3978e+01	6.3720	76.729802	0.000497	4.966277	1.682620	-0.000199
 846	8.4078e+01	6.3319	76.487574	0.000608	6.081155	2.060351	-0.000243
 847	8.4177e+01	6.2902	76.249383	0.000598	5.979802	2.026012	-0.000239
 848	8.4276e+01	6.2469	76.063674	0.000466	4.662219	1.579602	-0.000187
 849	8.4376e+01	6.2036	75.841632	0.000557	5.574392	1.888655	-0.000223
 850	8.4475e+01	6.1667	75.639775	0.000507	5.067629	1.716959	-0.000203
 851	8.4575e+01	6.1394	75.421770	0.000547	5.473039	1.854316	-0.000219
 852	8.4674e+01	6.0929	75.163393	0.000649	6.486565	2.197708	-0.000260
 853	8.4774e+01	6.0447	74.997871	0.000416	4.155456	1.407907	-0.000166
 854	8.4874e+01	6.0095	74.735457	0.000659	6.587918	2.232047	-0.000264
 855	8.4973e+01	5.9710	74.557823	0.000446	4.459514	1.510924	-0.000179
 856	8.5073e+01	5.9389	74.307520	0.000628	6.283860	2.129029	-0.000252
 857	8.5172e+01	5.8972	74.089515	0.000547	5.473039	1.854316	-0.000219
 858	8.5272e+01	5.8538	73.871510	0.000547	5.473039	1.854316	-0.000219
 859	8.5371e+01	5.8202	73.701950	0.000426	4.256808	1.442246	-0.000170
 860	8.5471e+01	5.7784	73.471833	0.000578	5.777097	1.957334	-0.000231
 861	8.5570e+01	5.7287	73.265939	0.000517	5.168982	1.751298	-0.000207
 862	8.5669e+01	5.6870	73.019674	0.000618	6.182508	2.094690	-0.000248
 863	8.5769e+01	5.6549	72.809743	0.000527	5.270334	1.785638	-0.000211
 864	8.5868e+01	5.6068	72.628072	0.000456	4.560866	1.545263	-0.000183
 865	8.5968e+01	5.5763	72.381807	0.000618	6.182508	2.094690	-0.000248
 866	8.6067e+01	5.5330	72.147653	0.000588	5.878450	1.991673	-0.000235
 867	8.6167e+01	5.4977	71.937722	0.000527	5.270334	1.785638	-0.000211
 868	8.6266e+01	5.4496	71.719716	0.000547	5.473039	1.854316	-0.000219
 869	8.6366e+01	5.4047	71.493637	0.000568	5.675745	1.922994	-0.000227
 870	8.6466e+01	5.3774	71.299854	0.000486	4.864924	1.648281	-0.000195
 871	8.6565e+01	5.3373	71.049552	0.000628	6.283860	2.129029	-0.000252
 872	8.6665e+01	5.3068	70.851732	0.000497	4.966277	1.682620	-0.000199
 873	8.6764e+01	5.2539	70.629690	0.000557	5.574392	1.888655	-0.000223
 874	8.6864e+01	5.2202	70.403610	0.000568	5.675745	1.922994	-0.000227
 875	8.6963e+01	5.1753	70.193679	0.000527	5.270334	1.785638	-0.000211
 876	8.7063e+01	5.1287	69.975674	0.000547	5.473039	1.854316	-0.000219
 877	8.7162e+01	5.0918	69.741520	0.000588	5.878450	1.991673	-0.000235
 878	8.7261e+01	5.0533	69.507366	0.000588	5.878450	1.991673	-0.000235
 879	8.7361e+01	5.0116	69.305509	0.000507	5.067629	1.716959	-0.000203
 880	8.7460e+01	4.9779	69.063281	0.000608	6.081155	2.060351	-0.000243
 881	8.7560e+01	4.9314	68.817016	0.000618	6.182508	2.094690	-0.000248
 882	8.7659e+01	4.8977	68.627270	0.000476	4.763571	1.613942	-0.000191
 883	8.7759e+01	4.8640	68.393117	0.000588	5.878450	1.991673	-0.000235
 884	8.7859e+01	4.8223	68.158963	0.000588	5.878450	1.991673	-0.000235
 885	8.7958e+01	4.7646	67.932883	0.000568	5.675745	1.922994	-0.000227
 886	8.8058e+01	4.7293	67.763323	0.000426	4.256808	1.442246	-0.000170
 887	8.8157e+01	4.7036	67.484761	0.000699	6.993328	2.369404	-0.000280
 888	8.8257e+01	4.6539	67.258681	0.000568	5.675745	1.922994	-0.000227
 889	8.8356e+01	4.6122	67.048750	0.000527	5.270334	1.785638	-0.000211
 890	8.8456e+01	4.5785	66.806522	0.000608	6.081155	2.060351	-0.000243
 891	8.8555e+01	4.5416	66.584480	0.000557	5.574392	1.888655	-0.000223
 892	8.8654e+01	4.5015	66.338214	0.000618	6.182508	2.094690	-0.000248
 893	8.8754e+01	4.4550	66.160580	0.000446	4.459514	1.510924	-0.000179
 894	8.8853e+01	4.4181	65.950649	0.000527	5.270334	1.785638	-0.000211
 895	8.8953e+01	4.3780	65.700347	0.000628	6.283860	2.129029	-0.000252
 896	8.9052e+01	4.3427	65.466193	0.000588	5.878450	1.991673	-0.000235
 897	8.9152e+01	4.3026	65.244151	0.000557	5.574392	1.888655	-0.000223
 898	8.9251e+01	4.2528	65.038257	0.000517	5.168982	1.751298	-0.000207
 899	8.9351e+01	4.2175	64.787954	0.000628	6.283860	2.129029	-0.000252
 900	8.9451e+01	4.1806	64.565912	0.000557	5.574392	1.888655	-0.000223
 901	8.9550e+01	4.1421	64.347907	0.000547	5.473039	1.854316	-0.000219
 902	8.9650e+01	4.0988	64.093567	0.000639	6.385213	2.163369	-0.000256
 903	8.9749e+01	4.0619	63.883636	0.000527	5.270334	1.785638	-0.000211
 904	8.9849e+01	4.0202	63.677742	0.000517	5.168982	1.751298	-0.000207
 905	8.9948e+01	3.9817	63.407254	0.000679	6.790623	2.300725	-0.000272
 906	9.0047e+01	3.9400	63.189249	0.000547	5.473039	1.854316	-0.000219
 907	9.0147e+01	3.8887	62.938946	0.000628	6.283860	2.129029	-0.000252
 908	9.0246e+01	3.8566	62.712867	0.000568	5.675745	1.922994	-0.000227
 909	9.0346e+01	3.8149	62.539270	0.000436	4.358161	1.476585	-0.000174
 910	9.0445e+01	3.7796	62.284930	0.000639	6.385213	2.163369	-0.000256
 911	9.0545e+01	3.7395	62.054813	0.000578	5.777097	1.957334	-0.000231
 912	9.0644e+01	3.7010	61.840845	0.000537	5.371687	1.819977	-0.000215
 913	9.0744e+01	3.6609	61.570357	0.000679	6.790623	2.300725	-0.000272
 914	9.0844e+01	3.6240	61.360426	0.000527	5.270334	1.785638	-0.000211
 915	9.0943e+01	3.5823	61.126272	0.000588	5.878450	1.991673	-0.000235
 916	9.1043e+01	3.5357	60.924415	0.000507	5.067629	1.716959	-0.000203
 917	9.1142e+01	3.5036	60.682187	0.000608	6.081155	2.060351	-0.000243
 918	9.1242e+01	3.4635	60.452071	0.000578	5.777097	1.957334	-0.000231
 919	9.1341e+01	3.4250	60.217917	0.000588	5.878450	1.991673	-0.000235
 920	9.1441e+01	3.3817	59.935317	0.000709	7.094681	2.403743	-0.000284
 921	9.1540e+01	3.3400	59.761720	0.000436	4.358161	1.476585	-0.000174
 922	9.1639e+01	3.2967	59.507381	0.000639	6.385213	2.163369	-0.000256
 923	9.1739e+01	3.2646	59.285338	0.000557	5.574392	1.888655	-0.000223
 924	9.1838e+01	3.2229	59.043110	0.000608	6.081155	2.060351	-0.000243
 925	9.1938e+01	3.1844	58.821068	0.000557	5.574392	1.888655	-0.000223
 926	9.2037e+01	3.1411	58.546542	0.000689	6.891976	2.335065	-0.000276
 927	9.2137e+01	3.1042	58.364871	0.000456	4.560866	1.545263	-0.000183
 928	9.2237e+01	3.0625	58.102458	0.000659	6.587918	2.232047	-0.000264
 929	9.2336e+01	3.0192	57.868304	0.000588	5.878450	1.991673	-0.000235
 930	9.2436e+01	2.9855	57.642224	0.000568	5.675745	1.922994	-0.000227
 931	9.2535e+01	2.9438	57.412107	0.000578	5.777097	1.957334	-0.000231
 932	9.2635e+01	2.9069	57.173916	0.000598	5.979802	2.026012	-0.000239
 933	9.2734e+01	2.8603	56.943800	0.000578	5.777097	1.957334	-0.000231
 934	9.2834e+01	2.8186	56.729831	0.000537	5.371687	1.819977	-0.000215
 935	9.2933e+01	2.7833	56.495678	0.000588	5.878450	1.991673	-0.000235
 936	9.3032e+01	2.7464	56.225189	0.000679	6.790623	2.300725	-0.000272
 937	9.3132e+01	2.7015	55.995073	0.000578	5.777097	1.957334	-0.000231
 938	9.3231e+01	2.6582	55.773030	0.000557	5.574392	1.888655	-0.000223
 939	9.3331e+01	2.6261	55.534839	0.000598	5.979802	2.026012	-0.000239
 940	9.3430e+01	2.5860	55.300685	0.000588	5.878450	1.991673	-0.000235
 941	9.3530e+01	2.5523	55.050383	0.000628	6.283860	2.129029	-0.000252
 942	9.3629e+01	2.5106	54.808155	0.000608	6.081155	2.060351	-0.000243
 943	9.3729e+01	2.4737	54.574001	0.000588	5.878450	1.991673	-0.000235
 944	9.3829e+01	2.4320	54.343884	0.000578	5.777097	1.957334	-0.000231
 945	9.3928e+01	2.3855	54.117805	0.000568	5.675745	1.922994	-0.000227
 946	9.4028e+01	2.3374	53.883651	0.000588	5.878450	1.991673	-0.000235
 947	9.4127e+01	2.3165	53.613163	0.000679	6.790623	2.300725	-0.000272
 948	9.4227e+01	2.2652	53.379009	0.000588	5.878450	1.991673	-0.000235
 949	9.4326e+01	2.2219	53.128706	0.000628	6.283860	2.129029	-0.000252
 950	9.4425e+01	2.1914	52.858218	0.000679	6.790623	2.300725	-0.000272
 951	9.4525e+01	2.1481	52.652324	0.000517	5.168982	1.751298	-0.000207
 952	9.4624e+01	2.1096	52.389910	0.000659	6.587918	2.232047	-0.000264
 953	9.4724e+01	2.0598	52.143645	0.000618	6.182508	2.094690	-0.000248
 954	9.4823e+01	2.0294	51.913528	0.000578	5.777097	1.957334	-0.000231
 955	9.4923e+01	1.9812	51.695523	0.000547	5.473039	1.854316	-0.000219
 956	9.5022e+01	1.9395	51.420998	0.000689	6.891976	2.335065	-0.000276
 957	9.5122e+01	1.9058	51.198955	0.000557	5.574392	1.888655	-0.000223
 958	9.5222e+01	1.8641	50.960764	0.000598	5.979802	2.026012	-0.000239
 959	9.5321e+01	1.8272	50.726611	0.000588	5.878450	1.991673	-0.000235
 960	9.5421e+01	1.7855	50.456122	0.000679	6.790623	2.300725	-0.000272
 961	9.5520e+01	1.7518	50.181597	0.000689	6.891976	2.335065	-0.000276
 962	9.5620e+01	1.7053	49.979740	0.000507	5.067629	1.716959	-0.000203
 963	9.5719e+01	1.6604	49.729438	0.000628	6.283860	2.129029	-0.000252
 964	9.5819e+01	1.6395	49.483173	0.000618	6.182508	2.094690	-0.000248
 965	9.5918e+01	1.5850	49.204610	0.000699	6.993328	2.369404	-0.000280
 966	9.6017e+01	1.5417	48.998716	0.000517	5.168982	1.751298	-0.000207
 967	9.6117e+01	1.5064	48.756488	0.000608	6.081155	2.060351	-0.000243
 968	9.6216e+01	1.4615	48.506186	0.000628	6.283860	2.129029	-0.000252
 969	9.6316e+01	1.4294	48.243772	0.000659	6.587918	2.232047	-0.000264
 970	9.6415e+01	1.3909	48.021730	0.000557	5.574392	1.888655	-0.000223
 971	9.6515e+01	1.3379	47.779501	0.000608	6.081155	2.060351	-0.000243
 972	9.6615e+01	1.3058	47.529199	0.000628	6.283860	2.129029	-0.000252
 973	9.6714e+01	1.2673	47.291008	0.000598	5.979802	2.026012	-0.000239
 974	9.6814e+01	1.2321	46.984186	0.000770	7.702796	2.609778	-0.000308
 975	9.6913e+01	1.1871	46.770218	0.000537	5.371687	1.819977	-0.000215
 976	9.7013e+01	1.1502	46.483581	0.000720	7.196033	2.438082	-0.000288
 977	9.7112e+01	1.1085	46.241353	0.000608	6.081155	2.060351	-0.000243
 978	9.7212e+01	1.0764	46.019310	0.000557	5.574392	1.888655	-0.000223
 979	9.7311e+01	1.0267	45.805342	0.000537	5.371687	1.819977	-0.000215
 980	9.7410e+01	0.9914	45.534854	0.000679	6.790623	2.300725	-0.000272
 981	9.7510e+01	0.9497	45.288589	0.000618	6.182508	2.094690	-0.000248
 982	9.7609e+01	0.9160	45.022138	0.000669	6.689270	2.266386	-0.000268
 983	9.7709e+01	0.8711	44.751650	0.000679	6.790623	2.300725	-0.000272
 984	9.7808e+01	0.8262	44.545756	0.000517	5.168982	1.751298	-0.000207
 985	9.7908e+01	0.7893	44.263156	0.000709	7.094681	2.403743	-0.000284
 986	9.8007e+01	0.7476	44.004780	0.000649	6.486565	2.197708	-0.000260
 987	9.8107e+01	0.7043	43.758514	0.000618	6.182508	2.094690	-0.000248
 988	9.8207e+01	0.6706	43.532435	0.000568	5.675745	1.922994	-0.000227
 989	9.8306e+01	0.6385	43.253872	0.000699	6.993328	2.369404	-0.000280
 990	9.8406e+01	0.5871	43.039904	0.000537	5.371687	1.819977	-0.000215
 991	9.8505e+01	0.5583	42.733082	0.000770	7.702796	2.609778	-0.000308
 992	9.8605e+01	0.5118	42.502965	0.000578	5.777097	1.957334	-0.000231
 993	9.8704e+01	0.4732	42.264774	0.000598	5.979802	2.026012	-0.000239
 994	9.8803e+01	0.4396	42.018509	0.000618	6.182508	2.094690	-0.000248
 995	9.8903e+01	0.3898	41.715724	0.000760	7.601444	2.575439	-0.000304
 996	9.9002e+01	0.3497	41.469458	0.000618	6.182508	2.094690	-0.000248
 997	9.9102e+01	0.3096	41.219156	0.000628	6.283860	2.129029	-0.000252
 998	9.9201e+01	0.2743	40.993076	0.000568	5.675745	1.922994	-0.000227
 999	9.9301e+01	0.2406	40.750848	0.000608	6.081155	2.060351	-0.000243
1000	9.9400e+01	0.1957	40.484397	0.000669	6.689270	2.266386	-0.000268
1001	9.9500e+01	0.1492	40.242169	0.000608	6.081155	2.060351	-0.000243
1002	9.9600e+01	0.1107	39.963607	0.000699	6.993328	2.369404	-0.000280
1003	9.9699e+01	0.0770	39.693119	0.000679	6.790623	2.300725	-0.000272
1004	9.9799e+01	0.0321	39.475113	0.000547	5.473039	1.854316	-0.000219
1005	9.9898e+01	0.0064	39.273256	0.000507	5.067629	1.716959	-0.000203
1006	9.9998e+01	-0.0321	39.031028	0.000608	6.081155	2.060351	-0.000243
1007	1.0010e+02	-0.0738	38.756503	0.000689	6.891976	2.335065	-0.000276
1008	1.0020e+02	-0.1123	38.486015	0.000679	6.790623	2.300725	-0.000272
1009	1.0030e+02	-0.1556	38.215527	0.000679	6.790623	2.300725	-0.000272
1010	1.0040e+02	-0.2005	37.993484	0.000557	5.574392	1.888655	-0.000223
1011	1.0050e+02	-0.2342	37.682625	0.000780	7.804149	2.644117	-0.000312
1012	1.0059e+02	-0.2791	37.460583	0.000557	5.574392	1.888655	-0.000223
1013	1.0069e+02	-0.3192	37.194132	0.000669	6.689270	2.266386	-0.000268
1014	1.0079e+02	-0.3529	36.968052	0.000568	5.675745	1.922994	-0.000227
1015	1.0089e+02	-0.4011	36.681415	0.000720	7.196033	2.438082	-0.000288
1016	1.0099e+02	-0.4428	36.459373	0.000557	5.574392	1.888655	-0.000223
1017	1.0109e+02	-0.4749	36.172736	0.000720	7.196033	2.438082	-0.000288
1018	1.0119e+02	-0.5134	35.898211	0.000689	6.891976	2.335065	-0.000276
1019	1.0129e+02	-0.5486	35.651946	0.000618	6.182508	2.094690	-0.000248
1020	1.0139e+02	-0.5968	35.385495	0.000669	6.689270	2.266386	-0.000268
1021	1.0149e+02	-0.6401	35.127118	0.000649	6.486565	2.197708	-0.000260
1022	1.0159e+02	-0.6818	34.860667	0.000669	6.689270	2.266386	-0.000268
1023	1.0169e+02	-0.7123	34.610365	0.000628	6.283860	2.129029	-0.000252
1024	1.0179e+02	-0.7556	34.364099	0.000618	6.182508	2.094690	-0.000248
1025	1.0189e+02	-0.7957	34.138020	0.000568	5.675745	1.922994	-0.000227
1026	1.0199e+02	-0.8342	33.867532	0.000679	6.790623	2.300725	-0.000272
1027	1.0209e+02	-0.8759	33.601081	0.000669	6.689270	2.266386	-0.000268
1028	1.0219e+02	-0.9112	33.370964	0.000578	5.777097	1.957334	-0.000231
1029	1.0229e+02	-0.9561	33.060105	0.000780	7.804149	2.644117	-0.000312
1030	1.0239e+02	-0.9946	32.838062	0.000557	5.574392	1.888655	-0.000223
1031	1.0248e+02	-1.0395	32.563537	0.000689	6.891976	2.335065	-0.000276
1032	1.0258e+02	-1.0732	32.317272	0.000618	6.182508	2.094690	-0.000248
1033	1.0268e+02	-1.1133	32.075043	0.000608	6.081155	2.060351	-0.000243
1034	1.0278e+02	-1.1486	31.808592	0.000669	6.689270	2.266386	-0.000268
1035	1.0288e+02	-1.1903	31.525993	0.000709	7.094681	2.403743	-0.000284
1036	1.0298e+02	-1.2337	31.332210	0.000486	4.864924	1.648281	-0.000195
1037	1.0308e+02	-1.2722	31.061722	0.000679	6.790623	2.300725	-0.000272
1038	1.0318e+02	-1.3187	30.799309	0.000659	6.587918	2.232047	-0.000264
1039	1.0328e+02	-1.3492	30.496523	0.000760	7.601444	2.575439	-0.000304
1040	1.0338e+02	-1.3973	30.234110	0.000659	6.587918	2.232047	-0.000264
1041	1.0348e+02	-1.4294	29.999956	0.000588	5.878450	1.991673	-0.000235
1042	1.0358e+02	-1.4823	29.761765	0.000598	5.979802	2.026012	-0.000239
1043	1.0368e+02	-1.5208	29.475128	0.000720	7.196033	2.438082	-0.000288
1044	1.0378e+02	-1.5545	29.232900	0.000608	6.081155	2.060351	-0.000243
1045	1.0388e+02	-1.5962	28.974523	0.000649	6.486565	2.197708	-0.000260
1046	1.0398e+02	-1.6347	28.704035	0.000679	6.790623	2.300725	-0.000272
1047	1.0408e+02	-1.6764	28.449696	0.000639	6.385213	2.163369	-0.000256
1048	1.0418e+02	-1.7149	28.215542	0.000588	5.878450	1.991673	-0.000235
1049	1.0428e+02	-1.7454	27.953128	0.000659	6.587918	2.232047	-0.000264
1050	1.0438e+02	-1.7839	27.706863	0.000618	6.182508	2.094690	-0.000248
1051	1.0447e+02	-1.8256	27.448486	0.000649	6.486565	2.197708	-0.000260
1052	1.0457e+02	-1.8770	27.182035	0.000669	6.689270	2.266386	-0.000268
1053	1.0467e+02	-1.9122	26.887324	0.000740	7.398739	2.506760	-0.000296
1054	1.0477e+02	-1.9540	26.649133	0.000598	5.979802	2.026012	-0.000239
1055	1.0487e+02	-1.9828	26.394793	0.000639	6.385213	2.163369	-0.000256
1056	1.0497e+02	-2.0278	26.156602	0.000598	5.979802	2.026012	-0.000239
1057	1.0507e+02	-2.0743	25.878040	0.000699	6.993328	2.369404	-0.000280
1058	1.0517e+02	-2.1128	25.639849	0.000598	5.979802	2.026012	-0.000239
1059	1.0527e+02	-2.1513	25.381472	0.000649	6.486565	2.197708	-0.000260
1060	1.0537e+02	-2.1914	25.086761	0.000740	7.398739	2.506760	-0.000296
1061	1.0547e+02	-2.2283	24.872793	0.000537	5.371687	1.819977	-0.000215
1062	1.0557e+02	-2.2684	24.590194	0.000709	7.094681	2.403743	-0.000284
1063	1.0567e+02	-2.3165	24.335854	0.000639	6.385213	2.163369	-0.000256
1064	1.0577e+02	-2.3454	24.117849	0.000547	5.473039	1.854316	-0.000219
1065	1.0587e+02	-2.3887	23.867546	0.000628	6.283860	2.129029	-0.000252
1066	1.0597e+02	-2.4304	23.588984	0.000699	6.993328	2.369404	-0.000280
1067	1.0607e+02	-2.4689	23.338682	0.000628	6.283860	2.129029	-0.000252
1068	1.0617e+02	-2.5090	23.088379	0.000628	6.283860	2.129029	-0.000252
1069	1.0627e+02	-2.5459	22.862300	0.000568	5.675745	1.922994	-0.000227
1070	1.0637e+02	-2.5892	22.567589	0.000740	7.398739	2.506760	-0.000296
1071	1.0647e+02	-2.6293	22.297101	0.000679	6.790623	2.300725	-0.000272
1072	1.0656e+02	-2.6662	22.099281	0.000497	4.966277	1.682620	-0.000199
1073	1.0666e+02	-2.7095	21.832830	0.000669	6.689270	2.266386	-0.000268
1074	1.0676e+02	-2.7481	21.558305	0.000689	6.891976	2.335065	-0.000276
1075	1.0686e+02	-2.7849	21.287817	0.000679	6.790623	2.300725	-0.000272
1076	1.0696e+02	-2.8251	21.049626	0.000598	5.979802	2.026012	-0.000239
1077	1.0706e+02	-2.8668	20.815472	0.000588	5.878450	1.991673	-0.000235
1078	1.0716e+02	-2.9101	20.540947	0.000689	6.891976	2.335065	-0.000276
1079	1.0726e+02	-2.9550	20.302756	0.000598	5.979802	2.026012	-0.000239
1080	1.0736e+02	-2.9855	20.056490	0.000618	6.182508	2.094690	-0.000248
1081	1.0746e+02	-3.0192	19.806188	0.000628	6.283860	2.129029	-0.000252
1082	1.0756e+02	-3.0577	19.535700	0.000679	6.790623	2.300725	-0.000272
1083	1.0766e+02	-3.1186	19.277323	0.000649	6.486565	2.197708	-0.000260
1084	1.0776e+02	-3.1507	18.998761	0.000699	6.993328	2.369404	-0.000280
1085	1.0786e+02	-3.1876	18.760570	0.000598	5.979802	2.026012	-0.000239
1086	1.0796e+02	-3.2229	18.538527	0.000557	5.574392	1.888655	-0.000223
1087	1.0806e+02	-3.2694	18.264002	0.000689	6.891976	2.335065	-0.000276
1088	1.0816e+02	-3.2983	18.037922	0.000568	5.675745	1.922994	-0.000227
1089	1.0826e+02	-3.3545	17.767434	0.000679	6.790623	2.300725	-0.000272
1090	1.0836e+02	-3.3833	17.537318	0.000578	5.777097	1.957334	-0.000231
1091	1.0845e+02	-3.4298	17.258755	0.000699	6.993328	2.369404	-0.000280
1092	1.0855e+02	-3.4635	17.008453	0.000628	6.283860	2.129029	-0.000252
1093	1.0865e+02	-3.4988	16.754113	0.000639	6.385213	2.163369	-0.000256
1094	1.0875e+02	-3.5502	16.507848	0.000618	6.182508	2.094690	-0.000248
1095	1.0885e+02	-3.5887	16.269657	0.000598	5.979802	2.026012	-0.000239
1096	1.0895e+02	-3.6288	16.023392	0.000618	6.182508	2.094690	-0.000248
1097	1.0905e+02	-3.6689	15.760978	0.000659	6.587918	2.232047	-0.000264
1098	1.0915e+02	-3.6962	15.514713	0.000618	6.182508	2.094690	-0.000248
1099	1.0925e+02	-3.7411	15.260373	0.000639	6.385213	2.163369	-0.000256
1100	1.0935e+02	-3.7876	15.030256	0.000578	5.777097	1.957334	-0.000231
1101	1.0945e+02	-3.8229	14.771880	0.000649	6.486565	2.197708	-0.000260
1102	1.0955e+02	-3.8646	14.565986	0.000517	5.168982	1.751298	-0.000207
1103	1.0965e+02	-3.9079	14.271275	0.000740	7.398739	2.506760	-0.000296
1104	1.0975e+02	-3.9432	14.008861	0.000659	6.587918	2.232047	-0.000264
1105	1.0985e+02	-3.9817	13.770670	0.000598	5.979802	2.026012	-0.000239
1106	1.0995e+02	-4.0218	13.504219	0.000669	6.689270	2.266386	-0.000268
1107	1.1005e+02	-4.0699	13.274102	0.000578	5.777097	1.957334	-0.000231
1108	1.1015e+02	-4.0972	13.019763	0.000639	6.385213	2.163369	-0.000256
1109	1.1025e+02	-4.1437	12.789646	0.000578	5.777097	1.957334	-0.000231
1110	1.1035e+02	-4.1806	12.531269	0.000649	6.486565	2.197708	-0.000260
1111	1.1044e+02	-4.2255	12.309227	0.000557	5.574392	1.888655	-0.000223
1112	1.1054e+02	-4.2544	12.026627	0.000709	7.094681	2.403743	-0.000284
1113	1.1064e+02	-4.3074	11.780362	0.000618	6.182508	2.094690	-0.000248
1114	1.1074e+02	-4.3475	11.505837	0.000689	6.891976	2.335065	-0.000276
1115	1.1084e+02	-4.3812	11.283794	0.000557	5.574392	1.888655	-0.000223
1116	1.1094e+02	-4.4309	11.029455	0.000639	6.385213	2.163369	-0.000256
1117	1.1104e+02	-4.4566	10.763004	0.000669	6.689270	2.266386	-0.000268
1118	1.1114e+02	-4.5063	10.540961	0.000557	5.574392	1.888655	-0.000223
1119	1.1124e+02	-4.5544	10.262399	0.000699	6.993328	2.369404	-0.000280
1120	1.1134e+02	-4.5769	10.048431	0.000537	5.371687	1.819977	-0.000215
1121	1.1144e+02	-4.6234	9.794091	0.000639	6.385213	2.163369	-0.000256
1122	1.1154e+02	-4.6635	9.543789	0.000628	6.283860	2.129029	-0.000252
1123	1.1164e+02	-4.7020	9.289449	0.000639	6.385213	2.163369	-0.000256
1124	1.1174e+02	-4.7453	9.039147	0.000628	6.283860	2.129029	-0.000252
1125	1.1184e+02	-4.7886	8.780770	0.000649	6.486565	2.197708	-0.000260
1126	1.1194e+02	-4.8207	8.595062	0.000466	4.662219	1.579602	-0.000187
1127	1.1204e+02	-4.8624	8.324574	0.000679	6.790623	2.300725	-0.000272
1128	1.1214e+02	-4.9106	8.021789	0.000760	7.601444	2.575439	-0.000304
1129	1.1224e+02	-4.9442	7.807821	0.000537	5.371687	1.819977	-0.000215
1130	1.1234e+02	-4.9844	7.557518	0.000628	6.283860	2.129029	-0.000252
1131	1.1244e+02	-5.0212	7.295104	0.000659	6.587918	2.232047	-0.000264
1132	1.1253e+02	-5.0614	7.081136	0.000537	5.371687	1.819977	-0.000215
1133	1.1263e+02	-5.0950	6.822759	0.000649	6.486565	2.197708	-0.000260
1134	1.1273e+02	-5.1416	6.596680	0.000568	5.675745	1.922994	-0.000227
1135	1.1283e+02	-5.1817	6.314080	0.000709	7.094681	2.403743	-0.000284
1136	1.1293e+02	-5.2154	6.092038	0.000557	5.574392	1.888655	-0.000223
1137	1.1303e+02	-5.2683	5.821550	0.000679	6.790623	2.300725	-0.000272
1138	1.1313e+02	-5.2924	5.611619	0.000527	5.270334	1.785638	-0.000211
1139	1.1323e+02	-5.3341	5.389576	0.000557	5.574392	1.888655	-0.000223
1140	1.1333e+02	-5.3758	5.066605	0.000811	8.108207	2.747135	-0.000325
1141	1.1343e+02	-5.4191	4.836489	0.000578	5.777097	1.957334	-0.000231
1142	1.1353e+02	-5.4624	4.642706	0.000486	4.864924	1.648281	-0.000195
1143	1.1363e+02	-5.4977	4.380292	0.000659	6.587918	2.232047	-0.000264
1144	1.1373e+02	-5.5282	4.129990	0.000628	6.283860	2.129029	-0.000252
1145	1.1383e+02	-5.5731	3.859502	0.000679	6.790623	2.300725	-0.000272
1146	1.1393e+02	-5.6196	3.633422	0.000568	5.675745	1.922994	-0.000227
1147	1.1403e+02	-5.6710	3.411380	0.000557	5.574392	1.888655	-0.000223
1148	1.1413e+02	-5.6966	3.120706	0.000730	7.297386	2.472421	-0.000292
1149	1.1423e+02	-5.7303	2.878478	0.000608	6.081155	2.060351	-0.000243
1150	1.1433e+02	-5.7736	2.612027	0.000669	6.689270	2.266386	-0.000268
1151	1.1442e+02	-5.8234	2.402096	0.000527	5.270334	1.785638	-0.000211
1152	1.1452e+02	-5.8522	2.135645	0.000669	6.689270	2.266386	-0.000268
1153	1.1462e+02	-5.8972	1.933788	0.000507	5.067629	1.716959	-0.000203
1154	1.1472e+02	-5.9437	1.647151	0.000720	7.196033	2.438082	-0.000288
1155	1.1482e+02	-5.9790	1.400886	0.000618	6.182508	2.094690	-0.000248
1156	1.1492e+02	-6.0062	1.182881	0.000547	5.473039	1.854316	-0.000219
1157	1.1502e+02	-6.0592	0.916430	0.000669	6.689270	2.266386	-0.000268
1158	1.1512e+02	-6.1041	0.682276	0.000588	5.878450	1.991673	-0.000235
1159	1.1522e+02	-6.1362	0.427936	0.000639	6.385213	2.163369	-0.000256
1160	1.1532e+02	-6.1731	0.197820	0.000578	5.777097	1.957334	-0.000231
1161	1.1542e+02	-6.2180	-0.088817	0.000720	7.196033	2.438082	-0.000288
1162	1.1552e+02	-6.2613	-0.270488	0.000456	4.560866	1.545263	-0.000183
1163	1.1562e+02	-6.3014	-0.528865	0.000649	6.486565	2.197708	-0.000260
1164	1.1572e+02	-6.3367	-0.787241	0.000649	6.486565	2.197708	-0.000260
1165	1.1582e+02	-6.3736	-1.037544	0.000628	6.283860	2.129029	-0.000252
1166	1.1592e+02	-6.4137	-1.271698	0.000588	5.878450	1.991673	-0.000235
1167	1.1602e+02	-6.4570	-1.505852	0.000588	5.878450	1.991673	-0.000235
1168	1.1612e+02	-6.4955	-1.735968	0.000578	5.777097	1.957334	-0.000231
1169	1.1622e+02	-6.5292	-1.970122	0.000588	5.878450	1.991673	-0.000235
1170	1.1632e+02	-6.5790	-2.240610	0.000679	6.790623	2.300725	-0.000272
1171	1.1642e+02	-6.6030	-2.470727	0.000578	5.777097	1.957334	-0.000231
1172	1.1651e+02	-6.6576	-2.712955	0.000608	6.081155	2.060351	-0.000243
1173	1.1661e+02	-6.6913	-2.979406	0.000669	6.689270	2.266386	-0.000268
1174	1.1671e+02	-6.7330	-3.217597	0.000598	5.979802	2.026012	-0.000239
1175	1.1681e+02	-6.7650	-3.431565	0.000537	5.371687	1.819977	-0.000215
1176	1.1691e+02	-6.8164	-3.710128	0.000699	6.993328	2.369404	-0.000280
1177	1.1701e+02	-6.8549	-3.952356	0.000608	6.081155	2.060351	-0.000243
1178	1.1711e+02	-6.8854	-4.210733	0.000649	6.486565	2.197708	-0.000260
1179	1.1721e+02	-6.9191	-4.420664	0.000527	5.270334	1.785638	-0.000211
1180	1.1731e+02	-6.9672	-4.683077	0.000659	6.587918	2.232047	-0.000264
1181	1.1741e+02	-7.0201	-4.929343	0.000618	6.182508	2.094690	-0.000248
1182	1.1751e+02	-7.0442	-5.163497	0.000588	5.878450	1.991673	-0.000235
1183	1.1761e+02	-7.0811	-5.409762	0.000618	6.182508	2.094690	-0.000248
1184	1.1771e+02	-7.1244	-5.664101	0.000639	6.385213	2.163369	-0.000256
1185	1.1781e+02	-7.1677	-5.898255	0.000588	5.878450	1.991673	-0.000235
1186	1.1791e+02	-7.2030	-6.112224	0.000537	5.371687	1.819977	-0.000215
1187	1.1801e+02	-7.2511	-6.394823	0.000709	7.094681	2.403743	-0.000284
1188	1.1811e+02	-7.2896	-6.580531	0.000466	4.662219	1.579602	-0.000187
1189	1.1821e+02	-7.3297	-6.883316	0.000760	7.601444	2.575439	-0.000304
1190	1.1831e+02	-7.3666	-7.064988	0.000456	4.560866	1.545263	-0.000183
1191	1.1841e+02	-7.4051	-7.339513	0.000689	6.891976	2.335065	-0.000276
1192	1.1850e+02	-7.4436	-7.545407	0.000517	5.168982	1.751298	-0.000207
1193	1.1860e+02	-7.4950	-7.811858	0.000669	6.689270	2.266386	-0.000268
1194	1.1870e+02	-7.5255	-8.066197	0.000639	6.385213	2.163369	-0.000256
1195	1.1880e+02	-7.5688	-8.304388	0.000598	5.979802	2.026012	-0.000239
1196	1.1890e+02	-7.6041	-8.550653	0.000618	6.182508	2.094690	-0.000248
1197	1.1900e+02	-7.6474	-8.809030	0.000649	6.486565	2.197708	-0.000260
1198	1.1910e+02	-7.6827	-9.010887	0.000507	5.067629	1.716959	-0.000203
1199	1.1920e+02	-7.7324	-9.277338	0.000669	6.689270	2.266386	-0.000268
1200	1.1930e+02	-7.7597	-9.491306	0.000537	5.371687	1.819977	-0.000215
1201	1.1940e+02	-7.8094	-9.721423	0.000578	5.777097	1.957334	-0.000231
1202	1.1950e+02	-7.8495	-9.967688	0.000618	6.182508	2.094690	-0.000248
1203	1.1960e+02	-7.8784	-10.205879	0.000598	5.979802	2.026012	-0.000239
1204	1.1970e+02	-7.9297	-10.484442	0.000699	6.993328	2.369404	-0.000280
1205	1.1980e+02	-7.9602	-10.645927	0.000405	4.054103	1.373567	-0.000162
1206	1.1990e+02	-8.0051	-10.920452	0.000689	6.891976	2.335065	-0.000276
1207	1.2000e+02	-8.0468	-11.150569	0.000578	5.777097	1.957334	-0.000231
1208	1.2010e+02	-8.0885	-11.412983	0.000659	6.587918	2.232047	-0.000264
1209	1.2020e+02	-8.1206	-11.639062	0.000568	5.675745	1.922994	-0.000227
1210	1.2030e+02	-8.1752	-11.857068	0.000547	5.473039	1.854316	-0.000219
1211	1.2039e+02	-8.2089	-12.111407	0.000639	6.385213	2.163369	-0.000256
1212	1.2049e+02	-8.2506	-12.313264	0.000507	5.067629	1.716959	-0.000203
1213	1.2059e+02	-8.2843	-12.555492	0.000608	6.081155	2.060351	-0.000243
1214	1.2069e+02	-8.3212	-12.817906	0.000659	6.587918	2.232047	-0.000264
1215	1.2079e+02	-8.3629	-13.056097	0.000598	5.979802	2.026012	-0.000239
1216	1.2089e+02	-8.4094	-13.274102	0.000547	5.473039	1.854316	-0.000219
1217	1.2099e+02	-8.4383	-13.512293	0.000598	5.979802	2.026012	-0.000239
1218	1.2109e+02	-8.4848	-13.798930	0.000720	7.196033	2.438082	-0.000288
1219	1.2119e+02	-8.5201	-13.992712	0.000486	4.864924	1.648281	-0.000195
1220	1.2129e+02	-8.5634	-14.259163	0.000669	6.689270	2.266386	-0.000268
1221	1.2139e+02	-8.6131	-14.444872	0.000466	4.662219	1.579602	-0.000187
1222	1.2149e+02	-8.6420	-14.723434	0.000699	6.993328	2.369404	-0.000280
1223	1.2159e+02	-8.6805	-14.905105	0.000456	4.560866	1.545263	-0.000183
1224	1.2169e+02	-8.7222	-15.195779	0.000730	7.297386	2.472421	-0.000292
1225	1.2179e+02	-8.7623	-15.389561	0.000486	4.864924	1.648281	-0.000195
1226	1.2189e+02	-8.8008	-15.611604	0.000557	5.574392	1.888655	-0.000223
1227	1.2199e+02	-8.8329	-15.833646	0.000557	5.574392	1.888655	-0.000223
1228	1.2209e+02	-8.8810	-16.087986	0.000639	6.385213	2.163369	-0.000256
1229	1.2219e+02	-8.9292	-16.330214	0.000608	6.081155	2.060351	-0.000243
1230	1.2229e+02	-8.9564	-16.568405	0.000598	5.979802	2.026012	-0.000239
1231	1.2239e+02	-8.9981	-16.798522	0.000578	5.777097	1.957334	-0.000231
1232	1.2248e+02	-9.0463	-17.036713	0.000598	5.979802	2.026012	-0.000239
1233	1.2258e+02	-9.0832	-17.270867	0.000588	5.878450	1.991673	-0.000235
1234	1.2268e+02	-9.1249	-17.488872	0.000547	5.473039	1.854316	-0.000219
1235	1.2278e+02	-9.1666	-17.694766	0.000517	5.168982	1.751298	-0.000207
1236	1.2288e+02	-9.2035	-17.941031	0.000618	6.182508	2.094690	-0.000248
1237	1.2298e+02	-9.2340	-18.179222	0.000598	5.979802	2.026012	-0.000239
1238	1.2308e+02	-9.2885	-18.389153	0.000527	5.270334	1.785638	-0.000211
1239	1.2318e+02	-9.3286	-18.603121	0.000537	5.371687	1.819977	-0.000215
1240	1.2328e+02	-9.3703	-18.841312	0.000598	5.979802	2.026012	-0.000239
1241	1.2338e+02	-9.4040	-19.095652	0.000639	6.385213	2.163369	-0.000256
1242	1.2348e+02	-9.4377	-19.289435	0.000486	4.864924	1.648281	-0.000195
1243	1.2358e+02	-9.4826	-19.515514	0.000568	5.675745	1.922994	-0.000227
1244	1.2368e+02	-9.5275	-19.757742	0.000608	6.081155	2.060351	-0.000243
1245	1.2378e+02	-9.5564	-19.995933	0.000598	5.979802	2.026012	-0.000239
1246	1.2388e+02	-9.5981	-20.209902	0.000537	5.371687	1.819977	-0.000215
1247	1.2398e+02	-9.6350	-20.452130	0.000608	6.081155	2.060351	-0.000243
1248	1.2408e+02	-9.6703	-20.641875	0.000476	4.763571	1.613942	-0.000191
1249	1.2418e+02	-9.7136	-20.940623	0.000750	7.500091	2.541100	-0.000300
1250	1.2428e+02	-9.7585	-21.118257	0.000446	4.459514	1.510924	-0.000179
1251	1.2438e+02	-9.7970	-21.320114	0.000507	5.067629	1.716959	-0.000203
1252	1.2447e+02	-9.8404	-21.574453	0.000639	6.385213	2.163369	-0.000256
1253	1.2457e+02	-9.8741	-21.808607	0.000588	5.878450	1.991673	-0.000235
1254	1.2467e+02	-9.9174	-21.998353	0.000476	4.763571	1.613942	-0.000191
1255	1.2477e+02	-9.9591	-22.252692	0.000639	6.385213	2.163369	-0.000256
1256	1.2487e+02	-9.9976	-22.442438	0.000476	4.763571	1.613942	-0.000191
1257	1.2497e+02	-10.0313	-22.712926	0.000679	6.790623	2.300725	-0.000272
1258	1.2507e+02	-10.0794	-22.922857	0.000527	5.270334	1.785638	-0.000211
1259	1.2517e+02	-10.1163	-23.140862	0.000547	5.473039	1.854316	-0.000219
1260	1.2527e+02	-10.1580	-23.362905	0.000557	5.574392	1.888655	-0.000223
1261	1.2537e+02	-10.1981	-23.593021	0.000578	5.777097	1.957334	-0.000231
1262	1.2547e+02	-10.2366	-23.774692	0.000456	4.560866	1.545263	-0.000183
1263	1.2557e+02	-10.2799	-24.008846	0.000588	5.878450	1.991673	-0.000235
1264	1.2567e+02	-10.3168	-24.259149	0.000628	6.283860	2.129029	-0.000252
1265	1.2577e+02	-10.3537	-24.469080	0.000527	5.270334	1.785638	-0.000211
1266	1.2587e+02	-10.3906	-24.695159	0.000568	5.675745	1.922994	-0.000227
1267	1.2597e+02	-10.4387	-24.905090	0.000527	5.270334	1.785638	-0.000211
1268	1.2607e+02	-10.4837	-25.127133	0.000557	5.574392	1.888655	-0.000223
1269	1.2617e+02	-10.5141	-25.377435	0.000628	6.283860	2.129029	-0.000252
1270	1.2627e+02	-10.5623	-25.595441	0.000547	5.473039	1.854316	-0.000219
1271	1.2636e+02	-10.5960	-25.801335	0.000517	5.168982	1.751298	-0.000207
1272	1.2646e+02	-10.6377	-26.003191	0.000507	5.067629	1.716959	-0.000203
1273	1.2656e+02	-10.6794	-26.241382	0.000598	5.979802	2.026012	-0.000239
1274	1.2666e+02	-10.7179	-26.443239	0.000507	5.067629	1.716959	-0.000203
1275	1.2676e+02	-10.7548	-26.677393	0.000588	5.878450	1.991673	-0.000235
1276	1.2686e+02	-10.7965	-26.867138	0.000476	4.763571	1.613942	-0.000191
1277	1.2696e+02	-10.8286	-27.145701	0.000699	6.993328	2.369404	-0.000280
1278	1.2706e+02	-10.8815	-27.323335	0.000446	4.459514	1.510924	-0.000179
1279	1.2716e+02	-10.9184	-27.533266	0.000527	5.270334	1.785638	-0.000211
1280	1.2726e+02	-10.9553	-27.763382	0.000578	5.777097	1.957334	-0.000231
1281	1.2736e+02	-10.9890	-28.021759	0.000649	6.486565	2.197708	-0.000260
1282	1.2746e+02	-11.0419	-28.219579	0.000497	4.966277	1.682620	-0.000199
1283	1.2756e+02	-11.0724	-28.393176	0.000436	4.358161	1.476585	-0.000174
1284	1.2766e+02	-11.1221	-28.639441	0.000618	6.182508	2.094690	-0.000248
1285	1.2776e+02	-11.1542	-28.889743	0.000628	6.283860	2.129029	-0.000252
1286	1.2786e+02	-11.1863	-29.091600	0.000507	5.067629	1.716959	-0.000203
1287	1.2796e+02	-11.2312	-29.281346	0.000476	4.763571	1.613942	-0.000191
1288	1.2806e+02	-11.2729	-29.527611	0.000618	6.182508	2.094690	-0.000248
1289	1.2816e+02	-11.3034	-29.769839	0.000608	6.081155	2.060351	-0.000243
1290	1.2826e+02	-11.3451	-29.995919	0.000568	5.675745	1.922994	-0.000227
1291	1.2835e+02	-11.3917	-30.153367	0.000395	3.952751	1.339228	-0.000158
1292	1.2845e+02	-11.4334	-30.411744	0.000649	6.486565	2.197708	-0.000260
1293	1.2855e+02	-11.4847	-30.605526	0.000486	4.864924	1.648281	-0.000195
1294	1.2865e+02	-11.5136	-30.843717	0.000598	5.979802	2.026012	-0.000239
1295	1.2875e+02	-11.5505	-31.021351	0.000446	4.459514	1.510924	-0.000179
1296	1.2885e+02	-11.5938	-31.235319	0.000537	5.371687	1.819977	-0.000215
1297	1.2895e+02	-11.6243	-31.457362	0.000557	5.574392	1.888655	-0.000223
1298	1.2905e+02	-11.6708	-31.667293	0.000527	5.270334	1.785638	-0.000211
1299	1.2915e+02	-11.7029	-31.897409	0.000578	5.777097	1.957334	-0.000231
1300	1.2925e+02	-11.7446	-32.115415	0.000547	5.473039	1.854316	-0.000219
1301	1.2935e+02	-11.7879	-32.325346	0.000527	5.270334	1.785638	-0.000211
1302	1.2945e+02	-11.8408	-32.575648	0.000628	6.283860	2.129029	-0.000252
1303	1.2955e+02	-11.8809	-32.769431	0.000486	4.864924	1.648281	-0.000195
1304	1.2965e+02	-11.9082	-32.975325	0.000517	5.168982	1.751298	-0.000207
1305	1.2975e+02	-11.9483	-33.193330	0.000547	5.473039	1.854316	-0.000219
1306	1.2985e+02	-11.9852	-33.411335	0.000547	5.473039	1.854316	-0.000219
1307	1.2995e+02	-12.0285	-33.580895	0.000426	4.256808	1.442246	-0.000170
1308	1.3005e+02	-12.0767	-33.802938	0.000557	5.574392	1.888655	-0.000223
1309	1.3015e+02	-12.1184	-34.053240	0.000628	6.283860	2.129029	-0.000252
1310	1.3025e+02	-12.1553	-34.259134	0.000517	5.168982	1.751298	-0.000207
1311	1.3034e+02	-12.1858	-34.460991	0.000507	5.067629	1.716959	-0.000203
1312	1.3044e+02	-12.2371	-34.703219	0.000608	6.081155	2.060351	-0.000243
1313	1.3054e+02	-12.2708	-34.884890	0.000456	4.560866	1.545263	-0.000183
1314	1.3064e+02	-12.3173	-35.090784	0.000517	5.168982	1.751298	-0.000207
1315	1.3074e+02	-12.3430	-35.320901	0.000578	5.777097	1.957334	-0.000231
1316	1.3084e+02	-12.3879	-35.571203	0.000628	6.283860	2.129029	-0.000252
1317	1.3094e+02	-12.4312	-35.756911	0.000466	4.662219	1.579602	-0.000187
1318	1.3104e+02	-12.4777	-35.962805	0.000517	5.168982	1.751298	-0.000207
1319	1.3114e+02	-12.5066	-36.184848	0.000557	5.574392	1.888655	-0.000223
1320	1.3124e+02	-12.5419	-36.382667	0.000497	4.966277	1.682620	-0.000199
1321	1.3134e+02	-12.5820	-36.592598	0.000527	5.270334	1.785638	-0.000211
1322	1.3144e+02	-12.6221	-36.863086	0.000679	6.790623	2.300725	-0.000272
1323	1.3154e+02	-12.6686	-36.992275	0.000324	3.243283	1.098854	-0.000130
1324	1.3164e+02	-12.7023	-37.254689	0.000659	6.587918	2.232047	-0.000264
1325	1.3174e+02	-12.7504	-37.468657	0.000537	5.371687	1.819977	-0.000215
1326	1.3184e+02	-12.7889	-37.630142	0.000405	4.054103	1.373567	-0.000162
1327	1.3194e+02	-12.8290	-37.900630	0.000679	6.790623	2.300725	-0.000272
1328	1.3204e+02	-12.8788	-38.130747	0.000578	5.777097	1.957334	-0.000231
1329	1.3214e+02	-12.9061	-38.292232	0.000405	4.054103	1.373567	-0.000162
1330	1.3224e+02	-12.9510	-38.494089	0.000507	5.067629	1.716959	-0.000203
1331	1.3234e+02	-12.9782	-38.708057	0.000537	5.371687	1.819977	-0.000215
1332	1.3243e+02	-13.0232	-38.954323	0.000618	6.182508	2.094690	-0.000248
1333	1.3253e+02	-13.0665	-39.135994	0.000456	4.560866	1.545263	-0.000183
1334	1.3263e+02	-13.1018	-39.345925	0.000527	5.270334	1.785638	-0.000211
1335	1.3273e+02	-13.1339	-39.563930	0.000547	5.473039	1.854316	-0.000219
1336	1.3283e+02	-13.1884	-39.761750	0.000497	4.966277	1.682620	-0.000199
1337	1.3293e+02	-13.2157	-40.012052	0.000628	6.283860	2.129029	-0.000252
1338	1.3303e+02	-13.2542	-40.173538	0.000405	4.054103	1.373567	-0.000162
1339	1.3313e+02	-13.3055	-40.403654	0.000578	5.777097	1.957334	-0.000231
1340	1.3323e+02	-13.3488	-40.637808	0.000588	5.878450	1.991673	-0.000235
1341	1.3333e+02	-13.3841	-40.795257	0.000395	3.952751	1.339228	-0.000158
1342	1.3343e+02	-13.4194	-41.029411	0.000588	5.878450	1.991673	-0.000235
1343	1.3353e+02	-13.4691	-41.263564	0.000588	5.878450	1.991673	-0.000235
1344	1.3363e+02	-13.5028	-41.457347	0.000486	4.864924	1.648281	-0.000195
1345	1.3373e+02	-13.5477	-41.667278	0.000527	5.270334	1.785638	-0.000211
1346	1.3383e+02	-13.5782	-41.881246	0.000537	5.371687	1.819977	-0.000215
1347	1.3393e+02	-13.6231	-42.091177	0.000527	5.270334	1.785638	-0.000211
1348	1.3403e+02	-13.6584	-42.309183	0.000547	5.473039	1.854316	-0.000219
1349	1.3413e+02	-13.7066	-42.511039	0.000507	5.067629	1.716959	-0.000203
1350	1.3423e+02	-13.7435	-42.716933	0.000517	5.168982	1.751298	-0.000207
1351	1.3432e+02	-13.7836	-42.914753	0.000497	4.966277	1.682620	-0.000199
1352	1.3442e+02	-13.8205	-43.144870	0.000578	5.777097	1.957334	-0.000231
1353	1.3452e+02	-13.8590	-43.314429	0.000426	4.256808	1.442246	-0.000170
1354	1.3462e+02	-13.8943	-43.516286	0.000507	5.067629	1.716959	-0.000203
1355	1.3472e+02	-13.9392	-43.758514	0.000608	6.081155	2.060351	-0.000243
1356	1.3482e+02	-13.9857	-43.996705	0.000598	5.979802	2.026012	-0.000239
1357	1.3492e+02	-14.0162	-44.178376	0.000456	4.560866	1.545263	-0.000183
1358	1.3502e+02	-14.0547	-44.408493	0.000578	5.777097	1.957334	-0.000231
1359	1.3512e+02	-14.0980	-44.610350	0.000507	5.067629	1.716959	-0.000203
1360	1.3522e+02	-14.1397	-44.792021	0.000456	4.560866	1.545263	-0.000183
1361	1.3532e+02	-14.1878	-44.997915	0.000517	5.168982	1.751298	-0.000207
1362	1.3542e+02	-14.2199	-45.211883	0.000537	5.371687	1.819977	-0.000215
1363	1.3552e+02	-14.2488	-45.429888	0.000547	5.473039	1.854316	-0.000219
1364	1.3562e+02	-14.2985	-45.635782	0.000517	5.168982	1.751298	-0.000207
1365	1.3572e+02	-14.3499	-45.821491	0.000466	4.662219	1.579602	-0.000187
1366	1.3582e+02	-14.3787	-46.027385	0.000517	5.168982	1.751298	-0.000207
1367	1.3592e+02	-14.4140	-46.213093	0.000466	4.662219	1.579602	-0.000187
1368	1.3602e+02	-14.4638	-46.431098	0.000547	5.473039	1.854316	-0.000219
1369	1.3612e+02	-14.5007	-46.665252	0.000588	5.878450	1.991673	-0.000235
1370	1.3622e+02	-14.5327	-46.867109	0.000507	5.067629	1.716959	-0.000203
1371	1.3631e+02	-14.5712	-47.064928	0.000497	4.966277	1.682620	-0.000199
1372	1.3641e+02	-14.6178	-47.246600	0.000456	4.560866	1.545263	-0.000183
1373	1.3651e+02	-14.6627	-47.428271	0.000456	4.560866	1.545263	-0.000183
1374	1.3661e+02	-14.7044	-47.658387	0.000578	5.777097	1.957334	-0.000231
1375	1.3671e+02	-14.7413	-47.831984	0.000436	4.358161	1.476585	-0.000174
1376	1.3681e+02	-14.7686	-48.074212	0.000608	6.081155	2.060351	-0.000243
1377	1.3691e+02	-14.8151	-48.267995	0.000486	4.864924	1.648281	-0.000195
1378	1.3701e+02	-14.8600	-48.498112	0.000578	5.777097	1.957334	-0.000231
1379	1.3711e+02	-14.8937	-48.627300	0.000324	3.243283	1.098854	-0.000130
1380	1.3721e+02	-14.9354	-48.893751	0.000669	6.689270	2.266386	-0.000268
1381	1.3731e+02	-14.9851	-49.115793	0.000557	5.574392	1.888655	-0.000223
1382	1.3741e+02	-15.0156	-49.289390	0.000436	4.358161	1.476585	-0.000174
1383	1.3751e+02	-15.0589	-49.495284	0.000517	5.168982	1.751298	-0.000207
1384	1.3761e+02	-15.0942	-49.676955	0.000456	4.560866	1.545263	-0.000183
1385	1.3771e+02	-15.1391	-49.870738	0.000486	4.864924	1.648281	-0.000195
1386	1.3781e+02	-15.1825	-50.133152	0.000659	6.587918	2.232047	-0.000264
1387	1.3791e+02	-15.2194	-50.326934	0.000486	4.864924	1.648281	-0.000195
1388	1.3801e+02	-15.2563	-50.500531	0.000436	4.358161	1.476585	-0.000174
1389	1.3811e+02	-15.3028	-50.706425	0.000517	5.168982	1.751298	-0.000207
1390	1.3821e+02	-15.3349	-50.904245	0.000497	4.966277	1.682620	-0.000199
1391	1.3831e+02	-15.3750	-51.134361	0.000578	5.777097	1.957334	-0.000231
1392	1.3840e+02	-15.4199	-51.295847	0.000405	4.054103	1.373567	-0.000162
1393	1.3850e+02	-15.4552	-51.497703	0.000507	5.067629	1.716959	-0.000203
1394	1.3860e+02	-15.5017	-51.691486	0.000486	4.864924	1.648281	-0.000195
1395	1.3870e+02	-15.5418	-51.925640	0.000588	5.878450	1.991673	-0.000235
1396	1.3880e+02	-15.5675	-52.107311	0.000456	4.560866	1.545263	-0.000183
1397	1.3890e+02	-15.6124	-52.313205	0.000517	5.168982	1.751298	-0.000207
1398	1.3900e+02	-15.6509	-52.511025	0.000497	4.966277	1.682620	-0.000199
1399	1.3910e+02	-15.7006	-52.672510	0.000405	4.054103	1.373567	-0.000162
1400	1.3920e+02	-15.7359	-52.858218	0.000466	4.662219	1.579602	-0.000187
1401	1.3930e+02	-15.7744	-53.100446	0.000608	6.081155	2.060351	-0.000243
1402	1.3940e+02	-15.8161	-53.274043	0.000436	4.358161	1.476585	-0.000174
1403	1.3950e+02	-15.8482	-53.500123	0.000568	5.675745	1.922994	-0.000227
1404	1.3960e+02	-15.9028	-53.665645	0.000416	4.155456	1.407907	-0.000166
1405	1.3970e+02	-15.9316	-53.867502	0.000507	5.067629	1.716959	-0.000203
1406	1.3980e+02	-15.9798	-54.069359	0.000507	5.067629	1.716959	-0.000203
1407	1.3990e+02	-16.0118	-54.259104	0.000476	4.763571	1.613942	-0.000191
1408	1.4000e+02	-16.0503	-54.436738	0.000446	4.459514	1.510924	-0.000179
1409	1.4010e+02	-16.0953	-54.670892	0.000588	5.878450	1.991673	-0.000235
1410	1.4020e+02	-16.1370	-54.852563	0.000456	4.560866	1.545263	-0.000183
1411	1.4029e+02	-16.1803	-55.038272	0.000466	4.662219	1.579602	-0.000187
1412	1.4039e+02	-16.2172	-55.223980	0.000466	4.662219	1.579602	-0.000187
1413	1.4049e+02	-16.2557	-55.437948	0.000537	5.371687	1.819977	-0.000215
1414	1.4059e+02	-16.2894	-55.639805	0.000507	5.067629	1.716959	-0.000203
1415	1.4069e+02	-16.3343	-55.817439	0.000446	4.459514	1.510924	-0.000179
1416	1.4079e+02	-16.3664	-56.027370	0.000527	5.270334	1.785638	-0.000211
1417	1.4089e+02	-16.4177	-56.180781	0.000385	3.851398	1.304889	-0.000154
1418	1.4099e+02	-16.4498	-56.382638	0.000507	5.067629	1.716959	-0.000203
1419	1.4109e+02	-16.4883	-56.596606	0.000537	5.371687	1.819977	-0.000215
1420	1.4119e+02	-16.5332	-56.826723	0.000578	5.777097	1.957334	-0.000231
1421	1.4129e+02	-16.5749	-56.976097	0.000375	3.750046	1.270550	-0.000150
1422	1.4139e+02	-16.6150	-57.173916	0.000497	4.966277	1.682620	-0.000199
1423	1.4149e+02	-16.6455	-57.351550	0.000446	4.459514	1.510924	-0.000179
1424	1.4159e+02	-16.6936	-57.553407	0.000507	5.067629	1.716959	-0.000203
1425	1.4169e+02	-16.7321	-57.727004	0.000436	4.358161	1.476585	-0.000174
1426	1.4179e+02	-16.7771	-57.936935	0.000527	5.270334	1.785638	-0.000211
1427	1.4189e+02	-16.8220	-58.130717	0.000486	4.864924	1.648281	-0.000195
1428	1.4199e+02	-16.8493	-58.300277	0.000426	4.256808	1.442246	-0.000170
1429	1.4209e+02	-16.8878	-58.473874	0.000436	4.358161	1.476585	-0.000174
1430	1.4219e+02	-16.9279	-58.695916	0.000557	5.574392	1.888655	-0.000223
1431	1.4228e+02	-16.9728	-58.909885	0.000537	5.371687	1.819977	-0.000215
1432	1.4238e+02	-17.0129	-59.083482	0.000436	4.358161	1.476585	-0.000174
1433	1.4248e+02	-17.0418	-59.257078	0.000436	4.358161	1.476585	-0.000174
1434	1.4258e+02	-17.0899	-59.475084	0.000547	5.473039	1.854316	-0.000219
1435	1.4268e+02	-17.1252	-59.644643	0.000426	4.256808	1.442246	-0.000170
1436	1.4278e+02	-17.1701	-59.854574	0.000527	5.270334	1.785638	-0.000211
1437	1.4288e+02	-17.2086	-60.040283	0.000466	4.662219	1.579602	-0.000187
1438	1.4298e+02	-17.2439	-60.221954	0.000456	4.560866	1.545263	-0.000183
1439	1.4308e+02	-17.2856	-60.407662	0.000466	4.662219	1.579602	-0.000187
1440	1.4318e+02	-17.3321	-60.569147	0.000405	4.054103	1.373567	-0.000162
1441	1.4328e+02	-17.3787	-60.779079	0.000527	5.270334	1.785638	-0.000211
1442	1.4338e+02	-17.4059	-60.984972	0.000517	5.168982	1.751298	-0.000207
1443	1.4348e+02	-17.4476	-61.170681	0.000466	4.662219	1.579602	-0.000187
1444	1.4358e+02	-17.4845	-61.324092	0.000385	3.851398	1.304889	-0.000154
1445	1.4368e+02	-17.5262	-61.489614	0.000416	4.155456	1.407907	-0.000166
1446	1.4378e+02	-17.5680	-61.731843	0.000608	6.081155	2.060351	-0.000243
1447	1.4388e+02	-17.6081	-61.901402	0.000426	4.256808	1.442246	-0.000170
1448	1.4398e+02	-17.6578	-62.050776	0.000375	3.750046	1.270550	-0.000150
1449	1.4408e+02	-17.6947	-62.288967	0.000598	5.979802	2.026012	-0.000239
1450	1.4418e+02	-17.7396	-62.442378	0.000385	3.851398	1.304889	-0.000154
1451	1.4428e+02	-17.7717	-62.644235	0.000507	5.067629	1.716959	-0.000203
1452	1.4437e+02	-17.8070	-62.850129	0.000517	5.168982	1.751298	-0.000207
1453	1.4447e+02	-17.8439	-63.023726	0.000436	4.358161	1.476585	-0.000174
1454	1.4457e+02	-17.8904	-63.193286	0.000426	4.256808	1.442246	-0.000170
1455	1.4467e+02	-17.9209	-63.387068	0.000486	4.864924	1.648281	-0.000195
1456	1.4477e+02	-17.9594	-63.580851	0.000486	4.864924	1.648281	-0.000195
1457	1.4487e+02	-18.0091	-63.782708	0.000507	5.067629	1.716959	-0.000203
1458	1.4497e+02	-18.0428	-63.936119	0.000385	3.851398	1.304889	-0.000154
1459	1.4507e+02	-18.0829	-64.121827	0.000466	4.662219	1.579602	-0.000187
1460	1.4517e+02	-18.1359	-64.331758	0.000527	5.270334	1.785638	-0.000211
1461	1.4527e+02	-18.1679	-64.521503	0.000476	4.763571	1.613942	-0.000191
1462	1.4537e+02	-18.2129	-64.707212	0.000466	4.662219	1.579602	-0.000187
1463	1.4547e+02	-18.2385	-64.872734	0.000416	4.155456	1.407907	-0.000166
1464	1.4557e+02	-18.2883	-65.030182	0.000395	3.952751	1.339228	-0.000158
1465	1.4567e+02	-18.3252	-65.207816	0.000446	4.459514	1.510924	-0.000179
1466	1.4577e+02	-18.3685	-65.441970	0.000588	5.878450	1.991673	-0.000235
1467	1.4587e+02	-18.4038	-65.647864	0.000517	5.168982	1.751298	-0.000207
1468	1.4597e+02	-18.4358	-65.773015	0.000314	3.141930	1.064515	-0.000126
1469	1.4607e+02	-18.4808	-65.986984	0.000537	5.371687	1.819977	-0.000215
1470	1.4617e+02	-18.5273	-66.180766	0.000486	4.864924	1.648281	-0.000195
1471	1.4626e+02	-18.5690	-66.378586	0.000497	4.966277	1.682620	-0.000199
1472	1.4636e+02	-18.5979	-66.507774	0.000324	3.243283	1.098854	-0.000130
1473	1.4646e+02	-18.6476	-66.697520	0.000476	4.763571	1.613942	-0.000191
1474	1.4656e+02	-18.6893	-66.935711	0.000598	5.979802	2.026012	-0.000239
1475	1.4666e+02	-18.7246	-67.072973	0.000345	3.445988	1.167532	-0.000138
1476	1.4676e+02	-18.7583	-67.258681	0.000466	4.662219	1.579602	-0.000187
1477	1.4686e+02	-18.8048	-67.432278	0.000436	4.358161	1.476585	-0.000174
1478	1.4696e+02	-18.8353	-67.638172	0.000517	5.168982	1.751298	-0.000207
1479	1.4706e+02	-18.8898	-67.819843	0.000456	4.560866	1.545263	-0.000183
1480	1.4716e+02	-18.9267	-67.993440	0.000436	4.358161	1.476585	-0.000174
1481	1.4726e+02	-18.9668	-68.203371	0.000527	5.270334	1.785638	-0.000211
1482	1.4736e+02	-19.0070	-68.364857	0.000405	4.054103	1.373567	-0.000162
1483	1.4746e+02	-19.0519	-68.566713	0.000507	5.067629	1.716959	-0.000203
1484	1.4756e+02	-19.0840	-68.744347	0.000446	4.459514	1.510924	-0.000179
1485	1.4766e+02	-19.1273	-68.942167	0.000497	4.966277	1.682620	-0.000199
1486	1.4776e+02	-19.1658	-69.123838	0.000456	4.560866	1.545263	-0.000183
1487	1.4786e+02	-19.2075	-69.289361	0.000416	4.155456	1.407907	-0.000166
1488	1.4796e+02	-19.2428	-69.495255	0.000517	5.168982	1.751298	-0.000207
1489	1.4806e+02	-19.2877	-69.664814	0.000426	4.256808	1.442246	-0.000170
1490	1.4816e+02	-19.3214	-69.834374	0.000426	4.256808	1.442246	-0.000170
1491	1.4825e+02	-19.3551	-69.995859	0.000405	4.054103	1.373567	-0.000162
1492	1.4835e+02	-19.4016	-70.217902	0.000557	5.574392	1.888655	-0.000223
1493	1.4845e+02	-19.4369	-70.383424	0.000416	4.155456	1.407907	-0.000166
1494	1.4855e+02	-19.4706	-70.581244	0.000497	4.966277	1.682620	-0.000199
1495	1.4865e+02	-19.5219	-70.718507	0.000345	3.445988	1.167532	-0.000138
1496	1.4875e+02	-19.5556	-70.956698	0.000598	5.979802	2.026012	-0.000239
1497	1.4885e+02	-19.6021	-71.114146	0.000395	3.952751	1.339228	-0.000158
1498	1.4895e+02	-19.6374	-71.279669	0.000416	4.155456	1.407907	-0.000166
1499	1.4905e+02	-19.6791	-71.453265	0.000436	4.358161	1.476585	-0.000174
1500	1.4915e+02	-19.7273	-71.643011	0.000476	4.763571	1.613942	-0.000191
1501	1.4925e+02	-19.7641	-71.816608	0.000436	4.358161	1.476585	-0.000174
1502	1.4935e+02	-19.7962	-71.990204	0.000436	4.358161	1.476585	-0.000174
1503	1.4945e+02	-19.8428	-72.200136	0.000527	5.270334	1.785638	-0.000211
1504	1.4955e+02	-19.8764	-72.393918	0.000486	4.864924	1.648281	-0.000195
1505	1.4965e+02	-19.9214	-72.595775	0.000507	5.067629	1.716959	-0.000203
1506	1.4975e+02	-19.9567	-72.765335	0.000426	4.256808	1.442246	-0.000170
1507	1.4985e+02	-19.9919	-72.934894	0.000426	4.256808	1.442246	-0.000170
1508	1.4995e+02	-19.9631	-72.789557	0.000365	3.648693	1.236211	0.000146
1509	1.5005e+02	-19.9198	-72.696703	0.000233	2.331109	0.789801	0.000093
1510	1.5015e+02	-19.8732	-72.591738	0.000264	2.635167	0.892819	0.000105
1511	1.5025e+02	-19.8395	-72.446401	0.000365	3.648693	1.236211	0.000146
1512	1.5034e+02	-19.8043	-72.313175	0.000334	3.344635	1.133193	0.000134
1513	1.5044e+02	-19.7497	-72.208210	0.000264	2.635167	0.892819	0.000105
1514	1.5054e+02	-19.7176	-72.066910	0.000355	3.547340	1.201871	0.000142
1515	1.5064e+02	-19.6807	-71.929647	0.000345	3.445988	1.167532	0.000138
1516	1.5074e+02	-19.6438	-71.816608	0.000284	2.837872	0.961497	0.000114
1517	1.5084e+02	-19.5989	-71.667234	0.000375	3.750046	1.270550	0.000150
1518	1.5094e+02	-19.5540	-71.542082	0.000314	3.141930	1.064515	0.000126
1519	1.5104e+02	-19.5235	-71.388671	0.000385	3.851398	1.304889	0.000154
1520	1.5114e+02	-19.4770	-71.299854	0.000223	2.229757	0.755462	0.000089
1521	1.5124e+02	-19.4417	-71.138369	0.000405	4.054103	1.373567	0.000162
1522	1.5134e+02	-19.3936	-71.009180	0.000324	3.243283	1.098854	0.000130
1523	1.5144e+02	-19.3647	-70.884029	0.000314	3.141930	1.064515	0.000126
1524	1.5154e+02	-19.3182	-70.795212	0.000223	2.229757	0.755462	0.000089
1525	1.5164e+02	-19.2813	-70.641801	0.000385	3.851398	1.304889	0.000154
1526	1.5174e+02	-19.2412	-70.476279	0.000416	4.155456	1.407907	0.000166
1527	1.5184e+02	-19.2011	-70.326905	0.000375	3.750046	1.270550	0.000150
1528	1.5194e+02	-19.1545	-70.177531	0.000375	3.750046	1.270550	0.000150
1529	1.5204e+02	-19.1160	-70.036231	0.000355	3.547340	1.201871	0.000142
1530	1.5214e+02	-19.0888	-69.878782	0.000395	3.952751	1.339228	0.000158
1531	1.5224e+02	-19.0487	-69.810151	0.000172	1.722994	0.583766	0.000069
1532	1.5233e+02	-19.0118	-69.644629	0.000416	4.155456	1.407907	0.000166
1533	1.5243e+02	-18.9556	-69.491217	0.000385	3.851398	1.304889	0.000154
1534	1.5253e+02	-18.9267	-69.321658	0.000426	4.256808	1.442246	0.000170
1535	1.5263e+02	-18.8866	-69.148061	0.000436	4.358161	1.476585	0.000174
1536	1.5273e+02	-18.8465	-69.051170	0.000243	2.432462	0.824140	0.000097
1537	1.5283e+02	-18.8064	-68.905833	0.000365	3.648693	1.236211	0.000146
1538	1.5293e+02	-18.7695	-68.780682	0.000314	3.141930	1.064515	0.000126
1539	1.5303e+02	-18.7230	-68.631308	0.000375	3.750046	1.270550	0.000150
1540	1.5313e+02	-18.6877	-68.457711	0.000436	4.358161	1.476585	0.000174
1541	1.5323e+02	-18.6476	-68.328522	0.000324	3.243283	1.098854	0.000130
1542	1.5333e+02	-18.6107	-68.175111	0.000385	3.851398	1.304889	0.000154
1543	1.5343e+02	-18.5658	-68.053997	0.000304	3.040577	1.030176	0.000122
1544	1.5353e+02	-18.5241	-67.880400	0.000436	4.358161	1.476585	0.000174
1545	1.5363e+02	-18.4759	-67.739101	0.000355	3.547340	1.201871	0.000142
1546	1.5373e+02	-18.4487	-67.605875	0.000334	3.344635	1.133193	0.000134
1547	1.5383e+02	-18.4118	-67.452464	0.000385	3.851398	1.304889	0.000154
1548	1.5393e+02	-18.3669	-67.278867	0.000436	4.358161	1.476585	0.000174
1549	1.5403e+02	-18.3284	-67.141604	0.000345	3.445988	1.167532	0.000138
1550	1.5413e+02	-18.2850	-67.020490	0.000304	3.040577	1.030176	0.000122
1551	1.5422e+02	-18.2449	-66.842856	0.000446	4.459514	1.510924	0.000179
1552	1.5432e+02	-18.2064	-66.693482	0.000375	3.750046	1.270550	0.000150
1553	1.5442e+02	-18.1695	-66.576405	0.000294	2.939225	0.995836	0.000118
1554	1.5452e+02	-18.1214	-66.406846	0.000426	4.256808	1.442246	0.000170
1555	1.5462e+02	-18.0941	-66.241323	0.000416	4.155456	1.407907	0.000166
1556	1.5472e+02	-18.0396	-66.108098	0.000334	3.344635	1.133193	0.000134
1557	1.5482e+02	-18.0043	-65.970835	0.000345	3.445988	1.167532	0.000138
1558	1.5492e+02	-17.9626	-65.781090	0.000476	4.763571	1.613942	0.000191
1559	1.5502e+02	-17.9257	-65.664013	0.000294	2.939225	0.995836	0.000118
1560	1.5512e+02	-17.8872	-65.490416	0.000436	4.358161	1.476585	0.000174
1561	1.5522e+02	-17.8519	-65.332968	0.000395	3.952751	1.339228	0.000158
1562	1.5532e+02	-17.8134	-65.183594	0.000375	3.750046	1.270550	0.000150
1563	1.5542e+02	-17.7669	-65.078628	0.000264	2.635167	0.892819	0.000105
1564	1.5552e+02	-17.7284	-64.864660	0.000537	5.371687	1.819977	0.000215
1565	1.5562e+02	-17.6867	-64.747583	0.000294	2.939225	0.995836	0.000118
1566	1.5572e+02	-17.6450	-64.565912	0.000456	4.560866	1.545263	0.000183
1567	1.5582e+02	-17.6145	-64.392315	0.000436	4.358161	1.476585	0.000174
1568	1.5592e+02	-17.5744	-64.271201	0.000304	3.040577	1.030176	0.000122
1569	1.5602e+02	-17.5262	-64.109716	0.000405	4.054103	1.373567	0.000162
1570	1.5612e+02	-17.4942	-63.936119	0.000436	4.358161	1.476585	0.000174
1571	1.5622e+02	-17.4573	-63.774633	0.000405	4.054103	1.373567	0.000162
1572	1.5631e+02	-17.4043	-63.613148	0.000405	4.054103	1.373567	0.000162
1573	1.5641e+02	-17.3578	-63.475885	0.000345	3.445988	1.167532	0.000138
1574	1.5651e+02	-17.3321	-63.326511	0.000375	3.750046	1.270550	0.000150
1575	1.5661e+02	-17.2872	-63.152914	0.000436	4.358161	1.476585	0.000174
1576	1.5671e+02	-17.2487	-63.003540	0.000375	3.750046	1.270550	0.000150
1577	1.5681e+02	-17.2118	-62.858203	0.000365	3.648693	1.236211	0.000146
1578	1.5691e+02	-17.1765	-62.700755	0.000395	3.952751	1.339228	0.000158
1579	1.5701e+02	-17.1284	-62.539270	0.000405	4.054103	1.373567	0.000162
1580	1.5711e+02	-17.0899	-62.361636	0.000446	4.459514	1.510924	0.000179
1581	1.5721e+02	-17.0498	-62.224373	0.000345	3.445988	1.167532	0.000138
1582	1.5731e+02	-17.0177	-62.074999	0.000375	3.750046	1.270550	0.000150
1583	1.5741e+02	-16.9696	-61.901402	0.000436	4.358161	1.476585	0.000174
1584	1.5751e+02	-16.9343	-61.747991	0.000385	3.851398	1.304889	0.000154
1585	1.5761e+02	-16.8910	-61.562283	0.000466	4.662219	1.579602	0.000187
1586	1.5771e+02	-16.8541	-61.437132	0.000314	3.141930	1.064515	0.000126
1587	1.5781e+02	-16.8043	-61.267572	0.000426	4.256808	1.442246	0.000170
1588	1.5791e+02	-16.7739	-61.118198	0.000375	3.750046	1.270550	0.000150
1589	1.5801e+02	-16.7289	-60.952675	0.000416	4.155456	1.407907	0.000166
1590	1.5811e+02	-16.6920	-60.771004	0.000456	4.560866	1.545263	0.000183
1591	1.5821e+02	-16.6567	-60.601445	0.000426	4.256808	1.442246	0.000170
1592	1.5830e+02	-16.6134	-60.468219	0.000334	3.344635	1.133193	0.000134
1593	1.5840e+02	-16.5765	-60.262325	0.000517	5.168982	1.751298	0.000207
1594	1.5850e+02	-16.5268	-60.129100	0.000334	3.344635	1.133193	0.000134
1595	1.5860e+02	-16.4899	-59.979726	0.000375	3.750046	1.270550	0.000150
1596	1.5870e+02	-16.4530	-59.830352	0.000375	3.750046	1.270550	0.000150
1597	1.5880e+02	-16.4081	-59.616383	0.000537	5.371687	1.819977	0.000215
1598	1.5890e+02	-16.3680	-59.442787	0.000436	4.358161	1.476585	0.000174
1599	1.5900e+02	-16.3279	-59.273227	0.000426	4.256808	1.442246	0.000170
1600	1.5910e+02	-16.2910	-59.156150	0.000294	2.939225	0.995836	0.000118
1601	1.5920e+02	-16.2605	-58.978516	0.000446	4.459514	1.510924	0.000179
1602	1.5930e+02	-16.2172	-58.768585	0.000527	5.270334	1.785638	0.000211
1603	1.5940e+02	-16.1707	-58.603062	0.000416	4.155456	1.407907	0.000166
1604	1.5950e+02	-16.1354	-58.457725	0.000365	3.648693	1.236211	0.000146
1605	1.5960e+02	-16.0985	-58.284129	0.000436	4.358161	1.476585	0.000174
1606	1.5970e+02	-16.0600	-58.154940	0.000324	3.243283	1.098854	0.000130
1607	1.5980e+02	-16.0086	-57.985381	0.000426	4.256808	1.442246	0.000170
1608	1.5990e+02	-15.9701	-57.807747	0.000446	4.459514	1.510924	0.000179
1609	1.6000e+02	-15.9332	-57.658373	0.000375	3.750046	1.270550	0.000150
1610	1.6010e+02	-15.8963	-57.480739	0.000446	4.459514	1.510924	0.000179
1611	1.6019e+02	-15.8498	-57.278882	0.000507	5.067629	1.716959	0.000203
1612	1.6029e+02	-15.8161	-57.165842	0.000284	2.837872	0.961497	0.000114
1613	1.6039e+02	-15.7696	-56.943800	0.000557	5.574392	1.888655	0.000223
1614	1.6049e+02	-15.7343	-56.782314	0.000405	4.054103	1.373567	0.000162
1615	1.6059e+02	-15.6926	-56.641014	0.000355	3.547340	1.201871	0.000142
1616	1.6069e+02	-15.6509	-56.439158	0.000507	5.067629	1.716959	0.000203
1617	1.6079e+02	-15.6156	-56.293821	0.000365	3.648693	1.236211	0.000146
1618	1.6089e+02	-15.5739	-56.100038	0.000486	4.864924	1.648281	0.000195
1619	1.6099e+02	-15.5434	-55.954701	0.000365	3.648693	1.236211	0.000146
1620	1.6109e+02	-15.4953	-55.756882	0.000497	4.966277	1.682620	0.000199
1621	1.6119e+02	-15.4584	-55.615582	0.000355	3.547340	1.201871	0.000142
1622	1.6129e+02	-15.4103	-55.437948	0.000446	4.459514	1.510924	0.000179
1623	1.6139e+02	-15.3750	-55.260314	0.000446	4.459514	1.510924	0.000179
1624	1.6149e+02	-15.3349	-55.090754	0.000426	4.256808	1.442246	0.000170
1625	1.6159e+02	-15.2948	-54.925232	0.000416	4.155456	1.407907	0.000166
1626	1.6169e+02	-15.2675	-54.759709	0.000416	4.155456	1.407907	0.000166
1627	1.6179e+02	-15.2194	-54.602261	0.000395	3.952751	1.339228	0.000158
1628	1.6189e+02	-15.1793	-54.408478	0.000486	4.864924	1.648281	0.000195
1629	1.6199e+02	-15.1231	-54.222770	0.000466	4.662219	1.579602	0.000187
1630	1.6209e+02	-15.0990	-54.093582	0.000324	3.243283	1.098854	0.000130
1631	1.6219e+02	-15.0621	-53.863465	0.000578	5.777097	1.957334	0.000231
1632	1.6228e+02	-15.0172	-53.722165	0.000355	3.547340	1.201871	0.000142
1633	1.6238e+02	-14.9723	-53.548568	0.000436	4.358161	1.476585	0.000174
1634	1.6248e+02	-14.9418	-53.391120	0.000395	3.952751	1.339228	0.000158
1635	1.6258e+02	-14.9017	-53.173115	0.000547	5.473039	1.854316	0.000219
1636	1.6268e+02	-14.8584	-53.023741	0.000375	3.750046	1.270550	0.000150
1637	1.6278e+02	-14.8183	-52.902627	0.000304	3.040577	1.030176	0.000122
1638	1.6288e+02	-14.7734	-52.664436	0.000598	5.979802	2.026012	0.000239
1639	1.6298e+02	-14.7349	-52.527173	0.000345	3.445988	1.167532	0.000138
1640	1.6308e+02	-14.6900	-52.349539	0.000446	4.459514	1.510924	0.000179
1641	1.6318e+02	-14.6563	-52.151719	0.000497	4.966277	1.682620	0.000199
1642	1.6328e+02	-14.6210	-52.026568	0.000314	3.141930	1.064515	0.000126
1643	1.6338e+02	-14.5809	-51.812600	0.000537	5.371687	1.819977	0.000215
1644	1.6348e+02	-14.5424	-51.630929	0.000456	4.560866	1.545263	0.000183
1645	1.6358e+02	-14.5071	-51.485592	0.000365	3.648693	1.236211	0.000146
1646	1.6368e+02	-14.4654	-51.307958	0.000446	4.459514	1.510924	0.000179
1647	1.6378e+02	-14.4188	-51.134361	0.000436	4.358161	1.476585	0.000174
1648	1.6388e+02	-14.3948	-50.948653	0.000466	4.662219	1.579602	0.000187
1649	1.6398e+02	-14.3467	-50.775056	0.000436	4.358161	1.476585	0.000174
1650	1.6408e+02	-14.3049	-50.613571	0.000405	4.054103	1.373567	0.000162
1651	1.6418e+02	-14.2600	-50.415751	0.000497	4.966277	1.682620	0.000199
1652	1.6427e+02	-14.2247	-50.262340	0.000385	3.851398	1.304889	0.000154
1653	1.6437e+02	-14.1798	-50.068557	0.000486	4.864924	1.648281	0.000195
1654	1.6447e+02	-14.1445	-49.882849	0.000466	4.662219	1.579602	0.000187
1655	1.6457e+02	-14.1124	-49.705215	0.000446	4.459514	1.510924	0.000179
1656	1.6467e+02	-14.0611	-49.559878	0.000365	3.648693	1.236211	0.000146
1657	1.6477e+02	-14.0162	-49.374170	0.000466	4.662219	1.579602	0.000187
1658	1.6487e+02	-13.9841	-49.168276	0.000517	5.168982	1.751298	0.000207
1659	1.6497e+02	-13.9392	-49.026976	0.000355	3.547340	1.201871	0.000142
1660	1.6507e+02	-13.8991	-48.837231	0.000476	4.763571	1.613942	0.000191
1661	1.6517e+02	-13.8622	-48.675746	0.000405	4.054103	1.373567	0.000162
1662	1.6527e+02	-13.8205	-48.494074	0.000456	4.560866	1.545263	0.000183
1663	1.6537e+02	-13.7788	-48.312403	0.000456	4.560866	1.545263	0.000183
1664	1.6547e+02	-13.7403	-48.138807	0.000436	4.358161	1.476585	0.000174
1665	1.6557e+02	-13.7066	-47.977321	0.000405	4.054103	1.373567	0.000162
1666	1.6567e+02	-13.6681	-47.787576	0.000476	4.763571	1.613942	0.000191
1667	1.6577e+02	-13.6280	-47.605905	0.000456	4.560866	1.545263	0.000183
1668	1.6587e+02	-13.5750	-47.464605	0.000355	3.547340	1.201871	0.000142
1669	1.6597e+02	-13.5429	-47.250637	0.000537	5.371687	1.819977	0.000215
1670	1.6607e+02	-13.5076	-47.064928	0.000466	4.662219	1.579602	0.000187
1671	1.6616e+02	-13.4675	-46.903443	0.000405	4.054103	1.373567	0.000162
1672	1.6626e+02	-13.4242	-46.721772	0.000456	4.560866	1.545263	0.000183
1673	1.6636e+02	-13.3825	-46.556249	0.000416	4.155456	1.407907	0.000166
1674	1.6646e+02	-13.3488	-46.346318	0.000527	5.270334	1.785638	0.000211
1675	1.6656e+02	-13.3071	-46.164647	0.000456	4.560866	1.545263	0.000183
1676	1.6666e+02	-13.2702	-45.991050	0.000436	4.358161	1.476585	0.000174
1677	1.6676e+02	-13.2173	-45.837639	0.000385	3.851398	1.304889	0.000154
1678	1.6686e+02	-13.1836	-45.639820	0.000497	4.966277	1.682620	0.000199
1679	1.6696e+02	-13.1483	-45.454111	0.000466	4.662219	1.579602	0.000187
1680	1.6706e+02	-13.1050	-45.284552	0.000426	4.256808	1.442246	0.000170
1681	1.6716e+02	-13.0520	-45.098843	0.000466	4.662219	1.579602	0.000187
1682	1.6726e+02	-13.0232	-44.917172	0.000456	4.560866	1.545263	0.000183
1683	1.6736e+02	-12.9831	-44.703204	0.000537	5.371687	1.819977	0.000215
1684	1.6746e+02	-12.9510	-44.565941	0.000345	3.445988	1.167532	0.000138
1685	1.6756e+02	-12.9125	-44.396382	0.000426	4.256808	1.442246	0.000170
1686	1.6766e+02	-12.8595	-44.194525	0.000507	5.067629	1.716959	0.000203
1687	1.6776e+02	-12.8178	-44.020928	0.000436	4.358161	1.476585	0.000174
1688	1.6786e+02	-12.7857	-43.839257	0.000456	4.560866	1.545263	0.000183
1689	1.6796e+02	-12.7456	-43.657586	0.000456	4.560866	1.545263	0.000183
1690	1.6806e+02	-12.7071	-43.492063	0.000416	4.155456	1.407907	0.000166
1691	1.6816e+02	-12.6718	-43.314429	0.000446	4.459514	1.510924	0.000179
1692	1.6825e+02	-12.6301	-43.096424	0.000547	5.473039	1.854316	0.000219
1693	1.6835e+02	-12.5836	-42.955124	0.000355	3.547340	1.201871	0.000142
1694	1.6845e+02	-12.5467	-42.769416	0.000466	4.662219	1.579602	0.000187
1695	1.6855e+02	-12.5050	-42.555448	0.000537	5.371687	1.819977	0.000215
1696	1.6865e+02	-12.4793	-42.353591	0.000507	5.067629	1.716959	0.000203
1697	1.6875e+02	-12.4280	-42.216328	0.000345	3.445988	1.167532	0.000138
1698	1.6885e+02	-12.3895	-42.026583	0.000476	4.763571	1.613942	0.000191
1699	1.6895e+02	-12.3478	-41.816652	0.000527	5.270334	1.785638	0.000211
1700	1.6905e+02	-12.3141	-41.667278	0.000375	3.750046	1.270550	0.000150
1701	1.6915e+02	-12.2644	-41.481570	0.000466	4.662219	1.579602	0.000187
1702	1.6925e+02	-12.2194	-41.307973	0.000436	4.358161	1.476585	0.000174
1703	1.6935e+02	-12.1874	-41.089968	0.000547	5.473039	1.854316	0.000219
1704	1.6945e+02	-12.1521	-40.928482	0.000405	4.054103	1.373567	0.000162
1705	1.6955e+02	-12.1104	-40.734700	0.000486	4.864924	1.648281	0.000195
1706	1.6965e+02	-12.0638	-40.508620	0.000568	5.675745	1.922994	0.000227
1707	1.6975e+02	-12.0366	-40.314837	0.000486	4.864924	1.648281	0.000195
1708	1.6985e+02	-11.9948	-40.149315	0.000416	4.155456	1.407907	0.000166
1709	1.6995e+02	-11.9580	-39.927272	0.000557	5.574392	1.888655	0.000223
1710	1.7005e+02	-11.9114	-39.765787	0.000405	4.054103	1.373567	0.000162
1711	1.7015e+02	-11.8761	-39.616413	0.000375	3.750046	1.270550	0.000150
1712	1.7024e+02	-11.8232	-39.414556	0.000507	5.067629	1.716959	0.000203
1713	1.7034e+02	-11.7879	-39.224811	0.000476	4.763571	1.613942	0.000191
1714	1.7044e+02	-11.7574	-39.026991	0.000497	4.966277	1.682620	0.000199
1715	1.7054e+02	-11.7125	-38.869543	0.000395	3.952751	1.339228	0.000158
1716	1.7064e+02	-11.6724	-38.651538	0.000547	5.473039	1.854316	0.000219
1717	1.7074e+02	-11.6339	-38.486015	0.000416	4.155456	1.407907	0.000166
1718	1.7084e+02	-11.5970	-38.268010	0.000547	5.473039	1.854316	0.000219
1719	1.7094e+02	-11.5585	-38.110561	0.000395	3.952751	1.339228	0.000158
1720	1.7104e+02	-11.5152	-37.912742	0.000497	4.966277	1.682620	0.000199
1721	1.7114e+02	-11.4751	-37.718959	0.000486	4.864924	1.648281	0.000195
1722	1.7124e+02	-11.4270	-37.504991	0.000537	5.371687	1.819977	0.000215
1723	1.7134e+02	-11.3884	-37.343506	0.000405	4.054103	1.373567	0.000162
1724	1.7144e+02	-11.3580	-37.141649	0.000507	5.067629	1.716959	0.000203
1725	1.7154e+02	-11.3163	-36.947866	0.000486	4.864924	1.648281	0.000195
1726	1.7164e+02	-11.2762	-36.778307	0.000426	4.256808	1.442246	0.000170
1727	1.7174e+02	-11.2328	-36.580487	0.000497	4.966277	1.682620	0.000199
1728	1.7184e+02	-11.1943	-36.362482	0.000547	5.473039	1.854316	0.000219
1729	1.7194e+02	-11.1606	-36.180810	0.000456	4.560866	1.545263	0.000183
1730	1.7204e+02	-11.1109	-35.954731	0.000568	5.675745	1.922994	0.000227
1731	1.7213e+02	-11.0804	-35.777097	0.000446	4.459514	1.510924	0.000179
1732	1.7223e+02	-11.0419	-35.627723	0.000375	3.750046	1.270550	0.000150
1733	1.7233e+02	-10.9858	-35.421829	0.000517	5.168982	1.751298	0.000207
1734	1.7243e+02	-10.9553	-35.232084	0.000476	4.763571	1.613942	0.000191
1735	1.7253e+02	-10.9136	-35.001967	0.000578	5.777097	1.957334	0.000231
1736	1.7263e+02	-10.8719	-34.779924	0.000557	5.574392	1.888655	0.000223
1737	1.7273e+02	-10.8430	-34.614402	0.000416	4.155456	1.407907	0.000166
1738	1.7283e+02	-10.7949	-34.416582	0.000497	4.966277	1.682620	0.000199
1739	1.7293e+02	-10.7500	-34.174354	0.000608	6.081155	2.060351	0.000243
1740	1.7303e+02	-10.7243	-34.016906	0.000395	3.952751	1.339228	0.000158
1741	1.7313e+02	-10.6762	-33.815049	0.000507	5.067629	1.716959	0.000203
1742	1.7323e+02	-10.6329	-33.625304	0.000476	4.763571	1.613942	0.000191
1743	1.7333e+02	-10.5960	-33.427484	0.000497	4.966277	1.682620	0.000199
1744	1.7343e+02	-10.5639	-33.233701	0.000486	4.864924	1.648281	0.000195
1745	1.7353e+02	-10.5141	-33.023770	0.000527	5.270334	1.785638	0.000211
1746	1.7363e+02	-10.4788	-32.825951	0.000497	4.966277	1.682620	0.000199
1747	1.7373e+02	-10.4323	-32.664465	0.000405	4.054103	1.373567	0.000162
1748	1.7383e+02	-10.3938	-32.418200	0.000618	6.182508	2.094690	0.000248
1749	1.7393e+02	-10.3585	-32.248640	0.000426	4.256808	1.442246	0.000170
1750	1.7403e+02	-10.3072	-32.058895	0.000476	4.763571	1.613942	0.000191
1751	1.7413e+02	-10.2847	-31.832815	0.000568	5.675745	1.922994	0.000227
1752	1.7422e+02	-10.2382	-31.639033	0.000486	4.864924	1.648281	0.000195
1753	1.7432e+02	-10.1853	-31.461399	0.000446	4.459514	1.510924	0.000179
1754	1.7442e+02	-10.1580	-31.247431	0.000537	5.371687	1.819977	0.000215
1755	1.7452e+02	-10.1083	-31.061722	0.000466	4.662219	1.579602	0.000187
1756	1.7462e+02	-10.0874	-30.839680	0.000557	5.574392	1.888655	0.000223
1757	1.7472e+02	-10.0377	-30.609563	0.000578	5.777097	1.957334	0.000231
1758	1.7482e+02	-9.9944	-30.399632	0.000527	5.270334	1.785638	0.000211
1759	1.7492e+02	-9.9478	-30.234110	0.000416	4.155456	1.407907	0.000166
1760	1.7502e+02	-9.9222	-30.028216	0.000517	5.168982	1.751298	0.000207
1761	1.7512e+02	-9.8773	-29.838470	0.000476	4.763571	1.613942	0.000191
1762	1.7522e+02	-9.8339	-29.600279	0.000598	5.979802	2.026012	0.000239
1763	1.7532e+02	-9.7906	-29.418608	0.000456	4.560866	1.545263	0.000183
1764	1.7542e+02	-9.7650	-29.180417	0.000598	5.979802	2.026012	0.000239
1765	1.7552e+02	-9.7056	-29.039117	0.000355	3.547340	1.201871	0.000142
1766	1.7562e+02	-9.6815	-28.780741	0.000649	6.486565	2.197708	0.000260
1767	1.7572e+02	-9.6398	-28.586958	0.000486	4.864924	1.648281	0.000195
1768	1.7582e+02	-9.5997	-28.401250	0.000466	4.662219	1.579602	0.000187
1769	1.7592e+02	-9.5660	-28.183245	0.000547	5.473039	1.854316	0.000219
1770	1.7602e+02	-9.5179	-27.957165	0.000568	5.675745	1.922994	0.000227
1771	1.7612e+02	-9.4906	-27.779531	0.000446	4.459514	1.510924	0.000179
1772	1.7621e+02	-9.4345	-27.593823	0.000466	4.662219	1.579602	0.000187
1773	1.7631e+02	-9.4024	-27.391966	0.000507	5.067629	1.716959	0.000203
1774	1.7641e+02	-9.3527	-27.121478	0.000679	6.790623	2.300725	0.000272
1775	1.7651e+02	-9.3142	-26.895398	0.000568	5.675745	1.922994	0.000227
1776	1.7661e+02	-9.2821	-26.733913	0.000405	4.054103	1.373567	0.000162
1777	1.7671e+02	-9.2452	-26.540130	0.000486	4.864924	1.648281	0.000195
1778	1.7681e+02	-9.1955	-26.301939	0.000598	5.979802	2.026012	0.000239
1779	1.7691e+02	-9.1570	-26.128342	0.000436	4.358161	1.476585	0.000174
1780	1.7701e+02	-9.1249	-25.865929	0.000659	6.587918	2.232047	0.000264
1781	1.7711e+02	-9.0816	-25.680220	0.000466	4.662219	1.579602	0.000187
1782	1.7721e+02	-9.0431	-25.514698	0.000416	4.155456	1.407907	0.000166
1783	1.7731e+02	-9.0014	-25.248247	0.000669	6.689270	2.266386	0.000268
1784	1.7741e+02	-8.9677	-25.062539	0.000466	4.662219	1.579602	0.000187
1785	1.7751e+02	-8.9292	-24.868756	0.000486	4.864924	1.648281	0.000195
1786	1.7761e+02	-8.8874	-24.666899	0.000507	5.067629	1.716959	0.000203
1787	1.7771e+02	-8.8393	-24.424671	0.000608	6.081155	2.060351	0.000243
1788	1.7781e+02	-8.8056	-24.234926	0.000476	4.763571	1.613942	0.000191
1789	1.7791e+02	-8.7639	-24.016921	0.000547	5.473039	1.854316	0.000219
1790	1.7801e+02	-8.7238	-23.823138	0.000486	4.864924	1.648281	0.000195
1791	1.7810e+02	-8.6901	-23.576873	0.000618	6.182508	2.094690	0.000248
1792	1.7820e+02	-8.6484	-23.370979	0.000517	5.168982	1.751298	0.000207
1793	1.7830e+02	-8.6051	-23.193345	0.000446	4.459514	1.510924	0.000179
1794	1.7840e+02	-8.5682	-22.943042	0.000628	6.283860	2.129029	0.000252
1795	1.7850e+02	-8.5201	-22.765408	0.000446	4.459514	1.510924	0.000179
1796	1.7860e+02	-8.4784	-22.539329	0.000568	5.675745	1.922994	0.000227
1797	1.7870e+02	-8.4383	-22.313249	0.000568	5.675745	1.922994	0.000227
1798	1.7880e+02	-8.4094	-22.115430	0.000497	4.966277	1.682620	0.000199
1799	1.7890e+02	-8.3645	-21.945870	0.000426	4.256808	1.442246	0.000170
1800	1.7900e+02	-8.3228	-21.663270	0.000709	7.094681	2.403743	0.000284
1801	1.7910e+02	-8.2843	-21.481599	0.000456	4.560866	1.545263	0.000183
1802	1.7920e+02	-8.2425	-21.243408	0.000598	5.979802	2.026012	0.000239
1803	1.7930e+02	-8.2057	-21.037514	0.000517	5.168982	1.751298	0.000207
1804	1.7940e+02	-8.1623	-20.819509	0.000547	5.473039	1.854316	0.000219
1805	1.7950e+02	-8.1286	-20.609578	0.000527	5.270334	1.785638	0.000211
1806	1.7960e+02	-8.0885	-20.391573	0.000547	5.473039	1.854316	0.000219
1807	1.7970e+02	-8.0452	-20.197790	0.000486	4.864924	1.648281	0.000195
1808	1.7980e+02	-8.0035	-19.967673	0.000578	5.777097	1.957334	0.000231
1809	1.7990e+02	-7.9682	-19.733519	0.000588	5.878450	1.991673	0.000235
1810	1.8000e+02	-7.9185	-19.527626	0.000517	5.168982	1.751298	0.000207
1811	1.8009e+02	-7.8928	-19.313657	0.000537	5.371687	1.819977	0.000215
1812	1.8019e+02	-7.8463	-19.099689	0.000537	5.371687	1.819977	0.000215
1813	1.8029e+02	-7.8110	-18.913981	0.000466	4.662219	1.579602	0.000187
1814	1.8039e+02	-7.7645	-18.655604	0.000649	6.486565	2.197708	0.000260
1815	1.8049e+02	-7.7308	-18.473933	0.000456	4.560866	1.545263	0.000183
1816	1.8059e+02	-7.6875	-18.276113	0.000497	4.966277	1.682620	0.000199
1817	1.8069e+02	-7.6522	-18.029848	0.000618	6.182508	2.094690	0.000248
1818	1.8079e+02	-7.6105	-17.815880	0.000537	5.371687	1.819977	0.000215
1819	1.8089e+02	-7.5720	-17.597875	0.000547	5.473039	1.854316	0.000219
1820	1.8099e+02	-7.5222	-17.371795	0.000568	5.675745	1.922994	0.000227
1821	1.8109e+02	-7.4918	-17.161864	0.000527	5.270334	1.785638	0.000211
1822	1.8119e+02	-7.4501	-16.972119	0.000476	4.763571	1.613942	0.000191
1823	1.8129e+02	-7.4051	-16.733928	0.000598	5.979802	2.026012	0.000239
1824	1.8139e+02	-7.3570	-16.495737	0.000598	5.979802	2.026012	0.000239
1825	1.8149e+02	-7.3362	-16.326177	0.000426	4.256808	1.442246	0.000170
1826	1.8159e+02	-7.2993	-16.071837	0.000639	6.385213	2.163369	0.000256
1827	1.8169e+02	-7.2463	-15.874018	0.000497	4.966277	1.682620	0.000199
1828	1.8179e+02	-7.2046	-15.623715	0.000628	6.283860	2.129029	0.000252
1829	1.8189e+02	-7.1822	-15.389561	0.000588	5.878450	1.991673	0.000235
1830	1.8199e+02	-7.1196	-15.220002	0.000426	4.256808	1.442246	0.000170
1831	1.8209e+02	-7.0939	-15.014108	0.000517	5.168982	1.751298	0.000207
1832	1.8218e+02	-7.0442	-14.779954	0.000588	5.878450	1.991673	0.000235
1833	1.8228e+02	-7.0089	-14.517540	0.000659	6.587918	2.232047	0.000264
1834	1.8238e+02	-6.9688	-14.323758	0.000486	4.864924	1.648281	0.000195
1835	1.8248e+02	-6.9303	-14.117864	0.000517	5.168982	1.751298	0.000207
1836	1.8258e+02	-6.8918	-13.903895	0.000537	5.371687	1.819977	0.000215
1837	1.8268e+02	-6.8453	-13.698002	0.000517	5.168982	1.751298	0.000207
1838	1.8278e+02	-6.8164	-13.447699	0.000628	6.283860	2.129029	0.000252
1839	1.8288e+02	-6.7747	-13.245842	0.000507	5.067629	1.716959	0.000203
1840	1.8298e+02	-6.7330	-13.027837	0.000547	5.473039	1.854316	0.000219
1841	1.8308e+02	-6.6913	-12.761386	0.000669	6.689270	2.266386	0.000268
1842	1.8318e+02	-6.6560	-12.575678	0.000466	4.662219	1.579602	0.000187
1843	1.8328e+02	-6.6126	-12.345561	0.000578	5.777097	1.957334	0.000231
1844	1.8338e+02	-6.5709	-12.107370	0.000598	5.979802	2.026012	0.000239
1845	1.8348e+02	-6.5276	-11.921662	0.000466	4.662219	1.579602	0.000187
1846	1.8358e+02	-6.4939	-11.679434	0.000608	6.081155	2.060351	0.000243
1847	1.8368e+02	-6.4586	-11.437206	0.000608	6.081155	2.060351	0.000243
1848	1.8378e+02	-6.4121	-11.255534	0.000456	4.560866	1.545263	0.000183
1849	1.8388e+02	-6.3736	-11.033492	0.000557	5.574392	1.888655	0.000223
1850	1.8398e+02	-6.3335	-10.815487	0.000547	5.473039	1.854316	0.000219
1851	1.8407e+02	-6.2950	-10.609593	0.000517	5.168982	1.751298	0.000207
1852	1.8417e+02	-6.2501	-10.347179	0.000659	6.587918	2.232047	0.000264
1853	1.8427e+02	-6.2180	-10.125136	0.000557	5.574392	1.888655	0.000223
1854	1.8437e+02	-6.1715	-9.935391	0.000476	4.763571	1.613942	0.000191
1855	1.8447e+02	-6.1394	-9.701237	0.000588	5.878450	1.991673	0.000235
1856	1.8457e+02	-6.0945	-9.459009	0.000608	6.081155	2.060351	0.000243
1857	1.8467e+02	-6.0512	-9.257152	0.000507	5.067629	1.716959	0.000203
1858	1.8477e+02	-6.0127	-9.031073	0.000568	5.675745	1.922994	0.000227
1859	1.8487e+02	-5.9710	-8.813067	0.000547	5.473039	1.854316	0.000219
1860	1.8497e+02	-5.9389	-8.566802	0.000618	6.182508	2.094690	0.000248
1861	1.8507e+02	-5.9036	-8.364945	0.000507	5.067629	1.716959	0.000203
1862	1.8517e+02	-5.8554	-8.130791	0.000588	5.878450	1.991673	0.000235
1863	1.8527e+02	-5.8153	-7.916823	0.000537	5.371687	1.819977	0.000215
1864	1.8537e+02	-5.7768	-7.674595	0.000608	6.081155	2.060351	0.000243
1865	1.8547e+02	-5.7415	-7.452553	0.000557	5.574392	1.888655	0.000223
1866	1.8557e+02	-5.6902	-7.218399	0.000588	5.878450	1.991673	0.000235
1867	1.8567e+02	-5.6565	-7.008468	0.000527	5.270334	1.785638	0.000211
1868	1.8577e+02	-5.6148	-6.754128	0.000639	6.385213	2.163369	0.000256
1869	1.8587e+02	-5.5747	-6.552271	0.000507	5.067629	1.716959	0.000203
1870	1.8597e+02	-5.5362	-6.293895	0.000649	6.486565	2.197708	0.000260
1871	1.8606e+02	-5.5073	-6.079926	0.000537	5.371687	1.819977	0.000215
1872	1.8616e+02	-5.4592	-5.865958	0.000537	5.371687	1.819977	0.000215
1873	1.8626e+02	-5.4223	-5.631804	0.000588	5.878450	1.991673	0.000235
1874	1.8636e+02	-5.3838	-5.405725	0.000568	5.675745	1.922994	0.000227
1875	1.8646e+02	-5.3389	-5.147348	0.000649	6.486565	2.197708	0.000260
1876	1.8656e+02	-5.2956	-4.965677	0.000456	4.560866	1.545263	0.000183
1877	1.8666e+02	-5.2667	-4.707300	0.000649	6.486565	2.197708	0.000260
1878	1.8676e+02	-5.2234	-4.493332	0.000537	5.371687	1.819977	0.000215
1879	1.8686e+02	-5.1817	-4.230918	0.000659	6.587918	2.232047	0.000264
1880	1.8696e+02	-5.1528	-4.016950	0.000537	5.371687	1.819977	0.000215
1881	1.8706e+02	-5.0966	-3.782796	0.000588	5.878450	1.991673	0.000235
1882	1.8716e+02	-5.0662	-3.544605	0.000598	5.979802	2.026012	0.000239
1883	1.8726e+02	-5.0196	-3.371008	0.000436	4.358161	1.476585	0.000174
1884	1.8736e+02	-4.9827	-3.072260	0.000750	7.500091	2.541100	0.000300
1885	1.8746e+02	-4.9362	-2.854255	0.000547	5.473039	1.854316	0.000219
1886	1.8756e+02	-4.9009	-2.648361	0.000517	5.168982	1.751298	0.000207
1887	1.8766e+02	-4.8560	-2.426319	0.000557	5.574392	1.888655	0.000223
1888	1.8776e+02	-4.8223	-2.180053	0.000618	6.182508	2.094690	0.000248
1889	1.8786e+02	-4.7838	-1.945899	0.000588	5.878450	1.991673	0.000235
1890	1.8796e+02	-4.7389	-1.699634	0.000618	6.182508	2.094690	0.000248
1891	1.8806e+02	-4.6972	-1.493740	0.000517	5.168982	1.751298	0.000207
1892	1.8815e+02	-4.6555	-1.287846	0.000517	5.168982	1.751298	0.000207
1893	1.8825e+02	-4.6266	-1.017358	0.000679	6.790623	2.300725	0.000272
1894	1.8835e+02	-4.5769	-0.775130	0.000608	6.081155	2.060351	0.000243
1895	1.8845e+02	-4.5464	-0.545013	0.000578	5.777097	1.957334	0.000231
1896	1.8855e+02	-4.5015	-0.286637	0.000649	6.486565	2.197708	0.000260
1897	1.8865e+02	-4.4646	-0.044408	0.000608	6.081155	2.060351	0.000243
1898	1.8875e+02	-4.4245	0.181671	0.000568	5.675745	1.922994	0.000227
1899	1.8885e+02	-4.3860	0.399676	0.000547	5.473039	1.854316	0.000219
1900	1.8895e+02	-4.3443	0.654016	0.000639	6.385213	2.163369	0.000256
1901	1.8905e+02	-4.3026	0.863947	0.000527	5.270334	1.785638	0.000211
1902	1.8915e+02	-4.2657	1.110212	0.000618	6.182508	2.094690	0.000248
1903	1.8925e+02	-4.2175	1.324181	0.000537	5.371687	1.819977	0.000215
1904	1.8935e+02	-4.1822	1.590631	0.000669	6.689270	2.266386	0.000268
1905	1.8945e+02	-4.1453	1.800563	0.000527	5.270334	1.785638	0.000211
1906	1.8955e+02	-4.1004	2.058939	0.000649	6.486565	2.197708	0.000260
1907	1.8965e+02	-4.0635	2.305205	0.000618	6.182508	2.094690	0.000248
1908	1.8975e+02	-4.0186	2.543396	0.000598	5.979802	2.026012	0.000239
1909	1.8985e+02	-3.9865	2.769475	0.000568	5.675745	1.922994	0.000227
1910	1.8995e+02	-3.9480	2.999592	0.000578	5.777097	1.957334	0.000231
1911	1.9004e+02	-3.9063	3.257969	0.000649	6.486565	2.197708	0.000260
1912	1.9014e+02	-3.8630	3.484048	0.000568	5.675745	1.922994	0.000227
1913	1.9024e+02	-3.8213	3.738388	0.000639	6.385213	2.163369	0.000256
1914	1.9034e+02	-3.7780	3.988690	0.000628	6.283860	2.129029	0.000252
1915	1.9044e+02	-3.7379	4.230918	0.000608	6.081155	2.060351	0.000243
1916	1.9054e+02	-3.7058	4.497369	0.000669	6.689270	2.266386	0.000268
1917	1.9064e+02	-3.6705	4.719412	0.000557	5.574392	1.888655	0.000223
1918	1.9074e+02	-3.6240	4.961640	0.000608	6.081155	2.060351	0.000243
1919	1.9084e+02	-3.5823	5.199831	0.000598	5.979802	2.026012	0.000239
1920	1.9094e+02	-3.5421	5.421873	0.000557	5.574392	1.888655	0.000223
1921	1.9104e+02	-3.5085	5.680250	0.000649	6.486565	2.197708	0.000260
1922	1.9114e+02	-3.4684	5.926515	0.000618	6.182508	2.094690	0.000248
1923	1.9124e+02	-3.4202	6.140483	0.000537	5.371687	1.819977	0.000215
1924	1.9134e+02	-3.3897	6.398860	0.000649	6.486565	2.197708	0.000260
1925	1.9144e+02	-3.3528	6.645125	0.000618	6.182508	2.094690	0.000248
1926	1.9154e+02	-3.3015	6.855056	0.000527	5.270334	1.785638	0.000211
1927	1.9164e+02	-3.2662	7.097285	0.000608	6.081155	2.060351	0.000243
1928	1.9174e+02	-3.2293	7.379884	0.000709	7.094681	2.403743	0.000284
1929	1.9184e+02	-3.1892	7.553481	0.000436	4.358161	1.476585	0.000174
1930	1.9194e+02	-3.1459	7.844155	0.000730	7.297386	2.472421	0.000292
1931	1.9203e+02	-3.0994	8.086383	0.000608	6.081155	2.060351	0.000243
1932	1.9213e+02	-3.0689	8.300351	0.000537	5.371687	1.819977	0.000215
1933	1.9223e+02	-3.0240	8.558728	0.000649	6.486565	2.197708	0.000260
1934	1.9233e+02	-2.9983	8.821142	0.000659	6.587918	2.232047	0.000264
1935	1.9243e+02	-2.9534	9.067407	0.000618	6.182508	2.094690	0.000248
1936	1.9253e+02	-2.8972	9.305598	0.000598	5.979802	2.026012	0.000239
1937	1.9263e+02	-2.8684	9.559937	0.000639	6.385213	2.163369	0.000256
1938	1.9273e+02	-2.8331	9.810240	0.000628	6.283860	2.129029	0.000252
1939	1.9283e+02	-2.7882	10.036319	0.000568	5.675745	1.922994	0.000227
1940	1.9293e+02	-2.7432	10.314882	0.000699	6.993328	2.369404	0.000280
1941	1.9303e+02	-2.7063	10.561147	0.000618	6.182508	2.094690	0.000248
1942	1.9313e+02	-2.6662	10.795301	0.000588	5.878450	1.991673	0.000235
1943	1.9323e+02	-2.6213	11.077900	0.000709	7.094681	2.403743	0.000284
1944	1.9333e+02	-2.5892	11.324166	0.000618	6.182508	2.094690	0.000248
1945	1.9343e+02	-2.5604	11.550245	0.000568	5.675745	1.922994	0.000227
1946	1.9353e+02	-2.5106	11.780362	0.000578	5.777097	1.957334	0.000231
1947	1.9363e+02	-2.4673	12.042776	0.000659	6.587918	2.232047	0.000264
1948	1.9373e+02	-2.4352	12.276930	0.000588	5.878450	1.991673	0.000235
1949	1.9383e+02	-2.3807	12.523195	0.000618	6.182508	2.094690	0.000248
1950	1.9393e+02	-2.3534	12.769460	0.000618	6.182508	2.094690	0.000248
1951	1.9403e+02	-2.3069	13.031874	0.000659	6.587918	2.232047	0.000264
1952	1.9412e+02	-2.2668	13.294288	0.000659	6.587918	2.232047	0.000264
1953	1.9422e+02	-2.2411	13.488071	0.000486	4.864924	1.648281	0.000195
1954	1.9432e+02	-2.1914	13.762596	0.000689	6.891976	2.335065	0.000276
1955	1.9442e+02	-2.1545	14.020972	0.000649	6.486565	2.197708	0.000260
1956	1.9452e+02	-2.1064	14.271275	0.000628	6.283860	2.129029	0.000252
1957	1.9462e+02	-2.0663	14.513503	0.000608	6.081155	2.060351	0.000243
1958	1.9472e+02	-2.0374	14.755731	0.000608	6.081155	2.060351	0.000243
1959	1.9482e+02	-1.9989	15.022182	0.000669	6.689270	2.266386	0.000268
1960	1.9492e+02	-1.9556	15.280559	0.000649	6.486565	2.197708	0.000260
1961	1.9502e+02	-1.9106	15.514713	0.000588	5.878450	1.991673	0.000235
1962	1.9512e+02	-1.8577	15.777126	0.000659	6.587918	2.232047	0.000264
1963	1.9522e+02	-1.8352	16.019355	0.000608	6.081155	2.060351	0.000243
1964	1.9532e+02	-1.7919	16.265620	0.000618	6.182508	2.094690	0.000248
1965	1.9542e+02	-1.7534	16.523997	0.000649	6.486565	2.197708	0.000260
1966	1.9552e+02	-1.7069	16.762188	0.000598	5.979802	2.026012	0.000239
1967	1.9562e+02	-1.6668	17.016527	0.000639	6.385213	2.163369	0.000256
1968	1.9572e+02	-1.6267	17.295090	0.000699	6.993328	2.369404	0.000280
1969	1.9582e+02	-1.6074	17.513095	0.000547	5.473039	1.854316	0.000219
1970	1.9592e+02	-1.5593	17.747249	0.000588	5.878450	1.991673	0.000235
1971	1.9601e+02	-1.5080	18.017737	0.000679	6.790623	2.300725	0.000272
1972	1.9611e+02	-1.4679	18.292262	0.000689	6.891976	2.335065	0.000276
1973	1.9621e+02	-1.4342	18.554676	0.000659	6.587918	2.232047	0.000264
1974	1.9631e+02	-1.3941	18.780755	0.000568	5.675745	1.922994	0.000227
1975	1.9641e+02	-1.3556	19.043169	0.000659	6.587918	2.232047	0.000264
1976	1.9651e+02	-1.3139	19.301546	0.000649	6.486565	2.197708	0.000260
1977	1.9661e+02	-1.2818	19.543774	0.000608	6.081155	2.060351	0.000243
1978	1.9671e+02	-1.2321	19.802151	0.000649	6.486565	2.197708	0.000260
1979	1.9681e+02	-1.2016	20.040342	0.000598	5.979802	2.026012	0.000239
1980	1.9691e+02	-1.1599	20.282570	0.000608	6.081155	2.060351	0.000243
1981	1.9701e+02	-1.1117	20.544984	0.000659	6.587918	2.232047	0.000264
1982	1.9711e+02	-1.0796	20.799323	0.000639	6.385213	2.163369	0.000256
1983	1.9721e+02	-1.0283	21.017329	0.000547	5.473039	1.854316	0.000219
1984	1.9731e+02	-0.9850	21.308002	0.000730	7.297386	2.472421	0.000292
1985	1.9741e+02	-0.9641	21.542156	0.000588	5.878450	1.991673	0.000235
1986	1.9751e+02	-0.9176	21.804570	0.000659	6.587918	2.232047	0.000264
1987	1.9761e+02	-0.8807	22.075058	0.000679	6.790623	2.300725	0.000272
1988	1.9771e+02	-0.8374	22.280952	0.000517	5.168982	1.751298	0.000207
1989	1.9781e+02	-0.7893	22.587774	0.000770	7.702796	2.609778	0.000308
1990	1.9791e+02	-0.7620	22.809817	0.000557	5.574392	1.888655	0.000223
1991	1.9800e+02	-0.7139	23.076268	0.000669	6.689270	2.266386	0.000268
1992	1.9810e+02	-0.6722	23.302347	0.000568	5.675745	1.922994	0.000227
1993	1.9820e+02	-0.6305	23.560724	0.000649	6.486565	2.197708	0.000260
1994	1.9830e+02	-0.5871	23.823138	0.000659	6.587918	2.232047	0.000264
1995	1.9840e+02	-0.5599	24.037106	0.000537	5.371687	1.819977	0.000215
1996	1.9850e+02	-0.5166	24.307594	0.000679	6.790623	2.300725	0.000272
1997	1.9860e+02	-0.4765	24.598268	0.000730	7.297386	2.472421	0.000292
1998	1.9870e+02	-0.4235	24.836459	0.000598	5.979802	2.026012	0.000239
1999	1.9880e+02	-0.4011	25.074650	0.000598	5.979802	2.026012	0.000239
2000	1.9890e+02	-0.3561	25.365324	0.000730	7.297386	2.472421	0.000292
2001	1.9900e+02	-0.3144	25.571218	0.000517	5.168982	1.751298	0.000207
2002	1.9910e+02	-0.2663	25.825557	0.000639	6.385213	2.163369	0.000256
2003	1.9920e+02	-0.2374	26.087971	0.000659	6.587918	2.232047	0.000264
2004	1.9930e+02	-0.1957	26.338274	0.000628	6.283860	2.129029	0.000252
2005	1.9940e+02	-0.1604	26.600687	0.000659	6.587918	2.232047	0.000264
2006	1.9950e+02	-0.1187	26.834841	0.000588	5.878450	1.991673	0.000235
2007	1.9960e+02	-0.0818	27.097255	0.000659	6.587918	2.232047	0.000264
2008	1.9970e+02	-0.0337	27.347557	0.000628	6.283860	2.129029	0.000252
2009	1.9980e+02	0.0128	27.601897	0.000628	6.283860	2.129029	0.000256

Center data before PMax,+/-Pr and +/-Vc Calc.

PMax (uC/cm2):	9.34e+01
Pr (uC/cm2):	3.92e+01
-Pr (uC/cm2):	2.76e+01
PLoss (uC/cm2):	1.49e+02
Vc:	1.68e+01
-Vc:	-6.20e+00
C (Max-Eff) (nF):	4.67e-01
K (Eff):	1.58e+03
Vert. (+/-Pr) Shift (uC/cm2):	3.34e+01
Horiz. Shift (+/-Vc):	5.29e+00
Offset (uC/cm2):	1.21e+02

A (Loop Area - uC/cm2·Volts):	-7.75e+00



Hysteresis Version: 5.48.1 - Radiant Technologies, Inc., 1999 - 9/12/24

