»»»»»»»»»»»»»»»»»»»»»»»»»»»»»»»»»»»» Hysteresis ««««««««««««««««««««««««««««««««««««
»»»  Executed Version:	5.48.1
»»»  Vision Version:	5.48.4 (R)
»»»  Vision Compiled:	9/18/24
»»»  Driver Version:	5.47.0
»»»  Windows Version:	Windows 8 or 8.1
»»»  Processor Information:	x86 (AMD or Intel) - 32 Processors
»»»  Tester Name:	PMF21124-494 (100V)
»»»  Tester S/N:	PMF21124-494
»»»  Internal Amp Type:	100V RevK 270k
»»»  Internal Amp S/N:	iAB2-596/K     
»»»  Execution Count:	1
»»»»»»»»»»»»»»»»»»»»»»»»»»»»»»»»»»»»»»»»»»««««««««««««««««««««««««««««««««««««««««««

Stored:	6/5/2025 - 15:28:53
Configured:	06/05/25 02:51:50 PM
Executed:	06/05/25 03:28:13 PM

»»»»»»»»»»»»»»»»»»»»»»»»»»»»»»»»»»» Sample Info ««««««««««««««««««««««««««««««««««««
Sample Name:	
Lot Name:	
Wafer Name:	
Die Row/Column:	0/0
Capacitor Number:	0
Sample Area (cm2):	1.00e-04
Sample Thickness (microns):	3.00e-01

Amplifier:	Internal

»»»»»»»»»»»»»»»»»»»»»»»»»»»»»»»»»»» Tester Info «««««««««««««««««««««««««««««««««««
Tester Name:	PMF21124-494 (100V)
Tester Serial Number:	PMF21124-494
Return Signal Amp. Level:	0.19 [Index: 3]

»»»»»»»»»»»»»»»»»»»»»»»»»»»»»»»» Hysteresis Info ««««««««««««««««««««««««««««««««««
Task Name:	Hyst-353
Volts:	20.00
Field:	666.67 (kV/cm)
DCBias:	0.00
DCField:	0.00 (kV/cm)
Hysteresis Period (ms):	2.00e+02
Preset:	Enabled
Preset Delay (ms):	1.00e+03
Profile:	Standard Bipolar

»»»»»»»»»»»»»»»»»»»»»»»»»»»»»»»»»»»»»» Data «««««««««««««««««««««««««««««««««««««««
Points:	2009

Valid Data

Point	Time (ms)	Drive Voltage	Measured Polarization (uC/cm2)	Capacitance (uF)	Normalized Capacitance (uF/cm2)	Dielectric Constant	Instantaneous Current (mA)
   1	0.0000e+00	0.0048	17.073047	0.000345	3.446679	1.167766	0.000138
   2	9.9500e-02	0.0225	17.210310	0.000345	3.446679	1.167766	0.000138
   3	1.9900e-01	0.0690	17.496946	0.000720	7.197477	2.438571	0.000288
   4	2.9850e-01	0.1091	17.662469	0.000416	4.156290	1.408189	0.000166
   5	3.9800e-01	0.1476	17.953143	0.000730	7.298850	2.472917	0.000292
   6	4.9750e-01	0.1797	18.195371	0.000608	6.082375	2.060764	0.000243
   7	5.9700e-01	0.2278	18.445673	0.000629	6.285121	2.129457	0.000252
   8	6.9650e-01	0.2663	18.704050	0.000649	6.487867	2.198149	0.000260
   9	7.9600e-01	0.3128	18.958389	0.000639	6.386494	2.163803	0.000256
  10	8.9550e-01	0.3497	19.172358	0.000537	5.372764	1.820342	0.000215
  11	9.9500e-01	0.3914	19.406511	0.000588	5.879629	1.992072	0.000235
  12	1.0945e+00	0.4299	19.685074	0.000699	6.994731	2.369879	0.000280
  13	1.1940e+00	0.4684	19.899042	0.000537	5.372764	1.820342	0.000215
  14	1.2935e+00	0.5085	20.173567	0.000689	6.893358	2.335533	0.000276
  15	1.3930e+00	0.5486	20.411758	0.000598	5.981002	2.026418	0.000239
  16	1.4925e+00	0.5855	20.633801	0.000558	5.575510	1.889034	0.000223
  17	1.5920e+00	0.6273	20.880066	0.000618	6.183748	2.095110	0.000248
  18	1.6915e+00	0.6642	21.134406	0.000639	6.386494	2.163803	0.000256
  19	1.7910e+00	0.6994	21.408931	0.000689	6.893358	2.335533	0.000276
  20	1.8905e+00	0.7572	21.618862	0.000527	5.271392	1.785996	0.000211
  21	1.9900e+00	0.7829	21.877239	0.000649	6.487867	2.198149	0.000260
  22	2.0895e+00	0.8262	22.155801	0.000699	6.994731	2.369879	0.000280
  23	2.1890e+00	0.8711	22.369769	0.000537	5.372764	1.820342	0.000215
  24	2.2885e+00	0.8968	22.628146	0.000649	6.487867	2.198149	0.000260
  25	2.3880e+00	0.9353	22.882485	0.000639	6.386494	2.163803	0.000256
  26	2.4875e+00	0.9818	23.120676	0.000598	5.981002	2.026418	0.000239
  27	2.5870e+00	1.0155	23.379053	0.000649	6.487867	2.198149	0.000260
  28	2.6865e+00	1.0716	23.653578	0.000689	6.893358	2.335533	0.000276
  29	2.7860e+00	1.1069	23.903881	0.000629	6.285121	2.129457	0.000252
  30	2.8855e+00	1.1438	24.105737	0.000507	5.068646	1.717304	0.000203
  31	2.9850e+00	1.1984	24.404486	0.000750	7.501596	2.541609	0.000300
  32	3.0845e+00	1.2112	24.646714	0.000608	6.082375	2.060764	0.000243
  33	3.1840e+00	1.2609	24.925276	0.000699	6.994731	2.369879	0.000280
  34	3.2835e+00	1.2994	25.127133	0.000507	5.068646	1.717304	0.000203
  35	3.3830e+00	1.3460	25.397621	0.000679	6.791985	2.301187	0.000272
  36	3.4825e+00	1.3796	25.639849	0.000608	6.082375	2.060764	0.000243
  37	3.5820e+00	1.4165	25.902263	0.000659	6.589239	2.232495	0.000264
  38	3.6815e+00	1.4566	26.168714	0.000669	6.690612	2.266841	0.000268
  39	3.7810e+00	1.5032	26.419016	0.000629	6.285121	2.129457	0.000252
  40	3.8805e+00	1.5497	26.685467	0.000669	6.690612	2.266841	0.000268
  41	3.9800e+00	1.5802	26.887324	0.000507	5.068646	1.717304	0.000203
  42	4.0795e+00	1.6251	27.153775	0.000669	6.690612	2.266841	0.000268
  43	4.1790e+00	1.6700	27.456560	0.000760	7.602969	2.575955	0.000304
  44	4.2785e+00	1.7021	27.710900	0.000639	6.386494	2.163803	0.000256
  45	4.3780e+00	1.7438	27.949091	0.000598	5.981002	2.026418	0.000239
  46	4.4775e+00	1.7887	28.183245	0.000588	5.879629	1.992072	0.000235
  47	4.5770e+00	1.8208	28.449696	0.000669	6.690612	2.266841	0.000268
  48	4.6765e+00	1.8609	28.732295	0.000710	7.096104	2.404225	0.000284
  49	4.7760e+00	1.9042	28.962412	0.000578	5.778256	1.957726	0.000231
  50	4.8755e+00	1.9395	29.228863	0.000669	6.690612	2.266841	0.000268
  51	4.9750e+00	1.9796	29.527611	0.000750	7.501596	2.541609	0.000300
  52	5.0745e+00	2.0261	29.749653	0.000558	5.575510	1.889034	0.000223
  53	5.1740e+00	2.0663	30.064550	0.000791	7.907087	2.678994	0.000316
  54	5.2735e+00	2.0967	30.290629	0.000568	5.676883	1.923380	0.000227
  55	5.3730e+00	2.1497	30.524783	0.000588	5.879629	1.992072	0.000235
  56	5.4725e+00	2.1769	30.787197	0.000659	6.589239	2.232495	0.000264
  57	5.5720e+00	2.2170	31.045574	0.000649	6.487867	2.198149	0.000260
  58	5.6715e+00	2.2652	31.316062	0.000679	6.791985	2.301187	0.000272
  59	5.7710e+00	2.3037	31.610773	0.000740	7.400223	2.507263	0.000296
  60	5.8705e+00	2.3438	31.869150	0.000649	6.487867	2.198149	0.000260
  61	5.9700e+00	2.3791	32.087155	0.000547	5.474137	1.854688	0.000219
  62	6.0695e+00	2.4272	32.345532	0.000649	6.487867	2.198149	0.000260
  63	6.1690e+00	2.4593	32.632168	0.000720	7.197477	2.438571	0.000288
  64	6.2685e+00	2.5010	32.910731	0.000699	6.994731	2.369879	0.000280
  65	6.3680e+00	2.5443	33.156996	0.000618	6.183748	2.095110	0.000248
  66	6.4675e+00	2.5732	33.447670	0.000730	7.298850	2.472917	0.000292
  67	6.5670e+00	2.6229	33.702009	0.000639	6.386494	2.163803	0.000256
  68	6.6665e+00	2.6598	33.952312	0.000629	6.285121	2.129457	0.000252
  69	6.7660e+00	2.7031	34.226837	0.000689	6.893358	2.335533	0.000276
  70	6.8655e+00	2.7416	34.497325	0.000679	6.791985	2.301187	0.000272
  71	6.9650e+00	2.7769	34.783962	0.000720	7.197477	2.438571	0.000288
  72	7.0645e+00	2.8202	35.070598	0.000720	7.197477	2.438571	0.000288
  73	7.1640e+00	2.8571	35.312826	0.000608	6.082375	2.060764	0.000243
  74	7.2635e+00	2.9005	35.567166	0.000639	6.386494	2.163803	0.000256
  75	7.3630e+00	2.9390	35.817468	0.000629	6.285121	2.129457	0.000252
  76	7.4625e+00	2.9791	36.087956	0.000679	6.791985	2.301187	0.000272
  77	7.5620e+00	3.0176	36.330185	0.000608	6.082375	2.060764	0.000243
  78	7.6615e+00	3.0577	36.572413	0.000608	6.082375	2.060764	0.000243
  79	7.7610e+00	3.0914	36.875198	0.000760	7.602969	2.575955	0.000304
  80	7.8605e+00	3.1459	37.113389	0.000598	5.981002	2.026418	0.000239
  81	7.9600e+00	3.1828	37.395988	0.000710	7.096104	2.404225	0.000284
  82	8.0595e+00	3.2133	37.735108	0.000852	8.515325	2.885070	0.000341
  83	8.1590e+00	3.2582	37.977336	0.000608	6.082375	2.060764	0.000243
  84	8.2585e+00	3.3015	38.215527	0.000598	5.981002	2.026418	0.000239
  85	8.3580e+00	3.3272	38.490052	0.000689	6.893358	2.335533	0.000276
  86	8.4575e+00	3.3785	38.683835	0.000487	4.865900	1.648612	0.000195
  87	8.5570e+00	3.4122	38.994694	0.000781	7.805714	2.644648	0.000312
  88	8.6565e+00	3.4523	39.257108	0.000659	6.589239	2.232495	0.000264
  89	8.7560e+00	3.4988	39.572005	0.000791	7.907087	2.678994	0.000316
  90	8.8555e+00	3.5389	39.826344	0.000639	6.386494	2.163803	0.000256
  91	8.9550e+00	3.5742	40.072609	0.000618	6.183748	2.095110	0.000248
  92	9.0545e+00	3.6111	40.367320	0.000740	7.400223	2.507263	0.000296
  93	9.1540e+00	3.6464	40.625697	0.000649	6.487867	2.198149	0.000260
  94	9.2535e+00	3.6929	40.888111	0.000659	6.589239	2.232495	0.000264
  95	9.3530e+00	3.7282	41.134376	0.000618	6.183748	2.095110	0.000248
  96	9.4525e+00	3.7780	41.404864	0.000679	6.791985	2.301187	0.000272
  97	9.5520e+00	3.8149	41.679389	0.000689	6.893358	2.335533	0.000276
  98	9.6515e+00	3.8566	41.957952	0.000699	6.994731	2.369879	0.000280
  99	9.7510e+00	3.8919	42.256700	0.000750	7.501596	2.541609	0.000300
 100	9.8505e+00	3.9432	42.494891	0.000598	5.981002	2.026418	0.000239
 101	9.9500e+00	3.9801	42.757305	0.000659	6.589239	2.232495	0.000264
 102	1.0050e+01	4.0186	43.031830	0.000689	6.893358	2.335533	0.000276
 103	1.0149e+01	4.0619	43.310392	0.000699	6.994731	2.369879	0.000280
 104	1.0248e+01	4.0940	43.588955	0.000699	6.994731	2.369879	0.000280
 105	1.0348e+01	4.1357	43.827146	0.000598	5.981002	2.026418	0.000239
 106	1.0447e+01	4.1758	44.113782	0.000720	7.197477	2.438571	0.000288
 107	1.0547e+01	4.2223	44.388307	0.000689	6.893358	2.335533	0.000276
 108	1.0646e+01	4.2560	44.634573	0.000618	6.183748	2.095110	0.000248
 109	1.0746e+01	4.2849	44.917172	0.000710	7.096104	2.404225	0.000284
 110	1.0845e+01	4.3346	45.211883	0.000740	7.400223	2.507263	0.000296
 111	1.0945e+01	4.3667	45.442000	0.000578	5.778256	1.957726	0.000231
 112	1.1044e+01	4.4068	45.732674	0.000730	7.298850	2.472917	0.000292
 113	1.1144e+01	4.4582	46.019310	0.000720	7.197477	2.438571	0.000288
 114	1.1243e+01	4.4919	46.257501	0.000598	5.981002	2.026418	0.000239
 115	1.1343e+01	4.5384	46.515878	0.000649	6.487867	2.198149	0.000260
 116	1.1443e+01	4.5721	46.810589	0.000740	7.400223	2.507263	0.000296
 117	1.1542e+01	4.6138	47.073003	0.000659	6.589239	2.232495	0.000264
 118	1.1642e+01	4.6507	47.363676	0.000730	7.298850	2.472917	0.000292
 119	1.1741e+01	4.6763	47.613979	0.000629	6.285121	2.129457	0.000252
 120	1.1841e+01	4.7341	47.836021	0.000558	5.575510	1.889034	0.000223
 121	1.1940e+01	4.7710	48.130732	0.000740	7.400223	2.507263	0.000296
 122	1.2040e+01	4.8079	48.425443	0.000740	7.400223	2.507263	0.000296
 123	1.2139e+01	4.8576	48.659597	0.000588	5.879629	1.992072	0.000235
 124	1.2239e+01	4.8913	48.922011	0.000659	6.589239	2.232495	0.000264
 125	1.2338e+01	4.9282	49.208648	0.000720	7.197477	2.438571	0.000288
 126	1.2438e+01	4.9747	49.454913	0.000618	6.183748	2.095110	0.000248
 127	1.2537e+01	5.0164	49.753661	0.000750	7.501596	2.541609	0.000300
 128	1.2636e+01	5.0501	50.020112	0.000669	6.690612	2.266841	0.000268
 129	1.2736e+01	5.0934	50.230043	0.000527	5.271392	1.785996	0.000211
 130	1.2835e+01	5.1255	50.524754	0.000740	7.400223	2.507263	0.000296
 131	1.2935e+01	5.1688	50.799279	0.000689	6.893358	2.335533	0.000276
 132	1.3034e+01	5.2122	51.057656	0.000649	6.487867	2.198149	0.000260
 133	1.3134e+01	5.2555	51.328144	0.000679	6.791985	2.301187	0.000272
 134	1.3233e+01	5.2843	51.634966	0.000770	7.704342	2.610302	0.000308
 135	1.3333e+01	5.3293	51.873157	0.000598	5.981002	2.026418	0.000239
 136	1.3432e+01	5.3646	52.131534	0.000649	6.487867	2.198149	0.000260
 137	1.3532e+01	5.4095	52.385873	0.000639	6.386494	2.163803	0.000256
 138	1.3632e+01	5.4464	52.628101	0.000608	6.082375	2.060764	0.000243
 139	1.3731e+01	5.4945	52.906664	0.000699	6.994731	2.369879	0.000280
 140	1.3831e+01	5.5298	53.181189	0.000689	6.893358	2.335533	0.000276
 141	1.3930e+01	5.5699	53.403232	0.000558	5.575510	1.889034	0.000223
 142	1.4030e+01	5.6084	53.697942	0.000740	7.400223	2.507263	0.000296
 143	1.4129e+01	5.6533	53.940171	0.000608	6.082375	2.060764	0.000243
 144	1.4229e+01	5.6998	54.198547	0.000649	6.487867	2.198149	0.000260
 145	1.4328e+01	5.7223	54.485184	0.000720	7.197477	2.438571	0.000288
 146	1.4428e+01	5.7656	54.747598	0.000659	6.589239	2.232495	0.000264
 147	1.4527e+01	5.8089	54.977714	0.000578	5.778256	1.957726	0.000231
 148	1.4627e+01	5.8490	55.256277	0.000699	6.994731	2.369879	0.000280
 149	1.4726e+01	5.8875	55.510616	0.000639	6.386494	2.163803	0.000256
 150	1.4825e+01	5.9276	55.744770	0.000588	5.879629	1.992072	0.000235
 151	1.4925e+01	5.9677	56.007184	0.000659	6.589239	2.232495	0.000264
 152	1.5024e+01	6.0062	56.257487	0.000629	6.285121	2.129457	0.000252
 153	1.5124e+01	6.0480	56.548160	0.000730	7.298850	2.472917	0.000292
 154	1.5223e+01	6.0913	56.754054	0.000517	5.170019	1.751650	0.000207
 155	1.5323e+01	6.1218	57.048765	0.000740	7.400223	2.507263	0.000296
 156	1.5422e+01	6.1667	57.303105	0.000639	6.386494	2.163803	0.000256
 157	1.5522e+01	6.2084	57.549370	0.000618	6.183748	2.095110	0.000248
 158	1.5621e+01	6.2437	57.823895	0.000689	6.893358	2.335533	0.000276
 159	1.5721e+01	6.2709	58.098420	0.000689	6.893358	2.335533	0.000276
 160	1.5820e+01	6.3255	58.308351	0.000527	5.271392	1.785996	0.000211
 161	1.5920e+01	6.3688	58.586914	0.000699	6.994731	2.369879	0.000280
 162	1.6020e+01	6.4025	58.817031	0.000578	5.778256	1.957726	0.000231
 163	1.6119e+01	6.4490	59.103667	0.000720	7.197477	2.438571	0.000288
 164	1.6218e+01	6.4779	59.329747	0.000568	5.676883	1.923380	0.000227
 165	1.6318e+01	6.5196	59.628495	0.000750	7.501596	2.541609	0.000300
 166	1.6418e+01	6.5645	59.858612	0.000578	5.778256	1.957726	0.000231
 167	1.6517e+01	6.5998	60.080654	0.000558	5.575510	1.889034	0.000223
 168	1.6616e+01	6.6463	60.383439	0.000760	7.602969	2.575955	0.000304
 169	1.6716e+01	6.6800	60.613556	0.000578	5.778256	1.957726	0.000231
 170	1.6816e+01	6.7233	60.888081	0.000689	6.893358	2.335533	0.000276
 171	1.6915e+01	6.7667	61.106087	0.000547	5.474137	1.854688	0.000219
 172	1.7015e+01	6.8100	61.372537	0.000669	6.690612	2.266841	0.000268
 173	1.7114e+01	6.8469	61.638988	0.000669	6.690612	2.266841	0.000268
 174	1.7213e+01	6.8790	61.897365	0.000649	6.487867	2.198149	0.000260
 175	1.7313e+01	6.9271	62.131519	0.000588	5.879629	1.992072	0.000235
 176	1.7413e+01	6.9608	62.393933	0.000659	6.589239	2.232495	0.000264
 177	1.7512e+01	7.0025	62.640198	0.000618	6.183748	2.095110	0.000248
 178	1.7611e+01	7.0426	62.874352	0.000588	5.879629	1.992072	0.000235
 179	1.7711e+01	7.0795	63.144840	0.000679	6.791985	2.301187	0.000272
 180	1.7811e+01	7.1196	63.383031	0.000598	5.981002	2.026418	0.000239
 181	1.7910e+01	7.1549	63.633334	0.000629	6.285121	2.129457	0.000252
 182	1.8009e+01	7.1982	63.899784	0.000669	6.690612	2.266841	0.000268
 183	1.8109e+01	7.2367	64.142013	0.000608	6.082375	2.060764	0.000243
 184	1.8209e+01	7.2800	64.364055	0.000558	5.575510	1.889034	0.000223
 185	1.8308e+01	7.3233	64.618395	0.000639	6.386494	2.163803	0.000256
 186	1.8407e+01	7.3586	64.876771	0.000649	6.487867	2.198149	0.000260
 187	1.8507e+01	7.4019	65.123037	0.000618	6.183748	2.095110	0.000248
 188	1.8607e+01	7.4356	65.381413	0.000649	6.487867	2.198149	0.000260
 189	1.8706e+01	7.4757	65.639790	0.000649	6.487867	2.198149	0.000260
 190	1.8805e+01	7.5206	65.845684	0.000517	5.170019	1.751650	0.000207
 191	1.8905e+01	7.5527	66.144432	0.000750	7.501596	2.541609	0.000300
 192	1.9005e+01	7.5976	66.382623	0.000598	5.981002	2.026418	0.000239
 193	1.9104e+01	7.6394	66.636962	0.000639	6.386494	2.163803	0.000256
 194	1.9203e+01	7.6811	66.895339	0.000649	6.487867	2.198149	0.000260
 195	1.9303e+01	7.7164	67.081047	0.000466	4.663154	1.579919	0.000187
 196	1.9402e+01	7.7629	67.379795	0.000750	7.501596	2.541609	0.000300
 197	1.9502e+01	7.7918	67.605875	0.000568	5.676883	1.923380	0.000227
 198	1.9602e+01	7.8367	67.852140	0.000618	6.183748	2.095110	0.000248
 199	1.9701e+01	7.8784	68.074183	0.000558	5.575510	1.889034	0.000223
 200	1.9800e+01	7.9121	68.316411	0.000608	6.082375	2.060764	0.000243
 201	1.9900e+01	7.9666	68.546528	0.000578	5.778256	1.957726	0.000231
 202	2.0000e+01	8.0051	68.845276	0.000750	7.501596	2.541609	0.000300
 203	2.0099e+01	8.0436	69.071355	0.000568	5.676883	1.923380	0.000227
 204	2.0198e+01	8.0773	69.261101	0.000476	4.764527	1.614265	0.000191
 205	2.0298e+01	8.1254	69.551774	0.000730	7.298850	2.472917	0.000292
 206	2.0398e+01	8.1623	69.802077	0.000629	6.285121	2.129457	0.000252
 207	2.0497e+01	8.1960	70.060454	0.000649	6.487867	2.198149	0.000260
 208	2.0596e+01	8.2377	70.274422	0.000537	5.372764	1.820342	0.000215
 209	2.0696e+01	8.2666	70.557021	0.000710	7.096104	2.404225	0.000284
 210	2.0796e+01	8.3196	70.791175	0.000588	5.879629	1.992072	0.000235
 211	2.0895e+01	8.3597	70.984958	0.000487	4.865900	1.648612	0.000195
 212	2.0994e+01	8.4030	71.275631	0.000730	7.298850	2.472917	0.000292
 213	2.1094e+01	8.4351	71.505748	0.000578	5.778256	1.957726	0.000231
 214	2.1194e+01	8.4752	71.735865	0.000578	5.778256	1.957726	0.000231
 215	2.1293e+01	8.5089	71.982130	0.000618	6.183748	2.095110	0.000248
 216	2.1392e+01	8.5538	72.216284	0.000588	5.879629	1.992072	0.000235
 217	2.1492e+01	8.6083	72.422178	0.000517	5.170019	1.751650	0.000207
 218	2.1591e+01	8.6372	72.700740	0.000699	6.994731	2.369879	0.000280
 219	2.1691e+01	8.6901	72.947006	0.000618	6.183748	2.095110	0.000248
 220	2.1791e+01	8.7126	73.205382	0.000649	6.487867	2.198149	0.000260
 221	2.1890e+01	8.7431	73.463759	0.000649	6.487867	2.198149	0.000260
 222	2.1989e+01	8.8024	73.669653	0.000517	5.170019	1.751650	0.000207
 223	2.2089e+01	8.8345	73.891695	0.000558	5.575510	1.889034	0.000223
 224	2.2189e+01	8.8778	74.174295	0.000710	7.096104	2.404225	0.000284
 225	2.2288e+01	8.9163	74.440746	0.000669	6.690612	2.266841	0.000268
 226	2.2387e+01	8.9532	74.674900	0.000588	5.879629	1.992072	0.000235
 227	2.2487e+01	8.9917	74.900979	0.000568	5.676883	1.923380	0.000227
 228	2.2587e+01	9.0350	75.123022	0.000558	5.575510	1.889034	0.000223
 229	2.2686e+01	9.0735	75.361213	0.000598	5.981002	2.026418	0.000239
 230	2.2785e+01	9.1185	75.599404	0.000598	5.981002	2.026418	0.000239
 231	2.2885e+01	9.1586	75.861818	0.000659	6.589239	2.232495	0.000264
 232	2.2985e+01	9.1987	76.104046	0.000608	6.082375	2.060764	0.000243
 233	2.3084e+01	9.2404	76.305903	0.000507	5.068646	1.717304	0.000203
 234	2.3183e+01	9.2837	76.560242	0.000639	6.386494	2.163803	0.000256
 235	2.3283e+01	9.3158	76.790359	0.000578	5.778256	1.957726	0.000231
 236	2.3383e+01	9.3511	77.064884	0.000689	6.893358	2.335533	0.000276
 237	2.3482e+01	9.3944	77.270778	0.000517	5.170019	1.751650	0.000207
 238	2.3581e+01	9.4329	77.533192	0.000659	6.589239	2.232495	0.000264
 239	2.3681e+01	9.4682	77.767346	0.000588	5.879629	1.992072	0.000235
 240	2.3780e+01	9.5131	78.009574	0.000608	6.082375	2.060764	0.000243
 241	2.3880e+01	9.5548	78.247765	0.000598	5.981002	2.026418	0.000239
 242	2.3980e+01	9.6013	78.481919	0.000588	5.879629	1.992072	0.000235
 243	2.4079e+01	9.6414	78.740295	0.000649	6.487867	2.198149	0.000260
 244	2.4178e+01	9.6639	78.942152	0.000507	5.068646	1.717304	0.000203
 245	2.4278e+01	9.7120	79.204566	0.000659	6.589239	2.232495	0.000264
 246	2.4378e+01	9.7569	79.418534	0.000537	5.372764	1.820342	0.000215
 247	2.4477e+01	9.7987	79.725357	0.000770	7.704342	2.610302	0.000308
 248	2.4576e+01	9.8356	79.935288	0.000527	5.271392	1.785996	0.000211
 249	2.4676e+01	9.8660	80.137144	0.000507	5.068646	1.717304	0.000203
 250	2.4776e+01	9.9142	80.371298	0.000588	5.879629	1.992072	0.000235
 251	2.4875e+01	9.9495	80.641786	0.000679	6.791985	2.301187	0.000272
 252	2.4974e+01	9.9928	80.875940	0.000588	5.879629	1.992072	0.000235
 253	2.5074e+01	10.0393	81.081834	0.000517	5.170019	1.751650	0.000207
 254	2.5174e+01	10.0762	81.336174	0.000639	6.386494	2.163803	0.000256
 255	2.5273e+01	10.1147	81.594550	0.000649	6.487867	2.198149	0.000260
 256	2.5372e+01	10.1532	81.832741	0.000598	5.981002	2.026418	0.000239
 257	2.5472e+01	10.1949	82.062858	0.000578	5.778256	1.957726	0.000231
 258	2.5572e+01	10.2206	82.260678	0.000497	4.967273	1.682958	0.000199
 259	2.5671e+01	10.2751	82.506943	0.000618	6.183748	2.095110	0.000248
 260	2.5770e+01	10.3152	82.753208	0.000618	6.183748	2.095110	0.000248
 261	2.5870e+01	10.3489	82.983325	0.000578	5.778256	1.957726	0.000231
 262	2.5970e+01	10.3858	83.237665	0.000639	6.386494	2.163803	0.000256
 263	2.6069e+01	10.4339	83.431447	0.000487	4.865900	1.648612	0.000195
 264	2.6169e+01	10.4724	83.681750	0.000629	6.285121	2.129457	0.000252
 265	2.6268e+01	10.5077	83.903792	0.000558	5.575510	1.889034	0.000223
 266	2.6367e+01	10.5494	84.162169	0.000649	6.487867	2.198149	0.000260
 267	2.6467e+01	10.5992	84.384211	0.000558	5.575510	1.889034	0.000223
 268	2.6567e+01	10.6313	84.622402	0.000598	5.981002	2.026418	0.000239
 269	2.6666e+01	10.6730	84.856556	0.000588	5.879629	1.992072	0.000235
 270	2.6765e+01	10.7099	85.082636	0.000568	5.676883	1.923380	0.000227
 271	2.6865e+01	10.7548	85.345050	0.000659	6.589239	2.232495	0.000264
 272	2.6965e+01	10.7949	85.583241	0.000598	5.981002	2.026418	0.000239
 273	2.7064e+01	10.8270	85.821432	0.000598	5.981002	2.026418	0.000239
 274	2.7163e+01	10.8671	86.039437	0.000547	5.474137	1.854688	0.000219
 275	2.7263e+01	10.9088	86.269554	0.000578	5.778256	1.957726	0.000231
 276	2.7363e+01	10.9489	86.491596	0.000558	5.575510	1.889034	0.000223
 277	2.7462e+01	10.9874	86.713639	0.000558	5.575510	1.889034	0.000223
 278	2.7561e+01	11.0227	86.947792	0.000588	5.879629	1.992072	0.000235
 279	2.7661e+01	11.0660	87.169835	0.000558	5.575510	1.889034	0.000223
 280	2.7761e+01	11.1077	87.403989	0.000588	5.879629	1.992072	0.000235
 281	2.7860e+01	11.1414	87.650254	0.000618	6.183748	2.095110	0.000248
 282	2.7959e+01	11.1799	87.908631	0.000649	6.487867	2.198149	0.000260
 283	2.8059e+01	11.2312	88.082228	0.000436	4.359035	1.476881	0.000174
 284	2.8159e+01	11.2633	88.372901	0.000730	7.298850	2.472917	0.000292
 285	2.8258e+01	11.3147	88.562647	0.000476	4.764527	1.614265	0.000191
 286	2.8358e+01	11.3387	88.804875	0.000608	6.082375	2.060764	0.000243
 287	2.8457e+01	11.3901	89.026917	0.000558	5.575510	1.889034	0.000223
 288	2.8556e+01	11.4270	89.261071	0.000588	5.879629	1.992072	0.000235
 289	2.8656e+01	11.4719	89.487151	0.000568	5.676883	1.923380	0.000227
 290	2.8756e+01	11.5072	89.717268	0.000578	5.778256	1.957726	0.000231
 291	2.8855e+01	11.5521	89.943347	0.000568	5.676883	1.923380	0.000227
 292	2.8954e+01	11.5777	90.169427	0.000568	5.676883	1.923380	0.000227
 293	2.9054e+01	11.6259	90.359172	0.000476	4.764527	1.614265	0.000191
 294	2.9154e+01	11.6676	90.597363	0.000598	5.981002	2.026418	0.000239
 295	2.9253e+01	11.7173	90.843628	0.000618	6.183748	2.095110	0.000248
 296	2.9352e+01	11.7366	91.073745	0.000578	5.778256	1.957726	0.000231
 297	2.9452e+01	11.7815	91.291750	0.000547	5.474137	1.854688	0.000219
 298	2.9552e+01	11.8248	91.558201	0.000669	6.690612	2.266841	0.000268
 299	2.9651e+01	11.8633	91.784281	0.000568	5.676883	1.923380	0.000227
 300	2.9750e+01	11.8986	91.982101	0.000497	4.967273	1.682958	0.000199
 301	2.9850e+01	11.9419	92.212217	0.000578	5.778256	1.957726	0.000231
 302	2.9950e+01	11.9804	92.414074	0.000507	5.068646	1.717304	0.000203
 303	3.0049e+01	12.0141	92.648228	0.000588	5.879629	1.992072	0.000235
 304	3.0148e+01	12.0622	92.862196	0.000537	5.372764	1.820342	0.000215
 305	3.0248e+01	12.1104	93.104424	0.000608	6.082375	2.060764	0.000243
 306	3.0348e+01	12.1360	93.330504	0.000568	5.676883	1.923380	0.000227
 307	3.0447e+01	12.1825	93.564658	0.000588	5.879629	1.992072	0.000235
 308	3.0547e+01	12.2259	93.742292	0.000446	4.460408	1.511227	0.000179
 309	3.0646e+01	12.2660	93.988557	0.000618	6.183748	2.095110	0.000248
 310	3.0745e+01	12.2932	94.194451	0.000517	5.170019	1.751650	0.000207
 311	3.0845e+01	12.3478	94.428605	0.000588	5.879629	1.992072	0.000235
 312	3.0945e+01	12.3847	94.642573	0.000537	5.372764	1.820342	0.000215
 313	3.1044e+01	12.4168	94.880764	0.000598	5.981002	2.026418	0.000239
 314	3.1143e+01	12.4665	95.082621	0.000507	5.068646	1.717304	0.000203
 315	3.1243e+01	12.5050	95.316775	0.000588	5.879629	1.992072	0.000235
 316	3.1343e+01	12.5419	95.538817	0.000558	5.575510	1.889034	0.000223
 317	3.1442e+01	12.5868	95.777008	0.000598	5.981002	2.026418	0.000239
 318	3.1541e+01	12.6205	95.950605	0.000436	4.359035	1.476881	0.000174
 319	3.1641e+01	12.6574	96.168610	0.000547	5.474137	1.854688	0.000219
 320	3.1741e+01	12.6943	96.366430	0.000497	4.967273	1.682958	0.000199
 321	3.1840e+01	12.7440	96.592510	0.000568	5.676883	1.923380	0.000227
 322	3.1939e+01	12.7777	96.798404	0.000517	5.170019	1.751650	0.000207
 323	3.2039e+01	12.8258	97.036595	0.000598	5.981002	2.026418	0.000239
 324	3.2139e+01	12.8611	97.246526	0.000527	5.271392	1.785996	0.000211
 325	3.2238e+01	12.8996	97.456457	0.000527	5.271392	1.785996	0.000211
 326	3.2337e+01	12.9381	97.682536	0.000568	5.676883	1.923380	0.000227
 327	3.2437e+01	12.9750	97.864207	0.000456	4.561781	1.545573	0.000183
 328	3.2536e+01	13.0135	98.082213	0.000547	5.474137	1.854688	0.000219
 329	3.2636e+01	13.0585	98.308292	0.000568	5.676883	1.923380	0.000227
 330	3.2736e+01	13.0921	98.518223	0.000527	5.271392	1.785996	0.000211
 331	3.2835e+01	13.1371	98.720080	0.000507	5.068646	1.717304	0.000203
 332	3.2934e+01	13.1772	98.954234	0.000588	5.879629	1.992072	0.000235
 333	3.3034e+01	13.2125	99.172239	0.000547	5.474137	1.854688	0.000219
 334	3.3133e+01	13.2606	99.357948	0.000466	4.663154	1.579919	0.000187
 335	3.3233e+01	13.2959	99.579990	0.000558	5.575510	1.889034	0.000223
 336	3.3333e+01	13.3472	99.802033	0.000558	5.575510	1.889034	0.000223
 337	3.3432e+01	13.3793	99.983704	0.000456	4.561781	1.545573	0.000183
 338	3.3532e+01	13.4242	100.242080	0.000649	6.487867	2.198149	0.000260
 339	3.3631e+01	13.4547	100.460086	0.000547	5.474137	1.854688	0.000219
 340	3.3730e+01	13.4948	100.617534	0.000395	3.953544	1.339497	0.000158
 341	3.3830e+01	13.5317	100.807279	0.000476	4.764527	1.614265	0.000191
 342	3.3929e+01	13.5782	101.045470	0.000598	5.981002	2.026418	0.000239
 343	3.4029e+01	13.6183	101.307884	0.000659	6.589239	2.232495	0.000264
 344	3.4129e+01	13.6616	101.517815	0.000527	5.271392	1.785996	0.000211
 345	3.4228e+01	13.6969	101.683338	0.000416	4.156290	1.408189	0.000166
 346	3.4328e+01	13.7435	101.913455	0.000578	5.778256	1.957726	0.000231
 347	3.4427e+01	13.7820	102.119348	0.000517	5.170019	1.751650	0.000207
 348	3.4526e+01	13.8076	102.321205	0.000507	5.068646	1.717304	0.000203
 349	3.4626e+01	13.8606	102.539211	0.000547	5.474137	1.854688	0.000219
 350	3.4725e+01	13.8991	102.745105	0.000517	5.170019	1.751650	0.000207
 351	3.4825e+01	13.9360	102.922739	0.000446	4.460408	1.511227	0.000179
 352	3.4925e+01	13.9793	103.148818	0.000568	5.676883	1.923380	0.000227
 353	3.5024e+01	14.0226	103.346638	0.000497	4.967273	1.682958	0.000199
 354	3.5123e+01	14.0531	103.536383	0.000476	4.764527	1.614265	0.000191
 355	3.5223e+01	14.0964	103.770537	0.000588	5.879629	1.992072	0.000235
 356	3.5322e+01	14.1269	103.972394	0.000507	5.068646	1.717304	0.000203
 357	3.5422e+01	14.1734	104.170213	0.000497	4.967273	1.682958	0.000199
 358	3.5522e+01	14.2135	104.380145	0.000527	5.271392	1.785996	0.000211
 359	3.5621e+01	14.2504	104.582001	0.000507	5.068646	1.717304	0.000203
 360	3.5721e+01	14.2905	104.791932	0.000527	5.271392	1.785996	0.000211
 361	3.5820e+01	14.3322	104.965529	0.000436	4.359035	1.476881	0.000174
 362	3.5919e+01	14.3643	105.252166	0.000720	7.197477	2.438571	0.000288
 363	3.6019e+01	14.4092	105.417688	0.000416	4.156290	1.408189	0.000166
 364	3.6118e+01	14.4541	105.611471	0.000487	4.865900	1.648612	0.000195
 365	3.6218e+01	14.5023	105.821402	0.000527	5.271392	1.785996	0.000211
 366	3.6318e+01	14.5360	105.999036	0.000446	4.460408	1.511227	0.000179
 367	3.6417e+01	14.5632	106.204930	0.000517	5.170019	1.751650	0.000207
 368	3.6517e+01	14.6162	106.439084	0.000588	5.879629	1.992072	0.000235
 369	3.6616e+01	14.6579	106.628829	0.000476	4.764527	1.614265	0.000191
 370	3.6715e+01	14.6900	106.810500	0.000456	4.561781	1.545573	0.000183
 371	3.6815e+01	14.7220	107.036580	0.000568	5.676883	1.923380	0.000227
 372	3.6914e+01	14.7654	107.222288	0.000466	4.663154	1.579919	0.000187
 373	3.7014e+01	14.8135	107.432219	0.000527	5.271392	1.785996	0.000211
 374	3.7114e+01	14.8456	107.626002	0.000487	4.865900	1.648612	0.000195
 375	3.7213e+01	14.8937	107.827858	0.000507	5.068646	1.717304	0.000203
 376	3.7313e+01	14.9354	108.037789	0.000527	5.271392	1.785996	0.000211
 377	3.7412e+01	14.9675	108.223498	0.000466	4.663154	1.579919	0.000187
 378	3.7511e+01	15.0140	108.441503	0.000547	5.474137	1.854688	0.000219
 379	3.7611e+01	15.0461	108.623174	0.000456	4.561781	1.545573	0.000183
 380	3.7711e+01	15.0894	108.829068	0.000517	5.170019	1.751650	0.000207
 381	3.7810e+01	15.1311	109.002665	0.000436	4.359035	1.476881	0.000174
 382	3.7910e+01	15.1664	109.248930	0.000618	6.183748	2.095110	0.000248
 383	3.8009e+01	15.2161	109.450787	0.000507	5.068646	1.717304	0.000203
 384	3.8108e+01	15.2482	109.620347	0.000426	4.257662	1.442535	0.000170
 385	3.8208e+01	15.2835	109.826241	0.000517	5.170019	1.751650	0.000207
 386	3.8307e+01	15.3236	110.032135	0.000517	5.170019	1.751650	0.000207
 387	3.8407e+01	15.3669	110.225917	0.000487	4.865900	1.648612	0.000195
 388	3.8507e+01	15.4151	110.439885	0.000537	5.372764	1.820342	0.000215
 389	3.8606e+01	15.4488	110.645779	0.000517	5.170019	1.751650	0.000207
 390	3.8706e+01	15.4953	110.843599	0.000497	4.967273	1.682958	0.000199
 391	3.8805e+01	15.5306	111.025270	0.000456	4.561781	1.545573	0.000183
 392	3.8904e+01	15.5659	111.267498	0.000608	6.082375	2.060764	0.000243
 393	3.9004e+01	15.6044	111.469355	0.000507	5.068646	1.717304	0.000203
 394	3.9103e+01	15.6589	111.614692	0.000365	3.649425	1.236459	0.000146
 395	3.9203e+01	15.6910	111.844808	0.000578	5.778256	1.957726	0.000231
 396	3.9303e+01	15.7199	112.046665	0.000507	5.068646	1.717304	0.000203
 397	3.9402e+01	15.7648	112.268708	0.000558	5.575510	1.889034	0.000223
 398	3.9502e+01	15.8065	112.410007	0.000355	3.548052	1.202113	0.000142
 399	3.9601e+01	15.8482	112.672421	0.000659	6.589239	2.232495	0.000264
 400	3.9700e+01	15.9012	112.846018	0.000436	4.359035	1.476881	0.000174
 401	3.9800e+01	15.9252	113.035764	0.000476	4.764527	1.614265	0.000191
 402	3.9900e+01	15.9701	113.261843	0.000568	5.676883	1.923380	0.000227
 403	3.9999e+01	16.0070	113.435440	0.000436	4.359035	1.476881	0.000174
 404	4.0099e+01	16.0423	113.665557	0.000578	5.778256	1.957726	0.000231
 405	4.0198e+01	16.0808	113.851265	0.000466	4.663154	1.579919	0.000187
 406	4.0297e+01	16.1193	114.004676	0.000385	3.852171	1.305151	0.000154
 407	4.0397e+01	16.1691	114.234793	0.000578	5.778256	1.957726	0.000231
 408	4.0496e+01	16.2108	114.428575	0.000487	4.865900	1.648612	0.000195
 409	4.0596e+01	16.2380	114.646581	0.000547	5.474137	1.854688	0.000219
 410	4.0696e+01	16.2910	114.808066	0.000405	4.054917	1.373843	0.000162
 411	4.0795e+01	16.3295	114.969552	0.000405	4.054917	1.373843	0.000162
 412	4.0895e+01	16.3616	115.203705	0.000588	5.879629	1.992072	0.000235
 413	4.0994e+01	16.4081	115.421711	0.000547	5.474137	1.854688	0.000219
 414	4.1093e+01	16.4466	115.635679	0.000537	5.372764	1.820342	0.000215
 415	4.1193e+01	16.4883	115.825424	0.000476	4.764527	1.614265	0.000191
 416	4.1292e+01	16.5236	116.003058	0.000446	4.460408	1.511227	0.000179
 417	4.1392e+01	16.5669	116.217026	0.000537	5.372764	1.820342	0.000215
 418	4.1492e+01	16.6038	116.426958	0.000527	5.271392	1.785996	0.000211
 419	4.1591e+01	16.6423	116.616703	0.000476	4.764527	1.614265	0.000191
 420	4.1691e+01	16.6872	116.786263	0.000426	4.257662	1.442535	0.000170
 421	4.1790e+01	16.7257	117.020417	0.000588	5.879629	1.992072	0.000235
 422	4.1889e+01	16.7610	117.181902	0.000405	4.054917	1.373843	0.000162
 423	4.1989e+01	16.8011	117.416056	0.000588	5.879629	1.992072	0.000235
 424	4.2089e+01	16.8444	117.557356	0.000355	3.548052	1.202113	0.000142
 425	4.2188e+01	16.8846	117.811695	0.000639	6.386494	2.163803	0.000256
 426	4.2288e+01	16.9182	117.965106	0.000385	3.852171	1.305151	0.000154
 427	4.2387e+01	16.9696	118.175037	0.000527	5.271392	1.785996	0.000211
 428	4.2486e+01	17.0017	118.364783	0.000476	4.764527	1.614265	0.000191
 429	4.2586e+01	17.0370	118.558565	0.000487	4.865900	1.648612	0.000195
 430	4.2685e+01	17.0851	118.732162	0.000436	4.359035	1.476881	0.000174
 431	4.2785e+01	17.1316	118.966316	0.000588	5.879629	1.992072	0.000235
 432	4.2885e+01	17.1605	119.131838	0.000416	4.156290	1.408189	0.000166
 433	4.2984e+01	17.2086	119.357918	0.000568	5.676883	1.923380	0.000227
 434	4.3084e+01	17.2407	119.539589	0.000456	4.561781	1.545573	0.000183
 435	4.3183e+01	17.2856	119.745483	0.000517	5.170019	1.751650	0.000207
 436	4.3282e+01	17.3241	119.906969	0.000405	4.054917	1.373843	0.000162
 437	4.3382e+01	17.3610	120.076528	0.000426	4.257662	1.442535	0.000170
 438	4.3481e+01	17.4027	120.318756	0.000608	6.082375	2.060764	0.000243
 439	4.3581e+01	17.4412	120.508502	0.000476	4.764527	1.614265	0.000191
 440	4.3681e+01	17.4845	120.682099	0.000436	4.359035	1.476881	0.000174
 441	4.3780e+01	17.5134	120.896067	0.000537	5.372764	1.820342	0.000215
 442	4.3880e+01	17.5663	121.069664	0.000436	4.359035	1.476881	0.000174
 443	4.3979e+01	17.6065	121.311892	0.000608	6.082375	2.060764	0.000243
 444	4.4078e+01	17.6401	121.465303	0.000385	3.852171	1.305151	0.000154
 445	4.4178e+01	17.6786	121.687345	0.000558	5.575510	1.889034	0.000223
 446	4.4278e+01	17.7171	121.852868	0.000416	4.156290	1.408189	0.000166
 447	4.4377e+01	17.7589	122.074910	0.000558	5.575510	1.889034	0.000223
 448	4.4477e+01	17.7974	122.284842	0.000527	5.271392	1.785996	0.000211
 449	4.4576e+01	17.8423	122.446327	0.000405	4.054917	1.373843	0.000162
 450	4.4675e+01	17.8760	122.627998	0.000456	4.561781	1.545573	0.000183
 451	4.4775e+01	17.9193	122.841966	0.000537	5.372764	1.820342	0.000215
 452	4.4874e+01	17.9626	123.076120	0.000588	5.879629	1.992072	0.000235
 453	4.4974e+01	18.0027	123.233568	0.000395	3.953544	1.339497	0.000158
 454	4.5074e+01	18.0460	123.419277	0.000466	4.663154	1.579919	0.000187
 455	4.5173e+01	18.0893	123.609022	0.000476	4.764527	1.614265	0.000191
 456	4.5273e+01	18.1230	123.770507	0.000405	4.054917	1.373843	0.000162
 457	4.5372e+01	18.1551	124.004661	0.000588	5.879629	1.992072	0.000235
 458	4.5471e+01	18.2016	124.113664	0.000274	2.737069	0.927344	0.000110
 459	4.5571e+01	18.2369	124.396263	0.000710	7.096104	2.404225	0.000284
 460	4.5670e+01	18.2818	124.529489	0.000335	3.345306	1.133420	0.000134
 461	4.5770e+01	18.3203	124.759606	0.000578	5.778256	1.957726	0.000231
 462	4.5870e+01	18.3556	124.941277	0.000456	4.561781	1.545573	0.000183
 463	4.5969e+01	18.3925	125.098725	0.000395	3.953544	1.339497	0.000158
 464	4.6069e+01	18.4358	125.280396	0.000456	4.561781	1.545573	0.000183
 465	4.6168e+01	18.4792	125.466104	0.000466	4.663154	1.579919	0.000187
 466	4.6267e+01	18.5177	125.655850	0.000476	4.764527	1.614265	0.000191
 467	4.6367e+01	18.5642	125.853669	0.000497	4.967273	1.682958	0.000199
 468	4.6467e+01	18.6043	126.071675	0.000547	5.474137	1.854688	0.000219
 469	4.6566e+01	18.6396	126.261420	0.000476	4.764527	1.614265	0.000191
 470	4.6666e+01	18.6765	126.430980	0.000426	4.257662	1.442535	0.000170
 471	4.6765e+01	18.7246	126.604577	0.000436	4.359035	1.476881	0.000174
 472	4.6864e+01	18.7615	126.798359	0.000487	4.865900	1.648612	0.000195
 473	4.6964e+01	18.8016	126.996179	0.000497	4.967273	1.682958	0.000199
 474	4.7063e+01	18.8289	127.161701	0.000416	4.156290	1.408189	0.000166
 475	4.7163e+01	18.8834	127.371633	0.000527	5.271392	1.785996	0.000211
 476	4.7263e+01	18.9171	127.521007	0.000375	3.750798	1.270805	0.000150
 477	4.7362e+01	18.9524	127.747086	0.000568	5.676883	1.923380	0.000227
 478	4.7462e+01	18.9909	127.936832	0.000476	4.764527	1.614265	0.000191
 479	4.7561e+01	19.0310	128.082168	0.000365	3.649425	1.236459	0.000146
 480	4.7660e+01	19.0775	128.300174	0.000547	5.474137	1.854688	0.000219
 481	4.7760e+01	19.1080	128.497993	0.000497	4.967273	1.682958	0.000199
 482	4.7859e+01	19.1481	128.651405	0.000385	3.852171	1.305151	0.000154
 483	4.7959e+01	19.1962	128.841150	0.000476	4.764527	1.614265	0.000191
 484	4.8059e+01	19.2331	129.002635	0.000405	4.054917	1.373843	0.000162
 485	4.8158e+01	19.2700	129.220641	0.000547	5.474137	1.854688	0.000219
 486	4.8258e+01	19.3085	129.374052	0.000385	3.852171	1.305151	0.000154
 487	4.8357e+01	19.3535	129.579946	0.000517	5.170019	1.751650	0.000207
 488	4.8456e+01	19.3936	129.761617	0.000456	4.561781	1.545573	0.000183
 489	4.8556e+01	19.4273	129.927139	0.000416	4.156290	1.408189	0.000166
 490	4.8656e+01	19.4786	130.068439	0.000355	3.548052	1.202113	0.000142
 491	4.8755e+01	19.5091	130.274333	0.000517	5.170019	1.751650	0.000207
 492	4.8855e+01	19.5460	130.464079	0.000476	4.764527	1.614265	0.000191
 493	4.8954e+01	19.5957	130.674010	0.000527	5.271392	1.785996	0.000211
 494	4.9053e+01	19.6262	130.819346	0.000365	3.649425	1.236459	0.000146
 495	4.9153e+01	19.6823	131.009092	0.000476	4.764527	1.614265	0.000191
 496	4.9252e+01	19.7176	131.178652	0.000426	4.257662	1.442535	0.000170
 497	4.9352e+01	19.7561	131.380508	0.000507	5.068646	1.717304	0.000203
 498	4.9452e+01	19.7946	131.562179	0.000456	4.561781	1.545573	0.000183
 499	4.9551e+01	19.8315	131.719628	0.000395	3.953544	1.339497	0.000158
 500	4.9651e+01	19.8700	131.909373	0.000476	4.764527	1.614265	0.000191
 501	4.9750e+01	19.9085	132.099118	0.000476	4.764527	1.614265	0.000191
 502	4.9849e+01	19.9486	132.252530	0.000385	3.852171	1.305151	0.000154
 503	4.9949e+01	19.9839	132.430164	0.000446	4.460408	1.511227	0.000179
 504	5.0048e+01	19.9567	132.329235	0.000253	2.534323	0.858652	-0.000101
 505	5.0148e+01	19.9182	132.208121	0.000304	3.041187	1.030382	-0.000122
 506	5.0248e+01	19.8684	132.042599	0.000416	4.156290	1.408189	-0.000166
 507	5.0347e+01	19.8347	131.941670	0.000253	2.534323	0.858652	-0.000101
 508	5.0447e+01	19.7818	131.796333	0.000365	3.649425	1.236459	-0.000146
 509	5.0546e+01	19.7545	131.618699	0.000446	4.460408	1.511227	-0.000179
 510	5.0645e+01	19.7016	131.493548	0.000314	3.142560	1.064728	-0.000126
 511	5.0745e+01	19.6743	131.356286	0.000345	3.446679	1.167766	-0.000138
 512	5.0844e+01	19.6310	131.186726	0.000426	4.257662	1.442535	-0.000170
 513	5.0944e+01	19.5893	131.049463	0.000345	3.446679	1.167766	-0.000138
 514	5.1044e+01	19.5588	130.892015	0.000395	3.953544	1.339497	-0.000158
 515	5.1143e+01	19.5059	130.774938	0.000294	2.939815	0.996036	-0.000118
 516	5.1242e+01	19.4690	130.613453	0.000405	4.054917	1.373843	-0.000162
 517	5.1342e+01	19.4305	130.492338	0.000304	3.041187	1.030382	-0.000122
 518	5.1441e+01	19.3952	130.306630	0.000466	4.663154	1.579919	-0.000187
 519	5.1541e+01	19.3599	130.205702	0.000253	2.534323	0.858652	-0.000101
 520	5.1641e+01	19.3214	130.044216	0.000405	4.054917	1.373843	-0.000162
 521	5.1740e+01	19.2781	129.838322	0.000517	5.170019	1.751650	-0.000207
 522	5.1840e+01	19.2348	129.709134	0.000324	3.243933	1.099074	-0.000130
 523	5.1939e+01	19.1930	129.551686	0.000395	3.953544	1.339497	-0.000158
 524	5.2038e+01	19.1610	129.430572	0.000304	3.041187	1.030382	-0.000122
 525	5.2138e+01	19.1144	129.252938	0.000446	4.460408	1.511227	-0.000179
 526	5.2237e+01	19.0856	129.119712	0.000335	3.345306	1.133420	-0.000134
 527	5.2337e+01	19.0406	128.986487	0.000335	3.345306	1.133420	-0.000134
 528	5.2437e+01	18.9941	128.816927	0.000426	4.257662	1.442535	-0.000170
 529	5.2536e+01	18.9492	128.639293	0.000446	4.460408	1.511227	-0.000179
 530	5.2636e+01	18.9139	128.502031	0.000345	3.446679	1.167766	-0.000138
 531	5.2735e+01	18.8722	128.364768	0.000345	3.446679	1.167766	-0.000138
 532	5.2834e+01	18.8289	128.203282	0.000405	4.054917	1.373843	-0.000162
 533	5.2934e+01	18.7968	128.053908	0.000375	3.750798	1.270805	-0.000150
 534	5.3033e+01	18.7583	127.884349	0.000426	4.257662	1.442535	-0.000170
 535	5.3133e+01	18.7166	127.674418	0.000527	5.271392	1.785996	-0.000211
 536	5.3233e+01	18.6813	127.581564	0.000233	2.331577	0.789960	-0.000093
 537	5.3332e+01	18.6348	127.403930	0.000446	4.460408	1.511227	-0.000179
 538	5.3431e+01	18.5995	127.250518	0.000385	3.852171	1.305151	-0.000154
 539	5.3531e+01	18.5578	127.072884	0.000446	4.460408	1.511227	-0.000179
 540	5.3630e+01	18.5177	126.931585	0.000355	3.548052	1.202113	-0.000142
 541	5.3730e+01	18.4776	126.766062	0.000416	4.156290	1.408189	-0.000166
 542	5.3830e+01	18.4455	126.628800	0.000345	3.446679	1.167766	-0.000138
 543	5.3929e+01	18.4054	126.451166	0.000446	4.460408	1.511227	-0.000179
 544	5.4029e+01	18.3508	126.321977	0.000324	3.243933	1.099074	-0.000130
 545	5.4128e+01	18.3139	126.136269	0.000466	4.663154	1.579919	-0.000187
 546	5.4227e+01	18.2786	125.966709	0.000426	4.257662	1.442535	-0.000170
 547	5.4327e+01	18.2401	125.789075	0.000446	4.460408	1.511227	-0.000179
 548	5.4426e+01	18.2000	125.667961	0.000304	3.041187	1.030382	-0.000122
 549	5.4526e+01	18.1487	125.502439	0.000416	4.156290	1.408189	-0.000166
 550	5.4626e+01	18.1262	125.332879	0.000426	4.257662	1.442535	-0.000170
 551	5.4725e+01	18.0845	125.179468	0.000385	3.852171	1.305151	-0.000154
 552	5.4825e+01	18.0380	125.001834	0.000446	4.460408	1.511227	-0.000179
 553	5.4924e+01	17.9979	124.824200	0.000446	4.460408	1.511227	-0.000179
 554	5.5023e+01	17.9546	124.674826	0.000375	3.750798	1.270805	-0.000150
 555	5.5123e+01	17.9209	124.517378	0.000395	3.953544	1.339497	-0.000158
 556	5.5222e+01	17.8808	124.347818	0.000426	4.257662	1.442535	-0.000170
 557	5.5322e+01	17.8375	124.194407	0.000385	3.852171	1.305151	-0.000154
 558	5.5422e+01	17.8006	124.032921	0.000405	4.054917	1.373843	-0.000162
 559	5.5521e+01	17.7589	123.871436	0.000405	4.054917	1.373843	-0.000162
 560	5.5620e+01	17.7252	123.693802	0.000446	4.460408	1.511227	-0.000179
 561	5.5720e+01	17.6754	123.536354	0.000395	3.953544	1.339497	-0.000158
 562	5.5819e+01	17.6385	123.411202	0.000314	3.142560	1.064728	-0.000126
 563	5.5919e+01	17.5936	123.229531	0.000456	4.561781	1.545573	-0.000183
 564	5.6019e+01	17.5728	123.059972	0.000426	4.257662	1.442535	-0.000170
 565	5.6118e+01	17.5230	122.902523	0.000395	3.953544	1.339497	-0.000158
 566	5.6218e+01	17.4797	122.700666	0.000507	5.068646	1.717304	-0.000203
 567	5.6317e+01	17.4380	122.587627	0.000284	2.838442	0.961690	-0.000114
 568	5.6416e+01	17.3963	122.414030	0.000436	4.359035	1.476881	-0.000174
 569	5.6516e+01	17.3674	122.252544	0.000405	4.054917	1.373843	-0.000162
 570	5.6615e+01	17.3225	122.127393	0.000314	3.142560	1.064728	-0.000126
 571	5.6715e+01	17.2808	121.929574	0.000497	4.967273	1.682958	-0.000199
 572	5.6815e+01	17.2391	121.764051	0.000416	4.156290	1.408189	-0.000166
 573	5.6914e+01	17.1926	121.610640	0.000385	3.852171	1.305151	-0.000154
 574	5.7014e+01	17.1653	121.441080	0.000426	4.257662	1.442535	-0.000170
 575	5.7113e+01	17.1188	121.263446	0.000446	4.460408	1.511227	-0.000179
 576	5.7212e+01	17.0915	121.114072	0.000375	3.750798	1.270805	-0.000150
 577	5.7312e+01	17.0450	120.964698	0.000375	3.750798	1.270805	-0.000150
 578	5.7411e+01	17.0065	120.762841	0.000507	5.068646	1.717304	-0.000203
 579	5.7511e+01	16.9648	120.641727	0.000304	3.041187	1.030382	-0.000122
 580	5.7611e+01	16.9182	120.451982	0.000476	4.764527	1.614265	-0.000191
 581	5.7710e+01	16.8846	120.286459	0.000416	4.156290	1.408189	-0.000166
 582	5.7809e+01	16.8428	120.112862	0.000436	4.359035	1.476881	-0.000174
 583	5.7909e+01	16.8092	119.935229	0.000446	4.460408	1.511227	-0.000179
 584	5.8008e+01	16.7658	119.777780	0.000395	3.953544	1.339497	-0.000158
 585	5.8108e+01	16.7257	119.592072	0.000466	4.663154	1.579919	-0.000187
 586	5.8208e+01	16.6824	119.470958	0.000304	3.041187	1.030382	-0.000122
 587	5.8307e+01	16.6375	119.261027	0.000527	5.271392	1.785996	-0.000211
 588	5.8407e+01	16.6070	119.091467	0.000426	4.257662	1.442535	-0.000170
 589	5.8506e+01	16.5637	118.934019	0.000395	3.953544	1.339497	-0.000158
 590	5.8605e+01	16.5364	118.796756	0.000345	3.446679	1.167766	-0.000138
 591	5.8705e+01	16.4819	118.623159	0.000436	4.359035	1.476881	-0.000174
 592	5.8804e+01	16.4466	118.469748	0.000385	3.852171	1.305151	-0.000154
 593	5.8904e+01	16.4017	118.284040	0.000466	4.663154	1.579919	-0.000187
 594	5.9004e+01	16.3680	118.106406	0.000446	4.460408	1.511227	-0.000179
 595	5.9103e+01	16.3215	117.969143	0.000345	3.446679	1.167766	-0.000138
 596	5.9203e+01	16.2846	117.771324	0.000497	4.967273	1.682958	-0.000199
 597	5.9302e+01	16.2477	117.609838	0.000405	4.054917	1.373843	-0.000162
 598	5.9401e+01	16.2172	117.444316	0.000416	4.156290	1.408189	-0.000166
 599	5.9501e+01	16.1707	117.266682	0.000446	4.460408	1.511227	-0.000179
 600	5.9600e+01	16.1257	117.093085	0.000436	4.359035	1.476881	-0.000174
 601	5.9700e+01	16.0953	116.947748	0.000365	3.649425	1.236459	-0.000146
 602	5.9800e+01	16.0375	116.766077	0.000456	4.561781	1.545573	-0.000183
 603	5.9899e+01	16.0070	116.588443	0.000446	4.460408	1.511227	-0.000179
 604	5.9998e+01	15.9669	116.418883	0.000426	4.257662	1.442535	-0.000170
 605	6.0098e+01	15.9220	116.289695	0.000324	3.243933	1.099074	-0.000130
 606	6.0197e+01	15.8883	116.091875	0.000497	4.967273	1.682958	-0.000199
 607	6.0297e+01	15.8530	115.934427	0.000395	3.953544	1.339497	-0.000158
 608	6.0397e+01	15.8065	115.728533	0.000517	5.170019	1.751650	-0.000207
 609	6.0496e+01	15.7728	115.591270	0.000345	3.446679	1.167766	-0.000138
 610	6.0596e+01	15.7311	115.421711	0.000426	4.257662	1.442535	-0.000170
 611	6.0695e+01	15.6958	115.260225	0.000405	4.054917	1.373843	-0.000162
 612	6.0794e+01	15.6509	115.058369	0.000507	5.068646	1.717304	-0.000203
 613	6.0894e+01	15.6140	114.872660	0.000466	4.663154	1.579919	-0.000187
 614	6.0993e+01	15.5723	114.727323	0.000365	3.649425	1.236459	-0.000146
 615	6.1093e+01	15.5193	114.517392	0.000527	5.271392	1.785996	-0.000211
 616	6.1193e+01	15.4921	114.416464	0.000253	2.534323	0.858652	-0.000101
 617	6.1292e+01	15.4472	114.234793	0.000456	4.561781	1.545573	-0.000183
 618	6.1392e+01	15.4087	114.049085	0.000466	4.663154	1.579919	-0.000187
 619	6.1491e+01	15.3718	113.887599	0.000405	4.054917	1.373843	-0.000162
 620	6.1590e+01	15.3220	113.709965	0.000446	4.460408	1.511227	-0.000179
 621	6.1690e+01	15.2899	113.532331	0.000446	4.460408	1.511227	-0.000179
 622	6.1789e+01	15.2498	113.346623	0.000466	4.663154	1.579919	-0.000187
 623	6.1889e+01	15.2210	113.168989	0.000446	4.460408	1.511227	-0.000179
 624	6.1989e+01	15.1809	113.027689	0.000355	3.548052	1.202113	-0.000142
 625	6.2088e+01	15.1343	112.817758	0.000527	5.271392	1.785996	-0.000211
 626	6.2188e+01	15.0846	112.636087	0.000456	4.561781	1.545573	-0.000183
 627	6.2287e+01	15.0461	112.494787	0.000355	3.548052	1.202113	-0.000142
 628	6.2386e+01	15.0204	112.321191	0.000436	4.359035	1.476881	-0.000174
 629	6.2486e+01	14.9739	112.127408	0.000487	4.865900	1.648612	-0.000195
 630	6.2586e+01	14.9290	111.941700	0.000466	4.663154	1.579919	-0.000187
 631	6.2685e+01	14.8873	111.776177	0.000416	4.156290	1.408189	-0.000166
 632	6.2785e+01	14.8520	111.614692	0.000405	4.054917	1.373843	-0.000162
 633	6.2884e+01	14.8151	111.424946	0.000476	4.764527	1.614265	-0.000191
 634	6.2983e+01	14.7702	111.239238	0.000466	4.663154	1.579919	-0.000187
 635	6.3083e+01	14.7381	111.037381	0.000507	5.068646	1.717304	-0.000203
 636	6.3182e+01	14.6868	110.867822	0.000426	4.257662	1.442535	-0.000170
 637	6.3282e+01	14.6579	110.706336	0.000405	4.054917	1.373843	-0.000162
 638	6.3382e+01	14.6178	110.540814	0.000416	4.156290	1.408189	-0.000166
 639	6.3481e+01	14.5616	110.351068	0.000476	4.764527	1.614265	-0.000191
 640	6.3581e+01	14.5392	110.177471	0.000436	4.359035	1.476881	-0.000174
 641	6.3680e+01	14.4958	110.024060	0.000385	3.852171	1.305151	-0.000154
 642	6.3779e+01	14.4509	109.842389	0.000456	4.561781	1.545573	-0.000183
 643	6.3879e+01	14.4140	109.612272	0.000578	5.778256	1.957726	-0.000231
 644	6.3978e+01	14.3691	109.454824	0.000395	3.953544	1.339497	-0.000158
 645	6.4078e+01	14.3354	109.261042	0.000487	4.865900	1.648612	-0.000195
 646	6.4177e+01	14.3017	109.063222	0.000497	4.967273	1.682958	-0.000199
 647	6.4277e+01	14.2536	108.905774	0.000395	3.953544	1.339497	-0.000158
 648	6.4376e+01	14.2135	108.756400	0.000375	3.750798	1.270805	-0.000150
 649	6.4476e+01	14.1654	108.538394	0.000547	5.474137	1.854688	-0.000219
 650	6.4576e+01	14.1349	108.364797	0.000436	4.359035	1.476881	-0.000174
 651	6.4675e+01	14.0932	108.158904	0.000517	5.170019	1.751650	-0.000207
 652	6.4775e+01	14.0483	107.957047	0.000507	5.068646	1.717304	-0.000203
 653	6.4874e+01	14.0082	107.771339	0.000466	4.663154	1.579919	-0.000187
 654	6.4974e+01	13.9761	107.601779	0.000426	4.257662	1.442535	-0.000170
 655	6.5073e+01	13.9344	107.412033	0.000476	4.764527	1.614265	-0.000191
 656	6.5172e+01	13.8975	107.230362	0.000456	4.561781	1.545573	-0.000183
 657	6.5272e+01	13.8509	107.048691	0.000456	4.561781	1.545573	-0.000183
 658	6.5371e+01	13.8189	106.854909	0.000487	4.865900	1.648612	-0.000195
 659	6.5471e+01	13.7723	106.669200	0.000466	4.663154	1.579919	-0.000187
 660	6.5570e+01	13.7306	106.479455	0.000476	4.764527	1.614265	-0.000191
 661	6.5670e+01	13.7001	106.313933	0.000416	4.156290	1.408189	-0.000166
 662	6.5769e+01	13.6552	106.075742	0.000598	5.981002	2.026418	-0.000239
 663	6.5869e+01	13.6071	105.938479	0.000345	3.446679	1.167766	-0.000138
 664	6.5969e+01	13.5798	105.692214	0.000618	6.183748	2.095110	-0.000248
 665	6.6068e+01	13.5397	105.546877	0.000365	3.649425	1.236459	-0.000146
 666	6.6168e+01	13.4948	105.324834	0.000558	5.575510	1.889034	-0.000223
 667	6.6267e+01	13.4611	105.187572	0.000345	3.446679	1.167766	-0.000138
 668	6.6367e+01	13.4178	105.018012	0.000426	4.257662	1.442535	-0.000170
 669	6.6466e+01	13.3793	104.820192	0.000497	4.967273	1.682958	-0.000199
 670	6.6566e+01	13.3328	104.590076	0.000578	5.778256	1.957726	-0.000231
 671	6.6665e+01	13.2879	104.372070	0.000547	5.474137	1.854688	-0.000219
 672	6.6764e+01	13.2670	104.202511	0.000426	4.257662	1.442535	-0.000170
 673	6.6864e+01	13.2189	104.032951	0.000426	4.257662	1.442535	-0.000170
 674	6.6963e+01	13.1740	103.843205	0.000476	4.764527	1.614265	-0.000191
 675	6.7063e+01	13.1322	103.645386	0.000497	4.967273	1.682958	-0.000199
 676	6.7162e+01	13.0970	103.435455	0.000527	5.271392	1.785996	-0.000211
 677	6.7262e+01	13.0552	103.278006	0.000395	3.953544	1.339497	-0.000158
 678	6.7362e+01	13.0183	103.047890	0.000578	5.778256	1.957726	-0.000231
 679	6.7461e+01	12.9815	102.878330	0.000426	4.257662	1.442535	-0.000170
 680	6.7561e+01	12.9333	102.656288	0.000558	5.575510	1.889034	-0.000223
 681	6.7660e+01	12.8980	102.555359	0.000253	2.534323	0.858652	-0.000101
 682	6.7760e+01	12.8547	102.309094	0.000618	6.183748	2.095110	-0.000248
 683	6.7859e+01	12.8290	102.078977	0.000578	5.778256	1.957726	-0.000231
 684	6.7959e+01	12.7857	101.905380	0.000436	4.359035	1.476881	-0.000174
 685	6.8058e+01	12.7456	101.723709	0.000456	4.561781	1.545573	-0.000183
 686	6.8157e+01	12.7071	101.517815	0.000517	5.170019	1.751650	-0.000207
 687	6.8257e+01	12.6510	101.307884	0.000527	5.271392	1.785996	-0.000211
 688	6.8356e+01	12.6205	101.134287	0.000436	4.359035	1.476881	-0.000174
 689	6.8456e+01	12.5836	100.932431	0.000507	5.068646	1.717304	-0.000203
 690	6.8555e+01	12.5451	100.718462	0.000537	5.372764	1.820342	-0.000215
 691	6.8655e+01	12.4954	100.544866	0.000436	4.359035	1.476881	-0.000174
 692	6.8754e+01	12.4617	100.347046	0.000497	4.967273	1.682958	-0.000199
 693	6.8854e+01	12.4312	100.137115	0.000527	5.271392	1.785996	-0.000211
 694	6.8954e+01	12.3927	99.963518	0.000436	4.359035	1.476881	-0.000174
 695	6.9053e+01	12.3446	99.729364	0.000588	5.879629	1.992072	-0.000235
 696	6.9153e+01	12.3029	99.551730	0.000446	4.460408	1.511227	-0.000179
 697	6.9252e+01	12.2612	99.349873	0.000507	5.068646	1.717304	-0.000203
 698	6.9352e+01	12.2210	99.148017	0.000507	5.068646	1.717304	-0.000203
 699	6.9451e+01	12.1874	98.909826	0.000598	5.981002	2.026418	-0.000239
 700	6.9550e+01	12.1473	98.732192	0.000446	4.460408	1.511227	-0.000179
 701	6.9650e+01	12.1104	98.558595	0.000436	4.359035	1.476881	-0.000174
 702	6.9749e+01	12.0670	98.348664	0.000527	5.271392	1.785996	-0.000211
 703	6.9849e+01	12.0189	98.158918	0.000476	4.764527	1.614265	-0.000191
 704	6.9948e+01	11.9868	97.904579	0.000639	6.386494	2.163803	-0.000256
 705	7.0048e+01	11.9403	97.722908	0.000456	4.561781	1.545573	-0.000183
 706	7.0147e+01	11.9066	97.561422	0.000405	4.054917	1.373843	-0.000162
 707	7.0247e+01	11.8665	97.319194	0.000608	6.082375	2.060764	-0.000243
 708	7.0347e+01	11.8232	97.149634	0.000426	4.257662	1.442535	-0.000170
 709	7.0446e+01	11.7815	96.947778	0.000507	5.068646	1.717304	-0.000203
 710	7.0546e+01	11.7430	96.713624	0.000588	5.879629	1.992072	-0.000235
 711	7.0645e+01	11.7077	96.523878	0.000476	4.764527	1.614265	-0.000191
 712	7.0745e+01	11.6740	96.346244	0.000446	4.460408	1.511227	-0.000179
 713	7.0844e+01	11.6211	96.116128	0.000578	5.778256	1.957726	-0.000231
 714	7.0944e+01	11.5810	95.918308	0.000497	4.967273	1.682958	-0.000199
 715	7.1043e+01	11.5425	95.740674	0.000446	4.460408	1.511227	-0.000179
 716	7.1142e+01	11.5072	95.530743	0.000527	5.271392	1.785996	-0.000211
 717	7.1242e+01	11.4606	95.312738	0.000547	5.474137	1.854688	-0.000219
 718	7.1341e+01	11.4253	95.086658	0.000568	5.676883	1.923380	-0.000227
 719	7.1441e+01	11.3868	94.888838	0.000497	4.967273	1.682958	-0.000199
 720	7.1540e+01	11.3483	94.703130	0.000466	4.663154	1.579919	-0.000187
 721	7.1640e+01	11.3034	94.509348	0.000487	4.865900	1.648612	-0.000195
 722	7.1740e+01	11.2633	94.271157	0.000598	5.981002	2.026418	-0.000239
 723	7.1839e+01	11.2312	94.093523	0.000446	4.460408	1.511227	-0.000179
 724	7.1939e+01	11.1847	93.899740	0.000487	4.865900	1.648612	-0.000195
 725	7.2038e+01	11.1430	93.653475	0.000618	6.183748	2.095110	-0.000248
 726	7.2138e+01	11.1061	93.443544	0.000527	5.271392	1.785996	-0.000211
 727	7.2237e+01	11.0644	93.253798	0.000476	4.764527	1.614265	-0.000191
 728	7.2337e+01	11.0323	93.076164	0.000446	4.460408	1.511227	-0.000179
 729	7.2436e+01	10.9826	92.902568	0.000436	4.359035	1.476881	-0.000174
 730	7.2535e+01	10.9489	92.644191	0.000649	6.487867	2.198149	-0.000260
 731	7.2635e+01	10.9152	92.462520	0.000456	4.561781	1.545573	-0.000183
 732	7.2734e+01	10.8671	92.272774	0.000476	4.764527	1.614265	-0.000191
 733	7.2834e+01	10.8206	92.034583	0.000598	5.981002	2.026418	-0.000239
 734	7.2933e+01	10.7853	91.889247	0.000365	3.649425	1.236459	-0.000146
 735	7.3033e+01	10.7500	91.671241	0.000547	5.474137	1.854688	-0.000219
 736	7.3132e+01	10.7115	91.477459	0.000487	4.865900	1.648612	-0.000195
 737	7.3232e+01	10.6681	91.219082	0.000649	6.487867	2.198149	-0.000260
 738	7.3332e+01	10.6313	91.025299	0.000487	4.865900	1.648612	-0.000195
 739	7.3431e+01	10.5927	90.831517	0.000487	4.865900	1.648612	-0.000195
 740	7.3531e+01	10.5494	90.593326	0.000598	5.981002	2.026418	-0.000239
 741	7.3630e+01	10.5077	90.383395	0.000527	5.271392	1.785996	-0.000211
 742	7.3730e+01	10.4756	90.185575	0.000497	4.967273	1.682958	-0.000199
 743	7.3829e+01	10.4291	90.036201	0.000375	3.750798	1.270805	-0.000150
 744	7.3928e+01	10.3858	89.798010	0.000598	5.981002	2.026418	-0.000239
 745	7.4028e+01	10.3409	89.588079	0.000527	5.271392	1.785996	-0.000211
 746	7.4127e+01	10.3072	89.366037	0.000558	5.575510	1.889034	-0.000223
 747	7.4227e+01	10.2735	89.131883	0.000588	5.879629	1.992072	-0.000235
 748	7.4326e+01	10.2302	88.913877	0.000547	5.474137	1.854688	-0.000219
 749	7.4426e+01	10.1965	88.736244	0.000446	4.460408	1.511227	-0.000179
 750	7.4525e+01	10.1532	88.530350	0.000517	5.170019	1.751650	-0.000207
 751	7.4625e+01	10.1083	88.324456	0.000517	5.170019	1.751650	-0.000207
 752	7.4725e+01	10.0730	88.114525	0.000527	5.271392	1.785996	-0.000211
 753	7.4824e+01	10.0313	87.880371	0.000588	5.879629	1.992072	-0.000235
 754	7.4924e+01	9.9896	87.670440	0.000527	5.271392	1.785996	-0.000211
 755	7.5023e+01	9.9575	87.484731	0.000466	4.663154	1.579919	-0.000187
 756	7.5123e+01	9.9206	87.254615	0.000578	5.778256	1.957726	-0.000231
 757	7.5222e+01	9.8708	87.056795	0.000497	4.967273	1.682958	-0.000199
 758	7.5322e+01	9.8259	86.806493	0.000629	6.285121	2.129457	-0.000252
 759	7.5421e+01	9.7938	86.620784	0.000466	4.663154	1.579919	-0.000187
 760	7.5520e+01	9.7569	86.427002	0.000487	4.865900	1.648612	-0.000195
 761	7.5620e+01	9.7072	86.237257	0.000476	4.764527	1.614265	-0.000191
 762	7.5719e+01	9.6687	86.007140	0.000578	5.778256	1.957726	-0.000231
 763	7.5819e+01	9.6302	85.841617	0.000416	4.156290	1.408189	-0.000166
 764	7.5918e+01	9.5965	85.599389	0.000608	6.082375	2.060764	-0.000243
 765	7.6018e+01	9.5436	85.381384	0.000547	5.474137	1.854688	-0.000219
 766	7.6118e+01	9.5179	85.159341	0.000558	5.575510	1.889034	-0.000223
 767	7.6217e+01	9.4730	84.953447	0.000517	5.170019	1.751650	-0.000207
 768	7.6317e+01	9.4393	84.723331	0.000578	5.778256	1.957726	-0.000231
 769	7.6416e+01	9.3912	84.545697	0.000446	4.460408	1.511227	-0.000179
 770	7.6516e+01	9.3559	84.283283	0.000659	6.589239	2.232495	-0.000264
 771	7.6615e+01	9.3110	84.105649	0.000446	4.460408	1.511227	-0.000179
 772	7.6715e+01	9.2709	83.928015	0.000446	4.460408	1.511227	-0.000179
 773	7.6814e+01	9.2324	83.673675	0.000639	6.386494	2.163803	-0.000256
 774	7.6913e+01	9.2019	83.447596	0.000568	5.676883	1.923380	-0.000227
 775	7.7013e+01	9.1505	83.249776	0.000497	4.967273	1.682958	-0.000199
 776	7.7112e+01	9.1136	83.031771	0.000547	5.474137	1.854688	-0.000219
 777	7.7212e+01	9.0751	82.809728	0.000558	5.575510	1.889034	-0.000223
 778	7.7311e+01	9.0399	82.615946	0.000487	4.865900	1.648612	-0.000195
 779	7.7411e+01	8.9981	82.377755	0.000598	5.981002	2.026418	-0.000239
 780	7.7510e+01	8.9564	82.155712	0.000558	5.575510	1.889034	-0.000223
 781	7.7610e+01	8.9131	81.953855	0.000507	5.068646	1.717304	-0.000203
 782	7.7710e+01	8.8891	81.747962	0.000517	5.170019	1.751650	-0.000207
 783	7.7809e+01	8.8313	81.562253	0.000466	4.663154	1.579919	-0.000187
 784	7.7909e+01	8.7928	81.315988	0.000618	6.183748	2.095110	-0.000248
 785	7.8008e+01	8.7543	81.069723	0.000618	6.183748	2.095110	-0.000248
 786	7.8108e+01	8.7190	80.855755	0.000537	5.372764	1.820342	-0.000215
 787	7.8207e+01	8.6821	80.661972	0.000487	4.865900	1.648612	-0.000195
 788	7.8306e+01	8.6372	80.460115	0.000507	5.068646	1.717304	-0.000203
 789	7.8406e+01	8.5939	80.173479	0.000720	7.197477	2.438571	-0.000288
 790	7.8505e+01	8.5618	79.991808	0.000456	4.561781	1.545573	-0.000183
 791	7.8605e+01	8.5169	79.818211	0.000436	4.359035	1.476881	-0.000174
 792	7.8704e+01	8.4703	79.567908	0.000629	6.285121	2.129457	-0.000252
 793	7.8804e+01	8.4302	79.329717	0.000598	5.981002	2.026418	-0.000239
 794	7.8903e+01	8.4046	79.152083	0.000446	4.460408	1.511227	-0.000179
 795	7.9003e+01	8.3548	78.909855	0.000608	6.082375	2.060764	-0.000243
 796	7.9103e+01	8.3276	78.699924	0.000527	5.271392	1.785996	-0.000211
 797	7.9202e+01	8.2827	78.453659	0.000618	6.183748	2.095110	-0.000248
 798	7.9302e+01	8.2409	78.211431	0.000608	6.082375	2.060764	-0.000243
 799	7.9401e+01	8.1944	78.001500	0.000527	5.271392	1.785996	-0.000211
 800	7.9501e+01	8.1575	77.791569	0.000527	5.271392	1.785996	-0.000211
 801	7.9600e+01	8.1222	77.597786	0.000487	4.865900	1.648612	-0.000195
 802	7.9700e+01	8.0805	77.363632	0.000588	5.879629	1.992072	-0.000235
 803	7.9799e+01	8.0404	77.145627	0.000547	5.474137	1.854688	-0.000219
 804	7.9898e+01	7.9987	76.895324	0.000629	6.285121	2.129457	-0.000252
 805	7.9998e+01	7.9634	76.685393	0.000527	5.271392	1.785996	-0.000211
 806	8.0097e+01	7.9153	76.443165	0.000608	6.082375	2.060764	-0.000243
 807	8.0197e+01	7.8848	76.237271	0.000517	5.170019	1.751650	-0.000207
 808	8.0296e+01	7.8431	75.982932	0.000639	6.386494	2.163803	-0.000256
 809	8.0396e+01	7.7982	75.805298	0.000446	4.460408	1.511227	-0.000179
 810	8.0496e+01	7.7693	75.559032	0.000618	6.183748	2.095110	-0.000248
 811	8.0595e+01	7.7148	75.300656	0.000649	6.487867	2.198149	-0.000260
 812	8.0695e+01	7.6763	75.090725	0.000527	5.271392	1.785996	-0.000211
 813	8.0794e+01	7.6361	74.828311	0.000659	6.589239	2.232495	-0.000264
 814	8.0894e+01	7.5944	74.646640	0.000456	4.561781	1.545573	-0.000183
 815	8.0993e+01	7.5688	74.364040	0.000710	7.096104	2.404225	-0.000284
 816	8.1093e+01	7.5206	74.174295	0.000476	4.764527	1.614265	-0.000191
 817	8.1192e+01	7.4773	73.964364	0.000527	5.271392	1.785996	-0.000211
 818	8.1291e+01	7.4372	73.705987	0.000649	6.487867	2.198149	-0.000260
 819	8.1391e+01	7.4035	73.451648	0.000639	6.386494	2.163803	-0.000256
 820	8.1490e+01	7.3554	73.241717	0.000527	5.271392	1.785996	-0.000211
 821	8.1590e+01	7.3249	73.031786	0.000527	5.271392	1.785996	-0.000211
 822	8.1689e+01	7.2800	72.781483	0.000629	6.285121	2.129457	-0.000252
 823	8.1789e+01	7.2399	72.579626	0.000507	5.068646	1.717304	-0.000203
 824	8.1888e+01	7.2046	72.309138	0.000679	6.791985	2.301187	-0.000272
 825	8.1988e+01	7.1581	72.087096	0.000558	5.575510	1.889034	-0.000223
 826	8.2088e+01	7.1308	71.836793	0.000629	6.285121	2.129457	-0.000252
 827	8.2187e+01	7.0763	71.602639	0.000588	5.879629	1.992072	-0.000235
 828	8.2287e+01	7.0410	71.372523	0.000578	5.778256	1.957726	-0.000231
 829	8.2386e+01	7.0057	71.178740	0.000487	4.865900	1.648612	-0.000195
 830	8.2486e+01	6.9672	70.928438	0.000629	6.285121	2.129457	-0.000252
 831	8.2585e+01	6.9191	70.686210	0.000608	6.082375	2.060764	-0.000243
 832	8.2684e+01	6.8870	70.452056	0.000588	5.879629	1.992072	-0.000235
 833	8.2784e+01	6.8388	70.177531	0.000689	6.893358	2.335533	-0.000276
 834	8.2883e+01	6.8036	69.963562	0.000537	5.372764	1.820342	-0.000215
 835	8.2983e+01	6.7634	69.757668	0.000517	5.170019	1.751650	-0.000207
 836	8.3082e+01	6.7185	69.495255	0.000659	6.589239	2.232495	-0.000264
 837	8.3182e+01	6.6768	69.261101	0.000588	5.879629	1.992072	-0.000235
 838	8.3281e+01	6.6415	69.055207	0.000517	5.170019	1.751650	-0.000207
 839	8.3381e+01	6.6030	68.796830	0.000649	6.487867	2.198149	-0.000260
 840	8.3481e+01	6.5725	68.542491	0.000639	6.386494	2.163803	-0.000256
 841	8.3580e+01	6.5292	68.308337	0.000588	5.879629	1.992072	-0.000235
 842	8.3680e+01	6.4907	68.098406	0.000527	5.271392	1.785996	-0.000211
 843	8.3779e+01	6.4538	67.872326	0.000568	5.676883	1.923380	-0.000227
 844	8.3879e+01	6.4073	67.617986	0.000639	6.386494	2.163803	-0.000256
 845	8.3978e+01	6.3688	67.351536	0.000669	6.690612	2.266841	-0.000268
 846	8.4078e+01	6.3255	67.125456	0.000568	5.676883	1.923380	-0.000227
 847	8.4177e+01	6.2838	66.879191	0.000618	6.183748	2.095110	-0.000248
 848	8.4276e+01	6.2533	66.628888	0.000629	6.285121	2.129457	-0.000252
 849	8.4376e+01	6.2084	66.406846	0.000558	5.575510	1.889034	-0.000223
 850	8.4475e+01	6.1667	66.148469	0.000649	6.487867	2.198149	-0.000260
 851	8.4575e+01	6.1330	65.886055	0.000659	6.589239	2.232495	-0.000264
 852	8.4674e+01	6.0800	65.639790	0.000618	6.183748	2.095110	-0.000248
 853	8.4774e+01	6.0496	65.462156	0.000446	4.460408	1.511227	-0.000179
 854	8.4874e+01	6.0095	65.187631	0.000689	6.893358	2.335533	-0.000276
 855	8.4973e+01	5.9758	64.957514	0.000578	5.778256	1.957726	-0.000231
 856	8.5073e+01	5.9292	64.691063	0.000669	6.690612	2.266841	-0.000268
 857	8.5172e+01	5.8843	64.456909	0.000588	5.879629	1.992072	-0.000235
 858	8.5272e+01	5.8506	64.194495	0.000659	6.589239	2.232495	-0.000264
 859	8.5371e+01	5.8121	63.952267	0.000608	6.082375	2.060764	-0.000243
 860	8.5471e+01	5.7688	63.677742	0.000689	6.893358	2.335533	-0.000276
 861	8.5570e+01	5.7335	63.467811	0.000527	5.271392	1.785996	-0.000211
 862	8.5669e+01	5.6870	63.209434	0.000649	6.487867	2.198149	-0.000260
 863	8.5769e+01	5.6469	62.979318	0.000578	5.778256	1.957726	-0.000231
 864	8.5868e+01	5.6100	62.696718	0.000710	7.096104	2.404225	-0.000284
 865	8.5968e+01	5.5683	62.486787	0.000527	5.271392	1.785996	-0.000211
 866	8.6067e+01	5.5250	62.200150	0.000720	7.197477	2.438571	-0.000288
 867	8.6167e+01	5.4881	61.974071	0.000568	5.676883	1.923380	-0.000227
 868	8.6266e+01	5.4464	61.715694	0.000649	6.487867	2.198149	-0.000260
 869	8.6366e+01	5.4079	61.461354	0.000639	6.386494	2.163803	-0.000256
 870	8.6466e+01	5.3710	61.223163	0.000598	5.981002	2.026418	-0.000239
 871	8.6565e+01	5.3244	60.989010	0.000588	5.879629	1.992072	-0.000235
 872	8.6665e+01	5.2908	60.750819	0.000598	5.981002	2.026418	-0.000239
 873	8.6764e+01	5.2523	60.484368	0.000669	6.690612	2.266841	-0.000268
 874	8.6864e+01	5.2138	60.193694	0.000730	7.298850	2.472917	-0.000292
 875	8.6963e+01	5.1672	59.951466	0.000608	6.082375	2.060764	-0.000243
 876	8.7063e+01	5.1335	59.705200	0.000618	6.183748	2.095110	-0.000248
 877	8.7162e+01	5.0966	59.467009	0.000598	5.981002	2.026418	-0.000239
 878	8.7261e+01	5.0549	59.220744	0.000618	6.183748	2.095110	-0.000248
 879	8.7361e+01	5.0116	58.970442	0.000629	6.285121	2.129457	-0.000252
 880	8.7460e+01	4.9779	58.708028	0.000659	6.589239	2.232495	-0.000264
 881	8.7560e+01	4.9314	58.445614	0.000659	6.589239	2.232495	-0.000264
 882	8.7659e+01	4.8849	58.239720	0.000517	5.170019	1.751650	-0.000207
 883	8.7759e+01	4.8512	57.957121	0.000710	7.096104	2.404225	-0.000284
 884	8.7859e+01	4.8159	57.739115	0.000547	5.474137	1.854688	-0.000219
 885	8.7958e+01	4.7726	57.440367	0.000750	7.501596	2.541609	-0.000300
 886	8.8058e+01	4.7261	57.190065	0.000629	6.285121	2.129457	-0.000252
 887	8.8157e+01	4.6892	56.959948	0.000578	5.778256	1.957726	-0.000231
 888	8.8257e+01	4.6587	56.701571	0.000649	6.487867	2.198149	-0.000260
 889	8.8356e+01	4.6170	56.410898	0.000730	7.298850	2.472917	-0.000292
 890	8.8456e+01	4.5769	56.200967	0.000527	5.271392	1.785996	-0.000211
 891	8.8555e+01	4.5239	55.938553	0.000659	6.589239	2.232495	-0.000264
 892	8.8654e+01	4.4967	55.700362	0.000598	5.981002	2.026418	-0.000239
 893	8.8754e+01	4.4534	55.401614	0.000750	7.501596	2.541609	-0.000300
 894	8.8853e+01	4.4148	55.187646	0.000537	5.372764	1.820342	-0.000215
 895	8.8953e+01	4.3796	54.965603	0.000558	5.575510	1.889034	-0.000223
 896	8.9052e+01	4.3378	54.687041	0.000699	6.994731	2.369879	-0.000280
 897	8.9152e+01	4.2945	54.416553	0.000679	6.791985	2.301187	-0.000272
 898	8.9251e+01	4.2512	54.170287	0.000618	6.183748	2.095110	-0.000248
 899	8.9351e+01	4.2111	53.915948	0.000639	6.386494	2.163803	-0.000256
 900	8.9451e+01	4.1806	53.645460	0.000679	6.791985	2.301187	-0.000272
 901	8.9550e+01	4.1341	53.447640	0.000497	4.967273	1.682958	-0.000199
 902	8.9650e+01	4.0892	53.140818	0.000770	7.704342	2.610302	-0.000308
 903	8.9749e+01	4.0459	52.878404	0.000659	6.589239	2.232495	-0.000264
 904	8.9849e+01	4.0122	52.664436	0.000537	5.372764	1.820342	-0.000215
 905	8.9948e+01	3.9817	52.410096	0.000639	6.386494	2.163803	-0.000256
 906	9.0047e+01	3.9400	52.163831	0.000618	6.183748	2.095110	-0.000248
 907	9.0147e+01	3.8903	51.873157	0.000730	7.298850	2.472917	-0.000292
 908	9.0246e+01	3.8518	51.602669	0.000679	6.791985	2.301187	-0.000272
 909	9.0346e+01	3.8165	51.368515	0.000588	5.879629	1.992072	-0.000235
 910	9.0445e+01	3.7619	51.126287	0.000608	6.082375	2.060764	-0.000243
 911	9.0545e+01	3.7314	50.859836	0.000669	6.690612	2.266841	-0.000268
 912	9.0644e+01	3.6945	50.609534	0.000629	6.285121	2.129457	-0.000252
 913	9.0744e+01	3.6480	50.379417	0.000578	5.778256	1.957726	-0.000231
 914	9.0844e+01	3.6079	50.080669	0.000750	7.501596	2.541609	-0.000300
 915	9.0943e+01	3.5823	49.834404	0.000618	6.183748	2.095110	-0.000248
 916	9.1043e+01	3.5341	49.580064	0.000639	6.386494	2.163803	-0.000256
 917	9.1142e+01	3.4940	49.313613	0.000669	6.690612	2.266841	-0.000268
 918	9.1242e+01	3.4507	49.026976	0.000720	7.197477	2.438571	-0.000288
 919	9.1341e+01	3.4122	48.784748	0.000608	6.082375	2.060764	-0.000243
 920	9.1441e+01	3.3801	48.558669	0.000568	5.676883	1.923380	-0.000227
 921	9.1540e+01	3.3368	48.272032	0.000720	7.197477	2.438571	-0.000288
 922	9.1639e+01	3.2935	47.989433	0.000710	7.096104	2.404225	-0.000284
 923	9.1739e+01	3.2630	47.783539	0.000517	5.170019	1.751650	-0.000207
 924	9.1838e+01	3.2149	47.553422	0.000578	5.778256	1.957726	-0.000231
 925	9.1938e+01	3.1844	47.266785	0.000720	7.197477	2.438571	-0.000288
 926	9.2037e+01	3.1363	47.020520	0.000618	6.183748	2.095110	-0.000248
 927	9.2137e+01	3.0978	46.733883	0.000720	7.197477	2.438571	-0.000288
 928	9.2237e+01	3.0577	46.479544	0.000639	6.386494	2.163803	-0.000256
 929	9.2336e+01	3.0208	46.213093	0.000669	6.690612	2.266841	-0.000268
 930	9.2436e+01	2.9855	45.958753	0.000639	6.386494	2.163803	-0.000256
 931	9.2535e+01	2.9406	45.672117	0.000720	7.197477	2.438571	-0.000288
 932	9.2635e+01	2.9021	45.454111	0.000547	5.474137	1.854688	-0.000219
 933	9.2734e+01	2.8620	45.143252	0.000781	7.805714	2.644648	-0.000312
 934	9.2834e+01	2.8267	44.925246	0.000547	5.474137	1.854688	-0.000219
 935	9.2933e+01	2.7721	44.646684	0.000699	6.994731	2.369879	-0.000280
 936	9.3032e+01	2.7448	44.424642	0.000558	5.575510	1.889034	-0.000223
 937	9.3132e+01	2.7015	44.166265	0.000649	6.487867	2.198149	-0.000260
 938	9.3231e+01	2.6646	43.903851	0.000659	6.589239	2.232495	-0.000264
 939	9.3331e+01	2.6213	43.653549	0.000629	6.285121	2.129457	-0.000252
 940	9.3430e+01	2.5796	43.358838	0.000740	7.400223	2.507263	-0.000296
 941	9.3530e+01	2.5475	43.104498	0.000639	6.386494	2.163803	-0.000256
 942	9.3629e+01	2.5042	42.842084	0.000659	6.589239	2.232495	-0.000264
 943	9.3729e+01	2.4641	42.551411	0.000730	7.298850	2.472917	-0.000292
 944	9.3829e+01	2.4208	42.353591	0.000497	4.967273	1.682958	-0.000199
 945	9.3928e+01	2.3759	42.042732	0.000781	7.805714	2.644648	-0.000312
 946	9.4028e+01	2.3326	41.832801	0.000527	5.271392	1.785996	-0.000211
 947	9.4127e+01	2.2908	41.554238	0.000699	6.994731	2.369879	-0.000280
 948	9.4227e+01	2.2556	41.295861	0.000649	6.487867	2.198149	-0.000260
 949	9.4326e+01	2.2219	41.033448	0.000659	6.589239	2.232495	-0.000264
 950	9.4425e+01	2.1737	40.710477	0.000811	8.109833	2.747686	-0.000325
 951	9.4525e+01	2.1336	40.488434	0.000558	5.575510	1.889034	-0.000223
 952	9.4624e+01	2.1096	40.221983	0.000669	6.690612	2.266841	-0.000268
 953	9.4724e+01	2.0566	39.979755	0.000608	6.082375	2.060764	-0.000243
 954	9.4823e+01	2.0261	39.713304	0.000669	6.690612	2.266841	-0.000268
 955	9.4923e+01	1.9812	39.434742	0.000699	6.994731	2.369879	-0.000280
 956	9.5022e+01	1.9475	39.176365	0.000649	6.487867	2.198149	-0.000260
 957	9.5122e+01	1.9010	38.946248	0.000578	5.778256	1.957726	-0.000231
 958	9.5222e+01	1.8561	38.659612	0.000720	7.197477	2.438571	-0.000288
 959	9.5321e+01	1.8256	38.401235	0.000649	6.487867	2.198149	-0.000260
 960	9.5421e+01	1.7855	38.082301	0.000801	8.008460	2.713340	-0.000321
 961	9.5520e+01	1.7374	37.876407	0.000517	5.170019	1.751650	-0.000207
 962	9.5620e+01	1.6989	37.581697	0.000740	7.400223	2.507263	-0.000296
 963	9.5719e+01	1.6604	37.295060	0.000720	7.197477	2.438571	-0.000288
 964	9.5819e+01	1.6219	37.060906	0.000588	5.879629	1.992072	-0.000235
 965	9.5918e+01	1.5818	36.806567	0.000639	6.386494	2.163803	-0.000256
 966	9.6017e+01	1.5385	36.523967	0.000710	7.096104	2.404225	-0.000284
 967	9.6117e+01	1.5064	36.273665	0.000629	6.285121	2.129457	-0.000252
 968	9.6216e+01	1.4679	36.039511	0.000588	5.879629	1.992072	-0.000235
 969	9.6316e+01	1.4214	35.700391	0.000852	8.515325	2.885070	-0.000341
 970	9.6415e+01	1.3861	35.454126	0.000618	6.183748	2.095110	-0.000248
 971	9.6515e+01	1.3411	35.179601	0.000689	6.893358	2.335533	-0.000276
 972	9.6615e+01	1.3058	34.909113	0.000679	6.791985	2.301187	-0.000272
 973	9.6714e+01	1.2706	34.646699	0.000659	6.589239	2.232495	-0.000264
 974	9.6814e+01	1.2112	34.372174	0.000689	6.893358	2.335533	-0.000276
 975	9.6913e+01	1.1919	34.121871	0.000629	6.285121	2.129457	-0.000252
 976	9.7013e+01	1.1518	33.847346	0.000689	6.893358	2.335533	-0.000276
 977	9.7112e+01	1.0989	33.556672	0.000730	7.298850	2.472917	-0.000292
 978	9.7212e+01	1.0652	33.290221	0.000669	6.690612	2.266841	-0.000268
 979	9.7311e+01	1.0219	33.035882	0.000639	6.386494	2.163803	-0.000256
 980	9.7410e+01	0.9818	32.769431	0.000669	6.690612	2.266841	-0.000268
 981	9.7510e+01	0.9449	32.486831	0.000710	7.096104	2.404225	-0.000284
 982	9.7609e+01	0.9064	32.188083	0.000750	7.501596	2.541609	-0.000300
 983	9.7709e+01	0.8647	31.929707	0.000649	6.487867	2.198149	-0.000260
 984	9.7808e+01	0.8278	31.671330	0.000649	6.487867	2.198149	-0.000260
 985	9.7908e+01	0.7813	31.400842	0.000679	6.791985	2.301187	-0.000272
 986	9.8007e+01	0.7460	31.065760	0.000841	8.413952	2.850724	-0.000337
 987	9.8107e+01	0.7091	30.819494	0.000618	6.183748	2.095110	-0.000248
 988	9.8207e+01	0.6625	30.561118	0.000649	6.487867	2.198149	-0.000260
 989	9.8306e+01	0.6224	30.278518	0.000710	7.096104	2.404225	-0.000284
 990	9.8406e+01	0.5823	30.028216	0.000629	6.285121	2.129457	-0.000252
 991	9.8505e+01	0.5438	29.729468	0.000750	7.501596	2.541609	-0.000300
 992	9.8605e+01	0.5150	29.454942	0.000689	6.893358	2.335533	-0.000276
 993	9.8704e+01	0.4732	29.140046	0.000791	7.907087	2.678994	-0.000316
 994	9.8803e+01	0.4347	28.926078	0.000537	5.372764	1.820342	-0.000215
 995	9.8903e+01	0.3818	28.635404	0.000730	7.298850	2.472917	-0.000292
 996	9.9002e+01	0.3497	28.389139	0.000618	6.183748	2.095110	-0.000248
 997	9.9102e+01	0.3016	28.050019	0.000852	8.515325	2.885070	-0.000341
 998	9.9201e+01	0.2727	27.787605	0.000659	6.589239	2.232495	-0.000264
 999	9.9301e+01	0.2246	27.517117	0.000679	6.791985	2.301187	-0.000272
1000	9.9400e+01	0.1877	27.234518	0.000710	7.096104	2.404225	-0.000284
1001	9.9500e+01	0.1444	26.968067	0.000669	6.690612	2.266841	-0.000268
1002	9.9600e+01	0.1123	26.697579	0.000679	6.791985	2.301187	-0.000272
1003	9.9699e+01	0.0722	26.414979	0.000710	7.096104	2.404225	-0.000284
1004	9.9799e+01	0.0289	26.087971	0.000821	8.211206	2.782032	-0.000329
1005	9.9898e+01	-0.0112	25.922449	0.000416	4.156290	1.408189	-0.000166
1006	9.9998e+01	-0.0481	25.603515	0.000801	8.008460	2.713340	-0.000321
1007	1.0010e+02	-0.0786	25.353212	0.000629	6.285121	2.129457	-0.000252
1008	1.0020e+02	-0.1139	25.058502	0.000740	7.400223	2.507263	-0.000296
1009	1.0030e+02	-0.1636	24.792051	0.000669	6.690612	2.266841	-0.000268
1010	1.0040e+02	-0.2102	24.505414	0.000720	7.197477	2.438571	-0.000288
1011	1.0050e+02	-0.2358	24.206666	0.000750	7.501596	2.541609	-0.000300
1012	1.0059e+02	-0.2904	23.996735	0.000527	5.271392	1.785996	-0.000211
1013	1.0069e+02	-0.3385	23.714135	0.000710	7.096104	2.404225	-0.000284
1014	1.0079e+02	-0.3610	23.395202	0.000801	8.008460	2.713340	-0.000321
1015	1.0089e+02	-0.4107	23.096454	0.000750	7.501596	2.541609	-0.000300
1016	1.0099e+02	-0.4476	22.870374	0.000568	5.676883	1.923380	-0.000227
1017	1.0109e+02	-0.4813	22.559515	0.000781	7.805714	2.644648	-0.000312
1018	1.0119e+02	-0.5134	22.276915	0.000710	7.096104	2.404225	-0.000284
1019	1.0129e+02	-0.5631	22.018538	0.000649	6.487867	2.198149	-0.000260
1020	1.0139e+02	-0.5936	21.703642	0.000791	7.907087	2.678994	-0.000316
1021	1.0149e+02	-0.6385	21.380671	0.000811	8.109833	2.747686	-0.000325
1022	1.0159e+02	-0.6866	21.150554	0.000578	5.778256	1.957726	-0.000231
1023	1.0169e+02	-0.7187	20.851806	0.000750	7.501596	2.541609	-0.000300
1024	1.0179e+02	-0.7652	20.577281	0.000689	6.893358	2.335533	-0.000276
1025	1.0189e+02	-0.7909	20.302756	0.000689	6.893358	2.335533	-0.000276
1026	1.0199e+02	-0.8454	19.995933	0.000770	7.704342	2.610302	-0.000308
1027	1.0209e+02	-0.8727	19.737557	0.000649	6.487867	2.198149	-0.000260
1028	1.0219e+02	-0.9256	19.467069	0.000679	6.791985	2.301187	-0.000272
1029	1.0229e+02	-0.9593	19.136023	0.000831	8.312579	2.816378	-0.000333
1030	1.0239e+02	-0.9946	18.913981	0.000558	5.575510	1.889034	-0.000223
1031	1.0248e+02	-1.0444	18.574862	0.000852	8.515325	2.885070	-0.000341
1032	1.0258e+02	-1.0861	18.308411	0.000669	6.690612	2.266841	-0.000268
1033	1.0268e+02	-1.1069	18.025811	0.000710	7.096104	2.404225	-0.000284
1034	1.0278e+02	-1.1631	17.767434	0.000649	6.487867	2.198149	-0.000260
1035	1.0288e+02	-1.2048	17.472723	0.000740	7.400223	2.507263	-0.000296
1036	1.0298e+02	-1.2449	17.157827	0.000791	7.907087	2.678994	-0.000316
1037	1.0308e+02	-1.2818	16.895413	0.000659	6.589239	2.232495	-0.000264
1038	1.0318e+02	-1.3187	16.588591	0.000770	7.704342	2.610302	-0.000308
1039	1.0328e+02	-1.3620	16.310028	0.000699	6.994731	2.369879	-0.000280
1040	1.0338e+02	-1.4069	16.031466	0.000699	6.994731	2.369879	-0.000280
1041	1.0348e+02	-1.4438	15.765015	0.000669	6.690612	2.266841	-0.000268
1042	1.0358e+02	-1.4775	15.442044	0.000811	8.109833	2.747686	-0.000325
1043	1.0368e+02	-1.5224	15.183668	0.000649	6.487867	2.198149	-0.000260
1044	1.0378e+02	-1.5529	14.892994	0.000730	7.298850	2.472917	-0.000292
1045	1.0388e+02	-1.5962	14.610394	0.000710	7.096104	2.404225	-0.000284
1046	1.0398e+02	-1.6331	14.331832	0.000699	6.994731	2.369879	-0.000280
1047	1.0408e+02	-1.6748	14.041158	0.000730	7.298850	2.472917	-0.000292
1048	1.0418e+02	-1.7181	13.746447	0.000740	7.400223	2.507263	-0.000296
1049	1.0428e+02	-1.7534	13.512293	0.000588	5.879629	1.992072	-0.000235
1050	1.0438e+02	-1.7903	13.209508	0.000760	7.602969	2.575955	-0.000304
1051	1.0447e+02	-1.8368	12.906723	0.000760	7.602969	2.575955	-0.000304
1052	1.0457e+02	-1.8818	12.632198	0.000689	6.893358	2.335533	-0.000276
1053	1.0467e+02	-1.9187	12.341524	0.000730	7.298850	2.472917	-0.000292
1054	1.0477e+02	-1.9620	12.026627	0.000791	7.907087	2.678994	-0.000316
1055	1.0487e+02	-2.0005	11.776325	0.000629	6.285121	2.129457	-0.000252
1056	1.0497e+02	-2.0358	11.526023	0.000629	6.285121	2.129457	-0.000252
1057	1.0507e+02	-2.0775	11.227274	0.000750	7.501596	2.541609	-0.000300
1058	1.0517e+02	-2.1160	10.948712	0.000699	6.994731	2.369879	-0.000280
1059	1.0527e+02	-2.1513	10.690335	0.000649	6.487867	2.198149	-0.000260
1060	1.0537e+02	-2.1994	10.415810	0.000689	6.893358	2.335533	-0.000276
1061	1.0547e+02	-2.2283	10.088802	0.000821	8.211206	2.782032	-0.000329
1062	1.0557e+02	-2.2748	9.850611	0.000598	5.981002	2.026418	-0.000239
1063	1.0567e+02	-2.3165	9.539752	0.000781	7.805714	2.644648	-0.000312
1064	1.0577e+02	-2.3534	9.277338	0.000659	6.589239	2.232495	-0.000264
1065	1.0587e+02	-2.3983	8.974553	0.000760	7.602969	2.575955	-0.000304
1066	1.0597e+02	-2.4384	8.724250	0.000629	6.285121	2.129457	-0.000252
1067	1.0607e+02	-2.4721	8.473948	0.000629	6.285121	2.129457	-0.000252
1068	1.0617e+02	-2.5138	8.175200	0.000750	7.501596	2.541609	-0.000300
1069	1.0627e+02	-2.5588	7.876452	0.000750	7.501596	2.541609	-0.000300
1070	1.0637e+02	-2.5956	7.581741	0.000740	7.400223	2.507263	-0.000296
1071	1.0647e+02	-2.6390	7.375847	0.000517	5.170019	1.751650	-0.000207
1072	1.0656e+02	-2.6694	7.069025	0.000770	7.704342	2.610302	-0.000308
1073	1.0666e+02	-2.7031	6.770277	0.000750	7.501596	2.541609	-0.000300
1074	1.0676e+02	-2.7513	6.491714	0.000699	6.994731	2.369879	-0.000280
1075	1.0686e+02	-2.7849	6.225263	0.000669	6.690612	2.266841	-0.000268
1076	1.0696e+02	-2.8315	5.958812	0.000669	6.690612	2.266841	-0.000268
1077	1.0706e+02	-2.8700	5.668139	0.000730	7.298850	2.472917	-0.000292
1078	1.0716e+02	-2.9165	5.405725	0.000659	6.589239	2.232495	-0.000264
1079	1.0726e+02	-2.9470	5.090828	0.000791	7.907087	2.678994	-0.000316
1080	1.0736e+02	-2.9951	4.824377	0.000669	6.690612	2.266841	-0.000268
1081	1.0746e+02	-3.0320	4.598298	0.000568	5.676883	1.923380	-0.000227
1082	1.0756e+02	-3.0625	4.299550	0.000750	7.501596	2.541609	-0.000300
1083	1.0766e+02	-3.1074	4.004839	0.000740	7.400223	2.507263	-0.000296
1084	1.0776e+02	-3.1555	3.782796	0.000558	5.575510	1.889034	-0.000223
1085	1.0786e+02	-3.1940	3.451751	0.000831	8.312579	2.816378	-0.000333
1086	1.0796e+02	-3.2325	3.197412	0.000639	6.386494	2.163803	-0.000256
1087	1.0806e+02	-3.2646	2.906738	0.000730	7.298850	2.472917	-0.000292
1088	1.0816e+02	-3.3159	2.616064	0.000730	7.298850	2.472917	-0.000292
1089	1.0826e+02	-3.3625	2.394021	0.000558	5.575510	1.889034	-0.000223
1090	1.0836e+02	-3.3881	2.135645	0.000649	6.487867	2.198149	-0.000260
1091	1.0845e+02	-3.4202	1.853045	0.000710	7.096104	2.404225	-0.000284
1092	1.0855e+02	-3.4684	1.578520	0.000689	6.893358	2.335533	-0.000276
1093	1.0865e+02	-3.5004	1.295921	0.000710	7.096104	2.404225	-0.000284
1094	1.0875e+02	-3.5486	1.041581	0.000639	6.386494	2.163803	-0.000256
1095	1.0885e+02	-3.6015	0.787241	0.000639	6.386494	2.163803	-0.000256
1096	1.0895e+02	-3.6368	0.532902	0.000639	6.386494	2.163803	-0.000256
1097	1.0905e+02	-3.6657	0.254340	0.000699	6.994731	2.369879	-0.000280
1098	1.0915e+02	-3.7154	-0.032297	0.000720	7.197477	2.438571	-0.000288
1099	1.0925e+02	-3.7507	-0.335082	0.000760	7.602969	2.575955	-0.000304
1100	1.0935e+02	-3.7940	-0.605570	0.000679	6.791985	2.301187	-0.000272
1101	1.0945e+02	-3.8261	-0.823576	0.000547	5.474137	1.854688	-0.000219
1102	1.0955e+02	-3.8694	-1.094064	0.000679	6.791985	2.301187	-0.000272
1103	1.0965e+02	-3.9095	-1.380700	0.000720	7.197477	2.438571	-0.000288
1104	1.0975e+02	-3.9480	-1.639077	0.000649	6.487867	2.198149	-0.000260
1105	1.0985e+02	-3.9865	-1.885342	0.000618	6.183748	2.095110	-0.000248
1106	1.0995e+02	-4.0266	-2.208313	0.000811	8.109833	2.747686	-0.000325
1107	1.1005e+02	-4.0748	-2.446504	0.000598	5.981002	2.026418	-0.000239
1108	1.1015e+02	-4.1052	-2.741215	0.000740	7.400223	2.507263	-0.000296
1109	1.1025e+02	-4.1566	-2.991518	0.000629	6.285121	2.129457	-0.000252
1110	1.1035e+02	-4.1935	-3.233746	0.000608	6.082375	2.060764	-0.000243
1111	1.1044e+02	-4.2255	-3.443677	0.000527	5.271392	1.785996	-0.000211
1112	1.1054e+02	-4.2641	-3.770685	0.000821	8.211206	2.782032	-0.000329
1113	1.1064e+02	-4.3090	-4.016950	0.000618	6.183748	2.095110	-0.000248
1114	1.1074e+02	-4.3443	-4.315698	0.000750	7.501596	2.541609	-0.000300
1115	1.1084e+02	-4.3892	-4.529666	0.000537	5.372764	1.820342	-0.000215
1116	1.1094e+02	-4.4341	-4.800154	0.000679	6.791985	2.301187	-0.000272
1117	1.1104e+02	-4.4694	-5.050457	0.000629	6.285121	2.129457	-0.000252
1118	1.1114e+02	-4.5159	-5.312871	0.000659	6.589239	2.232495	-0.000264
1119	1.1124e+02	-4.5464	-5.575284	0.000659	6.589239	2.232495	-0.000264
1120	1.1134e+02	-4.5817	-5.861921	0.000720	7.197477	2.438571	-0.000288
1121	1.1144e+02	-4.6250	-6.075889	0.000537	5.372764	1.820342	-0.000215
1122	1.1154e+02	-4.6683	-6.358489	0.000710	7.096104	2.404225	-0.000284
1123	1.1164e+02	-4.7084	-6.616865	0.000649	6.487867	2.198149	-0.000260
1124	1.1174e+02	-4.7405	-6.875242	0.000649	6.487867	2.198149	-0.000260
1125	1.1184e+02	-4.7790	-7.117470	0.000608	6.082375	2.060764	-0.000243
1126	1.1194e+02	-4.8191	-7.412181	0.000740	7.400223	2.507263	-0.000296
1127	1.1204e+02	-4.8608	-7.694781	0.000710	7.096104	2.404225	-0.000284
1128	1.1214e+02	-4.9106	-7.888563	0.000487	4.865900	1.648612	-0.000195
1129	1.1224e+02	-4.9410	-8.175200	0.000720	7.197477	2.438571	-0.000288
1130	1.1234e+02	-4.9860	-8.433577	0.000649	6.487867	2.198149	-0.000260
1131	1.1244e+02	-5.0309	-8.700028	0.000669	6.690612	2.266841	-0.000268
1132	1.1253e+02	-5.0565	-8.930144	0.000578	5.778256	1.957726	-0.000231
1133	1.1263e+02	-5.1111	-9.184484	0.000639	6.386494	2.163803	-0.000256
1134	1.1273e+02	-5.1464	-9.487269	0.000760	7.602969	2.575955	-0.000304
1135	1.1283e+02	-5.1817	-9.701237	0.000537	5.372764	1.820342	-0.000215
1136	1.1293e+02	-5.2250	-10.012097	0.000781	7.805714	2.644648	-0.000312
1137	1.1303e+02	-5.2635	-10.246251	0.000588	5.879629	1.992072	-0.000235
1138	1.1313e+02	-5.3100	-10.460219	0.000537	5.372764	1.820342	-0.000215
1139	1.1323e+02	-5.3437	-10.746855	0.000720	7.197477	2.438571	-0.000288
1140	1.1333e+02	-5.3902	-10.989083	0.000608	6.082375	2.060764	-0.000243
1141	1.1343e+02	-5.4207	-11.275720	0.000720	7.197477	2.438571	-0.000288
1142	1.1353e+02	-5.4656	-11.497763	0.000558	5.575510	1.889034	-0.000223
1143	1.1363e+02	-5.5041	-11.784399	0.000720	7.197477	2.438571	-0.000288
1144	1.1373e+02	-5.5378	-12.030664	0.000618	6.183748	2.095110	-0.000248
1145	1.1383e+02	-5.5891	-12.293078	0.000659	6.589239	2.232495	-0.000264
1146	1.1393e+02	-5.6260	-12.523195	0.000578	5.778256	1.957726	-0.000231
1147	1.1403e+02	-5.6694	-12.745238	0.000558	5.575510	1.889034	-0.000223
1148	1.1413e+02	-5.6998	-13.011688	0.000669	6.690612	2.266841	-0.000268
1149	1.1423e+02	-5.7480	-13.294288	0.000710	7.096104	2.404225	-0.000284
1150	1.1433e+02	-5.7865	-13.548628	0.000639	6.386494	2.163803	-0.000256
1151	1.1442e+02	-5.8266	-13.798930	0.000629	6.285121	2.129457	-0.000252
1152	1.1452e+02	-5.8619	-14.045195	0.000618	6.183748	2.095110	-0.000248
1153	1.1462e+02	-5.9116	-14.295498	0.000629	6.285121	2.129457	-0.000252
1154	1.1472e+02	-5.9485	-14.594246	0.000750	7.501596	2.541609	-0.000300
1155	1.1482e+02	-5.9790	-14.816288	0.000558	5.575510	1.889034	-0.000223
1156	1.1492e+02	-6.0223	-15.038331	0.000558	5.575510	1.889034	-0.000223
1157	1.1502e+02	-6.0672	-15.284596	0.000618	6.183748	2.095110	-0.000248
1158	1.1512e+02	-6.1073	-15.603530	0.000801	8.008460	2.713340	-0.000321
1159	1.1522e+02	-6.1410	-15.817498	0.000537	5.372764	1.820342	-0.000215
1160	1.1532e+02	-6.1827	-16.023392	0.000517	5.170019	1.751650	-0.000207
1161	1.1542e+02	-6.2164	-16.281768	0.000649	6.487867	2.198149	-0.000260
1162	1.1552e+02	-6.2661	-16.556294	0.000689	6.893358	2.335533	-0.000276
1163	1.1562e+02	-6.3030	-16.814670	0.000649	6.487867	2.198149	-0.000260
1164	1.1572e+02	-6.3399	-17.069010	0.000639	6.386494	2.163803	-0.000256
1165	1.1582e+02	-6.3752	-17.287015	0.000547	5.474137	1.854688	-0.000219
1166	1.1592e+02	-6.4233	-17.565578	0.000699	6.994731	2.369879	-0.000280
1167	1.1602e+02	-6.4570	-17.783583	0.000547	5.474137	1.854688	-0.000219
1168	1.1612e+02	-6.4955	-18.074257	0.000730	7.298850	2.472917	-0.000292
1169	1.1622e+02	-6.5421	-18.320522	0.000618	6.183748	2.095110	-0.000248
1170	1.1632e+02	-6.5838	-18.514304	0.000487	4.865900	1.648612	-0.000195
1171	1.1642e+02	-6.6159	-18.764607	0.000629	6.285121	2.129457	-0.000252
1172	1.1651e+02	-6.6608	-19.059318	0.000740	7.400223	2.507263	-0.000296
1173	1.1661e+02	-6.7009	-19.285397	0.000568	5.676883	1.923380	-0.000227
1174	1.1671e+02	-6.7442	-19.523588	0.000598	5.981002	2.026418	-0.000239
1175	1.1681e+02	-6.7747	-19.777928	0.000639	6.386494	2.163803	-0.000256
1176	1.1691e+02	-6.8084	-20.040342	0.000659	6.589239	2.232495	-0.000264
1177	1.1701e+02	-6.8469	-20.246236	0.000517	5.170019	1.751650	-0.000207
1178	1.1711e+02	-6.8998	-20.480390	0.000588	5.879629	1.992072	-0.000235
1179	1.1721e+02	-6.9303	-20.771063	0.000730	7.298850	2.472917	-0.000292
1180	1.1731e+02	-6.9688	-21.013292	0.000608	6.082375	2.060764	-0.000243
1181	1.1741e+02	-7.0249	-21.239371	0.000568	5.676883	1.923380	-0.000227
1182	1.1751e+02	-7.0602	-21.481599	0.000608	6.082375	2.060764	-0.000243
1183	1.1761e+02	-7.1003	-21.723827	0.000608	6.082375	2.060764	-0.000243
1184	1.1771e+02	-7.1356	-21.966056	0.000608	6.082375	2.060764	-0.000243
1185	1.1781e+02	-7.1789	-22.228469	0.000659	6.589239	2.232495	-0.000264
1186	1.1791e+02	-7.2142	-22.490883	0.000659	6.589239	2.232495	-0.000264
1187	1.1801e+02	-7.2463	-22.745223	0.000639	6.386494	2.163803	-0.000256
1188	1.1811e+02	-7.2993	-22.983414	0.000598	5.981002	2.026418	-0.000239
1189	1.1821e+02	-7.3362	-23.205456	0.000558	5.575510	1.889034	-0.000223
1190	1.1831e+02	-7.3731	-23.447684	0.000608	6.082375	2.060764	-0.000243
1191	1.1841e+02	-7.4100	-23.685875	0.000598	5.981002	2.026418	-0.000239
1192	1.1850e+02	-7.4613	-23.928104	0.000608	6.082375	2.060764	-0.000243
1193	1.1860e+02	-7.4950	-24.202629	0.000689	6.893358	2.335533	-0.000276
1194	1.1870e+02	-7.5287	-24.440820	0.000598	5.981002	2.026418	-0.000239
1195	1.1880e+02	-7.5768	-24.683048	0.000608	6.082375	2.060764	-0.000243
1196	1.1890e+02	-7.6121	-24.909128	0.000568	5.676883	1.923380	-0.000227
1197	1.1900e+02	-7.6522	-25.183653	0.000689	6.893358	2.335533	-0.000276
1198	1.1910e+02	-7.6971	-25.401658	0.000547	5.474137	1.854688	-0.000219
1199	1.1920e+02	-7.7308	-25.631775	0.000578	5.778256	1.957726	-0.000231
1200	1.1930e+02	-7.7709	-25.878040	0.000618	6.183748	2.095110	-0.000248
1201	1.1940e+02	-7.8158	-26.144491	0.000669	6.690612	2.266841	-0.000268
1202	1.1950e+02	-7.8559	-26.378645	0.000588	5.879629	1.992072	-0.000235
1203	1.1960e+02	-7.8864	-26.637022	0.000649	6.487867	2.198149	-0.000260
1204	1.1970e+02	-7.9361	-26.802544	0.000416	4.156290	1.408189	-0.000166
1205	1.1980e+02	-7.9666	-27.081107	0.000699	6.994731	2.369879	-0.000280
1206	1.1990e+02	-8.0131	-27.359669	0.000699	6.994731	2.369879	-0.000280
1207	1.2000e+02	-8.0452	-27.565563	0.000517	5.170019	1.751650	-0.000207
1208	1.2010e+02	-8.0837	-27.823940	0.000649	6.487867	2.198149	-0.000260
1209	1.2020e+02	-8.1254	-28.050019	0.000568	5.676883	1.923380	-0.000227
1210	1.2030e+02	-8.1688	-28.288210	0.000598	5.981002	2.026418	-0.000239
1211	1.2039e+02	-8.2137	-28.570810	0.000710	7.096104	2.404225	-0.000284
1212	1.2049e+02	-8.2538	-28.752481	0.000456	4.561781	1.545573	-0.000183
1213	1.2059e+02	-8.2955	-28.990672	0.000598	5.981002	2.026418	-0.000239
1214	1.2069e+02	-8.3292	-29.228863	0.000598	5.981002	2.026418	-0.000239
1215	1.2079e+02	-8.3805	-29.454942	0.000568	5.676883	1.923380	-0.000227
1216	1.2089e+02	-8.4110	-29.693133	0.000598	5.981002	2.026418	-0.000239
1217	1.2099e+02	-8.4479	-29.899027	0.000517	5.170019	1.751650	-0.000207
1218	1.2109e+02	-8.4944	-30.197775	0.000750	7.501596	2.541609	-0.000300
1219	1.2119e+02	-8.5265	-30.387521	0.000476	4.764527	1.614265	-0.000191
1220	1.2129e+02	-8.5746	-30.670120	0.000710	7.096104	2.404225	-0.000284
1221	1.2139e+02	-8.6131	-30.896200	0.000568	5.676883	1.923380	-0.000227
1222	1.2149e+02	-8.6452	-31.126317	0.000578	5.778256	1.957726	-0.000231
1223	1.2159e+02	-8.6821	-31.336248	0.000527	5.271392	1.785996	-0.000211
1224	1.2169e+02	-8.7350	-31.586550	0.000629	6.285121	2.129457	-0.000252
1225	1.2179e+02	-8.7671	-31.820704	0.000588	5.879629	1.992072	-0.000235
1226	1.2189e+02	-8.8008	-32.054858	0.000588	5.879629	1.992072	-0.000235
1227	1.2199e+02	-8.8506	-32.244603	0.000476	4.764527	1.614265	-0.000191
1228	1.2209e+02	-8.8874	-32.539314	0.000740	7.400223	2.507263	-0.000296
1229	1.2219e+02	-8.9308	-32.741171	0.000507	5.068646	1.717304	-0.000203
1230	1.2229e+02	-8.9725	-32.930916	0.000476	4.764527	1.614265	-0.000191
1231	1.2239e+02	-9.0014	-33.205441	0.000689	6.893358	2.335533	-0.000276
1232	1.2248e+02	-9.0559	-33.447670	0.000608	6.082375	2.060764	-0.000243
1233	1.2258e+02	-9.0912	-33.677786	0.000578	5.778256	1.957726	-0.000231
1234	1.2268e+02	-9.1329	-33.899829	0.000558	5.575510	1.889034	-0.000223
1235	1.2278e+02	-9.1634	-34.133983	0.000588	5.879629	1.992072	-0.000235
1236	1.2288e+02	-9.2051	-34.299505	0.000416	4.156290	1.408189	-0.000166
1237	1.2298e+02	-9.2516	-34.553845	0.000639	6.386494	2.163803	-0.000256
1238	1.2308e+02	-9.2821	-34.800110	0.000618	6.183748	2.095110	-0.000248
1239	1.2318e+02	-9.3318	-35.046375	0.000618	6.183748	2.095110	-0.000248
1240	1.2328e+02	-9.3607	-35.228046	0.000456	4.561781	1.545573	-0.000183
1241	1.2338e+02	-9.4120	-35.498535	0.000679	6.791985	2.301187	-0.000272
1242	1.2348e+02	-9.4457	-35.704428	0.000517	5.170019	1.751650	-0.000207
1243	1.2358e+02	-9.4858	-35.898211	0.000487	4.865900	1.648612	-0.000195
1244	1.2368e+02	-9.5324	-36.136402	0.000598	5.981002	2.026418	-0.000239
1245	1.2378e+02	-9.5757	-36.406890	0.000679	6.791985	2.301187	-0.000272
1246	1.2388e+02	-9.6029	-36.612784	0.000517	5.170019	1.751650	-0.000207
1247	1.2398e+02	-9.6479	-36.802529	0.000476	4.764527	1.614265	-0.000191
1248	1.2408e+02	-9.6928	-37.048795	0.000618	6.183748	2.095110	-0.000248
1249	1.2418e+02	-9.7281	-37.286986	0.000598	5.981002	2.026418	-0.000239
1250	1.2428e+02	-9.7634	-37.504991	0.000547	5.474137	1.854688	-0.000219
1251	1.2438e+02	-9.8003	-37.727033	0.000558	5.575510	1.889034	-0.000223
1252	1.2447e+02	-9.8372	-37.932927	0.000517	5.170019	1.751650	-0.000207
1253	1.2457e+02	-9.8805	-38.154970	0.000558	5.575510	1.889034	-0.000223
1254	1.2467e+02	-9.9286	-38.389124	0.000588	5.879629	1.992072	-0.000235
1255	1.2477e+02	-9.9655	-38.619240	0.000578	5.778256	1.957726	-0.000231
1256	1.2487e+02	-10.0024	-38.817060	0.000497	4.967273	1.682958	-0.000199
1257	1.2497e+02	-10.0457	-39.063325	0.000618	6.183748	2.095110	-0.000248
1258	1.2507e+02	-10.0810	-39.277294	0.000537	5.372764	1.820342	-0.000215
1259	1.2517e+02	-10.1275	-39.531633	0.000639	6.386494	2.163803	-0.000256
1260	1.2527e+02	-10.1644	-39.737527	0.000517	5.170019	1.751650	-0.000207
1261	1.2537e+02	-10.2077	-39.979755	0.000608	6.082375	2.060764	-0.000243
1262	1.2547e+02	-10.2510	-40.165463	0.000466	4.663154	1.579919	-0.000187
1263	1.2557e+02	-10.2912	-40.387506	0.000558	5.575510	1.889034	-0.000223
1264	1.2567e+02	-10.3313	-40.589363	0.000507	5.068646	1.717304	-0.000203
1265	1.2577e+02	-10.3569	-40.771034	0.000456	4.561781	1.545573	-0.000183
1266	1.2587e+02	-10.3954	-41.085930	0.000791	7.907087	2.678994	-0.000316
1267	1.2597e+02	-10.4420	-41.316047	0.000578	5.778256	1.957726	-0.000231
1268	1.2607e+02	-10.4901	-41.513867	0.000497	4.967273	1.682958	-0.000199
1269	1.2617e+02	-10.5190	-41.731872	0.000547	5.474137	1.854688	-0.000219
1270	1.2627e+02	-10.5607	-41.937766	0.000517	5.170019	1.751650	-0.000207
1271	1.2636e+02	-10.5976	-42.147697	0.000527	5.271392	1.785996	-0.000211
1272	1.2646e+02	-10.6537	-42.373777	0.000568	5.676883	1.923380	-0.000227
1273	1.2656e+02	-10.6810	-42.616005	0.000608	6.082375	2.060764	-0.000243
1274	1.2666e+02	-10.7195	-42.797676	0.000456	4.561781	1.545573	-0.000183
1275	1.2676e+02	-10.7660	-43.027793	0.000578	5.778256	1.957726	-0.000231
1276	1.2686e+02	-10.8029	-43.249835	0.000558	5.575510	1.889034	-0.000223
1277	1.2696e+02	-10.8414	-43.483989	0.000588	5.879629	1.992072	-0.000235
1278	1.2706e+02	-10.8783	-43.693920	0.000527	5.271392	1.785996	-0.000211
1279	1.2716e+02	-10.9152	-43.903851	0.000527	5.271392	1.785996	-0.000211
1280	1.2726e+02	-10.9649	-44.117819	0.000537	5.372764	1.820342	-0.000215
1281	1.2736e+02	-11.0066	-44.311602	0.000487	4.865900	1.648612	-0.000195
1282	1.2746e+02	-11.0355	-44.549793	0.000598	5.981002	2.026418	-0.000239
1283	1.2756e+02	-11.0804	-44.779910	0.000578	5.778256	1.957726	-0.000231
1284	1.2766e+02	-11.1157	-45.014063	0.000588	5.879629	1.992072	-0.000235
1285	1.2776e+02	-11.1590	-45.240143	0.000568	5.676883	1.923380	-0.000227
1286	1.2786e+02	-11.2024	-45.442000	0.000507	5.068646	1.717304	-0.000203
1287	1.2796e+02	-11.2393	-45.623671	0.000456	4.561781	1.545573	-0.000183
1288	1.2806e+02	-11.2778	-45.861862	0.000598	5.981002	2.026418	-0.000239
1289	1.2816e+02	-11.3275	-46.091979	0.000578	5.778256	1.957726	-0.000231
1290	1.2826e+02	-11.3580	-46.293836	0.000507	5.068646	1.717304	-0.000203
1291	1.2835e+02	-11.4045	-46.511841	0.000547	5.474137	1.854688	-0.000219
1292	1.2845e+02	-11.4350	-46.721772	0.000527	5.271392	1.785996	-0.000211
1293	1.2855e+02	-11.4799	-46.980149	0.000649	6.487867	2.198149	-0.000260
1294	1.2865e+02	-11.5200	-47.194117	0.000537	5.372764	1.820342	-0.000215
1295	1.2875e+02	-11.5649	-47.428271	0.000588	5.879629	1.992072	-0.000235
1296	1.2885e+02	-11.6002	-47.638202	0.000527	5.271392	1.785996	-0.000211
1297	1.2895e+02	-11.6435	-47.860244	0.000558	5.575510	1.889034	-0.000223
1298	1.2905e+02	-11.6708	-48.082287	0.000558	5.575510	1.889034	-0.000223
1299	1.2915e+02	-11.7093	-48.344700	0.000659	6.589239	2.232495	-0.000264
1300	1.2925e+02	-11.7526	-48.566743	0.000558	5.575510	1.889034	-0.000223
1301	1.2935e+02	-11.8007	-48.736303	0.000426	4.257662	1.442535	-0.000170
1302	1.2945e+02	-11.8344	-48.998716	0.000659	6.589239	2.232495	-0.000264
1303	1.2955e+02	-11.8777	-49.224796	0.000568	5.676883	1.923380	-0.000227
1304	1.2965e+02	-11.9162	-49.487210	0.000659	6.589239	2.232495	-0.000264
1305	1.2975e+02	-11.9451	-49.697141	0.000527	5.271392	1.785996	-0.000211
1306	1.2985e+02	-11.9981	-49.919183	0.000558	5.575510	1.889034	-0.000223
1307	1.2995e+02	-12.0253	-50.157374	0.000598	5.981002	2.026418	-0.000239
1308	1.3005e+02	-12.0670	-50.427863	0.000679	6.791985	2.301187	-0.000272
1309	1.3015e+02	-12.1168	-50.657979	0.000578	5.778256	1.957726	-0.000231
1310	1.3025e+02	-12.1665	-50.888096	0.000578	5.778256	1.957726	-0.000231
1311	1.3034e+02	-12.1938	-51.093990	0.000517	5.170019	1.751650	-0.000207
1312	1.3044e+02	-12.2483	-51.384664	0.000730	7.298850	2.472917	-0.000292
1313	1.3054e+02	-12.2740	-51.590558	0.000517	5.170019	1.751650	-0.000207
1314	1.3064e+02	-12.3189	-51.820674	0.000578	5.778256	1.957726	-0.000231
1315	1.3074e+02	-12.3494	-52.042717	0.000558	5.575510	1.889034	-0.000223
1316	1.3084e+02	-12.3911	-52.301093	0.000649	6.487867	2.198149	-0.000260
1317	1.3094e+02	-12.4376	-52.543322	0.000608	6.082375	2.060764	-0.000243
1318	1.3104e+02	-12.4809	-52.753253	0.000527	5.271392	1.785996	-0.000211
1319	1.3114e+02	-12.5242	-53.031815	0.000699	6.994731	2.369879	-0.000280
1320	1.3124e+02	-12.5660	-53.270006	0.000598	5.981002	2.026418	-0.000239
1321	1.3134e+02	-12.5916	-53.463789	0.000487	4.865900	1.648612	-0.000195
1322	1.3144e+02	-12.6446	-53.750425	0.000720	7.197477	2.438571	-0.000288
1323	1.3154e+02	-12.6766	-53.996690	0.000618	6.183748	2.095110	-0.000248
1324	1.3164e+02	-12.7103	-54.251030	0.000639	6.386494	2.163803	-0.000256
1325	1.3174e+02	-12.7537	-54.521518	0.000679	6.791985	2.301187	-0.000272
1326	1.3184e+02	-12.7922	-54.747598	0.000568	5.676883	1.923380	-0.000227
1327	1.3194e+02	-12.8307	-55.005974	0.000649	6.487867	2.198149	-0.000260
1328	1.3204e+02	-12.8740	-55.232054	0.000568	5.676883	1.923380	-0.000227
1329	1.3214e+02	-12.9157	-55.506579	0.000689	6.893358	2.335533	-0.000276
1330	1.3224e+02	-12.9510	-55.756882	0.000629	6.285121	2.129457	-0.000252
1331	1.3234e+02	-12.9943	-55.974887	0.000547	5.474137	1.854688	-0.000219
1332	1.3243e+02	-13.0312	-56.245375	0.000679	6.791985	2.301187	-0.000272
1333	1.3253e+02	-13.0745	-56.515863	0.000679	6.791985	2.301187	-0.000272
1334	1.3263e+02	-13.1098	-56.770203	0.000639	6.386494	2.163803	-0.000256
1335	1.3273e+02	-13.1483	-57.020505	0.000629	6.285121	2.129457	-0.000252
1336	1.3283e+02	-13.1884	-57.246585	0.000568	5.676883	1.923380	-0.000227
1337	1.3293e+02	-13.2285	-57.521110	0.000689	6.893358	2.335533	-0.000276
1338	1.3303e+02	-13.2750	-57.751227	0.000578	5.778256	1.957726	-0.000231
1339	1.3313e+02	-13.3135	-58.013641	0.000659	6.589239	2.232495	-0.000264
1340	1.3323e+02	-13.3472	-58.300277	0.000720	7.197477	2.438571	-0.000288
1341	1.3333e+02	-13.3889	-58.578840	0.000699	6.994731	2.369879	-0.000280
1342	1.3343e+02	-13.4290	-58.808956	0.000578	5.778256	1.957726	-0.000231
1343	1.3353e+02	-13.4756	-59.087519	0.000699	6.994731	2.369879	-0.000280
1344	1.3363e+02	-13.5125	-59.333784	0.000618	6.183748	2.095110	-0.000248
1345	1.3373e+02	-13.5494	-59.571975	0.000598	5.981002	2.026418	-0.000239
1346	1.3383e+02	-13.5911	-59.834389	0.000659	6.589239	2.232495	-0.000264
1347	1.3393e+02	-13.6312	-60.149285	0.000791	7.907087	2.678994	-0.000316
1348	1.3403e+02	-13.6697	-60.439959	0.000730	7.298850	2.472917	-0.000292
1349	1.3413e+02	-13.7082	-60.657964	0.000547	5.474137	1.854688	-0.000219
1350	1.3423e+02	-13.7483	-60.964787	0.000770	7.704342	2.610302	-0.000308
1351	1.3432e+02	-13.7932	-61.239312	0.000689	6.893358	2.335533	-0.000276
1352	1.3442e+02	-13.8253	-61.473466	0.000588	5.879629	1.992072	-0.000235
1353	1.3452e+02	-13.8670	-61.719731	0.000618	6.183748	2.095110	-0.000248
1354	1.3462e+02	-13.9103	-61.990219	0.000679	6.791985	2.301187	-0.000272
1355	1.3472e+02	-13.9536	-62.325302	0.000841	8.413952	2.850724	-0.000337
1356	1.3482e+02	-13.9937	-62.575604	0.000629	6.285121	2.129457	-0.000252
1357	1.3492e+02	-14.0338	-62.850129	0.000689	6.893358	2.335533	-0.000276
1358	1.3502e+02	-14.0627	-63.116580	0.000669	6.690612	2.266841	-0.000268
1359	1.3512e+02	-14.1108	-63.407254	0.000730	7.298850	2.472917	-0.000292
1360	1.3522e+02	-14.1477	-63.706002	0.000750	7.501596	2.541609	-0.000300
1361	1.3532e+02	-14.1926	-63.968416	0.000659	6.589239	2.232495	-0.000264
1362	1.3542e+02	-14.2231	-64.202570	0.000588	5.879629	1.992072	-0.000235
1363	1.3552e+02	-14.2664	-64.549763	0.000872	8.718071	2.953762	-0.000349
1364	1.3562e+02	-14.3065	-64.812177	0.000659	6.589239	2.232495	-0.000264
1365	1.3572e+02	-14.3531	-65.110925	0.000750	7.501596	2.541609	-0.000300
1366	1.3582e+02	-14.3803	-65.337005	0.000568	5.676883	1.923380	-0.000227
1367	1.3592e+02	-14.4365	-65.692273	0.000892	8.920816	3.022454	-0.000357
1368	1.3602e+02	-14.4654	-65.946612	0.000639	6.386494	2.163803	-0.000256
1369	1.3612e+02	-14.5071	-66.221138	0.000689	6.893358	2.335533	-0.000276
1370	1.3622e+02	-14.5472	-66.536034	0.000791	7.907087	2.678994	-0.000316
1371	1.3631e+02	-14.5841	-66.830745	0.000740	7.400223	2.507263	-0.000296
1372	1.3641e+02	-14.6242	-67.113345	0.000710	7.096104	2.404225	-0.000284
1373	1.3651e+02	-14.6595	-67.408055	0.000740	7.400223	2.507263	-0.000296
1374	1.3661e+02	-14.7060	-67.710841	0.000760	7.602969	2.575955	-0.000304
1375	1.3671e+02	-14.7445	-67.973254	0.000659	6.589239	2.232495	-0.000264
1376	1.3681e+02	-14.7846	-68.332560	0.000902	9.022189	3.056801	-0.000361
1377	1.3691e+02	-14.8231	-68.562676	0.000578	5.778256	1.957726	-0.000231
1378	1.3701e+02	-14.8664	-68.861424	0.000750	7.501596	2.541609	-0.000300
1379	1.3711e+02	-14.9081	-69.164209	0.000760	7.602969	2.575955	-0.000304
1380	1.3721e+02	-14.9322	-69.462958	0.000750	7.501596	2.541609	-0.000300
1381	1.3731e+02	-14.9787	-69.777854	0.000791	7.907087	2.678994	-0.000316
1382	1.3741e+02	-15.0333	-70.064491	0.000720	7.197477	2.438571	-0.000288
1383	1.3751e+02	-15.0686	-70.367276	0.000760	7.602969	2.575955	-0.000304
1384	1.3761e+02	-15.1071	-70.738692	0.000933	9.326308	3.159839	-0.000373
1385	1.3771e+02	-15.1440	-71.029366	0.000730	7.298850	2.472917	-0.000292
1386	1.3781e+02	-15.1905	-71.332151	0.000760	7.602969	2.575955	-0.000304
1387	1.3791e+02	-15.2210	-71.651085	0.000801	8.008460	2.713340	-0.000321
1388	1.3801e+02	-15.2579	-71.909462	0.000649	6.487867	2.198149	-0.000260
1389	1.3811e+02	-15.3092	-72.252618	0.000862	8.616698	2.919416	-0.000345
1390	1.3821e+02	-15.3461	-72.615961	0.000912	9.123562	3.091147	-0.000365
1391	1.3831e+02	-15.3926	-72.886449	0.000679	6.791985	2.301187	-0.000272
1392	1.3840e+02	-15.4279	-73.160974	0.000689	6.893358	2.335533	-0.000276
1393	1.3850e+02	-15.4632	-73.512205	0.000882	8.819444	2.988108	-0.000353
1394	1.3860e+02	-15.4969	-73.790767	0.000699	6.994731	2.369879	-0.000280
1395	1.3870e+02	-15.5450	-74.105664	0.000791	7.907087	2.678994	-0.000316
1396	1.3880e+02	-15.5851	-74.428634	0.000811	8.109833	2.747686	-0.000325
1397	1.3890e+02	-15.6188	-74.771791	0.000862	8.616698	2.919416	-0.000345
1398	1.3900e+02	-15.6541	-75.114948	0.000862	8.616698	2.919416	-0.000345
1399	1.3910e+02	-15.6990	-75.405621	0.000730	7.298850	2.472917	-0.000292
1400	1.3920e+02	-15.7455	-75.740704	0.000841	8.413952	2.850724	-0.000337
1401	1.3930e+02	-15.7873	-76.043489	0.000760	7.602969	2.575955	-0.000304
1402	1.3940e+02	-15.8225	-76.374534	0.000831	8.312579	2.816378	-0.000333
1403	1.3950e+02	-15.8610	-76.762099	0.000973	9.731800	3.297223	-0.000390
1404	1.3960e+02	-15.9044	-77.040661	0.000699	6.994731	2.369879	-0.000280
1405	1.3970e+02	-15.9397	-77.359595	0.000801	8.008460	2.713340	-0.000321
1406	1.3980e+02	-15.9750	-77.690640	0.000831	8.312579	2.816378	-0.000333
1407	1.3990e+02	-16.0263	-78.062057	0.000933	9.326308	3.159839	-0.000373
1408	1.4000e+02	-16.0616	-78.429436	0.000922	9.224935	3.125493	-0.000369
1409	1.4010e+02	-16.0985	-78.744333	0.000791	7.907087	2.678994	-0.000316
1410	1.4020e+02	-16.1338	-79.079415	0.000841	8.413952	2.850724	-0.000337
1411	1.4029e+02	-16.1787	-79.402386	0.000811	8.109833	2.747686	-0.000325
1412	1.4039e+02	-16.2268	-79.793988	0.000983	9.833173	3.331569	-0.000394
1413	1.4049e+02	-16.2621	-80.104847	0.000781	7.805714	2.644648	-0.000312
1414	1.4059e+02	-16.2990	-80.448004	0.000862	8.616698	2.919416	-0.000345
1415	1.4069e+02	-16.3391	-80.851717	0.001014	10.137291	3.434607	-0.000406
1416	1.4079e+02	-16.3840	-81.194874	0.000862	8.616698	2.919416	-0.000345
1417	1.4089e+02	-16.4161	-81.529956	0.000841	8.413952	2.850724	-0.000337
1418	1.4099e+02	-16.4530	-81.885224	0.000892	8.920816	3.022454	-0.000357
1419	1.4109e+02	-16.5011	-82.232418	0.000872	8.718071	2.953762	-0.000349
1420	1.4119e+02	-16.5396	-82.591723	0.000902	9.022189	3.056801	-0.000361
1421	1.4129e+02	-16.5717	-82.918731	0.000821	8.211206	2.782032	-0.000329
1422	1.4139e+02	-16.6247	-83.326482	0.001024	10.238664	3.468953	-0.000410
1423	1.4149e+02	-16.6584	-83.677712	0.000882	8.819444	2.988108	-0.000353
1424	1.4159e+02	-16.6969	-84.037018	0.000902	9.022189	3.056801	-0.000361
1425	1.4169e+02	-16.7354	-84.412471	0.000943	9.427681	3.194185	-0.000377
1426	1.4179e+02	-16.7787	-84.804073	0.000983	9.833173	3.331569	-0.000394
1427	1.4189e+02	-16.8188	-85.223935	0.001054	10.542783	3.571992	-0.000422
1428	1.4199e+02	-16.8396	-85.559018	0.000841	8.413952	2.850724	-0.000337
1429	1.4209e+02	-16.8846	-85.954657	0.000993	9.934546	3.365915	-0.000398
1430	1.4219e+02	-16.9311	-86.273591	0.000801	8.008460	2.713340	-0.000321
1431	1.4228e+02	-16.9760	-86.697490	0.001064	10.644156	3.606338	-0.000426
1432	1.4238e+02	-17.0177	-87.097166	0.001004	10.035919	3.400261	-0.000402
1433	1.4248e+02	-17.0450	-87.468583	0.000933	9.326308	3.159839	-0.000373
1434	1.4258e+02	-17.0963	-87.888445	0.001054	10.542783	3.571992	-0.000422
1435	1.4268e+02	-17.1396	-88.227564	0.000852	8.515325	2.885070	-0.000341
1436	1.4278e+02	-17.1749	-88.659538	0.001085	10.846902	3.675030	-0.000434
1437	1.4288e+02	-17.2134	-89.043066	0.000963	9.630427	3.262877	-0.000385
1438	1.4298e+02	-17.2728	-89.479076	0.001095	10.948275	3.709376	-0.000438
1439	1.4308e+02	-17.2952	-89.902976	0.001064	10.644156	3.606338	-0.000426
1440	1.4318e+02	-17.3402	-90.294578	0.000983	9.833173	3.331569	-0.000394
1441	1.4328e+02	-17.3674	-90.722514	0.001075	10.745529	3.640684	-0.000430
1442	1.4338e+02	-17.4188	-91.106042	0.000963	9.630427	3.262877	-0.000385
1443	1.4348e+02	-17.4508	-91.538016	0.001085	10.846902	3.675030	-0.000434
1444	1.4358e+02	-17.4974	-91.953841	0.001044	10.441410	3.537646	-0.000418
1445	1.4368e+02	-17.5359	-92.373703	0.001054	10.542783	3.571992	-0.000422
1446	1.4378e+02	-17.5808	-92.797602	0.001064	10.644156	3.606338	-0.000426
1447	1.4388e+02	-17.6097	-93.253798	0.001146	11.455139	3.881106	-0.000458
1448	1.4398e+02	-17.6530	-93.641363	0.000973	9.731800	3.297223	-0.000390
1449	1.4408e+02	-17.6899	-94.089486	0.001125	11.252394	3.812414	-0.000450
1450	1.4418e+02	-17.7412	-94.541645	0.001135	11.353766	3.846760	-0.000454
1451	1.4428e+02	-17.7701	-94.985730	0.001115	11.151021	3.778068	-0.000446
1452	1.4437e+02	-17.8182	-95.417703	0.001085	10.846902	3.675030	-0.000434
1453	1.4447e+02	-17.8567	-95.902159	0.001216	12.164750	4.121529	-0.000487
1454	1.4457e+02	-17.8936	-96.338170	0.001095	10.948275	3.709376	-0.000438
1455	1.4467e+02	-17.9369	-96.814552	0.001196	11.962004	4.052837	-0.000479
1456	1.4477e+02	-17.9802	-97.250563	0.001095	10.948275	3.709376	-0.000438
1457	1.4487e+02	-18.0123	-97.714833	0.001166	11.657885	3.949798	-0.000467
1458	1.4497e+02	-18.0508	-98.195253	0.001206	12.063377	4.087183	-0.000483
1459	1.4507e+02	-18.0941	-98.627226	0.001085	10.846902	3.675030	-0.000434
1460	1.4517e+02	-18.1294	-99.099571	0.001186	11.860631	4.018491	-0.000475
1461	1.4527e+02	-18.1776	-99.588064	0.001227	12.266123	4.155875	-0.000491
1462	1.4537e+02	-18.2177	-100.100781	0.001287	12.874360	4.361951	-0.000515
1463	1.4547e+02	-18.2514	-100.569088	0.001176	11.759258	3.984144	-0.000471
1464	1.4557e+02	-18.2931	-101.101990	0.001338	13.381225	4.533682	-0.000536
1465	1.4567e+02	-18.3348	-101.566261	0.001166	11.657885	3.949798	-0.000467
1466	1.4577e+02	-18.3637	-102.046680	0.001206	12.063377	4.087183	-0.000483
1467	1.4587e+02	-18.4102	-102.579582	0.001338	13.381225	4.533682	-0.000536
1468	1.4597e+02	-18.4455	-103.100372	0.001308	13.077106	4.430643	-0.000523
1469	1.4607e+02	-18.4904	-103.621163	0.001308	13.077106	4.430643	-0.000523
1470	1.4617e+02	-18.5401	-104.117731	0.001247	12.468869	4.224567	-0.000499
1471	1.4626e+02	-18.5786	-104.658707	0.001358	13.583971	4.602374	-0.000544
1472	1.4636e+02	-18.6075	-105.183535	0.001318	13.178479	4.464990	-0.000527
1473	1.4646e+02	-18.6524	-105.760845	0.001450	14.496327	4.911488	-0.000580
1474	1.4656e+02	-18.6941	-106.237227	0.001196	11.962004	4.052837	-0.000479
1475	1.4666e+02	-18.7326	-106.794352	0.001399	13.989462	4.739758	-0.000560
1476	1.4676e+02	-18.7711	-107.319179	0.001318	13.178479	4.464990	-0.000527
1477	1.4686e+02	-18.8160	-107.912638	0.001490	14.901818	5.048873	-0.000596
1478	1.4696e+02	-18.8513	-108.514172	0.001510	15.104564	5.117565	-0.000605
1479	1.4706e+02	-18.8995	-109.063222	0.001379	13.786716	4.671066	-0.000552
1480	1.4716e+02	-18.9299	-109.616310	0.001389	13.888089	4.705412	-0.000556
1481	1.4726e+02	-18.9668	-110.185546	0.001429	14.293581	4.842796	-0.000572
1482	1.4736e+02	-19.0214	-110.799190	0.001541	15.408683	5.220603	-0.000617
1483	1.4746e+02	-19.0487	-111.368426	0.001429	14.293581	4.842796	-0.000572
1484	1.4756e+02	-19.0807	-111.965923	0.001500	15.003191	5.083219	-0.000600
1485	1.4766e+02	-19.1305	-112.587641	0.001561	15.611429	5.289295	-0.000625
1486	1.4776e+02	-19.1674	-113.181100	0.001490	14.901818	5.048873	-0.000596
1487	1.4786e+02	-19.2043	-113.774559	0.001490	14.901818	5.048873	-0.000596
1488	1.4796e+02	-19.2444	-114.408390	0.001592	15.915548	5.392334	-0.000637
1489	1.4806e+02	-19.2957	-114.993774	0.001470	14.699073	4.980181	-0.000588
1490	1.4816e+02	-19.3294	-115.651827	0.001652	16.523785	5.598410	-0.000661
1491	1.4825e+02	-19.3647	-116.261435	0.001531	15.307310	5.186257	-0.000613
1492	1.4835e+02	-19.4128	-116.911414	0.001632	16.321039	5.529718	-0.000653
1493	1.4845e+02	-19.4449	-117.617913	0.001774	17.740260	6.010563	-0.000710
1494	1.4855e+02	-19.4786	-118.215409	0.001500	15.003191	5.083219	-0.000600
1495	1.4865e+02	-19.5219	-118.905759	0.001733	17.334768	5.873179	-0.000694
1496	1.4875e+02	-19.5700	-119.539589	0.001592	15.915548	5.392334	-0.000637
1497	1.4885e+02	-19.6037	-120.242051	0.001764	17.638887	5.976217	-0.000706
1498	1.4895e+02	-19.6422	-120.912215	0.001683	16.827904	5.701448	-0.000674
1499	1.4905e+02	-19.6711	-121.570268	0.001652	16.523785	5.598410	-0.000661
1500	1.4915e+02	-19.7273	-122.309064	0.001855	18.551243	6.285331	-0.000743
1501	1.4925e+02	-19.7593	-122.991340	0.001713	17.132023	5.804486	-0.000686
1502	1.4935e+02	-19.8026	-123.734173	0.001865	18.652616	6.319677	-0.000747
1503	1.4945e+02	-19.8460	-124.436635	0.001764	17.638887	5.976217	-0.000706
1504	1.4955e+02	-19.8845	-125.187542	0.001886	18.855362	6.388370	-0.000755
1505	1.4965e+02	-19.9294	-125.873855	0.001723	17.233395	5.838832	-0.000690
1506	1.4975e+02	-19.9647	-126.628800	0.001896	18.956735	6.422716	-0.000759
1507	1.4985e+02	-20.0048	-127.375670	0.001875	18.753989	6.354024	-0.000751
1508	1.4995e+02	-19.9647	-127.831866	-0.001146	-11.455139	-3.881106	-0.000458
1509	1.5005e+02	-19.9214	-128.195208	-0.000912	-9.123562	-3.091147	-0.000365
1510	1.5015e+02	-19.8813	-128.550476	-0.000892	-8.920816	-3.022454	-0.000357
1511	1.5025e+02	-19.8444	-128.929967	-0.000953	-9.529054	-3.228531	-0.000381
1512	1.5034e+02	-19.8075	-129.160084	-0.000578	-5.778256	-1.957726	-0.000231
1513	1.5044e+02	-19.7625	-129.426535	-0.000669	-6.690612	-2.266841	-0.000268
1514	1.5054e+02	-19.7273	-129.741431	-0.000791	-7.907087	-2.678994	-0.000316
1515	1.5064e+02	-19.6807	-129.995771	-0.000639	-6.386494	-2.163803	-0.000256
1516	1.5074e+02	-19.6294	-130.197628	-0.000507	-5.068646	-1.717304	-0.000203
1517	1.5084e+02	-19.6134	-130.415633	-0.000547	-5.474137	-1.854688	-0.000219
1518	1.5094e+02	-19.5636	-130.585193	-0.000426	-4.257662	-1.442535	-0.000170
1519	1.5104e+02	-19.5299	-130.762827	-0.000446	-4.460408	-1.511227	-0.000179
1520	1.5114e+02	-19.4882	-130.980832	-0.000547	-5.474137	-1.854688	-0.000219
1521	1.5124e+02	-19.4545	-131.114057	-0.000335	-3.345306	-1.133420	-0.000134
1522	1.5134e+02	-19.4096	-131.247283	-0.000335	-3.345306	-1.133420	-0.000134
1523	1.5144e+02	-19.3647	-131.392620	-0.000365	-3.649425	-1.236459	-0.000146
1524	1.5154e+02	-19.3294	-131.554105	-0.000405	-4.054917	-1.373843	-0.000162
1525	1.5164e+02	-19.2829	-131.638885	-0.000213	-2.128831	-0.721268	-0.000085
1526	1.5174e+02	-19.2492	-131.723665	-0.000213	-2.128831	-0.721268	-0.000085
1527	1.5184e+02	-19.2171	-131.869002	-0.000365	-3.649425	-1.236459	-0.000146
1528	1.5194e+02	-19.1690	-131.873039	-0.000010	-0.101373	-0.034346	-0.000004
1529	1.5204e+02	-19.1305	-131.978004	-0.000264	-2.635696	-0.892998	-0.000105
1530	1.5214e+02	-19.0952	-132.078933	-0.000253	-2.534323	-0.858652	-0.000101
1531	1.5224e+02	-19.0535	-132.155638	-0.000193	-1.926085	-0.652575	-0.000077
1532	1.5233e+02	-19.0070	-132.232344	-0.000193	-1.926085	-0.652575	-0.000077
1533	1.5243e+02	-18.9733	-132.224270	0.000020	0.202746	0.068692	0.000008
1534	1.5253e+02	-18.9299	-132.296938	-0.000182	-1.824712	-0.618229	-0.000073
1535	1.5263e+02	-18.8882	-132.345384	-0.000122	-1.216475	-0.412153	-0.000049
1536	1.5273e+02	-18.8610	-132.373644	-0.000071	-0.709610	-0.240423	-0.000028
1537	1.5283e+02	-18.8128	-132.389792	-0.000041	-0.405492	-0.137384	-0.000016
1538	1.5293e+02	-18.7679	-132.397867	-0.000020	-0.202746	-0.068692	-0.000008
1539	1.5303e+02	-18.7326	-132.409978	-0.000030	-0.304119	-0.103038	-0.000012
1540	1.5313e+02	-18.6957	-132.430164	-0.000051	-0.506865	-0.171730	-0.000020
1541	1.5323e+02	-18.6588	-132.426126	0.000010	0.101373	0.034346	0.000004
1542	1.5333e+02	-18.6123	-132.414015	0.000030	0.304119	0.103038	0.000012
1543	1.5343e+02	-18.5850	-132.418052	-0.000010	-0.101373	-0.034346	-0.000004
1544	1.5353e+02	-18.5289	-132.393829	0.000061	0.608237	0.206076	0.000024
1545	1.5363e+02	-18.4968	-132.385755	0.000020	0.202746	0.068692	0.000008
1546	1.5373e+02	-18.4487	-132.325198	0.000152	1.520594	0.515191	0.000061
1547	1.5383e+02	-18.4038	-132.369607	-0.000112	-1.115102	-0.377807	-0.000045
1548	1.5393e+02	-18.3701	-132.321161	0.000122	1.216475	0.412153	0.000049
1549	1.5403e+02	-18.3364	-132.240418	0.000203	2.027458	0.686921	0.000081
1550	1.5413e+02	-18.2947	-132.260604	-0.000051	-0.506865	-0.171730	-0.000020
1551	1.5422e+02	-18.2610	-132.159676	0.000253	2.534323	0.858652	0.000101
1552	1.5432e+02	-18.2113	-132.171787	-0.000030	-0.304119	-0.103038	-0.000012
1553	1.5442e+02	-18.1679	-132.070859	0.000253	2.534323	0.858652	0.000101
1554	1.5452e+02	-18.1310	-132.034524	0.000091	0.912356	0.309115	0.000037
1555	1.5462e+02	-18.0909	-131.949744	0.000213	2.128831	0.721268	0.000085
1556	1.5472e+02	-18.0460	-131.917447	0.000081	0.810983	0.274769	0.000032
1557	1.5482e+02	-18.0123	-131.844779	0.000182	1.824712	0.618229	0.000073
1558	1.5492e+02	-17.9818	-131.804408	0.000101	1.013729	0.343461	0.000041
1559	1.5502e+02	-17.9337	-131.731739	0.000182	1.824712	0.618229	0.000073
1560	1.5512e+02	-17.8968	-131.679256	0.000132	1.317848	0.446499	0.000053
1561	1.5522e+02	-17.8519	-131.598514	0.000203	2.027458	0.686921	0.000081
1562	1.5532e+02	-17.8134	-131.513734	0.000213	2.128831	0.721268	0.000085
1563	1.5542e+02	-17.7733	-131.449140	0.000162	1.621967	0.549537	0.000065
1564	1.5552e+02	-17.7396	-131.392620	0.000142	1.419221	0.480845	0.000057
1565	1.5562e+02	-17.6947	-131.291691	0.000253	2.534323	0.858652	0.000101
1566	1.5572e+02	-17.6482	-131.142317	0.000375	3.750798	1.270805	0.000150
1567	1.5582e+02	-17.6113	-131.085797	0.000142	1.419221	0.480845	0.000057
1568	1.5592e+02	-17.5712	-131.005055	0.000203	2.027458	0.686921	0.000081
1569	1.5602e+02	-17.5375	-130.859718	0.000365	3.649425	1.236459	0.000146
1570	1.5612e+02	-17.4877	-130.815309	0.000112	1.115102	0.377807	0.000045
1571	1.5622e+02	-17.4524	-130.710344	0.000264	2.635696	0.892998	0.000105
1572	1.5631e+02	-17.4172	-130.661898	0.000122	1.216475	0.412153	0.000049
1573	1.5641e+02	-17.3674	-130.540784	0.000304	3.041187	1.030382	0.000122
1574	1.5651e+02	-17.3450	-130.419670	0.000304	3.041187	1.030382	0.000122
1575	1.5661e+02	-17.2920	-130.326816	0.000233	2.331577	0.789960	0.000093
1576	1.5671e+02	-17.2615	-130.217813	0.000274	2.737069	0.927344	0.000110
1577	1.5681e+02	-17.2134	-130.068439	0.000375	3.750798	1.270805	0.000150
1578	1.5691e+02	-17.1829	-130.024031	0.000112	1.115102	0.377807	0.000045
1579	1.5701e+02	-17.1428	-129.874657	0.000375	3.750798	1.270805	0.000150
1580	1.5711e+02	-17.0931	-129.785840	0.000223	2.230204	0.755614	0.000089
1581	1.5721e+02	-17.0610	-129.660688	0.000314	3.142560	1.064728	0.000126
1582	1.5731e+02	-17.0161	-129.551686	0.000274	2.737069	0.927344	0.000110
1583	1.5741e+02	-16.9776	-129.458832	0.000233	2.331577	0.789960	0.000093
1584	1.5751e+02	-16.9343	-129.309458	0.000375	3.750798	1.270805	0.000150
1585	1.5761e+02	-16.8974	-129.200455	0.000274	2.737069	0.927344	0.000110
1586	1.5771e+02	-16.8493	-129.103564	0.000243	2.432950	0.824306	0.000097
1587	1.5781e+02	-16.8124	-128.990524	0.000284	2.838442	0.961690	0.000114
1588	1.5791e+02	-16.7787	-128.869410	0.000304	3.041187	1.030382	0.000122
1589	1.5801e+02	-16.7289	-128.752333	0.000294	2.939815	0.996036	0.000118
1590	1.5811e+02	-16.7017	-128.635256	0.000294	2.939815	0.996036	0.000118
1591	1.5821e+02	-16.6551	-128.510105	0.000314	3.142560	1.064728	0.000126
1592	1.5830e+02	-16.6311	-128.409176	0.000253	2.534323	0.858652	0.000101
1593	1.5840e+02	-16.5846	-128.271914	0.000345	3.446679	1.167766	0.000138
1594	1.5850e+02	-16.5412	-128.134651	0.000345	3.446679	1.167766	0.000138
1595	1.5860e+02	-16.5027	-127.993351	0.000355	3.548052	1.202113	0.000142
1596	1.5870e+02	-16.4562	-127.900497	0.000233	2.331577	0.789960	0.000093
1597	1.5880e+02	-16.4097	-127.726900	0.000436	4.359035	1.476881	0.000174
1598	1.5890e+02	-16.3712	-127.557341	0.000426	4.257662	1.442535	0.000170
1599	1.5900e+02	-16.3423	-127.488709	0.000172	1.723340	0.583883	0.000069
1600	1.5910e+02	-16.2990	-127.351447	0.000345	3.446679	1.167766	0.000138
1601	1.5920e+02	-16.2621	-127.226296	0.000314	3.142560	1.064728	0.000126
1602	1.5930e+02	-16.2188	-127.097107	0.000324	3.243933	1.099074	0.000130
1603	1.5940e+02	-16.1819	-126.923510	0.000436	4.359035	1.476881	0.000174
1604	1.5950e+02	-16.1402	-126.814508	0.000274	2.737069	0.927344	0.000110
1605	1.5960e+02	-16.1081	-126.669171	0.000365	3.649425	1.236459	0.000146
1606	1.5970e+02	-16.0600	-126.515760	0.000385	3.852171	1.305151	0.000154
1607	1.5980e+02	-16.0151	-126.390609	0.000314	3.142560	1.064728	0.000126
1608	1.5990e+02	-15.9766	-126.269494	0.000304	3.041187	1.030382	0.000122
1609	1.6000e+02	-15.9509	-126.156455	0.000284	2.838442	0.961690	0.000114
1610	1.6010e+02	-15.8963	-125.978821	0.000446	4.460408	1.511227	0.000179
1611	1.6019e+02	-15.8659	-125.853669	0.000314	3.142560	1.064728	0.000126
1612	1.6029e+02	-15.8258	-125.696221	0.000395	3.953544	1.339497	0.000158
1613	1.6039e+02	-15.7824	-125.542810	0.000385	3.852171	1.305151	0.000154
1614	1.6049e+02	-15.7423	-125.433807	0.000274	2.737069	0.927344	0.000110
1615	1.6059e+02	-15.7006	-125.304619	0.000324	3.243933	1.099074	0.000130
1616	1.6069e+02	-15.6734	-125.159282	0.000365	3.649425	1.236459	0.000146
1617	1.6079e+02	-15.6220	-125.022020	0.000345	3.446679	1.167766	0.000138
1618	1.6089e+02	-15.5883	-124.844386	0.000446	4.460408	1.511227	0.000179
1619	1.6099e+02	-15.5434	-124.743457	0.000253	2.534323	0.858652	0.000101
1620	1.6109e+02	-15.4985	-124.553712	0.000476	4.764527	1.614265	0.000191
1621	1.6119e+02	-15.4616	-124.440672	0.000284	2.838442	0.961690	0.000114
1622	1.6129e+02	-15.4199	-124.299372	0.000355	3.548052	1.202113	0.000142
1623	1.6139e+02	-15.3894	-124.065218	0.000588	5.879629	1.992072	0.000235
1624	1.6149e+02	-15.3349	-123.960253	0.000264	2.635696	0.892998	0.000105
1625	1.6159e+02	-15.3092	-123.839139	0.000304	3.041187	1.030382	0.000122
1626	1.6169e+02	-15.2579	-123.641319	0.000497	4.967273	1.682958	0.000199
1627	1.6179e+02	-15.2194	-123.556539	0.000213	2.128831	0.721268	0.000085
1628	1.6189e+02	-15.1825	-123.370831	0.000466	4.663154	1.579919	0.000187
1629	1.6199e+02	-15.1456	-123.205308	0.000416	4.156290	1.408189	0.000166
1630	1.6209e+02	-15.1022	-123.059972	0.000365	3.649425	1.236459	0.000146
1631	1.6219e+02	-15.0621	-122.922709	0.000345	3.446679	1.167766	0.000138
1632	1.6228e+02	-15.0236	-122.777372	0.000365	3.649425	1.236459	0.000146
1633	1.6238e+02	-14.9851	-122.619924	0.000395	3.953544	1.339497	0.000158
1634	1.6248e+02	-14.9402	-122.462475	0.000395	3.953544	1.339497	0.000158
1635	1.6258e+02	-14.8953	-122.333287	0.000324	3.243933	1.099074	0.000130
1636	1.6268e+02	-14.8584	-122.204099	0.000324	3.243933	1.099074	0.000130
1637	1.6278e+02	-14.8247	-121.969945	0.000588	5.879629	1.992072	0.000235
1638	1.6288e+02	-14.7814	-121.824608	0.000365	3.649425	1.236459	0.000146
1639	1.6298e+02	-14.7509	-121.683308	0.000355	3.548052	1.202113	0.000142
1640	1.6308e+02	-14.7044	-121.521823	0.000405	4.054917	1.373843	0.000162
1641	1.6318e+02	-14.6643	-121.396672	0.000314	3.142560	1.064728	0.000126
1642	1.6328e+02	-14.6274	-121.243260	0.000385	3.852171	1.305151	0.000154
1643	1.6338e+02	-14.5889	-121.045441	0.000497	4.967273	1.682958	0.000199
1644	1.6348e+02	-14.5472	-120.944512	0.000253	2.534323	0.858652	0.000101
1645	1.6358e+02	-14.5103	-120.750730	0.000487	4.865900	1.648612	0.000195
1646	1.6368e+02	-14.4686	-120.581170	0.000426	4.257662	1.442535	0.000170
1647	1.6378e+02	-14.4156	-120.451982	0.000324	3.243933	1.099074	0.000130
1648	1.6388e+02	-14.3836	-120.290496	0.000405	4.054917	1.373843	0.000162
1649	1.6398e+02	-14.3418	-120.145160	0.000365	3.649425	1.236459	0.000146
1650	1.6408e+02	-14.3082	-119.951377	0.000487	4.865900	1.648612	0.000195
1651	1.6418e+02	-14.2713	-119.866597	0.000213	2.128831	0.721268	0.000085
1652	1.6427e+02	-14.2279	-119.672815	0.000487	4.865900	1.648612	0.000195
1653	1.6437e+02	-14.1798	-119.523441	0.000375	3.750798	1.270805	0.000150
1654	1.6447e+02	-14.1477	-119.357918	0.000416	4.156290	1.408189	0.000166
1655	1.6457e+02	-14.1124	-119.220655	0.000345	3.446679	1.167766	0.000138
1656	1.6467e+02	-14.0611	-119.063207	0.000395	3.953544	1.339497	0.000158
1657	1.6477e+02	-14.0290	-118.897685	0.000416	4.156290	1.408189	0.000166
1658	1.6487e+02	-13.9905	-118.740236	0.000395	3.953544	1.339497	0.000158
1659	1.6497e+02	-13.9488	-118.594899	0.000365	3.649425	1.236459	0.000146
1660	1.6507e+02	-13.9023	-118.437451	0.000395	3.953544	1.339497	0.000158
1661	1.6517e+02	-13.8750	-118.239631	0.000497	4.967273	1.682958	0.000199
1662	1.6527e+02	-13.8253	-118.098332	0.000355	3.548052	1.202113	0.000142
1663	1.6537e+02	-13.7788	-117.932809	0.000416	4.156290	1.408189	0.000166
1664	1.6547e+02	-13.7499	-117.791509	0.000355	3.548052	1.202113	0.000142
1665	1.6557e+02	-13.7146	-117.621950	0.000426	4.257662	1.442535	0.000170
1666	1.6567e+02	-13.6649	-117.452390	0.000426	4.257662	1.442535	0.000170
1667	1.6577e+02	-13.6360	-117.286867	0.000416	4.156290	1.408189	0.000166
1668	1.6587e+02	-13.5862	-117.133456	0.000385	3.852171	1.305151	0.000154
1669	1.6597e+02	-13.5542	-116.927562	0.000517	5.170019	1.751650	0.000207
1670	1.6607e+02	-13.5108	-116.818560	0.000274	2.737069	0.927344	0.000110
1671	1.6616e+02	-13.4756	-116.677260	0.000355	3.548052	1.202113	0.000142
1672	1.6626e+02	-13.4290	-116.483477	0.000487	4.865900	1.648612	0.000195
1673	1.6636e+02	-13.3953	-116.313918	0.000426	4.257662	1.442535	0.000170
1674	1.6646e+02	-13.3584	-116.160507	0.000385	3.852171	1.305151	0.000154
1675	1.6656e+02	-13.3135	-116.039393	0.000304	3.041187	1.030382	0.000122
1676	1.6666e+02	-13.2654	-115.849647	0.000476	4.764527	1.614265	0.000191
1677	1.6676e+02	-13.2397	-115.663939	0.000466	4.663154	1.579919	0.000187
1678	1.6686e+02	-13.1948	-115.542825	0.000304	3.041187	1.030382	0.000122
1679	1.6696e+02	-13.1499	-115.336931	0.000517	5.170019	1.751650	0.000207
1680	1.6706e+02	-13.1162	-115.175445	0.000405	4.054917	1.373843	0.000162
1681	1.6716e+02	-13.0665	-115.042220	0.000335	3.345306	1.133420	0.000134
1682	1.6726e+02	-13.0232	-114.832289	0.000527	5.271392	1.785996	0.000211
1683	1.6736e+02	-12.9847	-114.674841	0.000395	3.953544	1.339497	0.000158
1684	1.6746e+02	-12.9542	-114.505281	0.000426	4.257662	1.442535	0.000170
1685	1.6756e+02	-12.9173	-114.359944	0.000365	3.649425	1.236459	0.000146
1686	1.6766e+02	-12.8772	-114.174236	0.000466	4.663154	1.579919	0.000187
1687	1.6776e+02	-12.8371	-114.032936	0.000355	3.548052	1.202113	0.000142
1688	1.6786e+02	-12.7970	-113.831079	0.000507	5.068646	1.717304	0.000203
1689	1.6796e+02	-12.7569	-113.673631	0.000395	3.953544	1.339497	0.000158
1690	1.6806e+02	-12.7135	-113.516183	0.000395	3.953544	1.339497	0.000158
1691	1.6816e+02	-12.6783	-113.354697	0.000405	4.054917	1.373843	0.000162
1692	1.6825e+02	-12.6349	-113.168989	0.000466	4.663154	1.579919	0.000187
1693	1.6835e+02	-12.5980	-113.011541	0.000395	3.953544	1.339497	0.000158
1694	1.6845e+02	-12.5595	-112.821795	0.000476	4.764527	1.614265	0.000191
1695	1.6855e+02	-12.5130	-112.684533	0.000345	3.446679	1.167766	0.000138
1696	1.6865e+02	-12.4697	-112.462490	0.000558	5.575510	1.889034	0.000223
1697	1.6875e+02	-12.4424	-112.317153	0.000365	3.649425	1.236459	0.000146
1698	1.6885e+02	-12.3911	-112.224299	0.000233	2.331577	0.789960	0.000093
1699	1.6895e+02	-12.3574	-111.961885	0.000659	6.589239	2.232495	0.000264
1700	1.6905e+02	-12.3077	-111.820586	0.000355	3.548052	1.202113	0.000142
1701	1.6915e+02	-12.2772	-111.707546	0.000284	2.838442	0.961690	0.000114
1702	1.6925e+02	-12.2339	-111.501652	0.000517	5.170019	1.751650	0.000207
1703	1.6935e+02	-12.1906	-111.332092	0.000426	4.257662	1.442535	0.000170
1704	1.6945e+02	-12.1617	-111.146384	0.000466	4.663154	1.579919	0.000187
1705	1.6955e+02	-12.1264	-110.984899	0.000405	4.054917	1.373843	0.000162
1706	1.6965e+02	-12.0783	-110.807265	0.000446	4.460408	1.511227	0.000179
1707	1.6975e+02	-12.0398	-110.625593	0.000456	4.561781	1.545573	0.000183
1708	1.6985e+02	-11.9900	-110.460071	0.000416	4.156290	1.408189	0.000166
1709	1.6995e+02	-11.9547	-110.290511	0.000426	4.257662	1.442535	0.000170
1710	1.7005e+02	-11.9018	-110.108840	0.000456	4.561781	1.545573	0.000183
1711	1.7015e+02	-11.8777	-109.971578	0.000345	3.446679	1.167766	0.000138
1712	1.7024e+02	-11.8408	-109.781832	0.000476	4.764527	1.614265	0.000191
1713	1.7034e+02	-11.7943	-109.579975	0.000507	5.068646	1.717304	0.000203
1714	1.7044e+02	-11.7542	-109.442713	0.000345	3.446679	1.167766	0.000138
1715	1.7054e+02	-11.7237	-109.232782	0.000527	5.271392	1.785996	0.000211
1716	1.7064e+02	-11.6724	-109.067259	0.000416	4.156290	1.408189	0.000166
1717	1.7074e+02	-11.6275	-108.909811	0.000395	3.953544	1.339497	0.000158
1718	1.7084e+02	-11.5922	-108.716028	0.000487	4.865900	1.648612	0.000195
1719	1.7094e+02	-11.5585	-108.526283	0.000476	4.764527	1.614265	0.000191
1720	1.7104e+02	-11.5184	-108.360760	0.000416	4.156290	1.408189	0.000166
1721	1.7114e+02	-11.4815	-108.138718	0.000558	5.575510	1.889034	0.000223
1722	1.7124e+02	-11.4430	-108.029715	0.000274	2.737069	0.927344	0.000110
1723	1.7134e+02	-11.4029	-107.839970	0.000476	4.764527	1.614265	0.000191
1724	1.7144e+02	-11.3532	-107.626002	0.000537	5.372764	1.820342	0.000215
1725	1.7154e+02	-11.3163	-107.472590	0.000385	3.852171	1.305151	0.000154
1726	1.7164e+02	-11.2778	-107.270734	0.000507	5.068646	1.717304	0.000203
1727	1.7174e+02	-11.2393	-107.117323	0.000385	3.852171	1.305151	0.000154
1728	1.7184e+02	-11.2024	-106.911429	0.000517	5.170019	1.751650	0.000207
1729	1.7194e+02	-11.1623	-106.745906	0.000416	4.156290	1.408189	0.000166
1730	1.7204e+02	-11.1221	-106.576346	0.000426	4.257662	1.442535	0.000170
1731	1.7213e+02	-11.0836	-106.362378	0.000537	5.372764	1.820342	0.000215
1732	1.7223e+02	-11.0371	-106.184744	0.000446	4.460408	1.511227	0.000179
1733	1.7233e+02	-11.0050	-106.015184	0.000426	4.257662	1.442535	0.000170
1734	1.7243e+02	-10.9489	-105.813328	0.000507	5.068646	1.717304	0.000203
1735	1.7253e+02	-10.9264	-105.643768	0.000426	4.257662	1.442535	0.000170
1736	1.7263e+02	-10.8751	-105.401540	0.000608	6.082375	2.060764	0.000243
1737	1.7273e+02	-10.8398	-105.272352	0.000324	3.243933	1.099074	0.000130
1738	1.7283e+02	-10.8013	-105.114903	0.000395	3.953544	1.339497	0.000158
1739	1.7293e+02	-10.7596	-104.949381	0.000416	4.156290	1.408189	0.000166
1740	1.7303e+02	-10.7163	-104.727338	0.000558	5.575510	1.889034	0.000223
1741	1.7313e+02	-10.6858	-104.529519	0.000497	4.967273	1.682958	0.000199
1742	1.7323e+02	-10.6441	-104.303439	0.000568	5.676883	1.923380	0.000227
1743	1.7333e+02	-10.6008	-104.162139	0.000355	3.548052	1.202113	0.000142
1744	1.7343e+02	-10.5639	-103.940097	0.000558	5.575510	1.889034	0.000223
1745	1.7353e+02	-10.5238	-103.754388	0.000466	4.663154	1.579919	0.000187
1746	1.7363e+02	-10.4917	-103.576754	0.000446	4.460408	1.511227	0.000179
1747	1.7373e+02	-10.4403	-103.407195	0.000426	4.257662	1.442535	0.000170
1748	1.7383e+02	-10.4083	-103.209375	0.000497	4.967273	1.682958	0.000199
1749	1.7393e+02	-10.3601	-103.011555	0.000497	4.967273	1.682958	0.000199
1750	1.7403e+02	-10.3216	-102.846033	0.000416	4.156290	1.408189	0.000166
1751	1.7413e+02	-10.2847	-102.632065	0.000537	5.372764	1.820342	0.000215
1752	1.7422e+02	-10.2398	-102.466542	0.000416	4.156290	1.408189	0.000166
1753	1.7432e+02	-10.2013	-102.272760	0.000487	4.865900	1.648612	0.000195
1754	1.7442e+02	-10.1676	-102.066866	0.000517	5.170019	1.751650	0.000207
1755	1.7452e+02	-10.1211	-101.877120	0.000476	4.764527	1.614265	0.000191
1756	1.7462e+02	-10.0794	-101.675264	0.000507	5.068646	1.717304	0.000203
1757	1.7472e+02	-10.0425	-101.481481	0.000487	4.865900	1.648612	0.000195
1758	1.7482e+02	-9.9976	-101.311921	0.000426	4.257662	1.442535	0.000170
1759	1.7492e+02	-9.9559	-101.073730	0.000598	5.981002	2.026418	0.000239
1760	1.7502e+02	-9.9238	-100.892059	0.000456	4.561781	1.545573	0.000183
1761	1.7512e+02	-9.8869	-100.682128	0.000527	5.271392	1.785996	0.000211
1762	1.7522e+02	-9.8468	-100.512568	0.000426	4.257662	1.442535	0.000170
1763	1.7532e+02	-9.8035	-100.330897	0.000456	4.561781	1.545573	0.000183
1764	1.7542e+02	-9.7682	-100.096743	0.000588	5.879629	1.992072	0.000235
1765	1.7552e+02	-9.7217	-99.963518	0.000335	3.345306	1.133420	0.000134
1766	1.7562e+02	-9.6831	-99.729364	0.000588	5.879629	1.992072	0.000235
1767	1.7572e+02	-9.6382	-99.543656	0.000466	4.663154	1.579919	0.000187
1768	1.7582e+02	-9.5981	-99.374096	0.000426	4.257662	1.442535	0.000170
1769	1.7592e+02	-9.5692	-99.127831	0.000618	6.183748	2.095110	0.000248
1770	1.7602e+02	-9.5259	-98.925974	0.000507	5.068646	1.717304	0.000203
1771	1.7612e+02	-9.4858	-98.744303	0.000456	4.561781	1.545573	0.000183
1772	1.7621e+02	-9.4473	-98.574743	0.000426	4.257662	1.442535	0.000170
1773	1.7631e+02	-9.4088	-98.393072	0.000456	4.561781	1.545573	0.000183
1774	1.7641e+02	-9.3639	-98.130658	0.000659	6.589239	2.232495	0.000264
1775	1.7651e+02	-9.3286	-97.961099	0.000426	4.257662	1.442535	0.000170
1776	1.7661e+02	-9.2981	-97.751168	0.000527	5.271392	1.785996	0.000211
1777	1.7671e+02	-9.2532	-97.545274	0.000517	5.170019	1.751650	0.000207
1778	1.7681e+02	-9.2067	-97.315157	0.000578	5.778256	1.957726	0.000231
1779	1.7691e+02	-9.1714	-97.145597	0.000426	4.257662	1.442535	0.000170
1780	1.7701e+02	-9.1265	-96.972000	0.000436	4.359035	1.476881	0.000174
1781	1.7711e+02	-9.0960	-96.741884	0.000578	5.778256	1.957726	0.000231
1782	1.7721e+02	-9.0511	-96.531953	0.000527	5.271392	1.785996	0.000211
1783	1.7731e+02	-8.9965	-96.289724	0.000608	6.082375	2.060764	0.000243
1784	1.7741e+02	-8.9741	-96.160536	0.000324	3.243933	1.099074	0.000130
1785	1.7751e+02	-8.9243	-95.898122	0.000659	6.589239	2.232495	0.000264
1786	1.7761e+02	-8.8842	-95.708377	0.000476	4.764527	1.614265	0.000191
1787	1.7771e+02	-8.8506	-95.530743	0.000446	4.460408	1.511227	0.000179
1788	1.7781e+02	-8.8121	-95.308701	0.000558	5.575510	1.889034	0.000223
1789	1.7791e+02	-8.7671	-95.078584	0.000578	5.778256	1.957726	0.000231
1790	1.7801e+02	-8.7318	-94.892876	0.000466	4.663154	1.579919	0.000187
1791	1.7810e+02	-8.6901	-94.678907	0.000537	5.372764	1.820342	0.000215
1792	1.7820e+02	-8.6420	-94.440716	0.000598	5.981002	2.026418	0.000239
1793	1.7830e+02	-8.6115	-94.287305	0.000385	3.852171	1.305151	0.000154
1794	1.7840e+02	-8.5746	-94.077374	0.000527	5.271392	1.785996	0.000211
1795	1.7850e+02	-8.5201	-93.851295	0.000568	5.676883	1.923380	0.000227
1796	1.7860e+02	-8.4928	-93.649438	0.000507	5.068646	1.717304	0.000203
1797	1.7870e+02	-8.4479	-93.463729	0.000466	4.663154	1.579919	0.000187
1798	1.7880e+02	-8.4190	-93.233613	0.000578	5.778256	1.957726	0.000231
1799	1.7890e+02	-8.3725	-93.019645	0.000537	5.372764	1.820342	0.000215
1800	1.7900e+02	-8.3324	-92.821825	0.000497	4.967273	1.682958	0.000199
1801	1.7910e+02	-8.2923	-92.615931	0.000517	5.170019	1.751650	0.000207
1802	1.7920e+02	-8.2474	-92.414074	0.000507	5.068646	1.717304	0.000203
1803	1.7930e+02	-8.2121	-92.212217	0.000507	5.068646	1.717304	0.000203
1804	1.7940e+02	-8.1688	-92.010361	0.000507	5.068646	1.717304	0.000203
1805	1.7950e+02	-8.1254	-91.804467	0.000517	5.170019	1.751650	0.000207
1806	1.7960e+02	-8.0982	-91.562239	0.000608	6.082375	2.060764	0.000243
1807	1.7970e+02	-8.0565	-91.376530	0.000466	4.663154	1.579919	0.000187
1808	1.7980e+02	-8.0099	-91.134302	0.000608	6.082375	2.060764	0.000243
1809	1.7990e+02	-7.9746	-90.948594	0.000466	4.663154	1.579919	0.000187
1810	1.8000e+02	-7.9249	-90.770960	0.000446	4.460408	1.511227	0.000179
1811	1.8009e+02	-7.8928	-90.504509	0.000669	6.690612	2.266841	0.000268
1812	1.8019e+02	-7.8511	-90.314764	0.000476	4.764527	1.614265	0.000191
1813	1.8029e+02	-7.8126	-90.096758	0.000547	5.474137	1.854688	0.000219
1814	1.8039e+02	-7.7709	-89.878753	0.000547	5.474137	1.854688	0.000219
1815	1.8049e+02	-7.7372	-89.664785	0.000537	5.372764	1.820342	0.000215
1816	1.8059e+02	-7.6907	-89.426594	0.000598	5.981002	2.026418	0.000239
1817	1.8069e+02	-7.6506	-89.269145	0.000395	3.953544	1.339497	0.000158
1818	1.8079e+02	-7.6105	-89.051140	0.000547	5.474137	1.854688	0.000219
1819	1.8089e+02	-7.5704	-88.845246	0.000517	5.170019	1.751650	0.000207
1820	1.8099e+02	-7.5415	-88.655501	0.000476	4.764527	1.614265	0.000191
1821	1.8109e+02	-7.4950	-88.409236	0.000618	6.183748	2.095110	0.000248
1822	1.8119e+02	-7.4468	-88.183156	0.000568	5.676883	1.923380	0.000227
1823	1.8129e+02	-7.4132	-88.017633	0.000416	4.156290	1.408189	0.000166
1824	1.8139e+02	-7.3779	-87.783479	0.000588	5.879629	1.992072	0.000235
1825	1.8149e+02	-7.3442	-87.605846	0.000446	4.460408	1.511227	0.000179
1826	1.8159e+02	-7.3025	-87.387840	0.000547	5.474137	1.854688	0.000219
1827	1.8169e+02	-7.2575	-87.113315	0.000689	6.893358	2.335533	0.000276
1828	1.8179e+02	-7.2126	-86.931644	0.000456	4.561781	1.545573	0.000183
1829	1.8189e+02	-7.1677	-86.709601	0.000558	5.575510	1.889034	0.000223
1830	1.8199e+02	-7.1308	-86.483522	0.000568	5.676883	1.923380	0.000227
1831	1.8209e+02	-7.0907	-86.273591	0.000527	5.271392	1.785996	0.000211
1832	1.8218e+02	-7.0458	-86.059623	0.000537	5.372764	1.820342	0.000215
1833	1.8228e+02	-7.0233	-85.857766	0.000507	5.068646	1.717304	0.000203
1834	1.8238e+02	-6.9768	-85.623612	0.000588	5.879629	1.992072	0.000235
1835	1.8248e+02	-6.9351	-85.437904	0.000466	4.663154	1.579919	0.000187
1836	1.8258e+02	-6.8998	-85.171453	0.000669	6.690612	2.266841	0.000268
1837	1.8268e+02	-6.8501	-85.026116	0.000365	3.649425	1.236459	0.000146
1838	1.8278e+02	-6.8228	-84.779850	0.000618	6.183748	2.095110	0.000248
1839	1.8288e+02	-6.7763	-84.569919	0.000527	5.271392	1.785996	0.000211
1840	1.8298e+02	-6.7378	-84.323654	0.000618	6.183748	2.095110	0.000248
1841	1.8308e+02	-6.6961	-84.125835	0.000497	4.967273	1.682958	0.000199
1842	1.8318e+02	-6.6592	-83.915903	0.000527	5.271392	1.785996	0.000211
1843	1.8328e+02	-6.6175	-83.681750	0.000588	5.879629	1.992072	0.000235
1844	1.8338e+02	-6.5741	-83.483930	0.000497	4.967273	1.682958	0.000199
1845	1.8348e+02	-6.5405	-83.273999	0.000527	5.271392	1.785996	0.000211
1846	1.8358e+02	-6.5020	-83.047919	0.000568	5.676883	1.923380	0.000227
1847	1.8368e+02	-6.4554	-82.825877	0.000558	5.575510	1.889034	0.000223
1848	1.8378e+02	-6.4201	-82.632094	0.000487	4.865900	1.648612	0.000195
1849	1.8388e+02	-6.3816	-82.418126	0.000537	5.372764	1.820342	0.000215
1850	1.8398e+02	-6.3335	-82.204158	0.000537	5.372764	1.820342	0.000215
1851	1.8407e+02	-6.3030	-81.994227	0.000527	5.271392	1.785996	0.000211
1852	1.8417e+02	-6.2661	-81.764110	0.000578	5.778256	1.957726	0.000231
1853	1.8427e+02	-6.2148	-81.529956	0.000588	5.879629	1.992072	0.000235
1854	1.8437e+02	-6.1763	-81.315988	0.000537	5.372764	1.820342	0.000215
1855	1.8447e+02	-6.1346	-81.085871	0.000578	5.778256	1.957726	0.000231
1856	1.8457e+02	-6.1009	-80.884015	0.000507	5.068646	1.717304	0.000203
1857	1.8467e+02	-6.0576	-80.613526	0.000679	6.791985	2.301187	0.000272
1858	1.8477e+02	-6.0159	-80.363224	0.000629	6.285121	2.129457	0.000252
1859	1.8487e+02	-5.9758	-80.173479	0.000476	4.764527	1.614265	0.000191
1860	1.8497e+02	-5.9357	-79.979696	0.000487	4.865900	1.648612	0.000195
1861	1.8507e+02	-5.9068	-79.769765	0.000527	5.271392	1.785996	0.000211
1862	1.8517e+02	-5.8587	-79.547723	0.000558	5.575510	1.889034	0.000223
1863	1.8527e+02	-5.8234	-79.333754	0.000537	5.372764	1.820342	0.000215
1864	1.8537e+02	-5.7801	-79.071341	0.000659	6.589239	2.232495	0.000264
1865	1.8547e+02	-5.7415	-78.885632	0.000466	4.663154	1.579919	0.000187
1866	1.8557e+02	-5.7047	-78.615144	0.000679	6.791985	2.301187	0.000272
1867	1.8567e+02	-5.6694	-78.441547	0.000436	4.359035	1.476881	0.000174
1868	1.8577e+02	-5.6309	-78.183171	0.000649	6.487867	2.198149	0.000260
1869	1.8587e+02	-5.5795	-77.969203	0.000537	5.372764	1.820342	0.000215
1870	1.8597e+02	-5.5522	-77.731012	0.000598	5.981002	2.026418	0.000239
1871	1.8606e+02	-5.5121	-77.517043	0.000537	5.372764	1.820342	0.000215
1872	1.8616e+02	-5.4608	-77.258667	0.000649	6.487867	2.198149	0.000260
1873	1.8626e+02	-5.4303	-77.093144	0.000416	4.156290	1.408189	0.000166
1874	1.8636e+02	-5.3822	-76.818619	0.000689	6.893358	2.335533	0.000276
1875	1.8646e+02	-5.3485	-76.608688	0.000527	5.271392	1.785996	0.000211
1876	1.8656e+02	-5.3052	-76.374534	0.000588	5.879629	1.992072	0.000235
1877	1.8666e+02	-5.2667	-76.124231	0.000629	6.285121	2.129457	0.000252
1878	1.8676e+02	-5.2298	-75.954672	0.000426	4.257662	1.442535	0.000170
1879	1.8686e+02	-5.1865	-75.684184	0.000679	6.791985	2.301187	0.000272
1880	1.8696e+02	-5.1400	-75.494438	0.000476	4.764527	1.614265	0.000191
1881	1.8706e+02	-5.1047	-75.264322	0.000578	5.778256	1.957726	0.000231
1882	1.8716e+02	-5.0694	-75.022093	0.000608	6.082375	2.060764	0.000243
1883	1.8726e+02	-5.0261	-74.800051	0.000558	5.575510	1.889034	0.000223
1884	1.8736e+02	-4.9860	-74.541674	0.000649	6.487867	2.198149	0.000260
1885	1.8746e+02	-4.9362	-74.351929	0.000476	4.764527	1.614265	0.000191
1886	1.8756e+02	-4.9025	-74.081441	0.000679	6.791985	2.301187	0.000272
1887	1.8766e+02	-4.8608	-73.863435	0.000547	5.474137	1.854688	0.000219
1888	1.8776e+02	-4.8287	-73.633319	0.000578	5.778256	1.957726	0.000231
1889	1.8786e+02	-4.7838	-73.374942	0.000649	6.487867	2.198149	0.000260
1890	1.8796e+02	-4.7485	-73.169048	0.000517	5.170019	1.751650	0.000207
1891	1.8806e+02	-4.6988	-72.955080	0.000537	5.372764	1.820342	0.000215
1892	1.8815e+02	-4.6571	-72.668443	0.000720	7.197477	2.438571	0.000288
1893	1.8825e+02	-4.6250	-72.478698	0.000476	4.764527	1.614265	0.000191
1894	1.8835e+02	-4.5881	-72.224358	0.000639	6.386494	2.163803	0.000256
1895	1.8845e+02	-4.5480	-72.042687	0.000456	4.561781	1.545573	0.000183
1896	1.8855e+02	-4.5063	-71.752013	0.000730	7.298850	2.472917	0.000292
1897	1.8865e+02	-4.4710	-71.534008	0.000547	5.474137	1.854688	0.000219
1898	1.8875e+02	-4.4277	-71.316003	0.000547	5.474137	1.854688	0.000219
1899	1.8885e+02	-4.3892	-71.013218	0.000760	7.602969	2.575955	0.000304
1900	1.8895e+02	-4.3443	-70.807324	0.000517	5.170019	1.751650	0.000207
1901	1.8905e+02	-4.3074	-70.577207	0.000578	5.778256	1.957726	0.000231
1902	1.8915e+02	-4.2721	-70.351127	0.000568	5.676883	1.923380	0.000227
1903	1.8925e+02	-4.2175	-70.096788	0.000639	6.386494	2.163803	0.000256
1904	1.8935e+02	-4.1854	-69.822263	0.000689	6.893358	2.335533	0.000276
1905	1.8945e+02	-4.1550	-69.640591	0.000456	4.561781	1.545573	0.000183
1906	1.8955e+02	-4.1116	-69.357992	0.000710	7.096104	2.404225	0.000284
1907	1.8965e+02	-4.0587	-69.091541	0.000669	6.690612	2.266841	0.000268
1908	1.8975e+02	-4.0298	-68.901796	0.000476	4.764527	1.614265	0.000191
1909	1.8985e+02	-4.0026	-68.655530	0.000618	6.183748	2.095110	0.000248
1910	1.8995e+02	-3.9576	-68.376968	0.000699	6.994731	2.369879	0.000280
1911	1.9004e+02	-3.9175	-68.114554	0.000659	6.589239	2.232495	0.000264
1912	1.9014e+02	-3.8726	-67.872326	0.000608	6.082375	2.060764	0.000243
1913	1.9024e+02	-3.8341	-67.613949	0.000649	6.487867	2.198149	0.000260
1914	1.9034e+02	-3.7860	-67.428241	0.000466	4.663154	1.579919	0.000187
1915	1.9044e+02	-3.7571	-67.145642	0.000710	7.096104	2.404225	0.000284
1916	1.9054e+02	-3.7074	-66.887265	0.000649	6.487867	2.198149	0.000260
1917	1.9064e+02	-3.6737	-66.665222	0.000558	5.575510	1.889034	0.000223
1918	1.9074e+02	-3.6352	-66.435106	0.000578	5.778256	1.957726	0.000231
1919	1.9084e+02	-3.5919	-66.152506	0.000710	7.096104	2.404225	0.000284
1920	1.9094e+02	-3.5421	-65.930464	0.000558	5.575510	1.889034	0.000223
1921	1.9104e+02	-3.5085	-65.704384	0.000568	5.676883	1.923380	0.000227
1922	1.9114e+02	-3.4716	-65.413710	0.000730	7.298850	2.472917	0.000292
1923	1.9124e+02	-3.4250	-65.175519	0.000598	5.981002	2.026418	0.000239
1924	1.9134e+02	-3.3881	-64.905031	0.000679	6.791985	2.301187	0.000272
1925	1.9144e+02	-3.3577	-64.666840	0.000598	5.981002	2.026418	0.000239
1926	1.9154e+02	-3.3047	-64.408464	0.000649	6.487867	2.198149	0.000260
1927	1.9164e+02	-3.2774	-64.158161	0.000629	6.285121	2.129457	0.000252
1928	1.9174e+02	-3.2245	-63.915933	0.000608	6.082375	2.060764	0.000243
1929	1.9184e+02	-3.1844	-63.685816	0.000578	5.778256	1.957726	0.000231
1930	1.9194e+02	-3.1555	-63.427440	0.000649	6.487867	2.198149	0.000260
1931	1.9203e+02	-3.1074	-63.177137	0.000629	6.285121	2.129457	0.000252
1932	1.9213e+02	-3.0689	-62.914723	0.000659	6.589239	2.232495	0.000264
1933	1.9223e+02	-3.0304	-62.684607	0.000578	5.778256	1.957726	0.000231
1934	1.9233e+02	-2.9919	-62.414119	0.000679	6.791985	2.301187	0.000272
1935	1.9243e+02	-2.9454	-62.167853	0.000618	6.183748	2.095110	0.000248
1936	1.9253e+02	-2.9117	-61.893328	0.000689	6.893358	2.335533	0.000276
1937	1.9263e+02	-2.8796	-61.622840	0.000679	6.791985	2.301187	0.000272
1938	1.9273e+02	-2.8299	-61.388686	0.000588	5.879629	1.992072	0.000235
1939	1.9283e+02	-2.7978	-61.118198	0.000679	6.791985	2.301187	0.000272
1940	1.9293e+02	-2.7561	-60.888081	0.000578	5.778256	1.957726	0.000231
1941	1.9303e+02	-2.7112	-60.633742	0.000639	6.386494	2.163803	0.000256
1942	1.9313e+02	-2.6743	-60.367291	0.000669	6.690612	2.266841	0.000268
1943	1.9323e+02	-2.6261	-60.068543	0.000750	7.501596	2.541609	0.000300
1944	1.9333e+02	-2.5924	-59.858612	0.000527	5.271392	1.785996	0.000211
1945	1.9343e+02	-2.5555	-59.571975	0.000720	7.197477	2.438571	0.000288
1946	1.9353e+02	-2.5219	-59.301487	0.000679	6.791985	2.301187	0.000272
1947	1.9363e+02	-2.4657	-59.071370	0.000578	5.778256	1.957726	0.000231
1948	1.9373e+02	-2.4368	-58.800882	0.000679	6.791985	2.301187	0.000272
1949	1.9383e+02	-2.3999	-58.546542	0.000639	6.386494	2.163803	0.000256
1950	1.9393e+02	-2.3582	-58.276054	0.000679	6.791985	2.301187	0.000272
1951	1.9403e+02	-2.3101	-58.025752	0.000629	6.285121	2.129457	0.000252
1952	1.9412e+02	-2.2828	-57.763338	0.000659	6.589239	2.232495	0.000264
1953	1.9422e+02	-2.2363	-57.488813	0.000689	6.893358	2.335533	0.000276
1954	1.9432e+02	-2.1994	-57.226399	0.000659	6.589239	2.232495	0.000264
1955	1.9442e+02	-2.1673	-56.939762	0.000720	7.197477	2.438571	0.000288
1956	1.9452e+02	-2.1128	-56.705609	0.000588	5.879629	1.992072	0.000235
1957	1.9462e+02	-2.0663	-56.414935	0.000730	7.298850	2.472917	0.000292
1958	1.9472e+02	-2.0422	-56.160595	0.000639	6.386494	2.163803	0.000256
1959	1.9482e+02	-2.0021	-55.882033	0.000699	6.994731	2.369879	0.000280
1960	1.9492e+02	-1.9588	-55.631730	0.000629	6.285121	2.129457	0.000252
1961	1.9502e+02	-1.9155	-55.341057	0.000730	7.298850	2.472917	0.000292
1962	1.9512e+02	-1.8737	-55.062494	0.000699	6.994731	2.369879	0.000280
1963	1.9522e+02	-1.8449	-54.796043	0.000669	6.690612	2.266841	0.000268
1964	1.9532e+02	-1.7903	-54.549778	0.000618	6.183748	2.095110	0.000248
1965	1.9542e+02	-1.7534	-54.279290	0.000679	6.791985	2.301187	0.000272
1966	1.9552e+02	-1.7053	-54.004765	0.000689	6.893358	2.335533	0.000276
1967	1.9562e+02	-1.6796	-53.693905	0.000781	7.805714	2.644648	0.000312
1968	1.9572e+02	-1.6347	-53.447640	0.000618	6.183748	2.095110	0.000248
1969	1.9582e+02	-1.5930	-53.197338	0.000629	6.285121	2.129457	0.000252
1970	1.9592e+02	-1.5577	-52.930887	0.000669	6.690612	2.266841	0.000268
1971	1.9601e+02	-1.5224	-52.640213	0.000730	7.298850	2.472917	0.000292
1972	1.9611e+02	-1.4775	-52.397985	0.000608	6.082375	2.060764	0.000243
1973	1.9621e+02	-1.4454	-52.103274	0.000740	7.400223	2.507263	0.000296
1974	1.9631e+02	-1.3941	-51.848934	0.000639	6.386494	2.163803	0.000256
1975	1.9641e+02	-1.3556	-51.606706	0.000608	6.082375	2.060764	0.000243
1976	1.9651e+02	-1.3299	-51.307958	0.000750	7.501596	2.541609	0.000300
1977	1.9661e+02	-1.2786	-51.045544	0.000659	6.589239	2.232495	0.000264
1978	1.9671e+02	-1.2369	-50.742759	0.000760	7.602969	2.575955	0.000304
1979	1.9681e+02	-1.1968	-50.484382	0.000649	6.487867	2.198149	0.000260
1980	1.9691e+02	-1.1518	-50.242154	0.000608	6.082375	2.060764	0.000243
1981	1.9701e+02	-1.1182	-49.999926	0.000608	6.082375	2.060764	0.000243
1982	1.9711e+02	-1.0780	-49.680992	0.000801	8.008460	2.713340	0.000321
1983	1.9721e+02	-1.0476	-49.406467	0.000689	6.893358	2.335533	0.000276
1984	1.9731e+02	-0.9898	-49.164239	0.000608	6.082375	2.060764	0.000243
1985	1.9741e+02	-0.9609	-48.861454	0.000760	7.602969	2.575955	0.000304
1986	1.9751e+02	-0.9321	-48.595003	0.000669	6.690612	2.266841	0.000268
1987	1.9761e+02	-0.8759	-48.328552	0.000669	6.690612	2.266841	0.000268
1988	1.9771e+02	-0.8406	-48.025767	0.000760	7.602969	2.575955	0.000304
1989	1.9781e+02	-0.8101	-47.755279	0.000679	6.791985	2.301187	0.000272
1990	1.9791e+02	-0.7572	-47.529199	0.000568	5.676883	1.923380	0.000227
1991	1.9800e+02	-0.7187	-47.234488	0.000740	7.400223	2.507263	0.000296
1992	1.9810e+02	-0.6850	-46.939777	0.000740	7.400223	2.507263	0.000296
1993	1.9820e+02	-0.6417	-46.693512	0.000618	6.183748	2.095110	0.000248
1994	1.9830e+02	-0.6016	-46.418987	0.000689	6.893358	2.335533	0.000276
1995	1.9840e+02	-0.5551	-46.116202	0.000760	7.602969	2.575955	0.000304
1996	1.9850e+02	-0.5262	-45.861862	0.000639	6.386494	2.163803	0.000256
1997	1.9860e+02	-0.4813	-45.595411	0.000669	6.690612	2.266841	0.000268
1998	1.9870e+02	-0.4428	-45.312812	0.000710	7.096104	2.404225	0.000284
1999	1.9880e+02	-0.4107	-45.042323	0.000679	6.791985	2.301187	0.000272
2000	1.9890e+02	-0.3577	-44.767798	0.000689	6.893358	2.335533	0.000276
2001	1.9900e+02	-0.3225	-44.493273	0.000689	6.893358	2.335533	0.000276
2002	1.9910e+02	-0.2791	-44.234896	0.000649	6.487867	2.198149	0.000260
2003	1.9920e+02	-0.2438	-43.964408	0.000679	6.791985	2.301187	0.000272
2004	1.9930e+02	-0.1973	-43.710069	0.000639	6.386494	2.163803	0.000256
2005	1.9940e+02	-0.1572	-43.387098	0.000811	8.109833	2.747686	0.000325
2006	1.9950e+02	-0.1171	-43.124684	0.000659	6.589239	2.232495	0.000264
2007	1.9960e+02	-0.0850	-42.870344	0.000639	6.386494	2.163803	0.000256
2008	1.9970e+02	-0.0481	-42.571596	0.000750	7.501596	2.541609	0.000300
2009	1.9980e+02	-0.0048	-42.301108	0.000750	7.501596	2.541609	0.000272

Center data before PMax,+/-Pr and +/-Vc Calc.

PMax (uC/cm2):	1.32e+02
Pr (uC/cm2):	2.60e+01
-Pr (uC/cm2):	-4.23e+01
PLoss (uC/cm2):	-5.94e+01
-Vc:	-3.71e+00
C (Max-Eff) (nF):	6.63e-01
K (Eff):	2.25e+03
Vert. (+/-Pr) Shift (uC/cm2):	-8.17e+00
Offset (uC/cm2):	-1.71e+01

A (Loop Area - uC/cm2·Volts):	3.57e-01



Hysteresis Version: 5.48.1 - Radiant Technologies, Inc., 1999 - 9/12/24

