»»»»»»»»»»»»»»»»»»»»»»»»»»»»»»»»»»»» Hysteresis ««««««««««««««««««««««««««««««««««««
»»»  Executed Version:	5.48.1
»»»  Vision Version:	5.48.4 (R)
»»»  Vision Compiled:	9/18/24
»»»  Driver Version:	5.47.0
»»»  Windows Version:	Windows 8 or 8.1
»»»  Processor Information:	x86 (AMD or Intel) - 32 Processors
»»»  Tester Name:	PMF21124-494 (100V)
»»»  Tester S/N:	PMF21124-494
»»»  Internal Amp Type:	100V RevK 270k
»»»  Internal Amp S/N:	iAB2-596/K     
»»»  Execution Count:	1
»»»»»»»»»»»»»»»»»»»»»»»»»»»»»»»»»»»»»»»»»»««««««««««««««««««««««««««««««««««««««««««

Stored:	6/5/2025 - 15:35:22
Configured:	06/05/25 02:51:50 PM
Executed:	06/05/25 03:34:31 PM

»»»»»»»»»»»»»»»»»»»»»»»»»»»»»»»»»»» Sample Info ««««««««««««««««««««««««««««««««««««
Sample Name:	
Lot Name:	
Wafer Name:	
Die Row/Column:	0/0
Capacitor Number:	0
Sample Area (cm2):	1.00e-04
Sample Thickness (microns):	3.00e-01

Amplifier:	Internal

»»»»»»»»»»»»»»»»»»»»»»»»»»»»»»»»»»» Tester Info «««««««««««««««««««««««««««««««««««
Tester Name:	PMF21124-494 (100V)
Tester Serial Number:	PMF21124-494
Return Signal Amp. Level:	0.19 [Index: 3]

»»»»»»»»»»»»»»»»»»»»»»»»»»»»»»»» Hysteresis Info ««««««««««««««««««««««««««««««««««
Task Name:	Hyst-353
Volts:	20.00
Field:	666.67 (kV/cm)
DCBias:	0.00
DCField:	0.00 (kV/cm)
Hysteresis Period (ms):	2.00e+02
Preset:	Enabled
Preset Delay (ms):	1.00e+03
Profile:	Standard Bipolar

»»»»»»»»»»»»»»»»»»»»»»»»»»»»»»»»»»»»»» Data «««««««««««««««««««««««««««««««««««««««
Points:	2009

Valid Data

Point	Time (ms)	Drive Voltage	Measured Polarization (uC/cm2)	Capacitance (uF)	Normalized Capacitance (uF/cm2)	Dielectric Constant	Instantaneous Current (mA)
   1	0.0000e+00	-0.0016	7.876452	-0.000030	-0.304064	-0.103020	-0.000012
   2	9.9500e-02	0.0273	7.864340	-0.000030	-0.304064	-0.103020	-0.000012
   3	1.9900e-01	0.0722	7.908749	0.000111	1.114901	0.377739	0.000045
   4	2.9850e-01	0.1011	7.896638	-0.000030	-0.304064	-0.103020	-0.000012
   5	3.9800e-01	0.1428	7.916823	0.000051	0.506773	0.171699	0.000020
   6	4.9750e-01	0.1829	8.001603	0.000213	2.128447	0.721137	0.000085
   7	5.9700e-01	0.2262	8.054086	0.000132	1.317610	0.446418	0.000053
   8	6.9650e-01	0.2631	8.118680	0.000162	1.621674	0.549438	0.000065
   9	7.9600e-01	0.2984	8.227683	0.000274	2.736575	0.927177	0.000110
  10	8.9550e-01	0.3513	8.368982	0.000355	3.547412	1.201896	0.000142
  11	9.9500e-01	0.3850	8.490096	0.000304	3.040638	1.030196	0.000122
  12	1.0945e+00	0.4299	8.615248	0.000314	3.141993	1.064536	0.000126
  13	1.1940e+00	0.4749	8.792882	0.000446	4.459603	1.510954	0.000179
  14	1.2935e+00	0.5021	8.950330	0.000395	3.952830	1.339255	0.000158
  15	1.3930e+00	0.5503	9.115852	0.000416	4.155539	1.407935	0.000166
  16	1.4925e+00	0.5920	9.269264	0.000385	3.851475	1.304915	0.000154
  17	1.5920e+00	0.6305	9.491306	0.000557	5.574504	1.888693	0.000223
  18	1.6915e+00	0.6706	9.701237	0.000527	5.270440	1.785673	0.000211
  19	1.7910e+00	0.7075	9.911168	0.000527	5.270440	1.785673	0.000211
  20	1.8905e+00	0.7492	10.153396	0.000608	6.081277	2.060392	0.000243
  21	1.9900e+00	0.7877	10.290659	0.000345	3.446057	1.167556	0.000138
  22	2.0895e+00	0.8326	10.581333	0.000730	7.297532	2.472471	0.000292
  23	2.1890e+00	0.8679	10.827598	0.000618	6.182632	2.094732	0.000248
  24	2.2885e+00	0.9064	11.021381	0.000487	4.865022	1.648314	0.000195
  25	2.3880e+00	0.9353	11.320129	0.000750	7.500242	2.541151	0.000300
  26	2.4875e+00	0.9834	11.558320	0.000598	5.979922	2.026053	0.000239
  27	2.5870e+00	1.0251	11.832845	0.000689	6.892114	2.335111	0.000276
  28	2.6865e+00	1.0700	12.252707	0.001054	10.540880	3.571347	0.000422
  29	2.7860e+00	1.1085	13.084357	0.002088	20.879051	7.074014	0.000836
  30	2.8855e+00	1.1486	14.897031	0.004551	45.508222	15.418603	0.001822
  31	2.9850e+00	1.1871	15.312856	0.001044	10.439525	3.537007	0.000418
  32	3.0845e+00	1.2256	15.583344	0.000679	6.790759	2.300772	0.000272
  33	3.1840e+00	1.2561	15.837684	0.000639	6.385341	2.163412	0.000256
  34	3.2835e+00	1.3123	16.136432	0.000750	7.500242	2.541151	0.000300
  35	3.3830e+00	1.3460	16.386734	0.000628	6.283986	2.129072	0.000252
  36	3.4825e+00	1.3893	16.620888	0.000588	5.878568	1.991713	0.000235
  37	3.5820e+00	1.4246	16.939822	0.000801	8.007015	2.712850	0.000321
  38	3.6815e+00	1.4663	17.161864	0.000557	5.574504	1.888693	0.000223
  39	3.7810e+00	1.5096	17.436389	0.000689	6.892114	2.335111	0.000276
  40	3.8805e+00	1.5449	17.731100	0.000740	7.398887	2.506811	0.000296
  41	3.9800e+00	1.5850	17.977365	0.000618	6.182632	2.094732	0.000248
  42	4.0795e+00	1.6203	18.223631	0.000618	6.182632	2.094732	0.000248
  43	4.1790e+00	1.6620	18.465859	0.000608	6.081277	2.060392	0.000243
  44	4.2785e+00	1.7005	18.720198	0.000639	6.385341	2.163412	0.000256
  45	4.3780e+00	1.7454	19.031058	0.000780	7.804305	2.644170	0.000312
  46	4.4775e+00	1.7935	19.253100	0.000557	5.574504	1.888693	0.000223
  47	4.5770e+00	1.8256	19.487254	0.000588	5.878568	1.991713	0.000235
  48	4.6765e+00	1.8657	19.802151	0.000791	7.905660	2.678510	0.000316
  49	4.7760e+00	1.9010	20.072639	0.000679	6.790759	2.300772	0.000272
  50	4.8755e+00	1.9395	20.318904	0.000618	6.182632	2.094732	0.000248
  51	4.9750e+00	1.9860	20.573244	0.000639	6.385341	2.163412	0.000256
  52	5.0745e+00	2.0197	20.855843	0.000709	7.094823	2.403791	0.000284
  53	5.1740e+00	2.0679	21.150554	0.000740	7.398887	2.506811	0.000296
  54	5.2735e+00	2.0999	21.376634	0.000568	5.675858	1.923033	0.000227
  55	5.3730e+00	2.1400	21.433154	0.000142	1.418965	0.480758	0.000057
  56	5.4725e+00	2.1818	21.449302	0.000041	0.405418	0.137359	0.000016
  57	5.5720e+00	2.2251	22.131578	0.001713	17.128930	5.803439	0.000686
  58	5.6715e+00	2.2588	22.466660	0.000841	8.412433	2.850209	0.000337
  59	5.7710e+00	2.2941	22.656406	0.000476	4.763667	1.613974	0.000191
  60	5.8705e+00	2.3406	22.959191	0.000760	7.601596	2.575490	0.000304
  61	5.9700e+00	2.3791	23.278125	0.000801	8.007015	2.712850	0.000321
  62	6.0695e+00	2.4272	23.516316	0.000598	5.979922	2.026053	0.000239
  63	6.1690e+00	2.4529	23.774692	0.000649	6.486695	2.197752	0.000260
  64	6.2685e+00	2.5026	24.037106	0.000659	6.588050	2.232092	0.000264
  65	6.3680e+00	2.5411	24.323743	0.000720	7.196178	2.438131	0.000288
  66	6.4675e+00	2.5844	24.582120	0.000649	6.486695	2.197752	0.000260
  67	6.5670e+00	2.6229	24.844533	0.000659	6.588050	2.232092	0.000264
  68	6.6665e+00	2.6614	25.127133	0.000709	7.094823	2.403791	0.000284
  69	6.7660e+00	2.6871	25.409732	0.000709	7.094823	2.403791	0.000284
  70	6.8655e+00	2.7432	25.672146	0.000659	6.588050	2.232092	0.000264
  71	6.9650e+00	2.7833	25.918411	0.000618	6.182632	2.094732	0.000248
  72	7.0645e+00	2.8186	26.164677	0.000618	6.182632	2.094732	0.000248
  73	7.1640e+00	2.8652	26.427091	0.000659	6.588050	2.232092	0.000264
  74	7.2635e+00	2.9005	26.701616	0.000689	6.892114	2.335111	0.000276
  75	7.3630e+00	2.9454	26.972104	0.000679	6.790759	2.300772	0.000272
  76	7.4625e+00	2.9694	27.254703	0.000709	7.094823	2.403791	0.000284
  77	7.5620e+00	3.0127	27.500969	0.000618	6.182632	2.094732	0.000248
  78	7.6615e+00	3.0593	27.783568	0.000709	7.094823	2.403791	0.000284
  79	7.7610e+00	3.1010	28.062131	0.000699	6.993468	2.369451	0.000280
  80	7.8605e+00	3.1331	28.316470	0.000639	6.385341	2.163412	0.000256
  81	7.9600e+00	3.1812	28.590995	0.000689	6.892114	2.335111	0.000276
  82	8.0595e+00	3.2133	28.849372	0.000649	6.486695	2.197752	0.000260
  83	8.1590e+00	3.2582	29.123897	0.000689	6.892114	2.335111	0.000276
  84	8.2585e+00	3.2999	29.394385	0.000679	6.790759	2.300772	0.000272
  85	8.3580e+00	3.3416	29.656799	0.000659	6.588050	2.232092	0.000264
  86	8.4575e+00	3.3753	29.923250	0.000669	6.689405	2.266432	0.000268
  87	8.5570e+00	3.4202	30.193738	0.000679	6.790759	2.300772	0.000272
  88	8.6565e+00	3.4587	30.456152	0.000659	6.588050	2.232092	0.000264
  89	8.7560e+00	3.5020	30.730677	0.000689	6.892114	2.335111	0.000276
  90	8.8555e+00	3.5325	30.976943	0.000618	6.182632	2.094732	0.000248
  91	8.9550e+00	3.5758	31.251468	0.000689	6.892114	2.335111	0.000276
  92	9.0545e+00	3.6191	31.513882	0.000659	6.588050	2.232092	0.000264
  93	9.1540e+00	3.6609	31.776295	0.000659	6.588050	2.232092	0.000264
  94	9.2535e+00	3.6945	32.046783	0.000679	6.790759	2.300772	0.000272
  95	9.3530e+00	3.7443	32.333420	0.000720	7.196178	2.438131	0.000288
  96	9.4525e+00	3.7796	32.563537	0.000578	5.777213	1.957373	0.000231
  97	9.5520e+00	3.8149	32.862285	0.000750	7.500242	2.541151	0.000300
  98	9.6515e+00	3.8598	33.116624	0.000639	6.385341	2.163412	0.000256
  99	9.7510e+00	3.8951	33.354815	0.000598	5.979922	2.026053	0.000239
 100	9.8505e+00	3.9240	33.633378	0.000699	6.993468	2.369451	0.000280
 101	9.9500e+00	3.9753	33.903866	0.000679	6.790759	2.300772	0.000272
 102	1.0050e+01	4.0186	34.174354	0.000679	6.790759	2.300772	0.000272
 103	1.0149e+01	4.0539	34.440805	0.000669	6.689405	2.266432	0.000268
 104	1.0248e+01	4.0940	34.711293	0.000679	6.790759	2.300772	0.000272
 105	1.0348e+01	4.1373	34.981781	0.000679	6.790759	2.300772	0.000272
 106	1.0447e+01	4.1774	35.244195	0.000659	6.588050	2.232092	0.000264
 107	1.0547e+01	4.2159	35.486423	0.000608	6.081277	2.060392	0.000243
 108	1.0646e+01	4.2560	35.801320	0.000791	7.905660	2.678510	0.000316
 109	1.0746e+01	4.2897	36.027399	0.000568	5.675858	1.923033	0.000227
 110	1.0845e+01	4.3330	36.334222	0.000770	7.702951	2.609830	0.000308
 111	1.0945e+01	4.3747	36.612784	0.000699	6.993468	2.369451	0.000280
 112	1.1044e+01	4.4116	36.855012	0.000608	6.081277	2.060392	0.000243
 113	1.1144e+01	4.4501	37.109352	0.000639	6.385341	2.163412	0.000256
 114	1.1243e+01	4.4935	37.404063	0.000740	7.398887	2.506811	0.000296
 115	1.1343e+01	4.5416	37.670514	0.000669	6.689405	2.266432	0.000268
 116	1.1443e+01	4.5705	37.904667	0.000588	5.878568	1.991713	0.000235
 117	1.1542e+01	4.6186	38.175156	0.000679	6.790759	2.300772	0.000272
 118	1.1642e+01	4.6603	38.449681	0.000689	6.892114	2.335111	0.000276
 119	1.1741e+01	4.6972	38.724206	0.000689	6.892114	2.335111	0.000276
 120	1.1841e+01	4.7373	39.010843	0.000720	7.196178	2.438131	0.000288
 121	1.1940e+01	4.7614	39.265182	0.000639	6.385341	2.163412	0.000256
 122	1.2040e+01	4.8159	39.523559	0.000649	6.486695	2.197752	0.000260
 123	1.2139e+01	4.8480	39.818270	0.000740	7.398887	2.506811	0.000296
 124	1.2239e+01	4.8881	40.088758	0.000679	6.790759	2.300772	0.000272
 125	1.2338e+01	4.9410	40.282540	0.000487	4.865022	1.648314	0.000195
 126	1.2438e+01	4.9747	40.605511	0.000811	8.108369	2.747190	0.000325
 127	1.2537e+01	5.0036	40.815442	0.000527	5.270440	1.785673	0.000211
 128	1.2636e+01	5.0453	41.138413	0.000811	8.108369	2.747190	0.000325
 129	1.2736e+01	5.0902	41.400827	0.000659	6.588050	2.232092	0.000264
 130	1.2835e+01	5.1319	41.630944	0.000578	5.777213	1.957373	0.000231
 131	1.2935e+01	5.1688	41.913543	0.000709	7.094823	2.403791	0.000284
 132	1.3034e+01	5.2105	42.188068	0.000689	6.892114	2.335111	0.000276
 133	1.3134e+01	5.2555	42.478742	0.000730	7.297532	2.472471	0.000292
 134	1.3233e+01	5.2827	42.720970	0.000608	6.081277	2.060392	0.000243
 135	1.3333e+01	5.3293	42.995496	0.000689	6.892114	2.335111	0.000276
 136	1.3432e+01	5.3726	43.237724	0.000608	6.081277	2.060392	0.000243
 137	1.3532e+01	5.4127	43.548583	0.000780	7.804305	2.644170	0.000312
 138	1.3632e+01	5.4496	43.738329	0.000476	4.763667	1.613974	0.000191
 139	1.3731e+01	5.4897	44.029002	0.000730	7.297532	2.472471	0.000292
 140	1.3831e+01	5.5330	44.335825	0.000770	7.702951	2.609830	0.000308
 141	1.3930e+01	5.5683	44.565941	0.000578	5.777213	1.957373	0.000231
 142	1.4030e+01	5.6100	44.824318	0.000649	6.486695	2.197752	0.000260
 143	1.4129e+01	5.6501	45.074621	0.000628	6.283986	2.129072	0.000252
 144	1.4229e+01	5.6982	45.349146	0.000689	6.892114	2.335111	0.000276
 145	1.4328e+01	5.7367	45.623671	0.000689	6.892114	2.335111	0.000276
 146	1.4428e+01	5.7640	45.894159	0.000679	6.790759	2.300772	0.000272
 147	1.4527e+01	5.8041	46.112164	0.000547	5.473149	1.854353	0.000219
 148	1.4627e+01	5.8506	46.358430	0.000618	6.182632	2.094732	0.000248
 149	1.4726e+01	5.8988	46.665252	0.000770	7.702951	2.609830	0.000308
 150	1.4825e+01	5.9260	46.919592	0.000639	6.385341	2.163412	0.000256
 151	1.4925e+01	5.9629	47.194117	0.000689	6.892114	2.335111	0.000276
 152	1.5024e+01	6.0095	47.420196	0.000568	5.675858	1.923033	0.000227
 153	1.5124e+01	6.0415	47.714907	0.000740	7.398887	2.506811	0.000296
 154	1.5223e+01	6.0881	47.961173	0.000618	6.182632	2.094732	0.000248
 155	1.5323e+01	6.1282	48.231661	0.000679	6.790759	2.300772	0.000272
 156	1.5422e+01	6.1667	48.461777	0.000578	5.777213	1.957373	0.000231
 157	1.5522e+01	6.2132	48.708043	0.000618	6.182632	2.094732	0.000248
 158	1.5621e+01	6.2517	48.978531	0.000679	6.790759	2.300772	0.000272
 159	1.5721e+01	6.2886	49.265167	0.000720	7.196178	2.438131	0.000288
 160	1.5820e+01	6.3271	49.503358	0.000598	5.979922	2.026053	0.000239
 161	1.5920e+01	6.3720	49.773847	0.000679	6.790759	2.300772	0.000272
 162	1.6020e+01	6.4105	50.040297	0.000669	6.689405	2.266432	0.000268
 163	1.6119e+01	6.4538	50.270414	0.000578	5.777213	1.957373	0.000231
 164	1.6218e+01	6.4827	50.524754	0.000639	6.385341	2.163412	0.000256
 165	1.6318e+01	6.5228	50.762945	0.000598	5.979922	2.026053	0.000239
 166	1.6418e+01	6.5661	51.037470	0.000689	6.892114	2.335111	0.000276
 167	1.6517e+01	6.6094	51.295847	0.000649	6.486695	2.197752	0.000260
 168	1.6616e+01	6.6415	51.521926	0.000568	5.675858	1.923033	0.000227
 169	1.6716e+01	6.6864	51.792414	0.000679	6.790759	2.300772	0.000272
 170	1.6816e+01	6.7249	52.050791	0.000649	6.486695	2.197752	0.000260
 171	1.6915e+01	6.7667	52.325316	0.000689	6.892114	2.335111	0.000276
 172	1.7015e+01	6.8132	52.551396	0.000568	5.675858	1.923033	0.000227
 173	1.7114e+01	6.8388	52.821884	0.000679	6.790759	2.300772	0.000272
 174	1.7213e+01	6.8918	53.064112	0.000608	6.081277	2.060392	0.000243
 175	1.7313e+01	6.9255	53.330563	0.000669	6.689405	2.266432	0.000268
 176	1.7413e+01	6.9656	53.584903	0.000639	6.385341	2.163412	0.000256
 177	1.7512e+01	7.0105	53.847316	0.000659	6.588050	2.232092	0.000264
 178	1.7611e+01	7.0426	54.109730	0.000659	6.588050	2.232092	0.000264
 179	1.7711e+01	7.0859	54.355996	0.000618	6.182632	2.094732	0.000248
 180	1.7811e+01	7.1244	54.630521	0.000689	6.892114	2.335111	0.000276
 181	1.7910e+01	7.1629	54.909083	0.000699	6.993468	2.369451	0.000280
 182	1.8009e+01	7.1950	55.098829	0.000476	4.763667	1.613974	0.000191
 183	1.8109e+01	7.2367	55.389502	0.000730	7.297532	2.472471	0.000292
 184	1.8209e+01	7.2816	55.611545	0.000557	5.574504	1.888693	0.000223
 185	1.8308e+01	7.3346	55.906256	0.000740	7.398887	2.506811	0.000296
 186	1.8407e+01	7.3634	56.148484	0.000608	6.081277	2.060392	0.000243
 187	1.8507e+01	7.4003	56.390712	0.000608	6.081277	2.060392	0.000243
 188	1.8607e+01	7.4372	56.612754	0.000557	5.574504	1.888693	0.000223
 189	1.8706e+01	7.4854	56.883243	0.000679	6.790759	2.300772	0.000272
 190	1.8805e+01	7.5158	57.141619	0.000649	6.486695	2.197752	0.000260
 191	1.8905e+01	7.5575	57.367699	0.000568	5.675858	1.923033	0.000227
 192	1.9005e+01	7.6009	57.597816	0.000578	5.777213	1.957373	0.000231
 193	1.9104e+01	7.6410	57.856192	0.000649	6.486695	2.197752	0.000260
 194	1.9203e+01	7.6939	58.106495	0.000628	6.283986	2.129072	0.000252
 195	1.9303e+01	7.7196	58.352760	0.000618	6.182632	2.094732	0.000248
 196	1.9402e+01	7.7677	58.607100	0.000639	6.385341	2.163412	0.000256
 197	1.9502e+01	7.8030	58.833179	0.000568	5.675858	1.923033	0.000227
 198	1.9602e+01	7.8415	59.095593	0.000659	6.588050	2.232092	0.000264
 199	1.9701e+01	7.8752	59.337821	0.000608	6.081277	2.060392	0.000243
 200	1.9800e+01	7.9137	59.567938	0.000578	5.777213	1.957373	0.000231
 201	1.9900e+01	7.9602	59.830352	0.000659	6.588050	2.232092	0.000264
 202	2.0000e+01	8.0019	60.080654	0.000628	6.283986	2.129072	0.000252
 203	2.0099e+01	8.0436	60.334994	0.000639	6.385341	2.163412	0.000256
 204	2.0198e+01	8.0805	60.548962	0.000537	5.371795	1.820013	0.000215
 205	2.0298e+01	8.1222	60.819450	0.000679	6.790759	2.300772	0.000272
 206	2.0398e+01	8.1543	60.839636	0.000051	0.506773	0.171699	0.000020
 207	2.0497e+01	8.2008	60.847710	0.000020	0.202709	0.068680	0.000008
 208	2.0596e+01	8.2425	60.863858	0.000041	0.405418	0.137359	0.000016
 209	2.0696e+01	8.2762	60.989010	0.000314	3.141993	1.064536	0.000126
 210	2.0796e+01	8.3244	61.049567	0.000152	1.520319	0.515098	0.000061
 211	2.0895e+01	8.3564	61.243349	0.000487	4.865022	1.648314	0.000195
 212	2.0994e+01	8.4062	62.329339	0.002726	27.264391	9.237426	0.001091
 213	2.1094e+01	8.4335	62.668458	0.000851	8.513788	2.884549	0.000341
 214	2.1194e+01	8.4784	62.938946	0.000679	6.790759	2.300772	0.000272
 215	2.1293e+01	8.5169	63.165026	0.000568	5.675858	1.923033	0.000227
 216	2.1392e+01	8.5586	63.427440	0.000659	6.588050	2.232092	0.000264
 217	2.1492e+01	8.5987	63.613148	0.000466	4.662312	1.579634	0.000187
 218	2.1591e+01	8.6356	63.819042	0.000517	5.169085	1.751334	0.000207
 219	2.1691e+01	8.6789	63.984564	0.000416	4.155539	1.407935	0.000166
 220	2.1791e+01	8.7158	64.323684	0.000851	8.513788	2.884549	0.000341
 221	2.1890e+01	8.7639	64.594172	0.000679	6.790759	2.300772	0.000272
 222	2.1989e+01	8.7944	64.860623	0.000669	6.689405	2.266432	0.000268
 223	2.2089e+01	8.8297	65.070554	0.000527	5.270440	1.785673	0.000211
 224	2.2189e+01	8.8746	65.341042	0.000679	6.790759	2.300772	0.000272
 225	2.2288e+01	8.9131	65.563084	0.000557	5.574504	1.888693	0.000223
 226	2.2387e+01	8.9628	65.801275	0.000598	5.979922	2.026053	0.000239
 227	2.2487e+01	8.9901	65.861832	0.000152	1.520319	0.515098	0.000061
 228	2.2587e+01	9.0350	65.825498	-0.000091	-0.912192	-0.309059	-0.000037
 229	2.2686e+01	9.0832	65.817424	-0.000020	-0.202709	-0.068680	-0.000008
 230	2.2785e+01	9.1169	65.837610	0.000051	0.506773	0.171699	0.000020
 231	2.2885e+01	9.1634	65.825498	-0.000030	-0.304064	-0.103020	-0.000012
 232	2.2985e+01	9.1971	65.845684	0.000051	0.506773	0.171699	0.000020
 233	2.3084e+01	9.2324	65.882018	0.000091	0.912192	0.309059	0.000037
 234	2.3183e+01	9.2709	65.954687	0.000182	1.824383	0.618118	0.000073
 235	2.3283e+01	9.3222	65.986984	0.000081	0.810837	0.274719	0.000032
 236	2.3383e+01	9.3527	66.019281	0.000081	0.810837	0.274719	0.000032
 237	2.3482e+01	9.3992	66.035429	0.000041	0.405418	0.137359	0.000016
 238	2.3581e+01	9.4409	66.063689	0.000071	0.709482	0.240379	0.000028
 239	2.3681e+01	9.4762	66.116172	0.000132	1.317610	0.446418	0.000053
 240	2.3780e+01	9.5179	66.168655	0.000132	1.317610	0.446418	0.000053
 241	2.3880e+01	9.5516	66.229212	0.000152	1.520319	0.515098	0.000061
 242	2.3980e+01	9.5917	66.293806	0.000162	1.621674	0.549438	0.000065
 243	2.4079e+01	9.6366	66.418957	0.000314	3.141993	1.064536	0.000126
 244	2.4178e+01	9.6719	66.572368	0.000385	3.851475	1.304915	0.000154
 245	2.4278e+01	9.7152	66.641000	0.000172	1.723028	0.583778	0.000069
 246	2.4378e+01	9.7618	66.685408	0.000111	1.114901	0.377739	0.000045
 247	2.4477e+01	9.7987	66.778262	0.000233	2.331156	0.789817	0.000093
 248	2.4576e+01	9.8436	66.850931	0.000182	1.824383	0.618118	0.000073
 249	2.4676e+01	9.8757	66.955896	0.000264	2.635220	0.892837	0.000105
 250	2.4776e+01	9.9174	67.202161	0.000618	6.182632	2.094732	0.000248
 251	2.4875e+01	9.9495	67.456501	0.000639	6.385341	2.163412	0.000256
 252	2.4974e+01	9.9799	67.706803	0.000628	6.283986	2.129072	0.000252
 253	2.5074e+01	10.0329	67.949032	0.000608	6.081277	2.060392	0.000243
 254	2.5174e+01	10.0698	68.263928	0.000791	7.905660	2.678510	0.000316
 255	2.5273e+01	10.1083	68.615159	0.000882	8.817852	2.987569	0.000353
 256	2.5372e+01	10.1644	68.833164	0.000547	5.473149	1.854353	0.000219
 257	2.5472e+01	10.1997	69.083467	0.000628	6.283986	2.129072	0.000252
 258	2.5572e+01	10.2302	69.301472	0.000547	5.473149	1.854353	0.000219
 259	2.5671e+01	10.2639	69.886857	0.001470	14.696419	4.979282	0.000588
 260	2.5770e+01	10.3136	70.339016	0.001135	11.351717	3.846066	0.000454
 261	2.5870e+01	10.3473	70.799249	0.001155	11.554426	3.914746	0.000463
 262	2.5970e+01	10.3858	71.239297	0.001105	11.047653	3.743046	0.000442
 263	2.6069e+01	10.4355	71.957907	0.001804	18.041122	6.112497	0.000722
 264	2.6169e+01	10.4692	72.886449	0.002331	23.311561	7.898171	0.000933
 265	2.6268e+01	10.5125	74.016847	0.002838	28.379292	9.615165	0.001136
 266	2.6367e+01	10.5446	74.202555	0.000466	4.662312	1.579634	0.000187
 267	2.6467e+01	10.5847	74.372115	0.000426	4.256894	1.442275	0.000170
 268	2.6567e+01	10.6329	74.424597	0.000132	1.317610	0.446418	0.000053
 269	2.6666e+01	10.6585	74.428634	0.000010	0.101355	0.034340	0.000004
 270	2.6765e+01	10.7083	74.549749	0.000304	3.040638	1.030196	0.000122
 271	2.6865e+01	10.7532	74.618380	0.000172	1.723028	0.583778	0.000069
 272	2.6965e+01	10.7901	74.804088	0.000466	4.662312	1.579634	0.000187
 273	2.7064e+01	10.8318	74.953462	0.000375	3.750121	1.270575	0.000150
 274	2.7163e+01	10.8831	75.050353	0.000243	2.432511	0.824157	0.000097
 275	2.7263e+01	10.9072	75.361213	0.000780	7.804305	2.644170	0.000312
 276	2.7363e+01	10.9521	76.229197	0.002179	21.791242	7.383073	0.000872
 277	2.7462e+01	10.9938	77.190035	0.002412	24.122398	8.172890	0.000966
 278	2.7561e+01	11.0211	77.561452	0.000932	9.324625	3.159268	0.000373
 279	2.7661e+01	11.0644	77.831940	0.000679	6.790759	2.300772	0.000272
 280	2.7761e+01	11.1061	78.062057	0.000578	5.777213	1.957373	0.000231
 281	2.7860e+01	11.1606	78.316396	0.000639	6.385341	2.163412	0.000256
 282	2.7959e+01	11.1799	78.550550	0.000588	5.878568	1.991713	0.000235
 283	2.8059e+01	11.2280	78.764518	0.000537	5.371795	1.820013	0.000215
 284	2.8159e+01	11.2729	79.014821	0.000628	6.283986	2.129072	0.000252
 285	2.8258e+01	11.3018	79.248975	0.000588	5.878568	1.991713	0.000235
 286	2.8358e+01	11.3532	79.475054	0.000568	5.675858	1.923033	0.000227
 287	2.8457e+01	11.3901	79.709208	0.000588	5.878568	1.991713	0.000235
 288	2.8556e+01	11.4334	79.919139	0.000527	5.270440	1.785673	0.000211
 289	2.8656e+01	11.4655	80.181553	0.000659	6.588050	2.232092	0.000264
 290	2.8756e+01	11.4943	80.383410	0.000507	5.067731	1.716994	0.000203
 291	2.8855e+01	11.5409	80.593341	0.000527	5.270440	1.785673	0.000211
 292	2.8954e+01	11.5810	80.827495	0.000588	5.878568	1.991713	0.000235
 293	2.9054e+01	11.6259	81.085871	0.000649	6.486695	2.197752	0.000260
 294	2.9154e+01	11.6724	81.279654	0.000487	4.865022	1.648314	0.000195
 295	2.9253e+01	11.7173	81.521882	0.000608	6.081277	2.060392	0.000243
 296	2.9352e+01	11.7398	81.727776	0.000517	5.169085	1.751334	0.000207
 297	2.9452e+01	11.7863	81.953855	0.000568	5.675858	1.923033	0.000227
 298	2.9552e+01	11.8296	82.192046	0.000598	5.979922	2.026053	0.000239
 299	2.9651e+01	11.8617	82.434275	0.000608	6.081277	2.060392	0.000243
 300	2.9750e+01	11.9098	82.644206	0.000527	5.270440	1.785673	0.000211
 301	2.9850e+01	11.9451	82.858174	0.000537	5.371795	1.820013	0.000215
 302	2.9950e+01	11.9900	83.076179	0.000547	5.473149	1.854353	0.000219
 303	3.0049e+01	12.0237	83.290147	0.000537	5.371795	1.820013	0.000215
 304	3.0148e+01	12.0622	83.536413	0.000618	6.182632	2.094732	0.000248
 305	3.0248e+01	12.1071	83.746344	0.000527	5.270440	1.785673	0.000211
 306	3.0348e+01	12.1489	83.968386	0.000557	5.574504	1.888693	0.000223
 307	3.0447e+01	12.1890	84.210614	0.000608	6.081277	2.060392	0.000243
 308	3.0547e+01	12.2194	84.396323	0.000466	4.662312	1.579634	0.000187
 309	3.0646e+01	12.2660	84.646625	0.000628	6.283986	2.129072	0.000252
 310	3.0745e+01	12.3061	84.860593	0.000537	5.371795	1.820013	0.000215
 311	3.0845e+01	12.3462	85.062450	0.000507	5.067731	1.716994	0.000203
 312	3.0945e+01	12.3863	85.284492	0.000557	5.574504	1.888693	0.000223
 313	3.1044e+01	12.4152	85.494424	0.000527	5.270440	1.785673	0.000211
 314	3.1143e+01	12.4617	85.736652	0.000608	6.081277	2.060392	0.000243
 315	3.1243e+01	12.5130	85.926397	0.000476	4.763667	1.613974	0.000191
 316	3.1343e+01	12.5467	86.144402	0.000547	5.473149	1.854353	0.000219
 317	3.1442e+01	12.5868	86.390668	0.000618	6.182632	2.094732	0.000248
 318	3.1541e+01	12.6237	86.584450	0.000487	4.865022	1.648314	0.000195
 319	3.1641e+01	12.6622	86.790344	0.000517	5.169085	1.751334	0.000207
 320	3.1741e+01	12.7055	87.020461	0.000578	5.777213	1.957373	0.000231
 321	3.1840e+01	12.7392	87.210206	0.000476	4.763667	1.613974	0.000191
 322	3.1939e+01	12.7841	87.440323	0.000578	5.777213	1.957373	0.000231
 323	3.2039e+01	12.8130	87.638143	0.000497	4.966376	1.682654	0.000199
 324	3.2139e+01	12.8595	87.876334	0.000598	5.979922	2.026053	0.000239
 325	3.2238e+01	12.8980	88.058005	0.000456	4.560958	1.545294	0.000183
 326	3.2337e+01	12.9430	88.243713	0.000466	4.662312	1.579634	0.000187
 327	3.2437e+01	12.9766	88.498053	0.000639	6.385341	2.163412	0.000256
 328	3.2536e+01	13.0055	88.703946	0.000517	5.169085	1.751334	0.000207
 329	3.2636e+01	13.0520	88.921952	0.000547	5.473149	1.854353	0.000219
 330	3.2736e+01	13.0970	89.131883	0.000527	5.270440	1.785673	0.000211
 331	3.2835e+01	13.1467	89.329702	0.000497	4.966376	1.682654	0.000199
 332	3.2934e+01	13.1675	89.527522	0.000497	4.966376	1.682654	0.000199
 333	3.3034e+01	13.2221	89.749565	0.000557	5.574504	1.888693	0.000223
 334	3.3133e+01	13.2526	89.967570	0.000547	5.473149	1.854353	0.000219
 335	3.3233e+01	13.2959	90.173464	0.000517	5.169085	1.751334	0.000207
 336	3.3333e+01	13.3264	90.383395	0.000527	5.270440	1.785673	0.000211
 337	3.3432e+01	13.3761	90.633697	0.000628	6.283986	2.129072	0.000252
 338	3.3532e+01	13.4178	90.835554	0.000507	5.067731	1.716994	0.000203
 339	3.3631e+01	13.4595	91.037411	0.000507	5.067731	1.716994	0.000203
 340	3.3730e+01	13.4868	91.235231	0.000497	4.966376	1.682654	0.000199
 341	3.3830e+01	13.5349	91.424976	0.000476	4.763667	1.613974	0.000191
 342	3.3929e+01	13.5686	91.630870	0.000517	5.169085	1.751334	0.000207
 343	3.4029e+01	13.6135	91.893284	0.000659	6.588050	2.232092	0.000264
 344	3.4129e+01	13.6568	92.078992	0.000466	4.662312	1.579634	0.000187
 345	3.4228e+01	13.6921	92.284886	0.000517	5.169085	1.751334	0.000207
 346	3.4328e+01	13.7435	92.506928	0.000557	5.574504	1.888693	0.000223
 347	3.4427e+01	13.7804	92.724934	0.000547	5.473149	1.854353	0.000219
 348	3.4526e+01	13.8157	92.894493	0.000426	4.256894	1.442275	0.000170
 349	3.4626e+01	13.8606	93.120573	0.000568	5.675858	1.923033	0.000227
 350	3.4725e+01	13.8991	93.374912	0.000639	6.385341	2.163412	0.000256
 351	3.4825e+01	13.9360	93.544472	0.000426	4.256894	1.442275	0.000170
 352	3.4925e+01	13.9841	93.738255	0.000487	4.865022	1.648314	0.000195
 353	3.5024e+01	14.0210	93.952223	0.000537	5.371795	1.820013	0.000215
 354	3.5123e+01	14.0451	94.121783	0.000426	4.256894	1.442275	0.000170
 355	3.5223e+01	14.0948	94.388234	0.000669	6.689405	2.266432	0.000268
 356	3.5322e+01	14.1333	94.590090	0.000507	5.067731	1.716994	0.000203
 357	3.5422e+01	14.1670	94.731390	0.000355	3.547412	1.201896	0.000142
 358	3.5522e+01	14.2039	94.929210	0.000497	4.966376	1.682654	0.000199
 359	3.5621e+01	14.2504	95.171438	0.000608	6.081277	2.060392	0.000243
 360	3.5721e+01	14.2889	95.345035	0.000436	4.358248	1.476615	0.000174
 361	3.5820e+01	14.3354	95.563040	0.000547	5.473149	1.854353	0.000219
 362	3.5919e+01	14.3691	95.744711	0.000456	4.560958	1.545294	0.000183
 363	3.6019e+01	14.4092	95.962716	0.000547	5.473149	1.854353	0.000219
 364	3.6118e+01	14.4541	96.192833	0.000578	5.777213	1.957373	0.000231
 365	3.6218e+01	14.4942	96.354319	0.000405	4.054185	1.373595	0.000162
 366	3.6318e+01	14.5408	96.552138	0.000497	4.966376	1.682654	0.000199
 367	3.6417e+01	14.5696	96.774181	0.000557	5.574504	1.888693	0.000223
 368	3.6517e+01	14.6097	96.976038	0.000507	5.067731	1.716994	0.000203
 369	3.6616e+01	14.6515	97.169820	0.000487	4.865022	1.648314	0.000195
 370	3.6715e+01	14.6948	97.299008	0.000324	3.243348	1.098876	0.000130
 371	3.6815e+01	14.7397	97.561422	0.000659	6.588050	2.232092	0.000264
 372	3.6914e+01	14.7862	97.771353	0.000527	5.270440	1.785673	0.000211
 373	3.7014e+01	14.8167	97.965136	0.000487	4.865022	1.648314	0.000195
 374	3.7114e+01	14.8488	98.162955	0.000497	4.966376	1.682654	0.000199
 375	3.7213e+01	14.8937	98.296181	0.000334	3.344702	1.133216	0.000134
 376	3.7313e+01	14.9354	98.522261	0.000568	5.675858	1.923033	0.000227
 377	3.7412e+01	14.9707	98.732192	0.000527	5.270440	1.785673	0.000211
 378	3.7511e+01	15.0188	98.917900	0.000466	4.662312	1.579634	0.000187
 379	3.7611e+01	15.0541	99.115720	0.000497	4.966376	1.682654	0.000199
 380	3.7711e+01	15.0958	99.244908	0.000324	3.243348	1.098876	0.000130
 381	3.7810e+01	15.1263	99.293353	0.000122	1.216255	0.412078	0.000049
 382	3.7910e+01	15.1696	99.305465	0.000030	0.304064	0.103020	0.000012
 383	3.8009e+01	15.2145	99.313539	0.000020	0.202709	0.068680	0.000008
 384	3.8108e+01	15.2466	99.313539	0.000000	0.000000	0.000000	0.000000
 385	3.8208e+01	15.2819	99.386208	0.000182	1.824383	0.618118	0.000073
 386	3.8307e+01	15.3333	99.374096	-0.000030	-0.304064	-0.103020	-0.000012
 387	3.8407e+01	15.3718	99.458876	0.000213	2.128447	0.721137	0.000085
 388	3.8507e+01	15.4071	99.426579	-0.000081	-0.810837	-0.274719	-0.000032
 389	3.8606e+01	15.4520	99.483099	0.000142	1.418965	0.480758	0.000057
 390	3.8706e+01	15.4792	99.547693	0.000162	1.621674	0.549438	0.000065
 391	3.8805e+01	15.5322	99.555767	0.000020	0.202709	0.068680	0.000008
 392	3.8904e+01	15.5755	99.600176	0.000111	1.114901	0.377739	0.000045
 393	3.9004e+01	15.6076	99.701104	0.000253	2.533865	0.858497	0.000101
 394	3.9103e+01	15.6477	100.326860	0.001571	15.709965	5.322680	0.000629
 395	3.9203e+01	15.6894	101.461295	0.002848	28.480647	9.649504	0.001140
 396	3.9303e+01	15.7343	102.159720	0.001753	17.534348	5.940798	0.000702
 397	3.9402e+01	15.7680	102.502876	0.000862	8.615142	2.918889	0.000345
 398	3.9502e+01	15.8065	102.712807	0.000527	5.270440	1.785673	0.000211
 399	3.9601e+01	15.8578	102.938887	0.000568	5.675858	1.923033	0.000227
 400	3.9700e+01	15.8867	103.132670	0.000487	4.865022	1.648314	0.000195
 401	3.9800e+01	15.9381	103.338563	0.000517	5.169085	1.751334	0.000207
 402	3.9900e+01	15.9701	103.524272	0.000466	4.662312	1.579634	0.000187
 403	3.9999e+01	16.0102	103.730166	0.000517	5.169085	1.751334	0.000207
 404	4.0099e+01	16.0568	103.915874	0.000466	4.662312	1.579634	0.000187
 405	4.0198e+01	16.0792	104.113694	0.000497	4.966376	1.682654	0.000199
 406	4.0297e+01	16.1257	104.295365	0.000456	4.560958	1.545294	0.000183
 407	4.0397e+01	16.1642	104.485110	0.000476	4.763667	1.613974	0.000191
 408	4.0496e+01	16.2060	104.678893	0.000487	4.865022	1.648314	0.000195
 409	4.0596e+01	16.2493	104.896898	0.000547	5.473149	1.854353	0.000219
 410	4.0696e+01	16.2846	105.086643	0.000476	4.763667	1.613974	0.000191
 411	4.0795e+01	16.3247	105.316760	0.000578	5.777213	1.957373	0.000231
 412	4.0895e+01	16.3648	105.466134	0.000375	3.750121	1.270575	0.000150
 413	4.0994e+01	16.4097	105.667991	0.000507	5.067731	1.716994	0.000203
 414	4.1093e+01	16.4514	105.869848	0.000507	5.067731	1.716994	0.000203
 415	4.1193e+01	16.4963	106.071704	0.000507	5.067731	1.716994	0.000203
 416	4.1292e+01	16.5172	106.217041	0.000365	3.648766	1.236235	0.000146
 417	4.1392e+01	16.5669	106.426972	0.000527	5.270440	1.785673	0.000211
 418	4.1492e+01	16.6038	106.669200	0.000608	6.081277	2.060392	0.000243
 419	4.1591e+01	16.6471	106.838760	0.000426	4.256894	1.442275	0.000170
 420	4.1691e+01	16.6840	106.992171	0.000385	3.851475	1.304915	0.000154
 421	4.1790e+01	16.7289	107.210177	0.000547	5.473149	1.854353	0.000219
 422	4.1889e+01	16.7642	107.379736	0.000426	4.256894	1.442275	0.000170
 423	4.1989e+01	16.8043	107.577556	0.000497	4.966376	1.682654	0.000199
 424	4.2089e+01	16.8332	107.763264	0.000466	4.662312	1.579634	0.000187
 425	4.2188e+01	16.8829	107.940898	0.000446	4.459603	1.510954	0.000179
 426	4.2288e+01	16.9279	108.154866	0.000537	5.371795	1.820013	0.000215
 427	4.2387e+01	16.9616	108.288092	0.000334	3.344702	1.133216	0.000134
 428	4.2486e+01	17.0065	108.489949	0.000507	5.067731	1.716994	0.000203
 429	4.2586e+01	17.0418	108.716028	0.000568	5.675858	1.923033	0.000227
 430	4.2685e+01	17.0835	108.897699	0.000456	4.560958	1.545294	0.000183
 431	4.2785e+01	17.1204	109.119742	0.000557	5.574504	1.888693	0.000223
 432	4.2885e+01	17.1653	109.269116	0.000375	3.750121	1.270575	0.000150
 433	4.2984e+01	17.1974	109.458861	0.000476	4.763667	1.613974	0.000191
 434	4.3084e+01	17.2375	109.648607	0.000476	4.763667	1.613974	0.000191
 435	4.3183e+01	17.2840	109.814129	0.000416	4.155539	1.407935	0.000166
 436	4.3282e+01	17.3209	109.975615	0.000405	4.054185	1.373595	0.000162
 437	4.3382e+01	17.3530	110.161323	0.000466	4.662312	1.579634	0.000187
 438	4.3481e+01	17.4091	110.347031	0.000466	4.662312	1.579634	0.000187
 439	4.3581e+01	17.4364	110.524665	0.000446	4.459603	1.510954	0.000179
 440	4.3681e+01	17.4813	110.750745	0.000568	5.675858	1.923033	0.000227
 441	4.3780e+01	17.5343	110.952601	0.000507	5.067731	1.716994	0.000203
 442	4.3880e+01	17.5647	111.106013	0.000385	3.851475	1.304915	0.000154
 443	4.3979e+01	17.6049	111.279609	0.000436	4.358248	1.476615	0.000174
 444	4.4078e+01	17.6385	111.457243	0.000446	4.459603	1.510954	0.000179
 445	4.4178e+01	17.6770	111.671212	0.000537	5.371795	1.820013	0.000215
 446	4.4278e+01	17.7220	111.848846	0.000446	4.459603	1.510954	0.000179
 447	4.4377e+01	17.7701	112.042628	0.000487	4.865022	1.648314	0.000195
 448	4.4477e+01	17.7990	112.212188	0.000426	4.256894	1.442275	0.000170
 449	4.4576e+01	17.8375	112.405970	0.000487	4.865022	1.648314	0.000195
 450	4.4675e+01	17.8808	112.579567	0.000436	4.358248	1.476615	0.000174
 451	4.4775e+01	17.9225	112.773350	0.000487	4.865022	1.648314	0.000195
 452	4.4874e+01	17.9610	112.967132	0.000487	4.865022	1.648314	0.000195
 453	4.4974e+01	17.9947	113.132655	0.000416	4.155539	1.407935	0.000166
 454	4.5074e+01	18.0396	113.342586	0.000527	5.270440	1.785673	0.000211
 455	4.5173e+01	18.0781	113.564628	0.000557	5.574504	1.888693	0.000223
 456	4.5273e+01	18.1134	113.722077	0.000395	3.952830	1.339255	0.000158
 457	4.5372e+01	18.1615	113.895673	0.000436	4.358248	1.476615	0.000174
 458	4.5471e+01	18.1904	114.073307	0.000446	4.459603	1.510954	0.000179
 459	4.5571e+01	18.2369	114.234793	0.000405	4.054185	1.373595	0.000162
 460	4.5670e+01	18.2786	114.460872	0.000568	5.675858	1.923033	0.000227
 461	4.5770e+01	18.3187	114.634469	0.000436	4.358248	1.476615	0.000174
 462	4.5870e+01	18.3604	114.860549	0.000568	5.675858	1.923033	0.000227
 463	4.5969e+01	18.4022	115.005886	0.000365	3.648766	1.236235	0.000146
 464	4.6069e+01	18.4487	115.211780	0.000517	5.169085	1.751334	0.000207
 465	4.6168e+01	18.4776	115.389414	0.000446	4.459603	1.510954	0.000179
 466	4.6267e+01	18.5161	115.542825	0.000385	3.851475	1.304915	0.000154
 467	4.6367e+01	18.5674	115.740644	0.000497	4.966376	1.682654	0.000199
 468	4.6467e+01	18.5995	115.938464	0.000497	4.966376	1.682654	0.000199
 469	4.6566e+01	18.6348	116.103987	0.000416	4.155539	1.407935	0.000166
 470	4.6666e+01	18.6877	116.305843	0.000507	5.067731	1.716994	0.000203
 471	4.6765e+01	18.7198	116.479440	0.000436	4.358248	1.476615	0.000174
 472	4.6864e+01	18.7535	116.657074	0.000446	4.459603	1.510954	0.000179
 473	4.6964e+01	18.7936	116.838745	0.000456	4.560958	1.545294	0.000183
 474	4.7063e+01	18.8385	117.004268	0.000416	4.155539	1.407935	0.000166
 475	4.7163e+01	18.8850	117.202088	0.000497	4.966376	1.682654	0.000199
 476	4.7263e+01	18.9235	117.391833	0.000476	4.763667	1.613974	0.000191
 477	4.7362e+01	18.9604	117.557356	0.000416	4.155539	1.407935	0.000166
 478	4.7462e+01	18.9973	117.730952	0.000436	4.358248	1.476615	0.000174
 479	4.7561e+01	19.0342	117.900512	0.000426	4.256894	1.442275	0.000170
 480	4.7660e+01	19.0807	118.098332	0.000497	4.966376	1.682654	0.000199
 481	4.7760e+01	19.1225	118.271929	0.000436	4.358248	1.476615	0.000174
 482	4.7859e+01	19.1577	118.473785	0.000507	5.067731	1.716994	0.000203
 483	4.7959e+01	19.1914	118.663531	0.000476	4.763667	1.613974	0.000191
 484	4.8059e+01	19.2412	118.804830	0.000355	3.547412	1.201896	0.000142
 485	4.8158e+01	19.2781	119.006687	0.000507	5.067731	1.716994	0.000203
 486	4.8258e+01	19.3166	119.184321	0.000446	4.459603	1.510954	0.000179
 487	4.8357e+01	19.3583	119.357918	0.000436	4.358248	1.476615	0.000174
 488	4.8456e+01	19.3968	119.539589	0.000456	4.560958	1.545294	0.000183
 489	4.8556e+01	19.4337	119.717223	0.000446	4.459603	1.510954	0.000179
 490	4.8656e+01	19.4674	119.890820	0.000436	4.358248	1.476615	0.000174
 491	4.8755e+01	19.5123	120.084603	0.000487	4.865022	1.648314	0.000195
 492	4.8855e+01	19.5588	120.209754	0.000314	3.141993	1.064536	0.000126
 493	4.8954e+01	19.6005	120.464093	0.000639	6.385341	2.163412	0.000256
 494	4.9053e+01	19.6262	120.605393	0.000355	3.547412	1.201896	0.000142
 495	4.9153e+01	19.6807	120.778990	0.000436	4.358248	1.476615	0.000174
 496	4.9252e+01	19.7160	120.956624	0.000446	4.459603	1.510954	0.000179
 497	4.9352e+01	19.7465	121.174629	0.000547	5.473149	1.854353	0.000219
 498	4.9452e+01	19.7914	121.328040	0.000385	3.851475	1.304915	0.000154
 499	4.9551e+01	19.8299	121.481451	0.000385	3.851475	1.304915	0.000154
 500	4.9651e+01	19.8732	121.659085	0.000446	4.459603	1.510954	0.000179
 501	4.9750e+01	19.9149	121.812497	0.000385	3.851475	1.304915	0.000154
 502	4.9849e+01	19.9567	122.026465	0.000537	5.371795	1.820013	0.000215
 503	4.9949e+01	19.9887	122.187950	0.000405	4.054185	1.373595	0.000162
 504	5.0048e+01	19.9551	122.082985	0.000264	2.635220	0.892837	-0.000105
 505	5.0148e+01	19.9117	121.933611	0.000375	3.750121	1.270575	-0.000150
 506	5.0248e+01	19.8668	121.852868	0.000203	2.027092	0.686797	-0.000081
 507	5.0347e+01	19.8267	121.671197	0.000456	4.560958	1.545294	-0.000183
 508	5.0447e+01	19.7946	121.606603	0.000162	1.621674	0.549438	-0.000065
 509	5.0546e+01	19.7609	121.437043	0.000426	4.256894	1.442275	-0.000170
 510	5.0645e+01	19.7160	121.336115	0.000253	2.533865	0.858497	-0.000101
 511	5.0745e+01	19.6775	121.190778	0.000365	3.648766	1.236235	-0.000146
 512	5.0844e+01	19.6358	121.077738	0.000284	2.837929	0.961516	-0.000114
 513	5.0944e+01	19.5973	120.920290	0.000395	3.952830	1.339255	-0.000158
 514	5.1044e+01	19.5508	120.758804	0.000405	4.054185	1.373595	-0.000162
 515	5.1143e+01	19.5107	120.649802	0.000274	2.736575	0.927177	-0.000110
 516	5.1242e+01	19.4722	120.516576	0.000334	3.344702	1.133216	-0.000134
 517	5.1342e+01	19.4353	120.375276	0.000355	3.547412	1.201896	-0.000142
 518	5.1441e+01	19.3984	120.278385	0.000243	2.432511	0.824157	-0.000097
 519	5.1541e+01	19.3519	120.108825	0.000426	4.256894	1.442275	-0.000170
 520	5.1641e+01	19.3069	119.991748	0.000294	2.939284	0.995856	-0.000118
 521	5.1740e+01	19.2765	119.846412	0.000365	3.648766	1.236235	-0.000146
 522	5.1840e+01	19.2364	119.729335	0.000294	2.939284	0.995856	-0.000118
 523	5.1939e+01	19.1946	119.559775	0.000426	4.256894	1.442275	-0.000170
 524	5.2038e+01	19.1465	119.414438	0.000365	3.648766	1.236235	-0.000146
 525	5.2138e+01	19.1192	119.265064	0.000375	3.750121	1.270575	-0.000150
 526	5.2237e+01	19.0759	119.123764	0.000355	3.547412	1.201896	-0.000142
 527	5.2337e+01	19.0310	118.998613	0.000314	3.141993	1.064536	-0.000126
 528	5.2437e+01	18.9989	118.853276	0.000365	3.648766	1.236235	-0.000146
 529	5.2536e+01	18.9556	118.703902	0.000375	3.750121	1.270575	-0.000150
 530	5.2636e+01	18.9267	118.554528	0.000375	3.750121	1.270575	-0.000150
 531	5.2735e+01	18.8754	118.401117	0.000385	3.851475	1.304915	-0.000154
 532	5.2834e+01	18.8401	118.271929	0.000324	3.243348	1.098876	-0.000130
 533	5.2934e+01	18.7936	118.102369	0.000426	4.256894	1.442275	-0.000170
 534	5.3033e+01	18.7615	117.944921	0.000395	3.952830	1.339255	-0.000158
 535	5.3133e+01	18.7214	117.783435	0.000405	4.054185	1.373595	-0.000162
 536	5.3233e+01	18.6733	117.658284	0.000314	3.141993	1.064536	-0.000126
 537	5.3332e+01	18.6316	117.492761	0.000416	4.155539	1.407935	-0.000166
 538	5.3431e+01	18.6011	117.331276	0.000405	4.054185	1.373595	-0.000162
 539	5.3531e+01	18.5578	117.202088	0.000324	3.243348	1.098876	-0.000130
 540	5.3630e+01	18.5145	117.016379	0.000466	4.662312	1.579634	-0.000187
 541	5.3730e+01	18.4824	116.887191	0.000324	3.243348	1.098876	-0.000130
 542	5.3830e+01	18.4358	116.721668	0.000416	4.155539	1.407935	-0.000166
 543	5.3929e+01	18.3941	116.584406	0.000345	3.446057	1.167556	-0.000138
 544	5.4029e+01	18.3508	116.374475	0.000527	5.270440	1.785673	-0.000211
 545	5.4128e+01	18.3268	116.269509	0.000264	2.635220	0.892837	-0.000105
 546	5.4227e+01	18.2802	116.136284	0.000334	3.344702	1.133216	-0.000134
 547	5.4327e+01	18.2433	115.934427	0.000507	5.067731	1.716994	-0.000203
 548	5.4426e+01	18.1920	115.833499	0.000253	2.533865	0.858497	-0.000101
 549	5.4526e+01	18.1663	115.672013	0.000405	4.054185	1.373595	-0.000162
 550	5.4626e+01	18.1182	115.510528	0.000405	4.054185	1.373595	-0.000162
 551	5.4725e+01	18.0829	115.336931	0.000436	4.358248	1.476615	-0.000174
 552	5.4825e+01	18.0444	115.187557	0.000375	3.750121	1.270575	-0.000150
 553	5.4924e+01	17.9931	115.054331	0.000334	3.344702	1.133216	-0.000134
 554	5.5023e+01	17.9578	114.856512	0.000497	4.966376	1.682654	-0.000199
 555	5.5123e+01	17.9145	114.707138	0.000375	3.750121	1.270575	-0.000150
 556	5.5222e+01	17.8808	114.569875	0.000345	3.446057	1.167556	-0.000138
 557	5.5322e+01	17.8407	114.420501	0.000375	3.750121	1.270575	-0.000150
 558	5.5422e+01	17.7990	114.275164	0.000365	3.648766	1.236235	-0.000146
 559	5.5521e+01	17.7701	114.105604	0.000426	4.256894	1.442275	-0.000170
 560	5.5620e+01	17.7204	113.911822	0.000487	4.865022	1.648314	-0.000195
 561	5.5720e+01	17.6883	113.786671	0.000314	3.141993	1.064536	-0.000126
 562	5.5819e+01	17.6417	113.685742	0.000253	2.533865	0.858497	-0.000101
 563	5.5919e+01	17.6016	113.471774	0.000537	5.371795	1.820013	-0.000215
 564	5.6019e+01	17.5647	113.318363	0.000385	3.851475	1.304915	-0.000154
 565	5.6118e+01	17.5311	113.160915	0.000395	3.952830	1.339255	-0.000158
 566	5.6218e+01	17.4733	112.995392	0.000416	4.155539	1.407935	-0.000166
 567	5.6317e+01	17.4476	112.870241	0.000314	3.141993	1.064536	-0.000126
 568	5.6416e+01	17.3995	112.684533	0.000466	4.662312	1.579634	-0.000187
 569	5.6516e+01	17.3610	112.510936	0.000436	4.358248	1.476615	-0.000174
 570	5.6615e+01	17.3225	112.333302	0.000446	4.459603	1.510954	-0.000179
 571	5.6715e+01	17.2840	112.187965	0.000365	3.648766	1.236235	-0.000146
 572	5.6815e+01	17.2439	112.034554	0.000385	3.851475	1.304915	-0.000154
 573	5.6914e+01	17.1974	111.869031	0.000416	4.155539	1.407935	-0.000166
 574	5.7014e+01	17.1621	111.747917	0.000304	3.040638	1.030196	-0.000122
 575	5.7113e+01	17.1268	111.554135	0.000487	4.865022	1.648314	-0.000195
 576	5.7212e+01	17.0867	111.420909	0.000334	3.344702	1.133216	-0.000134
 577	5.7312e+01	17.0386	111.239238	0.000456	4.560958	1.545294	-0.000183
 578	5.7411e+01	17.0081	111.085827	0.000385	3.851475	1.304915	-0.000154
 579	5.7511e+01	16.9599	110.936453	0.000375	3.750121	1.270575	-0.000150
 580	5.7611e+01	16.9247	110.774968	0.000405	4.054185	1.373595	-0.000162
 581	5.7710e+01	16.8846	110.593296	0.000456	4.560958	1.545294	-0.000183
 582	5.7809e+01	16.8444	110.447960	0.000365	3.648766	1.236235	-0.000146
 583	5.7909e+01	16.8059	110.274363	0.000436	4.358248	1.476615	-0.000174
 584	5.8008e+01	16.7706	110.112877	0.000405	4.054185	1.373595	-0.000162
 585	5.8108e+01	16.7241	109.951392	0.000405	4.054185	1.373595	-0.000162
 586	5.8208e+01	16.6824	109.802018	0.000375	3.750121	1.270575	-0.000150
 587	5.8307e+01	16.6407	109.644570	0.000395	3.952830	1.339255	-0.000158
 588	5.8407e+01	16.6006	109.466936	0.000446	4.459603	1.510954	-0.000179
 589	5.8506e+01	16.5701	109.325636	0.000355	3.547412	1.201896	-0.000142
 590	5.8605e+01	16.5236	109.143965	0.000456	4.560958	1.545294	-0.000183
 591	5.8705e+01	16.4883	108.954219	0.000476	4.763667	1.613974	-0.000191
 592	5.8804e+01	16.4498	108.812920	0.000355	3.547412	1.201896	-0.000142
 593	5.8904e+01	16.3969	108.623174	0.000476	4.763667	1.613974	-0.000191
 594	5.9004e+01	16.3776	108.465726	0.000395	3.952830	1.339255	-0.000158
 595	5.9103e+01	16.3215	108.280018	0.000466	4.662312	1.579634	-0.000187
 596	5.9203e+01	16.2782	108.130644	0.000375	3.750121	1.270575	-0.000150
 597	5.9302e+01	16.2493	107.961084	0.000426	4.256894	1.442275	-0.000170
 598	5.9401e+01	16.2028	107.815747	0.000365	3.648766	1.236235	-0.000146
 599	5.9501e+01	16.1691	107.646187	0.000426	4.256894	1.442275	-0.000170
 600	5.9600e+01	16.1257	107.460479	0.000466	4.662312	1.579634	-0.000187
 601	5.9700e+01	16.0921	107.339365	0.000304	3.040638	1.030196	-0.000122
 602	5.9800e+01	16.0423	107.145582	0.000487	4.865022	1.648314	-0.000195
 603	5.9899e+01	16.0118	107.000246	0.000365	3.648766	1.236235	-0.000146
 604	5.9998e+01	15.9637	106.814537	0.000466	4.662312	1.579634	-0.000187
 605	6.0098e+01	15.9284	106.644978	0.000426	4.256894	1.442275	-0.000170
 606	6.0197e+01	15.8867	106.463307	0.000456	4.560958	1.545294	-0.000183
 607	6.0297e+01	15.8466	106.346230	0.000294	2.939284	0.995856	-0.000118
 608	6.0397e+01	15.8081	106.164559	0.000456	4.560958	1.545294	-0.000183
 609	6.0496e+01	15.7744	105.958665	0.000517	5.169085	1.751334	-0.000207
 610	6.0596e+01	15.7183	105.797179	0.000405	4.054185	1.373595	-0.000162
 611	6.0695e+01	15.6942	105.643768	0.000385	3.851475	1.304915	-0.000154
 612	6.0794e+01	15.6445	105.458060	0.000466	4.662312	1.579634	-0.000187
 613	6.0894e+01	15.6108	105.304649	0.000385	3.851475	1.304915	-0.000154
 614	6.0993e+01	15.5723	105.114903	0.000476	4.763667	1.613974	-0.000191
 615	6.1093e+01	15.5338	104.973603	0.000355	3.547412	1.201896	-0.000142
 616	6.1193e+01	15.4905	104.804044	0.000426	4.256894	1.442275	-0.000170
 617	6.1292e+01	15.4488	104.622373	0.000456	4.560958	1.545294	-0.000183
 618	6.1392e+01	15.4087	104.452813	0.000426	4.256894	1.442275	-0.000170
 619	6.1491e+01	15.3637	104.287290	0.000416	4.155539	1.407935	-0.000166
 620	6.1590e+01	15.3284	104.113694	0.000436	4.358248	1.476615	-0.000174
 621	6.1690e+01	15.3012	103.956245	0.000395	3.952830	1.339255	-0.000158
 622	6.1789e+01	15.2498	103.750351	0.000517	5.169085	1.751334	-0.000207
 623	6.1889e+01	15.2113	103.605014	0.000365	3.648766	1.236235	-0.000146
 624	6.1989e+01	15.1696	103.419306	0.000466	4.662312	1.579634	-0.000187
 625	6.2088e+01	15.1407	103.286081	0.000334	3.344702	1.133216	-0.000134
 626	6.2188e+01	15.0830	103.104410	0.000456	4.560958	1.545294	-0.000183
 627	6.2287e+01	15.0541	102.934850	0.000426	4.256894	1.442275	-0.000170
 628	6.2386e+01	15.0156	102.833922	0.000253	2.533865	0.858497	-0.000101
 629	6.2486e+01	14.9739	102.603805	0.000578	5.777213	1.957373	-0.000231
 630	6.2586e+01	14.9290	102.418097	0.000466	4.662312	1.579634	-0.000187
 631	6.2685e+01	14.8873	102.276797	0.000355	3.547412	1.201896	-0.000142
 632	6.2785e+01	14.8520	102.111274	0.000416	4.155539	1.407935	-0.000166
 633	6.2884e+01	14.8167	101.953826	0.000395	3.952830	1.339255	-0.000158
 634	6.2983e+01	14.7734	101.792340	0.000405	4.054185	1.373595	-0.000162
 635	6.3083e+01	14.7269	101.582409	0.000527	5.270440	1.785673	-0.000211
 636	6.3182e+01	14.7044	101.416887	0.000416	4.155539	1.407935	-0.000166
 637	6.3282e+01	14.6499	101.231179	0.000466	4.662312	1.579634	-0.000187
 638	6.3382e+01	14.6130	101.041433	0.000476	4.763667	1.613974	-0.000191
 639	6.3481e+01	14.5680	100.896096	0.000365	3.648766	1.236235	-0.000146
 640	6.3581e+01	14.5392	100.750759	0.000365	3.648766	1.236235	-0.000146
 641	6.3680e+01	14.4894	100.540828	0.000527	5.270440	1.785673	-0.000211
 642	6.3779e+01	14.4525	100.387417	0.000385	3.851475	1.304915	-0.000154
 643	6.3879e+01	14.4172	100.217858	0.000426	4.256894	1.442275	-0.000170
 644	6.3978e+01	14.3739	100.048298	0.000426	4.256894	1.442275	-0.000170
 645	6.4078e+01	14.3370	99.850478	0.000497	4.966376	1.682654	-0.000199
 646	6.4177e+01	14.2841	99.676881	0.000436	4.358248	1.476615	-0.000174
 647	6.4277e+01	14.2600	99.511359	0.000416	4.155539	1.407935	-0.000166
 648	6.4376e+01	14.2183	99.297391	0.000537	5.371795	1.820013	-0.000215
 649	6.4476e+01	14.1766	99.168202	0.000324	3.243348	1.098876	-0.000130
 650	6.4576e+01	14.1349	98.962308	0.000517	5.169085	1.751334	-0.000207
 651	6.4675e+01	14.0884	98.796786	0.000416	4.155539	1.407935	-0.000166
 652	6.4775e+01	14.0515	98.615115	0.000456	4.560958	1.545294	-0.000183
 653	6.4874e+01	14.0178	98.445555	0.000426	4.256894	1.442275	-0.000170
 654	6.4974e+01	13.9777	98.275995	0.000426	4.256894	1.442275	-0.000170
 655	6.5073e+01	13.9392	98.094324	0.000456	4.560958	1.545294	-0.000183
 656	6.5172e+01	13.9087	97.892467	0.000507	5.067731	1.716994	-0.000203
 657	6.5272e+01	13.8542	97.694648	0.000497	4.966376	1.682654	-0.000199
 658	6.5371e+01	13.8124	97.549311	0.000365	3.648766	1.236235	-0.000146
 659	6.5471e+01	13.7739	97.375714	0.000436	4.358248	1.476615	-0.000174
 660	6.5570e+01	13.7306	97.185969	0.000476	4.763667	1.613974	-0.000191
 661	6.5670e+01	13.6857	97.012372	0.000436	4.358248	1.476615	-0.000174
 662	6.5769e+01	13.6552	96.834738	0.000446	4.459603	1.510954	-0.000179
 663	6.5869e+01	13.6135	96.612695	0.000557	5.574504	1.888693	-0.000223
 664	6.5969e+01	13.5718	96.459284	0.000385	3.851475	1.304915	-0.000154
 665	6.6068e+01	13.5397	96.305873	0.000385	3.851475	1.304915	-0.000154
 666	6.6168e+01	13.4996	96.083831	0.000557	5.574504	1.888693	-0.000223
 667	6.6267e+01	13.4515	95.894085	0.000476	4.763667	1.613974	-0.000191
 668	6.6367e+01	13.4130	95.732600	0.000405	4.054185	1.373595	-0.000162
 669	6.6466e+01	13.3857	95.554966	0.000446	4.459603	1.510954	-0.000179
 670	6.6566e+01	13.3376	95.361183	0.000487	4.865022	1.648314	-0.000195
 671	6.6665e+01	13.2975	95.175475	0.000466	4.662312	1.579634	-0.000187
 672	6.6764e+01	13.2574	95.005915	0.000426	4.256894	1.442275	-0.000170
 673	6.6864e+01	13.2141	94.824244	0.000456	4.560958	1.545294	-0.000183
 674	6.6963e+01	13.1724	94.638536	0.000466	4.662312	1.579634	-0.000187
 675	6.7063e+01	13.1387	94.444753	0.000487	4.865022	1.648314	-0.000195
 676	6.7162e+01	13.1082	94.283268	0.000405	4.054185	1.373595	-0.000162
 677	6.7262e+01	13.0569	94.121783	0.000405	4.054185	1.373595	-0.000162
 678	6.7362e+01	13.0055	93.936074	0.000466	4.662312	1.579634	-0.000187
 679	6.7461e+01	12.9879	93.746329	0.000476	4.763667	1.613974	-0.000191
 680	6.7561e+01	12.9381	93.548509	0.000497	4.966376	1.682654	-0.000199
 681	6.7660e+01	12.9044	93.399135	0.000375	3.750121	1.270575	-0.000150
 682	6.7760e+01	12.8563	93.241687	0.000395	3.952830	1.339255	-0.000158
 683	6.7859e+01	12.8258	92.999459	0.000608	6.081277	2.060392	-0.000243
 684	6.7959e+01	12.7954	92.862196	0.000345	3.446057	1.167556	-0.000138
 685	6.8058e+01	12.7456	92.676488	0.000466	4.662312	1.579634	-0.000187
 686	6.8157e+01	12.7039	92.462520	0.000537	5.371795	1.820013	-0.000215
 687	6.8257e+01	12.6702	92.272774	0.000476	4.763667	1.613974	-0.000191
 688	6.8356e+01	12.6253	92.083029	0.000476	4.763667	1.613974	-0.000191
 689	6.8456e+01	12.5884	91.937692	0.000365	3.648766	1.236235	-0.000146
 690	6.8555e+01	12.5435	91.760058	0.000446	4.459603	1.510954	-0.000179
 691	6.8655e+01	12.5066	91.513793	0.000618	6.182632	2.094732	-0.000248
 692	6.8754e+01	12.4617	91.332122	0.000456	4.560958	1.545294	-0.000183
 693	6.8854e+01	12.4216	91.170636	0.000405	4.054185	1.373595	-0.000162
 694	6.8954e+01	12.3815	90.972817	0.000497	4.966376	1.682654	-0.000199
 695	6.9053e+01	12.3430	90.762886	0.000527	5.270440	1.785673	-0.000211
 696	6.9153e+01	12.3093	90.601400	0.000405	4.054185	1.373595	-0.000162
 697	6.9252e+01	12.2660	90.423766	0.000446	4.459603	1.510954	-0.000179
 698	6.9352e+01	12.2210	90.185575	0.000598	5.979922	2.026053	-0.000239
 699	6.9451e+01	12.1874	89.971607	0.000537	5.371795	1.820013	-0.000215
 700	6.9550e+01	12.1521	89.866642	0.000264	2.635220	0.892837	-0.000105
 701	6.9650e+01	12.1023	89.668822	0.000497	4.966376	1.682654	-0.000199
 702	6.9749e+01	12.0686	89.430631	0.000598	5.979922	2.026053	-0.000239
 703	6.9849e+01	12.0301	89.240885	0.000476	4.763667	1.613974	-0.000191
 704	6.9948e+01	11.9916	89.051140	0.000476	4.763667	1.613974	-0.000191
 705	7.0048e+01	11.9499	88.849283	0.000507	5.067731	1.716994	-0.000203
 706	7.0147e+01	11.9082	88.639352	0.000527	5.270440	1.785673	-0.000211
 707	7.0247e+01	11.8649	88.489978	0.000375	3.750121	1.270575	-0.000150
 708	7.0347e+01	11.8328	88.280047	0.000527	5.270440	1.785673	-0.000211
 709	7.0446e+01	11.7879	88.058005	0.000557	5.574504	1.888693	-0.000223
 710	7.0546e+01	11.7414	87.892482	0.000416	4.155539	1.407935	-0.000166
 711	7.0645e+01	11.7013	87.670440	0.000557	5.574504	1.888693	-0.000223
 712	7.0745e+01	11.6756	87.496843	0.000436	4.358248	1.476615	-0.000174
 713	7.0844e+01	11.6162	87.278838	0.000547	5.473149	1.854353	-0.000219
 714	7.0944e+01	11.5794	87.093129	0.000466	4.662312	1.579634	-0.000187
 715	7.1043e+01	11.5505	86.899347	0.000487	4.865022	1.648314	-0.000195
 716	7.1142e+01	11.5232	86.673267	0.000568	5.675858	1.923033	-0.000227
 717	7.1242e+01	11.4671	86.527930	0.000365	3.648766	1.236235	-0.000146
 718	7.1341e+01	11.4302	86.305888	0.000557	5.574504	1.888693	-0.000223
 719	7.1441e+01	11.3949	86.104031	0.000507	5.067731	1.716994	-0.000203
 720	7.1540e+01	11.3435	85.946583	0.000395	3.952830	1.339255	-0.000158
 721	7.1640e+01	11.3163	85.740689	0.000517	5.169085	1.751334	-0.000207
 722	7.1740e+01	11.2601	85.514609	0.000568	5.675858	1.923033	-0.000227
 723	7.1839e+01	11.2328	85.300641	0.000537	5.371795	1.820013	-0.000215
 724	7.1939e+01	11.1911	85.123007	0.000446	4.459603	1.510954	-0.000179
 725	7.2038e+01	11.1446	84.929225	0.000487	4.865022	1.648314	-0.000195
 726	7.2138e+01	11.1077	84.735442	0.000487	4.865022	1.648314	-0.000195
 727	7.2237e+01	11.0676	84.533585	0.000507	5.067731	1.716994	-0.000203
 728	7.2337e+01	11.0339	84.331728	0.000507	5.067731	1.716994	-0.000203
 729	7.2436e+01	10.9810	84.166206	0.000416	4.155539	1.407935	-0.000166
 730	7.2535e+01	10.9521	83.928015	0.000598	5.979922	2.026053	-0.000239
 731	7.2635e+01	10.9152	83.722121	0.000517	5.169085	1.751334	-0.000207
 732	7.2734e+01	10.8607	83.536413	0.000466	4.662312	1.579634	-0.000187
 733	7.2834e+01	10.8238	83.330519	0.000517	5.169085	1.751334	-0.000207
 734	7.2933e+01	10.7853	83.181145	0.000375	3.750121	1.270575	-0.000150
 735	7.3033e+01	10.7435	82.906620	0.000689	6.892114	2.335111	-0.000276
 736	7.3132e+01	10.7099	82.741097	0.000416	4.155539	1.407935	-0.000166
 737	7.3232e+01	10.6585	82.543277	0.000497	4.966376	1.682654	-0.000199
 738	7.3332e+01	10.6248	82.309123	0.000588	5.878568	1.991713	-0.000235
 739	7.3431e+01	10.5960	82.139564	0.000426	4.256894	1.442275	-0.000170
 740	7.3531e+01	10.5494	81.929633	0.000527	5.270440	1.785673	-0.000211
 741	7.3630e+01	10.5061	81.723739	0.000517	5.169085	1.751334	-0.000207
 742	7.3730e+01	10.4740	81.529956	0.000487	4.865022	1.648314	-0.000195
 743	7.3829e+01	10.4339	81.295802	0.000588	5.878568	1.991713	-0.000235
 744	7.3928e+01	10.3986	81.114131	0.000456	4.560958	1.545294	-0.000183
 745	7.4028e+01	10.3505	80.892089	0.000557	5.574504	1.888693	-0.000223
 746	7.4127e+01	10.3216	80.726566	0.000416	4.155539	1.407935	-0.000166
 747	7.4227e+01	10.2639	80.520672	0.000517	5.169085	1.751334	-0.000207
 748	7.4326e+01	10.2286	80.310741	0.000527	5.270440	1.785673	-0.000211
 749	7.4426e+01	10.1805	80.092736	0.000547	5.473149	1.854353	-0.000219
 750	7.4525e+01	10.1516	79.890879	0.000507	5.067731	1.716994	-0.000203
 751	7.4625e+01	10.1147	79.684985	0.000517	5.169085	1.751334	-0.000207
 752	7.4725e+01	10.0730	79.479091	0.000517	5.169085	1.751334	-0.000207
 753	7.4824e+01	10.0377	79.285309	0.000487	4.865022	1.648314	-0.000195
 754	7.4924e+01	9.9783	79.047118	0.000598	5.979922	2.026053	-0.000239
 755	7.5023e+01	9.9575	78.849298	0.000497	4.966376	1.682654	-0.000199
 756	7.5123e+01	9.9126	78.679738	0.000426	4.256894	1.442275	-0.000170
 757	7.5222e+01	9.8676	78.397139	0.000709	7.094823	2.403791	-0.000284
 758	7.5322e+01	9.8243	78.215468	0.000456	4.560958	1.545294	-0.000183
 759	7.5421e+01	9.8051	78.045908	0.000426	4.256894	1.442275	-0.000170
 760	7.5520e+01	9.7505	77.860200	0.000466	4.662312	1.579634	-0.000187
 761	7.5620e+01	9.7120	77.630083	0.000578	5.777213	1.957373	-0.000231
 762	7.5719e+01	9.6719	77.379781	0.000628	6.283986	2.129072	-0.000252
 763	7.5819e+01	9.6366	77.218295	0.000405	4.054185	1.373595	-0.000162
 764	7.5918e+01	9.5917	76.988179	0.000578	5.777213	1.957373	-0.000231
 765	7.6018e+01	9.5628	76.778247	0.000527	5.270440	1.785673	-0.000211
 766	7.6118e+01	9.5115	76.560242	0.000547	5.473149	1.854353	-0.000219
 767	7.6217e+01	9.4682	76.326088	0.000588	5.878568	1.991713	-0.000235
 768	7.6317e+01	9.4409	76.164603	0.000405	4.054185	1.373595	-0.000162
 769	7.6416e+01	9.3976	75.938523	0.000568	5.675858	1.923033	-0.000227
 770	7.6516e+01	9.3543	75.720518	0.000547	5.473149	1.854353	-0.000219
 771	7.6615e+01	9.3190	75.518661	0.000507	5.067731	1.716994	-0.000203
 772	7.6715e+01	9.2805	75.296619	0.000557	5.574504	1.888693	-0.000223
 773	7.6814e+01	9.2420	75.090725	0.000517	5.169085	1.751334	-0.000207
 774	7.6913e+01	9.1939	74.872719	0.000547	5.473149	1.854353	-0.000219
 775	7.7013e+01	9.1409	74.674900	0.000497	4.966376	1.682654	-0.000199
 776	7.7112e+01	9.1153	74.477080	0.000497	4.966376	1.682654	-0.000199
 777	7.7212e+01	9.0735	74.267149	0.000527	5.270440	1.785673	-0.000211
 778	7.7311e+01	9.0366	74.000698	0.000669	6.689405	2.266432	-0.000268
 779	7.7411e+01	8.9949	73.814990	0.000466	4.662312	1.579634	-0.000187
 780	7.7510e+01	8.9628	73.596985	0.000547	5.473149	1.854353	-0.000219
 781	7.7610e+01	8.9211	73.403202	0.000487	4.865022	1.648314	-0.000195
 782	7.7710e+01	8.8794	73.197308	0.000517	5.169085	1.751334	-0.000207
 783	7.7809e+01	8.8361	72.947006	0.000628	6.283986	2.129072	-0.000252
 784	7.7909e+01	8.8088	72.745149	0.000507	5.067731	1.716994	-0.000203
 785	7.8008e+01	8.7655	72.563478	0.000456	4.560958	1.545294	-0.000183
 786	7.8108e+01	8.7158	72.369695	0.000487	4.865022	1.648314	-0.000195
 787	7.8207e+01	8.6741	72.066910	0.000760	7.601596	2.575490	-0.000304
 788	7.8306e+01	8.6356	71.889276	0.000446	4.459603	1.510954	-0.000179
 789	7.8406e+01	8.5955	71.679345	0.000527	5.270440	1.785673	-0.000211
 790	7.8505e+01	8.5538	71.465377	0.000537	5.371795	1.820013	-0.000215
 791	7.8605e+01	8.5089	71.259483	0.000517	5.169085	1.751334	-0.000207
 792	7.8704e+01	8.4720	71.069738	0.000476	4.763667	1.613974	-0.000191
 793	7.8804e+01	8.4302	70.815398	0.000639	6.385341	2.163412	-0.000256
 794	7.8903e+01	8.3966	70.645838	0.000426	4.256894	1.442275	-0.000170
 795	7.9003e+01	8.3532	70.383424	0.000659	6.588050	2.232092	-0.000264
 796	7.9103e+01	8.3163	70.193679	0.000476	4.763667	1.613974	-0.000191
 797	7.9202e+01	8.2843	69.975674	0.000547	5.473149	1.854353	-0.000219
 798	7.9302e+01	8.2345	69.737483	0.000598	5.979922	2.026053	-0.000239
 799	7.9401e+01	8.2073	69.531589	0.000517	5.169085	1.751334	-0.000207
 800	7.9501e+01	8.1623	69.313583	0.000547	5.473149	1.854353	-0.000219
 801	7.9600e+01	8.1158	69.083467	0.000578	5.777213	1.957373	-0.000231
 802	7.9700e+01	8.0725	68.881610	0.000507	5.067731	1.716994	-0.000203
 803	7.9799e+01	8.0388	68.675716	0.000517	5.169085	1.751334	-0.000207
 804	7.9898e+01	8.0003	68.465785	0.000527	5.270440	1.785673	-0.000211
 805	7.9998e+01	7.9522	68.243743	0.000557	5.574504	1.888693	-0.000223
 806	8.0097e+01	7.9137	67.993440	0.000628	6.283986	2.129072	-0.000252
 807	8.0197e+01	7.8752	67.791583	0.000507	5.067731	1.716994	-0.000203
 808	8.0296e+01	7.8527	67.593764	0.000497	4.966376	1.682654	-0.000199
 809	8.0396e+01	7.8062	67.367684	0.000568	5.675858	1.923033	-0.000227
 810	8.0496e+01	7.7581	67.141604	0.000568	5.675858	1.923033	-0.000227
 811	8.0595e+01	7.7212	66.875154	0.000669	6.689405	2.266432	-0.000268
 812	8.0695e+01	7.6730	66.677334	0.000497	4.966376	1.682654	-0.000199
 813	8.0794e+01	7.6361	66.439143	0.000598	5.979922	2.026053	-0.000239
 814	8.0894e+01	7.6089	66.221138	0.000547	5.473149	1.854353	-0.000219
 815	8.0993e+01	7.5591	66.039466	0.000456	4.560958	1.545294	-0.000183
 816	8.1093e+01	7.5239	65.805313	0.000588	5.878568	1.991713	-0.000235
 817	8.1192e+01	7.4789	65.583270	0.000557	5.574504	1.888693	-0.000223
 818	8.1291e+01	7.4468	65.337005	0.000618	6.182632	2.094732	-0.000248
 819	8.1391e+01	7.4019	65.118999	0.000547	5.473149	1.854353	-0.000219
 820	8.1490e+01	7.3570	64.876771	0.000608	6.081277	2.060392	-0.000243
 821	8.1590e+01	7.3217	64.670877	0.000517	5.169085	1.751334	-0.000207
 822	8.1689e+01	7.2816	64.432686	0.000598	5.979922	2.026053	-0.000239
 823	8.1789e+01	7.2383	64.206607	0.000568	5.675858	1.923033	-0.000227
 824	8.1888e+01	7.2062	63.996676	0.000527	5.270440	1.785673	-0.000211
 825	8.1988e+01	7.1485	63.762522	0.000588	5.878568	1.991713	-0.000235
 826	8.2088e+01	7.1196	63.572776	0.000476	4.763667	1.613974	-0.000191
 827	8.2187e+01	7.0811	63.338623	0.000588	5.878568	1.991713	-0.000235
 828	8.2287e+01	7.0346	63.080246	0.000649	6.486695	2.197752	-0.000260
 829	8.2386e+01	6.9993	62.878389	0.000507	5.067731	1.716994	-0.000203
 830	8.2486e+01	6.9640	62.640198	0.000598	5.979922	2.026053	-0.000239
 831	8.2585e+01	6.9239	62.430267	0.000527	5.270440	1.785673	-0.000211
 832	8.2684e+01	6.8854	62.175928	0.000639	6.385341	2.163412	-0.000256
 833	8.2784e+01	6.8356	61.933699	0.000608	6.081277	2.060392	-0.000243
 834	8.2883e+01	6.8036	61.743954	0.000476	4.763667	1.613974	-0.000191
 835	8.2983e+01	6.7667	61.473466	0.000679	6.790759	2.300772	-0.000272
 836	8.3082e+01	6.7169	61.287758	0.000466	4.662312	1.579634	-0.000187
 837	8.3182e+01	6.6784	61.013232	0.000689	6.892114	2.335111	-0.000276
 838	8.3281e+01	6.6383	60.783116	0.000578	5.777213	1.957373	-0.000231
 839	8.3381e+01	6.6030	60.569147	0.000537	5.371795	1.820013	-0.000215
 840	8.3481e+01	6.5677	60.318845	0.000628	6.283986	2.129072	-0.000252
 841	8.3580e+01	6.5308	60.072580	0.000618	6.182632	2.094732	-0.000248
 842	8.3680e+01	6.4939	59.874760	0.000497	4.966376	1.682654	-0.000199
 843	8.3779e+01	6.4490	59.660792	0.000537	5.371795	1.820013	-0.000215
 844	8.3879e+01	6.4057	59.402415	0.000649	6.486695	2.197752	-0.000260
 845	8.3978e+01	6.3672	59.192484	0.000527	5.270440	1.785673	-0.000211
 846	8.4078e+01	6.3303	58.962367	0.000578	5.777213	1.957373	-0.000231
 847	8.4177e+01	6.2902	58.732251	0.000578	5.777213	1.957373	-0.000231
 848	8.4276e+01	6.2437	58.514245	0.000547	5.473149	1.854353	-0.000219
 849	8.4376e+01	6.2052	58.243757	0.000679	6.790759	2.300772	-0.000272
 850	8.4475e+01	6.1667	57.997492	0.000618	6.182632	2.094732	-0.000248
 851	8.4575e+01	6.1250	57.783524	0.000537	5.371795	1.820013	-0.000215
 852	8.4674e+01	6.0833	57.569556	0.000537	5.371795	1.820013	-0.000215
 853	8.4774e+01	6.0415	57.347513	0.000557	5.574504	1.888693	-0.000223
 854	8.4874e+01	6.0111	57.052802	0.000740	7.398887	2.506811	-0.000296
 855	8.4973e+01	5.9661	56.838834	0.000537	5.371795	1.820013	-0.000215
 856	8.5073e+01	5.9292	56.645052	0.000487	4.865022	1.648314	-0.000195
 857	8.5172e+01	5.8859	56.362452	0.000709	7.094823	2.403791	-0.000284
 858	8.5272e+01	5.8522	56.148484	0.000537	5.371795	1.820013	-0.000215
 859	8.5371e+01	5.8041	55.918367	0.000578	5.777213	1.957373	-0.000231
 860	8.5471e+01	5.7720	55.668065	0.000628	6.283986	2.129072	-0.000252
 861	8.5570e+01	5.7303	55.429874	0.000598	5.979922	2.026053	-0.000239
 862	8.5669e+01	5.6838	55.207831	0.000557	5.574504	1.888693	-0.000223
 863	8.5769e+01	5.6533	54.937343	0.000679	6.790759	2.300772	-0.000272
 864	8.5868e+01	5.6164	54.719338	0.000547	5.473149	1.854353	-0.000219
 865	8.5968e+01	5.5731	54.477110	0.000608	6.081277	2.060392	-0.000243
 866	8.6067e+01	5.5186	54.222770	0.000639	6.385341	2.163412	-0.000256
 867	8.6167e+01	5.4881	53.968431	0.000639	6.385341	2.163412	-0.000256
 868	8.6266e+01	5.4544	53.697942	0.000679	6.790759	2.300772	-0.000272
 869	8.6366e+01	5.4063	53.504160	0.000487	4.865022	1.648314	-0.000195
 870	8.6466e+01	5.3710	53.257895	0.000618	6.182632	2.094732	-0.000248
 871	8.6565e+01	5.3325	53.011629	0.000618	6.182632	2.094732	-0.000248
 872	8.6665e+01	5.2924	52.757290	0.000639	6.385341	2.163412	-0.000256
 873	8.6764e+01	5.2603	52.490839	0.000669	6.689405	2.266432	-0.000268
 874	8.6864e+01	5.2138	52.280908	0.000527	5.270440	1.785673	-0.000211
 875	8.6963e+01	5.1753	52.030605	0.000628	6.283986	2.129072	-0.000252
 876	8.7063e+01	5.1303	51.772229	0.000649	6.486695	2.197752	-0.000260
 877	8.7162e+01	5.0934	51.509815	0.000659	6.588050	2.232092	-0.000264
 878	8.7261e+01	5.0501	51.307958	0.000507	5.067731	1.716994	-0.000203
 879	8.7361e+01	5.0084	51.049581	0.000649	6.486695	2.197752	-0.000260
 880	8.7460e+01	4.9715	50.746796	0.000760	7.601596	2.575490	-0.000304
 881	8.7560e+01	4.9330	50.512642	0.000588	5.878568	1.991713	-0.000235
 882	8.7659e+01	4.8977	50.278488	0.000588	5.878568	1.991713	-0.000235
 883	8.7759e+01	4.8544	50.024149	0.000639	6.385341	2.163412	-0.000256
 884	8.7859e+01	4.8191	49.802106	0.000557	5.574504	1.888693	-0.000223
 885	8.7958e+01	4.7678	49.551804	0.000628	6.283986	2.129072	-0.000252
 886	8.8058e+01	4.7341	49.265167	0.000720	7.196178	2.438131	-0.000288
 887	8.8157e+01	4.6892	49.083496	0.000456	4.560958	1.545294	-0.000183
 888	8.8257e+01	4.6523	48.768600	0.000791	7.905660	2.678510	-0.000316
 889	8.8356e+01	4.6154	48.526372	0.000608	6.081277	2.060392	-0.000243
 890	8.8456e+01	4.5737	48.300292	0.000568	5.675858	1.923033	-0.000227
 891	8.8555e+01	4.5464	48.017692	0.000709	7.094823	2.403791	-0.000284
 892	8.8654e+01	4.4983	47.819873	0.000497	4.966376	1.682654	-0.000199
 893	8.8754e+01	4.4501	47.537273	0.000709	7.094823	2.403791	-0.000284
 894	8.8853e+01	4.4132	47.327342	0.000527	5.270440	1.785673	-0.000211
 895	8.8953e+01	4.3699	47.028594	0.000750	7.500242	2.541151	-0.000300
 896	8.9052e+01	4.3475	46.802515	0.000568	5.675858	1.923033	-0.000227
 897	8.9152e+01	4.2993	46.568361	0.000588	5.878568	1.991713	-0.000235
 898	8.9251e+01	4.2608	46.318058	0.000628	6.283986	2.129072	-0.000252
 899	8.9351e+01	4.2015	46.027385	0.000730	7.297532	2.472471	-0.000292
 900	8.9451e+01	4.1726	45.821491	0.000517	5.169085	1.751334	-0.000207
 901	8.9550e+01	4.1373	45.542928	0.000699	6.993468	2.369451	-0.000280
 902	8.9650e+01	4.1068	45.292626	0.000628	6.283986	2.129072	-0.000252
 903	8.9749e+01	4.0603	45.070583	0.000557	5.574504	1.888693	-0.000223
 904	8.9849e+01	4.0138	44.771835	0.000750	7.500242	2.541151	-0.000300
 905	8.9948e+01	3.9865	44.513459	0.000649	6.486695	2.197752	-0.000260
 906	9.0047e+01	3.9288	44.295453	0.000547	5.473149	1.854353	-0.000219
 907	9.0147e+01	3.8903	44.041114	0.000639	6.385341	2.163412	-0.000256
 908	9.0246e+01	3.8550	43.754477	0.000720	7.196178	2.438131	-0.000288
 909	9.0346e+01	3.8181	43.508212	0.000618	6.182632	2.094732	-0.000248
 910	9.0445e+01	3.7828	43.253872	0.000639	6.385341	2.163412	-0.000256
 911	9.0545e+01	3.7330	42.975310	0.000699	6.993468	2.369451	-0.000280
 912	9.0644e+01	3.6913	42.725008	0.000628	6.283986	2.129072	-0.000252
 913	9.0744e+01	3.6480	42.507002	0.000547	5.473149	1.854353	-0.000219
 914	9.0844e+01	3.6256	42.240551	0.000669	6.689405	2.266432	-0.000268
 915	9.0943e+01	3.5662	41.966026	0.000689	6.892114	2.335111	-0.000276
 916	9.1043e+01	3.5405	41.687464	0.000699	6.993468	2.369451	-0.000280
 917	9.1142e+01	3.4876	41.489644	0.000497	4.966376	1.682654	-0.000199
 918	9.1242e+01	3.4635	41.219156	0.000679	6.790759	2.300772	-0.000272
 919	9.1341e+01	3.4186	40.940594	0.000699	6.993468	2.369451	-0.000280
 920	9.1441e+01	3.3785	40.702403	0.000598	5.979922	2.026053	-0.000239
 921	9.1540e+01	3.3352	40.468249	0.000588	5.878568	1.991713	-0.000235
 922	9.1639e+01	3.2983	40.197761	0.000679	6.790759	2.300772	-0.000272
 923	9.1739e+01	3.2566	39.943421	0.000639	6.385341	2.163412	-0.000256
 924	9.1838e+01	3.2213	39.640636	0.000760	7.601596	2.575490	-0.000304
 925	9.1938e+01	3.1828	39.430705	0.000527	5.270440	1.785673	-0.000211
 926	9.2037e+01	3.1395	39.127920	0.000760	7.601596	2.575490	-0.000304
 927	9.2137e+01	3.0962	38.885691	0.000608	6.081277	2.060392	-0.000243
 928	9.2237e+01	3.0593	38.603092	0.000709	7.094823	2.403791	-0.000284
 929	9.2336e+01	3.0095	38.332604	0.000679	6.790759	2.300772	-0.000272
 930	9.2436e+01	2.9791	38.114599	0.000547	5.473149	1.854353	-0.000219
 931	9.2535e+01	2.9454	37.815850	0.000750	7.500242	2.541151	-0.000300
 932	9.2635e+01	2.8988	37.561511	0.000639	6.385341	2.163412	-0.000256
 933	9.2734e+01	2.8539	37.315246	0.000618	6.182632	2.094732	-0.000248
 934	9.2834e+01	2.8170	37.044758	0.000679	6.790759	2.300772	-0.000272
 935	9.2933e+01	2.7785	36.770232	0.000689	6.892114	2.335111	-0.000276
 936	9.3032e+01	2.7352	36.544153	0.000568	5.675858	1.923033	-0.000227
 937	9.3132e+01	2.6935	36.265590	0.000699	6.993468	2.369451	-0.000280
 938	9.3231e+01	2.6630	35.978954	0.000720	7.196178	2.438131	-0.000288
 939	9.3331e+01	2.6181	35.736726	0.000608	6.081277	2.060392	-0.000243
 940	9.3430e+01	2.5860	35.462200	0.000689	6.892114	2.335111	-0.000276
 941	9.3530e+01	2.5347	35.195749	0.000669	6.689405	2.266432	-0.000268
 942	9.3629e+01	2.5042	34.921224	0.000689	6.892114	2.335111	-0.000276
 943	9.3729e+01	2.4593	34.670922	0.000628	6.283986	2.129072	-0.000252
 944	9.3829e+01	2.4288	34.416582	0.000639	6.385341	2.163412	-0.000256
 945	9.3928e+01	2.3839	34.162243	0.000639	6.385341	2.163412	-0.000256
 946	9.4028e+01	2.3422	33.903866	0.000649	6.486695	2.197752	-0.000260
 947	9.4127e+01	2.2957	33.637415	0.000669	6.689405	2.266432	-0.000268
 948	9.4227e+01	2.2604	33.362890	0.000689	6.892114	2.335111	-0.000276
 949	9.4326e+01	2.2251	33.124699	0.000598	5.979922	2.026053	-0.000239
 950	9.4425e+01	2.1769	32.821914	0.000760	7.601596	2.575490	-0.000304
 951	9.4525e+01	2.1400	32.579685	0.000608	6.081277	2.060392	-0.000243
 952	9.4624e+01	2.1015	32.301123	0.000699	6.993468	2.369451	-0.000280
 953	9.4724e+01	2.0630	32.038709	0.000659	6.588050	2.232092	-0.000264
 954	9.4823e+01	2.0181	31.796481	0.000608	6.081277	2.060392	-0.000243
 955	9.4923e+01	1.9892	31.521956	0.000689	6.892114	2.335111	-0.000276
 956	9.5022e+01	1.9427	31.251468	0.000679	6.790759	2.300772	-0.000272
 957	9.5122e+01	1.9058	31.009240	0.000608	6.081277	2.060392	-0.000243
 958	9.5222e+01	1.8609	30.710492	0.000750	7.500242	2.541151	-0.000300
 959	9.5321e+01	1.8288	30.488449	0.000557	5.574504	1.888693	-0.000223
 960	9.5421e+01	1.7839	30.209887	0.000699	6.993468	2.369451	-0.000280
 961	9.5520e+01	1.7438	29.959584	0.000628	6.283986	2.129072	-0.000252
 962	9.5620e+01	1.6989	29.701208	0.000649	6.486695	2.197752	-0.000260
 963	9.5719e+01	1.6812	29.394385	0.000770	7.702951	2.609830	-0.000308
 964	9.5819e+01	1.6171	29.131971	0.000659	6.588050	2.232092	-0.000264
 965	9.5918e+01	1.5818	28.881669	0.000628	6.283986	2.129072	-0.000252
 966	9.6017e+01	1.5417	28.603107	0.000699	6.993468	2.369451	-0.000280
 967	9.6117e+01	1.4951	28.336656	0.000669	6.689405	2.266432	-0.000268
 968	9.6216e+01	1.4727	28.025796	0.000780	7.804305	2.644170	-0.000312
 969	9.6316e+01	1.4326	27.840088	0.000466	4.662312	1.579634	-0.000187
 970	9.6415e+01	1.3796	27.541340	0.000750	7.500242	2.541151	-0.000300
 971	9.6515e+01	1.3427	27.278926	0.000659	6.588050	2.232092	-0.000264
 972	9.6615e+01	1.3058	27.004401	0.000689	6.892114	2.335111	-0.000276
 973	9.6714e+01	1.2657	26.750061	0.000639	6.385341	2.163412	-0.000256
 974	9.6814e+01	1.2304	26.491685	0.000649	6.486695	2.197752	-0.000260
 975	9.6913e+01	1.1855	26.176788	0.000791	7.905660	2.678510	-0.000316
 976	9.7013e+01	1.1583	25.922449	0.000639	6.385341	2.163412	-0.000256
 977	9.7112e+01	1.1037	25.692332	0.000578	5.777213	1.957373	-0.000231
 978	9.7212e+01	1.0572	25.401658	0.000730	7.297532	2.472471	-0.000292
 979	9.7311e+01	1.0283	25.115021	0.000720	7.196178	2.438131	-0.000288
 980	9.7410e+01	0.9882	24.836459	0.000699	6.993468	2.369451	-0.000280
 981	9.7510e+01	0.9433	24.582120	0.000639	6.385341	2.163412	-0.000256
 982	9.7609e+01	0.9176	24.303557	0.000699	6.993468	2.369451	-0.000280
 983	9.7709e+01	0.8647	24.053255	0.000628	6.283986	2.129072	-0.000252
 984	9.7808e+01	0.8246	23.782767	0.000679	6.790759	2.300772	-0.000272
 985	9.7908e+01	0.7829	23.451722	0.000831	8.311078	2.815870	-0.000333
 986	9.8007e+01	0.7476	23.225642	0.000568	5.675858	1.923033	-0.000227
 987	9.8107e+01	0.6994	22.906708	0.000801	8.007015	2.712850	-0.000321
 988	9.8207e+01	0.6690	22.680629	0.000568	5.675858	1.923033	-0.000227
 989	9.8306e+01	0.6224	22.414178	0.000669	6.689405	2.266432	-0.000268
 990	9.8406e+01	0.5871	22.095244	0.000801	8.007015	2.712850	-0.000321
 991	9.8505e+01	0.5470	21.861090	0.000588	5.878568	1.991713	-0.000235
 992	9.8605e+01	0.5021	21.594639	0.000669	6.689405	2.266432	-0.000268
 993	9.8704e+01	0.4749	21.303965	0.000730	7.297532	2.472471	-0.000292
 994	9.8803e+01	0.4251	21.037514	0.000669	6.689405	2.266432	-0.000268
 995	9.8903e+01	0.3930	20.775101	0.000659	6.588050	2.232092	-0.000264
 996	9.9002e+01	0.3465	20.472315	0.000760	7.601596	2.575490	-0.000304
 997	9.9102e+01	0.3016	20.222013	0.000628	6.283986	2.129072	-0.000252
 998	9.9201e+01	0.2631	19.878856	0.000862	8.615142	2.918889	-0.000345
 999	9.9301e+01	0.2326	19.632591	0.000618	6.182632	2.094732	-0.000248
1000	9.9400e+01	0.1925	19.370177	0.000659	6.588050	2.232092	-0.000264
1001	9.9500e+01	0.1428	19.071429	0.000750	7.500242	2.541151	-0.000300
1002	9.9600e+01	0.1075	18.821127	0.000628	6.283986	2.129072	-0.000252
1003	9.9699e+01	0.0594	18.514304	0.000770	7.702951	2.609830	-0.000308
1004	9.9799e+01	0.0209	18.259965	0.000639	6.385341	2.163412	-0.000256
1005	9.9898e+01	0.0080	18.070220	0.000476	4.763667	1.613974	-0.000191
1006	9.9998e+01	-0.0385	17.779546	0.000730	7.297532	2.472471	-0.000292
1007	1.0010e+02	-0.0914	17.456575	0.000811	8.108369	2.747190	-0.000325
1008	1.0020e+02	-0.1171	17.194161	0.000659	6.588050	2.232092	-0.000264
1009	1.0030e+02	-0.1604	16.955970	0.000598	5.979922	2.026053	-0.000239
1010	1.0040e+02	-0.2037	16.673371	0.000709	7.094823	2.403791	-0.000284
1011	1.0050e+02	-0.2454	16.423068	0.000628	6.283986	2.129072	-0.000252
1012	1.0059e+02	-0.2856	16.116246	0.000770	7.702951	2.609830	-0.000308
1013	1.0069e+02	-0.3257	15.829609	0.000720	7.196178	2.438131	-0.000288
1014	1.0079e+02	-0.3561	15.563158	0.000669	6.689405	2.266432	-0.000268
1015	1.0089e+02	-0.4059	15.304782	0.000649	6.486695	2.197752	-0.000260
1016	1.0099e+02	-0.4364	15.014108	0.000730	7.297532	2.472471	-0.000292
1017	1.0109e+02	-0.4829	14.743620	0.000679	6.790759	2.300772	-0.000272
1018	1.0119e+02	-0.5326	14.420649	0.000811	8.108369	2.747190	-0.000325
1019	1.0129e+02	-0.5647	14.174384	0.000618	6.182632	2.094732	-0.000248
1020	1.0139e+02	-0.6064	13.867561	0.000770	7.702951	2.609830	-0.000308
1021	1.0149e+02	-0.6401	13.621296	0.000618	6.182632	2.094732	-0.000248
1022	1.0159e+02	-0.6770	13.322548	0.000750	7.500242	2.541151	-0.000300
1023	1.0169e+02	-0.7251	13.043986	0.000699	6.993468	2.369451	-0.000280
1024	1.0179e+02	-0.7572	12.781572	0.000659	6.588050	2.232092	-0.000264
1025	1.0189e+02	-0.8021	12.478787	0.000760	7.601596	2.575490	-0.000304
1026	1.0199e+02	-0.8390	12.240596	0.000598	5.979922	2.026053	-0.000239
1027	1.0209e+02	-0.8727	11.933773	0.000770	7.702951	2.609830	-0.000308
1028	1.0219e+02	-0.9208	11.659248	0.000689	6.892114	2.335111	-0.000276
1029	1.0229e+02	-0.9609	11.336277	0.000811	8.108369	2.747190	-0.000325
1030	1.0239e+02	-0.9962	11.065789	0.000679	6.790759	2.300772	-0.000272
1031	1.0248e+02	-1.0363	10.799338	0.000669	6.689405	2.266432	-0.000268
1032	1.0258e+02	-1.0780	10.508664	0.000730	7.297532	2.472471	-0.000292
1033	1.0268e+02	-1.1278	10.226065	0.000709	7.094823	2.403791	-0.000284
1034	1.0278e+02	-1.1567	9.935391	0.000730	7.297532	2.472471	-0.000292
1035	1.0288e+02	-1.2048	9.652792	0.000709	7.094823	2.403791	-0.000284
1036	1.0298e+02	-1.2433	9.370192	0.000709	7.094823	2.403791	-0.000284
1037	1.0308e+02	-1.2834	9.083555	0.000720	7.196178	2.438131	-0.000288
1038	1.0318e+02	-1.3251	8.804993	0.000699	6.993468	2.369451	-0.000280
1039	1.0328e+02	-1.3604	8.510282	0.000740	7.398887	2.506811	-0.000296
1040	1.0338e+02	-1.3989	8.211534	0.000750	7.500242	2.541151	-0.000300
1041	1.0348e+02	-1.4310	7.912786	0.000750	7.500242	2.541151	-0.000300
1042	1.0358e+02	-1.4727	7.674595	0.000598	5.979922	2.026053	-0.000239
1043	1.0368e+02	-1.5160	7.347587	0.000821	8.209724	2.781530	-0.000329
1044	1.0378e+02	-1.5609	7.097285	0.000628	6.283986	2.129072	-0.000252
1045	1.0388e+02	-1.5962	6.806611	0.000730	7.297532	2.472471	-0.000292
1046	1.0398e+02	-1.6395	6.495751	0.000780	7.804305	2.644170	-0.000312
1047	1.0408e+02	-1.6780	6.237375	0.000649	6.486695	2.197752	-0.000260
1048	1.0418e+02	-1.7069	5.958812	0.000699	6.993468	2.369451	-0.000280
1049	1.0428e+02	-1.7550	5.696399	0.000659	6.588050	2.232092	-0.000264
1050	1.0438e+02	-1.8016	5.389576	0.000770	7.702951	2.609830	-0.000308
1051	1.0447e+02	-1.8385	5.086791	0.000760	7.601596	2.575490	-0.000304
1052	1.0457e+02	-1.8753	4.792080	0.000740	7.398887	2.506811	-0.000296
1053	1.0467e+02	-1.9155	4.481221	0.000780	7.804305	2.644170	-0.000312
1054	1.0477e+02	-1.9524	4.243030	0.000598	5.979922	2.026053	-0.000239
1055	1.0487e+02	-2.0037	3.960430	0.000709	7.094823	2.403791	-0.000284
1056	1.0497e+02	-2.0342	3.653608	0.000770	7.702951	2.609830	-0.000308
1057	1.0507e+02	-2.0695	3.379083	0.000689	6.892114	2.335111	-0.000276
1058	1.0517e+02	-2.1224	3.092446	0.000720	7.196178	2.438131	-0.000288
1059	1.0527e+02	-2.1513	2.817921	0.000689	6.892114	2.335111	-0.000276
1060	1.0537e+02	-2.1850	2.531284	0.000720	7.196178	2.438131	-0.000288
1061	1.0547e+02	-2.2331	2.248685	0.000709	7.094823	2.403791	-0.000284
1062	1.0557e+02	-2.2732	1.974159	0.000689	6.892114	2.335111	-0.000276
1063	1.0567e+02	-2.3213	1.635040	0.000851	8.513788	2.884549	-0.000341
1064	1.0577e+02	-2.3550	1.417035	0.000547	5.473149	1.854353	-0.000219
1065	1.0587e+02	-2.3951	1.102138	0.000791	7.905660	2.678510	-0.000316
1066	1.0597e+02	-2.4336	0.795316	0.000770	7.702951	2.609830	-0.000308
1067	1.0607e+02	-2.4705	0.545013	0.000628	6.283986	2.129072	-0.000252
1068	1.0617e+02	-2.5154	0.246265	0.000750	7.500242	2.541151	-0.000300
1069	1.0627e+02	-2.5620	-0.008074	0.000639	6.385341	2.163412	-0.000256
1070	1.0637e+02	-2.5940	-0.331045	0.000811	8.108369	2.747190	-0.000325
1071	1.0647e+02	-2.6342	-0.561162	0.000578	5.777213	1.957373	-0.000231
1072	1.0656e+02	-2.6775	-0.851836	0.000730	7.297532	2.472471	-0.000292
1073	1.0666e+02	-2.7192	-1.158658	0.000770	7.702951	2.609830	-0.000308
1074	1.0676e+02	-2.7497	-1.421072	0.000659	6.588050	2.232092	-0.000264
1075	1.0686e+02	-2.7994	-1.719820	0.000750	7.500242	2.541151	-0.000300
1076	1.0696e+02	-2.8411	-1.937825	0.000547	5.473149	1.854353	-0.000219
1077	1.0706e+02	-2.8636	-2.252722	0.000791	7.905660	2.678510	-0.000316
1078	1.0716e+02	-2.9133	-2.547433	0.000740	7.398887	2.506811	-0.000296
1079	1.0726e+02	-2.9534	-2.830032	0.000709	7.094823	2.403791	-0.000284
1080	1.0736e+02	-2.9903	-3.108595	0.000699	6.993468	2.369451	-0.000280
1081	1.0746e+02	-3.0400	-3.379083	0.000679	6.790759	2.300772	-0.000272
1082	1.0756e+02	-3.0737	-3.661682	0.000709	7.094823	2.403791	-0.000284
1083	1.0766e+02	-3.1106	-3.964467	0.000760	7.601596	2.575490	-0.000304
1084	1.0776e+02	-3.1507	-4.230918	0.000669	6.689405	2.266432	-0.000268
1085	1.0786e+02	-3.1972	-4.501406	0.000679	6.790759	2.300772	-0.000272
1086	1.0796e+02	-3.2357	-4.796117	0.000740	7.398887	2.506811	-0.000296
1087	1.0806e+02	-3.2726	-5.082754	0.000720	7.196178	2.438131	-0.000288
1088	1.0816e+02	-3.3176	-5.329019	0.000618	6.182632	2.094732	-0.000248
1089	1.0826e+02	-3.3512	-5.615656	0.000720	7.196178	2.438131	-0.000288
1090	1.0836e+02	-3.3849	-5.821550	0.000517	5.169085	1.751334	-0.000207
1091	1.0845e+02	-3.4250	-6.176818	0.000892	8.919206	3.021909	-0.000357
1092	1.0855e+02	-3.4700	-6.410972	0.000588	5.878568	1.991713	-0.000235
1093	1.0865e+02	-3.5069	-6.673385	0.000659	6.588050	2.232092	-0.000264
1094	1.0875e+02	-3.5502	-7.012505	0.000851	8.513788	2.884549	-0.000341
1095	1.0885e+02	-3.5871	-7.274919	0.000659	6.588050	2.232092	-0.000264
1096	1.0895e+02	-3.6272	-7.513110	0.000598	5.979922	2.026053	-0.000239
1097	1.0905e+02	-3.6705	-7.811858	0.000750	7.500242	2.541151	-0.000300
1098	1.0915e+02	-3.7074	-8.090420	0.000699	6.993468	2.369451	-0.000280
1099	1.0925e+02	-3.7539	-8.344760	0.000639	6.385341	2.163412	-0.000256
1100	1.0935e+02	-3.7876	-8.591025	0.000618	6.182632	2.094732	-0.000248
1101	1.0945e+02	-3.8373	-8.913996	0.000811	8.108369	2.747190	-0.000325
1102	1.0955e+02	-3.8742	-9.168335	0.000639	6.385341	2.163412	-0.000256
1103	1.0965e+02	-3.9079	-9.414601	0.000618	6.182632	2.094732	-0.000248
1104	1.0975e+02	-3.9512	-9.749683	0.000841	8.412433	2.850209	-0.000337
1105	1.0985e+02	-3.9817	-10.016134	0.000669	6.689405	2.266432	-0.000268
1106	1.0995e+02	-4.0298	-10.282585	0.000669	6.689405	2.266432	-0.000268
1107	1.1005e+02	-4.0731	-10.549036	0.000669	6.689405	2.266432	-0.000268
1108	1.1015e+02	-4.1116	-10.823561	0.000689	6.892114	2.335111	-0.000276
1109	1.1025e+02	-4.1453	-11.081938	0.000649	6.486695	2.197752	-0.000260
1110	1.1035e+02	-4.1935	-11.360500	0.000699	6.993468	2.369451	-0.000280
1111	1.1044e+02	-4.2272	-11.610802	0.000628	6.283986	2.129072	-0.000252
1112	1.1054e+02	-4.2705	-11.901476	0.000730	7.297532	2.472471	-0.000292
1113	1.1064e+02	-4.3074	-12.119481	0.000547	5.473149	1.854353	-0.000219
1114	1.1074e+02	-4.3394	-12.430341	0.000780	7.804305	2.644170	-0.000312
1115	1.1084e+02	-4.3940	-12.632198	0.000507	5.067731	1.716994	-0.000203
1116	1.1094e+02	-4.4277	-12.934983	0.000760	7.601596	2.575490	-0.000304
1117	1.1104e+02	-4.4646	-13.217582	0.000709	7.094823	2.403791	-0.000284
1118	1.1114e+02	-4.4999	-13.479996	0.000659	6.588050	2.232092	-0.000264
1119	1.1124e+02	-4.5512	-13.718187	0.000598	5.979922	2.026053	-0.000239
1120	1.1134e+02	-4.5817	-13.968490	0.000628	6.283986	2.129072	-0.000252
1121	1.1144e+02	-4.6218	-14.210718	0.000608	6.081277	2.060392	-0.000243
1122	1.1154e+02	-4.6683	-14.517540	0.000770	7.702951	2.609830	-0.000308
1123	1.1164e+02	-4.7036	-14.771880	0.000639	6.385341	2.163412	-0.000256
1124	1.1174e+02	-4.7437	-15.001996	0.000578	5.777213	1.957373	-0.000231
1125	1.1184e+02	-4.7838	-15.276522	0.000689	6.892114	2.335111	-0.000276
1126	1.1194e+02	-4.8271	-15.559121	0.000709	7.094823	2.403791	-0.000284
1127	1.1204e+02	-4.8640	-15.793275	0.000588	5.878568	1.991713	-0.000235
1128	1.1214e+02	-4.8945	-16.047615	0.000639	6.385341	2.163412	-0.000256
1129	1.1224e+02	-4.9410	-16.301954	0.000639	6.385341	2.163412	-0.000256
1130	1.1234e+02	-4.9972	-16.576479	0.000689	6.892114	2.335111	-0.000276
1131	1.1244e+02	-5.0309	-16.806596	0.000578	5.777213	1.957373	-0.000231
1132	1.1253e+02	-5.0581	-17.073047	0.000669	6.689405	2.266432	-0.000268
1133	1.1263e+02	-5.0950	-17.347572	0.000689	6.892114	2.335111	-0.000276
1134	1.1273e+02	-5.1432	-17.622097	0.000689	6.892114	2.335111	-0.000276
1135	1.1283e+02	-5.1881	-17.860289	0.000598	5.979922	2.026053	-0.000239
1136	1.1293e+02	-5.2250	-18.122702	0.000659	6.588050	2.232092	-0.000264
1137	1.1303e+02	-5.2651	-18.340708	0.000547	5.473149	1.854353	-0.000219
1138	1.1313e+02	-5.3084	-18.635419	0.000740	7.398887	2.506811	-0.000296
1139	1.1323e+02	-5.3485	-18.873610	0.000598	5.979922	2.026053	-0.000239
1140	1.1333e+02	-5.3726	-19.119875	0.000618	6.182632	2.094732	-0.000248
1141	1.1343e+02	-5.4239	-19.422660	0.000760	7.601596	2.575490	-0.000304
1142	1.1353e+02	-5.4608	-19.640665	0.000547	5.473149	1.854353	-0.000219
1143	1.1363e+02	-5.5041	-19.903079	0.000659	6.588050	2.232092	-0.000264
1144	1.1373e+02	-5.5426	-20.141270	0.000598	5.979922	2.026053	-0.000239
1145	1.1383e+02	-5.5843	-20.403684	0.000659	6.588050	2.232092	-0.000264
1146	1.1393e+02	-5.6196	-20.653986	0.000628	6.283986	2.129072	-0.000252
1147	1.1403e+02	-5.6694	-20.896215	0.000608	6.081277	2.060392	-0.000243
1148	1.1413e+02	-5.6998	-21.134406	0.000598	5.979922	2.026053	-0.000239
1149	1.1423e+02	-5.7399	-21.388745	0.000639	6.385341	2.163412	-0.000256
1150	1.1433e+02	-5.7784	-21.626936	0.000598	5.979922	2.026053	-0.000239
1151	1.1442e+02	-5.8202	-21.897424	0.000679	6.790759	2.300772	-0.000272
1152	1.1452e+02	-5.8635	-22.151764	0.000639	6.385341	2.163412	-0.000256
1153	1.1462e+02	-5.9004	-22.406103	0.000639	6.385341	2.163412	-0.000256
1154	1.1472e+02	-5.9405	-22.628146	0.000557	5.574504	1.888693	-0.000223
1155	1.1482e+02	-5.9758	-22.858263	0.000578	5.777213	1.957373	-0.000231
1156	1.1492e+02	-6.0111	-23.116639	0.000649	6.486695	2.197752	-0.000260
1157	1.1502e+02	-6.0624	-23.383090	0.000669	6.689405	2.266432	-0.000268
1158	1.1512e+02	-6.0961	-23.633393	0.000628	6.283986	2.129072	-0.000252
1159	1.1522e+02	-6.1394	-23.907918	0.000689	6.892114	2.335111	-0.000276
1160	1.1532e+02	-6.1747	-24.154183	0.000618	6.182632	2.094732	-0.000248
1161	1.1542e+02	-6.2148	-24.376226	0.000557	5.574504	1.888693	-0.000223
1162	1.1552e+02	-6.2581	-24.650751	0.000689	6.892114	2.335111	-0.000276
1163	1.1562e+02	-6.3062	-24.872793	0.000557	5.574504	1.888693	-0.000223
1164	1.1572e+02	-6.3399	-25.090799	0.000547	5.473149	1.854353	-0.000219
1165	1.1582e+02	-6.3897	-25.361287	0.000679	6.790759	2.300772	-0.000272
1166	1.1592e+02	-6.4217	-25.615626	0.000639	6.385341	2.163412	-0.000256
1167	1.1602e+02	-6.4522	-25.861892	0.000618	6.182632	2.094732	-0.000248
1168	1.1612e+02	-6.4923	-26.059711	0.000497	4.966376	1.682654	-0.000199
1169	1.1622e+02	-6.5389	-26.346348	0.000720	7.196178	2.438131	-0.000288
1170	1.1632e+02	-6.5677	-26.560316	0.000537	5.371795	1.820013	-0.000215
1171	1.1642e+02	-6.6143	-26.846953	0.000720	7.196178	2.438131	-0.000288
1172	1.1651e+02	-6.6447	-27.060921	0.000537	5.371795	1.820013	-0.000215
1173	1.1661e+02	-6.6977	-27.282963	0.000557	5.574504	1.888693	-0.000223
1174	1.1671e+02	-6.7410	-27.533266	0.000628	6.283986	2.129072	-0.000252
1175	1.1681e+02	-6.7747	-27.771457	0.000598	5.979922	2.026053	-0.000239
1176	1.1691e+02	-6.8164	-28.025796	0.000639	6.385341	2.163412	-0.000256
1177	1.1701e+02	-6.8533	-28.251876	0.000568	5.675858	1.923033	-0.000227
1178	1.1711e+02	-6.8950	-28.477955	0.000568	5.675858	1.923033	-0.000227
1179	1.1721e+02	-6.9351	-28.724221	0.000618	6.182632	2.094732	-0.000248
1180	1.1731e+02	-6.9704	-28.986635	0.000659	6.588050	2.232092	-0.000264
1181	1.1741e+02	-7.0105	-29.204640	0.000547	5.473149	1.854353	-0.000219
1182	1.1751e+02	-7.0634	-29.442831	0.000598	5.979922	2.026053	-0.000239
1183	1.1761e+02	-7.1051	-29.701208	0.000649	6.486695	2.197752	-0.000260
1184	1.1771e+02	-7.1340	-29.927287	0.000568	5.675858	1.923033	-0.000227
1185	1.1781e+02	-7.1693	-30.165478	0.000598	5.979922	2.026053	-0.000239
1186	1.1791e+02	-7.2126	-30.407706	0.000608	6.081277	2.060392	-0.000243
1187	1.1801e+02	-7.2543	-30.645897	0.000598	5.979922	2.026053	-0.000239
1188	1.1811e+02	-7.2977	-30.855828	0.000527	5.270440	1.785673	-0.000211
1189	1.1821e+02	-7.3249	-31.134391	0.000699	6.993468	2.369451	-0.000280
1190	1.1831e+02	-7.3650	-31.299913	0.000416	4.155539	1.407935	-0.000166
1191	1.1841e+02	-7.4180	-31.594624	0.000740	7.398887	2.506811	-0.000296
1192	1.1850e+02	-7.4581	-31.840890	0.000618	6.182632	2.094732	-0.000248
1193	1.1860e+02	-7.4934	-32.066969	0.000568	5.675858	1.923033	-0.000227
1194	1.1870e+02	-7.5303	-32.284974	0.000547	5.473149	1.854353	-0.000219
1195	1.1880e+02	-7.5640	-32.539314	0.000639	6.385341	2.163412	-0.000256
1196	1.1890e+02	-7.6057	-32.733097	0.000487	4.865022	1.648314	-0.000195
1197	1.1900e+02	-7.6570	-33.015696	0.000709	7.094823	2.403791	-0.000284
1198	1.1910e+02	-7.6891	-33.221590	0.000517	5.169085	1.751334	-0.000207
1199	1.1920e+02	-7.7340	-33.479967	0.000649	6.486695	2.197752	-0.000260
1200	1.1930e+02	-7.7725	-33.673749	0.000487	4.865022	1.648314	-0.000195
1201	1.1940e+02	-7.8158	-33.915977	0.000608	6.081277	2.060392	-0.000243
1202	1.1950e+02	-7.8527	-34.125908	0.000527	5.270440	1.785673	-0.000211
1203	1.1960e+02	-7.8848	-34.392359	0.000669	6.689405	2.266432	-0.000268
1204	1.1970e+02	-7.9297	-34.683033	0.000730	7.297532	2.472471	-0.000292
1205	1.1980e+02	-7.9778	-34.909113	0.000568	5.675858	1.923033	-0.000227
1206	1.1990e+02	-8.0164	-35.135192	0.000568	5.675858	1.923033	-0.000227
1207	1.2000e+02	-8.0500	-35.337049	0.000507	5.067731	1.716994	-0.000203
1208	1.2010e+02	-8.0853	-35.595426	0.000649	6.486695	2.197752	-0.000260
1209	1.2020e+02	-8.1254	-35.817468	0.000557	5.574504	1.888693	-0.000223
1210	1.2030e+02	-8.1752	-36.043548	0.000568	5.675858	1.923033	-0.000227
1211	1.2039e+02	-8.2201	-36.241368	0.000497	4.966376	1.682654	-0.000199
1212	1.2049e+02	-8.2506	-36.532041	0.000730	7.297532	2.472471	-0.000292
1213	1.2059e+02	-8.2810	-36.746009	0.000537	5.371795	1.820013	-0.000215
1214	1.2069e+02	-8.3308	-36.992275	0.000618	6.182632	2.094732	-0.000248
1215	1.2079e+02	-8.3741	-37.238540	0.000618	6.182632	2.094732	-0.000248
1216	1.2089e+02	-8.4094	-37.460583	0.000557	5.574504	1.888693	-0.000223
1217	1.2099e+02	-8.4431	-37.674551	0.000537	5.371795	1.820013	-0.000215
1218	1.2109e+02	-8.4832	-37.928890	0.000639	6.385341	2.163412	-0.000256
1219	1.2119e+02	-8.5345	-38.163044	0.000588	5.878568	1.991713	-0.000235
1220	1.2129e+02	-8.5730	-38.364901	0.000507	5.067731	1.716994	-0.000203
1221	1.2139e+02	-8.5987	-38.635389	0.000679	6.790759	2.300772	-0.000272
1222	1.2149e+02	-8.6564	-38.869543	0.000588	5.878568	1.991713	-0.000235
1223	1.2159e+02	-8.6885	-39.051214	0.000456	4.560958	1.545294	-0.000183
1224	1.2169e+02	-8.7270	-39.273256	0.000557	5.574504	1.888693	-0.000223
1225	1.2179e+02	-8.7671	-39.539707	0.000669	6.689405	2.266432	-0.000268
1226	1.2189e+02	-8.8153	-39.753676	0.000537	5.371795	1.820013	-0.000215
1227	1.2199e+02	-8.8393	-39.983792	0.000578	5.777213	1.957373	-0.000231
1228	1.2209e+02	-8.8874	-40.217946	0.000588	5.878568	1.991713	-0.000235
1229	1.2219e+02	-8.9340	-40.444026	0.000568	5.675858	1.923033	-0.000227
1230	1.2229e+02	-8.9677	-40.674143	0.000578	5.777213	1.957373	-0.000231
1231	1.2239e+02	-8.9997	-40.912334	0.000598	5.979922	2.026053	-0.000239
1232	1.2248e+02	-9.0415	-41.126302	0.000537	5.371795	1.820013	-0.000215
1233	1.2258e+02	-9.0848	-41.336233	0.000527	5.270440	1.785673	-0.000211
1234	1.2268e+02	-9.1297	-41.594610	0.000649	6.486695	2.197752	-0.000260
1235	1.2278e+02	-9.1698	-41.772243	0.000446	4.459603	1.510954	-0.000179
1236	1.2288e+02	-9.2083	-42.058880	0.000720	7.196178	2.438131	-0.000288
1237	1.2298e+02	-9.2436	-42.220366	0.000405	4.054185	1.373595	-0.000162
1238	1.2308e+02	-9.2933	-42.494891	0.000689	6.892114	2.335111	-0.000276
1239	1.2318e+02	-9.3414	-42.680599	0.000466	4.662312	1.579634	-0.000187
1240	1.2328e+02	-9.3703	-42.918790	0.000598	5.979922	2.026053	-0.000239
1241	1.2338e+02	-9.4072	-43.205427	0.000720	7.196178	2.438131	-0.000288
1242	1.2348e+02	-9.4457	-43.362875	0.000395	3.952830	1.339255	-0.000158
1243	1.2358e+02	-9.4906	-43.576843	0.000537	5.371795	1.820013	-0.000215
1244	1.2368e+02	-9.5195	-43.847331	0.000679	6.790759	2.300772	-0.000272
1245	1.2378e+02	-9.5676	-44.077448	0.000578	5.777213	1.957373	-0.000231
1246	1.2388e+02	-9.6158	-44.283342	0.000517	5.169085	1.751334	-0.000207
1247	1.2398e+02	-9.6350	-44.485199	0.000507	5.067731	1.716994	-0.000203
1248	1.2408e+02	-9.6799	-44.695130	0.000527	5.270440	1.785673	-0.000211
1249	1.2418e+02	-9.7281	-44.921209	0.000568	5.675858	1.923033	-0.000227
1250	1.2428e+02	-9.7634	-45.167475	0.000618	6.182632	2.094732	-0.000248
1251	1.2438e+02	-9.8051	-45.409703	0.000608	6.081277	2.060392	-0.000243
1252	1.2447e+02	-9.8356	-45.546965	0.000345	3.446057	1.167556	-0.000138
1253	1.2457e+02	-9.8837	-45.793231	0.000618	6.182632	2.094732	-0.000248
1254	1.2467e+02	-9.9238	-46.011236	0.000547	5.473149	1.854353	-0.000219
1255	1.2477e+02	-9.9575	-46.257501	0.000618	6.182632	2.094732	-0.000248
1256	1.2487e+02	-10.0072	-46.463395	0.000517	5.169085	1.751334	-0.000207
1257	1.2497e+02	-10.0441	-46.701586	0.000598	5.979922	2.026053	-0.000239
1258	1.2507e+02	-10.0762	-46.883257	0.000456	4.560958	1.545294	-0.000183
1259	1.2517e+02	-10.1259	-47.157783	0.000689	6.892114	2.335111	-0.000276
1260	1.2527e+02	-10.1724	-47.351565	0.000487	4.865022	1.648314	-0.000195
1261	1.2537e+02	-10.2109	-47.561496	0.000527	5.270440	1.785673	-0.000211
1262	1.2547e+02	-10.2446	-47.807761	0.000618	6.182632	2.094732	-0.000248
1263	1.2557e+02	-10.2928	-48.025767	0.000547	5.473149	1.854353	-0.000219
1264	1.2567e+02	-10.3200	-48.239735	0.000537	5.371795	1.820013	-0.000215
1265	1.2577e+02	-10.3601	-48.449666	0.000527	5.270440	1.785673	-0.000211
1266	1.2587e+02	-10.3970	-48.679783	0.000578	5.777213	1.957373	-0.000231
1267	1.2597e+02	-10.4516	-48.897788	0.000547	5.473149	1.854353	-0.000219
1268	1.2607e+02	-10.4837	-49.135979	0.000598	5.979922	2.026053	-0.000239
1269	1.2617e+02	-10.5125	-49.313613	0.000446	4.459603	1.510954	-0.000179
1270	1.2627e+02	-10.5639	-49.543730	0.000578	5.777213	1.957373	-0.000231
1271	1.2636e+02	-10.5944	-49.789995	0.000618	6.182632	2.094732	-0.000248
1272	1.2646e+02	-10.6473	-50.012038	0.000557	5.574504	1.888693	-0.000223
1273	1.2656e+02	-10.6826	-50.197746	0.000466	4.662312	1.579634	-0.000187
1274	1.2666e+02	-10.7259	-50.419788	0.000557	5.574504	1.888693	-0.000223
1275	1.2676e+02	-10.7516	-50.621645	0.000507	5.067731	1.716994	-0.000203
1276	1.2686e+02	-10.8061	-50.859836	0.000598	5.979922	2.026053	-0.000239
1277	1.2696e+02	-10.8446	-51.049581	0.000476	4.763667	1.613974	-0.000191
1278	1.2706e+02	-10.8847	-51.299884	0.000628	6.283986	2.129072	-0.000252
1279	1.2716e+02	-10.9264	-51.521926	0.000557	5.574504	1.888693	-0.000223
1280	1.2726e+02	-10.9585	-51.715709	0.000487	4.865022	1.648314	-0.000195
1281	1.2736e+02	-11.0018	-51.909491	0.000487	4.865022	1.648314	-0.000195
1282	1.2746e+02	-11.0403	-52.147682	0.000598	5.979922	2.026053	-0.000239
1283	1.2756e+02	-11.0820	-52.353576	0.000517	5.169085	1.751334	-0.000207
1284	1.2766e+02	-11.1205	-52.579656	0.000568	5.675858	1.923033	-0.000227
1285	1.2776e+02	-11.1639	-52.838033	0.000649	6.486695	2.197752	-0.000260
1286	1.2786e+02	-11.1959	-53.003555	0.000416	4.155539	1.407935	-0.000166
1287	1.2796e+02	-11.2393	-53.205412	0.000507	5.067731	1.716994	-0.000203
1288	1.2806e+02	-11.2778	-53.435529	0.000578	5.777213	1.957373	-0.000231
1289	1.2816e+02	-11.3307	-53.657571	0.000557	5.574504	1.888693	-0.000223
1290	1.2826e+02	-11.3548	-53.911911	0.000639	6.385341	2.163412	-0.000256
1291	1.2835e+02	-11.4013	-54.081470	0.000426	4.256894	1.442275	-0.000170
1292	1.2845e+02	-11.4382	-54.279290	0.000497	4.966376	1.682654	-0.000199
1293	1.2855e+02	-11.4735	-54.469035	0.000476	4.763667	1.613974	-0.000191
1294	1.2865e+02	-11.5184	-54.723375	0.000639	6.385341	2.163412	-0.000256
1295	1.2875e+02	-11.5585	-54.945417	0.000557	5.574504	1.888693	-0.000223
1296	1.2885e+02	-11.6002	-55.159386	0.000537	5.371795	1.820013	-0.000215
1297	1.2895e+02	-11.6291	-55.357205	0.000497	4.966376	1.682654	-0.000199
1298	1.2905e+02	-11.6772	-55.546951	0.000476	4.763667	1.613974	-0.000191
1299	1.2915e+02	-11.7205	-55.801290	0.000639	6.385341	2.163412	-0.000256
1300	1.2925e+02	-11.7558	-55.970850	0.000426	4.256894	1.442275	-0.000170
1301	1.2935e+02	-11.7943	-56.200967	0.000578	5.777213	1.957373	-0.000231
1302	1.2945e+02	-11.8328	-56.431083	0.000578	5.777213	1.957373	-0.000231
1303	1.2955e+02	-11.8777	-56.649089	0.000547	5.473149	1.854353	-0.000219
1304	1.2965e+02	-11.9227	-56.863057	0.000537	5.371795	1.820013	-0.000215
1305	1.2975e+02	-11.9483	-57.068951	0.000517	5.169085	1.751334	-0.000207
1306	1.2985e+02	-11.9948	-57.274845	0.000517	5.169085	1.751334	-0.000207
1307	1.2995e+02	-12.0382	-57.500924	0.000568	5.675858	1.923033	-0.000227
1308	1.3005e+02	-12.0799	-57.718930	0.000547	5.473149	1.854353	-0.000219
1309	1.3015e+02	-12.1184	-57.916749	0.000497	4.966376	1.682654	-0.000199
1310	1.3025e+02	-12.1649	-58.150903	0.000588	5.878568	1.991713	-0.000235
1311	1.3034e+02	-12.2002	-58.356797	0.000517	5.169085	1.751334	-0.000207
1312	1.3044e+02	-12.2371	-58.619211	0.000659	6.588050	2.232092	-0.000264
1313	1.3054e+02	-12.2740	-58.825105	0.000517	5.169085	1.751334	-0.000207
1314	1.3064e+02	-12.3157	-59.063296	0.000598	5.979922	2.026053	-0.000239
1315	1.3074e+02	-12.3446	-59.265153	0.000507	5.067731	1.716994	-0.000203
1316	1.3084e+02	-12.3959	-59.450861	0.000466	4.662312	1.579634	-0.000187
1317	1.3094e+02	-12.4392	-59.713275	0.000659	6.588050	2.232092	-0.000264
1318	1.3104e+02	-12.4729	-59.915131	0.000507	5.067731	1.716994	-0.000203
1319	1.3114e+02	-12.5066	-60.129100	0.000537	5.371795	1.820013	-0.000215
1320	1.3124e+02	-12.5676	-60.355179	0.000568	5.675858	1.923033	-0.000227
1321	1.3134e+02	-12.5980	-60.589333	0.000588	5.878568	1.991713	-0.000235
1322	1.3144e+02	-12.6301	-60.787153	0.000497	4.966376	1.682654	-0.000199
1323	1.3154e+02	-12.6686	-61.017270	0.000578	5.777213	1.957373	-0.000231
1324	1.3164e+02	-12.7119	-61.239312	0.000557	5.574504	1.888693	-0.000223
1325	1.3174e+02	-12.7569	-61.465392	0.000568	5.675858	1.923033	-0.000227
1326	1.3184e+02	-12.8034	-61.675323	0.000527	5.270440	1.785673	-0.000211
1327	1.3194e+02	-12.8290	-61.929662	0.000639	6.385341	2.163412	-0.000256
1328	1.3204e+02	-12.8708	-62.115370	0.000466	4.662312	1.579634	-0.000187
1329	1.3214e+02	-12.9125	-62.333376	0.000547	5.473149	1.854353	-0.000219
1330	1.3224e+02	-12.9430	-62.583678	0.000628	6.283986	2.129072	-0.000252
1331	1.3234e+02	-12.9815	-62.765349	0.000456	4.560958	1.545294	-0.000183
1332	1.3243e+02	-13.0344	-63.043912	0.000699	6.993468	2.369451	-0.000280
1333	1.3253e+02	-13.0665	-63.237694	0.000487	4.865022	1.648314	-0.000195
1334	1.3263e+02	-13.1162	-63.500108	0.000659	6.588050	2.232092	-0.000264
1335	1.3273e+02	-13.1499	-63.689853	0.000476	4.763667	1.613974	-0.000191
1336	1.3283e+02	-13.1884	-63.899784	0.000527	5.270440	1.785673	-0.000211
1337	1.3293e+02	-13.2349	-64.133938	0.000588	5.878568	1.991713	-0.000235
1338	1.3303e+02	-13.2670	-64.384241	0.000628	6.283986	2.129072	-0.000252
1339	1.3313e+02	-13.3103	-64.606283	0.000557	5.574504	1.888693	-0.000223
1340	1.3323e+02	-13.3488	-64.816214	0.000527	5.270440	1.785673	-0.000211
1341	1.3333e+02	-13.3905	-65.082665	0.000669	6.689405	2.266432	-0.000268
1342	1.3343e+02	-13.4274	-65.296633	0.000537	5.371795	1.820013	-0.000215
1343	1.3353e+02	-13.4611	-65.555010	0.000649	6.486695	2.197752	-0.000260
1344	1.3363e+02	-13.5076	-65.736681	0.000456	4.560958	1.545294	-0.000183
1345	1.3373e+02	-13.5477	-65.978909	0.000608	6.081277	2.060392	-0.000243
1346	1.3383e+02	-13.5879	-66.209026	0.000578	5.777213	1.957373	-0.000231
1347	1.3393e+02	-13.6360	-66.431069	0.000557	5.574504	1.888693	-0.000223
1348	1.3403e+02	-13.6697	-66.636962	0.000517	5.169085	1.751334	-0.000207
1349	1.3413e+02	-13.7082	-66.943785	0.000770	7.702951	2.609830	-0.000308
1350	1.3423e+02	-13.7451	-67.137567	0.000487	4.865022	1.648314	-0.000195
1351	1.3432e+02	-13.7868	-67.359610	0.000557	5.574504	1.888693	-0.000223
1352	1.3442e+02	-13.8317	-67.569541	0.000527	5.270440	1.785673	-0.000211
1353	1.3452e+02	-13.8702	-67.840029	0.000679	6.790759	2.300772	-0.000272
1354	1.3462e+02	-13.9119	-68.094368	0.000639	6.385341	2.163412	-0.000256
1355	1.3472e+02	-13.9488	-68.292188	0.000497	4.966376	1.682654	-0.000199
1356	1.3482e+02	-13.9793	-68.522305	0.000578	5.777213	1.957373	-0.000231
1357	1.3492e+02	-14.0306	-68.776644	0.000639	6.385341	2.163412	-0.000256
1358	1.3502e+02	-14.0627	-69.018873	0.000608	6.081277	2.060392	-0.000243
1359	1.3512e+02	-14.0980	-69.244952	0.000568	5.675858	1.923033	-0.000227
1360	1.3522e+02	-14.1445	-69.462958	0.000547	5.473149	1.854353	-0.000219
1361	1.3532e+02	-14.1878	-69.713260	0.000628	6.283986	2.129072	-0.000252
1362	1.3542e+02	-14.2247	-69.983748	0.000679	6.790759	2.300772	-0.000272
1363	1.3552e+02	-14.2600	-70.225976	0.000608	6.081277	2.060392	-0.000243
1364	1.3562e+02	-14.3033	-70.452056	0.000568	5.675858	1.923033	-0.000227
1365	1.3572e+02	-14.3499	-70.670061	0.000547	5.473149	1.854353	-0.000219
1366	1.3582e+02	-14.3868	-70.948623	0.000699	6.993468	2.369451	-0.000280
1367	1.3592e+02	-14.4269	-71.198926	0.000628	6.283986	2.129072	-0.000252
1368	1.3602e+02	-14.4606	-71.453265	0.000639	6.385341	2.163412	-0.000256
1369	1.3612e+02	-14.5167	-71.675308	0.000557	5.574504	1.888693	-0.000223
1370	1.3622e+02	-14.5456	-71.953870	0.000699	6.993468	2.369451	-0.000280
1371	1.3631e+02	-14.5809	-72.175913	0.000557	5.574504	1.888693	-0.000223
1372	1.3641e+02	-14.6226	-72.474661	0.000750	7.500242	2.541151	-0.000300
1373	1.3651e+02	-14.6627	-72.644220	0.000426	4.256894	1.442275	-0.000170
1374	1.3661e+02	-14.7028	-72.938931	0.000740	7.398887	2.506811	-0.000296
1375	1.3671e+02	-14.7413	-73.156937	0.000547	5.473149	1.854353	-0.000219
1376	1.3681e+02	-14.7862	-73.423388	0.000669	6.689405	2.266432	-0.000268
1377	1.3691e+02	-14.8247	-73.669653	0.000618	6.182632	2.094732	-0.000248
1378	1.3701e+02	-14.8584	-73.972438	0.000760	7.601596	2.575490	-0.000304
1379	1.3711e+02	-14.8985	-74.198518	0.000568	5.675858	1.923033	-0.000227
1380	1.3721e+02	-14.9418	-74.464969	0.000669	6.689405	2.266432	-0.000268
1381	1.3731e+02	-14.9851	-74.735457	0.000679	6.790759	2.300772	-0.000272
1382	1.3741e+02	-15.0188	-74.997871	0.000659	6.588050	2.232092	-0.000264
1383	1.3751e+02	-15.0589	-75.264322	0.000669	6.689405	2.266432	-0.000268
1384	1.3761e+02	-15.1151	-75.506550	0.000608	6.081277	2.060392	-0.000243
1385	1.3771e+02	-15.1472	-75.764926	0.000649	6.486695	2.197752	-0.000260
1386	1.3781e+02	-15.1744	-76.007155	0.000608	6.081277	2.060392	-0.000243
1387	1.3791e+02	-15.2210	-76.293791	0.000720	7.196178	2.438131	-0.000288
1388	1.3801e+02	-15.2579	-76.552168	0.000649	6.486695	2.197752	-0.000260
1389	1.3811e+02	-15.3076	-76.871102	0.000801	8.007015	2.712850	-0.000321
1390	1.3821e+02	-15.3397	-77.097181	0.000568	5.675858	1.923033	-0.000227
1391	1.3831e+02	-15.3878	-77.347484	0.000628	6.283986	2.129072	-0.000252
1392	1.3840e+02	-15.4327	-77.613935	0.000669	6.689405	2.266432	-0.000268
1393	1.3850e+02	-15.4584	-77.852126	0.000598	5.979922	2.026053	-0.000239
1394	1.3860e+02	-15.5065	-78.158948	0.000770	7.702951	2.609830	-0.000308
1395	1.3870e+02	-15.5482	-78.453659	0.000740	7.398887	2.506811	-0.000296
1396	1.3880e+02	-15.5755	-78.699924	0.000618	6.182632	2.094732	-0.000248
1397	1.3890e+02	-15.6268	-79.018858	0.000801	8.007015	2.712850	-0.000321
1398	1.3900e+02	-15.6637	-79.244937	0.000568	5.675858	1.923033	-0.000227
1399	1.3910e+02	-15.7054	-79.531574	0.000720	7.196178	2.438131	-0.000288
1400	1.3920e+02	-15.7504	-79.826285	0.000740	7.398887	2.506811	-0.000296
1401	1.3930e+02	-15.7824	-80.060439	0.000588	5.878568	1.991713	-0.000235
1402	1.3940e+02	-15.8113	-80.306704	0.000618	6.182632	2.094732	-0.000248
1403	1.3950e+02	-15.8562	-80.613526	0.000770	7.702951	2.609830	-0.000308
1404	1.3960e+02	-15.8979	-80.948609	0.000841	8.412433	2.850209	-0.000337
1405	1.3970e+02	-15.9477	-81.190837	0.000608	6.081277	2.060392	-0.000243
1406	1.3980e+02	-15.9750	-81.465362	0.000689	6.892114	2.335111	-0.000276
1407	1.3990e+02	-16.0135	-81.756036	0.000730	7.297532	2.472471	-0.000292
1408	1.4000e+02	-16.0664	-82.034598	0.000699	6.993468	2.369451	-0.000280
1409	1.4010e+02	-16.0985	-82.321235	0.000720	7.196178	2.438131	-0.000288
1410	1.4020e+02	-16.1402	-82.595760	0.000689	6.892114	2.335111	-0.000276
1411	1.4029e+02	-16.1771	-82.906620	0.000780	7.804305	2.644170	-0.000312
1412	1.4039e+02	-16.2172	-83.173070	0.000669	6.689405	2.266432	-0.000268
1413	1.4049e+02	-16.2557	-83.439521	0.000669	6.689405	2.266432	-0.000268
1414	1.4059e+02	-16.2990	-83.754418	0.000791	7.905660	2.678510	-0.000316
1415	1.4069e+02	-16.3391	-84.061240	0.000770	7.702951	2.609830	-0.000308
1416	1.4079e+02	-16.3744	-84.347877	0.000720	7.196178	2.438131	-0.000288
1417	1.4089e+02	-16.4177	-84.634514	0.000720	7.196178	2.438131	-0.000288
1418	1.4099e+02	-16.4482	-84.941336	0.000770	7.702951	2.609830	-0.000308
1419	1.4109e+02	-16.5027	-85.260270	0.000801	8.007015	2.712850	-0.000321
1420	1.4119e+02	-16.5284	-85.518646	0.000649	6.486695	2.197752	-0.000260
1421	1.4129e+02	-16.5781	-85.849691	0.000831	8.311078	2.815870	-0.000333
1422	1.4139e+02	-16.6118	-86.160551	0.000780	7.804305	2.644170	-0.000312
1423	1.4149e+02	-16.6455	-86.431039	0.000679	6.790759	2.300772	-0.000272
1424	1.4159e+02	-16.6985	-86.758047	0.000821	8.209724	2.781530	-0.000329
1425	1.4169e+02	-16.7338	-87.024498	0.000669	6.689405	2.266432	-0.000268
1426	1.4179e+02	-16.7803	-87.383803	0.000902	9.020561	3.056249	-0.000361
1427	1.4189e+02	-16.8236	-87.678514	0.000740	7.398887	2.506811	-0.000296
1428	1.4199e+02	-16.8669	-87.981299	0.000760	7.601596	2.575490	-0.000304
1429	1.4209e+02	-16.8974	-88.320419	0.000851	8.513788	2.884549	-0.000341
1430	1.4219e+02	-16.9359	-88.667612	0.000872	8.716497	2.953229	-0.000349
1431	1.4228e+02	-16.9760	-88.974435	0.000770	7.702951	2.609830	-0.000308
1432	1.4238e+02	-17.0177	-89.232811	0.000649	6.486695	2.197752	-0.000260
1433	1.4248e+02	-17.0562	-89.592116	0.000902	9.020561	3.056249	-0.000361
1434	1.4258e+02	-17.0979	-89.919124	0.000821	8.209724	2.781530	-0.000329
1435	1.4268e+02	-17.1428	-90.258244	0.000851	8.513788	2.884549	-0.000341
1436	1.4278e+02	-17.1765	-90.581215	0.000811	8.108369	2.747190	-0.000325
1437	1.4288e+02	-17.2182	-90.896111	0.000791	7.905660	2.678510	-0.000316
1438	1.4298e+02	-17.2423	-91.227156	0.000831	8.311078	2.815870	-0.000333
1439	1.4308e+02	-17.2888	-91.542053	0.000791	7.905660	2.678510	-0.000316
1440	1.4318e+02	-17.3450	-91.901358	0.000902	9.020561	3.056249	-0.000361
1441	1.4328e+02	-17.3722	-92.208180	0.000770	7.702951	2.609830	-0.000308
1442	1.4338e+02	-17.4107	-92.559411	0.000882	8.817852	2.987569	-0.000353
1443	1.4348e+02	-17.4508	-92.922753	0.000912	9.121915	3.090589	-0.000365
1444	1.4358e+02	-17.4958	-93.257836	0.000841	8.412433	2.850209	-0.000337
1445	1.4368e+02	-17.5327	-93.548509	0.000730	7.297532	2.472471	-0.000292
1446	1.4378e+02	-17.5776	-93.940111	0.000983	9.831398	3.330968	-0.000394
1447	1.4388e+02	-17.6193	-94.267119	0.000821	8.209724	2.781530	-0.000329
1448	1.4398e+02	-17.6578	-94.634499	0.000922	9.223270	3.124928	-0.000369
1449	1.4408e+02	-17.6963	-94.973618	0.000851	8.513788	2.884549	-0.000341
1450	1.4418e+02	-17.7396	-95.320812	0.000872	8.716497	2.953229	-0.000349
1451	1.4428e+02	-17.7701	-95.712414	0.000983	9.831398	3.330968	-0.000394
1452	1.4437e+02	-17.8150	-96.039422	0.000821	8.209724	2.781530	-0.000329
1453	1.4447e+02	-17.8599	-96.422950	0.000963	9.628688	3.262288	-0.000385
1454	1.4457e+02	-17.8904	-96.758032	0.000841	8.412433	2.850209	-0.000337
1455	1.4467e+02	-17.9273	-97.109263	0.000882	8.817852	2.987569	-0.000353
1456	1.4477e+02	-17.9706	-97.456457	0.000872	8.716497	2.953229	-0.000349
1457	1.4487e+02	-18.0203	-97.852096	0.000993	9.932752	3.365308	-0.000398
1458	1.4497e+02	-18.0476	-98.215438	0.000912	9.121915	3.090589	-0.000365
1459	1.4507e+02	-18.0941	-98.574743	0.000902	9.020561	3.056249	-0.000361
1460	1.4517e+02	-18.1262	-98.970383	0.000993	9.932752	3.365308	-0.000398
1461	1.4527e+02	-18.1872	-99.370059	0.001003	10.034107	3.399647	-0.000402
1462	1.4537e+02	-18.2080	-99.749550	0.000953	9.527334	3.227948	-0.000381
1463	1.4547e+02	-18.2498	-100.096743	0.000872	8.716497	2.953229	-0.000349
1464	1.4557e+02	-18.2947	-100.508531	0.001034	10.338171	3.502667	-0.000414
1465	1.4567e+02	-18.3316	-100.883985	0.000943	9.425979	3.193608	-0.000377
1466	1.4577e+02	-18.3749	-101.279624	0.000993	9.932752	3.365308	-0.000398
1467	1.4587e+02	-18.4214	-101.659115	0.000953	9.527334	3.227948	-0.000381
1468	1.4597e+02	-18.4583	-102.050717	0.000983	9.831398	3.330968	-0.000394
1469	1.4607e+02	-18.4952	-102.486728	0.001095	10.946298	3.708706	-0.000438
1470	1.4617e+02	-18.5241	-102.866219	0.000953	9.527334	3.227948	-0.000381
1471	1.4626e+02	-18.5642	-103.294155	0.001074	10.743589	3.640027	-0.000430
1472	1.4636e+02	-18.6171	-103.685757	0.000983	9.831398	3.330968	-0.000394
1473	1.4646e+02	-18.6428	-104.093508	0.001024	10.236816	3.468327	-0.000410
1474	1.4656e+02	-18.6861	-104.513370	0.001054	10.540880	3.571347	-0.000422
1475	1.4666e+02	-18.7326	-104.933232	0.001054	10.540880	3.571347	-0.000422
1476	1.4676e+02	-18.7711	-105.361168	0.001074	10.743589	3.640027	-0.000430
1477	1.4686e+02	-18.8016	-105.732585	0.000932	9.324625	3.159268	-0.000373
1478	1.4696e+02	-18.8465	-106.188781	0.001145	11.453072	3.880406	-0.000458
1479	1.4706e+02	-18.8882	-106.616718	0.001074	10.743589	3.640027	-0.000430
1480	1.4716e+02	-18.9332	-107.060803	0.001115	11.149008	3.777386	-0.000446
1481	1.4726e+02	-18.9572	-107.480665	0.001054	10.540880	3.571347	-0.000422
1482	1.4736e+02	-19.0102	-107.953010	0.001186	11.858490	4.017765	-0.000475
1483	1.4746e+02	-19.0599	-108.405169	0.001135	11.351717	3.846066	-0.000454
1484	1.4756e+02	-19.0856	-108.861365	0.001145	11.453072	3.880406	-0.000458
1485	1.4766e+02	-19.1353	-109.252967	0.000983	9.831398	3.330968	-0.000394
1486	1.4776e+02	-19.1706	-109.745498	0.001237	12.365263	4.189465	-0.000495
1487	1.4786e+02	-19.2139	-110.181509	0.001095	10.946298	3.708706	-0.000438
1488	1.4796e+02	-19.2524	-110.637705	0.001145	11.453072	3.880406	-0.000458
1489	1.4806e+02	-19.2957	-111.122161	0.001216	12.162554	4.120785	-0.000487
1490	1.4816e+02	-19.3278	-111.638915	0.001297	12.973391	4.395504	-0.000519
1491	1.4825e+02	-19.3743	-112.099148	0.001155	11.554426	3.914746	-0.000463
1492	1.4835e+02	-19.4064	-112.527084	0.001074	10.743589	3.640027	-0.000430
1493	1.4845e+02	-19.4433	-113.003466	0.001196	11.959845	4.052105	-0.000479
1494	1.4855e+02	-19.4898	-113.495997	0.001237	12.365263	4.189465	-0.000495
1495	1.4865e+02	-19.5283	-114.012750	0.001297	12.973391	4.395504	-0.000519
1496	1.4875e+02	-19.5604	-114.529504	0.001297	12.973391	4.395504	-0.000519
1497	1.4885e+02	-19.6085	-115.005886	0.001196	11.959845	4.052105	-0.000479
1498	1.4895e+02	-19.6470	-115.486305	0.001206	12.061199	4.086445	-0.000483
1499	1.4905e+02	-19.6855	-115.958650	0.001186	11.858490	4.017765	-0.000475
1500	1.4915e+02	-19.7224	-116.527886	0.001429	14.291001	4.841922	-0.000572
1501	1.4925e+02	-19.7690	-117.020417	0.001237	12.365263	4.189465	-0.000495
1502	1.4935e+02	-19.7978	-117.557356	0.001348	13.480164	4.567203	-0.000540
1503	1.4945e+02	-19.8460	-118.066035	0.001277	12.770682	4.326824	-0.000511
1504	1.4955e+02	-19.8877	-118.578751	0.001287	12.872036	4.361164	-0.000515
1505	1.4965e+02	-19.9182	-119.103579	0.001318	13.176100	4.464184	-0.000527
1506	1.4975e+02	-19.9583	-119.656666	0.001389	13.885582	4.704563	-0.000556
1507	1.4985e+02	-20.0016	-120.213791	0.001399	13.986937	4.738903	-0.000560
1508	1.4995e+02	-19.9518	-120.415648	-0.000507	-5.067731	-1.716994	-0.000203
1509	1.5005e+02	-19.9198	-120.682099	-0.000669	-6.689405	-2.266432	-0.000268
1510	1.5015e+02	-19.8748	-120.851658	-0.000426	-4.256894	-1.442275	-0.000170
1511	1.5025e+02	-19.8460	-121.049478	-0.000497	-4.966376	-1.682654	-0.000199
1512	1.5034e+02	-19.8043	-121.146369	-0.000243	-2.432511	-0.824157	-0.000097
1513	1.5044e+02	-19.7674	-121.315929	-0.000426	-4.256894	-1.442275	-0.000170
1514	1.5054e+02	-19.7192	-121.441080	-0.000314	-3.141993	-1.064536	-0.000126
1515	1.5064e+02	-19.6791	-121.582380	-0.000355	-3.547412	-1.201896	-0.000142
1516	1.5074e+02	-19.6422	-121.634863	-0.000132	-1.317610	-0.446418	-0.000053
1517	1.5084e+02	-19.5941	-121.731754	-0.000243	-2.432511	-0.824157	-0.000097
1518	1.5094e+02	-19.5765	-121.860942	-0.000324	-3.243348	-1.098876	-0.000130
1519	1.5104e+02	-19.5299	-121.909388	-0.000122	-1.216255	-0.412078	-0.000049
1520	1.5114e+02	-19.4946	-121.913425	-0.000010	-0.101355	-0.034340	-0.000004
1521	1.5124e+02	-19.4433	-121.998205	-0.000213	-2.128447	-0.721137	-0.000085
1522	1.5134e+02	-19.4048	-122.078948	-0.000203	-2.027092	-0.686797	-0.000081
1523	1.5144e+02	-19.3631	-122.070873	0.000020	0.202709	0.068680	0.000008
1524	1.5154e+02	-19.3406	-122.115282	-0.000111	-1.114901	-0.377739	-0.000045
1525	1.5164e+02	-19.2845	-122.119319	-0.000010	-0.101355	-0.034340	-0.000004
1526	1.5174e+02	-19.2460	-122.155653	-0.000091	-0.912192	-0.309059	-0.000037
1527	1.5184e+02	-19.2059	-122.187950	-0.000081	-0.810837	-0.274719	-0.000032
1528	1.5194e+02	-19.1690	-122.183913	0.000010	0.101355	0.034340	0.000004
1529	1.5204e+02	-19.1241	-122.179876	0.000010	0.101355	0.034340	0.000004
1530	1.5214e+02	-19.0872	-122.175839	0.000010	0.101355	0.034340	0.000004
1531	1.5224e+02	-19.0535	-122.179876	-0.000010	-0.101355	-0.034340	-0.000004
1532	1.5233e+02	-19.0118	-122.111245	0.000172	1.723028	0.583778	0.000069
1533	1.5243e+02	-18.9652	-122.151616	-0.000101	-1.013546	-0.343399	-0.000041
1534	1.5253e+02	-18.9332	-122.131430	0.000051	0.506773	0.171699	0.000020
1535	1.5263e+02	-18.8898	-122.070873	0.000152	1.520319	0.515098	0.000061
1536	1.5273e+02	-18.8481	-122.082985	-0.000030	-0.304064	-0.103020	-0.000012
1537	1.5283e+02	-18.8048	-122.022428	0.000152	1.520319	0.515098	0.000061
1538	1.5293e+02	-18.7679	-121.998205	0.000061	0.608128	0.206039	0.000024
1539	1.5303e+02	-18.7326	-121.961871	0.000091	0.912192	0.309059	0.000037
1540	1.5313e+02	-18.6893	-121.877091	0.000213	2.128447	0.721137	0.000085
1541	1.5323e+02	-18.6492	-121.864979	0.000030	0.304064	0.103020	0.000012
1542	1.5333e+02	-18.6091	-121.780200	0.000213	2.128447	0.721137	0.000085
1543	1.5343e+02	-18.5674	-121.751940	0.000071	0.709482	0.240379	0.000028
1544	1.5353e+02	-18.5225	-121.711568	0.000101	1.013546	0.343399	0.000041
1545	1.5363e+02	-18.4856	-121.642937	0.000172	1.723028	0.583778	0.000069
1546	1.5373e+02	-18.4455	-121.586417	0.000142	1.418965	0.480758	0.000057
1547	1.5383e+02	-18.4182	-121.501637	0.000213	2.128447	0.721137	0.000085
1548	1.5393e+02	-18.3797	-121.449154	0.000132	1.317610	0.446418	0.000053
1549	1.5403e+02	-18.3316	-121.372449	0.000193	1.925738	0.652458	0.000077
1550	1.5413e+02	-18.2915	-121.340152	0.000081	0.810837	0.274719	0.000032
1551	1.5422e+02	-18.2594	-121.255372	0.000213	2.128447	0.721137	0.000085
1552	1.5432e+02	-18.2113	-121.206926	0.000122	1.216255	0.412078	0.000049
1553	1.5442e+02	-18.1760	-121.077738	0.000324	3.243348	1.098876	0.000130
1554	1.5452e+02	-18.1262	-120.960661	0.000294	2.939284	0.995856	0.000118
1555	1.5462e+02	-18.0925	-120.924327	0.000091	0.912192	0.309059	0.000037
1556	1.5472e+02	-18.0605	-120.883955	0.000101	1.013546	0.343399	0.000041
1557	1.5482e+02	-18.0107	-120.762841	0.000304	3.040638	1.030196	0.000122
1558	1.5492e+02	-17.9690	-120.665950	0.000243	2.432511	0.824157	0.000097
1559	1.5502e+02	-17.9321	-120.524650	0.000355	3.547412	1.201896	0.000142
1560	1.5512e+02	-17.8936	-120.456019	0.000172	1.723028	0.583778	0.000069
1561	1.5522e+02	-17.8599	-120.371239	0.000213	2.128447	0.721137	0.000085
1562	1.5532e+02	-17.8230	-120.274348	0.000243	2.432511	0.824157	0.000097
1563	1.5542e+02	-17.7685	-120.185531	0.000223	2.229802	0.755477	0.000089
1564	1.5552e+02	-17.7284	-120.104788	0.000203	2.027092	0.686797	0.000081
1565	1.5562e+02	-17.6867	-119.975600	0.000324	3.243348	1.098876	0.000130
1566	1.5572e+02	-17.6450	-119.870634	0.000264	2.635220	0.892837	0.000105
1567	1.5582e+02	-17.6241	-119.745483	0.000314	3.141993	1.064536	0.000126
1568	1.5592e+02	-17.5760	-119.676852	0.000172	1.723028	0.583778	0.000069
1569	1.5602e+02	-17.5375	-119.600146	0.000193	1.925738	0.652458	0.000077
1570	1.5612e+02	-17.4990	-119.454809	0.000365	3.648766	1.236235	0.000146
1571	1.5622e+02	-17.4573	-119.313510	0.000355	3.547412	1.201896	0.000142
1572	1.5631e+02	-17.4156	-119.248915	0.000162	1.621674	0.549438	0.000065
1573	1.5641e+02	-17.3835	-119.139913	0.000274	2.736575	0.927177	0.000110
1574	1.5651e+02	-17.3385	-119.018799	0.000304	3.040638	1.030196	0.000122
1575	1.5661e+02	-17.2952	-118.905759	0.000284	2.837929	0.961516	0.000114
1576	1.5671e+02	-17.2615	-118.808868	0.000243	2.432511	0.824157	0.000097
1577	1.5681e+02	-17.2150	-118.800793	0.000020	0.202709	0.068680	0.000008
1578	1.5691e+02	-17.1733	-118.776571	0.000061	0.608128	0.206039	0.000024
1579	1.5701e+02	-17.1252	-118.752348	0.000061	0.608128	0.206039	0.000024
1580	1.5711e+02	-17.0979	-118.711976	0.000101	1.013546	0.343399	0.000041
1581	1.5721e+02	-17.0530	-118.711976	0.000000	0.000000	0.000000	0.000000
1582	1.5731e+02	-17.0033	-118.643345	0.000172	1.723028	0.583778	0.000069
1583	1.5741e+02	-16.9712	-118.627197	0.000041	0.405418	0.137359	0.000016
1584	1.5751e+02	-16.9455	-118.554528	0.000182	1.824383	0.618118	0.000073
1585	1.5761e+02	-16.8974	-118.493971	0.000152	1.520319	0.515098	0.000061
1586	1.5771e+02	-16.8493	-118.481860	0.000030	0.304064	0.103020	0.000012
1587	1.5781e+02	-16.8156	-118.372857	0.000274	2.736575	0.927177	0.000110
1588	1.5791e+02	-16.7851	-118.356708	0.000041	0.405418	0.137359	0.000016
1589	1.5801e+02	-16.7321	-118.280003	0.000193	1.925738	0.652458	0.000077
1590	1.5811e+02	-16.6969	-118.231557	0.000122	1.216255	0.412078	0.000049
1591	1.5821e+02	-16.6519	-118.158889	0.000182	1.824383	0.618118	0.000073
1592	1.5830e+02	-16.6150	-118.049886	0.000274	2.736575	0.927177	0.000110
1593	1.5840e+02	-16.5669	-117.993366	0.000142	1.418965	0.480758	0.000057
1594	1.5850e+02	-16.5364	-117.904549	0.000223	2.229802	0.755477	0.000089
1595	1.5860e+02	-16.5043	-117.464501	0.001105	11.047653	3.743046	0.000442
1596	1.5870e+02	-16.4658	-116.495589	0.002433	24.325108	8.241570	0.000974
1597	1.5880e+02	-16.4209	-116.241249	0.000639	6.385341	2.163412	0.000256
1598	1.5890e+02	-16.3760	-116.156469	0.000213	2.128447	0.721137	0.000085
1599	1.5900e+02	-16.3327	-116.027281	0.000324	3.243348	1.098876	0.000130
1600	1.5910e+02	-16.3006	-115.857721	0.000426	4.256894	1.442275	0.000170
1601	1.5920e+02	-16.2589	-115.716422	0.000355	3.547412	1.201896	0.000142
1602	1.5930e+02	-16.2156	-115.631642	0.000213	2.128447	0.721137	0.000085
1603	1.5940e+02	-16.1803	-115.514565	0.000294	2.939284	0.995856	0.000118
1604	1.5950e+02	-16.1450	-115.345005	0.000426	4.256894	1.442275	0.000170
1605	1.5960e+02	-16.0953	-115.231965	0.000284	2.837929	0.961516	0.000114
1606	1.5970e+02	-16.0616	-115.058369	0.000436	4.358248	1.476615	0.000174
1607	1.5980e+02	-16.0167	-115.050294	0.000020	0.202709	0.068680	0.000008
1608	1.5990e+02	-15.9766	-114.921106	0.000324	3.243348	1.098876	0.000130
1609	1.6000e+02	-15.9445	-114.836326	0.000213	2.128447	0.721137	0.000085
1610	1.6010e+02	-15.9092	-114.731361	0.000264	2.635220	0.892837	0.000105
1611	1.6019e+02	-15.8627	-114.618321	0.000284	2.837929	0.961516	0.000114
1612	1.6029e+02	-15.8177	-114.521429	0.000243	2.432511	0.824157	0.000097
1613	1.6039e+02	-15.7744	-114.368018	0.000385	3.851475	1.304915	0.000154
1614	1.6049e+02	-15.7455	-114.154050	0.000537	5.371795	1.820013	0.000215
1615	1.6059e+02	-15.7070	-114.008713	0.000365	3.648766	1.236235	0.000146
1616	1.6069e+02	-15.6605	-113.875488	0.000334	3.344702	1.133216	0.000134
1617	1.6079e+02	-15.6300	-113.718039	0.000395	3.952830	1.339255	0.000158
1618	1.6089e+02	-15.5883	-113.584814	0.000334	3.344702	1.133216	0.000134
1619	1.6099e+02	-15.5466	-113.483886	0.000253	2.533865	0.858497	0.000101
1620	1.6109e+02	-15.5049	-113.374883	0.000274	2.736575	0.927177	0.000110
1621	1.6119e+02	-15.4680	-113.241657	0.000334	3.344702	1.133216	0.000134
1622	1.6129e+02	-15.4183	-113.144766	0.000243	2.432511	0.824157	0.000097
1623	1.6139e+02	-15.3814	-113.059986	0.000213	2.128447	0.721137	0.000085
1624	1.6149e+02	-15.3365	-112.991355	0.000172	1.723028	0.583778	0.000069
1625	1.6159e+02	-15.3028	-112.837944	0.000385	3.851475	1.304915	0.000154
1626	1.6169e+02	-15.2643	-112.712793	0.000314	3.141993	1.064536	0.000126
1627	1.6179e+02	-15.2258	-112.571493	0.000355	3.547412	1.201896	0.000142
1628	1.6189e+02	-15.1776	-112.446342	0.000314	3.141993	1.064536	0.000126
1629	1.6199e+02	-15.1520	-112.341376	0.000264	2.635220	0.892837	0.000105
1630	1.6209e+02	-15.1103	-112.171816	0.000426	4.256894	1.442275	0.000170
1631	1.6219e+02	-15.0621	-112.034554	0.000345	3.446057	1.167556	0.000138
1632	1.6228e+02	-15.0268	-111.844808	0.000476	4.763667	1.613974	0.000191
1633	1.6238e+02	-14.9851	-111.687360	0.000395	3.952830	1.339255	0.000158
1634	1.6248e+02	-14.9370	-111.562209	0.000314	3.141993	1.064536	0.000126
1635	1.6258e+02	-14.9081	-111.368426	0.000487	4.865022	1.648314	0.000195
1636	1.6268e+02	-14.8600	-111.162533	0.000517	5.169085	1.751334	0.000207
1637	1.6278e+02	-14.8247	-110.997010	0.000416	4.155539	1.407935	0.000166
1638	1.6288e+02	-14.7894	-110.843599	0.000385	3.851475	1.304915	0.000154
1639	1.6298e+02	-14.7477	-110.605408	0.000598	5.979922	2.026053	0.000239
1640	1.6308e+02	-14.6964	-110.351068	0.000639	6.385341	2.163412	0.000256
1641	1.6318e+02	-14.6723	-110.229954	0.000304	3.040638	1.030196	0.000122
1642	1.6328e+02	-14.6226	-110.015986	0.000537	5.371795	1.820013	0.000215
1643	1.6338e+02	-14.5889	-109.830278	0.000466	4.662312	1.579634	0.000187
1644	1.6348e+02	-14.5472	-109.636495	0.000487	4.865022	1.648314	0.000195
1645	1.6358e+02	-14.5087	-109.426564	0.000527	5.270440	1.785673	0.000211
1646	1.6368e+02	-14.4670	-109.293339	0.000334	3.344702	1.133216	0.000134
1647	1.6378e+02	-14.4237	-109.139928	0.000385	3.851475	1.304915	0.000154
1648	1.6388e+02	-14.3771	-108.962294	0.000446	4.459603	1.510954	0.000179
1649	1.6398e+02	-14.3434	-108.768511	0.000487	4.865022	1.648314	0.000195
1650	1.6408e+02	-14.3065	-108.675657	0.000233	2.331156	0.789817	0.000093
1651	1.6418e+02	-14.2680	-108.506097	0.000426	4.256894	1.442275	0.000170
1652	1.6427e+02	-14.2199	-108.308278	0.000497	4.966376	1.682654	0.000199
1653	1.6437e+02	-14.1846	-108.166978	0.000355	3.547412	1.201896	0.000142
1654	1.6447e+02	-14.1477	-108.013567	0.000385	3.851475	1.304915	0.000154
1655	1.6457e+02	-14.1076	-107.823821	0.000476	4.763667	1.613974	0.000191
1656	1.6467e+02	-14.0755	-107.617927	0.000517	5.169085	1.751334	0.000207
1657	1.6477e+02	-14.0274	-107.521036	0.000243	2.432511	0.824157	0.000097
1658	1.6487e+02	-13.9905	-107.331291	0.000476	4.763667	1.613974	0.000191
1659	1.6497e+02	-13.9488	-107.210177	0.000304	3.040638	1.030196	0.000122
1660	1.6507e+02	-13.9087	-107.032543	0.000446	4.459603	1.510954	0.000179
1661	1.6517e+02	-13.8686	-106.895280	0.000345	3.446057	1.167556	0.000138
1662	1.6527e+02	-13.8301	-106.705535	0.000476	4.763667	1.613974	0.000191
1663	1.6537e+02	-13.7948	-106.552124	0.000385	3.851475	1.304915	0.000154
1664	1.6547e+02	-13.7403	-106.366415	0.000466	4.662312	1.579634	0.000187
1665	1.6557e+02	-13.7130	-106.233190	0.000334	3.344702	1.133216	0.000134
1666	1.6567e+02	-13.6745	-106.063630	0.000426	4.256894	1.442275	0.000170
1667	1.6577e+02	-13.6328	-105.930405	0.000334	3.344702	1.133216	0.000134
1668	1.6587e+02	-13.5943	-105.764882	0.000416	4.155539	1.407935	0.000166
1669	1.6597e+02	-13.5558	-105.607434	0.000395	3.952830	1.339255	0.000158
1670	1.6607e+02	-13.5092	-105.437874	0.000426	4.256894	1.442275	0.000170
1671	1.6616e+02	-13.4691	-105.284463	0.000385	3.851475	1.304915	0.000154
1672	1.6626e+02	-13.4354	-105.139126	0.000365	3.648766	1.236235	0.000146
1673	1.6636e+02	-13.3809	-104.937269	0.000507	5.067731	1.716994	0.000203
1674	1.6646e+02	-13.3504	-104.763672	0.000436	4.358248	1.476615	0.000174
1675	1.6656e+02	-13.3215	-104.646595	0.000294	2.939284	0.995856	0.000118
1676	1.6666e+02	-13.2750	-104.452813	0.000487	4.865022	1.648314	0.000195
1677	1.6676e+02	-13.2253	-104.315550	0.000345	3.446057	1.167556	0.000138
1678	1.6686e+02	-13.1916	-104.113694	0.000507	5.067731	1.716994	0.000203
1679	1.6696e+02	-13.1499	-103.996617	0.000294	2.939284	0.995856	0.000118
1680	1.6706e+02	-13.1066	-103.831094	0.000416	4.155539	1.407935	0.000166
1681	1.6716e+02	-13.0665	-103.637312	0.000487	4.865022	1.648314	0.000195
1682	1.6726e+02	-13.0232	-103.471789	0.000416	4.155539	1.407935	0.000166
1683	1.6736e+02	-12.9863	-103.346638	0.000314	3.141993	1.064536	0.000126
1684	1.6746e+02	-12.9558	-103.152855	0.000487	4.865022	1.648314	0.000195
1685	1.6756e+02	-12.9173	-102.967147	0.000466	4.662312	1.579634	0.000187
1686	1.6766e+02	-12.8788	-102.813736	0.000385	3.851475	1.304915	0.000154
1687	1.6776e+02	-12.8226	-102.656288	0.000395	3.952830	1.339255	0.000158
1688	1.6786e+02	-12.7889	-102.486728	0.000426	4.256894	1.442275	0.000170
1689	1.6796e+02	-12.7520	-102.329280	0.000395	3.952830	1.339255	0.000158
1690	1.6806e+02	-12.7135	-102.139534	0.000476	4.763667	1.613974	0.000191
1691	1.6816e+02	-12.6686	-101.982086	0.000395	3.952830	1.339255	0.000158
1692	1.6825e+02	-12.6285	-101.804452	0.000446	4.459603	1.510954	0.000179
1693	1.6835e+02	-12.5884	-101.655078	0.000375	3.750121	1.270575	0.000150
1694	1.6845e+02	-12.5467	-101.461295	0.000487	4.865022	1.648314	0.000195
1695	1.6855e+02	-12.5162	-101.299810	0.000405	4.054185	1.373595	0.000162
1696	1.6865e+02	-12.4729	-101.122176	0.000446	4.459603	1.510954	0.000179
1697	1.6875e+02	-12.4408	-101.005099	0.000294	2.939284	0.995856	0.000118
1698	1.6885e+02	-12.3911	-100.754797	0.000628	6.283986	2.129072	0.000252
1699	1.6895e+02	-12.3574	-100.605423	0.000375	3.750121	1.270575	0.000150
1700	1.6905e+02	-12.3141	-100.423751	0.000456	4.560958	1.545294	0.000183
1701	1.6915e+02	-12.2740	-100.302637	0.000304	3.040638	1.030196	0.000122
1702	1.6925e+02	-12.2387	-100.225932	0.000193	1.925738	0.652458	0.000077
1703	1.6935e+02	-12.2066	-100.193635	0.000081	0.810837	0.274719	0.000032
1704	1.6945e+02	-12.1569	-100.116929	0.000193	1.925738	0.652458	0.000077
1705	1.6955e+02	-12.1120	-100.060409	0.000142	1.418965	0.480758	0.000057
1706	1.6965e+02	-12.0815	-99.967555	0.000233	2.331156	0.789817	0.000093
1707	1.6975e+02	-12.0350	-99.898924	0.000172	1.723028	0.583778	0.000069
1708	1.6985e+02	-11.9948	-99.777810	0.000304	3.040638	1.030196	0.000122
1709	1.6995e+02	-11.9531	-99.660733	0.000294	2.939284	0.995856	0.000118
1710	1.7005e+02	-11.9162	-99.511359	0.000375	3.750121	1.270575	0.000150
1711	1.7015e+02	-11.8793	-99.341799	0.000426	4.256894	1.442275	0.000170
1712	1.7024e+02	-11.8312	-99.240871	0.000253	2.533865	0.858497	0.000101
1713	1.7034e+02	-11.7991	-99.107645	0.000334	3.344702	1.133216	0.000134
1714	1.7044e+02	-11.7526	-99.002680	0.000264	2.635220	0.892837	0.000105
1715	1.7054e+02	-11.7125	-98.845231	0.000395	3.952830	1.339255	0.000158
1716	1.7064e+02	-11.6708	-98.675672	0.000426	4.256894	1.442275	0.000170
1717	1.7074e+02	-11.6403	-98.489963	0.000466	4.662312	1.579634	0.000187
1718	1.7084e+02	-11.5986	-98.352701	0.000345	3.446057	1.167556	0.000138
1719	1.7094e+02	-11.5553	-98.142770	0.000527	5.270440	1.785673	0.000211
1720	1.7104e+02	-11.5152	-98.033767	0.000274	2.736575	0.927177	0.000110
1721	1.7114e+02	-11.4735	-97.767316	0.000669	6.689405	2.266432	0.000268
1722	1.7124e+02	-11.4350	-97.545274	0.000557	5.574504	1.888693	0.000223
1723	1.7134e+02	-11.3949	-97.327268	0.000547	5.473149	1.854353	0.000219
1724	1.7144e+02	-11.3532	-97.202117	0.000314	3.141993	1.064536	0.000126
1725	1.7154e+02	-11.3291	-97.000260	0.000507	5.067731	1.716994	0.000203
1726	1.7164e+02	-11.2729	-96.879146	0.000304	3.040638	1.030196	0.000122
1727	1.7174e+02	-11.2377	-96.709587	0.000426	4.256894	1.442275	0.000170
1728	1.7184e+02	-11.1927	-96.540027	0.000426	4.256894	1.442275	0.000170
1729	1.7194e+02	-11.1590	-96.326059	0.000537	5.371795	1.820013	0.000215
1730	1.7204e+02	-11.1205	-96.067682	0.000649	6.486695	2.197752	0.000260
1731	1.7213e+02	-11.0804	-95.861788	0.000517	5.169085	1.751334	0.000207
1732	1.7223e+02	-11.0307	-95.203735	0.001652	16.520802	5.597399	0.000661
1733	1.7233e+02	-11.0066	-94.832318	0.000932	9.324625	3.159268	0.000373
1734	1.7243e+02	-10.9697	-94.646610	0.000466	4.662312	1.579634	0.000187
1735	1.7253e+02	-10.9216	-94.432642	0.000537	5.371795	1.820013	0.000215
1736	1.7263e+02	-10.8767	-94.275194	0.000395	3.952830	1.339255	0.000158
1737	1.7273e+02	-10.8350	-94.081411	0.000487	4.865022	1.648314	0.000195
1738	1.7283e+02	-10.7997	-93.851295	0.000578	5.777213	1.957373	0.000231
1739	1.7293e+02	-10.7532	-93.669623	0.000456	4.560958	1.545294	0.000183
1740	1.7303e+02	-10.7163	-93.556584	0.000284	2.837929	0.961516	0.000114
1741	1.7313e+02	-10.6762	-93.314355	0.000608	6.081277	2.060392	0.000243
1742	1.7323e+02	-10.6329	-93.160944	0.000385	3.851475	1.304915	0.000154
1743	1.7333e+02	-10.6024	-92.979273	0.000456	4.560958	1.545294	0.000183
1744	1.7343e+02	-10.5623	-92.801639	0.000446	4.459603	1.510954	0.000179
1745	1.7353e+02	-10.5318	-92.579597	0.000557	5.574504	1.888693	0.000223
1746	1.7363e+02	-10.4885	-92.422148	0.000395	3.952830	1.339255	0.000158
1747	1.7373e+02	-10.4403	-92.196069	0.000568	5.675858	1.923033	0.000227
1748	1.7383e+02	-10.4051	-92.046695	0.000375	3.750121	1.270575	0.000150
1749	1.7393e+02	-10.3698	-91.873098	0.000436	4.358248	1.476615	0.000174
1750	1.7403e+02	-10.3297	-91.642981	0.000578	5.777213	1.957373	0.000231
1751	1.7413e+02	-10.2863	-91.509756	0.000334	3.344702	1.133216	0.000134
1752	1.7422e+02	-10.2430	-91.275602	0.000588	5.878568	1.991713	0.000235
1753	1.7432e+02	-10.1997	-91.142376	0.000334	3.344702	1.133216	0.000134
1754	1.7442e+02	-10.1660	-90.924371	0.000547	5.473149	1.854353	0.000219
1755	1.7452e+02	-10.1227	-90.742700	0.000456	4.560958	1.545294	0.000183
1756	1.7462e+02	-10.0794	-90.552955	0.000476	4.763667	1.613974	0.000191
1757	1.7472e+02	-10.0361	-90.383395	0.000426	4.256894	1.442275	0.000170
1758	1.7482e+02	-10.0088	-90.177501	0.000517	5.169085	1.751334	0.000207
1759	1.7492e+02	-9.9703	-89.991793	0.000466	4.662312	1.579634	0.000187
1760	1.7502e+02	-9.9190	-89.822233	0.000426	4.256894	1.442275	0.000170
1761	1.7512e+02	-9.8837	-89.604228	0.000547	5.473149	1.854353	0.000219
1762	1.7522e+02	-9.8468	-89.398334	0.000517	5.169085	1.751334	0.000207
1763	1.7532e+02	-9.8035	-89.261071	0.000345	3.446057	1.167556	0.000138
1764	1.7542e+02	-9.7618	-89.063252	0.000497	4.966376	1.682654	0.000199
1765	1.7552e+02	-9.7217	-88.869469	0.000487	4.865022	1.648314	0.000195
1766	1.7562e+02	-9.6848	-88.655501	0.000537	5.371795	1.820013	0.000215
1767	1.7572e+02	-9.6463	-88.477867	0.000446	4.459603	1.510954	0.000179
1768	1.7582e+02	-9.5981	-88.336567	0.000355	3.547412	1.201896	0.000142
1769	1.7592e+02	-9.5676	-88.142785	0.000487	4.865022	1.648314	0.000195
1770	1.7602e+02	-9.5372	-87.896519	0.000618	6.182632	2.094732	0.000248
1771	1.7612e+02	-9.4922	-87.710811	0.000466	4.662312	1.579634	0.000187
1772	1.7621e+02	-9.4441	-87.569511	0.000355	3.547412	1.201896	0.000142
1773	1.7631e+02	-9.4056	-87.395914	0.000436	4.358248	1.476615	0.000174
1774	1.7641e+02	-9.3703	-87.190021	0.000517	5.169085	1.751334	0.000207
1775	1.7651e+02	-9.3222	-86.963941	0.000568	5.675858	1.923033	0.000227
1776	1.7661e+02	-9.2949	-86.766121	0.000497	4.966376	1.682654	0.000199
1777	1.7671e+02	-9.2500	-86.580413	0.000466	4.662312	1.579634	0.000187
1778	1.7681e+02	-9.2147	-86.398742	0.000456	4.560958	1.545294	0.000183
1779	1.7691e+02	-9.1602	-86.208997	0.000476	4.763667	1.613974	0.000191
1780	1.7701e+02	-9.1281	-86.007140	0.000507	5.067731	1.716994	0.000203
1781	1.7711e+02	-9.0896	-85.805283	0.000507	5.067731	1.716994	0.000203
1782	1.7721e+02	-9.0479	-85.619575	0.000466	4.662312	1.579634	0.000187
1783	1.7731e+02	-9.0062	-85.433866	0.000466	4.662312	1.579634	0.000187
1784	1.7741e+02	-8.9628	-85.240084	0.000487	4.865022	1.648314	0.000195
1785	1.7751e+02	-8.9227	-85.050339	0.000476	4.763667	1.613974	0.000191
1786	1.7761e+02	-8.8794	-84.824259	0.000568	5.675858	1.923033	0.000227
1787	1.7771e+02	-8.8425	-84.634514	0.000476	4.763667	1.613974	0.000191
1788	1.7781e+02	-8.8121	-84.456880	0.000446	4.459603	1.510954	0.000179
1789	1.7791e+02	-8.7687	-84.194466	0.000659	6.588050	2.232092	0.000264
1790	1.7801e+02	-8.7302	-84.045092	0.000375	3.750121	1.270575	0.000150
1791	1.7810e+02	-8.6837	-83.810938	0.000588	5.878568	1.991713	0.000235
1792	1.7820e+02	-8.6452	-83.625230	0.000466	4.662312	1.579634	0.000187
1793	1.7830e+02	-8.6131	-83.475856	0.000375	3.750121	1.270575	0.000150
1794	1.7840e+02	-8.5698	-83.233628	0.000608	6.081277	2.060392	0.000243
1795	1.7850e+02	-8.5233	-83.047919	0.000466	4.662312	1.579634	0.000187
1796	1.7860e+02	-8.4864	-82.854137	0.000487	4.865022	1.648314	0.000195
1797	1.7870e+02	-8.4447	-82.599797	0.000639	6.385341	2.163412	0.000256
1798	1.7880e+02	-8.4174	-82.414089	0.000466	4.662312	1.579634	0.000187
1799	1.7890e+02	-8.3661	-82.212232	0.000507	5.067731	1.716994	0.000203
1800	1.7900e+02	-8.3340	-82.002301	0.000527	5.270440	1.785673	0.000211
1801	1.7910e+02	-8.3035	-81.865038	0.000345	3.446057	1.167556	0.000138
1802	1.7920e+02	-8.2506	-81.606662	0.000649	6.486695	2.197752	0.000260
1803	1.7930e+02	-8.2089	-81.380582	0.000568	5.675858	1.923033	0.000227
1804	1.7940e+02	-8.1768	-81.202948	0.000446	4.459603	1.510954	0.000179
1805	1.7950e+02	-8.1335	-80.960720	0.000608	6.081277	2.060392	0.000243
1806	1.7960e+02	-8.0805	-80.799235	0.000405	4.054185	1.373595	0.000162
1807	1.7970e+02	-8.0468	-80.569118	0.000578	5.777213	1.957373	0.000231
1808	1.7980e+02	-8.0147	-80.347075	0.000557	5.574504	1.888693	0.000223
1809	1.7990e+02	-7.9795	-80.189627	0.000395	3.952830	1.339255	0.000158
1810	1.8000e+02	-7.9249	-79.915102	0.000689	6.892114	2.335111	0.000276
1811	1.8009e+02	-7.8832	-79.729394	0.000466	4.662312	1.579634	0.000187
1812	1.8019e+02	-7.8479	-79.507351	0.000557	5.574504	1.888693	0.000223
1813	1.8029e+02	-7.8094	-79.341829	0.000416	4.155539	1.407935	0.000166
1814	1.8039e+02	-7.7645	-79.156120	0.000466	4.662312	1.579634	0.000187
1815	1.8049e+02	-7.7340	-78.913892	0.000608	6.081277	2.060392	0.000243
1816	1.8059e+02	-7.6971	-78.740295	0.000436	4.358248	1.476615	0.000174
1817	1.8069e+02	-7.6554	-78.510179	0.000578	5.777213	1.957373	0.000231
1818	1.8079e+02	-7.6089	-78.304285	0.000517	5.169085	1.751334	0.000207
1819	1.8089e+02	-7.5800	-78.098391	0.000517	5.169085	1.751334	0.000207
1820	1.8099e+02	-7.5367	-77.840014	0.000649	6.486695	2.197752	0.000260
1821	1.8109e+02	-7.5014	-77.658343	0.000456	4.560958	1.545294	0.000183
1822	1.8119e+02	-7.4468	-77.428226	0.000578	5.777213	1.957373	0.000231
1823	1.8129e+02	-7.3971	-77.238481	0.000476	4.763667	1.613974	0.000191
1824	1.8139e+02	-7.3698	-77.032587	0.000517	5.169085	1.751334	0.000207
1825	1.8149e+02	-7.3346	-76.826693	0.000517	5.169085	1.751334	0.000207
1826	1.8159e+02	-7.2928	-76.640985	0.000466	4.662312	1.579634	0.000187
1827	1.8169e+02	-7.2527	-76.390682	0.000628	6.283986	2.129072	0.000252
1828	1.8179e+02	-7.2126	-76.192863	0.000497	4.966376	1.682654	0.000199
1829	1.8189e+02	-7.1805	-75.974857	0.000547	5.473149	1.854353	0.000219
1830	1.8199e+02	-7.1404	-75.781075	0.000487	4.865022	1.648314	0.000195
1831	1.8209e+02	-7.0987	-75.554995	0.000568	5.675858	1.923033	0.000227
1832	1.8218e+02	-7.0570	-75.357176	0.000497	4.966376	1.682654	0.000199
1833	1.8228e+02	-7.0185	-75.118985	0.000598	5.979922	2.026053	0.000239
1834	1.8238e+02	-6.9752	-74.929239	0.000476	4.763667	1.613974	0.000191
1835	1.8248e+02	-6.9415	-74.715271	0.000537	5.371795	1.820013	0.000215
1836	1.8258e+02	-6.8918	-74.497266	0.000547	5.473149	1.854353	0.000219
1837	1.8268e+02	-6.8517	-74.271186	0.000568	5.675858	1.923033	0.000227
1838	1.8278e+02	-6.8228	-74.081441	0.000476	4.763667	1.613974	0.000191
1839	1.8288e+02	-6.7795	-73.859398	0.000557	5.574504	1.888693	0.000223
1840	1.8298e+02	-6.7362	-73.649467	0.000527	5.270440	1.785673	0.000211
1841	1.8308e+02	-6.6977	-73.415313	0.000588	5.878568	1.991713	0.000235
1842	1.8318e+02	-6.6608	-73.189234	0.000568	5.675858	1.923033	0.000227
1843	1.8328e+02	-6.6159	-72.983340	0.000517	5.169085	1.751334	0.000207
1844	1.8338e+02	-6.5806	-72.785520	0.000497	4.966376	1.682654	0.000199
1845	1.8348e+02	-6.5389	-72.519069	0.000669	6.689405	2.266432	0.000268
1846	1.8358e+02	-6.4907	-72.288953	0.000578	5.777213	1.957373	0.000231
1847	1.8368e+02	-6.4554	-72.074984	0.000537	5.371795	1.820013	0.000215
1848	1.8378e+02	-6.4185	-71.840830	0.000588	5.878568	1.991713	0.000235
1849	1.8388e+02	-6.3704	-71.671271	0.000426	4.256894	1.442275	0.000170
1850	1.8398e+02	-6.3447	-71.425005	0.000618	6.182632	2.094732	0.000248
1851	1.8407e+02	-6.2934	-71.219112	0.000517	5.169085	1.751334	0.000207
1852	1.8417e+02	-6.2613	-71.049552	0.000426	4.256894	1.442275	0.000170
1853	1.8427e+02	-6.2180	-70.795212	0.000639	6.385341	2.163412	0.000256
1854	1.8437e+02	-6.1859	-70.552984	0.000608	6.081277	2.060392	0.000243
1855	1.8447e+02	-6.1442	-70.334979	0.000547	5.473149	1.854353	0.000219
1856	1.8457e+02	-6.0993	-70.141196	0.000487	4.865022	1.648314	0.000195
1857	1.8467e+02	-6.0592	-69.927228	0.000537	5.371795	1.820013	0.000215
1858	1.8477e+02	-6.0191	-69.693074	0.000588	5.878568	1.991713	0.000235
1859	1.8487e+02	-5.9854	-69.430660	0.000659	6.588050	2.232092	0.000264
1860	1.8497e+02	-5.9389	-69.212655	0.000547	5.473149	1.854353	0.000219
1861	1.8507e+02	-5.9004	-69.030984	0.000456	4.560958	1.545294	0.000183
1862	1.8517e+02	-5.8667	-68.821053	0.000527	5.270440	1.785673	0.000211
1863	1.8527e+02	-5.8234	-68.538453	0.000709	7.094823	2.403791	0.000284
1864	1.8537e+02	-5.7849	-68.332560	0.000517	5.169085	1.751334	0.000207
1865	1.8547e+02	-5.7432	-68.106480	0.000568	5.675858	1.923033	0.000227
1866	1.8557e+02	-5.6966	-67.884437	0.000557	5.574504	1.888693	0.000223
1867	1.8567e+02	-5.6565	-67.666432	0.000547	5.473149	1.854353	0.000219
1868	1.8577e+02	-5.6196	-67.456501	0.000527	5.270440	1.785673	0.000211
1869	1.8587e+02	-5.5859	-67.181976	0.000689	6.892114	2.335111	0.000276
1870	1.8597e+02	-5.5458	-66.963970	0.000547	5.473149	1.854353	0.000219
1871	1.8606e+02	-5.4977	-66.758077	0.000517	5.169085	1.751334	0.000207
1872	1.8616e+02	-5.4560	-66.527960	0.000578	5.777213	1.957373	0.000231
1873	1.8626e+02	-5.4223	-66.301880	0.000568	5.675858	1.923033	0.000227
1874	1.8636e+02	-5.3934	-66.055615	0.000618	6.182632	2.094732	0.000248
1875	1.8646e+02	-5.3469	-65.837610	0.000547	5.473149	1.854353	0.000219
1876	1.8656e+02	-5.2956	-65.676124	0.000405	4.054185	1.373595	0.000162
1877	1.8666e+02	-5.2635	-65.413710	0.000659	6.588050	2.232092	0.000264
1878	1.8676e+02	-5.2234	-65.199742	0.000537	5.371795	1.820013	0.000215
1879	1.8686e+02	-5.1897	-64.969625	0.000578	5.777213	1.957373	0.000231
1880	1.8696e+02	-5.1416	-64.719323	0.000628	6.283986	2.129072	0.000252
1881	1.8706e+02	-5.1031	-64.505355	0.000537	5.371795	1.820013	0.000215
1882	1.8716e+02	-5.0565	-64.255052	0.000628	6.283986	2.129072	0.000252
1883	1.8726e+02	-5.0293	-64.077418	0.000446	4.459603	1.510954	0.000179
1884	1.8736e+02	-4.9876	-63.790782	0.000720	7.196178	2.438131	0.000288
1885	1.8746e+02	-4.9442	-63.536442	0.000639	6.385341	2.163412	0.000256
1886	1.8756e+02	-4.9057	-63.350734	0.000466	4.662312	1.579634	0.000187
1887	1.8766e+02	-4.8656	-63.116580	0.000588	5.878568	1.991713	0.000235
1888	1.8776e+02	-4.8255	-62.858203	0.000649	6.486695	2.197752	0.000260
1889	1.8786e+02	-4.7774	-62.668458	0.000476	4.763667	1.613974	0.000191
1890	1.8796e+02	-4.7501	-62.418156	0.000628	6.283986	2.129072	0.000252
1891	1.8806e+02	-4.7100	-62.212262	0.000517	5.169085	1.751334	0.000207
1892	1.8815e+02	-4.6619	-61.961959	0.000628	6.283986	2.129072	0.000252
1893	1.8825e+02	-4.6202	-61.703583	0.000649	6.486695	2.197752	0.000260
1894	1.8835e+02	-4.5897	-61.501726	0.000507	5.067731	1.716994	0.000203
1895	1.8845e+02	-4.5448	-61.271609	0.000578	5.777213	1.957373	0.000231
1896	1.8855e+02	-4.5127	-61.029381	0.000608	6.081277	2.060392	0.000243
1897	1.8865e+02	-4.4694	-60.795227	0.000588	5.878568	1.991713	0.000235
1898	1.8875e+02	-4.4341	-60.548962	0.000618	6.182632	2.094732	0.000248
1899	1.8885e+02	-4.3956	-60.290585	0.000649	6.486695	2.197752	0.000260
1900	1.8895e+02	-4.3539	-60.084691	0.000517	5.169085	1.751334	0.000207
1901	1.8905e+02	-4.3090	-59.826315	0.000649	6.486695	2.197752	0.000260
1902	1.8915e+02	-4.2705	-59.571975	0.000639	6.385341	2.163412	0.000256
1903	1.8925e+02	-4.2255	-59.358007	0.000537	5.371795	1.820013	0.000215
1904	1.8935e+02	-4.1919	-59.127890	0.000578	5.777213	1.957373	0.000231
1905	1.8945e+02	-4.1550	-58.869513	0.000649	6.486695	2.197752	0.000260
1906	1.8955e+02	-4.1036	-58.647471	0.000557	5.574504	1.888693	0.000223
1907	1.8965e+02	-4.0699	-58.372946	0.000689	6.892114	2.335111	0.000276
1908	1.8975e+02	-4.0218	-58.150903	0.000557	5.574504	1.888693	0.000223
1909	1.8985e+02	-3.9865	-57.888489	0.000659	6.588050	2.232092	0.000264
1910	1.8995e+02	-3.9560	-57.658373	0.000578	5.777213	1.957373	0.000231
1911	1.9004e+02	-3.9095	-57.428256	0.000578	5.777213	1.957373	0.000231
1912	1.9014e+02	-3.8582	-57.137582	0.000730	7.297532	2.472471	0.000292
1913	1.9024e+02	-3.8245	-56.955911	0.000456	4.560958	1.545294	0.000183
1914	1.9034e+02	-3.7892	-56.697534	0.000649	6.486695	2.197752	0.000260
1915	1.9044e+02	-3.7411	-56.503752	0.000487	4.865022	1.648314	0.000195
1916	1.9054e+02	-3.7090	-56.209041	0.000740	7.398887	2.506811	0.000296
1917	1.9064e+02	-3.6721	-55.974887	0.000588	5.878568	1.991713	0.000235
1918	1.9074e+02	-3.6288	-55.728622	0.000618	6.182632	2.094732	0.000248
1919	1.9084e+02	-3.5887	-55.482356	0.000618	6.182632	2.094732	0.000248
1920	1.9094e+02	-3.5438	-55.219943	0.000659	6.588050	2.232092	0.000264
1921	1.9104e+02	-3.4988	-55.010012	0.000527	5.270440	1.785673	0.000211
1922	1.9114e+02	-3.4684	-54.719338	0.000730	7.297532	2.472471	0.000292
1923	1.9124e+02	-3.4331	-54.456924	0.000659	6.588050	2.232092	0.000264
1924	1.9134e+02	-3.3994	-54.210659	0.000618	6.182632	2.094732	0.000248
1925	1.9144e+02	-3.3432	-53.980542	0.000578	5.777213	1.957373	0.000231
1926	1.9154e+02	-3.3015	-53.718128	0.000659	6.588050	2.232092	0.000264
1927	1.9164e+02	-3.2694	-53.479937	0.000598	5.979922	2.026053	0.000239
1928	1.9174e+02	-3.2309	-53.233672	0.000618	6.182632	2.094732	0.000248
1929	1.9184e+02	-3.1972	-52.995481	0.000598	5.979922	2.026053	0.000239
1930	1.9194e+02	-3.1523	-52.708844	0.000720	7.196178	2.438131	0.000288
1931	1.9203e+02	-3.1106	-52.486802	0.000557	5.574504	1.888693	0.000223
1932	1.9213e+02	-3.0721	-52.236499	0.000628	6.283986	2.129072	0.000252
1933	1.9223e+02	-3.0368	-51.966011	0.000679	6.790759	2.300772	0.000272
1934	1.9233e+02	-2.9983	-51.748006	0.000547	5.473149	1.854353	0.000219
1935	1.9243e+02	-2.9486	-51.505778	0.000608	6.081277	2.060392	0.000243
1936	1.9253e+02	-2.9053	-51.227215	0.000699	6.993468	2.369451	0.000280
1937	1.9263e+02	-2.8748	-50.984987	0.000608	6.081277	2.060392	0.000243
1938	1.9273e+02	-2.8379	-50.746796	0.000598	5.979922	2.026053	0.000239
1939	1.9283e+02	-2.7930	-50.468234	0.000699	6.993468	2.369451	0.000280
1940	1.9293e+02	-2.7641	-50.221969	0.000618	6.182632	2.094732	0.000248
1941	1.9303e+02	-2.7095	-49.987815	0.000588	5.878568	1.991713	0.000235
1942	1.9313e+02	-2.6743	-49.745587	0.000608	6.081277	2.060392	0.000243
1943	1.9323e+02	-2.6342	-49.471061	0.000689	6.892114	2.335111	0.000276
1944	1.9333e+02	-2.5844	-49.200573	0.000679	6.790759	2.300772	0.000272
1945	1.9343e+02	-2.5507	-48.958345	0.000608	6.081277	2.060392	0.000243
1946	1.9353e+02	-2.5170	-48.691894	0.000669	6.689405	2.266432	0.000268
1947	1.9363e+02	-2.4769	-48.393146	0.000750	7.500242	2.541151	0.000300
1948	1.9373e+02	-2.4256	-48.171104	0.000557	5.574504	1.888693	0.000223
1949	1.9383e+02	-2.3839	-47.928875	0.000608	6.081277	2.060392	0.000243
1950	1.9393e+02	-2.3486	-47.650313	0.000699	6.993468	2.369451	0.000280
1951	1.9403e+02	-2.3133	-47.371751	0.000699	6.993468	2.369451	0.000280
1952	1.9412e+02	-2.2812	-47.129523	0.000608	6.081277	2.060392	0.000243
1953	1.9422e+02	-2.2315	-46.854997	0.000689	6.892114	2.335111	0.000276
1954	1.9432e+02	-2.1994	-46.556249	0.000750	7.500242	2.541151	0.000300
1955	1.9442e+02	-2.1593	-46.314021	0.000608	6.081277	2.060392	0.000243
1956	1.9452e+02	-2.1176	-46.055644	0.000649	6.486695	2.197752	0.000260
1957	1.9462e+02	-2.0743	-45.805342	0.000628	6.283986	2.129072	0.000252
1958	1.9472e+02	-2.0390	-45.502557	0.000760	7.601596	2.575490	0.000304
1959	1.9482e+02	-1.9860	-45.264366	0.000598	5.979922	2.026053	0.000239
1960	1.9492e+02	-1.9572	-44.985804	0.000699	6.993468	2.369451	0.000280
1961	1.9502e+02	-1.9171	-44.674944	0.000780	7.804305	2.644170	0.000312
1962	1.9512e+02	-1.8834	-44.432716	0.000608	6.081277	2.060392	0.000243
1963	1.9522e+02	-1.8401	-44.142042	0.000730	7.297532	2.472471	0.000292
1964	1.9532e+02	-1.8032	-43.887703	0.000639	6.385341	2.163412	0.000256
1965	1.9542e+02	-1.7502	-43.597029	0.000730	7.297532	2.472471	0.000292
1966	1.9552e+02	-1.7181	-43.338652	0.000649	6.486695	2.197752	0.000260
1967	1.9562e+02	-1.6780	-43.092387	0.000618	6.182632	2.094732	0.000248
1968	1.9572e+02	-1.6395	-42.809787	0.000709	7.094823	2.403791	0.000284
1969	1.9582e+02	-1.6026	-42.527188	0.000709	7.094823	2.403791	0.000284
1970	1.9592e+02	-1.5657	-42.248625	0.000699	6.993468	2.369451	0.000280
1971	1.9601e+02	-1.5080	-41.966026	0.000709	7.094823	2.403791	0.000284
1972	1.9611e+02	-1.4727	-41.703612	0.000659	6.588050	2.232092	0.000264
1973	1.9621e+02	-1.4358	-41.457347	0.000618	6.182632	2.094732	0.000248
1974	1.9631e+02	-1.4005	-41.154562	0.000760	7.601596	2.575490	0.000304
1975	1.9641e+02	-1.3604	-40.884074	0.000679	6.790759	2.300772	0.000272
1976	1.9651e+02	-1.3123	-40.601474	0.000709	7.094823	2.403791	0.000284
1977	1.9661e+02	-1.2738	-40.359246	0.000608	6.081277	2.060392	0.000243
1978	1.9671e+02	-1.2337	-40.048387	0.000780	7.804305	2.644170	0.000312
1979	1.9681e+02	-1.1968	-39.765787	0.000709	7.094823	2.403791	0.000284
1980	1.9691e+02	-1.1583	-39.515485	0.000628	6.283986	2.129072	0.000252
1981	1.9701e+02	-1.1165	-39.204625	0.000780	7.804305	2.644170	0.000312
1982	1.9711e+02	-1.0780	-38.934137	0.000679	6.790759	2.300772	0.000272
1983	1.9721e+02	-1.0347	-38.675760	0.000649	6.486695	2.197752	0.000260
1984	1.9731e+02	-1.0042	-38.381049	0.000740	7.398887	2.506811	0.000296
1985	1.9741e+02	-0.9561	-38.142858	0.000598	5.979922	2.026053	0.000239
1986	1.9751e+02	-0.9208	-37.836036	0.000770	7.702951	2.609830	0.000308
1987	1.9761e+02	-0.8823	-37.549399	0.000720	7.196178	2.438131	0.000288
1988	1.9771e+02	-0.8342	-37.242577	0.000770	7.702951	2.609830	0.000308
1989	1.9781e+02	-0.7957	-36.992275	0.000628	6.283986	2.129072	0.000252
1990	1.9791e+02	-0.7556	-36.693527	0.000750	7.500242	2.541151	0.000300
1991	1.9800e+02	-0.7251	-36.463410	0.000578	5.777213	1.957373	0.000231
1992	1.9810e+02	-0.6898	-36.116216	0.000872	8.716497	2.953229	0.000349
1993	1.9820e+02	-0.6385	-35.853802	0.000659	6.588050	2.232092	0.000264
1994	1.9830e+02	-0.6016	-35.591389	0.000659	6.588050	2.232092	0.000264
1995	1.9840e+02	-0.5615	-35.292641	0.000750	7.500242	2.541151	0.000300
1996	1.9850e+02	-0.5198	-35.018115	0.000689	6.892114	2.335111	0.000276
1997	1.9860e+02	-0.4861	-34.751664	0.000669	6.689405	2.266432	0.000268
1998	1.9870e+02	-0.4476	-34.440805	0.000780	7.804305	2.644170	0.000312
1999	1.9880e+02	-0.3946	-34.166280	0.000689	6.892114	2.335111	0.000276
2000	1.9890e+02	-0.3577	-33.883680	0.000709	7.094823	2.403791	0.000284
2001	1.9900e+02	-0.3289	-33.593006	0.000730	7.297532	2.472471	0.000292
2002	1.9910e+02	-0.2791	-33.354815	0.000598	5.979922	2.026053	0.000239
2003	1.9920e+02	-0.2406	-33.007622	0.000872	8.716497	2.953229	0.000349
2004	1.9930e+02	-0.2005	-32.712911	0.000740	7.398887	2.506811	0.000296
2005	1.9940e+02	-0.1588	-32.462608	0.000628	6.283986	2.129072	0.000252
2006	1.9950e+02	-0.1187	-32.196158	0.000669	6.689405	2.266432	0.000268
2007	1.9960e+02	-0.0802	-31.877224	0.000801	8.007015	2.712850	0.000321
2008	1.9970e+02	-0.0433	-31.618847	0.000649	6.486695	2.197752	0.000260
2009	1.9980e+02	0.0000	-31.328173	0.000649	6.486695	2.197752	0.000292

Center data before PMax,+/-Pr and +/-Vc Calc.

PMax (uC/cm2):	1.22e+02
Pr (uC/cm2):	1.80e+01
-Pr (uC/cm2):	-3.13e+01
PLoss (uC/cm2):	-3.92e+01
-Vc:	-2.56e+00
C (Max-Eff) (nF):	6.11e-01
K (Eff):	2.07e+03
Vert. (+/-Pr) Shift (uC/cm2):	-6.65e+00
Offset (uC/cm2):	-7.86e+00

A (Loop Area - uC/cm2·Volts):	3.26e-01



Hysteresis Version: 5.48.1 - Radiant Technologies, Inc., 1999 - 9/12/24

