»»»»»»»»»»»»»»»»»»»»»»»»»»»»»»»»»»»» Hysteresis ««««««««««««««««««««««««««««««««««««
»»»  Executed Version:	5.48.1
»»»  Vision Version:	5.48.4 (R)
»»»  Vision Compiled:	9/18/24
»»»  Driver Version:	5.47.0
»»»  Windows Version:	Windows 8 or 8.1
»»»  Processor Information:	x86 (AMD or Intel) - 32 Processors
»»»  Tester Name:	PMF21124-494 (100V)
»»»  Tester S/N:	PMF21124-494
»»»  Internal Amp Type:	100V RevK 270k
»»»  Internal Amp S/N:	iAB2-596/K     
»»»  Execution Count:	1
»»»»»»»»»»»»»»»»»»»»»»»»»»»»»»»»»»»»»»»»»»««««««««««««««««««««««««««««««««««««««««««

Stored:	6/5/2025 - 17:29:32
Configured:	06/05/25 02:51:50 PM
Executed:	06/05/25 05:29:00 PM

»»»»»»»»»»»»»»»»»»»»»»»»»»»»»»»»»»» Sample Info ««««««««««««««««««««««««««««««««««««
Sample Name:	
Lot Name:	
Wafer Name:	
Die Row/Column:	0/0
Capacitor Number:	0
Sample Area (cm2):	1.00e-04
Sample Thickness (microns):	3.00e-01

Amplifier:	Internal

»»»»»»»»»»»»»»»»»»»»»»»»»»»»»»»»»»» Tester Info «««««««««««««««««««««««««««««««««««
Tester Name:	PMF21124-494 (100V)
Tester Serial Number:	PMF21124-494
Return Signal Amp. Level:	0.19 [Index: 3]

»»»»»»»»»»»»»»»»»»»»»»»»»»»»»»»» Hysteresis Info ««««««««««««««««««««««««««««««««««
Task Name:	+
Volts:	20.00
Field:	666.67 (kV/cm)
DCBias:	0.00
DCField:	0.00 (kV/cm)
Hysteresis Period (ms):	1.00e+00
Preset:	Enabled
Preset Delay (ms):	1.00e+03
Profile:	Standard Bipolar

»»»»»»»»»»»»»»»»»»»»»»»»»»»»»»»»»»»»»» Data «««««««««««««««««««««««««««««««««««««««
Points:	2001

Valid Data

Point	Time (ms)	Drive Voltage	Measured Polarization (uC/cm2)	Capacitance (uF)	Normalized Capacitance (uF/cm2)	Dielectric Constant	Instantaneous Current (mA)
   1	0.0000e+00	0.0080	7.987552	0.000152	1.515453	0.513449	0.012099
   2	5.0000e-04	0.0273	8.048048	0.000152	1.515453	0.513449	0.012099
   3	1.0000e-03	0.0513	8.136776	0.000222	2.222665	0.753059	0.017746
   4	1.5000e-03	0.0979	8.257769	0.000303	3.030906	1.026899	0.024199
   5	2.0000e-03	0.1332	8.415060	0.000394	3.940178	1.334969	0.031458
   6	2.5000e-03	0.1652	8.786105	0.000929	9.294779	3.149157	0.074209
   7	3.0000e-03	0.1989	8.939363	0.000384	3.839148	1.300739	0.030652
   8	3.5000e-03	0.2519	9.185382	0.000616	6.162843	2.088028	0.049204
   9	4.0000e-03	0.2888	9.415269	0.000576	5.758722	1.951108	0.045977
  10	4.5000e-03	0.3225	9.786314	0.000929	9.294779	3.149157	0.074209
  11	5.0000e-03	0.3658	10.060564	0.000687	6.870054	2.327637	0.054850
  12	5.5000e-03	0.4091	10.322716	0.000657	6.566964	2.224948	0.052430
  13	6.0000e-03	0.4588	10.613099	0.000727	7.274175	2.464557	0.058077
  14	6.5000e-03	0.4797	10.871217	0.000647	6.465933	2.190718	0.051624
  15	7.0000e-03	0.5342	11.222097	0.000879	8.789628	2.978007	0.070176
  16	7.5000e-03	0.5695	11.472149	0.000626	6.263873	2.122258	0.050010
  17	8.0000e-03	0.6000	11.774631	0.000758	7.577266	2.567247	0.060496
  18	8.5000e-03	0.6465	12.149710	0.000940	9.395810	3.183386	0.075016
  19	9.0000e-03	0.6786	12.351364	0.000505	5.051511	1.711498	0.040331
  20	9.5000e-03	0.7412	12.702244	0.000879	8.789628	2.978007	0.070176
  21	1.0000e-02	0.7748	13.020859	0.000798	7.981387	2.704167	0.063723
  22	1.0500e-02	0.8053	13.323341	0.000758	7.577266	2.567247	0.060496
  23	1.1000e-02	0.8535	13.641956	0.000798	7.981387	2.704167	0.063723
  24	1.1500e-02	0.8791	13.896041	0.000636	6.364903	2.156488	0.050817
  25	1.2000e-02	0.9289	14.250954	0.000889	8.890659	3.012237	0.070983
  26	1.2500e-02	0.9722	14.565536	0.000788	7.880356	2.669937	0.062916
  27	1.3000e-02	1.0010	14.855919	0.000727	7.274175	2.464557	0.058077
  28	1.3500e-02	1.0508	15.158401	0.000758	7.577266	2.567247	0.060496
  29	1.4000e-02	1.0861	15.481049	0.000808	8.082417	2.738397	0.064530
  30	1.4500e-02	1.1310	15.815796	0.000839	8.385507	2.841087	0.066949
  31	1.5000e-02	1.1615	16.086014	0.000677	6.769024	2.293407	0.054044
  32	1.5500e-02	1.2064	16.388496	0.000758	7.577266	2.567247	0.060496
  33	1.6000e-02	1.2449	16.763574	0.000940	9.395810	3.183386	0.075016
  34	1.6500e-02	1.2834	17.062024	0.000748	7.476236	2.533017	0.059690
  35	1.7000e-02	1.3251	17.364506	0.000758	7.577266	2.567247	0.060496
  36	1.7500e-02	1.3732	17.642790	0.000697	6.971085	2.361867	0.055657
  37	1.8000e-02	1.4053	17.957372	0.000788	7.880356	2.669937	0.062916
  38	1.8500e-02	1.4454	18.275986	0.000798	7.981387	2.704167	0.063723
  39	1.9000e-02	1.4839	18.594601	0.000798	7.981387	2.704167	0.063723
  40	1.9500e-02	1.5320	18.880951	0.000717	7.173145	2.430327	0.057270
  41	2.0000e-02	1.5689	19.211665	0.000828	8.284477	2.806857	0.066143
  42	2.0500e-02	1.6058	19.538346	0.000818	8.183447	2.772627	0.065336
  43	2.1000e-02	1.6588	19.748067	0.000525	5.253571	1.779958	0.041944
  44	2.1500e-02	1.7053	20.098947	0.000879	8.789628	2.978007	0.070176
  45	2.2000e-02	1.7374	20.393363	0.000738	7.375205	2.498787	0.058883
  46	2.2500e-02	1.7679	20.732143	0.000849	8.486538	2.875317	0.067756
  47	2.3000e-02	1.8112	21.091089	0.000899	8.991689	3.046467	0.071789
  48	2.3500e-02	1.8497	21.385505	0.000738	7.375205	2.498787	0.058883
  49	2.4000e-02	1.8850	21.655723	0.000677	6.769024	2.293407	0.054044
  50	2.4500e-02	1.9347	21.986437	0.000828	8.284477	2.806857	0.066143
  51	2.5000e-02	1.9716	22.288919	0.000758	7.577266	2.567247	0.060496
  52	2.5500e-02	2.0085	22.559137	0.000677	6.769024	2.293407	0.054044
  53	2.6000e-02	2.0470	22.910017	0.000879	8.789628	2.978007	0.070176
  54	2.6500e-02	2.0871	23.268962	0.000899	8.991689	3.046467	0.071789
  55	2.7000e-02	2.1304	23.595643	0.000818	8.183447	2.772627	0.065336
  56	2.7500e-02	2.1705	23.926357	0.000828	8.284477	2.806857	0.066143
  57	2.8000e-02	2.2090	24.220774	0.000738	7.375205	2.498787	0.058883
  58	2.8500e-02	2.2491	24.539388	0.000798	7.981387	2.704167	0.063723
  59	2.9000e-02	2.2796	24.793474	0.000636	6.364903	2.156488	0.050817
  60	2.9500e-02	2.3326	25.099989	0.000768	7.678296	2.601477	0.061303
  61	3.0000e-02	2.3695	25.426670	0.000818	8.183447	2.772627	0.065336
  62	3.0500e-02	2.4144	25.761417	0.000839	8.385507	2.841087	0.066949
  63	3.1000e-02	2.4465	26.067933	0.000768	7.678296	2.601477	0.061303
  64	3.1500e-02	2.4834	26.406713	0.000849	8.486538	2.875317	0.067756
  65	3.2000e-02	2.5219	26.717262	0.000778	7.779326	2.635707	0.062110
  66	3.2500e-02	2.5716	27.084274	0.000919	9.193749	3.114927	0.073402
  67	3.3000e-02	2.6085	27.293995	0.000525	5.253571	1.779958	0.041944
  68	3.3500e-02	2.6534	27.608576	0.000788	7.880356	2.669937	0.062916
  69	3.4000e-02	2.6967	27.874761	0.000667	6.667994	2.259177	0.053237
  70	3.4500e-02	2.7352	28.237740	0.000909	9.092719	3.080697	0.072596
  71	3.5000e-02	2.7817	28.548288	0.000778	7.779326	2.635707	0.062110
  72	3.5500e-02	2.8106	28.899168	0.000879	8.789628	2.978007	0.070176
  73	3.6000e-02	2.8443	29.205684	0.000768	7.678296	2.601477	0.061303
  74	3.6500e-02	2.8844	29.471868	0.000667	6.667994	2.259177	0.053237
  75	3.7000e-02	2.9277	29.871145	0.001000	10.001991	3.388766	0.079855
  76	3.7500e-02	2.9710	30.189760	0.000798	7.981387	2.704167	0.063723
  77	3.8000e-02	3.0095	30.439812	0.000626	6.263873	2.122258	0.050010
  78	3.8500e-02	3.0545	30.730195	0.000727	7.274175	2.464557	0.058077
  79	3.9000e-02	3.0849	31.056876	0.000818	8.183447	2.772627	0.065336
  80	3.9500e-02	3.1299	31.375491	0.000798	7.981387	2.704167	0.063723
  81	4.0000e-02	3.1684	31.694105	0.000798	7.981387	2.704167	0.063723
  82	4.0500e-02	3.2053	32.077250	0.000960	9.597870	3.251846	0.076629
  83	4.1000e-02	3.2518	32.327302	0.000626	6.263873	2.122258	0.050010
  84	4.1500e-02	3.2871	32.573321	0.000616	6.162843	2.088028	0.049204
  85	4.2000e-02	3.3240	32.952432	0.000950	9.496840	3.217616	0.075822
  86	4.2500e-02	3.3753	33.234749	0.000707	7.072115	2.396097	0.056463
  87	4.3000e-02	3.4106	33.597728	0.000909	9.092719	3.080697	0.072596
  88	4.3500e-02	3.4459	33.884078	0.000717	7.173145	2.430327	0.057270
  89	4.4000e-02	3.4892	34.194626	0.000778	7.779326	2.635707	0.062110
  90	4.4500e-02	3.5309	34.480977	0.000717	7.173145	2.430327	0.057270
  91	4.5000e-02	3.5646	34.827823	0.000869	8.688598	2.943777	0.069369
  92	4.5500e-02	3.6047	35.057710	0.000576	5.758722	1.951108	0.045977
  93	4.6000e-02	3.6512	35.400523	0.000859	8.587568	2.909547	0.068563
  94	4.6500e-02	3.6962	35.686873	0.000717	7.173145	2.430327	0.057270
  95	4.7000e-02	3.7266	36.013554	0.000818	8.183447	2.772627	0.065336
  96	4.7500e-02	3.7748	36.324103	0.000778	7.779326	2.635707	0.062110
  97	4.8000e-02	3.8004	36.674982	0.000879	8.789628	2.978007	0.070176
  98	4.8500e-02	3.8453	37.041994	0.000919	9.193749	3.114927	0.073402
  99	4.9000e-02	3.8871	37.356576	0.000788	7.880356	2.669937	0.062916
 100	4.9500e-02	3.9416	37.655025	0.000748	7.476236	2.533017	0.059690
 101	5.0000e-02	3.9737	37.965574	0.000778	7.779326	2.635707	0.062110
 102	5.0500e-02	4.0058	38.255957	0.000727	7.274175	2.464557	0.058077
 103	5.1000e-02	4.0539	38.562472	0.000768	7.678296	2.601477	0.061303
 104	5.1500e-02	4.0892	38.925451	0.000909	9.092719	3.080697	0.072596
 105	5.2000e-02	4.1309	39.155338	0.000576	5.758722	1.951108	0.045977
 106	5.2500e-02	4.1742	39.494118	0.000849	8.486538	2.875317	0.067756
 107	5.3000e-02	4.2063	39.792567	0.000748	7.476236	2.533017	0.059690
 108	5.3500e-02	4.2544	40.345102	0.001384	13.841139	4.689505	0.110507
 109	5.4000e-02	4.2865	40.361234	0.000040	0.404121	0.136920	0.003226
 110	5.4500e-02	4.3378	40.712114	0.000879	8.789628	2.978007	0.070176
 111	5.5000e-02	4.3683	41.022662	0.000778	7.779326	2.635707	0.062110
 112	5.5500e-02	4.4004	41.393708	0.000929	9.294779	3.149157	0.074209
 113	5.6000e-02	4.4550	41.676024	0.000707	7.072115	2.396097	0.056463
 114	5.6500e-02	4.5031	41.905911	0.000576	5.758722	1.951108	0.045977
 115	5.7000e-02	4.5400	42.313254	0.001020	10.204051	3.457226	0.081469
 116	5.7500e-02	4.5656	42.595571	0.000707	7.072115	2.396097	0.056463
 117	5.8000e-02	4.6041	42.910153	0.000788	7.880356	2.669937	0.062916
 118	5.8500e-02	4.6459	43.252966	0.000859	8.587568	2.909547	0.068563
 119	5.9000e-02	4.6812	43.559481	0.000768	7.678296	2.601477	0.061303
 120	5.9500e-02	4.7293	43.809534	0.000626	6.263873	2.122258	0.050010
 121	6.0000e-02	4.7774	44.051519	0.000606	6.061813	2.053798	0.048397
 122	6.0500e-02	4.8127	44.386267	0.000839	8.385507	2.841087	0.066949
 123	6.1000e-02	4.8544	44.721014	0.000839	8.385507	2.841087	0.066949
 124	6.1500e-02	4.8913	45.100125	0.000950	9.496840	3.217616	0.075822
 125	6.2000e-02	4.9170	45.354210	0.000636	6.364903	2.156488	0.050817
 126	6.2500e-02	4.9715	45.660726	0.000768	7.678296	2.601477	0.061303
 127	6.3000e-02	5.0100	45.918844	0.000647	6.465933	2.190718	0.051624
 128	6.3500e-02	5.0501	46.330220	0.001031	10.305081	3.491456	0.082275
 129	6.4000e-02	5.0902	46.644802	0.000788	7.880356	2.669937	0.062916
 130	6.4500e-02	5.1319	46.927119	0.000707	7.072115	2.396097	0.056463
 131	6.5000e-02	5.1608	47.233634	0.000768	7.678296	2.601477	0.061303
 132	6.5500e-02	5.2105	47.507885	0.000687	6.870054	2.327637	0.054850
 133	6.6000e-02	5.2539	47.834566	0.000818	8.183447	2.772627	0.065336
 134	6.6500e-02	5.3052	48.173346	0.000849	8.486538	2.875317	0.067756
 135	6.7000e-02	5.3405	48.459696	0.000717	7.173145	2.430327	0.057270
 136	6.7500e-02	5.3774	48.750079	0.000727	7.274175	2.464557	0.058077
 137	6.8000e-02	5.4095	49.068694	0.000798	7.981387	2.704167	0.063723
 138	6.8500e-02	5.4480	49.375210	0.000768	7.678296	2.601477	0.061303
 139	6.9000e-02	5.4961	49.718023	0.000859	8.587568	2.909547	0.068563
 140	6.9500e-02	5.5346	49.927744	0.000525	5.253571	1.779958	0.041944
 141	7.0000e-02	5.5715	50.169730	0.000606	6.061813	2.053798	0.048397
 142	7.0500e-02	5.6068	50.577073	0.001020	10.204051	3.457226	0.081469
 143	7.1000e-02	5.6565	50.883589	0.000768	7.678296	2.601477	0.061303
 144	7.1500e-02	5.6918	51.190104	0.000768	7.678296	2.601477	0.061303
 145	7.2000e-02	5.7367	51.407891	0.000546	5.455631	1.848418	0.043557
 146	7.2500e-02	5.7656	51.730539	0.000808	8.082417	2.738397	0.064530
 147	7.3000e-02	5.8153	52.012856	0.000707	7.072115	2.396097	0.056463
 148	7.3500e-02	5.8442	52.359703	0.000869	8.688598	2.943777	0.069369
 149	7.4000e-02	5.8956	52.698483	0.000849	8.486538	2.875317	0.067756
 150	7.4500e-02	5.9341	52.992899	0.000738	7.375205	2.498787	0.058883
 151	7.5000e-02	5.9645	53.251017	0.000647	6.465933	2.190718	0.051624
 152	7.5500e-02	6.0159	53.650294	0.001000	10.001991	3.388766	0.079855
 153	7.6000e-02	6.0464	53.884214	0.000586	5.859752	1.985338	0.046784
 154	7.6500e-02	6.0881	54.170564	0.000717	7.173145	2.430327	0.057270
 155	7.7000e-02	6.1234	54.440781	0.000677	6.769024	2.293407	0.054044
 156	7.7500e-02	6.1747	54.751330	0.000778	7.779326	2.635707	0.062110
 157	7.8000e-02	6.2100	55.146574	0.000990	9.900961	3.354536	0.079049
 158	7.8500e-02	6.2597	55.376460	0.000576	5.758722	1.951108	0.045977
 159	7.9000e-02	6.2870	55.678943	0.000758	7.577266	2.567247	0.060496
 160	7.9500e-02	6.3207	56.013690	0.000839	8.385507	2.841087	0.066949
 161	8.0000e-02	6.3720	56.235510	0.000556	5.556662	1.882648	0.044364
 162	8.0500e-02	6.4089	56.525893	0.000727	7.274175	2.464557	0.058077
 163	8.1000e-02	6.4554	56.864674	0.000849	8.486538	2.875317	0.067756
 164	8.1500e-02	6.4859	57.195388	0.000828	8.284477	2.806857	0.066143
 165	8.2000e-02	6.5212	57.457539	0.000657	6.566964	2.224948	0.052430
 166	8.2500e-02	6.5629	57.739856	0.000707	7.072115	2.396097	0.056463
 167	8.3000e-02	6.6143	58.018140	0.000697	6.971085	2.361867	0.055657
 168	8.3500e-02	6.6544	58.276258	0.000647	6.465933	2.190718	0.051624
 169	8.4000e-02	6.6848	58.574708	0.000748	7.476236	2.533017	0.059690
 170	8.4500e-02	6.7201	58.840892	0.000667	6.667994	2.259177	0.053237
 171	8.5000e-02	6.7634	59.167573	0.000818	8.183447	2.772627	0.065336
 172	8.5500e-02	6.8003	59.482155	0.000788	7.880356	2.669937	0.062916
 173	8.6000e-02	6.8469	59.792703	0.000778	7.779326	2.635707	0.062110
 174	8.6500e-02	6.8982	60.220212	0.001071	10.709202	3.628376	0.085502
 175	8.7000e-02	6.9351	60.341205	0.000303	3.030906	1.026899	0.024199
 176	8.7500e-02	6.9720	60.619489	0.000697	6.971085	2.361867	0.055657
 177	8.8000e-02	7.0121	60.873574	0.000636	6.364903	2.156488	0.050817
 178	8.8500e-02	7.0586	61.228486	0.000889	8.890659	3.012237	0.070983
 179	8.9000e-02	7.0907	61.442241	0.000535	5.354601	1.814188	0.042751
 180	8.9500e-02	7.1372	61.756822	0.000788	7.880356	2.669937	0.062916
 181	9.0000e-02	7.1822	62.075437	0.000798	7.981387	2.704167	0.063723
 182	9.0500e-02	7.2126	62.357754	0.000707	7.072115	2.396097	0.056463
 183	9.1000e-02	7.2351	62.656203	0.000748	7.476236	2.533017	0.059690
 184	9.1500e-02	7.2832	62.950620	0.000738	7.375205	2.498787	0.058883
 185	9.2000e-02	7.3249	63.192605	0.000606	6.061813	2.053798	0.048397
 186	9.2500e-02	7.3682	63.511220	0.000798	7.981387	2.704167	0.063723
 187	9.3000e-02	7.4083	63.882265	0.000929	9.294779	3.149157	0.074209
 188	9.3500e-02	7.4485	64.096020	0.000535	5.354601	1.814188	0.042751
 189	9.4000e-02	7.4934	64.386403	0.000727	7.274175	2.464557	0.058077
 190	9.4500e-02	7.5319	64.684852	0.000748	7.476236	2.533017	0.059690
 191	9.5000e-02	7.5736	65.003467	0.000798	7.981387	2.704167	0.063723
 192	9.5500e-02	7.6105	65.265618	0.000657	6.566964	2.224948	0.052430
 193	9.6000e-02	7.6474	65.527770	0.000657	6.566964	2.224948	0.052430
 194	9.6500e-02	7.6907	65.862517	0.000839	8.385507	2.841087	0.066949
 195	9.7000e-02	7.7324	66.120635	0.000647	6.465933	2.190718	0.051624
 196	9.7500e-02	7.7725	66.423117	0.000758	7.577266	2.567247	0.060496
 197	9.8000e-02	7.8174	66.709467	0.000717	7.173145	2.430327	0.057270
 198	9.8500e-02	7.8543	66.899023	0.000475	4.748420	1.608808	0.037911
 199	9.9000e-02	7.8944	67.294267	0.000990	9.900961	3.354536	0.079049
 200	9.9500e-02	7.9297	67.512054	0.000546	5.455631	1.848418	0.043557
 201	1.0000e-01	7.9634	67.850834	0.000849	8.486538	2.875317	0.067756
 202	1.0050e-01	8.0115	68.157350	0.000768	7.678296	2.601477	0.061303
 203	1.0100e-01	8.0452	68.371104	0.000535	5.354601	1.814188	0.042751
 204	1.0150e-01	8.0966	68.673586	0.000758	7.577266	2.567247	0.060496
 205	1.0200e-01	8.1383	69.004301	0.000828	8.284477	2.806857	0.066143
 206	1.0250e-01	8.1784	69.286617	0.000707	7.072115	2.396097	0.056463
 207	1.0300e-01	8.2121	69.552802	0.000667	6.667994	2.259177	0.053237
 208	1.0350e-01	8.2490	69.859317	0.000768	7.678296	2.601477	0.061303
 209	1.0400e-01	8.2859	70.097270	0.000596	5.960782	2.019568	0.047591
 210	1.0450e-01	8.3308	70.319091	0.000556	5.556662	1.882648	0.044364
 211	1.0500e-01	8.3693	70.629639	0.000778	7.779326	2.635707	0.062110
 212	1.0550e-01	8.4030	70.879691	0.000626	6.263873	2.122258	0.050010
 213	1.0600e-01	8.4511	71.133777	0.000636	6.364903	2.156488	0.050817
 214	1.0650e-01	8.4944	71.323332	0.000475	4.748420	1.608808	0.037911
 215	1.0700e-01	8.5265	71.694377	0.000929	9.294779	3.149157	0.074209
 216	1.0750e-01	8.5746	71.992827	0.000748	7.476236	2.533017	0.059690
 217	1.0800e-01	8.6035	72.295309	0.000758	7.577266	2.567247	0.060496
 218	1.0850e-01	8.6484	72.557460	0.000657	6.566964	2.224948	0.052430
 219	1.0900e-01	8.6885	72.831711	0.000687	6.870054	2.327637	0.054850
 220	1.0950e-01	8.7318	73.057565	0.000566	5.657692	1.916878	0.045171
 221	1.1000e-01	8.7687	73.400378	0.000859	8.587568	2.909547	0.068563
 222	1.1050e-01	8.8121	73.626232	0.000566	5.657692	1.916878	0.045171
 223	1.1100e-01	8.8473	73.912582	0.000717	7.173145	2.430327	0.057270
 224	1.1150e-01	8.8842	74.178766	0.000667	6.667994	2.259177	0.053237
 225	1.1200e-01	8.9292	74.457050	0.000697	6.971085	2.361867	0.055657
 226	1.1250e-01	8.9757	74.759532	0.000758	7.577266	2.567247	0.060496
 227	1.1300e-01	9.0158	75.037816	0.000697	6.971085	2.361867	0.055657
 228	1.1350e-01	9.0463	75.299967	0.000657	6.566964	2.224948	0.052430
 229	1.1400e-01	9.0896	75.598417	0.000748	7.476236	2.533017	0.059690
 230	1.1450e-01	9.1329	75.872667	0.000687	6.870054	2.327637	0.054850
 231	1.1500e-01	9.1714	76.058190	0.000465	4.647390	1.574578	0.037105
 232	1.1550e-01	9.2131	76.324374	0.000667	6.667994	2.259177	0.053237
 233	1.1600e-01	9.2548	76.634923	0.000778	7.779326	2.635707	0.062110
 234	1.1650e-01	9.2949	76.868843	0.000586	5.859752	1.985338	0.046784
 235	1.1700e-01	9.3190	77.163259	0.000738	7.375205	2.498787	0.058883
 236	1.1750e-01	9.3703	77.502039	0.000849	8.486538	2.875317	0.067756
 237	1.1800e-01	9.4168	77.739992	0.000596	5.960782	2.019568	0.047591
 238	1.1850e-01	9.4521	77.957779	0.000546	5.455631	1.848418	0.043557
 239	1.1900e-01	9.4874	78.159434	0.000505	5.051511	1.711498	0.040331
 240	1.1950e-01	9.5307	78.720035	0.001404	14.043199	4.757965	0.112120
 241	1.2000e-01	9.5789	78.949922	0.000576	5.758722	1.951108	0.045977
 242	1.2050e-01	9.6206	79.010418	0.000152	1.515453	0.513449	0.012099
 243	1.2100e-01	9.6511	79.300801	0.000727	7.274175	2.464557	0.058077
 244	1.2150e-01	9.6912	79.562953	0.000657	6.566964	2.224948	0.052430
 245	1.2200e-01	9.7329	79.853336	0.000727	7.274175	2.464557	0.058077
 246	1.2250e-01	9.7682	80.208248	0.000889	8.890659	3.012237	0.070983
 247	1.2300e-01	9.8083	80.365539	0.000394	3.940178	1.334969	0.031458
 248	1.2350e-01	9.8452	80.611558	0.000616	6.162843	2.088028	0.049204
 249	1.2400e-01	9.8837	80.934206	0.000808	8.082417	2.738397	0.064530
 250	1.2450e-01	9.9382	81.123762	0.000475	4.748420	1.608808	0.037911
 251	1.2500e-01	9.9671	81.377847	0.000636	6.364903	2.156488	0.050817
 252	1.2550e-01	10.0088	81.684363	0.000768	7.678296	2.601477	0.061303
 253	1.2600e-01	10.0537	81.994911	0.000778	7.779326	2.635707	0.062110
 254	1.2650e-01	10.0938	82.240930	0.000616	6.162843	2.088028	0.049204
 255	1.2700e-01	10.1275	82.511148	0.000677	6.769024	2.293407	0.054044
 256	1.2750e-01	10.1708	82.785398	0.000687	6.870054	2.327637	0.054850
 257	1.2800e-01	10.2109	83.035451	0.000626	6.263873	2.122258	0.050010
 258	1.2850e-01	10.2494	83.281470	0.000616	6.162843	2.088028	0.049204
 259	1.2900e-01	10.2992	83.523456	0.000606	6.061813	2.053798	0.048397
 260	1.2950e-01	10.3393	83.785607	0.000657	6.566964	2.224948	0.052430
 261	1.3000e-01	10.3778	84.039692	0.000636	6.364903	2.156488	0.050817
 262	1.3050e-01	10.4147	84.297810	0.000647	6.465933	2.190718	0.051624
 263	1.3100e-01	10.4628	84.572061	0.000687	6.870054	2.327637	0.054850
 264	1.3150e-01	10.4901	84.785815	0.000535	5.354601	1.814188	0.042751
 265	1.3200e-01	10.5366	84.995536	0.000525	5.253571	1.779958	0.041944
 266	1.3250e-01	10.5831	85.318184	0.000808	8.082417	2.738397	0.064530
 267	1.3300e-01	10.6184	85.576303	0.000647	6.465933	2.190718	0.051624
 268	1.3350e-01	10.6505	85.834421	0.000647	6.465933	2.190718	0.051624
 269	1.3400e-01	10.6874	86.128837	0.000738	7.375205	2.498787	0.058883
 270	1.3450e-01	10.7227	86.399055	0.000677	6.769024	2.293407	0.054044
 271	1.3500e-01	10.7692	86.689438	0.000727	7.274175	2.464557	0.058077
 272	1.3550e-01	10.8077	86.891093	0.000505	5.051511	1.711498	0.040331
 273	1.3600e-01	10.8591	87.112913	0.000556	5.556662	1.882648	0.044364
 274	1.3650e-01	10.8959	87.330701	0.000546	5.455631	1.848418	0.043557
 275	1.3700e-01	10.9361	87.653348	0.000808	8.082417	2.738397	0.064530
 276	1.3750e-01	10.9681	87.859037	0.000515	5.152541	1.745728	0.041138
 277	1.3800e-01	11.0115	88.113122	0.000636	6.364903	2.156488	0.050817
 278	1.3850e-01	11.0500	88.371240	0.000647	6.465933	2.190718	0.051624
 279	1.3900e-01	11.0917	88.580961	0.000525	5.253571	1.779958	0.041944
 280	1.3950e-01	11.1350	88.851179	0.000677	6.769024	2.293407	0.054044
 281	1.4000e-01	11.1735	89.153661	0.000758	7.577266	2.567247	0.060496
 282	1.4050e-01	11.2120	89.395647	0.000606	6.061813	2.053798	0.048397
 283	1.4100e-01	11.2537	89.706196	0.000778	7.779326	2.635707	0.062110
 284	1.4150e-01	11.2922	89.940115	0.000586	5.859752	1.985338	0.046784
 285	1.4200e-01	11.3323	90.109506	0.000424	4.243269	1.437658	0.033878
 286	1.4250e-01	11.3740	90.363591	0.000636	6.364903	2.156488	0.050817
 287	1.4300e-01	11.4093	90.662040	0.000748	7.476236	2.533017	0.059690
 288	1.4350e-01	11.4430	90.932258	0.000677	6.769024	2.293407	0.054044
 289	1.4400e-01	11.4975	91.182310	0.000626	6.263873	2.122258	0.050010
 290	1.4450e-01	11.5328	91.412196	0.000576	5.758722	1.951108	0.045977
 291	1.4500e-01	11.5729	91.698546	0.000717	7.173145	2.430327	0.057270
 292	1.4550e-01	11.6130	91.888102	0.000475	4.748420	1.608808	0.037911
 293	1.4600e-01	11.6564	92.134121	0.000616	6.162843	2.088028	0.049204
 294	1.4650e-01	11.6916	92.339809	0.000515	5.152541	1.745728	0.041138
 295	1.4700e-01	11.7414	92.605994	0.000667	6.667994	2.259177	0.053237
 296	1.4750e-01	11.7751	92.795549	0.000475	4.748420	1.608808	0.037911
 297	1.4800e-01	11.8152	93.077866	0.000707	7.072115	2.396097	0.056463
 298	1.4850e-01	11.8537	93.392448	0.000788	7.880356	2.669937	0.062916
 299	1.4900e-01	11.8890	93.674765	0.000707	7.072115	2.396097	0.056463
 300	1.4950e-01	11.9259	93.888519	0.000535	5.354601	1.814188	0.042751
 301	1.5000e-01	11.9708	94.078075	0.000475	4.748420	1.608808	0.037911
 302	1.5050e-01	12.0141	94.316027	0.000596	5.960782	2.019568	0.047591
 303	1.5100e-01	12.0510	94.562046	0.000616	6.162843	2.088028	0.049204
 304	1.5150e-01	12.0831	94.747569	0.000465	4.647390	1.574578	0.037105
 305	1.5200e-01	12.1312	95.058118	0.000778	7.779326	2.635707	0.062110
 306	1.5250e-01	12.1809	95.183144	0.000313	3.131937	1.061129	0.025005
 307	1.5300e-01	12.2178	95.622751	0.001101	11.012293	3.731066	0.087922
 308	1.5350e-01	12.2563	95.800208	0.000445	4.445329	1.506118	0.035491
 309	1.5400e-01	12.2980	96.066392	0.000667	6.667994	2.259177	0.053237
 310	1.5450e-01	12.3269	96.292246	0.000566	5.657692	1.916878	0.045171
 311	1.5500e-01	12.3702	96.538265	0.000616	6.162843	2.088028	0.049204
 312	1.5550e-01	12.4184	96.877045	0.000849	8.486538	2.875317	0.067756
 313	1.5600e-01	12.4537	97.030303	0.000384	3.839148	1.300739	0.030652
 314	1.5650e-01	12.4906	97.256156	0.000566	5.657692	1.916878	0.045171
 315	1.5700e-01	12.5291	97.514275	0.000647	6.465933	2.190718	0.051624
 316	1.5750e-01	12.5660	97.707863	0.000485	4.849450	1.643038	0.038718
 317	1.5800e-01	12.6173	98.002279	0.000738	7.375205	2.498787	0.058883
 318	1.5850e-01	12.6542	98.224100	0.000556	5.556662	1.882648	0.044364
 319	1.5900e-01	12.6911	98.441887	0.000546	5.455631	1.848418	0.043557
 320	1.5950e-01	12.7376	98.760502	0.000798	7.981387	2.704167	0.063723
 321	1.6000e-01	12.7681	98.893594	0.000333	3.333997	1.129589	0.026618
 322	1.6050e-01	12.8098	99.208176	0.000788	7.880356	2.669937	0.062916
 323	1.6100e-01	12.8547	99.466294	0.000647	6.465933	2.190718	0.051624
 324	1.6150e-01	12.8868	99.680049	0.000535	5.354601	1.814188	0.042751
 325	1.6200e-01	12.9397	99.938167	0.000647	6.465933	2.190718	0.051624
 326	1.6250e-01	12.9847	100.127722	0.000475	4.748420	1.608808	0.037911
 327	1.6300e-01	13.0103	100.361642	0.000586	5.859752	1.985338	0.046784
 328	1.6350e-01	13.0504	100.575396	0.000535	5.354601	1.814188	0.042751
 329	1.6400e-01	13.0841	100.777051	0.000505	5.051511	1.711498	0.040331
 330	1.6450e-01	13.1339	101.079534	0.000758	7.577266	2.567247	0.060496
 331	1.6500e-01	13.1611	101.337652	0.000647	6.465933	2.190718	0.051624
 332	1.6550e-01	13.2028	101.486877	0.000374	3.738118	1.266509	0.029845
 333	1.6600e-01	13.2574	101.640134	0.000384	3.839148	1.300739	0.030652
 334	1.6650e-01	13.2927	101.914385	0.000687	6.870054	2.327637	0.054850
 335	1.6700e-01	13.3296	102.249132	0.000839	8.385507	2.841087	0.066949
 336	1.6750e-01	13.3649	102.426589	0.000445	4.445329	1.506118	0.035491
 337	1.6800e-01	13.4066	102.700839	0.000687	6.870054	2.327637	0.054850
 338	1.6850e-01	13.4531	102.967024	0.000667	6.667994	2.259177	0.053237
 339	1.6900e-01	13.4948	103.116249	0.000374	3.738118	1.266509	0.029845
 340	1.6950e-01	13.5333	103.386466	0.000677	6.769024	2.293407	0.054044
 341	1.7000e-01	13.5750	103.620386	0.000586	5.859752	1.985338	0.046784
 342	1.7050e-01	13.6103	103.862372	0.000606	6.061813	2.053798	0.048397
 343	1.7100e-01	13.6504	104.047894	0.000465	4.647390	1.574578	0.037105
 344	1.7150e-01	13.6969	104.306013	0.000647	6.465933	2.190718	0.051624
 345	1.7200e-01	13.7242	104.519767	0.000535	5.354601	1.814188	0.042751
 346	1.7250e-01	13.7755	104.733521	0.000535	5.354601	1.814188	0.042751
 347	1.7300e-01	13.8012	104.939209	0.000515	5.152541	1.745728	0.041138
 348	1.7350e-01	13.8397	105.213460	0.000687	6.870054	2.327637	0.054850
 349	1.7400e-01	13.8894	105.403015	0.000475	4.748420	1.608808	0.037911
 350	1.7450e-01	13.9360	105.709531	0.000768	7.678296	2.601477	0.061303
 351	1.7500e-01	13.9729	105.886987	0.000445	4.445329	1.506118	0.035491
 352	1.7550e-01	14.0114	106.177370	0.000727	7.274175	2.464557	0.058077
 353	1.7600e-01	14.0467	106.427422	0.000626	6.263873	2.122258	0.050010
 354	1.7650e-01	14.0900	106.633110	0.000515	5.152541	1.745728	0.041138
 355	1.7700e-01	14.1221	106.826699	0.000485	4.849450	1.643038	0.038718
 356	1.7750e-01	14.1782	107.004156	0.000445	4.445329	1.506118	0.035491
 357	1.7800e-01	14.2119	107.322770	0.000798	7.981387	2.704167	0.063723
 358	1.7850e-01	14.2504	107.572822	0.000626	6.263873	2.122258	0.050010
 359	1.7900e-01	14.2905	107.806742	0.000586	5.859752	1.985338	0.046784
 360	1.7950e-01	14.3322	107.996298	0.000475	4.748420	1.608808	0.037911
 361	1.8000e-01	14.3675	108.246350	0.000626	6.263873	2.122258	0.050010
 362	1.8050e-01	14.4156	108.407674	0.000404	4.041208	1.369198	0.032265
 363	1.8100e-01	14.4493	108.605296	0.000495	4.950480	1.677268	0.039524
 364	1.8150e-01	14.5007	108.851315	0.000616	6.162843	2.088028	0.049204
 365	1.8200e-01	14.5279	109.093301	0.000606	6.061813	2.053798	0.048397
 366	1.8250e-01	14.5648	109.298989	0.000515	5.152541	1.745728	0.041138
 367	1.8300e-01	14.6065	109.553074	0.000636	6.364903	2.156488	0.050817
 368	1.8350e-01	14.6466	109.799093	0.000616	6.162843	2.088028	0.049204
 369	1.8400e-01	14.6868	109.968483	0.000424	4.243269	1.437658	0.033878
 370	1.8450e-01	14.7172	110.266932	0.000748	7.476236	2.533017	0.059690
 371	1.8500e-01	14.7718	110.516984	0.000626	6.263873	2.122258	0.050010
 372	1.8550e-01	14.8151	110.738805	0.000556	5.556662	1.882648	0.044364
 373	1.8600e-01	14.8440	111.004989	0.000667	6.667994	2.259177	0.053237
 374	1.8650e-01	14.8905	111.117916	0.000283	2.828846	0.958439	0.022585
 375	1.8700e-01	14.9370	111.323604	0.000515	5.152541	1.745728	0.041138
 376	1.8750e-01	14.9771	111.545425	0.000556	5.556662	1.882648	0.044364
 377	1.8800e-01	15.0124	111.759179	0.000535	5.354601	1.814188	0.042751
 378	1.8850e-01	15.0477	112.053595	0.000738	7.375205	2.498787	0.058883
 379	1.8900e-01	15.0878	112.170555	0.000293	2.929876	0.992669	0.023392
 380	1.8950e-01	15.1391	112.481103	0.000778	7.779326	2.635707	0.062110
 381	1.9000e-01	15.1696	112.598063	0.000293	2.929876	0.992669	0.023392
 382	1.9050e-01	15.2097	112.856182	0.000647	6.465933	2.190718	0.051624
 383	1.9100e-01	15.2466	113.170763	0.000788	7.880356	2.669937	0.062916
 384	1.9150e-01	15.2899	113.360319	0.000475	4.748420	1.608808	0.037911
 385	1.9200e-01	15.3252	113.549875	0.000475	4.748420	1.608808	0.037911
 386	1.9250e-01	15.3750	113.739430	0.000475	4.748420	1.608808	0.037911
 387	1.9300e-01	15.4038	114.017714	0.000697	6.971085	2.361867	0.055657
 388	1.9350e-01	15.4488	114.146773	0.000323	3.232967	1.095359	0.025812
 389	1.9400e-01	15.4808	114.376660	0.000576	5.758722	1.951108	0.045977
 390	1.9450e-01	15.5274	114.630745	0.000636	6.364903	2.156488	0.050817
 391	1.9500e-01	15.5691	114.840466	0.000525	5.253571	1.779958	0.041944
 392	1.9550e-01	15.6140	115.070353	0.000576	5.758722	1.951108	0.045977
 393	1.9600e-01	15.6493	115.239743	0.000424	4.243269	1.437658	0.033878
 394	1.9650e-01	15.6846	115.489795	0.000626	6.263873	2.122258	0.050010
 395	1.9700e-01	15.7279	115.731781	0.000606	6.061813	2.053798	0.048397
 396	1.9750e-01	15.7792	115.937469	0.000515	5.152541	1.745728	0.041138
 397	1.9800e-01	15.8097	116.135091	0.000495	4.950480	1.677268	0.039524
 398	1.9850e-01	15.8514	116.397242	0.000657	6.566964	2.224948	0.052430
 399	1.9900e-01	15.8899	116.667460	0.000677	6.769024	2.293407	0.054044
 400	1.9950e-01	15.9316	116.832817	0.000414	4.142239	1.403428	0.033071
 401	2.0000e-01	15.9798	117.026406	0.000485	4.849450	1.643038	0.038718
 402	2.0050e-01	16.0054	117.272425	0.000616	6.162843	2.088028	0.049204
 403	2.0100e-01	16.0439	117.502311	0.000576	5.758722	1.951108	0.045977
 404	2.0150e-01	16.0824	117.691867	0.000475	4.748420	1.608808	0.037911
 405	2.0200e-01	16.1241	117.909654	0.000546	5.455631	1.848418	0.043557
 406	2.0250e-01	16.1707	118.191971	0.000707	7.072115	2.396097	0.056463
 407	2.0300e-01	16.2060	118.373461	0.000455	4.546359	1.540348	0.036298
 408	2.0350e-01	16.2573	118.579149	0.000515	5.152541	1.745728	0.041138
 409	2.0400e-01	16.2926	118.708208	0.000323	3.232967	1.095359	0.025812
 410	2.0450e-01	16.3279	118.921962	0.000535	5.354601	1.814188	0.042751
 411	2.0500e-01	16.3760	119.184113	0.000657	6.566964	2.224948	0.052430
 412	2.0550e-01	16.4081	119.393834	0.000525	5.253571	1.779958	0.041944
 413	2.0600e-01	16.4514	119.664052	0.000677	6.769024	2.293407	0.054044
 414	2.0650e-01	16.4851	119.869740	0.000515	5.152541	1.745728	0.041138
 415	2.0700e-01	16.5284	120.091561	0.000556	5.556662	1.882648	0.044364
 416	2.0750e-01	16.5733	120.273050	0.000455	4.546359	1.540348	0.036298
 417	2.0800e-01	16.6054	120.490837	0.000546	5.455631	1.848418	0.043557
 418	2.0850e-01	16.6551	120.648128	0.000394	3.940178	1.334969	0.031458
 419	2.0900e-01	16.6953	120.950611	0.000758	7.577266	2.567247	0.060496
 420	2.0950e-01	16.7321	121.200663	0.000626	6.263873	2.122258	0.050010
 421	2.1000e-01	16.7690	121.430549	0.000576	5.758722	1.951108	0.045977
 422	2.1050e-01	16.8124	121.543476	0.000283	2.828846	0.958439	0.022585
 423	2.1100e-01	16.8493	121.749164	0.000515	5.152541	1.745728	0.041138
 424	2.1150e-01	16.8974	121.950819	0.000505	5.051511	1.711498	0.040331
 425	2.1200e-01	16.9327	122.100044	0.000374	3.738118	1.266509	0.029845
 426	2.1250e-01	16.9712	122.390427	0.000727	7.274175	2.464557	0.058077
 427	2.1300e-01	17.0113	122.624346	0.000586	5.859752	1.985338	0.046784
 428	2.1350e-01	17.0418	122.817935	0.000485	4.849450	1.643038	0.038718
 429	2.1400e-01	17.0931	123.019590	0.000505	5.051511	1.711498	0.040331
 430	2.1450e-01	17.1380	123.221245	0.000505	5.051511	1.711498	0.040331
 431	2.1500e-01	17.1717	123.422900	0.000505	5.051511	1.711498	0.040331
 432	2.1550e-01	17.2102	123.608423	0.000465	4.647390	1.574578	0.037105
 433	2.1600e-01	17.2455	123.894773	0.000717	7.173145	2.430327	0.057270
 434	2.1650e-01	17.2952	124.039964	0.000364	3.637088	1.232279	0.029038
 435	2.1700e-01	17.3321	124.241619	0.000505	5.051511	1.711498	0.040331
 436	2.1750e-01	17.3722	124.515870	0.000687	6.870054	2.327637	0.054850
 437	2.1800e-01	17.4091	124.689293	0.000434	4.344299	1.471888	0.034685
 438	2.1850e-01	17.4524	124.628796	-0.000152	-1.515453	-0.513449	-0.012099
 439	2.1900e-01	17.4926	125.141000	0.001283	12.830837	4.347205	0.102441
 440	2.1950e-01	17.5311	125.318456	0.000445	4.445329	1.506118	0.035491
 441	2.2000e-01	17.5744	125.568508	0.000626	6.263873	2.122258	0.050010
 442	2.2050e-01	17.5984	125.705634	0.000344	3.435027	1.163819	0.027425
 443	2.2100e-01	17.6578	125.911322	0.000515	5.152541	1.745728	0.041138
 444	2.2150e-01	17.6931	126.133142	0.000556	5.556662	1.882648	0.044364
 445	2.2200e-01	17.7300	126.367062	0.000586	5.859752	1.985338	0.046784
 446	2.2250e-01	17.7717	126.560651	0.000485	4.849450	1.643038	0.038718
 447	2.2300e-01	17.8134	126.766339	0.000515	5.152541	1.745728	0.041138
 448	2.2350e-01	17.8439	127.028490	0.000657	6.566964	2.224948	0.052430
 449	2.2400e-01	17.8952	127.246277	0.000546	5.455631	1.848418	0.043557
 450	2.2450e-01	17.9305	127.443899	0.000495	4.950480	1.677268	0.039524
 451	2.2500e-01	17.9706	127.560859	0.000293	2.929876	0.992669	0.023392
 452	2.2550e-01	18.0059	127.693951	0.000333	3.333997	1.129589	0.026618
 453	2.2600e-01	18.0508	127.984334	0.000727	7.274175	2.464557	0.058077
 454	2.2650e-01	18.0941	128.254552	0.000677	6.769024	2.293407	0.054044
 455	2.2700e-01	18.1294	128.440075	0.000465	4.647390	1.574578	0.037105
 456	2.2750e-01	18.1792	128.649796	0.000525	5.253571	1.779958	0.041944
 457	2.2800e-01	18.2096	128.794987	0.000364	3.637088	1.232279	0.029038
 458	2.2850e-01	18.2626	129.020841	0.000566	5.657692	1.916878	0.045171
 459	2.2900e-01	18.2899	129.222496	0.000505	5.051511	1.711498	0.040331
 460	2.2950e-01	18.3332	129.440283	0.000546	5.455631	1.848418	0.043557
 461	2.3000e-01	18.3685	129.662104	0.000556	5.556662	1.882648	0.044364
 462	2.3050e-01	18.4118	129.851659	0.000475	4.748420	1.608808	0.037911
 463	2.3100e-01	18.4519	130.073480	0.000556	5.556662	1.882648	0.044364
 464	2.3150e-01	18.4872	130.182373	0.000273	2.727816	0.924209	0.021779
 465	2.3200e-01	18.5369	130.420326	0.000596	5.960782	2.019568	0.047591
 466	2.3250e-01	18.5722	130.678444	0.000647	6.465933	2.190718	0.051624
 467	2.3300e-01	18.6203	130.920430	0.000606	6.061813	2.053798	0.048397
 468	2.3350e-01	18.6540	131.081754	0.000404	4.041208	1.369198	0.032265
 469	2.3400e-01	18.6973	131.291475	0.000525	5.253571	1.779958	0.041944
 470	2.3450e-01	18.7326	131.557660	0.000667	6.667994	2.259177	0.053237
 471	2.3500e-01	18.7711	131.690752	0.000333	3.333997	1.129589	0.026618
 472	2.3550e-01	18.8144	131.872242	0.000455	4.546359	1.540348	0.036298
 473	2.3600e-01	18.8545	132.057764	0.000465	4.647390	1.574578	0.037105
 474	2.3650e-01	18.8995	132.291684	0.000586	5.859752	1.985338	0.046784
 475	2.3700e-01	18.9235	132.501405	0.000525	5.253571	1.779958	0.041944
 476	2.3750e-01	18.9652	132.751457	0.000626	6.263873	2.122258	0.050010
 477	2.3800e-01	19.0086	132.904715	0.000384	3.839148	1.300739	0.030652
 478	2.3850e-01	19.0422	133.154767	0.000626	6.263873	2.122258	0.050010
 479	2.3900e-01	19.0936	133.303992	0.000374	3.738118	1.266509	0.029845
 480	2.3950e-01	19.1353	133.525812	0.000556	5.556662	1.882648	0.044364
 481	2.4000e-01	19.1658	133.743599	0.000546	5.455631	1.848418	0.043557
 482	2.4050e-01	19.1995	133.977519	0.000586	5.859752	1.985338	0.046784
 483	2.4100e-01	19.2460	134.163042	0.000465	4.647390	1.574578	0.037105
 484	2.4150e-01	19.2845	134.332432	0.000424	4.243269	1.437658	0.033878
 485	2.4200e-01	19.3326	134.566351	0.000586	5.859752	1.985338	0.046784
 486	2.4250e-01	19.3743	134.816404	0.000626	6.263873	2.122258	0.050010
 487	2.4300e-01	19.4032	134.993860	0.000445	4.445329	1.506118	0.035491
 488	2.4350e-01	19.4529	135.159217	0.000414	4.142239	1.403428	0.033071
 489	2.4400e-01	19.4754	135.377004	0.000546	5.455631	1.848418	0.043557
 490	2.4450e-01	19.5283	135.497997	0.000303	3.030906	1.026899	0.024199
 491	2.4500e-01	19.5765	135.667387	0.000424	4.243269	1.437658	0.033878
 492	2.4550e-01	19.6134	135.897274	0.000576	5.758722	1.951108	0.045977
 493	2.4600e-01	19.6535	136.074730	0.000445	4.445329	1.506118	0.035491
 494	2.4650e-01	19.6904	136.340915	0.000667	6.667994	2.259177	0.053237
 495	2.4700e-01	19.7289	136.526437	0.000465	4.647390	1.574578	0.037105
 496	2.4750e-01	19.7690	136.711960	0.000465	4.647390	1.574578	0.037105
 497	2.4800e-01	19.8187	136.901516	0.000475	4.748420	1.608808	0.037911
 498	2.4850e-01	19.8508	137.010409	0.000273	2.727816	0.924209	0.021779
 499	2.4900e-01	19.8957	137.151568	0.000354	3.536057	1.198049	0.028232
 500	2.4950e-01	19.9374	137.405653	0.000636	6.364903	2.156488	0.050817
 501	2.5000e-01	19.9727	137.607308	0.000505	5.051511	1.711498	0.040331
 502	2.5050e-01	19.9759	137.833161	0.000566	5.657692	1.916878	0.045171
 503	2.5100e-01	19.9534	137.905757	-0.000182	-1.818544	-0.616139	0.014519
 504	2.5150e-01	19.9085	137.772665	0.000333	3.333997	1.129589	-0.026618
 505	2.5200e-01	19.8732	137.671837	0.000253	2.525755	0.855749	-0.020165
 506	2.5250e-01	19.8412	137.579076	0.000232	2.323695	0.787289	-0.018552
 507	2.5300e-01	19.7962	137.445984	0.000333	3.333997	1.129589	-0.026618
 508	2.5350e-01	19.7609	137.312892	0.000333	3.333997	1.129589	-0.026618
 509	2.5400e-01	19.7192	137.147535	0.000414	4.142239	1.403428	-0.033071
 510	2.5450e-01	19.6711	136.925714	0.000556	5.556662	1.882648	-0.044364
 511	2.5500e-01	19.6342	136.893449	0.000081	0.808242	0.273840	-0.006453
 512	2.5550e-01	19.5973	136.647430	0.000616	6.162843	2.088028	-0.049204
 513	2.5600e-01	19.5508	136.574835	0.000182	1.818544	0.616139	-0.014519
 514	2.5650e-01	19.5107	136.369146	0.000515	5.152541	1.745728	-0.041138
 515	2.5700e-01	19.4674	136.147326	0.000556	5.556662	1.882648	-0.044364
 516	2.5750e-01	19.4305	136.014234	0.000333	3.333997	1.129589	-0.026618
 517	2.5800e-01	19.3855	135.840811	0.000434	4.344299	1.471888	-0.034685
 518	2.5850e-01	19.3567	135.643189	0.000495	4.950480	1.677268	-0.039524
 519	2.5900e-01	19.3182	135.522196	0.000303	3.030906	1.026899	-0.024199
 520	2.5950e-01	19.2684	135.372971	0.000374	3.738118	1.266509	-0.029845
 521	2.6000e-01	19.2299	135.239879	0.000333	3.333997	1.129589	-0.026618
 522	2.6050e-01	19.1930	135.046290	0.000485	4.849450	1.643038	-0.038718
 523	2.6100e-01	19.1577	134.897066	0.000374	3.738118	1.266509	-0.029845
 524	2.6150e-01	19.1160	134.687344	0.000525	5.253571	1.779958	-0.041944
 525	2.6200e-01	19.0727	134.570385	0.000293	2.929876	0.992669	-0.023392
 526	2.6250e-01	19.0390	134.417127	0.000384	3.839148	1.300739	-0.030652
 527	2.6300e-01	19.0070	134.207406	0.000525	5.253571	1.779958	-0.041944
 528	2.6350e-01	18.9588	134.017850	0.000475	4.748420	1.608808	-0.037911
 529	2.6400e-01	18.9171	133.900890	0.000293	2.929876	0.992669	-0.023392
 530	2.6450e-01	18.8674	133.715368	0.000465	4.647390	1.574578	-0.037105
 531	2.6500e-01	18.8401	133.554044	0.000404	4.041208	1.369198	-0.032265
 532	2.6550e-01	18.7904	133.420951	0.000333	3.333997	1.129589	-0.026618
 533	2.6600e-01	18.7615	133.199131	0.000556	5.556662	1.882648	-0.044364
 534	2.6650e-01	18.7134	133.066039	0.000333	3.333997	1.129589	-0.026618
 535	2.6700e-01	18.6685	132.840185	0.000566	5.657692	1.916878	-0.045171
 536	2.6750e-01	18.6251	132.682894	0.000394	3.940178	1.334969	-0.031458
 537	2.6800e-01	18.5915	132.557868	0.000313	3.131937	1.061129	-0.025005
 538	2.6850e-01	18.5497	132.372346	0.000465	4.647390	1.574578	-0.037105
 539	2.6900e-01	18.5128	132.154558	0.000546	5.455631	1.848418	-0.043557
 540	2.6950e-01	18.4711	131.960970	0.000485	4.849450	1.643038	-0.038718
 541	2.7000e-01	18.4374	131.731083	0.000576	5.758722	1.951108	-0.045977
 542	2.7050e-01	18.3925	131.565726	0.000414	4.142239	1.403428	-0.033071
 543	2.7100e-01	18.3492	131.388270	0.000445	4.445329	1.506118	-0.035491
 544	2.7150e-01	18.3155	131.255177	0.000333	3.333997	1.129589	-0.026618
 545	2.7200e-01	18.2690	131.150317	0.000263	2.626785	0.889979	-0.020972
 546	2.7250e-01	18.2337	131.001092	0.000374	3.738118	1.266509	-0.029845
 547	2.7300e-01	18.1824	130.807504	0.000485	4.849450	1.643038	-0.038718
 548	2.7350e-01	18.1535	130.601815	0.000515	5.152541	1.745728	-0.041138
 549	2.7400e-01	18.1118	130.384028	0.000546	5.455631	1.848418	-0.043557
 550	2.7450e-01	18.0749	130.238837	0.000364	3.637088	1.232279	-0.029038
 551	2.7500e-01	18.0364	130.053314	0.000465	4.647390	1.574578	-0.037105
 552	2.7550e-01	17.9883	129.896023	0.000394	3.940178	1.334969	-0.031458
 553	2.7600e-01	17.9514	129.686302	0.000525	5.253571	1.779958	-0.041944
 554	2.7650e-01	17.9177	129.512879	0.000434	4.344299	1.471888	-0.034685
 555	2.7700e-01	17.8712	129.351555	0.000404	4.041208	1.369198	-0.032265
 556	2.7750e-01	17.8391	129.101503	0.000626	6.263873	2.122258	-0.050010
 557	2.7800e-01	17.8006	128.960344	0.000354	3.536057	1.198049	-0.028232
 558	2.7850e-01	17.7524	128.871616	0.000222	2.222665	0.753059	-0.017746
 559	2.7900e-01	17.7171	128.641730	0.000576	5.758722	1.951108	-0.045977
 560	2.7950e-01	17.6770	128.423942	0.000546	5.455631	1.848418	-0.043557
 561	2.8000e-01	17.6385	128.306982	0.000293	2.929876	0.992669	-0.023392
 562	2.8050e-01	17.5936	128.064996	0.000606	6.061813	2.053798	-0.048397
 563	2.8100e-01	17.5471	127.935937	0.000323	3.232967	1.095359	-0.025812
 564	2.8150e-01	17.5150	127.657654	0.000697	6.971085	2.361867	-0.055657
 565	2.8200e-01	17.4733	127.500363	0.000394	3.940178	1.334969	-0.031458
 566	2.8250e-01	17.4332	127.326939	0.000434	4.344299	1.471888	-0.034685
 567	2.8300e-01	17.3867	127.177715	0.000374	3.738118	1.266509	-0.029845
 568	2.8350e-01	17.3498	126.976060	0.000505	5.051511	1.711498	-0.040331
 569	2.8400e-01	17.3081	126.855067	0.000303	3.030906	1.026899	-0.024199
 570	2.8450e-01	17.2728	126.334797	0.001303	13.032897	4.415665	-0.104054
 571	2.8500e-01	17.2327	126.383194	-0.000121	-1.212363	-0.410760	0.009679
 572	2.8550e-01	17.1894	126.286400	0.000242	2.424725	0.821519	-0.019359
 573	2.8600e-01	17.1589	126.112977	0.000434	4.344299	1.471888	-0.034685
 574	2.8650e-01	17.1124	125.870991	0.000606	6.061813	2.053798	-0.048397
 575	2.8700e-01	17.0738	125.669336	0.000505	5.051511	1.711498	-0.040331
 576	2.8750e-01	17.0305	125.592707	0.000192	1.919574	0.650369	-0.015326
 577	2.8800e-01	16.9888	125.314423	0.000697	6.971085	2.361867	-0.055657
 578	2.8850e-01	16.9455	125.136967	0.000445	4.445329	1.506118	-0.035491
 579	2.8900e-01	16.9070	124.951444	0.000465	4.647390	1.574578	-0.037105
 580	2.8950e-01	16.8749	124.725591	0.000566	5.657692	1.916878	-0.045171
 581	2.9000e-01	16.8316	124.564267	0.000404	4.041208	1.369198	-0.032265
 582	2.9050e-01	16.7915	124.386811	0.000445	4.445329	1.506118	-0.035491
 583	2.9100e-01	16.7562	124.173056	0.000535	5.354601	1.814188	-0.042751
 584	2.9150e-01	16.6985	124.027865	0.000364	3.637088	1.232279	-0.029038
 585	2.9200e-01	16.6760	123.910905	0.000293	2.929876	0.992669	-0.023392
 586	2.9250e-01	16.6295	123.620522	0.000727	7.274175	2.464557	-0.058077
 587	2.9300e-01	16.5862	123.503562	0.000293	2.929876	0.992669	-0.023392
 588	2.9350e-01	16.5557	123.338205	0.000414	4.142239	1.403428	-0.033071
 589	2.9400e-01	16.5076	123.124451	0.000535	5.354601	1.814188	-0.042751
 590	2.9450e-01	16.4835	122.983292	0.000354	3.536057	1.198049	-0.028232
 591	2.9500e-01	16.4322	122.773571	0.000525	5.253571	1.779958	-0.041944
 592	2.9550e-01	16.3937	122.551751	0.000556	5.556662	1.882648	-0.044364
 593	2.9600e-01	16.3552	122.269434	0.000707	7.072115	2.396097	-0.056463
 594	2.9650e-01	16.3118	122.152474	0.000293	2.929876	0.992669	-0.023392
 595	2.9700e-01	16.2669	121.946786	0.000515	5.152541	1.745728	-0.041138
 596	2.9750e-01	16.2461	121.737065	0.000525	5.253571	1.779958	-0.041944
 597	2.9800e-01	16.1915	121.603973	0.000333	3.333997	1.129589	-0.026618
 598	2.9850e-01	16.1402	121.386185	0.000546	5.455631	1.848418	-0.043557
 599	2.9900e-01	16.1145	121.168398	0.000546	5.455631	1.848418	-0.043557
 600	2.9950e-01	16.0712	121.015140	0.000384	3.839148	1.300739	-0.030652
 601	3.0000e-01	16.0359	120.813485	0.000505	5.051511	1.711498	-0.040331
 602	3.0050e-01	15.9798	120.615863	0.000495	4.950480	1.677268	-0.039524
 603	3.0100e-01	15.9445	120.502937	0.000283	2.828846	0.958439	-0.022585
 604	3.0150e-01	15.9188	120.281116	0.000556	5.556662	1.882648	-0.044364
 605	3.0200e-01	15.8675	120.148024	0.000333	3.333997	1.129589	-0.026618
 606	3.0250e-01	15.8402	119.954435	0.000485	4.849450	1.643038	-0.038718
 607	3.0300e-01	15.7937	119.728582	0.000566	5.657692	1.916878	-0.045171
 608	3.0350e-01	15.7584	119.490629	0.000596	5.960782	2.019568	-0.047591
 609	3.0400e-01	15.7151	119.184113	0.000768	7.678296	2.601477	-0.061303
 610	3.0450e-01	15.6669	119.051021	0.000333	3.333997	1.129589	-0.026618
 611	3.0500e-01	15.6332	118.909863	0.000354	3.536057	1.198049	-0.028232
 612	3.0550e-01	15.6044	118.732406	0.000445	4.445329	1.506118	-0.035491
 613	3.0600e-01	15.5498	118.575115	0.000394	3.940178	1.334969	-0.031458
 614	3.0650e-01	15.5049	118.308931	0.000667	6.667994	2.259177	-0.053237
 615	3.0700e-01	15.4600	118.167772	0.000354	3.536057	1.198049	-0.028232
 616	3.0750e-01	15.4295	117.994349	0.000434	4.344299	1.471888	-0.034685
 617	3.0800e-01	15.3894	117.780595	0.000535	5.354601	1.814188	-0.042751
 618	3.0850e-01	15.3477	117.534576	0.000616	6.162843	2.088028	-0.049204
 619	3.0900e-01	15.3092	117.340987	0.000485	4.849450	1.643038	-0.038718
 620	3.0950e-01	15.2643	117.171597	0.000424	4.243269	1.437658	-0.033878
 621	3.1000e-01	15.2354	117.014306	0.000394	3.940178	1.334969	-0.031458
 622	3.1050e-01	15.1873	116.796519	0.000546	5.455631	1.848418	-0.043557
 623	3.1100e-01	15.1568	116.530334	0.000667	6.667994	2.259177	-0.053237
 624	3.1150e-01	15.1151	116.381110	0.000374	3.738118	1.266509	-0.029845
 625	3.1200e-01	15.0686	116.163322	0.000546	5.455631	1.848418	-0.043557
 626	3.1250e-01	15.0365	115.953601	0.000525	5.253571	1.779958	-0.041944
 627	3.1300e-01	14.9900	115.788244	0.000414	4.142239	1.403428	-0.033071
 628	3.1350e-01	14.9498	115.582556	0.000515	5.152541	1.745728	-0.041138
 629	3.1400e-01	14.9097	115.453497	0.000323	3.232967	1.095359	-0.025812
 630	3.1450e-01	14.8825	115.239743	0.000535	5.354601	1.814188	-0.042751
 631	3.1500e-01	14.8343	115.102618	0.000344	3.435027	1.163819	-0.027425
 632	3.1550e-01	14.7974	114.848532	0.000636	6.364903	2.156488	-0.050817
 633	3.1600e-01	14.7461	114.618646	0.000576	5.758722	1.951108	-0.045977
 634	3.1650e-01	14.7172	114.336329	0.000707	7.072115	2.396097	-0.056463
 635	3.1700e-01	14.6707	114.170972	0.000414	4.142239	1.403428	-0.033071
 636	3.1750e-01	14.6226	113.695066	0.001192	11.921565	4.039136	-0.095181
 637	3.1800e-01	14.5921	113.755563	-0.000152	-1.515453	-0.513449	0.012099
 638	3.1850e-01	14.5504	113.570040	0.000465	4.647390	1.574578	-0.037105
 639	3.1900e-01	14.5119	113.364352	0.000515	5.152541	1.745728	-0.041138
 640	3.1950e-01	14.4750	113.150598	0.000535	5.354601	1.814188	-0.042751
 641	3.2000e-01	14.4333	112.981208	0.000424	4.243269	1.437658	-0.033878
 642	3.2050e-01	14.3900	112.658560	0.000808	8.082417	2.738397	-0.064530
 643	3.2100e-01	14.3531	112.585964	0.000182	1.818544	0.616139	-0.014519
 644	3.2150e-01	14.3114	112.380276	0.000515	5.152541	1.745728	-0.041138
 645	3.2200e-01	14.2680	112.166522	0.000535	5.354601	1.814188	-0.042751
 646	3.2250e-01	14.2344	111.928569	0.000596	5.960782	2.019568	-0.047591
 647	3.2300e-01	14.2007	111.779344	0.000374	3.738118	1.266509	-0.029845
 648	3.2350e-01	14.1541	111.577689	0.000505	5.051511	1.711498	-0.040331
 649	3.2400e-01	14.1044	111.400233	0.000445	4.445329	1.506118	-0.035491
 650	3.2450e-01	14.0723	111.150181	0.000626	6.263873	2.122258	-0.050010
 651	3.2500e-01	14.0322	111.009022	0.000354	3.536057	1.198049	-0.028232
 652	3.2550e-01	13.9937	110.795268	0.000535	5.354601	1.814188	-0.042751
 653	3.2600e-01	13.9456	110.516984	0.000697	6.971085	2.361867	-0.055657
 654	3.2650e-01	13.9087	110.351627	0.000414	4.142239	1.403428	-0.033071
 655	3.2700e-01	13.8718	110.178204	0.000434	4.344299	1.471888	-0.034685
 656	3.2750e-01	13.8333	109.984615	0.000485	4.849450	1.643038	-0.038718
 657	3.2800e-01	13.7932	109.754729	0.000576	5.758722	1.951108	-0.045977
 658	3.2850e-01	13.7499	109.516776	0.000596	5.960782	2.019568	-0.047591
 659	3.2900e-01	13.7114	109.262691	0.000636	6.364903	2.156488	-0.050817
 660	3.2950e-01	13.6761	109.145731	0.000293	2.929876	0.992669	-0.023392
 661	3.3000e-01	13.6328	108.976341	0.000424	4.243269	1.437658	-0.033878
 662	3.3050e-01	13.5943	108.762587	0.000535	5.354601	1.814188	-0.042751
 663	3.3100e-01	13.5413	108.516568	0.000616	6.162843	2.088028	-0.049204
 664	3.3150e-01	13.5125	108.310880	0.000515	5.152541	1.745728	-0.041138
 665	3.3200e-01	13.4707	108.101158	0.000525	5.253571	1.779958	-0.041944
 666	3.3250e-01	13.4274	107.855139	0.000616	6.162843	2.088028	-0.049204
 667	3.3300e-01	13.3889	107.665584	0.000475	4.748420	1.608808	-0.037911
 668	3.3350e-01	13.3472	107.471995	0.000485	4.849450	1.643038	-0.038718
 669	3.3400e-01	13.3151	107.242108	0.000576	5.758722	1.951108	-0.045977
 670	3.3450e-01	13.2782	107.092884	0.000374	3.738118	1.266509	-0.029845
 671	3.3500e-01	13.2397	106.818633	0.000687	6.870054	2.327637	-0.054850
 672	3.3550e-01	13.1948	106.580680	0.000596	5.960782	2.019568	-0.047591
 673	3.3600e-01	13.1643	106.419356	0.000404	4.041208	1.369198	-0.032265
 674	3.3650e-01	13.1194	106.157205	0.000657	6.566964	2.224948	-0.052430
 675	3.3700e-01	13.0697	105.959583	0.000495	4.950480	1.677268	-0.039524
 676	3.3750e-01	13.0328	105.830524	0.000323	3.232967	1.095359	-0.025812
 677	3.3800e-01	12.9943	105.628869	0.000505	5.051511	1.711498	-0.040331
 678	3.3850e-01	12.9542	105.427214	0.000505	5.051511	1.711498	-0.040331
 679	3.3900e-01	12.9125	105.124732	0.000758	7.577266	2.567247	-0.060496
 680	3.3950e-01	12.8708	104.886779	0.000596	5.960782	2.019568	-0.047591
 681	3.4000e-01	12.8274	104.729488	0.000394	3.940178	1.334969	-0.031458
 682	3.4050e-01	12.7954	104.580263	0.000374	3.738118	1.266509	-0.029845
 683	3.4100e-01	12.7569	104.346344	0.000586	5.859752	1.985338	-0.046784
 684	3.4150e-01	12.7135	104.144689	0.000505	5.051511	1.711498	-0.040331
 685	3.4200e-01	12.6734	103.902703	0.000606	6.061813	2.053798	-0.048397
 686	3.4250e-01	12.6301	103.785743	0.000293	2.929876	0.992669	-0.023392
 687	3.4300e-01	12.5868	103.410665	0.000940	9.395810	3.183386	-0.075016
 688	3.4350e-01	12.5595	103.265473	0.000364	3.637088	1.232279	-0.029038
 689	3.4400e-01	12.5146	103.075918	0.000475	4.748420	1.608808	-0.037911
 690	3.4450e-01	12.4697	102.809733	0.000667	6.667994	2.259177	-0.053237
 691	3.4500e-01	12.4280	102.612111	0.000495	4.950480	1.677268	-0.039524
 692	3.4550e-01	12.3927	102.527416	0.000212	2.121634	0.718829	-0.016939
 693	3.4600e-01	12.3526	102.172503	0.000889	8.890659	3.012237	-0.070983
 694	3.4650e-01	12.3077	102.039411	0.000333	3.333997	1.129589	-0.026618
 695	3.4700e-01	12.2740	101.757094	0.000707	7.072115	2.396097	-0.056463
 696	3.4750e-01	12.2323	101.458645	0.000748	7.476236	2.533017	-0.059690
 697	3.4800e-01	12.1906	101.309420	0.000374	3.738118	1.266509	-0.029845
 698	3.4850e-01	12.1537	101.103732	0.000515	5.152541	1.745728	-0.041138
 699	3.4900e-01	12.1104	100.809316	0.000738	7.375205	2.498787	-0.058883
 700	3.4950e-01	12.0751	100.619760	0.000475	4.748420	1.608808	-0.037911
 701	3.5000e-01	12.0253	100.373741	0.000616	6.162843	2.088028	-0.049204
 702	3.5050e-01	11.9948	100.232583	0.000354	3.536057	1.198049	-0.028232
 703	3.5100e-01	11.9531	99.978498	0.000636	6.364903	2.156488	-0.050817
 704	3.5150e-01	11.9162	99.772810	0.000515	5.152541	1.745728	-0.041138
 705	3.5200e-01	11.8697	99.550989	0.000556	5.556662	1.882648	-0.044364
 706	3.5250e-01	11.8312	99.317070	0.000586	5.859752	1.985338	-0.046784
 707	3.5300e-01	11.8055	99.115415	0.000505	5.051511	1.711498	-0.040331
 708	3.5350e-01	11.7510	98.873429	0.000606	6.061813	2.053798	-0.048397
 709	3.5400e-01	11.7141	98.744370	0.000323	3.232967	1.095359	-0.025812
 710	3.5450e-01	11.6788	98.458020	0.000717	7.173145	2.430327	-0.057270
 711	3.5500e-01	11.6371	98.216034	0.000606	6.061813	2.053798	-0.048397
 712	3.5550e-01	11.5906	98.006313	0.000525	5.253571	1.779958	-0.041944
 713	3.5600e-01	11.5505	97.792558	0.000535	5.354601	1.814188	-0.042751
 714	3.5650e-01	11.5200	97.570738	0.000556	5.556662	1.882648	-0.044364
 715	3.5700e-01	11.4735	97.296487	0.000687	6.870054	2.327637	-0.054850
 716	3.5750e-01	11.4318	97.135163	0.000404	4.041208	1.369198	-0.032265
 717	3.5800e-01	11.3949	96.933508	0.000505	5.051511	1.711498	-0.040331
 718	3.5850e-01	11.3564	96.643125	0.000727	7.274175	2.464557	-0.058077
 719	3.5900e-01	11.3195	96.401139	0.000606	6.061813	2.053798	-0.048397
 720	3.5950e-01	11.2697	96.175286	0.000566	5.657692	1.916878	-0.045171
 721	3.6000e-01	11.2344	95.977664	0.000495	4.950480	1.677268	-0.039524
 722	3.6050e-01	11.1959	95.784075	0.000485	4.849450	1.643038	-0.038718
 723	3.6100e-01	11.1510	95.554189	0.000576	5.758722	1.951108	-0.045977
 724	3.6150e-01	11.1093	95.328335	0.000566	5.657692	1.916878	-0.045171
 725	3.6200e-01	11.0756	95.158945	0.000424	4.243269	1.437658	-0.033878
 726	3.6250e-01	11.0435	94.872595	0.000717	7.173145	2.430327	-0.057270
 727	3.6300e-01	11.0018	94.658841	0.000535	5.354601	1.814188	-0.042751
 728	3.6350e-01	10.9537	94.384590	0.000687	6.870054	2.327637	-0.054850
 729	3.6400e-01	10.9232	94.235365	0.000374	3.738118	1.266509	-0.029845
 730	3.6450e-01	10.8815	93.977247	0.000647	6.465933	2.190718	-0.051624
 731	3.6500e-01	10.8350	93.719129	0.000647	6.465933	2.190718	-0.051624
 732	3.6550e-01	10.7837	93.545706	0.000434	4.344299	1.471888	-0.034685
 733	3.6600e-01	10.7532	93.295653	0.000626	6.263873	2.122258	-0.050010
 734	3.6650e-01	10.7147	93.029469	0.000667	6.667994	2.259177	-0.053237
 735	3.6700e-01	10.6810	92.807648	0.000556	5.556662	1.882648	-0.044364
 736	3.6750e-01	10.6377	92.565663	0.000606	6.061813	2.053798	-0.048397
 737	3.6800e-01	10.5863	92.347875	0.000546	5.455631	1.848418	-0.043557
 738	3.6850e-01	10.5575	92.130088	0.000546	5.455631	1.848418	-0.043557
 739	3.6900e-01	10.5125	91.900201	0.000576	5.758722	1.951108	-0.045977
 740	3.6950e-01	10.4644	91.698546	0.000505	5.051511	1.711498	-0.040331
 741	3.7000e-01	10.4259	91.480759	0.000546	5.455631	1.848418	-0.043557
 742	3.7050e-01	10.3922	91.170210	0.000778	7.779326	2.635707	-0.062110
 743	3.7100e-01	10.3473	90.984688	0.000465	4.647390	1.574578	-0.037105
 744	3.7150e-01	10.3120	90.762867	0.000556	5.556662	1.882648	-0.044364
 745	3.7200e-01	10.2687	90.512815	0.000626	6.263873	2.122258	-0.050010
 746	3.7250e-01	10.2350	90.246631	0.000667	6.667994	2.259177	-0.053237
 747	3.7300e-01	10.2045	90.028844	0.000546	5.455631	1.848418	-0.043557
 748	3.7350e-01	10.1548	89.835255	0.000485	4.849450	1.643038	-0.038718
 749	3.7400e-01	10.1179	89.593269	0.000606	6.061813	2.053798	-0.048397
 750	3.7450e-01	10.0682	89.335151	0.000647	6.465933	2.190718	-0.051624
 751	3.7500e-01	10.0297	89.077032	0.000647	6.465933	2.190718	-0.051624
 752	3.7550e-01	9.9880	88.867311	0.000525	5.253571	1.779958	-0.041944
 753	3.7600e-01	9.9495	88.657590	0.000525	5.253571	1.779958	-0.041944
 754	3.7650e-01	9.9142	88.451902	0.000515	5.152541	1.745728	-0.041138
 755	3.7700e-01	9.8757	88.246214	0.000515	5.152541	1.745728	-0.041138
 756	3.7750e-01	9.8356	87.980029	0.000667	6.667994	2.259177	-0.053237
 757	3.7800e-01	9.7874	87.729977	0.000626	6.263873	2.122258	-0.050010
 758	3.7850e-01	9.7521	87.479925	0.000626	6.263873	2.122258	-0.050010
 759	3.7900e-01	9.7088	87.205675	0.000687	6.870054	2.327637	-0.054850
 760	3.7950e-01	9.6735	87.004020	0.000505	5.051511	1.711498	-0.040331
 761	3.8000e-01	9.6254	86.782199	0.000556	5.556662	1.882648	-0.044364
 762	3.8050e-01	9.5869	86.572478	0.000525	5.253571	1.779958	-0.041944
 763	3.8100e-01	9.5484	86.342591	0.000576	5.758722	1.951108	-0.045977
 764	3.8150e-01	9.5099	86.092539	0.000626	6.263873	2.122258	-0.050010
 765	3.8200e-01	9.4794	85.818289	0.000687	6.870054	2.327637	-0.054850
 766	3.8250e-01	9.4409	85.540005	0.000697	6.971085	2.361867	-0.055657
 767	3.8300e-01	9.3912	85.330284	0.000525	5.253571	1.779958	-0.041944
 768	3.8350e-01	9.3431	85.060066	0.000677	6.769024	2.293407	-0.054044
 769	3.8400e-01	9.3110	84.789848	0.000677	6.769024	2.293407	-0.054044
 770	3.8450e-01	9.2789	84.600293	0.000475	4.748420	1.608808	-0.037911
 771	3.8500e-01	9.2308	84.342175	0.000647	6.465933	2.190718	-0.051624
 772	3.8550e-01	9.1923	84.136486	0.000515	5.152541	1.745728	-0.041138
 773	3.8600e-01	9.1441	83.874335	0.000657	6.566964	2.224948	-0.052430
 774	3.8650e-01	9.1185	83.684779	0.000475	4.748420	1.608808	-0.037911
 775	3.8700e-01	9.0703	83.378264	0.000768	7.678296	2.601477	-0.061303
 776	3.8750e-01	9.0286	83.180642	0.000495	4.950480	1.677268	-0.039524
 777	3.8800e-01	8.9949	82.970921	0.000525	5.253571	1.779958	-0.041944
 778	3.8850e-01	8.9548	82.688604	0.000707	7.072115	2.396097	-0.056463
 779	3.8900e-01	8.9131	82.438552	0.000626	6.263873	2.122258	-0.050010
 780	3.8950e-01	8.8682	82.224798	0.000535	5.354601	1.814188	-0.042751
 781	3.9000e-01	8.8297	81.970713	0.000636	6.364903	2.156488	-0.050817
 782	3.9050e-01	8.8072	81.672263	0.000748	7.476236	2.533017	-0.059690
 783	3.9100e-01	8.7511	81.490774	0.000455	4.546359	1.540348	-0.036298
 784	3.9150e-01	8.7030	81.176192	0.000788	7.880356	2.669937	-0.062916
 785	3.9200e-01	8.6741	80.934206	0.000606	6.061813	2.053798	-0.048397
 786	3.9250e-01	8.6292	80.688187	0.000616	6.162843	2.088028	-0.049204
 787	3.9300e-01	8.6003	80.482499	0.000515	5.152541	1.745728	-0.041138
 788	3.9350e-01	8.5554	80.220348	0.000657	6.566964	2.224948	-0.052430
 789	3.9400e-01	8.5121	79.962229	0.000647	6.465933	2.190718	-0.051624
 790	3.9450e-01	8.4736	79.683946	0.000697	6.971085	2.361867	-0.055657
 791	3.9500e-01	8.4335	79.458092	0.000566	5.657692	1.916878	-0.045171
 792	3.9550e-01	8.3917	79.212073	0.000616	6.162843	2.088028	-0.049204
 793	3.9600e-01	8.3484	79.006385	0.000515	5.152541	1.745728	-0.041138
 794	3.9650e-01	8.3083	78.740201	0.000667	6.667994	2.259177	-0.053237
 795	3.9700e-01	8.2730	78.522413	0.000546	5.455631	1.848418	-0.043557
 796	3.9750e-01	8.2393	78.211865	0.000778	7.779326	2.635707	-0.062110
 797	3.9800e-01	8.1880	78.022309	0.000475	4.748420	1.608808	-0.037911
 798	3.9850e-01	8.1527	77.744025	0.000697	6.971085	2.361867	-0.055657
 799	3.9900e-01	8.1094	77.441543	0.000758	7.577266	2.567247	-0.060496
 800	3.9950e-01	8.0789	77.215689	0.000566	5.657692	1.916878	-0.045171
 801	4.0000e-01	8.0212	76.933372	0.000707	7.072115	2.396097	-0.056463
 802	4.0050e-01	7.9971	76.707519	0.000566	5.657692	1.916878	-0.045171
 803	4.0100e-01	7.9506	76.489732	0.000546	5.455631	1.848418	-0.043557
 804	4.0150e-01	7.9089	76.247746	0.000606	6.061813	2.053798	-0.048397
 805	4.0200e-01	7.8623	75.945263	0.000758	7.577266	2.567247	-0.060496
 806	4.0250e-01	7.8367	75.707310	0.000596	5.960782	2.019568	-0.047591
 807	4.0300e-01	7.7934	75.408861	0.000748	7.476236	2.533017	-0.059690
 808	4.0350e-01	7.7549	75.247537	0.000404	4.041208	1.369198	-0.032265
 809	4.0400e-01	7.7083	74.973286	0.000687	6.870054	2.327637	-0.054850
 810	4.0450e-01	7.6730	74.727267	0.000616	6.162843	2.088028	-0.049204
 811	4.0500e-01	7.6329	74.465116	0.000657	6.566964	2.224948	-0.052430
 812	4.0550e-01	7.5944	74.190865	0.000687	6.870054	2.327637	-0.054850
 813	4.0600e-01	7.5511	73.948879	0.000606	6.061813	2.053798	-0.048397
 814	4.0650e-01	7.5078	73.686728	0.000657	6.566964	2.224948	-0.052430
 815	4.0700e-01	7.4693	73.436676	0.000626	6.263873	2.122258	-0.050010
 816	4.0750e-01	7.4292	73.170491	0.000667	6.667994	2.259177	-0.053237
 817	4.0800e-01	7.3907	72.900274	0.000677	6.769024	2.293407	-0.054044
 818	4.0850e-01	7.3474	72.690553	0.000525	5.253571	1.779958	-0.041944
 819	4.0900e-01	7.3105	72.347739	0.000859	8.587568	2.909547	-0.068563
 820	4.0950e-01	7.2704	72.105753	0.000606	6.061813	2.053798	-0.048397
 821	4.1000e-01	7.2271	71.823436	0.000707	7.072115	2.396097	-0.056463
 822	4.1050e-01	7.1982	71.617748	0.000515	5.152541	1.745728	-0.041138
 823	4.1100e-01	7.1501	71.343498	0.000687	6.870054	2.327637	-0.054850
 824	4.1150e-01	7.1164	71.069247	0.000687	6.870054	2.327637	-0.054850
 825	4.1200e-01	7.0699	70.778864	0.000727	7.274175	2.464557	-0.058077
 826	4.1250e-01	7.0346	70.565110	0.000535	5.354601	1.814188	-0.042751
 827	4.1300e-01	6.9864	70.254561	0.000778	7.779326	2.635707	-0.062110
 828	4.1350e-01	6.9543	70.008542	0.000616	6.162843	2.088028	-0.049204
 829	4.1400e-01	6.9158	69.754457	0.000636	6.364903	2.156488	-0.050817
 830	4.1450e-01	6.8709	69.641530	0.000283	2.828846	0.958439	-0.022585
 831	4.1500e-01	6.8421	69.290651	0.000879	8.789628	2.978007	-0.070176
 832	4.1550e-01	6.7939	68.915572	0.000940	9.395810	3.183386	-0.075016
 833	4.1600e-01	6.7570	68.734083	0.000455	4.546359	1.540348	-0.036298
 834	4.1650e-01	6.7089	68.431601	0.000758	7.577266	2.567247	-0.060496
 835	4.1700e-01	6.6672	68.133151	0.000748	7.476236	2.533017	-0.059690
 836	4.1750e-01	6.6287	67.943596	0.000475	4.748420	1.608808	-0.037911
 837	4.1800e-01	6.5934	67.685477	0.000647	6.465933	2.190718	-0.051624
 838	4.1850e-01	6.5597	67.310399	0.000940	9.395810	3.183386	-0.075016
 839	4.1900e-01	6.5084	67.104711	0.000515	5.152541	1.745728	-0.041138
 840	4.1950e-01	6.4731	66.850626	0.000636	6.364903	2.156488	-0.050817
 841	4.2000e-01	6.4314	66.584441	0.000667	6.667994	2.259177	-0.053237
 842	4.2050e-01	6.3945	66.338422	0.000616	6.162843	2.088028	-0.049204
 843	4.2100e-01	6.3496	66.056105	0.000707	7.072115	2.396097	-0.056463
 844	4.2150e-01	6.3111	65.769755	0.000717	7.173145	2.430327	-0.057270
 845	4.2200e-01	6.2709	65.503571	0.000667	6.667994	2.259177	-0.053237
 846	4.2250e-01	6.2308	65.257552	0.000616	6.162843	2.088028	-0.049204
 847	4.2300e-01	6.1907	64.983301	0.000687	6.870054	2.327637	-0.054850
 848	4.2350e-01	6.1506	64.700984	0.000707	7.072115	2.396097	-0.056463
 849	4.2400e-01	6.1089	64.418667	0.000707	7.072115	2.396097	-0.056463
 850	4.2450e-01	6.0720	64.168615	0.000626	6.263873	2.122258	-0.050010
 851	4.2500e-01	6.0319	63.878232	0.000727	7.274175	2.464557	-0.058077
 852	4.2550e-01	5.9886	63.620114	0.000647	6.465933	2.190718	-0.051624
 853	4.2600e-01	5.9597	63.390227	0.000576	5.758722	1.951108	-0.045977
 854	4.2650e-01	5.9068	63.136142	0.000636	6.364903	2.156488	-0.050817
 855	4.2700e-01	5.8827	62.837693	0.000748	7.476236	2.533017	-0.059690
 856	4.2750e-01	5.8330	62.531177	0.000768	7.678296	2.601477	-0.061303
 857	4.2800e-01	5.7897	62.260960	0.000677	6.769024	2.293407	-0.054044
 858	4.2850e-01	5.7448	61.970577	0.000727	7.274175	2.464557	-0.058077
 859	4.2900e-01	5.7175	61.720524	0.000626	6.263873	2.122258	-0.050010
 860	4.2950e-01	5.6774	61.414009	0.000768	7.678296	2.601477	-0.061303
 861	4.3000e-01	5.6421	61.188155	0.000566	5.657692	1.916878	-0.045171
 862	4.3050e-01	5.5859	60.833243	0.000889	8.890659	3.012237	-0.070983
 863	4.3100e-01	5.5635	60.563025	0.000677	6.769024	2.293407	-0.054044
 864	4.3150e-01	5.5137	60.276675	0.000717	7.173145	2.430327	-0.057270
 865	4.3200e-01	5.4769	60.066954	0.000525	5.253571	1.779958	-0.041944
 866	4.3250e-01	5.4367	59.788670	0.000697	6.971085	2.361867	-0.055657
 867	4.3300e-01	5.3966	59.466022	0.000808	8.082417	2.738397	-0.064530
 868	4.3350e-01	5.3565	59.203871	0.000657	6.566964	2.224948	-0.052430
 869	4.3400e-01	5.3164	58.885256	0.000798	7.981387	2.704167	-0.063723
 870	4.3450e-01	5.2651	58.570674	0.000788	7.880356	2.669937	-0.062916
 871	4.3500e-01	5.2362	58.340788	0.000576	5.758722	1.951108	-0.045977
 872	4.3550e-01	5.1977	58.098802	0.000606	6.061813	2.053798	-0.048397
 873	4.3600e-01	5.1624	57.772121	0.000818	8.183447	2.772627	-0.065336
 874	4.3650e-01	5.1159	57.497870	0.000687	6.870054	2.327637	-0.054850
 875	4.3700e-01	5.0678	57.243785	0.000636	6.364903	2.156488	-0.050817
 876	4.3750e-01	5.0341	56.969534	0.000687	6.870054	2.327637	-0.054850
 877	4.3800e-01	4.9956	56.663019	0.000768	7.678296	2.601477	-0.061303
 878	4.3850e-01	4.9523	56.340371	0.000808	8.082417	2.738397	-0.064530
 879	4.3900e-01	4.9122	56.025789	0.000788	7.880356	2.669937	-0.062916
 880	4.3950e-01	4.8753	55.799936	0.000566	5.657692	1.916878	-0.045171
 881	4.4000e-01	4.8271	55.545851	0.000636	6.364903	2.156488	-0.050817
 882	4.4050e-01	4.7934	55.211103	0.000839	8.385507	2.841087	-0.066949
 883	4.4100e-01	4.7598	54.912654	0.000748	7.476236	2.533017	-0.059690
 884	4.4150e-01	4.7164	54.638403	0.000687	6.870054	2.327637	-0.054850
 885	4.4200e-01	4.6763	54.396417	0.000606	6.061813	2.053798	-0.048397
 886	4.4250e-01	4.6298	54.097968	0.000748	7.476236	2.533017	-0.059690
 887	4.4300e-01	4.5993	53.759188	0.000849	8.486538	2.875317	-0.067756
 888	4.4350e-01	4.5560	53.436540	0.000808	8.082417	2.738397	-0.064530
 889	4.4400e-01	4.5111	53.158256	0.000697	6.971085	2.361867	-0.055657
 890	4.4450e-01	4.4758	52.900138	0.000647	6.465933	2.190718	-0.051624
 891	4.4500e-01	4.4373	52.633953	0.000667	6.667994	2.259177	-0.053237
 892	4.4550e-01	4.3940	52.383901	0.000626	6.263873	2.122258	-0.050010
 893	4.4600e-01	4.3603	52.053187	0.000828	8.284477	2.806857	-0.066143
 894	4.4650e-01	4.3154	51.754738	0.000748	7.476236	2.533017	-0.059690
 895	4.4700e-01	4.2737	51.460322	0.000738	7.375205	2.498787	-0.058883
 896	4.4750e-01	4.2255	51.182038	0.000697	6.971085	2.361867	-0.055657
 897	4.4800e-01	4.1919	50.940052	0.000606	6.061813	2.053798	-0.048397
 898	4.4850e-01	4.1566	50.629503	0.000778	7.779326	2.635707	-0.062110
 899	4.4900e-01	4.1197	50.322988	0.000768	7.678296	2.601477	-0.061303
 900	4.4950e-01	4.0715	50.032605	0.000727	7.274175	2.464557	-0.058077
 901	4.5000e-01	4.0330	49.939843	0.000232	2.323695	0.787289	-0.018552
 902	4.5050e-01	3.9961	49.431673	0.001273	12.729807	4.312975	-0.101634
 903	4.5100e-01	3.9592	49.165489	0.000667	6.667994	2.259177	-0.053237
 904	4.5150e-01	3.9047	48.802510	0.000909	9.092719	3.080697	-0.072596
 905	4.5200e-01	3.8758	48.524226	0.000697	6.971085	2.361867	-0.055657
 906	4.5250e-01	3.8357	48.270141	0.000636	6.364903	2.156488	-0.050817
 907	4.5300e-01	3.8036	48.016055	0.000636	6.364903	2.156488	-0.050817
 908	4.5350e-01	3.7539	47.653077	0.000909	9.092719	3.080697	-0.072596
 909	4.5400e-01	3.7138	47.314296	0.000849	8.486538	2.875317	-0.067756
 910	4.5450e-01	3.6785	47.084410	0.000576	5.758722	1.951108	-0.045977
 911	4.5500e-01	3.6320	46.781927	0.000758	7.577266	2.567247	-0.060496
 912	4.5550e-01	3.5887	46.459279	0.000808	8.082417	2.738397	-0.064530
 913	4.5600e-01	3.5486	46.253591	0.000515	5.152541	1.745728	-0.041138
 914	4.5650e-01	3.5181	45.886579	0.000919	9.193749	3.114927	-0.073402
 915	4.5700e-01	3.4716	45.563931	0.000808	8.082417	2.738397	-0.064530
 916	4.5750e-01	3.4266	45.225151	0.000849	8.486538	2.875317	-0.067756
 917	4.5800e-01	3.3865	44.958967	0.000667	6.667994	2.259177	-0.053237
 918	4.5850e-01	3.3496	44.741179	0.000546	5.455631	1.848418	-0.043557
 919	4.5900e-01	3.3095	44.374167	0.000919	9.193749	3.114927	-0.073402
 920	4.5950e-01	3.2710	44.091850	0.000707	7.072115	2.396097	-0.056463
 921	4.6000e-01	3.2373	43.732905	0.000899	8.991689	3.046467	-0.071789
 922	4.6050e-01	3.1876	43.394124	0.000849	8.486538	2.875317	-0.067756
 923	4.6100e-01	3.1507	43.123907	0.000677	6.769024	2.293407	-0.054044
 924	4.6150e-01	3.1154	42.797226	0.000818	8.183447	2.772627	-0.065336
 925	4.6200e-01	3.0737	42.462479	0.000839	8.385507	2.841087	-0.066949
 926	4.6250e-01	3.0352	42.224526	0.000596	5.960782	2.019568	-0.047591
 927	4.6300e-01	2.9903	41.889779	0.000839	8.385507	2.841087	-0.066949
 928	4.6350e-01	2.9566	41.635693	0.000636	6.364903	2.156488	-0.050817
 929	4.6400e-01	2.9101	41.304979	0.000828	8.284477	2.806857	-0.066143
 930	4.6450e-01	2.8796	40.974265	0.000828	8.284477	2.806857	-0.066143
 931	4.6500e-01	2.8299	40.736312	0.000596	5.960782	2.019568	-0.047591
 932	4.6550e-01	2.7898	40.405598	0.000828	8.284477	2.806857	-0.066143
 933	4.6600e-01	2.7545	40.066818	0.000849	8.486538	2.875317	-0.067756
 934	4.6650e-01	2.7112	39.812733	0.000636	6.364903	2.156488	-0.050817
 935	4.6700e-01	2.6614	39.514284	0.000748	7.476236	2.533017	-0.059690
 936	4.6750e-01	2.6293	39.223900	0.000727	7.274175	2.464557	-0.058077
 937	4.6800e-01	2.5940	38.881087	0.000859	8.587568	2.909547	-0.068563
 938	4.6850e-01	2.5459	38.606836	0.000687	6.870054	2.327637	-0.054850
 939	4.6900e-01	2.5219	38.235791	0.000929	9.294779	3.149157	-0.074209
 940	4.6950e-01	2.4721	37.945408	0.000727	7.274175	2.464557	-0.058077
 941	4.7000e-01	2.4320	37.630827	0.000788	7.880356	2.669937	-0.062916
 942	4.7050e-01	2.3967	37.296079	0.000839	8.385507	2.841087	-0.066949
 943	4.7100e-01	2.3534	36.965365	0.000828	8.284477	2.806857	-0.066143
 944	4.7150e-01	2.3133	36.674982	0.000727	7.274175	2.464557	-0.058077
 945	4.7200e-01	2.2716	36.344268	0.000828	8.284477	2.806857	-0.066143
 946	4.7250e-01	2.2299	36.061951	0.000707	7.072115	2.396097	-0.056463
 947	4.7300e-01	2.1946	35.755436	0.000768	7.678296	2.601477	-0.061303
 948	4.7350e-01	2.1417	35.424722	0.000828	8.284477	2.806857	-0.066143
 949	4.7400e-01	2.1160	35.089974	0.000839	8.385507	2.841087	-0.066949
 950	4.7450e-01	2.0775	34.799591	0.000727	7.274175	2.464557	-0.058077
 951	4.7500e-01	2.0374	34.529374	0.000677	6.769024	2.293407	-0.054044
 952	4.7550e-01	1.9925	34.170428	0.000899	8.991689	3.046467	-0.071789
 953	4.7600e-01	1.9604	33.871979	0.000748	7.476236	2.533017	-0.059690
 954	4.7650e-01	1.9090	33.517066	0.000889	8.890659	3.012237	-0.070983
 955	4.7700e-01	1.8770	33.198451	0.000798	7.981387	2.704167	-0.063723
 956	4.7750e-01	1.8256	32.891936	0.000768	7.678296	2.601477	-0.061303
 957	4.7800e-01	1.7871	32.629784	0.000657	6.566964	2.224948	-0.052430
 958	4.7850e-01	1.7614	32.242607	0.000970	9.698900	3.286076	-0.077435
 959	4.7900e-01	1.7149	31.944157	0.000748	7.476236	2.533017	-0.059690
 960	4.7950e-01	1.6748	31.597311	0.000869	8.688598	2.943777	-0.069369
 961	4.8000e-01	1.6235	31.274663	0.000808	8.082417	2.738397	-0.064530
 962	4.8050e-01	1.5866	30.984280	0.000727	7.274175	2.464557	-0.058077
 963	4.8100e-01	1.5465	30.593069	0.000980	9.799930	3.320306	-0.078242
 964	4.8150e-01	1.5096	30.334951	0.000647	6.465933	2.190718	-0.051624
 965	4.8200e-01	1.4711	30.032469	0.000758	7.577266	2.567247	-0.060496
 966	4.8250e-01	1.4310	29.677556	0.000889	8.890659	3.012237	-0.070983
 967	4.8300e-01	1.3941	29.592861	0.000212	2.121634	0.718829	-0.016939
 968	4.8350e-01	1.3460	28.995962	0.001495	14.952471	5.066034	-0.119380
 969	4.8400e-01	1.3203	28.753976	0.000606	6.061813	2.053798	-0.048397
 970	4.8450e-01	1.2818	28.411163	0.000859	8.587568	2.909547	-0.068563
 971	4.8500e-01	1.2369	28.076416	0.000839	8.385507	2.841087	-0.066949
 972	4.8550e-01	1.1952	27.741669	0.000839	8.385507	2.841087	-0.066949
 973	4.8600e-01	1.1550	27.398855	0.000859	8.587568	2.909547	-0.068563
 974	4.8650e-01	1.1085	27.128638	0.000677	6.769024	2.293407	-0.054044
 975	4.8700e-01	1.0700	26.733394	0.000990	9.900961	3.354536	-0.079049
 976	4.8750e-01	1.0347	26.342184	0.000980	9.799930	3.320306	-0.078242
 977	4.8800e-01	0.9962	26.063900	0.000697	6.971085	2.361867	-0.055657
 978	4.8850e-01	0.9481	25.765450	0.000748	7.476236	2.533017	-0.059690
 979	4.8900e-01	0.9112	25.418604	0.000869	8.688598	2.943777	-0.069369
 980	4.8950e-01	0.8647	25.112088	0.000768	7.678296	2.601477	-0.061303
 981	4.9000e-01	0.8358	24.809606	0.000758	7.577266	2.567247	-0.060496
 982	4.9050e-01	0.7829	24.426462	0.000960	9.597870	3.251846	-0.076629
 983	4.9100e-01	0.7460	24.115913	0.000778	7.779326	2.635707	-0.062110
 984	4.9150e-01	0.7059	23.805365	0.000778	7.779326	2.635707	-0.062110
 985	4.9200e-01	0.6690	23.426253	0.000950	9.496840	3.217616	-0.075822
 986	4.9250e-01	0.6257	23.139903	0.000717	7.173145	2.430327	-0.057270
 987	4.9300e-01	0.5904	22.793057	0.000869	8.688598	2.943777	-0.069369
 988	4.9350e-01	0.5486	22.434111	0.000899	8.991689	3.046467	-0.071789
 989	4.9400e-01	0.5118	22.111463	0.000808	8.082417	2.738397	-0.064530
 990	4.9450e-01	0.4636	21.833179	0.000697	6.971085	2.361867	-0.055657
 991	4.9500e-01	0.4299	21.433903	0.001000	10.001991	3.388766	-0.079855
 992	4.9550e-01	0.3898	21.083023	0.000879	8.789628	2.978007	-0.070176
 993	4.9600e-01	0.3513	20.764408	0.000798	7.981387	2.704167	-0.063723
 994	4.9650e-01	0.3064	20.385297	0.000950	9.496840	3.217616	-0.075822
 995	4.9700e-01	0.2679	20.115079	0.000677	6.769024	2.293407	-0.054044
 996	4.9750e-01	0.2358	19.764200	0.000879	8.789628	2.978007	-0.070176
 997	4.9800e-01	0.1909	19.368956	0.000990	9.900961	3.354536	-0.079049
 998	4.9850e-01	0.1588	19.066474	0.000758	7.577266	2.567247	-0.060496
 999	4.9900e-01	0.1155	18.796256	0.000677	6.769024	2.293407	-0.054044
1000	4.9950e-01	0.0722	18.441343	0.000889	8.890659	3.012237	-0.070983
1001	5.0000e-01	0.0337	18.009802	0.001081	10.810233	3.662606	-0.086308
1002	5.0050e-01	-0.0016	17.679088	0.000828	8.284477	2.806857	-0.066143
1003	5.0100e-01	-0.0337	17.372572	0.000768	7.678296	2.601477	-0.061303
1004	5.0150e-01	-0.0914	17.090255	0.000707	7.072115	2.396097	-0.056463
1005	5.0200e-01	-0.1219	16.771641	0.000798	7.981387	2.704167	-0.063723
1006	5.0250e-01	-0.1588	16.461092	0.000778	7.779326	2.635707	-0.062110
1007	5.0300e-01	-0.2037	16.090047	0.000929	9.294779	3.149157	-0.074209
1008	5.0350e-01	-0.2422	15.642373	0.001121	11.214353	3.799526	-0.089535
1009	5.0400e-01	-0.2904	15.380222	0.000657	6.566964	2.224948	-0.052430
1010	5.0450e-01	-0.3176	15.029342	0.000879	8.789628	2.978007	-0.070176
1011	5.0500e-01	-0.3642	14.726860	0.000758	7.577266	2.567247	-0.060496
1012	5.0550e-01	-0.4027	14.303384	0.001061	10.608172	3.594146	-0.084695
1013	5.0600e-01	-0.4444	14.029133	0.000687	6.870054	2.327637	-0.054850
1014	5.0650e-01	-0.4765	13.658088	0.000929	9.294779	3.149157	-0.074209
1015	5.0700e-01	-0.5310	13.274944	0.000960	9.597870	3.251846	-0.076629
1016	5.0750e-01	-0.5663	12.992627	0.000707	7.072115	2.396097	-0.056463
1017	5.0800e-01	-0.6112	12.690145	0.000758	7.577266	2.567247	-0.060496
1018	5.0850e-01	-0.6385	12.359431	0.000828	8.284477	2.806857	-0.066143
1019	5.0900e-01	-0.6770	11.944022	0.001041	10.406112	3.525686	-0.083082
1020	5.0950e-01	-0.7235	11.528612	0.001041	10.406112	3.525686	-0.083082
1021	5.1000e-01	-0.7508	11.173700	0.000889	8.890659	3.012237	-0.070983
1022	5.1050e-01	-0.8101	10.883317	0.000727	7.274175	2.464557	-0.058077
1023	5.1100e-01	-0.8454	10.564702	0.000798	7.981387	2.704167	-0.063723
1024	5.1150e-01	-0.8855	10.173491	0.000980	9.799930	3.320306	-0.078242
1025	5.1200e-01	-0.9240	9.838744	0.000839	8.385507	2.841087	-0.066949
1026	5.1250e-01	-0.9545	9.378971	0.001152	11.517444	3.902216	-0.091955
1027	5.1300e-01	-0.9978	9.060356	0.000798	7.981387	2.704167	-0.063723
1028	5.1350e-01	-1.0460	8.721576	0.000849	8.486538	2.875317	-0.067756
1029	5.1400e-01	-1.0813	8.394895	0.000818	8.183447	2.772627	-0.065336
1030	5.1450e-01	-1.1133	7.999651	0.000990	9.900961	3.354536	-0.079049
1031	5.1500e-01	-1.1599	7.636672	0.000909	9.092719	3.080697	-0.072596
1032	5.1550e-01	-1.2000	7.342256	0.000738	7.375205	2.498787	-0.058883
1033	5.1600e-01	-1.2369	6.979277	0.000909	9.092719	3.080697	-0.072596
1034	5.1650e-01	-1.2786	6.567901	0.001031	10.305081	3.491456	-0.082275
1035	5.1700e-01	-1.3235	6.273485	0.000738	7.375205	2.498787	-0.058883
1036	5.1750e-01	-1.3636	5.922605	0.000879	8.789628	2.978007	-0.070176
1037	5.1800e-01	-1.3861	5.567693	0.000889	8.890659	3.012237	-0.070983
1038	5.1850e-01	-1.4422	5.103886	0.001162	11.618474	3.936446	-0.092761
1039	5.1900e-01	-1.4775	4.869967	0.000586	5.859752	1.985338	-0.046784
1040	5.1950e-01	-1.5144	4.442458	0.001071	10.709202	3.628376	-0.085502
1041	5.2000e-01	-1.5593	4.063347	0.000950	9.496840	3.217616	-0.075822
1042	5.2050e-01	-1.6026	3.805229	0.000647	6.465933	2.190718	-0.051624
1043	5.2100e-01	-1.6475	3.397886	0.001020	10.204051	3.457226	-0.081469
1044	5.2150e-01	-1.6893	3.047006	0.000879	8.789628	2.978007	-0.070176
1045	5.2200e-01	-1.7294	2.619498	0.001071	10.709202	3.628376	-0.085502
1046	5.2250e-01	-1.7631	2.377512	0.000606	6.061813	2.053798	-0.048397
1047	5.2300e-01	-1.7983	2.014533	0.000909	9.092719	3.080697	-0.072596
1048	5.2350e-01	-1.8352	1.639455	0.000940	9.395810	3.183386	-0.075016
1049	5.2400e-01	-1.8850	1.228079	0.001031	10.305081	3.491456	-0.082275
1050	5.2450e-01	-1.9171	0.861067	0.000919	9.193749	3.114927	-0.073402
1051	5.2500e-01	-1.9684	0.538419	0.000808	8.082417	2.738397	-0.064530
1052	5.2550e-01	-2.0053	0.171407	0.000919	9.193749	3.114927	-0.073402
1053	5.2600e-01	-2.0358	-0.252069	0.001061	10.608172	3.594146	-0.084695
1054	5.2650e-01	-2.0807	-0.546485	0.000738	7.375205	2.498787	-0.058883
1055	5.2700e-01	-2.1160	-0.905431	0.000899	8.991689	3.046467	-0.071789
1056	5.2750e-01	-2.1561	-1.284542	0.000950	9.496840	3.217616	-0.075822
1057	5.2800e-01	-2.2042	-1.611223	0.000818	8.183447	2.772627	-0.065336
1058	5.2850e-01	-2.2459	-1.970169	0.000899	8.991689	3.046467	-0.071789
1059	5.2900e-01	-2.2796	-2.317015	0.000869	8.688598	2.943777	-0.069369
1060	5.2950e-01	-2.3229	-2.728391	0.001031	10.305081	3.491456	-0.082275
1061	5.3000e-01	-2.3646	-3.026841	0.000748	7.476236	2.533017	-0.059690
1062	5.3050e-01	-2.4015	-3.462415	0.001091	10.911263	3.696836	-0.087115
1063	5.3100e-01	-2.4352	-3.785063	0.000808	8.082417	2.738397	-0.064530
1064	5.3150e-01	-2.4914	-4.152075	0.000919	9.193749	3.114927	-0.073402
1065	5.3200e-01	-2.5235	-4.531186	0.000950	9.496840	3.217616	-0.075822
1066	5.3250e-01	-2.5571	-4.906264	0.000940	9.395810	3.183386	-0.075016
1067	5.3300e-01	-2.5956	-5.220846	0.000788	7.880356	2.669937	-0.062916
1068	5.3350e-01	-2.6390	-5.608024	0.000970	9.698900	3.286076	-0.077435
1069	5.3400e-01	-2.6855	-5.950837	0.000859	8.587568	2.909547	-0.068563
1070	5.3450e-01	-2.7256	-6.358180	0.001020	10.204051	3.457226	-0.081469
1071	5.3500e-01	-2.7721	-6.672762	0.000788	7.880356	2.669937	-0.062916
1072	5.3550e-01	-2.8042	-7.003476	0.000828	8.284477	2.806857	-0.066143
1073	5.3600e-01	-2.8379	-7.390653	0.000970	9.698900	3.286076	-0.077435
1074	5.3650e-01	-2.8844	-7.761698	0.000929	9.294779	3.149157	-0.074209
1075	5.3700e-01	-2.9181	-8.088379	0.000818	8.183447	2.772627	-0.065336
1076	5.3750e-01	-2.9598	-8.451358	0.000909	9.092719	3.080697	-0.072596
1077	5.3800e-01	-3.0047	-8.818370	0.000919	9.193749	3.114927	-0.073402
1078	5.3850e-01	-3.0336	-9.132952	0.000788	7.880356	2.669937	-0.062916
1079	5.3900e-01	-3.0785	-9.443500	0.000778	7.779326	2.635707	-0.062110
1080	5.3950e-01	-3.1202	-9.871009	0.001071	10.709202	3.628376	-0.085502
1081	5.4000e-01	-3.1603	-10.157359	0.000717	7.173145	2.430327	-0.057270
1082	5.4050e-01	-3.2053	-10.544536	0.000970	9.698900	3.286076	-0.077435
1083	5.4100e-01	-3.2406	-10.883317	0.000849	8.486538	2.875317	-0.067756
1084	5.4150e-01	-3.2791	-11.318891	0.001091	10.911263	3.696836	-0.087115
1085	5.4200e-01	-3.3111	-11.681870	0.000909	9.092719	3.080697	-0.072596
1086	5.4250e-01	-3.3657	-11.960154	0.000697	6.971085	2.361867	-0.055657
1087	5.4300e-01	-3.3978	-12.246504	0.000717	7.173145	2.430327	-0.057270
1088	5.4350e-01	-3.4475	-12.597383	0.000879	8.789628	2.978007	-0.070176
1089	5.4400e-01	-3.4780	-12.944230	0.000869	8.688598	2.943777	-0.069369
1090	5.4450e-01	-3.5197	-13.303176	0.000899	8.991689	3.046467	-0.071789
1091	5.4500e-01	-3.5614	-13.561294	0.000647	6.465933	2.190718	-0.051624
1092	5.4550e-01	-3.6063	-13.992836	0.001081	10.810233	3.662606	-0.086308
1093	5.4600e-01	-3.6464	-14.319517	0.000818	8.183447	2.772627	-0.065336
1094	5.4650e-01	-3.6801	-14.674429	0.000889	8.890659	3.012237	-0.070983
1095	5.4700e-01	-3.7218	-14.997077	0.000808	8.082417	2.738397	-0.064530
1096	5.4750e-01	-3.7619	-15.368122	0.000929	9.294779	3.149157	-0.074209
1097	5.4800e-01	-3.8036	-15.698836	0.000828	8.284477	2.806857	-0.066143
1098	5.4850e-01	-3.8405	-16.053749	0.000889	8.890659	3.012237	-0.070983
1099	5.4900e-01	-3.8806	-16.368331	0.000788	7.880356	2.669937	-0.062916
1100	5.4950e-01	-3.9256	-16.682912	0.000788	7.880356	2.669937	-0.062916
1101	5.5000e-01	-3.9641	-17.057991	0.000940	9.395810	3.183386	-0.075016
1102	5.5050e-01	-3.9977	-17.352407	0.000738	7.375205	2.498787	-0.058883
1103	5.5100e-01	-4.0475	-17.727485	0.000940	9.395810	3.183386	-0.075016
1104	5.5150e-01	-4.0812	-17.973504	0.000616	6.162843	2.088028	-0.049204
1105	5.5200e-01	-4.1309	-18.356648	0.000960	9.597870	3.251846	-0.076629
1106	5.5250e-01	-4.1694	-18.683329	0.000818	8.183447	2.772627	-0.065336
1107	5.5300e-01	-4.1999	-19.106805	0.001061	10.608172	3.594146	-0.084695
1108	5.5350e-01	-4.2416	-19.385088	0.000697	6.971085	2.361867	-0.055657
1109	5.5400e-01	-4.2817	-19.671438	0.000717	7.173145	2.430327	-0.057270
1110	5.5450e-01	-4.3202	-19.986020	0.000788	7.880356	2.669937	-0.062916
1111	5.5500e-01	-4.3619	-20.228006	0.000606	6.061813	2.053798	-0.048397
1112	5.5550e-01	-4.4020	-20.558720	0.000828	8.284477	2.806857	-0.066143
1113	5.5600e-01	-4.4550	-20.861203	0.000758	7.577266	2.567247	-0.060496
1114	5.5650e-01	-4.4935	-21.252413	0.000980	9.799930	3.320306	-0.078242
1115	5.5700e-01	-4.5143	-21.558929	0.000768	7.678296	2.601477	-0.061303
1116	5.5750e-01	-4.5705	-21.893676	0.000839	8.385507	2.841087	-0.066949
1117	5.5800e-01	-4.6090	-22.200191	0.000768	7.678296	2.601477	-0.061303
1118	5.5850e-01	-4.6410	-22.518806	0.000798	7.981387	2.704167	-0.063723
1119	5.5900e-01	-4.6844	-22.901950	0.000960	9.597870	3.251846	-0.076629
1120	5.5950e-01	-4.7213	-23.156036	0.000636	6.364903	2.156488	-0.050817
1121	5.6000e-01	-4.7646	-23.442386	0.000717	7.173145	2.430327	-0.057270
1122	5.6050e-01	-4.8031	-23.704537	0.000657	6.566964	2.224948	-0.052430
1123	5.6100e-01	-4.8448	-24.059450	0.000889	8.890659	3.012237	-0.070983
1124	5.6150e-01	-4.8785	-24.418395	0.000899	8.991689	3.046467	-0.071789
1125	5.6200e-01	-4.9266	-24.716845	0.000748	7.476236	2.533017	-0.059690
1126	5.6250e-01	-4.9619	-24.966897	0.000626	6.263873	2.122258	-0.050010
1127	5.6300e-01	-5.0020	-25.333909	0.000919	9.193749	3.114927	-0.073402
1128	5.6350e-01	-5.0453	-25.656557	0.000808	8.082417	2.738397	-0.064530
1129	5.6400e-01	-5.0742	-25.971138	0.000788	7.880356	2.669937	-0.062916
1130	5.6450e-01	-5.1223	-26.265555	0.000738	7.375205	2.498787	-0.058883
1131	5.6500e-01	-5.1624	-26.555938	0.000727	7.274175	2.464557	-0.058077
1132	5.6550e-01	-5.1993	-26.866486	0.000778	7.779326	2.635707	-0.062110
1133	5.6600e-01	-5.2378	-27.185101	0.000798	7.981387	2.704167	-0.063723
1134	5.6650e-01	-5.2811	-27.491617	0.000768	7.678296	2.601477	-0.061303
1135	5.6700e-01	-5.3341	-27.798132	0.000768	7.678296	2.601477	-0.061303
1136	5.6750e-01	-5.3630	-28.064317	0.000667	6.667994	2.259177	-0.053237
1137	5.6800e-01	-5.4063	-28.342600	0.000697	6.971085	2.361867	-0.055657
1138	5.6850e-01	-5.4448	-28.693480	0.000879	8.789628	2.978007	-0.070176
1139	5.6900e-01	-5.4913	-29.012095	0.000798	7.981387	2.704167	-0.063723
1140	5.6950e-01	-5.5234	-29.258114	0.000616	6.162843	2.088028	-0.049204
1141	5.7000e-01	-5.5635	-29.604960	0.000869	8.688598	2.943777	-0.069369
1142	5.7050e-01	-5.6100	-29.939707	0.000839	8.385507	2.841087	-0.066949
1143	5.7100e-01	-5.6485	-30.177660	0.000596	5.960782	2.019568	-0.047591
1144	5.7150e-01	-5.6870	-30.472076	0.000738	7.375205	2.498787	-0.058883
1145	5.7200e-01	-5.7271	-30.750360	0.000697	6.971085	2.361867	-0.055657
1146	5.7250e-01	-5.7608	-31.129472	0.000950	9.496840	3.217616	-0.075822
1147	5.7300e-01	-5.8057	-31.375491	0.000616	6.162843	2.088028	-0.049204
1148	5.7350e-01	-5.8458	-31.657807	0.000707	7.072115	2.396097	-0.056463
1149	5.7400e-01	-5.8859	-31.980455	0.000808	8.082417	2.738397	-0.064530
1150	5.7450e-01	-5.9292	-32.206309	0.000566	5.657692	1.916878	-0.045171
1151	5.7500e-01	-5.9581	-32.532990	0.000818	8.183447	2.772627	-0.065336
1152	5.7550e-01	-5.9966	-32.831439	0.000748	7.476236	2.533017	-0.059690
1153	5.7600e-01	-6.0464	-33.154087	0.000808	8.082417	2.738397	-0.064530
1154	5.7650e-01	-6.0929	-33.428338	0.000687	6.870054	2.327637	-0.054850
1155	5.7700e-01	-6.1201	-33.718721	0.000727	7.274175	2.464557	-0.058077
1156	5.7750e-01	-6.1715	-34.049435	0.000828	8.284477	2.806857	-0.066143
1157	5.7800e-01	-6.2084	-34.335785	0.000717	7.173145	2.430327	-0.057270
1158	5.7850e-01	-6.2405	-34.630201	0.000738	7.375205	2.498787	-0.058883
1159	5.7900e-01	-6.2854	-34.900419	0.000677	6.769024	2.293407	-0.054044
1160	5.7950e-01	-6.3319	-35.162570	0.000657	6.566964	2.224948	-0.052430
1161	5.8000e-01	-6.3624	-35.481185	0.000798	7.981387	2.704167	-0.063723
1162	5.8050e-01	-6.3945	-35.779634	0.000748	7.476236	2.533017	-0.059690
1163	5.8100e-01	-6.4490	-36.074050	0.000738	7.375205	2.498787	-0.058883
1164	5.8150e-01	-6.4779	-36.420897	0.000869	8.688598	2.943777	-0.069369
1165	5.8200e-01	-6.5148	-36.614486	0.000485	4.849450	1.643038	-0.038718
1166	5.8250e-01	-6.5661	-36.856472	0.000606	6.061813	2.053798	-0.048397
1167	5.8300e-01	-6.6062	-37.179119	0.000808	8.082417	2.738397	-0.064530
1168	5.8350e-01	-6.6399	-37.461436	0.000707	7.072115	2.396097	-0.056463
1169	5.8400e-01	-6.6752	-37.695356	0.000586	5.859752	1.985338	-0.046784
1170	5.8450e-01	-6.7282	-37.985739	0.000727	7.274175	2.464557	-0.058077
1171	5.8500e-01	-6.7618	-38.324519	0.000849	8.486538	2.875317	-0.067756
1172	5.8550e-01	-6.8052	-38.562472	0.000596	5.960782	2.019568	-0.047591
1173	5.8600e-01	-6.8260	-38.844789	0.000707	7.072115	2.396097	-0.056463
1174	5.8650e-01	-6.8902	-39.115007	0.000677	6.769024	2.293407	-0.054044
1175	5.8700e-01	-6.9175	-39.421522	0.000768	7.678296	2.601477	-0.061303
1176	5.8750e-01	-6.9576	-39.566714	0.000364	3.637088	1.232279	-0.029038
1177	5.8800e-01	-7.0057	-39.974057	0.001020	10.204051	3.457226	-0.081469
1178	5.8850e-01	-7.0474	-40.252341	0.000697	6.971085	2.361867	-0.055657
1179	5.8900e-01	-7.0827	-40.510459	0.000647	6.465933	2.190718	-0.051624
1180	5.8950e-01	-7.1132	-40.833107	0.000808	8.082417	2.738397	-0.064530
1181	5.9000e-01	-7.1613	-41.075093	0.000606	6.061813	2.053798	-0.048397
1182	5.9050e-01	-7.1982	-41.296913	0.000556	5.556662	1.882648	-0.044364
1183	5.9100e-01	-7.2351	-41.635693	0.000849	8.486538	2.875317	-0.067756
1184	5.9150e-01	-7.2816	-41.909944	0.000687	6.870054	2.327637	-0.054850
1185	5.9200e-01	-7.3217	-42.151930	0.000606	6.061813	2.053798	-0.048397
1186	5.9250e-01	-7.3586	-42.442313	0.000727	7.274175	2.464557	-0.058077
1187	5.9300e-01	-7.4019	-42.740762	0.000748	7.476236	2.533017	-0.059690
1188	5.9350e-01	-7.4436	-42.986781	0.000616	6.162843	2.088028	-0.049204
1189	5.9400e-01	-7.4789	-43.252966	0.000667	6.667994	2.259177	-0.053237
1190	5.9450e-01	-7.5094	-43.583680	0.000828	8.284477	2.806857	-0.066143
1191	5.9500e-01	-7.5640	-43.833732	0.000626	6.263873	2.122258	-0.050010
1192	5.9550e-01	-7.5880	-44.107983	0.000687	6.870054	2.327637	-0.054850
1193	5.9600e-01	-7.6394	-44.366101	0.000647	6.465933	2.190718	-0.051624
1194	5.9650e-01	-7.6795	-44.668584	0.000758	7.577266	2.567247	-0.060496
1195	5.9700e-01	-7.7196	-44.906536	0.000596	5.960782	2.019568	-0.047591
1196	5.9750e-01	-7.7565	-45.184820	0.000697	6.971085	2.361867	-0.055657
1197	5.9800e-01	-7.7934	-45.527634	0.000859	8.587568	2.909547	-0.068563
1198	5.9850e-01	-7.8431	-45.789785	0.000657	6.566964	2.224948	-0.052430
1199	5.9900e-01	-7.8848	-45.959175	0.000424	4.243269	1.437658	-0.033878
1200	5.9950e-01	-7.9249	-46.257624	0.000748	7.476236	2.533017	-0.059690
1201	6.0000e-01	-7.9570	-46.552041	0.000738	7.375205	2.498787	-0.058883
1202	6.0050e-01	-8.0003	-46.765795	0.000535	5.354601	1.814188	-0.042751
1203	6.0100e-01	-8.0436	-47.096509	0.000828	8.284477	2.806857	-0.066143
1204	6.0150e-01	-8.0789	-47.342528	0.000616	6.162843	2.088028	-0.049204
1205	6.0200e-01	-8.1190	-47.616779	0.000687	6.870054	2.327637	-0.054850
1206	6.0250e-01	-8.1671	-47.915228	0.000748	7.476236	2.533017	-0.059690
1207	6.0300e-01	-8.2089	-48.145115	0.000576	5.758722	1.951108	-0.045977
1208	6.0350e-01	-8.2474	-48.435498	0.000727	7.274175	2.464557	-0.058077
1209	6.0400e-01	-8.2827	-48.733947	0.000748	7.476236	2.533017	-0.059690
1210	6.0450e-01	-8.3212	-48.951734	0.000546	5.455631	1.848418	-0.043557
1211	6.0500e-01	-8.3581	-49.161455	0.000525	5.253571	1.779958	-0.041944
1212	6.0550e-01	-8.3998	-49.472004	0.000778	7.779326	2.635707	-0.062110
1213	6.0600e-01	-8.4431	-49.689791	0.000546	5.455631	1.848418	-0.043557
1214	6.0650e-01	-8.4816	-49.972108	0.000707	7.072115	2.396097	-0.056463
1215	6.0700e-01	-8.5185	-50.286690	0.000788	7.880356	2.669937	-0.062916
1216	6.0750e-01	-8.5618	-50.492378	0.000515	5.152541	1.745728	-0.041138
1217	6.0800e-01	-8.6067	-50.726298	0.000586	5.859752	1.985338	-0.046784
1218	6.0850e-01	-8.6372	-51.040879	0.000788	7.880356	2.669937	-0.062916
1219	6.0900e-01	-8.6773	-51.319163	0.000697	6.971085	2.361867	-0.055657
1220	6.0950e-01	-8.7222	-51.549050	0.000576	5.758722	1.951108	-0.045977
1221	6.1000e-01	-8.7575	-51.782970	0.000586	5.859752	1.985338	-0.046784
1222	6.1050e-01	-8.8040	-52.085452	0.000758	7.577266	2.567247	-0.060496
1223	6.1100e-01	-8.8393	-52.396000	0.000778	7.779326	2.635707	-0.062110
1224	6.1150e-01	-8.8858	-52.633953	0.000596	5.960782	2.019568	-0.047591
1225	6.1200e-01	-8.9227	-52.888039	0.000636	6.364903	2.156488	-0.050817
1226	6.1250e-01	-8.9628	-53.138091	0.000626	6.263873	2.122258	-0.050010
1227	6.1300e-01	-9.0030	-53.376043	0.000596	5.960782	2.019568	-0.047591
1228	6.1350e-01	-9.0415	-53.658360	0.000707	7.072115	2.396097	-0.056463
1229	6.1400e-01	-9.0848	-53.876148	0.000546	5.455631	1.848418	-0.043557
1230	6.1450e-01	-9.1153	-54.114100	0.000596	5.960782	2.019568	-0.047591
1231	6.1500e-01	-9.1554	-54.380285	0.000667	6.667994	2.259177	-0.053237
1232	6.1550e-01	-9.2131	-54.436748	0.000141	1.414423	0.479219	-0.011293
1233	6.1600e-01	-9.2468	-54.940886	0.001263	12.628776	4.278745	-0.100827
1234	6.1650e-01	-9.2869	-55.154640	0.000535	5.354601	1.814188	-0.042751
1235	6.1700e-01	-9.3254	-55.428891	0.000687	6.870054	2.327637	-0.054850
1236	6.1750e-01	-9.3607	-55.670877	0.000606	6.061813	2.053798	-0.048397
1237	6.1800e-01	-9.4040	-55.904796	0.000586	5.859752	1.985338	-0.046784
1238	6.1850e-01	-9.4297	-56.267775	0.000909	9.092719	3.080697	-0.072596
1239	6.1900e-01	-9.4762	-56.429099	0.000404	4.041208	1.369198	-0.032265
1240	6.1950e-01	-9.5243	-56.671085	0.000606	6.061813	2.053798	-0.048397
1241	6.2000e-01	-9.5612	-56.892905	0.000556	5.556662	1.882648	-0.044364
1242	6.2050e-01	-9.6013	-57.159090	0.000667	6.667994	2.259177	-0.053237
1243	6.2100e-01	-9.6398	-57.469639	0.000778	7.779326	2.635707	-0.062110
1244	6.2150e-01	-9.6831	-57.622896	0.000384	3.839148	1.300739	-0.030652
1245	6.2200e-01	-9.7104	-57.941511	0.000798	7.981387	2.704167	-0.063723
1246	6.2250e-01	-9.7682	-58.167365	0.000566	5.657692	1.916878	-0.045171
1247	6.2300e-01	-9.8067	-58.429516	0.000657	6.566964	2.224948	-0.052430
1248	6.2350e-01	-9.8532	-58.679568	0.000626	6.263873	2.122258	-0.050010
1249	6.2400e-01	-9.8901	-58.881223	0.000505	5.051511	1.711498	-0.040331
1250	6.2450e-01	-9.9254	-59.115143	0.000586	5.859752	1.985338	-0.046784
1251	6.2500e-01	-9.9639	-59.518453	0.001010	10.103021	3.422996	-0.080662
1252	6.2550e-01	-9.9928	-59.651545	0.000333	3.333997	1.129589	-0.026618
1253	6.2600e-01	-10.0409	-59.877398	0.000566	5.657692	1.916878	-0.045171
1254	6.2650e-01	-10.0762	-60.143583	0.000667	6.667994	2.259177	-0.053237
1255	6.2700e-01	-10.1211	-60.397668	0.000636	6.364903	2.156488	-0.050817
1256	6.2750e-01	-10.1612	-60.679985	0.000707	7.072115	2.396097	-0.056463
1257	6.2800e-01	-10.1981	-60.869541	0.000475	4.748420	1.608808	-0.037911
1258	6.2850e-01	-10.2462	-61.147824	0.000697	6.971085	2.361867	-0.055657
1259	6.2900e-01	-10.2799	-61.405943	0.000647	6.465933	2.190718	-0.051624
1260	6.2950e-01	-10.3200	-61.655995	0.000626	6.263873	2.122258	-0.050010
1261	6.3000e-01	-10.3633	-61.833451	0.000445	4.445329	1.506118	-0.035491
1262	6.3050e-01	-10.4067	-62.111735	0.000697	6.971085	2.361867	-0.055657
1263	6.3100e-01	-10.4371	-62.353721	0.000606	6.061813	2.053798	-0.048397
1264	6.3150e-01	-10.4901	-62.627972	0.000687	6.870054	2.327637	-0.054850
1265	6.3200e-01	-10.5190	-62.833660	0.000515	5.152541	1.745728	-0.041138
1266	6.3250e-01	-10.5687	-63.063546	0.000576	5.758722	1.951108	-0.045977
1267	6.3300e-01	-10.6040	-63.357962	0.000738	7.375205	2.498787	-0.058883
1268	6.3350e-01	-10.6361	-63.563651	0.000515	5.152541	1.745728	-0.041138
1269	6.3400e-01	-10.6794	-63.793537	0.000576	5.758722	1.951108	-0.045977
1270	6.3450e-01	-10.7147	-64.047622	0.000636	6.364903	2.156488	-0.050817
1271	6.3500e-01	-10.7628	-64.309774	0.000657	6.566964	2.224948	-0.052430
1272	6.3550e-01	-10.8061	-64.547727	0.000596	5.960782	2.019568	-0.047591
1273	6.3600e-01	-10.8494	-64.733249	0.000465	4.647390	1.574578	-0.037105
1274	6.3650e-01	-10.8783	-65.019599	0.000717	7.173145	2.430327	-0.057270
1275	6.3700e-01	-10.9200	-65.221254	0.000505	5.051511	1.711498	-0.040331
1276	6.3750e-01	-10.9585	-65.447108	0.000566	5.657692	1.916878	-0.045171
1277	6.3800e-01	-11.0002	-65.749590	0.000758	7.577266	2.567247	-0.060496
1278	6.3850e-01	-11.0355	-65.955278	0.000515	5.152541	1.745728	-0.041138
1279	6.3900e-01	-11.0836	-66.229529	0.000687	6.870054	2.327637	-0.054850
1280	6.3950e-01	-11.1221	-66.411018	0.000455	4.546359	1.540348	-0.036298
1281	6.4000e-01	-11.1671	-66.624772	0.000535	5.354601	1.814188	-0.042751
1282	6.4050e-01	-11.1943	-66.923222	0.000748	7.476236	2.533017	-0.059690
1283	6.4100e-01	-11.2377	-67.149075	0.000566	5.657692	1.916878	-0.045171
1284	6.4150e-01	-11.2842	-67.403160	0.000636	6.364903	2.156488	-0.050817
1285	6.4200e-01	-11.3227	-67.616915	0.000535	5.354601	1.814188	-0.042751
1286	6.4250e-01	-11.3612	-67.895198	0.000697	6.971085	2.361867	-0.055657
1287	6.4300e-01	-11.3949	-68.145251	0.000626	6.263873	2.122258	-0.050010
1288	6.4350e-01	-11.4382	-68.354972	0.000525	5.253571	1.779958	-0.041944
1289	6.4400e-01	-11.4799	-68.596958	0.000606	6.061813	2.053798	-0.048397
1290	6.4450e-01	-11.5248	-68.847010	0.000626	6.263873	2.122258	-0.050010
1291	6.4500e-01	-11.5665	-69.093029	0.000616	6.162843	2.088028	-0.049204
1292	6.4550e-01	-11.6034	-69.314849	0.000556	5.556662	1.882648	-0.044364
1293	6.4600e-01	-11.6451	-69.540703	0.000566	5.657692	1.916878	-0.045171
1294	6.4650e-01	-11.6804	-69.839152	0.000748	7.476236	2.533017	-0.059690
1295	6.4700e-01	-11.7141	-70.012575	0.000434	4.344299	1.471888	-0.034685
1296	6.4750e-01	-11.7638	-70.246495	0.000586	5.859752	1.985338	-0.046784
1297	6.4800e-01	-11.7975	-70.464282	0.000546	5.455631	1.848418	-0.043557
1298	6.4850e-01	-11.8441	-71.024883	0.001404	14.043199	4.757965	-0.112120
1299	6.4900e-01	-11.8874	-71.024883	-0.000000	-0.000000	-0.000000	0.000000
1300	6.4950e-01	-11.9227	-71.234604	0.000525	5.253571	1.779958	-0.041944
1301	6.5000e-01	-11.9628	-71.508855	0.000687	6.870054	2.327637	-0.054850
1302	6.5050e-01	-11.9997	-71.674212	0.000414	4.142239	1.403428	-0.033071
1303	6.5100e-01	-12.0494	-71.928297	0.000636	6.364903	2.156488	-0.050817
1304	6.5150e-01	-12.0702	-72.117853	0.000475	4.748420	1.608808	-0.037911
1305	6.5200e-01	-12.1232	-72.388070	0.000677	6.769024	2.293407	-0.054044
1306	6.5250e-01	-12.1585	-72.686520	0.000748	7.476236	2.533017	-0.059690
1307	6.5300e-01	-12.2050	-72.868009	0.000455	4.546359	1.540348	-0.036298
1308	6.5350e-01	-12.2451	-73.130160	0.000657	6.566964	2.224948	-0.052430
1309	6.5400e-01	-12.2804	-73.323749	0.000485	4.849450	1.643038	-0.038718
1310	6.5450e-01	-12.3221	-73.606066	0.000707	7.072115	2.396097	-0.056463
1311	6.5500e-01	-12.3670	-73.803688	0.000495	4.950480	1.677268	-0.039524
1312	6.5550e-01	-12.4087	-74.061806	0.000647	6.465933	2.190718	-0.051624
1313	6.5600e-01	-12.4360	-74.303792	0.000606	6.061813	2.053798	-0.048397
1314	6.5650e-01	-12.4841	-74.565944	0.000657	6.566964	2.224948	-0.052430
1315	6.5700e-01	-12.5210	-74.852294	0.000717	7.173145	2.430327	-0.057270
1316	6.5750e-01	-12.5627	-75.057982	0.000515	5.152541	1.745728	-0.041138
1317	6.5800e-01	-12.6045	-75.263670	0.000515	5.152541	1.745728	-0.041138
1318	6.5850e-01	-12.6430	-75.521788	0.000647	6.465933	2.190718	-0.051624
1319	6.5900e-01	-12.6815	-75.735542	0.000535	5.354601	1.814188	-0.042751
1320	6.5950e-01	-12.7135	-75.965429	0.000576	5.758722	1.951108	-0.045977
1321	6.6000e-01	-12.7649	-76.203382	0.000596	5.960782	2.019568	-0.047591
1322	6.6050e-01	-12.7889	-76.505864	0.000758	7.577266	2.567247	-0.060496
1323	6.6100e-01	-12.8435	-76.707519	0.000505	5.051511	1.711498	-0.040331
1324	6.6150e-01	-12.8820	-76.953538	0.000616	6.162843	2.088028	-0.049204
1325	6.6200e-01	-12.9237	-77.159226	0.000515	5.152541	1.745728	-0.041138
1326	6.6250e-01	-12.9574	-77.393146	0.000586	5.859752	1.985338	-0.046784
1327	6.6300e-01	-13.0007	-77.679496	0.000717	7.173145	2.430327	-0.057270
1328	6.6350e-01	-13.0424	-77.901316	0.000556	5.556662	1.882648	-0.044364
1329	6.6400e-01	-13.0857	-78.102971	0.000505	5.051511	1.711498	-0.040331
1330	6.6450e-01	-13.1162	-78.429652	0.000818	8.183447	2.772627	-0.065336
1331	6.6500e-01	-13.1595	-78.647439	0.000546	5.455631	1.848418	-0.043557
1332	6.6550e-01	-13.2044	-78.861194	0.000535	5.354601	1.814188	-0.042751
1333	6.6600e-01	-13.2462	-79.115279	0.000636	6.364903	2.156488	-0.050817
1334	6.6650e-01	-13.2847	-79.349198	0.000586	5.859752	1.985338	-0.046784
1335	6.6700e-01	-13.3167	-79.566986	0.000546	5.455631	1.848418	-0.043557
1336	6.6750e-01	-13.3568	-79.813005	0.000616	6.162843	2.088028	-0.049204
1337	6.6800e-01	-13.4002	-80.059024	0.000616	6.162843	2.088028	-0.049204
1338	6.6850e-01	-13.4499	-80.353440	0.000738	7.375205	2.498787	-0.058883
1339	6.6900e-01	-13.4804	-80.672055	0.000798	7.981387	2.704167	-0.063723
1340	6.6950e-01	-13.5092	-80.849511	0.000445	4.445329	1.506118	-0.035491
1341	6.7000e-01	-13.5574	-81.055199	0.000515	5.152541	1.745728	-0.041138
1342	6.7050e-01	-13.6055	-81.402046	0.000869	8.688598	2.943777	-0.069369
1343	6.7100e-01	-13.6424	-81.583535	0.000455	4.546359	1.540348	-0.036298
1344	6.7150e-01	-13.6841	-81.886017	0.000758	7.577266	2.567247	-0.060496
1345	6.7200e-01	-13.7114	-82.200599	0.000788	7.880356	2.669937	-0.062916
1346	6.7250e-01	-13.7595	-82.369989	0.000424	4.243269	1.437658	-0.033878
1347	6.7300e-01	-13.7996	-82.591810	0.000556	5.556662	1.882648	-0.044364
1348	6.7350e-01	-13.8413	-82.862027	0.000677	6.769024	2.293407	-0.054044
1349	6.7400e-01	-13.8814	-83.168543	0.000768	7.678296	2.601477	-0.061303
1350	6.7450e-01	-13.9247	-83.370198	0.000505	5.051511	1.711498	-0.040331
1351	6.7500e-01	-13.9681	-83.640415	0.000677	6.769024	2.293407	-0.054044
1352	6.7550e-01	-14.0146	-83.914666	0.000687	6.870054	2.327637	-0.054850
1353	6.7600e-01	-14.0370	-84.160685	0.000616	6.162843	2.088028	-0.049204
1354	6.7650e-01	-14.0900	-84.422836	0.000657	6.566964	2.224948	-0.052430
1355	6.7700e-01	-14.1285	-84.701120	0.000697	6.971085	2.361867	-0.055657
1356	6.7750e-01	-14.1670	-84.935040	0.000586	5.859752	1.985338	-0.046784
1357	6.7800e-01	-14.2103	-85.245589	0.000778	7.779326	2.635707	-0.062110
1358	6.7850e-01	-14.2408	-85.463376	0.000546	5.455631	1.848418	-0.043557
1359	6.7900e-01	-14.2793	-85.753759	0.000727	7.274175	2.464557	-0.058077
1360	6.7950e-01	-14.3146	-86.028010	0.000687	6.870054	2.327637	-0.054850
1361	6.8000e-01	-14.3595	-86.225632	0.000495	4.950480	1.677268	-0.039524
1362	6.8050e-01	-14.4028	-86.536180	0.000778	7.779326	2.635707	-0.062110
1363	6.8100e-01	-14.4413	-86.786232	0.000626	6.263873	2.122258	-0.050010
1364	6.8150e-01	-14.4814	-87.084682	0.000748	7.476236	2.533017	-0.059690
1365	6.8200e-01	-14.5263	-87.322634	0.000596	5.960782	2.019568	-0.047591
1366	6.8250e-01	-14.5680	-87.621084	0.000748	7.476236	2.533017	-0.059690
1367	6.8300e-01	-14.6001	-87.863070	0.000606	6.061813	2.053798	-0.048397
1368	6.8350e-01	-14.6370	-88.193784	0.000828	8.284477	2.806857	-0.066143
1369	6.8400e-01	-14.6851	-88.371240	0.000445	4.445329	1.506118	-0.035491
1370	6.8450e-01	-14.7188	-88.750351	0.000950	9.496840	3.217616	-0.075822
1371	6.8500e-01	-14.7605	-88.931841	0.000455	4.546359	1.540348	-0.036298
1372	6.8550e-01	-14.7926	-89.214158	0.000707	7.072115	2.396097	-0.056463
1373	6.8600e-01	-14.8392	-89.500508	0.000717	7.173145	2.430327	-0.057270
1374	6.8650e-01	-14.8809	-89.827189	0.000818	8.183447	2.772627	-0.065336
1375	6.8700e-01	-14.9194	-90.081274	0.000636	6.364903	2.156488	-0.050817
1376	6.8750e-01	-14.9563	-90.387789	0.000768	7.678296	2.601477	-0.061303
1377	6.8800e-01	-14.9996	-90.698338	0.000778	7.779326	2.635707	-0.062110
1378	6.8850e-01	-15.0397	-90.944357	0.000616	6.162843	2.088028	-0.049204
1379	6.8900e-01	-15.0846	-91.206508	0.000657	6.566964	2.224948	-0.052430
1380	6.8950e-01	-15.1167	-91.488825	0.000707	7.072115	2.396097	-0.056463
1381	6.9000e-01	-15.1680	-91.750977	0.000657	6.566964	2.224948	-0.052430
1382	6.9050e-01	-15.2033	-92.109922	0.000899	8.991689	3.046467	-0.071789
1383	6.9100e-01	-15.2579	-92.335776	0.000566	5.657692	1.916878	-0.045171
1384	6.9150e-01	-15.2803	-92.646325	0.000778	7.779326	2.635707	-0.062110
1385	6.9200e-01	-15.3236	-93.009303	0.000909	9.092719	3.080697	-0.072596
1386	6.9250e-01	-15.3637	-93.283554	0.000687	6.870054	2.327637	-0.054850
1387	6.9300e-01	-15.4071	-93.513441	0.000576	5.758722	1.951108	-0.045977
1388	6.9350e-01	-15.4327	-93.836089	0.000808	8.082417	2.738397	-0.064530
1389	6.9400e-01	-15.4776	-94.118406	0.000707	7.072115	2.396097	-0.056463
1390	6.9450e-01	-15.5177	-94.392656	0.000687	6.870054	2.327637	-0.054850
1391	6.9500e-01	-15.5546	-94.654808	0.000657	6.566964	2.224948	-0.052430
1392	6.9550e-01	-15.6044	-94.965356	0.000778	7.779326	2.635707	-0.062110
1393	6.9600e-01	-15.6461	-95.324302	0.000899	8.991689	3.046467	-0.071789
1394	6.9650e-01	-15.6782	-95.618718	0.000738	7.375205	2.498787	-0.058883
1395	6.9700e-01	-15.7263	-95.897002	0.000697	6.971085	2.361867	-0.055657
1396	6.9750e-01	-15.7632	-96.215617	0.000798	7.981387	2.704167	-0.063723
1397	6.9800e-01	-15.8017	-96.538265	0.000808	8.082417	2.738397	-0.064530
1398	6.9850e-01	-15.8450	-96.804449	0.000667	6.667994	2.259177	-0.053237
1399	6.9900e-01	-15.8819	-97.143229	0.000849	8.486538	2.875317	-0.067756
1400	6.9950e-01	-15.9236	-97.457811	0.000788	7.880356	2.669937	-0.062916
1401	7.0000e-01	-15.9557	-97.824823	0.000919	9.193749	3.114927	-0.073402
1402	7.0050e-01	-16.0070	-98.099074	0.000687	6.870054	2.327637	-0.054850
1403	7.0100e-01	-16.0375	-98.433821	0.000839	8.385507	2.841087	-0.066949
1404	7.0150e-01	-16.0953	-98.655641	0.000556	5.556662	1.882648	-0.044364
1405	7.0200e-01	-16.1113	-99.002488	0.000869	8.688598	2.943777	-0.069369
1406	7.0250e-01	-16.1659	-99.288838	0.000717	7.173145	2.430327	-0.057270
1407	7.0300e-01	-16.1963	-99.659883	0.000929	9.294779	3.149157	-0.074209
1408	7.0350e-01	-16.2380	-99.994630	0.000839	8.385507	2.841087	-0.066949
1409	7.0400e-01	-16.2765	-100.301146	0.000768	7.678296	2.601477	-0.061303
1410	7.0450e-01	-16.3199	-100.559264	0.000647	6.465933	2.190718	-0.051624
1411	7.0500e-01	-16.3616	-100.970640	0.001031	10.305081	3.491456	-0.082275
1412	7.0550e-01	-16.4081	-101.248924	0.000697	6.971085	2.361867	-0.055657
1413	7.0600e-01	-16.4386	-101.603837	0.000889	8.890659	3.012237	-0.070983
1414	7.0650e-01	-16.4803	-101.934551	0.000828	8.284477	2.806857	-0.066143
1415	7.0700e-01	-16.5236	-102.228967	0.000738	7.375205	2.498787	-0.058883
1416	7.0750e-01	-16.5637	-102.567747	0.000849	8.486538	2.875317	-0.067756
1417	7.0800e-01	-16.5958	-102.874263	0.000768	7.678296	2.601477	-0.061303
1418	7.0850e-01	-16.6359	-103.245308	0.000929	9.294779	3.149157	-0.074209
1419	7.0900e-01	-16.6792	-103.580055	0.000839	8.385507	2.841087	-0.066949
1420	7.0950e-01	-16.7289	-103.930934	0.000879	8.789628	2.978007	-0.070176
1421	7.1000e-01	-16.7530	-104.261649	0.000828	8.284477	2.806857	-0.066143
1422	7.1050e-01	-16.8011	-104.636727	0.000940	9.395810	3.183386	-0.075016
1423	7.1100e-01	-16.8412	-104.931143	0.000738	7.375205	2.498787	-0.058883
1424	7.1150e-01	-16.8781	-105.241691	0.000778	7.779326	2.635707	-0.062110
1425	7.1200e-01	-16.9198	-105.620803	0.000950	9.496840	3.217616	-0.075822
1426	7.1250e-01	-16.9519	-105.987815	0.000919	9.193749	3.114927	-0.073402
1427	7.1300e-01	-17.0033	-106.266099	0.000697	6.971085	2.361867	-0.055657
1428	7.1350e-01	-17.0402	-106.625044	0.000899	8.991689	3.046467	-0.071789
1429	7.1400e-01	-17.0755	-106.983990	0.000899	8.991689	3.046467	-0.071789
1430	7.1450e-01	-17.1172	-107.334870	0.000879	8.789628	2.978007	-0.070176
1431	7.1500e-01	-17.1492	-107.601054	0.000667	6.667994	2.259177	-0.053237
1432	7.1550e-01	-17.2006	-108.000331	0.001000	10.001991	3.388766	-0.079855
1433	7.1600e-01	-17.2343	-108.456071	0.001142	11.416414	3.867986	-0.091148
1434	7.1650e-01	-17.2792	-108.782752	0.000818	8.183447	2.772627	-0.065336
1435	7.1700e-01	-17.3177	-109.077168	0.000738	7.375205	2.498787	-0.058883
1436	7.1750e-01	-17.3578	-109.452246	0.000940	9.395810	3.183386	-0.075016
1437	7.1800e-01	-17.3995	-109.754729	0.000758	7.577266	2.567247	-0.060496
1438	7.1850e-01	-17.4332	-110.218535	0.001162	11.618474	3.936446	-0.092761
1439	7.1900e-01	-17.4845	-110.581514	0.000909	9.092719	3.080697	-0.072596
1440	7.1950e-01	-17.5198	-110.892063	0.000778	7.779326	2.635707	-0.062110
1441	7.2000e-01	-17.5663	-111.311505	0.001051	10.507142	3.559916	-0.083888
1442	7.2050e-01	-17.5952	-111.658351	0.000869	8.688598	2.943777	-0.069369
1443	7.2100e-01	-17.6369	-112.013264	0.000889	8.890659	3.012237	-0.070983
1444	7.2150e-01	-17.6802	-112.372210	0.000899	8.991689	3.046467	-0.071789
1445	7.2200e-01	-17.7123	-112.783586	0.001031	10.305081	3.491456	-0.082275
1446	7.2250e-01	-17.7508	-113.158664	0.000940	9.395810	3.183386	-0.075016
1447	7.2300e-01	-17.8022	-113.533742	0.000940	9.395810	3.183386	-0.075016
1448	7.2350e-01	-17.8294	-113.912853	0.000950	9.496840	3.217616	-0.075822
1449	7.2400e-01	-17.8792	-114.308097	0.000990	9.900961	3.354536	-0.079049
1450	7.2450e-01	-17.9193	-114.675109	0.000919	9.193749	3.114927	-0.073402
1451	7.2500e-01	-17.9514	-115.013889	0.000849	8.486538	2.875317	-0.067756
1452	7.2550e-01	-18.0043	-115.397034	0.000960	9.597870	3.251846	-0.076629
1453	7.2600e-01	-18.0380	-115.691450	0.000738	7.375205	2.498787	-0.058883
1454	7.2650e-01	-18.0845	-116.215753	0.001313	13.133927	4.449895	-0.104861
1455	7.2700e-01	-18.1198	-116.578732	0.000909	9.092719	3.080697	-0.072596
1456	7.2750e-01	-18.1599	-117.014306	0.001091	10.911263	3.696836	-0.087115
1457	7.2800e-01	-18.1968	-117.421649	0.001020	10.204051	3.457226	-0.081469
1458	7.2850e-01	-18.2465	-117.772529	0.000879	8.789628	2.978007	-0.070176
1459	7.2900e-01	-18.2802	-118.179872	0.001020	10.204051	3.457226	-0.081469
1460	7.2950e-01	-18.3171	-118.534784	0.000889	8.890659	3.012237	-0.070983
1461	7.3000e-01	-18.3556	-118.982458	0.001121	11.214353	3.799526	-0.089535
1462	7.3050e-01	-18.3957	-119.256709	0.000687	6.870054	2.327637	-0.054850
1463	7.3100e-01	-18.4487	-119.772946	0.001293	12.931867	4.381435	-0.103247
1464	7.3150e-01	-18.4808	-120.160123	0.000970	9.698900	3.286076	-0.077435
1465	7.3200e-01	-18.5337	-120.555367	0.000990	9.900961	3.354536	-0.079049
1466	7.3250e-01	-18.5610	-120.958677	0.001010	10.103021	3.422996	-0.080662
1467	7.3300e-01	-18.6059	-121.410384	0.001132	11.315384	3.833756	-0.090341
1468	7.3350e-01	-18.6444	-121.833859	0.001061	10.608172	3.594146	-0.084695
1469	7.3400e-01	-18.6797	-122.204904	0.000929	9.294779	3.149157	-0.074209
1470	7.3450e-01	-18.7182	-122.616280	0.001031	10.305081	3.491456	-0.082275
1471	7.3500e-01	-18.7583	-123.019590	0.001010	10.103021	3.422996	-0.080662
1472	7.3550e-01	-18.8032	-123.491463	0.001182	11.820535	4.004906	-0.094375
1473	7.3600e-01	-18.8353	-123.870574	0.000950	9.496840	3.217616	-0.075822
1474	7.3650e-01	-18.8850	-124.277917	0.001020	10.204051	3.457226	-0.081469
1475	7.3700e-01	-18.9251	-124.729624	0.001132	11.315384	3.833756	-0.090341
1476	7.3750e-01	-18.9636	-125.149066	0.001051	10.507142	3.559916	-0.083888
1477	7.3800e-01	-18.9989	-125.536244	0.000970	9.698900	3.286076	-0.077435
1478	7.3850e-01	-19.0326	-125.959719	0.001061	10.608172	3.594146	-0.084695
1479	7.3900e-01	-19.0743	-126.375128	0.001041	10.406112	3.525686	-0.083082
1480	7.3950e-01	-19.1128	-126.818769	0.001111	11.113323	3.765296	-0.088728
1481	7.4000e-01	-19.1513	-127.246277	0.001071	10.709202	3.628376	-0.085502
1482	7.4050e-01	-19.2043	-127.702018	0.001142	11.416414	3.867986	-0.091148
1483	7.4100e-01	-19.2364	-128.157758	0.001142	11.416414	3.867986	-0.091148
1484	7.4150e-01	-19.2716	-128.589299	0.001081	10.810233	3.662606	-0.086308
1485	7.4200e-01	-19.3230	-129.081337	0.001233	12.325686	4.176055	-0.098408
1486	7.4250e-01	-19.3599	-129.456415	0.000940	9.395810	3.183386	-0.075016
1487	7.4300e-01	-19.4032	-129.916189	0.001152	11.517444	3.902216	-0.091955
1488	7.4350e-01	-19.4465	-130.351763	0.001091	10.911263	3.696836	-0.087115
1489	7.4400e-01	-19.4690	-130.799437	0.001121	11.214353	3.799526	-0.089535
1490	7.4450e-01	-19.5187	-131.243078	0.001111	11.113323	3.765296	-0.088728
1491	7.4500e-01	-19.5604	-131.694785	0.001132	11.315384	3.833756	-0.090341
1492	7.4550e-01	-19.6005	-132.130360	0.001091	10.911263	3.696836	-0.087115
1493	7.4600e-01	-19.6406	-132.638530	0.001273	12.729807	4.312975	-0.101634
1494	7.4650e-01	-19.6695	-133.066039	0.001071	10.709202	3.628376	-0.085502
1495	7.4700e-01	-19.7128	-133.545977	0.001202	12.022595	4.073365	-0.095988
1496	7.4750e-01	-19.7641	-133.933155	0.000970	9.698900	3.286076	-0.077435
1497	7.4800e-01	-19.7962	-134.388895	0.001142	11.416414	3.867986	-0.091148
1498	7.4850e-01	-19.8331	-134.796238	0.001020	10.204051	3.457226	-0.081469
1499	7.4900e-01	-19.8797	-135.372971	0.001445	14.447320	4.894885	-0.115347
1500	7.4950e-01	-19.9262	-135.865009	0.001233	12.325686	4.176055	-0.098408
1501	7.5000e-01	-19.9551	-136.336882	0.001182	11.820535	4.004906	-0.094375
1502	7.5050e-01	-19.9615	-136.740192	0.001010	10.103021	3.422996	-0.080662
1503	7.5100e-01	-19.9326	-137.058806	-0.000798	-7.981387	-2.704167	-0.063723
1504	7.5150e-01	-19.9053	-137.272561	-0.000535	-5.354601	-1.814188	-0.042751
1505	7.5200e-01	-19.8604	-137.417752	-0.000364	-3.637088	-1.232279	-0.029038
1506	7.5250e-01	-19.8203	-137.566977	-0.000374	-3.738118	-1.266509	-0.029845
1507	7.5300e-01	-19.7786	-137.696036	-0.000323	-3.232967	-1.095359	-0.025812
1508	7.5350e-01	-19.7353	-137.756532	-0.000152	-1.515453	-0.513449	-0.012099
1509	7.5400e-01	-19.6936	-137.800896	-0.000111	-1.111332	-0.376530	-0.008873
1510	7.5450e-01	-19.6647	-137.861393	-0.000152	-1.515453	-0.513449	-0.012099
1511	7.5500e-01	-19.6182	-137.869459	-0.000020	-0.202060	-0.068460	-0.001613
1512	7.5550e-01	-19.5781	-137.893658	-0.000061	-0.606181	-0.205380	-0.004840
1513	7.5600e-01	-19.5380	-137.905757	-0.000030	-0.303091	-0.102690	-0.002420
1514	7.5650e-01	-19.5011	-137.877525	0.000071	0.707211	0.239610	0.005646
1515	7.5700e-01	-19.4642	-137.885592	-0.000020	-0.202060	-0.068460	-0.001613
1516	7.5750e-01	-19.4241	-137.885592	0.000000	0.000000	0.000000	0.000000
1517	7.5800e-01	-19.3807	-137.825095	0.000152	1.515453	0.513449	0.012099
1518	7.5850e-01	-19.3438	-137.752499	0.000182	1.818544	0.616139	0.014519
1519	7.5900e-01	-19.3102	-137.740400	0.000030	0.303091	0.102690	0.002420
1520	7.5950e-01	-19.2620	-137.663771	0.000192	1.919574	0.650369	0.015326
1521	7.6000e-01	-19.2235	-137.591175	0.000182	1.818544	0.616139	0.014519
1522	7.6050e-01	-19.1866	-137.679904	-0.000222	-2.222665	-0.753059	-0.017746
1523	7.6100e-01	-19.1465	-137.474216	0.000515	5.152541	1.745728	0.041138
1524	7.6150e-01	-19.0984	-137.373388	0.000253	2.525755	0.855749	0.020165
1525	7.6200e-01	-19.0647	-137.292726	0.000202	2.020604	0.684599	0.016132
1526	7.6250e-01	-19.0278	-137.260461	0.000081	0.808242	0.273840	0.006453
1527	7.6300e-01	-18.9845	-137.078972	0.000455	4.546359	1.540348	0.036298
1528	7.6350e-01	-18.9412	-136.990244	0.000222	2.222665	0.753059	0.017746
1529	7.6400e-01	-18.9027	-136.905549	0.000212	2.121634	0.718829	0.016939
1530	7.6450e-01	-18.8545	-136.832953	0.000182	1.818544	0.616139	0.014519
1531	7.6500e-01	-18.8321	-136.768423	0.000162	1.616483	0.547679	0.012906
1532	7.6550e-01	-18.7920	-136.599033	0.000424	4.243269	1.437658	0.033878
1533	7.6600e-01	-18.7519	-136.486106	0.000283	2.828846	0.958439	0.022585
1534	7.6650e-01	-18.7134	-136.397378	0.000222	2.222665	0.753059	0.017746
1535	7.6700e-01	-18.6765	-136.276385	0.000303	3.030906	1.026899	0.024199
1536	7.6750e-01	-18.6203	-136.179591	0.000242	2.424725	0.821519	0.019359
1537	7.6800e-01	-18.5818	-136.034399	0.000364	3.637088	1.232279	0.029038
1538	7.6850e-01	-18.5513	-135.877108	0.000394	3.940178	1.334969	0.031458
1539	7.6900e-01	-18.5064	-135.735950	0.000354	3.536057	1.198049	0.028232
1540	7.6950e-01	-18.4695	-135.675454	0.000152	1.515453	0.513449	0.012099
1541	7.7000e-01	-18.4214	-135.502030	0.000434	4.344299	1.471888	0.034685
1542	7.7050e-01	-18.3829	-135.368938	0.000333	3.333997	1.129589	0.026618
1543	7.7100e-01	-18.3412	-135.320541	0.000121	1.212363	0.410760	0.009679
1544	7.7150e-01	-18.3011	-135.135018	0.000465	4.647390	1.574578	0.037105
1545	7.7200e-01	-18.2658	-134.977727	0.000394	3.940178	1.334969	0.031458
1546	7.7250e-01	-18.2193	-134.856735	0.000303	3.030906	1.026899	0.024199
1547	7.7300e-01	-18.1872	-134.743808	0.000283	2.828846	0.958439	0.022585
1548	7.7350e-01	-18.1503	-134.630881	0.000283	2.828846	0.958439	0.022585
1549	7.7400e-01	-18.1054	-134.465524	0.000414	4.142239	1.403428	0.033071
1550	7.7450e-01	-18.0717	-134.332432	0.000333	3.333997	1.129589	0.026618
1551	7.7500e-01	-18.0236	-134.211439	0.000303	3.030906	1.026899	0.024199
1552	7.7550e-01	-17.9818	-134.054148	0.000394	3.940178	1.334969	0.031458
1553	7.7600e-01	-17.9530	-133.868625	0.000465	4.647390	1.574578	0.037105
1554	7.7650e-01	-17.9000	-133.731500	0.000344	3.435027	1.163819	0.027425
1555	7.7700e-01	-17.8679	-133.570176	0.000404	4.041208	1.369198	0.032265
1556	7.7750e-01	-17.8278	-133.449183	0.000303	3.030906	1.026899	0.024199
1557	7.7800e-01	-17.7893	-133.263661	0.000465	4.647390	1.574578	0.037105
1558	7.7850e-01	-17.7396	-133.134601	0.000323	3.232967	1.095359	0.025812
1559	7.7900e-01	-17.7123	-132.953112	0.000455	4.546359	1.540348	0.036298
1560	7.7950e-01	-17.6754	-132.799854	0.000384	3.839148	1.300739	0.030652
1561	7.8000e-01	-17.6321	-132.646596	0.000384	3.839148	1.300739	0.030652
1562	7.8050e-01	-17.5904	-132.578034	0.000172	1.717514	0.581909	0.013713
1563	7.8100e-01	-17.5471	-132.444942	0.000333	3.333997	1.129589	0.026618
1564	7.8150e-01	-17.5102	-132.235220	0.000525	5.253571	1.779958	0.041944
1565	7.8200e-01	-17.4749	-132.142459	0.000232	2.323695	0.787289	0.018552
1566	7.8250e-01	-17.4220	-131.920639	0.000556	5.556662	1.882648	0.044364
1567	7.8300e-01	-17.3835	-131.743182	0.000445	4.445329	1.506118	0.035491
1568	7.8350e-01	-17.3546	-131.646388	0.000242	2.424725	0.821519	0.019359
1569	7.8400e-01	-17.3209	-131.497163	0.000374	3.738118	1.266509	0.029845
1570	7.8450e-01	-17.2696	-131.226946	0.000677	6.769024	2.293407	0.054044
1571	7.8500e-01	-17.2214	-131.170482	0.000141	1.414423	0.479219	0.011293
1572	7.8550e-01	-17.1894	-130.993026	0.000445	4.445329	1.506118	0.035491
1573	7.8600e-01	-17.1509	-130.815570	0.000445	4.445329	1.506118	0.035491
1574	7.8650e-01	-17.0995	-130.678444	0.000344	3.435027	1.163819	0.027425
1575	7.8700e-01	-17.0626	-130.505021	0.000434	4.344299	1.471888	0.034685
1576	7.8750e-01	-17.0257	-130.347730	0.000394	3.940178	1.334969	0.031458
1577	7.8800e-01	-16.9936	-130.210605	0.000344	3.435027	1.163819	0.027425
1578	7.8850e-01	-16.9359	-130.037182	0.000434	4.344299	1.471888	0.034685
1579	7.8900e-01	-16.9102	-129.883924	0.000384	3.839148	1.300739	0.030652
1580	7.8950e-01	-16.8605	-129.738732	0.000364	3.637088	1.232279	0.029038
1581	7.9000e-01	-16.8220	-129.577408	0.000404	4.041208	1.369198	0.032265
1582	7.9050e-01	-16.7883	-129.395919	0.000455	4.546359	1.540348	0.036298
1583	7.9100e-01	-16.7434	-129.186198	0.000525	5.253571	1.779958	0.041944
1584	7.9150e-01	-16.7017	-129.085370	0.000253	2.525755	0.855749	0.020165
1585	7.9200e-01	-16.6680	-128.952278	0.000333	3.333997	1.129589	0.026618
1586	7.9250e-01	-16.6247	-128.778855	0.000434	4.344299	1.471888	0.034685
1587	7.9300e-01	-16.5846	-128.565101	0.000535	5.354601	1.814188	0.042751
1588	7.9350e-01	-16.5396	-128.460240	0.000263	2.626785	0.889979	0.020972
1589	7.9400e-01	-16.5027	-128.238420	0.000556	5.556662	1.882648	0.044364
1590	7.9450e-01	-16.4723	-128.064996	0.000434	4.344299	1.471888	0.034685
1591	7.9500e-01	-16.4177	-127.996434	0.000172	1.717514	0.581909	0.013713
1592	7.9550e-01	-16.3872	-127.746382	0.000626	6.263873	2.122258	0.050010
1593	7.9600e-01	-16.3455	-127.581025	0.000414	4.142239	1.403428	0.033071
1594	7.9650e-01	-16.3086	-127.383403	0.000495	4.950480	1.677268	0.039524
1595	7.9700e-01	-16.2637	-127.234178	0.000374	3.738118	1.266509	0.029845
1596	7.9750e-01	-16.2300	-127.080920	0.000384	3.839148	1.300739	0.030652
1597	7.9800e-01	-16.1771	-126.806670	0.000687	6.870054	2.327637	0.054850
1598	7.9850e-01	-16.1498	-126.717942	0.000222	2.222665	0.753059	0.017746
1599	7.9900e-01	-16.0985	-126.576783	0.000354	3.536057	1.198049	0.028232
1600	7.9950e-01	-16.0696	-126.391261	0.000465	4.647390	1.574578	0.037105
1601	8.0000e-01	-16.0279	-126.217837	0.000434	4.344299	1.471888	0.034685
1602	8.0050e-01	-15.9798	-126.092811	0.000313	3.131937	1.061129	0.025005
1603	8.0100e-01	-15.9477	-125.955686	0.000344	3.435027	1.163819	0.027425
1604	8.0150e-01	-15.9076	-125.725799	0.000576	5.758722	1.951108	0.045977
1605	8.0200e-01	-15.8627	-125.540277	0.000465	4.647390	1.574578	0.037105
1606	8.0250e-01	-15.8258	-125.439449	0.000253	2.525755	0.855749	0.020165
1607	8.0300e-01	-15.7840	-125.205530	0.000586	5.859752	1.985338	0.046784
1608	8.0350e-01	-15.7568	-125.044206	0.000404	4.041208	1.369198	0.032265
1609	8.0400e-01	-15.6990	-124.810286	0.000586	5.859752	1.985338	0.046784
1610	8.0450e-01	-15.6653	-124.709458	0.000253	2.525755	0.855749	0.020165
1611	8.0500e-01	-15.6124	-124.532002	0.000445	4.445329	1.506118	0.035491
1612	8.0550e-01	-15.5851	-124.370678	0.000404	4.041208	1.369198	0.032265
1613	8.0600e-01	-15.5643	-124.237586	0.000333	3.333997	1.129589	0.026618
1614	8.0650e-01	-15.5081	-124.023832	0.000535	5.354601	1.814188	0.042751
1615	8.0700e-01	-15.4616	-123.818144	0.000515	5.152541	1.745728	0.041138
1616	8.0750e-01	-15.4279	-123.648753	0.000424	4.243269	1.437658	0.033878
1617	8.0800e-01	-15.3830	-123.455165	0.000485	4.849450	1.643038	0.038718
1618	8.0850e-01	-15.3397	-123.285775	0.000424	4.243269	1.437658	0.033878
1619	8.0900e-01	-15.3060	-123.096219	0.000475	4.748420	1.608808	0.037911
1620	8.0950e-01	-15.2643	-122.926829	0.000424	4.243269	1.437658	0.033878
1621	8.1000e-01	-15.2290	-122.733240	0.000485	4.849450	1.643038	0.038718
1622	8.1050e-01	-15.1857	-122.575949	0.000394	3.940178	1.334969	0.031458
1623	8.1100e-01	-15.1424	-122.418658	0.000394	3.940178	1.334969	0.031458
1624	8.1150e-01	-15.1055	-122.277500	0.000354	3.536057	1.198049	0.028232
1625	8.1200e-01	-15.0718	-122.091977	0.000465	4.647390	1.574578	0.037105
1626	8.1250e-01	-15.0188	-121.858058	0.000586	5.859752	1.985338	0.046784
1627	8.1300e-01	-14.9883	-121.704800	0.000384	3.839148	1.300739	0.030652
1628	8.1350e-01	-14.9434	-121.527344	0.000445	4.445329	1.506118	0.035491
1629	8.1400e-01	-14.9049	-121.329722	0.000495	4.950480	1.677268	0.039524
1630	8.1450e-01	-14.8632	-121.111934	0.000546	5.455631	1.848418	0.043557
1631	8.1500e-01	-14.8279	-120.962710	0.000374	3.738118	1.266509	0.029845
1632	8.1550e-01	-14.7782	-120.833651	0.000323	3.232967	1.095359	0.025812
1633	8.1600e-01	-14.7445	-120.607797	0.000566	5.657692	1.916878	0.045171
1634	8.1650e-01	-14.7028	-120.406142	0.000505	5.051511	1.711498	0.040331
1635	8.1700e-01	-14.6627	-120.289182	0.000293	2.929876	0.992669	0.023392
1636	8.1750e-01	-14.6242	-120.131892	0.000394	3.940178	1.334969	0.031458
1637	8.1800e-01	-14.5809	-119.893939	0.000596	5.960782	2.019568	0.047591
1638	8.1850e-01	-14.5488	-119.700350	0.000485	4.849450	1.643038	0.038718
1639	8.1900e-01	-14.5023	-119.518861	0.000455	4.546359	1.540348	0.036298
1640	8.1950e-01	-14.4590	-119.361570	0.000394	3.940178	1.334969	0.031458
1641	8.2000e-01	-14.4253	-119.163948	0.000495	4.950480	1.677268	0.039524
1642	8.2050e-01	-14.3819	-119.059087	0.000263	2.626785	0.889979	0.020972
1643	8.2100e-01	-14.3450	-118.780803	0.000697	6.971085	2.361867	0.055657
1644	8.2150e-01	-14.2985	-118.631579	0.000374	3.738118	1.266509	0.029845
1645	8.2200e-01	-14.2713	-118.458156	0.000434	4.344299	1.471888	0.034685
1646	8.2250e-01	-14.2215	-118.312964	0.000364	3.637088	1.232279	0.029038
1647	8.2300e-01	-14.1878	-118.103243	0.000525	5.253571	1.779958	0.041944
1648	8.2350e-01	-14.1509	-117.982250	0.000303	3.030906	1.026899	0.024199
1649	8.2400e-01	-14.1012	-117.687834	0.000738	7.375205	2.498787	0.058883
1650	8.2450e-01	-14.0643	-117.502311	0.000465	4.647390	1.574578	0.037105
1651	8.2500e-01	-14.0242	-117.361153	0.000354	3.536057	1.198049	0.028232
1652	8.2550e-01	-13.9809	-117.171597	0.000475	4.748420	1.608808	0.037911
1653	8.2600e-01	-13.9424	-116.990108	0.000455	4.546359	1.540348	0.036298
1654	8.2650e-01	-13.9119	-116.788453	0.000505	5.051511	1.711498	0.040331
1655	8.2700e-01	-13.8718	-116.542434	0.000616	6.162843	2.088028	0.049204
1656	8.2750e-01	-13.8221	-116.421441	0.000303	3.030906	1.026899	0.024199
1657	8.2800e-01	-13.7788	-116.227852	0.000485	4.849450	1.643038	0.038718
1658	8.2850e-01	-13.7451	-115.997965	0.000576	5.758722	1.951108	0.045977
1659	8.2900e-01	-13.7050	-115.872939	0.000313	3.131937	1.061129	0.025005
1660	8.2950e-01	-13.6536	-115.675318	0.000495	4.950480	1.677268	0.039524
1661	8.3000e-01	-13.6215	-115.429299	0.000616	6.162843	2.088028	0.049204
1662	8.3050e-01	-13.5830	-115.280074	0.000374	3.738118	1.266509	0.029845
1663	8.3100e-01	-13.5413	-115.126816	0.000384	3.839148	1.300739	0.030652
1664	8.3150e-01	-13.5028	-114.917095	0.000525	5.253571	1.779958	0.041944
1665	8.3200e-01	-13.4707	-114.719473	0.000495	4.950480	1.677268	0.039524
1666	8.3250e-01	-13.4258	-114.481520	0.000596	5.960782	2.019568	0.047591
1667	8.3300e-01	-13.3713	-114.324230	0.000394	3.940178	1.334969	0.031458
1668	8.3350e-01	-13.3424	-114.114508	0.000525	5.253571	1.779958	0.041944
1669	8.3400e-01	-13.3055	-113.920920	0.000485	4.849450	1.643038	0.038718
1670	8.3450e-01	-13.2718	-113.759596	0.000404	4.041208	1.369198	0.032265
1671	8.3500e-01	-13.2173	-113.586172	0.000434	4.344299	1.471888	0.034685
1672	8.3550e-01	-13.1820	-113.392584	0.000485	4.849450	1.643038	0.038718
1673	8.3600e-01	-13.1499	-113.142532	0.000626	6.263873	2.122258	0.050010
1674	8.3650e-01	-13.1002	-112.969108	0.000434	4.344299	1.471888	0.034685
1675	8.3700e-01	-13.0665	-112.811818	0.000394	3.940178	1.334969	0.031458
1676	8.3750e-01	-13.0264	-112.561765	0.000626	6.263873	2.122258	0.050010
1677	8.3800e-01	-12.9863	-112.412541	0.000374	3.738118	1.266509	0.029845
1678	8.3850e-01	-12.9494	-112.235084	0.000445	4.445329	1.506118	0.035491
1679	8.3900e-01	-12.8996	-112.021330	0.000535	5.354601	1.814188	0.042751
1680	8.3950e-01	-12.8563	-111.864039	0.000394	3.940178	1.334969	0.031458
1681	8.4000e-01	-12.8210	-111.674484	0.000475	4.748420	1.608808	0.037911
1682	8.4050e-01	-12.7761	-111.448630	0.000566	5.657692	1.916878	0.045171
1683	8.4100e-01	-12.7440	-111.251008	0.000495	4.950480	1.677268	0.039524
1684	8.4150e-01	-12.6927	-111.033221	0.000546	5.455631	1.848418	0.043557
1685	8.4200e-01	-12.6718	-110.827533	0.000515	5.152541	1.745728	0.041138
1686	8.4250e-01	-12.6301	-110.662176	0.000414	4.142239	1.403428	0.033071
1687	8.4300e-01	-12.5788	-110.521018	0.000354	3.536057	1.198049	0.028232
1688	8.4350e-01	-12.5499	-110.303230	0.000546	5.455631	1.848418	0.043557
1689	8.4400e-01	-12.5098	-110.089476	0.000535	5.354601	1.814188	0.042751
1690	8.4450e-01	-12.4537	-109.883788	0.000515	5.152541	1.745728	0.041138
1691	8.4500e-01	-12.4312	-109.661968	0.000556	5.556662	1.882648	0.044364
1692	8.4550e-01	-12.3863	-109.524842	0.000344	3.435027	1.163819	0.027425
1693	8.4600e-01	-12.3510	-109.335287	0.000475	4.748420	1.608808	0.037911
1694	8.4650e-01	-12.3093	-109.073135	0.000657	6.566964	2.224948	0.052430
1695	8.4700e-01	-12.2644	-108.847282	0.000566	5.657692	1.916878	0.045171
1696	8.4750e-01	-12.2243	-108.689991	0.000394	3.940178	1.334969	0.031458
1697	8.4800e-01	-12.1841	-108.710156	-0.000051	-0.505151	-0.171150	-0.004033
1698	8.4850e-01	-12.1424	-108.306846	0.001010	10.103021	3.422996	0.080662
1699	8.4900e-01	-12.1055	-108.097125	0.000525	5.253571	1.779958	0.041944
1700	8.4950e-01	-12.0590	-107.851106	0.000616	6.162843	2.088028	0.049204
1701	8.5000e-01	-12.0189	-107.693815	0.000394	3.940178	1.334969	0.031458
1702	8.5050e-01	-11.9788	-107.492160	0.000505	5.051511	1.711498	0.040331
1703	8.5100e-01	-11.9451	-107.258241	0.000586	5.859752	1.985338	0.046784
1704	8.5150e-01	-11.8922	-107.113049	0.000364	3.637088	1.232279	0.029038
1705	8.5200e-01	-11.8633	-106.911394	0.000505	5.051511	1.711498	0.040331
1706	8.5250e-01	-11.8200	-106.665375	0.000616	6.162843	2.088028	0.049204
1707	8.5300e-01	-11.7831	-106.512118	0.000384	3.839148	1.300739	0.030652
1708	8.5350e-01	-11.7462	-106.241900	0.000677	6.769024	2.293407	0.054044
1709	8.5400e-01	-11.7061	-106.032179	0.000525	5.253571	1.779958	0.041944
1710	8.5450e-01	-11.6628	-105.850689	0.000455	4.546359	1.540348	0.036298
1711	8.5500e-01	-11.6291	-105.616770	0.000586	5.859752	1.985338	0.046784
1712	8.5550e-01	-11.5761	-105.467545	0.000374	3.738118	1.266509	0.029845
1713	8.5600e-01	-11.5425	-105.269923	0.000495	4.950480	1.677268	0.039524
1714	8.5650e-01	-11.5023	-105.080368	0.000475	4.748420	1.608808	0.037911
1715	8.5700e-01	-11.4655	-104.890812	0.000475	4.748420	1.608808	0.037911
1716	8.5750e-01	-11.4270	-104.673025	0.000546	5.455631	1.848418	0.043557
1717	8.5800e-01	-11.3933	-104.463303	0.000525	5.253571	1.779958	0.041944
1718	8.5850e-01	-11.3307	-104.189053	0.000687	6.870054	2.327637	0.054850
1719	8.5900e-01	-11.2986	-104.003530	0.000465	4.647390	1.574578	0.037105
1720	8.5950e-01	-11.2633	-103.781710	0.000556	5.556662	1.882648	0.044364
1721	8.6000e-01	-11.2248	-103.616353	0.000414	4.142239	1.403428	0.033071
1722	8.6050e-01	-11.1735	-103.354201	0.000657	6.566964	2.224948	0.052430
1723	8.6100e-01	-11.1510	-103.180778	0.000434	4.344299	1.471888	0.034685
1724	8.6150e-01	-11.0965	-102.987189	0.000485	4.849450	1.643038	0.038718
1725	8.6200e-01	-11.0628	-102.749237	0.000596	5.960782	2.019568	0.047591
1726	8.6250e-01	-11.0066	-102.616144	0.000333	3.333997	1.129589	0.026618
1727	8.6300e-01	-10.9810	-102.414489	0.000505	5.051511	1.711498	0.040331
1728	8.6350e-01	-10.9409	-102.164437	0.000626	6.263873	2.122258	0.050010
1729	8.6400e-01	-10.9104	-102.007146	0.000394	3.940178	1.334969	0.031458
1730	8.6450e-01	-10.8591	-101.680465	0.000818	8.183447	2.772627	0.065336
1731	8.6500e-01	-10.8270	-101.494943	0.000465	4.647390	1.574578	0.037105
1732	8.6550e-01	-10.7740	-101.353784	0.000354	3.536057	1.198049	0.028232
1733	8.6600e-01	-10.7435	-101.071468	0.000707	7.072115	2.396097	0.056463
1734	8.6650e-01	-10.7099	-100.817382	0.000636	6.364903	2.156488	0.050817
1735	8.6700e-01	-10.6569	-100.647992	0.000424	4.243269	1.437658	0.033878
1736	8.6750e-01	-10.6200	-100.458437	0.000475	4.748420	1.608808	0.037911
1737	8.6800e-01	-10.5831	-100.216451	0.000606	6.061813	2.053798	0.048397
1738	8.6850e-01	-10.5302	-100.018829	0.000495	4.950480	1.677268	0.039524
1739	8.6900e-01	-10.4997	-99.849439	0.000424	4.243269	1.437658	0.033878
1740	8.6950e-01	-10.4628	-99.587287	0.000657	6.566964	2.224948	0.052430
1741	8.7000e-01	-10.4211	-99.389665	0.000495	4.950480	1.677268	0.039524
1742	8.7050e-01	-10.3698	-99.204143	0.000465	4.647390	1.574578	0.037105
1743	8.7100e-01	-10.3441	-98.962157	0.000606	6.061813	2.053798	0.048397
1744	8.7150e-01	-10.3008	-98.768568	0.000485	4.849450	1.643038	0.038718
1745	8.7200e-01	-10.2607	-98.526582	0.000606	6.061813	2.053798	0.048397
1746	8.7250e-01	-10.2238	-98.312828	0.000535	5.354601	1.814188	0.042751
1747	8.7300e-01	-10.1885	-98.078908	0.000586	5.859752	1.985338	0.046784
1748	8.7350e-01	-10.1468	-97.921618	0.000394	3.940178	1.334969	0.031458
1749	8.7400e-01	-10.1083	-97.691731	0.000576	5.758722	1.951108	0.045977
1750	8.7450e-01	-10.0601	-97.469910	0.000556	5.556662	1.882648	0.044364
1751	8.7500e-01	-10.0200	-97.240024	0.000576	5.758722	1.951108	0.045977
1752	8.7550e-01	-9.9767	-97.030303	0.000525	5.253571	1.779958	0.041944
1753	8.7600e-01	-9.9398	-96.792350	0.000596	5.960782	2.019568	0.047591
1754	8.7650e-01	-9.8981	-96.594728	0.000495	4.950480	1.677268	0.039524
1755	8.7700e-01	-9.8644	-96.429371	0.000414	4.142239	1.403428	0.033071
1756	8.7750e-01	-9.8211	-96.159153	0.000677	6.769024	2.293407	0.054044
1757	8.7800e-01	-9.7826	-95.941366	0.000546	5.455631	1.848418	0.043557
1758	8.7850e-01	-9.7489	-95.703413	0.000596	5.960782	2.019568	0.047591
1759	8.7900e-01	-9.7072	-95.457394	0.000616	6.162843	2.088028	0.049204
1760	8.7950e-01	-9.6543	-95.247673	0.000525	5.253571	1.779958	0.041944
1761	8.8000e-01	-9.6222	-95.013753	0.000586	5.859752	1.985338	0.046784
1762	8.8050e-01	-9.5789	-94.844363	0.000424	4.243269	1.437658	0.033878
1763	8.8100e-01	-9.5372	-94.670940	0.000434	4.344299	1.471888	0.034685
1764	8.8150e-01	-9.4955	-94.408789	0.000657	6.566964	2.224948	0.052430
1765	8.8200e-01	-9.4521	-94.199068	0.000525	5.253571	1.779958	0.041944
1766	8.8250e-01	-9.4297	-93.880453	0.000798	7.981387	2.704167	0.063723
1767	8.8300e-01	-9.3848	-93.747360	0.000333	3.333997	1.129589	0.026618
1768	8.8350e-01	-9.3447	-93.529573	0.000546	5.455631	1.848418	0.043557
1769	8.8400e-01	-9.3078	-93.287587	0.000606	6.061813	2.053798	0.048397
1770	8.8450e-01	-9.2644	-92.993171	0.000738	7.375205	2.498787	0.058883
1771	8.8500e-01	-9.2259	-92.860079	0.000333	3.333997	1.129589	0.026618
1772	8.8550e-01	-9.1874	-92.605994	0.000636	6.364903	2.156488	0.050817
1773	8.8600e-01	-9.1361	-92.424504	0.000455	4.546359	1.540348	0.036298
1774	8.8650e-01	-9.1024	-92.214783	0.000525	5.253571	1.779958	0.041944
1775	8.8700e-01	-9.0575	-91.908267	0.000768	7.678296	2.601477	0.061303
1776	8.8750e-01	-9.0270	-91.690480	0.000546	5.455631	1.848418	0.043557
1777	8.8800e-01	-8.9709	-91.468660	0.000556	5.556662	1.882648	0.044364
1778	8.8850e-01	-8.9388	-91.242806	0.000566	5.657692	1.916878	0.045171
1779	8.8900e-01	-8.9067	-90.988721	0.000636	6.364903	2.156488	0.050817
1780	8.8950e-01	-8.8570	-90.795132	0.000485	4.849450	1.643038	0.038718
1781	8.9000e-01	-8.8137	-90.516848	0.000697	6.971085	2.361867	0.055657
1782	8.9050e-01	-8.7848	-90.351491	0.000414	4.142239	1.403428	0.033071
1783	8.9100e-01	-8.7447	-90.137737	0.000535	5.354601	1.814188	0.042751
1784	8.9150e-01	-8.6965	-89.895751	0.000606	6.061813	2.053798	0.048397
1785	8.9200e-01	-8.6596	-89.601335	0.000738	7.375205	2.498787	0.058883
1786	8.9250e-01	-8.6195	-89.403713	0.000495	4.950480	1.677268	0.039524
1787	8.9300e-01	-8.5907	-89.198025	0.000515	5.152541	1.745728	0.041138
1788	8.9350e-01	-8.5409	-88.996370	0.000505	5.051511	1.711498	0.040331
1789	8.9400e-01	-8.5105	-88.734219	0.000657	6.566964	2.224948	0.052430
1790	8.9450e-01	-8.4736	-88.492233	0.000606	6.061813	2.053798	0.048397
1791	8.9500e-01	-8.4206	-88.262346	0.000576	5.758722	1.951108	0.045977
1792	8.9550e-01	-8.3869	-88.060691	0.000505	5.051511	1.711498	0.040331
1793	8.9600e-01	-8.3356	-87.814672	0.000616	6.162843	2.088028	0.049204
1794	8.9650e-01	-8.3003	-87.576720	0.000596	5.960782	2.019568	0.047591
1795	8.9700e-01	-8.2522	-87.419429	0.000394	3.940178	1.334969	0.031458
1796	8.9750e-01	-8.2185	-87.165344	0.000636	6.364903	2.156488	0.050817
1797	8.9800e-01	-8.1880	-86.911258	0.000636	6.364903	2.156488	0.050817
1798	8.9850e-01	-8.1495	-86.564412	0.000869	8.688598	2.943777	0.069369
1799	8.9900e-01	-8.1190	-86.286128	0.000697	6.971085	2.361867	0.055657
1800	8.9950e-01	-8.0597	-86.157069	0.000323	3.232967	1.095359	0.025812
1801	9.0000e-01	-8.0164	-85.955414	0.000505	5.051511	1.711498	0.040331
1802	9.0050e-01	-7.9730	-85.644865	0.000778	7.779326	2.635707	0.062110
1803	9.0100e-01	-7.9377	-85.491608	0.000384	3.839148	1.300739	0.030652
1804	9.0150e-01	-7.8928	-85.181059	0.000778	7.779326	2.635707	0.062110
1805	9.0200e-01	-7.8688	-84.991503	0.000475	4.748420	1.608808	0.037911
1806	9.0250e-01	-7.8287	-84.793882	0.000495	4.950480	1.677268	0.039524
1807	9.0300e-01	-7.7805	-84.555929	0.000596	5.960782	2.019568	0.047591
1808	9.0350e-01	-7.7420	-84.338141	0.000546	5.455631	1.848418	0.043557
1809	9.0400e-01	-7.7067	-84.047758	0.000727	7.274175	2.464557	0.058077
1810	9.0450e-01	-7.6554	-83.846103	0.000505	5.051511	1.711498	0.040331
1811	9.0500e-01	-7.6169	-83.571853	0.000687	6.870054	2.327637	0.054850
1812	9.0550e-01	-7.5768	-83.313734	0.000647	6.465933	2.190718	0.051624
1813	9.0600e-01	-7.5367	-83.083848	0.000576	5.758722	1.951108	0.045977
1814	9.0650e-01	-7.5030	-82.813630	0.000677	6.769024	2.293407	0.054044
1815	9.0700e-01	-7.4581	-82.628108	0.000465	4.647390	1.574578	0.037105
1816	9.0750e-01	-7.4276	-82.374022	0.000636	6.364903	2.156488	0.050817
1817	9.0800e-01	-7.3843	-82.119937	0.000636	6.364903	2.156488	0.050817
1818	9.0850e-01	-7.3442	-81.833587	0.000717	7.173145	2.430327	0.057270
1819	9.0900e-01	-7.2961	-81.652098	0.000455	4.546359	1.540348	0.036298
1820	9.0950e-01	-7.2575	-81.406079	0.000616	6.162843	2.088028	0.049204
1821	9.1000e-01	-7.2239	-81.123762	0.000707	7.072115	2.396097	0.056463
1822	9.1050e-01	-7.1918	-80.877743	0.000616	6.162843	2.088028	0.049204
1823	9.1100e-01	-7.1453	-80.643823	0.000586	5.859752	1.985338	0.046784
1824	9.1150e-01	-7.1019	-80.458301	0.000465	4.647390	1.574578	0.037105
1825	9.1200e-01	-7.0618	-80.175984	0.000707	7.072115	2.396097	0.056463
1826	9.1250e-01	-7.0265	-79.950130	0.000566	5.657692	1.916878	0.045171
1827	9.1300e-01	-6.9880	-79.720244	0.000576	5.758722	1.951108	0.045977
1828	9.1350e-01	-6.9527	-79.441960	0.000697	6.971085	2.361867	0.055657
1829	9.1400e-01	-6.8982	-79.212073	0.000576	5.758722	1.951108	0.045977
1830	9.1450e-01	-6.8613	-78.966054	0.000616	6.162843	2.088028	0.049204
1831	9.1500e-01	-6.8228	-78.736167	0.000576	5.758722	1.951108	0.045977
1832	9.1550e-01	-6.7939	-78.482082	0.000636	6.364903	2.156488	0.050817
1833	9.1600e-01	-6.7394	-78.018276	0.001162	11.618474	3.936446	0.092761
1834	9.1650e-01	-6.7025	-77.836786	0.000455	4.546359	1.540348	0.036298
1835	9.1700e-01	-6.6608	-77.711760	0.000313	3.131937	1.061129	0.025005
1836	9.1750e-01	-6.6303	-77.485907	0.000566	5.657692	1.916878	0.045171
1837	9.1800e-01	-6.5902	-77.223755	0.000657	6.566964	2.224948	0.052430
1838	9.1850e-01	-6.5405	-76.973703	0.000626	6.263873	2.122258	0.050010
1839	9.1900e-01	-6.5020	-76.659122	0.000788	7.880356	2.669937	0.062916
1840	9.1950e-01	-6.4635	-76.388904	0.000677	6.769024	2.293407	0.054044
1841	9.2000e-01	-6.4282	-76.167084	0.000556	5.556662	1.882648	0.044364
1842	9.2050e-01	-6.3897	-75.981561	0.000465	4.647390	1.574578	0.037105
1843	9.2100e-01	-6.3479	-75.771840	0.000525	5.253571	1.779958	0.041944
1844	9.2150e-01	-6.3078	-75.461291	0.000778	7.779326	2.635707	0.062110
1845	9.2200e-01	-6.2629	-75.178974	0.000707	7.072115	2.396097	0.056463
1846	9.2250e-01	-6.2164	-74.957154	0.000556	5.556662	1.882648	0.044364
1847	9.2300e-01	-6.1907	-74.719201	0.000596	5.960782	2.019568	0.047591
1848	9.2350e-01	-6.1410	-74.489315	0.000576	5.758722	1.951108	0.045977
1849	9.2400e-01	-6.1041	-74.202965	0.000717	7.173145	2.430327	0.057270
1850	9.2450e-01	-6.0624	-73.920648	0.000707	7.072115	2.396097	0.056463
1851	9.2500e-01	-6.0287	-73.714960	0.000515	5.152541	1.745728	0.041138
1852	9.2550e-01	-5.9854	-73.404411	0.000778	7.779326	2.635707	0.062110
1853	9.2600e-01	-5.9437	-73.142260	0.000657	6.566964	2.224948	0.052430
1854	9.2650e-01	-5.9036	-72.872042	0.000677	6.769024	2.293407	0.054044
1855	9.2700e-01	-5.8635	-72.738950	0.000333	3.333997	1.129589	0.026618
1856	9.2750e-01	-5.8314	-72.363872	0.000940	9.395810	3.183386	0.075016
1857	9.2800e-01	-5.7817	-72.150117	0.000535	5.354601	1.814188	0.042751
1858	9.2850e-01	-5.7383	-71.896032	0.000636	6.364903	2.156488	0.050817
1859	9.2900e-01	-5.7079	-71.654046	0.000606	6.061813	2.053798	0.048397
1860	9.2950e-01	-5.6613	-71.347531	0.000768	7.678296	2.601477	0.061303
1861	9.3000e-01	-5.6260	-71.089413	0.000647	6.465933	2.190718	0.051624
1862	9.3050e-01	-5.5891	-70.867592	0.000556	5.556662	1.882648	0.044364
1863	9.3100e-01	-5.5474	-70.496547	0.000929	9.294779	3.149157	0.074209
1864	9.3150e-01	-5.5041	-70.282793	0.000535	5.354601	1.814188	0.042751
1865	9.3200e-01	-5.4624	-69.968211	0.000788	7.880356	2.669937	0.062916
1866	9.3250e-01	-5.4287	-69.778655	0.000475	4.748420	1.608808	0.037911
1867	9.3300e-01	-5.3854	-69.564901	0.000535	5.354601	1.814188	0.042751
1868	9.3350e-01	-5.3421	-69.282584	0.000707	7.072115	2.396097	0.056463
1869	9.3400e-01	-5.3084	-68.980102	0.000758	7.577266	2.567247	0.060496
1870	9.3450e-01	-5.2587	-68.750215	0.000576	5.758722	1.951108	0.045977
1871	9.3500e-01	-5.2266	-68.520329	0.000576	5.758722	1.951108	0.045977
1872	9.3550e-01	-5.1913	-68.141217	0.000950	9.496840	3.217616	0.075822
1873	9.3600e-01	-5.1480	-67.907298	0.000586	5.859752	1.985338	0.046784
1874	9.3650e-01	-5.1079	-67.596749	0.000778	7.779326	2.635707	0.062110
1875	9.3700e-01	-5.0710	-67.435425	0.000404	4.041208	1.369198	0.032265
1876	9.3750e-01	-5.0277	-67.153108	0.000707	7.072115	2.396097	0.056463
1877	9.3800e-01	-4.9860	-66.874824	0.000697	6.971085	2.361867	0.055657
1878	9.3850e-01	-4.9378	-66.600574	0.000687	6.870054	2.327637	0.054850
1879	9.3900e-01	-4.9073	-66.346489	0.000636	6.364903	2.156488	0.050817
1880	9.3950e-01	-4.8624	-66.088370	0.000647	6.465933	2.190718	0.051624
1881	9.4000e-01	-4.8207	-65.802020	0.000717	7.173145	2.430327	0.057270
1882	9.4050e-01	-4.7918	-65.507604	0.000738	7.375205	2.498787	0.058883
1883	9.4100e-01	-4.7469	-65.309982	0.000495	4.950480	1.677268	0.039524
1884	9.4150e-01	-4.6908	-65.003467	0.000768	7.678296	2.601477	0.061303
1885	9.4200e-01	-4.6683	-64.749382	0.000636	6.364903	2.156488	0.050817
1886	9.4250e-01	-4.6170	-64.426734	0.000808	8.082417	2.738397	0.064530
1887	9.4300e-01	-4.5849	-64.188781	0.000596	5.960782	2.019568	0.047591
1888	9.4350e-01	-4.5480	-63.894365	0.000738	7.375205	2.498787	0.058883
1889	9.4400e-01	-4.4951	-63.640279	0.000636	6.364903	2.156488	0.050817
1890	9.4450e-01	-4.4550	-63.370062	0.000677	6.769024	2.293407	0.054044
1891	9.4500e-01	-4.4293	-63.095811	0.000687	6.870054	2.327637	0.054850
1892	9.4550e-01	-4.3796	-62.797362	0.000748	7.476236	2.533017	0.059690
1893	9.4600e-01	-4.3443	-62.539243	0.000647	6.465933	2.190718	0.051624
1894	9.4650e-01	-4.3074	-62.252893	0.000717	7.173145	2.430327	0.057270
1895	9.4700e-01	-4.2608	-61.990742	0.000657	6.566964	2.224948	0.052430
1896	9.4750e-01	-4.2272	-61.688260	0.000758	7.577266	2.567247	0.060496
1897	9.4800e-01	-4.1838	-61.462406	0.000566	5.657692	1.916878	0.045171
1898	9.4850e-01	-4.1437	-61.139758	0.000808	8.082417	2.738397	0.064530
1899	9.4900e-01	-4.0988	-60.809044	0.000828	8.284477	2.806857	0.066143
1900	9.4950e-01	-4.0619	-60.587224	0.000556	5.556662	1.882648	0.044364
1901	9.5000e-01	-4.0202	-60.296841	0.000727	7.274175	2.464557	0.058077
1902	9.5050e-01	-3.9753	-60.058888	0.000596	5.960782	2.019568	0.047591
1903	9.5100e-01	-3.9416	-59.772538	0.000717	7.173145	2.430327	0.057270
1904	9.5150e-01	-3.9111	-59.385360	0.000970	9.698900	3.286076	0.077435
1905	9.5200e-01	-3.8662	-59.175639	0.000525	5.253571	1.779958	0.041944
1906	9.5250e-01	-3.8213	-58.921554	0.000636	6.364903	2.156488	0.050817
1907	9.5300e-01	-3.7908	-58.655370	0.000667	6.667994	2.259177	0.053237
1908	9.5350e-01	-3.7459	-58.268192	0.000970	9.698900	3.286076	0.077435
1909	9.5400e-01	-3.6945	-58.062504	0.000515	5.152541	1.745728	0.041138
1910	9.5450e-01	-3.6657	-57.739856	0.000808	8.082417	2.738397	0.064530
1911	9.5500e-01	-3.6272	-57.429308	0.000778	7.779326	2.635707	0.062110
1912	9.5550e-01	-3.5887	-57.122792	0.000768	7.678296	2.601477	0.061303
1913	9.5600e-01	-3.5421	-56.905005	0.000546	5.455631	1.848418	0.043557
1914	9.5650e-01	-3.4972	-56.570258	0.000839	8.385507	2.841087	0.066949
1915	9.5700e-01	-3.4619	-56.316172	0.000636	6.364903	2.156488	0.050817
1916	9.5750e-01	-3.4170	-56.021756	0.000738	7.375205	2.498787	0.058883
1917	9.5800e-01	-3.3833	-55.691042	0.000828	8.284477	2.806857	0.066143
1918	9.5850e-01	-3.3464	-55.453089	0.000596	5.960782	2.019568	0.047591
1919	9.5900e-01	-3.3063	-55.146574	0.000768	7.678296	2.601477	0.061303
1920	9.5950e-01	-3.2598	-54.888455	0.000647	6.465933	2.190718	0.051624
1921	9.6000e-01	-3.2277	-54.513377	0.000940	9.395810	3.183386	0.075016
1922	9.6050e-01	-3.1844	-54.279458	0.000586	5.859752	1.985338	0.046784
1923	9.6100e-01	-3.1315	-53.989074	0.000727	7.274175	2.464557	0.058077
1924	9.6150e-01	-3.0978	-53.690625	0.000748	7.476236	2.533017	0.059690
1925	9.6200e-01	-3.0657	-53.367977	0.000808	8.082417	2.738397	0.064530
1926	9.6250e-01	-3.0304	-53.117925	0.000626	6.263873	2.122258	0.050010
1927	9.6300e-01	-2.9839	-52.730748	0.000970	9.698900	3.286076	0.077435
1928	9.6350e-01	-2.9470	-52.488762	0.000606	6.061813	2.053798	0.048397
1929	9.6400e-01	-2.9053	-52.182246	0.000768	7.678296	2.601477	0.061303
1930	9.6450e-01	-2.8587	-51.903962	0.000697	6.971085	2.361867	0.055657
1931	9.6500e-01	-2.8315	-51.581315	0.000808	8.082417	2.738397	0.064530
1932	9.6550e-01	-2.7817	-51.258667	0.000808	8.082417	2.738397	0.064530
1933	9.6600e-01	-2.7384	-51.020714	0.000596	5.960782	2.019568	0.047591
1934	9.6650e-01	-2.6999	-50.702099	0.000798	7.981387	2.704167	0.063723
1935	9.6700e-01	-2.6598	-50.443981	0.000647	6.465933	2.190718	0.051624
1936	9.6750e-01	-2.6197	-50.085035	0.000899	8.991689	3.046467	0.071789
1937	9.6800e-01	-2.5844	-49.790619	0.000738	7.375205	2.498787	0.058883
1938	9.6850e-01	-2.5539	-49.524434	0.000667	6.667994	2.259177	0.053237
1939	9.6900e-01	-2.5090	-49.205819	0.000798	7.981387	2.704167	0.063723
1940	9.6950e-01	-2.4609	-48.903337	0.000758	7.577266	2.567247	0.060496
1941	9.7000e-01	-2.4256	-48.556491	0.000869	8.688598	2.943777	0.069369
1942	9.7050e-01	-2.3887	-48.217710	0.000849	8.486538	2.875317	0.067756
1943	9.7100e-01	-2.3422	-47.963625	0.000636	6.364903	2.156488	0.050817
1944	9.7150e-01	-2.3037	-47.673242	0.000727	7.274175	2.464557	0.058077
1945	9.7200e-01	-2.2636	-47.342528	0.000828	8.284477	2.806857	0.066143
1946	9.7250e-01	-2.2203	-47.048112	0.000738	7.375205	2.498787	0.058883
1947	9.7300e-01	-2.1818	-46.733530	0.000788	7.880356	2.669937	0.062916
1948	9.7350e-01	-2.1417	-46.398783	0.000839	8.385507	2.841087	0.066949
1949	9.7400e-01	-2.1080	-46.064036	0.000839	8.385507	2.841087	0.066949
1950	9.7450e-01	-2.0679	-45.789785	0.000687	6.870054	2.327637	0.054850
1951	9.7500e-01	-2.0245	-45.499402	0.000727	7.274175	2.464557	0.058077
1952	9.7550e-01	-1.9844	-45.132390	0.000919	9.193749	3.114927	0.073402
1953	9.7600e-01	-1.9459	-44.789577	0.000859	8.587568	2.909547	0.068563
1954	9.7650e-01	-1.9074	-44.555657	0.000586	5.859752	1.985338	0.046784
1955	9.7700e-01	-1.8641	-44.200744	0.000889	8.890659	3.012237	0.070983
1956	9.7750e-01	-1.8304	-43.861964	0.000849	8.486538	2.875317	0.067756
1957	9.7800e-01	-1.7887	-43.559481	0.000758	7.577266	2.567247	0.060496
1958	9.7850e-01	-1.7438	-43.265065	0.000738	7.375205	2.498787	0.058883
1959	9.7900e-01	-1.7069	-42.877888	0.000970	9.698900	3.286076	0.077435
1960	9.7950e-01	-1.6588	-42.607670	0.000677	6.769024	2.293407	0.054044
1961	9.8000e-01	-1.6251	-42.244691	0.000909	9.092719	3.080697	0.072596
1962	9.8050e-01	-1.5834	-41.962374	0.000707	7.072115	2.396097	0.056463
1963	9.8100e-01	-1.5465	-41.611495	0.000879	8.789628	2.978007	0.070176
1964	9.8150e-01	-1.5032	-41.309012	0.000758	7.577266	2.567247	0.060496
1965	9.8200e-01	-1.4647	-40.970232	0.000849	8.486538	2.875317	0.067756
1966	9.8250e-01	-1.4197	-40.510459	0.001152	11.517444	3.902216	0.091955
1967	9.8300e-01	-1.3877	-40.268473	0.000606	6.061813	2.053798	0.048397
1968	9.8350e-01	-1.3395	-39.982123	0.000717	7.173145	2.430327	0.057270
1969	9.8400e-01	-1.3058	-39.699806	0.000707	7.072115	2.396097	0.056463
1970	9.8450e-01	-1.2577	-39.369092	0.000828	8.284477	2.806857	0.066143
1971	9.8500e-01	-1.2208	-38.981915	0.000970	9.698900	3.286076	0.077435
1972	9.8550e-01	-1.1775	-38.433413	0.001374	13.740109	4.655275	0.109700
1973	9.8600e-01	-1.1406	-38.316453	0.000293	2.929876	0.992669	0.023392
1974	9.8650e-01	-1.1037	-37.969607	0.000869	8.688598	2.943777	0.069369
1975	9.8700e-01	-1.0684	-37.574363	0.000990	9.900961	3.354536	0.079049
1976	9.8750e-01	-1.0235	-37.300112	0.000687	6.870054	2.327637	0.054850
1977	9.8800e-01	-0.9866	-36.985531	0.000788	7.880356	2.669937	0.062916
1978	9.8850e-01	-0.9465	-36.723379	0.000657	6.566964	2.224948	0.052430
1979	9.8900e-01	-0.9048	-36.303937	0.001051	10.507142	3.559916	0.083888
1980	9.8950e-01	-0.8727	-35.997422	0.000768	7.678296	2.601477	0.061303
1981	9.9000e-01	-0.8230	-35.602178	0.000990	9.900961	3.354536	0.079049
1982	9.9050e-01	-0.7877	-35.243232	0.000899	8.991689	3.046467	0.071789
1983	9.9100e-01	-0.7460	-34.912518	0.000828	8.284477	2.806857	0.066143
1984	9.9150e-01	-0.6962	-34.573738	0.000849	8.486538	2.875317	0.067756
1985	9.9200e-01	-0.6625	-34.259156	0.000788	7.880356	2.669937	0.062916
1986	9.9250e-01	-0.6224	-33.900210	0.000899	8.991689	3.046467	0.071789
1987	9.9300e-01	-0.5871	-33.545298	0.000889	8.890659	3.012237	0.070983
1988	9.9350e-01	-0.5503	-33.210550	0.000839	8.385507	2.841087	0.066949
1989	9.9400e-01	-0.4989	-32.803207	0.001020	10.204051	3.457226	0.081469
1990	9.9450e-01	-0.4652	-32.512824	0.000727	7.274175	2.464557	0.058077
1991	9.9500e-01	-0.4219	-32.145812	0.000919	9.193749	3.114927	0.073402
1992	9.9550e-01	-0.3802	-31.831231	0.000788	7.880356	2.669937	0.062916
1993	9.9600e-01	-0.3449	-31.496484	0.000839	8.385507	2.841087	0.066949
1994	9.9650e-01	-0.2856	-31.161736	0.000839	8.385507	2.841087	0.066949
1995	9.9700e-01	-0.2647	-30.818923	0.000859	8.587568	2.909547	0.068563
1996	9.9750e-01	-0.2294	-30.488209	0.000828	8.284477	2.806857	0.066143
1997	9.9800e-01	-0.1797	-30.117164	0.000929	9.294779	3.149157	0.074209
1998	9.9850e-01	-0.1524	-29.762251	0.000889	8.890659	3.012237	0.070983
1999	9.9900e-01	-0.1075	-29.367007	0.000990	9.900961	3.354536	0.079049
2000	9.9950e-01	-0.0690	-29.048393	0.000798	7.981387	2.704167	0.063723
2001	1.0000e+00	-0.0273	-28.681381	0.000798	7.981387	2.704167	0.073402

Center data before PMax,+/-Pr and +/-Vc Calc.

PMax (uC/cm2):	1.38e+02
Pr (uC/cm2):	1.77e+01
-Pr (uC/cm2):	-2.87e+01
PLoss (uC/cm2):	-3.67e+01
-Vc:	-2.02e+00
C (Max-Eff) (nF):	6.90e-01
K (Eff):	2.34e+03
Vert. (+/-Pr) Shift (uC/cm2):	-5.49e+00
Offset (uC/cm2):	-7.95e+00

A (Loop Area - uC/cm2·Volts):	-6.43e-01



Hysteresis Version: 5.48.1 - Radiant Technologies, Inc., 1999 - 9/12/24

