»»»»»»»»»»»»»»»»»»»»»»»»»»»»»»»»»»»» Hysteresis ««««««««««««««««««««««««««««««««««««
»»»  Executed Version:	5.48.1
»»»  Vision Version:	5.48.4 (R)
»»»  Vision Compiled:	9/18/24
»»»  Driver Version:	5.47.0
»»»  Windows Version:	Windows 8 or 8.1
»»»  Processor Information:	x86 (AMD or Intel) - 32 Processors
»»»  Tester Name:	PMF21124-494 (100V)
»»»  Tester S/N:	PMF21124-494
»»»  Internal Amp Type:	100V RevK 270k
»»»  Internal Amp S/N:	iAB2-596/K     
»»»  Execution Count:	1
»»»»»»»»»»»»»»»»»»»»»»»»»»»»»»»»»»»»»»»»»»««««««««««««««««««««««««««««««««««««««««««

Stored:	6/5/2025 - 17:30:29
Configured:	06/05/25 02:51:50 PM
Executed:	06/05/25 05:29:47 PM

»»»»»»»»»»»»»»»»»»»»»»»»»»»»»»»»»»» Sample Info ««««««««««««««««««««««««««««««««««««
Sample Name:	
Lot Name:	
Wafer Name:	
Die Row/Column:	0/0
Capacitor Number:	0
Sample Area (cm2):	1.00e-04
Sample Thickness (microns):	3.00e-01

Amplifier:	Internal

»»»»»»»»»»»»»»»»»»»»»»»»»»»»»»»»»»» Tester Info «««««««««««««««««««««««««««««««««««
Tester Name:	PMF21124-494 (100V)
Tester Serial Number:	PMF21124-494
Return Signal Amp. Level:	0.19 [Index: 3]

»»»»»»»»»»»»»»»»»»»»»»»»»»»»»»»» Hysteresis Info ««««««««««««««««««««««««««««««««««
Task Name:	+
Volts:	20.00
Field:	666.67 (kV/cm)
DCBias:	0.00
DCField:	0.00 (kV/cm)
Hysteresis Period (ms):	2.00e+02
Preset:	Enabled
Preset Delay (ms):	1.00e+03
Profile:	Standard Bipolar

»»»»»»»»»»»»»»»»»»»»»»»»»»»»»»»»»»»»»» Data «««««««««««««««««««««««««««««««««««««««
Points:	2009

Valid Data

Point	Time (ms)	Drive Voltage	Measured Polarization (uC/cm2)	Capacitance (uF)	Normalized Capacitance (uF/cm2)	Dielectric Constant	Instantaneous Current (mA)
   1	0.0000e+00	0.0032	11.501800	0.000517	5.170330	1.751755	0.000207
   2	9.9500e-02	0.0321	11.707694	0.000517	5.170330	1.751755	0.000207
   3	1.9900e-01	0.0770	12.006442	0.000750	7.502047	2.541762	0.000300
   4	2.9850e-01	0.1091	12.329413	0.000811	8.110321	2.747851	0.000325
   5	3.9800e-01	0.1428	12.668532	0.000852	8.515837	2.885244	0.000341
   6	4.9750e-01	0.1813	12.943057	0.000689	6.893773	2.335674	0.000276
   7	5.9700e-01	0.2374	13.274102	0.000831	8.313079	2.816548	0.000333
   8	6.9650e-01	0.2599	13.613222	0.000852	8.515837	2.885244	0.000341
   9	7.9600e-01	0.3112	13.936193	0.000811	8.110321	2.747851	0.000325
  10	8.9550e-01	0.3593	14.279349	0.000862	8.617216	2.919592	0.000345
  11	9.9500e-01	0.3882	14.602320	0.000811	8.110321	2.747851	0.000325
  12	1.0945e+00	0.4347	14.925291	0.000811	8.110321	2.747851	0.000325
  13	1.1940e+00	0.4652	15.244225	0.000801	8.008942	2.713503	0.000321
  14	1.2935e+00	0.5118	15.603530	0.000902	9.022732	3.056984	0.000361
  15	1.3930e+00	0.5438	15.942649	0.000852	8.515837	2.885244	0.000341
  16	1.4925e+00	0.5888	16.229286	0.000720	7.197910	2.438718	0.000288
  17	1.5920e+00	0.6273	16.592628	0.000912	9.124111	3.091333	0.000365
  18	1.6915e+00	0.6690	16.939822	0.000872	8.718595	2.953940	0.000349
  19	1.7910e+00	0.7091	17.250681	0.000781	7.806184	2.644807	0.000312
  20	1.8905e+00	0.7524	17.642283	0.000983	9.833765	3.331770	0.000394
  21	1.9900e+00	0.7845	17.965254	0.000811	8.110321	2.747851	0.000325
  22	2.0895e+00	0.8230	18.284188	0.000801	8.008942	2.713503	0.000321
  23	2.1890e+00	0.8663	18.679827	0.000994	9.935144	3.366118	0.000398
  24	2.2885e+00	0.9096	18.958389	0.000700	6.995152	2.370022	0.000280
  25	2.3880e+00	0.9385	19.309620	0.000882	8.819974	2.988288	0.000353
  26	2.4875e+00	0.9946	19.681037	0.000933	9.326869	3.160029	0.000373
  27	2.5870e+00	1.0267	20.004008	0.000811	8.110321	2.747851	0.000325
  28	2.6865e+00	1.0700	20.331016	0.000821	8.211700	2.782199	0.000329
  29	2.7860e+00	1.1037	20.710506	0.000953	9.529627	3.228725	0.000381
  30	2.8855e+00	1.1470	21.065774	0.000892	8.921353	3.022636	0.000357
  31	2.9850e+00	1.1968	21.404894	0.000852	8.515837	2.885244	0.000341
  32	3.0845e+00	1.2240	21.735939	0.000831	8.313079	2.816548	0.000333
  33	3.1840e+00	1.2657	22.115430	0.000953	9.529627	3.228725	0.000381
  34	3.2835e+00	1.3010	22.434363	0.000801	8.008942	2.713503	0.000321
  35	3.3830e+00	1.3460	22.805780	0.000933	9.326869	3.160029	0.000373
  36	3.4825e+00	1.3941	23.132788	0.000821	8.211700	2.782199	0.000329
  37	3.5820e+00	1.4197	23.479981	0.000872	8.718595	2.953940	0.000349
  38	3.6815e+00	1.4663	23.811027	0.000831	8.313079	2.816548	0.000333
  39	3.7810e+00	1.5048	24.166295	0.000892	8.921353	3.022636	0.000357
  40	3.8805e+00	1.5433	24.501377	0.000841	8.414458	2.850896	0.000337
  41	3.9800e+00	1.5882	24.880868	0.000953	9.529627	3.228725	0.000381
  42	4.0795e+00	1.6235	25.232098	0.000882	8.819974	2.988288	0.000353
  43	4.1790e+00	1.6604	25.611589	0.000953	9.529627	3.228725	0.000381
  44	4.2785e+00	1.7069	25.938597	0.000821	8.211700	2.782199	0.000329
  45	4.3780e+00	1.7534	26.350385	0.001034	10.340660	3.503510	0.000414
  46	4.4775e+00	1.7823	26.677393	0.000821	8.211700	2.782199	0.000329
  47	4.5770e+00	1.8336	26.992290	0.000791	7.907563	2.679155	0.000316
  48	4.6765e+00	1.8689	27.323335	0.000831	8.313079	2.816548	0.000333
  49	4.7760e+00	1.9106	27.706863	0.000963	9.631007	3.263073	0.000385
  50	4.8755e+00	1.9395	28.058093	0.000882	8.819974	2.988288	0.000353
  51	4.9750e+00	1.9812	28.425473	0.000923	9.225490	3.125681	0.000369
  52	5.0745e+00	2.0245	28.756518	0.000831	8.313079	2.816548	0.000333
  53	5.1740e+00	2.0663	29.127934	0.000933	9.326869	3.160029	0.000373
  54	5.2735e+00	2.0983	29.442831	0.000791	7.907563	2.679155	0.000316
  55	5.3730e+00	2.1352	29.818285	0.000943	9.428248	3.194377	0.000377
  56	5.4725e+00	2.1930	30.161441	0.000862	8.617216	2.919592	0.000345
  57	5.5720e+00	2.2299	30.512672	0.000882	8.819974	2.988288	0.000353
  58	5.6715e+00	2.2636	30.827568	0.000791	7.907563	2.679155	0.000316
  59	5.7710e+00	2.3037	31.198985	0.000933	9.326869	3.160029	0.000373
  60	5.8705e+00	2.3422	31.558290	0.000902	9.022732	3.056984	0.000361
  61	5.9700e+00	2.3743	31.897409	0.000852	8.515837	2.885244	0.000341
  62	6.0695e+00	2.4240	32.264789	0.000923	9.225490	3.125681	0.000369
  63	6.1690e+00	2.4577	32.603908	0.000852	8.515837	2.885244	0.000341
  64	6.2685e+00	2.5138	32.947065	0.000862	8.617216	2.919592	0.000345
  65	6.3680e+00	2.5427	33.270036	0.000811	8.110321	2.747851	0.000325
  66	6.4675e+00	2.5924	33.669712	0.001004	10.036523	3.400466	0.000402
  67	6.5670e+00	2.6261	34.024980	0.000892	8.921353	3.022636	0.000357
  68	6.6665e+00	2.6630	34.356025	0.000831	8.313079	2.816548	0.000333
  69	6.7660e+00	2.7031	34.638625	0.000710	7.096531	2.404370	0.000284
  70	6.8655e+00	2.7416	35.026190	0.000973	9.732386	3.297421	0.000390
  71	6.9650e+00	2.7705	35.377420	0.000882	8.819974	2.988288	0.000353
  72	7.0645e+00	2.8331	35.696354	0.000801	8.008942	2.713503	0.000321
  73	7.1640e+00	2.8587	36.100068	0.001014	10.137902	3.434814	0.000406
  74	7.2635e+00	2.9021	36.423039	0.000811	8.110321	2.747851	0.000325
  75	7.3630e+00	2.9390	36.782344	0.000902	9.022732	3.056984	0.000361
  76	7.4625e+00	2.9791	37.109352	0.000821	8.211700	2.782199	0.000329
  77	7.5620e+00	3.0176	37.460583	0.000882	8.819974	2.988288	0.000353
  78	7.6615e+00	3.0737	37.779516	0.000801	8.008942	2.713503	0.000321
  79	7.7610e+00	3.0930	38.150933	0.000933	9.326869	3.160029	0.000373
  80	7.8605e+00	3.1411	38.554646	0.001014	10.137902	3.434814	0.000406
  81	7.9600e+00	3.1844	38.909914	0.000892	8.921353	3.022636	0.000357
  82	8.0595e+00	3.2197	39.188477	0.000700	6.995152	2.370022	0.000280
  83	8.1590e+00	3.2566	39.576042	0.000973	9.732386	3.297421	0.000390
  84	8.2585e+00	3.2983	39.911124	0.000841	8.414458	2.850896	0.000337
  85	8.3580e+00	3.3464	40.254280	0.000862	8.617216	2.919592	0.000345
  86	8.4575e+00	3.3705	40.597437	0.000862	8.617216	2.919592	0.000345
  87	8.5570e+00	3.4170	40.952705	0.000892	8.921353	3.022636	0.000357
  88	8.6565e+00	3.4555	41.316047	0.000912	9.124111	3.091333	0.000365
  89	8.7560e+00	3.5036	41.647092	0.000831	8.313079	2.816548	0.000333
  90	8.8555e+00	3.5357	41.949877	0.000760	7.603426	2.576111	0.000304
  91	8.9550e+00	3.5790	42.325331	0.000943	9.428248	3.194377	0.000377
  92	9.0545e+00	3.6159	42.640228	0.000791	7.907563	2.679155	0.000316
  93	9.1540e+00	3.6689	42.995496	0.000892	8.921353	3.022636	0.000357
  94	9.2535e+00	3.7026	43.358838	0.000912	9.124111	3.091333	0.000365
  95	9.3530e+00	3.7330	43.685846	0.000821	8.211700	2.782199	0.000329
  96	9.4525e+00	3.7812	44.000742	0.000791	7.907563	2.679155	0.000316
  97	9.5520e+00	3.8133	44.360047	0.000902	9.022732	3.056984	0.000361
  98	9.6515e+00	3.8582	44.683018	0.000811	8.110321	2.747851	0.000325
  99	9.7510e+00	3.9015	45.030212	0.000872	8.718595	2.953940	0.000349
 100	9.8505e+00	3.9368	45.377406	0.000872	8.718595	2.953940	0.000349
 101	9.9500e+00	3.9785	45.732674	0.000892	8.921353	3.022636	0.000357
 102	1.0050e+01	4.0122	46.067756	0.000841	8.414458	2.850896	0.000337
 103	1.0149e+01	4.0443	46.370541	0.000760	7.603426	2.576111	0.000304
 104	1.0248e+01	4.1036	46.741958	0.000933	9.326869	3.160029	0.000373
 105	1.0348e+01	4.1437	47.068966	0.000821	8.211700	2.782199	0.000329
 106	1.0447e+01	4.1758	47.416159	0.000872	8.718595	2.953940	0.000349
 107	1.0547e+01	4.2111	47.743167	0.000821	8.211700	2.782199	0.000329
 108	1.0646e+01	4.2560	48.070175	0.000821	8.211700	2.782199	0.000329
 109	1.0746e+01	4.3106	48.409295	0.000852	8.515837	2.885244	0.000341
 110	1.0845e+01	4.3378	48.768600	0.000902	9.022732	3.056984	0.000361
 111	1.0945e+01	4.3763	49.047162	0.000700	6.995152	2.370022	0.000280
 112	1.1044e+01	4.4165	49.454913	0.001024	10.239281	3.469162	0.000410
 113	1.1144e+01	4.4485	49.765772	0.000781	7.806184	2.644807	0.000312
 114	1.1243e+01	4.4919	50.076632	0.000781	7.806184	2.644807	0.000312
 115	1.1343e+01	4.5336	50.423825	0.000872	8.718595	2.953940	0.000349
 116	1.1443e+01	4.5705	50.750833	0.000821	8.211700	2.782199	0.000329
 117	1.1542e+01	4.6154	51.073804	0.000811	8.110321	2.747851	0.000325
 118	1.1642e+01	4.6683	51.408886	0.000841	8.414458	2.850896	0.000337
 119	1.1741e+01	4.6908	51.719746	0.000781	7.806184	2.644807	0.000312
 120	1.1841e+01	4.7293	52.062902	0.000862	8.617216	2.919592	0.000345
 121	1.1940e+01	4.7758	52.377799	0.000791	7.907563	2.679155	0.000316
 122	1.2040e+01	4.8063	52.704807	0.000821	8.211700	2.782199	0.000329
 123	1.2139e+01	4.8592	53.023741	0.000801	8.008942	2.713503	0.000321
 124	1.2239e+01	4.8929	53.383046	0.000902	9.022732	3.056984	0.000361
 125	1.2338e+01	4.9298	53.673720	0.000730	7.299289	2.473066	0.000292
 126	1.2438e+01	4.9747	54.024950	0.000882	8.819974	2.988288	0.000353
 127	1.2537e+01	5.0148	54.355996	0.000831	8.313079	2.816548	0.000333
 128	1.2636e+01	5.0549	54.707226	0.000882	8.819974	2.988288	0.000353
 129	1.2736e+01	5.0870	54.997900	0.000730	7.299289	2.473066	0.000292
 130	1.2835e+01	5.1271	55.320871	0.000811	8.110321	2.747851	0.000325
 131	1.2935e+01	5.1769	55.680176	0.000902	9.022732	3.056984	0.000361
 132	1.3034e+01	5.2154	55.982961	0.000760	7.603426	2.576111	0.000304
 133	1.3134e+01	5.2651	56.354378	0.000933	9.326869	3.160029	0.000373
 134	1.3233e+01	5.2972	56.620829	0.000669	6.691015	2.266977	0.000268
 135	1.3333e+01	5.3309	57.008394	0.000973	9.732386	3.297421	0.000390
 136	1.3432e+01	5.3710	57.290993	0.000710	7.096531	2.404370	0.000284
 137	1.3532e+01	5.4191	57.630113	0.000852	8.515837	2.885244	0.000341
 138	1.3632e+01	5.4560	57.912712	0.000710	7.096531	2.404370	0.000284
 139	1.3731e+01	5.5041	58.292203	0.000953	9.529627	3.228725	0.000381
 140	1.3831e+01	5.5346	58.562691	0.000679	6.792394	2.301325	0.000272
 141	1.3930e+01	5.5747	58.917959	0.000892	8.921353	3.022636	0.000357
 142	1.4030e+01	5.6100	59.236893	0.000801	8.008942	2.713503	0.000321
 143	1.4129e+01	5.6485	59.584086	0.000872	8.718595	2.953940	0.000349
 144	1.4229e+01	5.6966	59.890909	0.000770	7.704805	2.610459	0.000308
 145	1.4328e+01	5.7287	60.197731	0.000770	7.704805	2.610459	0.000308
 146	1.4428e+01	5.7704	60.536850	0.000852	8.515837	2.885244	0.000341
 147	1.4527e+01	5.8089	60.871933	0.000841	8.414458	2.850896	0.000337
 148	1.4627e+01	5.8522	61.150495	0.000700	6.995152	2.370022	0.000280
 149	1.4726e+01	5.8907	61.497689	0.000872	8.718595	2.953940	0.000349
 150	1.4825e+01	5.9341	61.832771	0.000841	8.414458	2.850896	0.000337
 151	1.4925e+01	5.9661	62.091148	0.000649	6.488257	2.198281	0.000260
 152	1.5024e+01	5.9998	62.454490	0.000912	9.124111	3.091333	0.000365
 153	1.5124e+01	6.0512	62.749201	0.000740	7.400668	2.507414	0.000296
 154	1.5223e+01	6.0897	63.084283	0.000841	8.414458	2.850896	0.000337
 155	1.5323e+01	6.1266	63.411291	0.000821	8.211700	2.782199	0.000329
 156	1.5422e+01	6.1731	63.734262	0.000811	8.110321	2.747851	0.000325
 157	1.5522e+01	6.2116	64.041084	0.000770	7.704805	2.610459	0.000308
 158	1.5621e+01	6.2549	64.327721	0.000720	7.197910	2.438718	0.000288
 159	1.5721e+01	6.2886	64.711249	0.000963	9.631007	3.263073	0.000385
 160	1.5820e+01	6.3383	64.945403	0.000588	5.879983	1.992192	0.000235
 161	1.5920e+01	6.3720	65.296633	0.000882	8.819974	2.988288	0.000353
 162	1.6020e+01	6.4121	65.619604	0.000811	8.110321	2.747851	0.000325
 163	1.6119e+01	6.4506	65.894130	0.000689	6.893773	2.335674	0.000276
 164	1.6218e+01	6.4923	66.196915	0.000760	7.603426	2.576111	0.000304
 165	1.6318e+01	6.5260	66.511811	0.000791	7.907563	2.679155	0.000316
 166	1.6418e+01	6.5549	66.774225	0.000659	6.589636	2.232629	0.000264
 167	1.6517e+01	6.5998	67.129493	0.000892	8.921353	3.022636	0.000357
 168	1.6616e+01	6.6463	67.448427	0.000801	8.008942	2.713503	0.000321
 169	1.6716e+01	6.6929	67.759286	0.000781	7.806184	2.644807	0.000312
 170	1.6816e+01	6.7314	68.070146	0.000781	7.806184	2.644807	0.000312
 171	1.6915e+01	6.7618	68.372931	0.000760	7.603426	2.576111	0.000304
 172	1.7015e+01	6.8003	68.679753	0.000770	7.704805	2.610459	0.000308
 173	1.7114e+01	6.8372	68.974464	0.000740	7.400668	2.507414	0.000296
 174	1.7213e+01	6.8822	69.301472	0.000821	8.211700	2.782199	0.000329
 175	1.7313e+01	6.9207	69.575997	0.000689	6.893773	2.335674	0.000276
 176	1.7413e+01	6.9560	69.898968	0.000811	8.110321	2.747851	0.000325
 177	1.7512e+01	7.0041	70.205790	0.000770	7.704805	2.610459	0.000308
 178	1.7611e+01	7.0474	70.504539	0.000750	7.502047	2.541762	0.000300
 179	1.7711e+01	7.0875	70.823472	0.000801	8.008942	2.713503	0.000321
 180	1.7811e+01	7.1292	71.154517	0.000831	8.313079	2.816548	0.000333
 181	1.7910e+01	7.1613	71.416931	0.000659	6.589636	2.232629	0.000264
 182	1.8009e+01	7.2030	71.731828	0.000791	7.907563	2.679155	0.000316
 183	1.8109e+01	7.2431	72.054799	0.000811	8.110321	2.747851	0.000325
 184	1.8209e+01	7.2800	72.357584	0.000760	7.603426	2.576111	0.000304
 185	1.8308e+01	7.3297	72.672480	0.000791	7.907563	2.679155	0.000316
 186	1.8407e+01	7.3682	72.955080	0.000710	7.096531	2.404370	0.000284
 187	1.8507e+01	7.4067	73.282088	0.000821	8.211700	2.782199	0.000329
 188	1.8607e+01	7.4388	73.592947	0.000781	7.806184	2.644807	0.000312
 189	1.8706e+01	7.4854	73.899770	0.000770	7.704805	2.610459	0.000308
 190	1.8805e+01	7.5271	74.182369	0.000710	7.096531	2.404370	0.000284
 191	1.8905e+01	7.5624	74.460932	0.000700	6.995152	2.370022	0.000280
 192	1.9005e+01	7.6041	74.759680	0.000750	7.502047	2.541762	0.000300
 193	1.9104e+01	7.6394	75.090725	0.000831	8.313079	2.816548	0.000333
 194	1.9203e+01	7.6811	75.369287	0.000700	6.995152	2.370022	0.000280
 195	1.9303e+01	7.7180	75.684184	0.000791	7.907563	2.679155	0.000316
 196	1.9402e+01	7.7533	75.978895	0.000740	7.400668	2.507414	0.000296
 197	1.9502e+01	7.7918	76.305903	0.000821	8.211700	2.782199	0.000329
 198	1.9602e+01	7.8447	76.580428	0.000689	6.893773	2.335674	0.000276
 199	1.9701e+01	7.8800	76.863027	0.000710	7.096531	2.404370	0.000284
 200	1.9800e+01	7.9233	77.190035	0.000821	8.211700	2.782199	0.000329
 201	1.9900e+01	7.9586	77.480709	0.000730	7.299289	2.473066	0.000292
 202	2.0000e+01	8.0051	77.783494	0.000760	7.603426	2.576111	0.000304
 203	2.0099e+01	8.0532	78.106465	0.000811	8.110321	2.747851	0.000325
 204	2.0198e+01	8.0725	78.385027	0.000700	6.995152	2.370022	0.000280
 205	2.0298e+01	8.1126	78.691850	0.000770	7.704805	2.610459	0.000308
 206	2.0398e+01	8.1607	78.986561	0.000740	7.400668	2.507414	0.000296
 207	2.0497e+01	8.1928	79.293383	0.000770	7.704805	2.610459	0.000308
 208	2.0596e+01	8.2393	79.555797	0.000659	6.589636	2.232629	0.000264
 209	2.0696e+01	8.2794	79.866656	0.000781	7.806184	2.644807	0.000312
 210	2.0796e+01	8.3147	80.177516	0.000781	7.806184	2.644807	0.000312
 211	2.0895e+01	8.3581	80.435892	0.000649	6.488257	2.198281	0.000260
 212	2.0994e+01	8.3998	80.734640	0.000750	7.502047	2.541762	0.000300
 213	2.1094e+01	8.4431	81.061648	0.000821	8.211700	2.782199	0.000329
 214	2.1194e+01	8.4832	81.332137	0.000679	6.792394	2.301325	0.000272
 215	2.1293e+01	8.5201	81.622810	0.000730	7.299289	2.473066	0.000292
 216	2.1392e+01	8.5586	81.933670	0.000781	7.806184	2.644807	0.000312
 217	2.1492e+01	8.5939	82.188009	0.000639	6.386878	2.163933	0.000256
 218	2.1591e+01	8.6292	82.527129	0.000852	8.515837	2.885244	0.000341
 219	2.1691e+01	8.6805	82.777431	0.000629	6.285499	2.129585	0.000252
 220	2.1791e+01	8.7222	83.092328	0.000791	7.907563	2.679155	0.000316
 221	2.1890e+01	8.7607	83.387039	0.000740	7.400668	2.507414	0.000296
 222	2.1989e+01	8.8104	83.697898	0.000781	7.806184	2.644807	0.000312
 223	2.2089e+01	8.8297	83.976460	0.000700	6.995152	2.370022	0.000280
 224	2.2189e+01	8.8810	84.267134	0.000730	7.299289	2.473066	0.000292
 225	2.2288e+01	8.9131	84.533585	0.000669	6.691015	2.266977	0.000268
 226	2.2387e+01	8.9580	84.828296	0.000740	7.400668	2.507414	0.000296
 227	2.2487e+01	8.9965	85.102821	0.000689	6.893773	2.335674	0.000276
 228	2.2587e+01	9.0463	85.397532	0.000740	7.400668	2.507414	0.000296
 229	2.2686e+01	9.0751	85.704355	0.000770	7.704805	2.610459	0.000308
 230	2.2785e+01	9.1265	85.962731	0.000649	6.488257	2.198281	0.000260
 231	2.2885e+01	9.1554	86.257442	0.000740	7.400668	2.507414	0.000296
 232	2.2985e+01	9.1971	86.564264	0.000770	7.704805	2.610459	0.000308
 233	2.3084e+01	9.2324	86.846864	0.000710	7.096531	2.404370	0.000284
 234	2.3183e+01	9.2837	87.145612	0.000750	7.502047	2.541762	0.000300
 235	2.3283e+01	9.3238	87.363617	0.000547	5.474467	1.854800	0.000219
 236	2.3383e+01	9.3655	87.666403	0.000760	7.603426	2.576111	0.000304
 237	2.3482e+01	9.3992	87.940928	0.000689	6.893773	2.335674	0.000276
 238	2.3581e+01	9.4377	88.247750	0.000770	7.704805	2.610459	0.000308
 239	2.3681e+01	9.4730	88.510164	0.000659	6.589636	2.232629	0.000264
 240	2.3780e+01	9.5051	88.792763	0.000710	7.096531	2.404370	0.000284
 241	2.3880e+01	9.5596	89.083437	0.000730	7.299289	2.473066	0.000292
 242	2.3980e+01	9.5885	89.374111	0.000730	7.299289	2.473066	0.000292
 243	2.4079e+01	9.6350	89.676896	0.000760	7.603426	2.576111	0.000304
 244	2.4178e+01	9.6735	89.943347	0.000669	6.691015	2.266977	0.000268
 245	2.4278e+01	9.7152	90.234021	0.000730	7.299289	2.473066	0.000292
 246	2.4378e+01	9.7569	90.524695	0.000730	7.299289	2.473066	0.000292
 247	2.4477e+01	9.7970	90.807294	0.000710	7.096531	2.404370	0.000284
 248	2.4576e+01	9.8291	91.069708	0.000659	6.589636	2.232629	0.000264
 249	2.4676e+01	9.8676	91.356345	0.000720	7.197910	2.438718	0.000288
 250	2.4776e+01	9.9126	91.647018	0.000730	7.299289	2.473066	0.000292
 251	2.4875e+01	9.9543	91.925581	0.000700	6.995152	2.370022	0.000280
 252	2.4974e+01	9.9880	92.236440	0.000781	7.806184	2.644807	0.000312
 253	2.5074e+01	10.0345	92.519040	0.000710	7.096531	2.404370	0.000284
 254	2.5174e+01	10.0810	92.777416	0.000649	6.488257	2.198281	0.000260
 255	2.5273e+01	10.1115	93.068090	0.000730	7.299289	2.473066	0.000292
 256	2.5372e+01	10.1548	93.314355	0.000618	6.184120	2.095237	0.000248
 257	2.5472e+01	10.1965	93.617141	0.000760	7.603426	2.576111	0.000304
 258	2.5572e+01	10.2350	93.843220	0.000568	5.677225	1.923496	0.000227
 259	2.5671e+01	10.2639	94.158117	0.000791	7.907563	2.679155	0.000316
 260	2.5770e+01	10.3168	94.460902	0.000760	7.603426	2.576111	0.000304
 261	2.5870e+01	10.3537	94.723316	0.000659	6.589636	2.232629	0.000264
 262	2.5970e+01	10.3922	94.981693	0.000649	6.488257	2.198281	0.000260
 263	2.6069e+01	10.4387	95.288515	0.000770	7.704805	2.610459	0.000308
 264	2.6169e+01	10.4708	95.534780	0.000618	6.184120	2.095237	0.000248
 265	2.6268e+01	10.5077	95.829491	0.000740	7.400668	2.507414	0.000296
 266	2.6367e+01	10.5510	96.083831	0.000639	6.386878	2.163933	0.000256
 267	2.6467e+01	10.5911	96.390653	0.000770	7.704805	2.610459	0.000308
 268	2.6567e+01	10.6425	96.616732	0.000568	5.677225	1.923496	0.000227
 269	2.6666e+01	10.6762	96.919518	0.000760	7.603426	2.576111	0.000304
 270	2.6765e+01	10.6986	97.185969	0.000669	6.691015	2.266977	0.000268
 271	2.6865e+01	10.7500	97.436271	0.000629	6.285499	2.129585	0.000252
 272	2.6965e+01	10.7869	97.726945	0.000730	7.299289	2.473066	0.000292
 273	2.7064e+01	10.8206	97.985321	0.000649	6.488257	2.198281	0.000260
 274	2.7163e+01	10.8799	98.275995	0.000730	7.299289	2.473066	0.000292
 275	2.7263e+01	10.9168	98.534372	0.000649	6.488257	2.198281	0.000260
 276	2.7363e+01	10.9569	98.788712	0.000639	6.386878	2.163933	0.000256
 277	2.7462e+01	10.9826	99.063237	0.000689	6.893773	2.335674	0.000276
 278	2.7561e+01	11.0291	99.321613	0.000649	6.488257	2.198281	0.000260
 279	2.7661e+01	11.0628	99.588064	0.000669	6.691015	2.266977	0.000268
 280	2.7761e+01	11.1157	99.878738	0.000730	7.299289	2.473066	0.000292
 281	2.7860e+01	11.1526	100.116929	0.000598	5.981362	2.026540	0.000239
 282	2.7959e+01	11.1943	100.395492	0.000700	6.995152	2.370022	0.000280
 283	2.8059e+01	11.2184	100.686165	0.000730	7.299289	2.473066	0.000292
 284	2.8159e+01	11.2665	100.972802	0.000720	7.197910	2.438718	0.000288
 285	2.8258e+01	11.3082	101.210993	0.000598	5.981362	2.026540	0.000239
 286	2.8358e+01	11.3483	101.469370	0.000649	6.488257	2.198281	0.000260
 287	2.8457e+01	11.3884	101.760043	0.000730	7.299289	2.473066	0.000292
 288	2.8556e+01	11.4237	101.986123	0.000568	5.677225	1.923496	0.000227
 289	2.8656e+01	11.4655	102.280834	0.000740	7.400668	2.507414	0.000296
 290	2.8756e+01	11.5104	102.510951	0.000578	5.778604	1.957844	0.000231
 291	2.8855e+01	11.5521	102.793550	0.000710	7.096531	2.404370	0.000284
 292	2.8954e+01	11.5954	103.076150	0.000710	7.096531	2.404370	0.000284
 293	2.9054e+01	11.6259	103.358749	0.000710	7.096531	2.404370	0.000284
 294	2.9154e+01	11.6692	103.596940	0.000598	5.981362	2.026540	0.000239
 295	2.9253e+01	11.7077	103.823020	0.000568	5.677225	1.923496	0.000227
 296	2.9352e+01	11.7446	104.133879	0.000781	7.806184	2.644807	0.000312
 297	2.9452e+01	11.7815	104.392256	0.000649	6.488257	2.198281	0.000260
 298	2.9552e+01	11.8200	104.642558	0.000629	6.285499	2.129585	0.000252
 299	2.9651e+01	11.8601	104.937269	0.000740	7.400668	2.507414	0.000296
 300	2.9750e+01	11.9098	105.199683	0.000659	6.589636	2.232629	0.000264
 301	2.9850e+01	11.9499	105.429800	0.000578	5.778604	1.957844	0.000231
 302	2.9950e+01	11.9900	105.684139	0.000639	6.386878	2.163933	0.000256
 303	3.0049e+01	12.0253	105.958665	0.000689	6.893773	2.335674	0.000276
 304	3.0148e+01	12.0638	106.196856	0.000598	5.981362	2.026540	0.000239
 305	3.0248e+01	12.1104	106.475418	0.000700	6.995152	2.370022	0.000280
 306	3.0348e+01	12.1408	106.725720	0.000629	6.285499	2.129585	0.000252
 307	3.0447e+01	12.1825	106.988134	0.000659	6.589636	2.232629	0.000264
 308	3.0547e+01	12.2259	107.234399	0.000618	6.184120	2.095237	0.000248
 309	3.0646e+01	12.2724	107.545259	0.000781	7.806184	2.644807	0.000312
 310	3.0745e+01	12.3061	107.771339	0.000568	5.677225	1.923496	0.000227
 311	3.0845e+01	12.3478	108.033752	0.000659	6.589636	2.232629	0.000264
 312	3.0945e+01	12.3879	108.263869	0.000578	5.778604	1.957844	0.000231
 313	3.1044e+01	12.4392	108.550506	0.000720	7.197910	2.438718	0.000288
 314	3.1143e+01	12.4569	108.825031	0.000689	6.893773	2.335674	0.000276
 315	3.1243e+01	12.4970	109.067259	0.000608	6.082741	2.060888	0.000243
 316	3.1343e+01	12.5403	109.301413	0.000588	5.879983	1.992192	0.000235
 317	3.1442e+01	12.5852	109.596124	0.000740	7.400668	2.507414	0.000296
 318	3.1541e+01	12.6285	109.810092	0.000537	5.373088	1.820451	0.000215
 319	3.1641e+01	12.6590	110.084617	0.000689	6.893773	2.335674	0.000276
 320	3.1741e+01	12.7007	110.334920	0.000629	6.285499	2.129585	0.000252
 321	3.1840e+01	12.7472	110.597334	0.000659	6.589636	2.232629	0.000264
 322	3.1939e+01	12.7825	110.843599	0.000618	6.184120	2.095237	0.000248
 323	3.2039e+01	12.8307	111.110050	0.000669	6.691015	2.266977	0.000268
 324	3.2139e+01	12.8643	111.344204	0.000588	5.879983	1.992192	0.000235
 325	3.2238e+01	12.9093	111.614692	0.000679	6.792394	2.301325	0.000272
 326	3.2337e+01	12.9333	111.836734	0.000558	5.575846	1.889148	0.000223
 327	3.2437e+01	12.9782	112.087037	0.000629	6.285499	2.129585	0.000252
 328	3.2536e+01	13.0167	112.313116	0.000568	5.677225	1.923496	0.000227
 329	3.2636e+01	13.0617	112.583604	0.000679	6.792394	2.301325	0.000272
 330	3.2736e+01	13.0954	112.829870	0.000618	6.184120	2.095237	0.000248
 331	3.2835e+01	13.1467	113.043838	0.000537	5.373088	1.820451	0.000215
 332	3.2934e+01	13.1691	113.334512	0.000730	7.299289	2.473066	0.000292
 333	3.3034e+01	13.2157	113.588851	0.000639	6.386878	2.163933	0.000256
 334	3.3133e+01	13.2606	113.827042	0.000598	5.981362	2.026540	0.000239
 335	3.3233e+01	13.3055	114.077345	0.000629	6.285499	2.129585	0.000252
 336	3.3333e+01	13.3280	114.323610	0.000618	6.184120	2.095237	0.000248
 337	3.3432e+01	13.3793	114.557764	0.000588	5.879983	1.992192	0.000235
 338	3.3532e+01	13.4258	114.812103	0.000639	6.386878	2.163933	0.000256
 339	3.3631e+01	13.4547	115.070480	0.000649	6.488257	2.198281	0.000260
 340	3.3730e+01	13.4948	115.284448	0.000537	5.373088	1.820451	0.000215
 341	3.3830e+01	13.5445	115.522639	0.000598	5.981362	2.026540	0.000239
 342	3.3929e+01	13.5782	115.805239	0.000710	7.096531	2.404370	0.000284
 343	3.4029e+01	13.6183	116.027281	0.000558	5.575846	1.889148	0.000223
 344	3.4129e+01	13.6520	116.297769	0.000679	6.792394	2.301325	0.000272
 345	3.4228e+01	13.6937	116.531923	0.000588	5.879983	1.992192	0.000235
 346	3.4328e+01	13.7354	116.790300	0.000649	6.488257	2.198281	0.000260
 347	3.4427e+01	13.7707	117.048676	0.000649	6.488257	2.198281	0.000260
 348	3.4526e+01	13.8189	117.290905	0.000608	6.082741	2.060888	0.000243
 349	3.4626e+01	13.8574	117.537170	0.000618	6.184120	2.095237	0.000248
 350	3.4725e+01	13.8959	117.771324	0.000588	5.879983	1.992192	0.000235
 351	3.4825e+01	13.9456	118.017589	0.000618	6.184120	2.095237	0.000248
 352	3.4925e+01	13.9777	118.251743	0.000588	5.879983	1.992192	0.000235
 353	3.5024e+01	14.0114	118.485897	0.000588	5.879983	1.992192	0.000235
 354	3.5123e+01	14.0611	118.732162	0.000618	6.184120	2.095237	0.000248
 355	3.5223e+01	14.0964	118.998613	0.000669	6.691015	2.266977	0.000268
 356	3.5322e+01	14.1301	119.220655	0.000558	5.575846	1.889148	0.000223
 357	3.5422e+01	14.1750	119.474995	0.000639	6.386878	2.163933	0.000256
 358	3.5522e+01	14.2151	119.693000	0.000547	5.474467	1.854800	0.000219
 359	3.5621e+01	14.2568	119.959451	0.000669	6.691015	2.266977	0.000268
 360	3.5721e+01	14.2969	120.205717	0.000618	6.184120	2.095237	0.000248
 361	3.5820e+01	14.3483	120.472168	0.000669	6.691015	2.266977	0.000268
 362	3.5919e+01	14.3787	120.674024	0.000507	5.068951	1.717407	0.000203
 363	3.6019e+01	14.4108	120.928364	0.000639	6.386878	2.163933	0.000256
 364	3.6118e+01	14.4638	121.158481	0.000578	5.778604	1.957844	0.000231
 365	3.6218e+01	14.4942	121.396672	0.000598	5.981362	2.026540	0.000239
 366	3.6318e+01	14.5327	121.651011	0.000639	6.386878	2.163933	0.000256
 367	3.6417e+01	14.5729	121.885165	0.000588	5.879983	1.992192	0.000235
 368	3.6517e+01	14.6178	122.127393	0.000608	6.082741	2.060888	0.000243
 369	3.6616e+01	14.6499	122.381733	0.000639	6.386878	2.163933	0.000256
 370	3.6715e+01	14.6980	122.627998	0.000618	6.184120	2.095237	0.000248
 371	3.6815e+01	14.7317	122.870226	0.000608	6.082741	2.060888	0.000243
 372	3.6914e+01	14.7670	123.092269	0.000558	5.575846	1.889148	0.000223
 373	3.7014e+01	14.8055	123.354682	0.000659	6.589636	2.232629	0.000264
 374	3.7114e+01	14.8536	123.572688	0.000547	5.474467	1.854800	0.000219
 375	3.7213e+01	14.8921	123.827027	0.000639	6.386878	2.163933	0.000256
 376	3.7313e+01	14.9386	124.053107	0.000568	5.677225	1.923496	0.000227
 377	3.7412e+01	14.9723	124.303409	0.000629	6.285499	2.129585	0.000252
 378	3.7511e+01	15.0156	124.537563	0.000588	5.879983	1.992192	0.000235
 379	3.7611e+01	15.0493	124.763643	0.000568	5.677225	1.923496	0.000227
 380	3.7711e+01	15.0942	124.993760	0.000578	5.778604	1.957844	0.000231
 381	3.7810e+01	15.1279	125.231951	0.000598	5.981362	2.026540	0.000239
 382	3.7910e+01	15.1744	125.486290	0.000639	6.386878	2.163933	0.000256
 383	3.8009e+01	15.2097	125.736593	0.000629	6.285499	2.129585	0.000252
 384	3.8108e+01	15.2386	125.982858	0.000618	6.184120	2.095237	0.000248
 385	3.8208e+01	15.2899	126.176640	0.000487	4.866193	1.648711	0.000195
 386	3.8307e+01	15.3268	126.439054	0.000659	6.589636	2.232629	0.000264
 387	3.8407e+01	15.3766	126.689357	0.000629	6.285499	2.129585	0.000252
 388	3.8507e+01	15.4103	126.915436	0.000568	5.677225	1.923496	0.000227
 389	3.8606e+01	15.4568	127.153627	0.000598	5.981362	2.026540	0.000239
 390	3.8706e+01	15.4937	127.383744	0.000578	5.778604	1.957844	0.000231
 391	3.8805e+01	15.5274	127.613861	0.000578	5.778604	1.957844	0.000231
 392	3.8904e+01	15.5627	127.864163	0.000629	6.285499	2.129585	0.000252
 393	3.9004e+01	15.6076	128.086206	0.000558	5.575846	1.889148	0.000223
 394	3.9103e+01	15.6557	128.308248	0.000558	5.575846	1.889148	0.000223
 395	3.9203e+01	15.6862	128.558550	0.000629	6.285499	2.129585	0.000252
 396	3.9303e+01	15.7407	128.764444	0.000517	5.170330	1.751755	0.000207
 397	3.9402e+01	15.7680	129.006673	0.000608	6.082741	2.060888	0.000243
 398	3.9502e+01	15.8129	129.248901	0.000608	6.082741	2.060888	0.000243
 399	3.9601e+01	15.8482	129.474980	0.000568	5.677225	1.923496	0.000227
 400	3.9700e+01	15.8947	129.737394	0.000659	6.589636	2.232629	0.000264
 401	3.9800e+01	15.9268	129.951362	0.000537	5.373088	1.820451	0.000215
 402	3.9900e+01	15.9685	130.181479	0.000578	5.778604	1.957844	0.000231
 403	3.9999e+01	16.0086	130.456004	0.000689	6.893773	2.335674	0.000276
 404	4.0099e+01	16.0407	130.625564	0.000426	4.257919	1.442622	0.000170
 405	4.0198e+01	16.0824	130.859718	0.000588	5.879983	1.992192	0.000235
 406	4.0297e+01	16.1290	131.097909	0.000598	5.981362	2.026540	0.000239
 407	4.0397e+01	16.1723	131.340137	0.000608	6.082741	2.060888	0.000243
 408	4.0496e+01	16.1947	131.570254	0.000578	5.778604	1.957844	0.000231
 409	4.0596e+01	16.2413	131.820556	0.000629	6.285499	2.129585	0.000252
 410	4.0696e+01	16.2910	132.050673	0.000578	5.778604	1.957844	0.000231
 411	4.0795e+01	16.3327	132.264641	0.000537	5.373088	1.820451	0.000215
 412	4.0895e+01	16.3584	132.523018	0.000649	6.488257	2.198281	0.000260
 413	4.0994e+01	16.4017	132.716800	0.000487	4.866193	1.648711	0.000195
 414	4.1093e+01	16.4450	132.967103	0.000629	6.285499	2.129585	0.000252
 415	4.1193e+01	16.4883	133.197219	0.000578	5.778604	1.957844	0.000231
 416	4.1292e+01	16.5188	133.471745	0.000689	6.893773	2.335674	0.000276
 417	4.1392e+01	16.5637	133.693787	0.000558	5.575846	1.889148	0.000223
 418	4.1492e+01	16.6150	133.915830	0.000558	5.575846	1.889148	0.000223
 419	4.1591e+01	16.6471	134.154021	0.000598	5.981362	2.026540	0.000239
 420	4.1691e+01	16.6872	134.392212	0.000598	5.981362	2.026540	0.000239
 421	4.1790e+01	16.7193	134.638477	0.000618	6.184120	2.095237	0.000248
 422	4.1889e+01	16.7610	134.876668	0.000598	5.981362	2.026540	0.000239
 423	4.1989e+01	16.8059	135.102747	0.000568	5.677225	1.923496	0.000227
 424	4.2089e+01	16.8509	135.308641	0.000517	5.170330	1.751755	0.000207
 425	4.2188e+01	16.8797	135.546832	0.000598	5.981362	2.026540	0.000239
 426	4.2288e+01	16.9279	135.764838	0.000547	5.474467	1.854800	0.000219
 427	4.2387e+01	16.9567	136.031289	0.000669	6.691015	2.266977	0.000268
 428	4.2486e+01	17.0065	136.212960	0.000456	4.562056	1.545666	0.000183
 429	4.2586e+01	17.0530	136.491522	0.000700	6.995152	2.370022	0.000280
 430	4.2685e+01	17.0867	136.705490	0.000537	5.373088	1.820451	0.000215
 431	4.2785e+01	17.1252	136.919459	0.000537	5.373088	1.820451	0.000215
 432	4.2885e+01	17.1749	137.185910	0.000669	6.691015	2.266977	0.000268
 433	4.2984e+01	17.2006	137.363543	0.000446	4.460677	1.511318	0.000179
 434	4.3084e+01	17.2439	137.629994	0.000669	6.691015	2.266977	0.000268
 435	4.3183e+01	17.2872	137.827814	0.000497	4.967572	1.683059	0.000199
 436	4.3282e+01	17.3289	138.086191	0.000649	6.488257	2.198281	0.000260
 437	4.3382e+01	17.3514	138.279973	0.000487	4.866193	1.648711	0.000195
 438	4.3481e+01	17.4027	138.550461	0.000679	6.792394	2.301325	0.000272
 439	4.3581e+01	17.4444	138.764430	0.000537	5.373088	1.820451	0.000215
 440	4.3681e+01	17.4797	138.970324	0.000517	5.170330	1.751755	0.000207
 441	4.3780e+01	17.5214	139.216589	0.000618	6.184120	2.095237	0.000248
 442	4.3880e+01	17.5631	139.479003	0.000659	6.589636	2.232629	0.000264
 443	4.3979e+01	17.6081	139.680859	0.000507	5.068951	1.717407	0.000203
 444	4.4078e+01	17.6482	139.898865	0.000547	5.474467	1.854800	0.000219
 445	4.4178e+01	17.6819	140.112833	0.000537	5.373088	1.820451	0.000215
 446	4.4278e+01	17.7236	140.379284	0.000669	6.691015	2.266977	0.000268
 447	4.4377e+01	17.7556	140.605363	0.000568	5.677225	1.923496	0.000227
 448	4.4477e+01	17.8038	140.811257	0.000517	5.170330	1.751755	0.000207
 449	4.4576e+01	17.8423	141.045411	0.000588	5.879983	1.992192	0.000235
 450	4.4675e+01	17.8776	141.247268	0.000507	5.068951	1.717407	0.000203
 451	4.4775e+01	17.9241	141.473348	0.000568	5.677225	1.923496	0.000227
 452	4.4874e+01	17.9722	141.755947	0.000710	7.096531	2.404370	0.000284
 453	4.4974e+01	17.9931	141.986064	0.000578	5.778604	1.957844	0.000231
 454	4.5074e+01	18.0348	142.175809	0.000476	4.764814	1.614363	0.000191
 455	4.5173e+01	18.0845	142.401889	0.000568	5.677225	1.923496	0.000227
 456	4.5273e+01	18.1166	142.644117	0.000608	6.082741	2.060888	0.000243
 457	4.5372e+01	18.1647	142.874234	0.000578	5.778604	1.957844	0.000231
 458	4.5471e+01	18.1984	143.088202	0.000537	5.373088	1.820451	0.000215
 459	4.5571e+01	18.2433	143.306207	0.000547	5.474467	1.854800	0.000219
 460	4.5670e+01	18.2802	143.508064	0.000507	5.068951	1.717407	0.000203
 461	4.5770e+01	18.3252	143.742218	0.000588	5.879983	1.992192	0.000235
 462	4.5870e+01	18.3540	143.992520	0.000629	6.285499	2.129585	0.000252
 463	4.5969e+01	18.3989	144.222637	0.000578	5.778604	1.957844	0.000231
 464	4.6069e+01	18.4342	144.412382	0.000476	4.764814	1.614363	0.000191
 465	4.6168e+01	18.4792	144.650573	0.000598	5.981362	2.026540	0.000239
 466	4.6267e+01	18.5225	144.912987	0.000659	6.589636	2.232629	0.000264
 467	4.6367e+01	18.5626	145.118881	0.000517	5.170330	1.751755	0.000207
 468	4.6467e+01	18.6075	145.324775	0.000517	5.170330	1.751755	0.000207
 469	4.6566e+01	18.6412	145.538743	0.000537	5.373088	1.820451	0.000215
 470	4.6666e+01	18.6765	145.780972	0.000608	6.082741	2.060888	0.000243
 471	4.6765e+01	18.7214	145.966680	0.000466	4.663435	1.580014	0.000187
 472	4.6864e+01	18.7567	146.212945	0.000618	6.184120	2.095237	0.000248
 473	4.6964e+01	18.8016	146.455173	0.000608	6.082741	2.060888	0.000243
 474	4.7063e+01	18.8225	146.673178	0.000547	5.474467	1.854800	0.000219
 475	4.7163e+01	18.8770	146.891184	0.000547	5.474467	1.854800	0.000219
 476	4.7263e+01	18.9219	147.157635	0.000669	6.691015	2.266977	0.000268
 477	4.7362e+01	18.9476	147.335269	0.000446	4.460677	1.511318	0.000179
 478	4.7462e+01	18.9925	147.597683	0.000659	6.589636	2.232629	0.000264
 479	4.7561e+01	19.0422	147.819725	0.000558	5.575846	1.889148	0.000223
 480	4.7660e+01	19.0904	148.045805	0.000568	5.677225	1.923496	0.000227
 481	4.7760e+01	19.1096	148.235550	0.000476	4.764814	1.614363	0.000191
 482	4.7859e+01	19.1594	148.514112	0.000700	6.995152	2.370022	0.000280
 483	4.7959e+01	19.1979	148.691746	0.000446	4.460677	1.511318	0.000179
 484	4.8059e+01	19.2508	148.966272	0.000689	6.893773	2.335674	0.000276
 485	4.8158e+01	19.2765	149.143906	0.000446	4.460677	1.511318	0.000179
 486	4.8258e+01	19.3102	149.390171	0.000618	6.184120	2.095237	0.000248
 487	4.8357e+01	19.3599	149.612213	0.000558	5.575846	1.889148	0.000223
 488	4.8456e+01	19.4016	149.838293	0.000568	5.677225	1.923496	0.000227
 489	4.8556e+01	19.4369	150.052261	0.000537	5.373088	1.820451	0.000215
 490	4.8656e+01	19.4754	150.298526	0.000618	6.184120	2.095237	0.000248
 491	4.8755e+01	19.5267	150.492309	0.000487	4.866193	1.648711	0.000195
 492	4.8855e+01	19.5476	150.702240	0.000527	5.271709	1.786103	0.000211
 493	4.8954e+01	19.5973	150.912171	0.000527	5.271709	1.786103	0.000211
 494	4.9053e+01	19.6326	151.154399	0.000608	6.082741	2.060888	0.000243
 495	4.9153e+01	19.6791	151.360293	0.000517	5.170330	1.751755	0.000207
 496	4.9252e+01	19.7240	151.610596	0.000629	6.285499	2.129585	0.000252
 497	4.9352e+01	19.7625	151.816489	0.000517	5.170330	1.751755	0.000207
 498	4.9452e+01	19.7930	152.014309	0.000497	4.967572	1.683059	0.000199
 499	4.9551e+01	19.8347	152.260574	0.000618	6.184120	2.095237	0.000248
 500	4.9651e+01	19.8780	152.486654	0.000568	5.677225	1.923496	0.000227
 501	4.9750e+01	19.9166	152.716771	0.000578	5.778604	1.957844	0.000231
 502	4.9849e+01	19.9518	152.922665	0.000517	5.170330	1.751755	0.000207
 503	4.9949e+01	19.9871	153.108373	0.000466	4.663435	1.580014	0.000187
 504	5.0048e+01	19.9583	153.031667	0.000193	1.926201	0.652615	-0.000077
 505	5.0148e+01	19.9069	152.841922	0.000476	4.764814	1.614363	-0.000191
 506	5.0248e+01	19.8652	152.740994	0.000253	2.534475	0.858704	-0.000101
 507	5.0347e+01	19.8315	152.591619	0.000375	3.751024	1.270881	-0.000150
 508	5.0447e+01	19.8026	152.446283	0.000365	3.649645	1.236533	-0.000146
 509	5.0546e+01	19.7449	152.292871	0.000385	3.852403	1.305229	-0.000154
 510	5.0645e+01	19.7112	152.139460	0.000385	3.852403	1.305229	-0.000154
 511	5.0745e+01	19.6663	152.010272	0.000324	3.244129	1.099140	-0.000130
 512	5.0844e+01	19.6246	151.877046	0.000335	3.345508	1.133489	-0.000134
 513	5.0944e+01	19.5893	151.703450	0.000436	4.359298	1.476970	-0.000174
 514	5.1044e+01	19.5524	151.554076	0.000375	3.751024	1.270881	-0.000150
 515	5.1143e+01	19.5123	151.380479	0.000436	4.359298	1.476970	-0.000174
 516	5.1242e+01	19.4738	151.218993	0.000406	4.055161	1.373926	-0.000162
 517	5.1342e+01	19.4273	151.081731	0.000345	3.446887	1.167837	-0.000138
 518	5.1441e+01	19.3968	150.916208	0.000416	4.156540	1.408274	-0.000166
 519	5.1541e+01	19.3551	150.795094	0.000304	3.041370	1.030444	-0.000122
 520	5.1641e+01	19.3230	150.597274	0.000497	4.967572	1.683059	-0.000199
 521	5.1740e+01	19.2749	150.480197	0.000294	2.939991	0.996096	-0.000118
 522	5.1840e+01	19.2364	150.314675	0.000416	4.156540	1.408274	-0.000166
 523	5.1939e+01	19.1979	150.137041	0.000446	4.460677	1.511318	-0.000179
 524	5.2038e+01	19.1577	149.975556	0.000406	4.055161	1.373926	-0.000162
 525	5.2138e+01	19.1176	149.797922	0.000446	4.460677	1.511318	-0.000179
 526	5.2237e+01	19.0711	149.656622	0.000355	3.548266	1.202185	-0.000142
 527	5.2337e+01	19.0535	149.495136	0.000406	4.055161	1.373926	-0.000162
 528	5.2437e+01	18.9941	149.349799	0.000365	3.649645	1.236533	-0.000146
 529	5.2536e+01	18.9524	149.151980	0.000497	4.967572	1.683059	-0.000199
 530	5.2636e+01	18.9203	148.994532	0.000395	3.953782	1.339577	-0.000158
 531	5.2735e+01	18.8850	148.804786	0.000476	4.764814	1.614363	-0.000191
 532	5.2834e+01	18.8369	148.671561	0.000335	3.345508	1.133489	-0.000134
 533	5.2934e+01	18.8000	148.485852	0.000466	4.663435	1.580014	-0.000187
 534	5.3033e+01	18.7695	148.336478	0.000375	3.751024	1.270881	-0.000150
 535	5.3133e+01	18.7198	148.146733	0.000476	4.764814	1.614363	-0.000191
 536	5.3233e+01	18.6925	147.936802	0.000527	5.271709	1.786103	-0.000211
 537	5.3332e+01	18.6444	147.811651	0.000314	3.142749	1.064792	-0.000126
 538	5.3431e+01	18.5979	147.638054	0.000436	4.359298	1.476970	-0.000174
 539	5.3531e+01	18.5578	147.440234	0.000497	4.967572	1.683059	-0.000199
 540	5.3630e+01	18.5193	147.270675	0.000426	4.257919	1.442622	-0.000170
 541	5.3730e+01	18.4808	147.133412	0.000345	3.446887	1.167837	-0.000138
 542	5.3830e+01	18.4455	146.931555	0.000507	5.068951	1.717407	-0.000203
 543	5.3929e+01	18.4070	146.806404	0.000314	3.142749	1.064792	-0.000126
 544	5.4029e+01	18.3556	146.608584	0.000497	4.967572	1.683059	-0.000199
 545	5.4128e+01	18.3268	146.418839	0.000476	4.764814	1.614363	-0.000191
 546	5.4227e+01	18.2722	146.237168	0.000456	4.562056	1.545666	-0.000183
 547	5.4327e+01	18.2433	146.079720	0.000395	3.953782	1.339577	-0.000158
 548	5.4426e+01	18.1984	145.898048	0.000456	4.562056	1.545666	-0.000183
 549	5.4526e+01	18.1551	145.728489	0.000426	4.257919	1.442622	-0.000170
 550	5.4626e+01	18.1246	145.567003	0.000406	4.055161	1.373926	-0.000162
 551	5.4725e+01	18.0797	145.377258	0.000476	4.764814	1.614363	-0.000191
 552	5.4825e+01	18.0348	145.211735	0.000416	4.156540	1.408274	-0.000166
 553	5.4924e+01	18.0027	145.046213	0.000416	4.156540	1.408274	-0.000166
 554	5.5023e+01	17.9594	144.848393	0.000497	4.967572	1.683059	-0.000199
 555	5.5123e+01	17.9225	144.666722	0.000456	4.562056	1.545666	-0.000183
 556	5.5222e+01	17.8856	144.456791	0.000527	5.271709	1.786103	-0.000211
 557	5.5322e+01	17.8471	144.339714	0.000294	2.939991	0.996096	-0.000118
 558	5.5422e+01	17.8038	144.101523	0.000598	5.981362	2.026540	-0.000239
 559	5.5521e+01	17.7653	143.944075	0.000395	3.953782	1.339577	-0.000158
 560	5.5620e+01	17.7204	143.774515	0.000426	4.257919	1.442622	-0.000170
 561	5.5720e+01	17.6899	143.592844	0.000456	4.562056	1.545666	-0.000183
 562	5.5819e+01	17.6482	143.427321	0.000416	4.156540	1.408274	-0.000166
 563	5.5919e+01	17.6049	143.237576	0.000476	4.764814	1.614363	-0.000191
 564	5.6019e+01	17.5647	143.043793	0.000487	4.866193	1.648711	-0.000195
 565	5.6118e+01	17.5262	142.829825	0.000537	5.373088	1.820451	-0.000215
 566	5.6218e+01	17.4877	142.652191	0.000446	4.460677	1.511318	-0.000179
 567	5.6317e+01	17.4412	142.486669	0.000416	4.156540	1.408274	-0.000166
 568	5.6416e+01	17.4027	142.280775	0.000517	5.170330	1.751755	-0.000207
 569	5.6516e+01	17.3594	142.070844	0.000527	5.271709	1.786103	-0.000211
 570	5.6615e+01	17.3257	141.929544	0.000355	3.548266	1.202185	-0.000142
 571	5.6715e+01	17.2920	141.731724	0.000497	4.967572	1.683059	-0.000199
 572	5.6815e+01	17.2503	141.570239	0.000406	4.055161	1.373926	-0.000162
 573	5.6914e+01	17.2054	141.344159	0.000568	5.677225	1.923496	-0.000227
 574	5.7014e+01	17.1749	141.170562	0.000436	4.359298	1.476970	-0.000174
 575	5.7113e+01	17.1300	141.017151	0.000385	3.852403	1.305229	-0.000154
 576	5.7212e+01	17.0931	140.799146	0.000547	5.474467	1.854800	-0.000219
 577	5.7312e+01	17.0482	140.645735	0.000385	3.852403	1.305229	-0.000154
 578	5.7411e+01	17.0049	140.484249	0.000406	4.055161	1.373926	-0.000162
 579	5.7511e+01	16.9632	140.233947	0.000629	6.285499	2.129585	-0.000252
 580	5.7611e+01	16.9279	140.056313	0.000446	4.460677	1.511318	-0.000179
 581	5.7710e+01	16.8846	139.898865	0.000395	3.953782	1.339577	-0.000158
 582	5.7809e+01	16.8380	139.705082	0.000487	4.866193	1.648711	-0.000195
 583	5.7909e+01	16.8059	139.547634	0.000395	3.953782	1.339577	-0.000158
 584	5.8008e+01	16.7658	139.349814	0.000497	4.967572	1.683059	-0.000199
 585	5.8108e+01	16.7289	139.184292	0.000416	4.156540	1.408274	-0.000166
 586	5.8208e+01	16.6920	138.978398	0.000517	5.170330	1.751755	-0.000207
 587	5.8307e+01	16.6359	138.804801	0.000436	4.359298	1.476970	-0.000174
 588	5.8407e+01	16.5990	138.631204	0.000436	4.359298	1.476970	-0.000174
 589	5.8506e+01	16.5669	138.405125	0.000568	5.677225	1.923496	-0.000227
 590	5.8605e+01	16.5284	138.235565	0.000426	4.257919	1.442622	-0.000170
 591	5.8705e+01	16.4883	138.037745	0.000497	4.967572	1.683059	-0.000199
 592	5.8804e+01	16.4402	137.839926	0.000497	4.967572	1.683059	-0.000199
 593	5.8904e+01	16.4097	137.654217	0.000466	4.663435	1.580014	-0.000187
 594	5.9004e+01	16.3664	137.480620	0.000436	4.359298	1.476970	-0.000174
 595	5.9103e+01	16.3167	137.274727	0.000517	5.170330	1.751755	-0.000207
 596	5.9203e+01	16.2846	137.109204	0.000416	4.156540	1.408274	-0.000166
 597	5.9302e+01	16.2509	136.915421	0.000487	4.866193	1.648711	-0.000195
 598	5.9401e+01	16.2011	136.733750	0.000456	4.562056	1.545666	-0.000183
 599	5.9501e+01	16.1675	136.527856	0.000517	5.170330	1.751755	-0.000207
 600	5.9600e+01	16.1257	136.309851	0.000547	5.474467	1.854800	-0.000219
 601	5.9700e+01	16.0808	136.204886	0.000264	2.635854	0.893052	-0.000105
 602	5.9800e+01	16.0471	135.946509	0.000649	6.488257	2.198281	-0.000260
 603	5.9899e+01	16.0038	135.736578	0.000527	5.271709	1.786103	-0.000211
 604	5.9998e+01	15.9669	135.571055	0.000416	4.156540	1.408274	-0.000166
 605	6.0098e+01	15.9284	135.373236	0.000497	4.967572	1.683059	-0.000199
 606	6.0197e+01	15.8915	135.167342	0.000517	5.170330	1.751755	-0.000207
 607	6.0297e+01	15.8659	135.013930	0.000385	3.852403	1.305229	-0.000154
 608	6.0397e+01	15.8049	134.759591	0.000639	6.386878	2.163933	-0.000256
 609	6.0496e+01	15.7632	134.618291	0.000355	3.548266	1.202185	-0.000142
 610	6.0596e+01	15.7247	134.420472	0.000497	4.967572	1.683059	-0.000199
 611	6.0695e+01	15.6958	134.218615	0.000507	5.068951	1.717407	-0.000203
 612	6.0794e+01	15.6461	134.000609	0.000547	5.474467	1.854800	-0.000219
 613	6.0894e+01	15.6140	133.818938	0.000456	4.562056	1.545666	-0.000183
 614	6.0993e+01	15.5675	133.613044	0.000517	5.170330	1.751755	-0.000207
 615	6.1093e+01	15.5338	133.455596	0.000395	3.953782	1.339577	-0.000158
 616	6.1193e+01	15.4841	133.277962	0.000446	4.460677	1.511318	-0.000179
 617	6.1292e+01	15.4407	133.019585	0.000649	6.488257	2.198281	-0.000260
 618	6.1392e+01	15.4167	132.850026	0.000426	4.257919	1.442622	-0.000170
 619	6.1491e+01	15.3686	132.668355	0.000456	4.562056	1.545666	-0.000183
 620	6.1590e+01	15.3365	132.454386	0.000537	5.373088	1.820451	-0.000215
 621	6.1690e+01	15.2964	132.280790	0.000436	4.359298	1.476970	-0.000174
 622	6.1789e+01	15.2498	132.082970	0.000497	4.967572	1.683059	-0.000199
 623	6.1889e+01	15.2097	131.905336	0.000446	4.460677	1.511318	-0.000179
 624	6.1989e+01	15.1760	131.630811	0.000689	6.893773	2.335674	-0.000276
 625	6.2088e+01	15.1327	131.457214	0.000436	4.359298	1.476970	-0.000174
 626	6.2188e+01	15.0894	131.267469	0.000476	4.764814	1.614363	-0.000191
 627	6.2287e+01	15.0557	131.053500	0.000537	5.373088	1.820451	-0.000215
 628	6.2386e+01	15.0156	130.855681	0.000497	4.967572	1.683059	-0.000199
 629	6.2486e+01	14.9691	130.694195	0.000406	4.055161	1.373926	-0.000162
 630	6.2586e+01	14.9338	130.435819	0.000649	6.488257	2.198281	-0.000260
 631	6.2685e+01	14.8953	130.258185	0.000446	4.460677	1.511318	-0.000179
 632	6.2785e+01	14.8504	130.052291	0.000517	5.170330	1.751755	-0.000207
 633	6.2884e+01	14.8199	129.850434	0.000507	5.068951	1.717407	-0.000203
 634	6.2983e+01	14.7702	129.664726	0.000466	4.663435	1.580014	-0.000187
 635	6.3083e+01	14.7333	129.462869	0.000507	5.068951	1.717407	-0.000203
 636	6.3182e+01	14.6964	129.244864	0.000547	5.474467	1.854800	-0.000219
 637	6.3282e+01	14.6579	129.026858	0.000547	5.474467	1.854800	-0.000219
 638	6.3382e+01	14.6210	128.857298	0.000426	4.257919	1.442622	-0.000170
 639	6.3481e+01	14.5696	128.647367	0.000527	5.271709	1.786103	-0.000211
 640	6.3581e+01	14.5392	128.429362	0.000547	5.474467	1.854800	-0.000219
 641	6.3680e+01	14.4958	128.271914	0.000395	3.953782	1.339577	-0.000158
 642	6.3779e+01	14.4557	128.037760	0.000588	5.879983	1.992192	-0.000235
 643	6.3879e+01	14.4188	127.848015	0.000476	4.764814	1.614363	-0.000191
 644	6.3978e+01	14.3707	127.630009	0.000547	5.474467	1.854800	-0.000219
 645	6.4078e+01	14.3338	127.460450	0.000426	4.257919	1.442622	-0.000170
 646	6.4177e+01	14.2969	127.238407	0.000558	5.575846	1.889148	-0.000223
 647	6.4277e+01	14.2504	127.024439	0.000537	5.373088	1.820451	-0.000215
 648	6.4376e+01	14.2135	126.810471	0.000537	5.373088	1.820451	-0.000215
 649	6.4476e+01	14.1798	126.661097	0.000375	3.751024	1.270881	-0.000150
 650	6.4576e+01	14.1301	126.406757	0.000639	6.386878	2.163933	-0.000256
 651	6.4675e+01	14.1012	126.245272	0.000406	4.055161	1.373926	-0.000162
 652	6.4775e+01	14.0483	125.990932	0.000639	6.386878	2.163933	-0.000256
 653	6.4874e+01	14.0258	125.817335	0.000436	4.359298	1.476970	-0.000174
 654	6.4974e+01	13.9745	125.599330	0.000547	5.474467	1.854800	-0.000219
 655	6.5073e+01	13.9344	125.401510	0.000497	4.967572	1.683059	-0.000199
 656	6.5172e+01	13.8798	125.163319	0.000598	5.981362	2.026540	-0.000239
 657	6.5272e+01	13.8590	124.969537	0.000487	4.866193	1.648711	-0.000195
 658	6.5371e+01	13.8108	124.775754	0.000487	4.866193	1.648711	-0.000195
 659	6.5471e+01	13.7900	124.569860	0.000517	5.170330	1.751755	-0.000207
 660	6.5570e+01	13.7354	124.372041	0.000497	4.967572	1.683059	-0.000199
 661	6.5670e+01	13.6953	124.137887	0.000588	5.879983	1.992192	-0.000235
 662	6.5769e+01	13.6649	123.915844	0.000558	5.575846	1.889148	-0.000223
 663	6.5869e+01	13.6231	123.750322	0.000416	4.156540	1.408274	-0.000166
 664	6.5969e+01	13.5782	123.491945	0.000649	6.488257	2.198281	-0.000260
 665	6.6068e+01	13.5461	123.265865	0.000568	5.677225	1.923496	-0.000227
 666	6.6168e+01	13.4916	123.084194	0.000456	4.562056	1.545666	-0.000183
 667	6.6267e+01	13.4643	122.874263	0.000527	5.271709	1.786103	-0.000211
 668	6.6367e+01	13.4130	122.668369	0.000517	5.170330	1.751755	-0.000207
 669	6.6466e+01	13.3777	122.446327	0.000558	5.575846	1.889148	-0.000223
 670	6.6566e+01	13.3392	122.244470	0.000507	5.068951	1.717407	-0.000203
 671	6.6665e+01	13.2975	122.030502	0.000537	5.373088	1.820451	-0.000215
 672	6.6764e+01	13.2606	121.824608	0.000517	5.170330	1.751755	-0.000207
 673	6.6864e+01	13.2109	121.598528	0.000568	5.677225	1.923496	-0.000227
 674	6.6963e+01	13.1772	121.396672	0.000507	5.068951	1.717407	-0.000203
 675	6.7063e+01	13.1435	121.178666	0.000547	5.474467	1.854800	-0.000219
 676	6.7162e+01	13.0905	120.964698	0.000537	5.373088	1.820451	-0.000215
 677	6.7262e+01	13.0585	120.718433	0.000618	6.184120	2.095237	-0.000248
 678	6.7362e+01	13.0151	120.512539	0.000517	5.170330	1.751755	-0.000207
 679	6.7461e+01	12.9782	120.318756	0.000487	4.866193	1.648711	-0.000195
 680	6.7561e+01	12.9446	120.100751	0.000547	5.474467	1.854800	-0.000219
 681	6.7660e+01	12.8964	119.862560	0.000598	5.981362	2.026540	-0.000239
 682	6.7760e+01	12.8627	119.672815	0.000476	4.764814	1.614363	-0.000191
 683	6.7859e+01	12.8146	119.462884	0.000527	5.271709	1.786103	-0.000211
 684	6.7959e+01	12.7825	119.232767	0.000578	5.778604	1.957844	-0.000231
 685	6.8058e+01	12.7424	119.014762	0.000547	5.474467	1.854800	-0.000219
 686	6.8157e+01	12.6991	118.812905	0.000507	5.068951	1.717407	-0.000203
 687	6.8257e+01	12.6590	118.590862	0.000558	5.575846	1.889148	-0.000223
 688	6.8356e+01	12.6221	118.364783	0.000568	5.677225	1.923496	-0.000227
 689	6.8456e+01	12.5868	118.199260	0.000416	4.156540	1.408274	-0.000166
 690	6.8555e+01	12.5467	117.965106	0.000588	5.879983	1.992192	-0.000235
 691	6.8655e+01	12.4954	117.730952	0.000588	5.879983	1.992192	-0.000235
 692	6.8754e+01	12.4745	117.488724	0.000608	6.082741	2.060888	-0.000243
 693	6.8854e+01	12.4200	117.315127	0.000436	4.359298	1.476970	-0.000174
 694	6.8954e+01	12.3799	117.048676	0.000669	6.691015	2.266977	-0.000268
 695	6.9053e+01	12.3414	116.822597	0.000568	5.677225	1.923496	-0.000227
 696	6.9153e+01	12.3045	116.636889	0.000466	4.663435	1.580014	-0.000187
 697	6.9252e+01	12.2612	116.410809	0.000568	5.677225	1.923496	-0.000227
 698	6.9352e+01	12.2226	116.188767	0.000558	5.575846	1.889148	-0.000223
 699	6.9451e+01	12.1841	115.994984	0.000487	4.866193	1.648711	-0.000195
 700	6.9550e+01	12.1537	115.740644	0.000639	6.386878	2.163933	-0.000256
 701	6.9650e+01	12.1104	115.526676	0.000537	5.373088	1.820451	-0.000215
 702	6.9749e+01	12.0622	115.308671	0.000547	5.474467	1.854800	-0.000219
 703	6.9849e+01	12.0173	115.098740	0.000527	5.271709	1.786103	-0.000211
 704	6.9948e+01	11.9788	114.840363	0.000649	6.488257	2.198281	-0.000260
 705	7.0048e+01	11.9483	114.650618	0.000476	4.764814	1.614363	-0.000191
 706	7.0147e+01	11.9018	114.420501	0.000578	5.778604	1.957844	-0.000231
 707	7.0247e+01	11.8617	114.190384	0.000578	5.778604	1.957844	-0.000231
 708	7.0347e+01	11.8328	113.968342	0.000558	5.575846	1.889148	-0.000223
 709	7.0446e+01	11.7879	113.734188	0.000588	5.879983	1.992192	-0.000235
 710	7.0546e+01	11.7430	113.508108	0.000568	5.677225	1.923496	-0.000227
 711	7.0645e+01	11.7109	113.286066	0.000558	5.575846	1.889148	-0.000223
 712	7.0745e+01	11.6692	113.072098	0.000537	5.373088	1.820451	-0.000215
 713	7.0844e+01	11.6259	112.862167	0.000527	5.271709	1.786103	-0.000211
 714	7.0944e+01	11.5826	112.615901	0.000618	6.184120	2.095237	-0.000248
 715	7.1043e+01	11.5392	112.426156	0.000476	4.764814	1.614363	-0.000191
 716	7.1142e+01	11.5056	112.187965	0.000598	5.981362	2.026540	-0.000239
 717	7.1242e+01	11.4703	111.973997	0.000537	5.373088	1.820451	-0.000215
 718	7.1341e+01	11.4125	111.772140	0.000507	5.068951	1.717407	-0.000203
 719	7.1441e+01	11.3997	111.513763	0.000649	6.488257	2.198281	-0.000260
 720	7.1540e+01	11.3419	111.283647	0.000578	5.778604	1.957844	-0.000231
 721	7.1640e+01	11.3098	111.061604	0.000558	5.575846	1.889148	-0.000223
 722	7.1740e+01	11.2585	110.831487	0.000578	5.778604	1.957844	-0.000231
 723	7.1839e+01	11.2264	110.621556	0.000527	5.271709	1.786103	-0.000211
 724	7.1939e+01	11.1927	110.367217	0.000639	6.386878	2.163933	-0.000256
 725	7.2038e+01	11.1414	110.116914	0.000629	6.285499	2.129585	-0.000252
 726	7.2138e+01	11.1109	109.911020	0.000517	5.170330	1.751755	-0.000207
 727	7.2237e+01	11.0660	109.676867	0.000588	5.879983	1.992192	-0.000235
 728	7.2337e+01	11.0291	109.466936	0.000527	5.271709	1.786103	-0.000211
 729	7.2436e+01	10.9826	109.220670	0.000618	6.184120	2.095237	-0.000248
 730	7.2535e+01	10.9585	108.982479	0.000598	5.981362	2.026540	-0.000239
 731	7.2635e+01	10.9120	108.776585	0.000517	5.170330	1.751755	-0.000207
 732	7.2734e+01	10.8687	108.518209	0.000649	6.488257	2.198281	-0.000260
 733	7.2834e+01	10.8414	108.292129	0.000568	5.677225	1.923496	-0.000227
 734	7.2933e+01	10.7901	108.041827	0.000629	6.285499	2.129585	-0.000252
 735	7.3033e+01	10.7484	107.803636	0.000598	5.981362	2.026540	-0.000239
 736	7.3132e+01	10.7131	107.601779	0.000507	5.068951	1.717407	-0.000203
 737	7.3232e+01	10.6730	107.395885	0.000517	5.170330	1.751755	-0.000207
 738	7.3332e+01	10.6232	107.137508	0.000649	6.488257	2.198281	-0.000260
 739	7.3431e+01	10.6008	106.895280	0.000608	6.082741	2.060888	-0.000243
 740	7.3531e+01	10.5510	106.657089	0.000598	5.981362	2.026540	-0.000239
 741	7.3630e+01	10.5125	106.431009	0.000568	5.677225	1.923496	-0.000227
 742	7.3730e+01	10.4580	106.188781	0.000608	6.082741	2.060888	-0.000243
 743	7.3829e+01	10.4291	105.950590	0.000598	5.981362	2.026540	-0.000239
 744	7.3928e+01	10.3986	105.736622	0.000537	5.373088	1.820451	-0.000215
 745	7.4028e+01	10.3425	105.538802	0.000497	4.967572	1.683059	-0.000199
 746	7.4127e+01	10.3088	105.296574	0.000608	6.082741	2.060888	-0.000243
 747	7.4227e+01	10.2719	105.050309	0.000618	6.184120	2.095237	-0.000248
 748	7.4326e+01	10.2206	104.808081	0.000608	6.082741	2.060888	-0.000243
 749	7.4426e+01	10.1965	104.610261	0.000497	4.967572	1.683059	-0.000199
 750	7.4525e+01	10.1564	104.335736	0.000689	6.893773	2.335674	-0.000276
 751	7.4625e+01	10.1083	104.093508	0.000608	6.082741	2.060888	-0.000243
 752	7.4725e+01	10.0650	103.887614	0.000517	5.170330	1.751755	-0.000207
 753	7.4824e+01	10.0377	103.629237	0.000649	6.488257	2.198281	-0.000260
 754	7.4924e+01	9.9896	103.374898	0.000639	6.386878	2.163933	-0.000256
 755	7.5023e+01	9.9478	103.181115	0.000487	4.866193	1.648711	-0.000195
 756	7.5123e+01	9.9158	102.930813	0.000629	6.285499	2.129585	-0.000252
 757	7.5222e+01	9.8837	102.700696	0.000578	5.778604	1.957844	-0.000231
 758	7.5322e+01	9.8307	102.446356	0.000639	6.386878	2.163933	-0.000256
 759	7.5421e+01	9.8019	102.272760	0.000436	4.359298	1.476970	-0.000174
 760	7.5520e+01	9.7585	102.010346	0.000659	6.589636	2.232629	-0.000264
 761	7.5620e+01	9.7217	101.747932	0.000659	6.589636	2.232629	-0.000264
 762	7.5719e+01	9.6687	101.493592	0.000639	6.386878	2.163933	-0.000256
 763	7.5819e+01	9.6286	101.275587	0.000547	5.474467	1.854800	-0.000219
 764	7.5918e+01	9.5885	101.025285	0.000629	6.285499	2.129585	-0.000252
 765	7.6018e+01	9.5564	100.783057	0.000608	6.082741	2.060888	-0.000243
 766	7.6118e+01	9.5083	100.561014	0.000558	5.575846	1.889148	-0.000223
 767	7.6217e+01	9.4746	100.294563	0.000669	6.691015	2.266977	-0.000268
 768	7.6317e+01	9.4297	100.064446	0.000578	5.778604	1.957844	-0.000231
 769	7.6416e+01	9.4024	99.818181	0.000618	6.184120	2.095237	-0.000248
 770	7.6516e+01	9.3559	99.575953	0.000608	6.082741	2.060888	-0.000243
 771	7.6615e+01	9.3158	99.345836	0.000578	5.778604	1.957844	-0.000231
 772	7.6715e+01	9.2757	99.099571	0.000618	6.184120	2.095237	-0.000248
 773	7.6814e+01	9.2388	98.833120	0.000669	6.691015	2.266977	-0.000268
 774	7.6913e+01	9.1955	98.603003	0.000578	5.778604	1.957844	-0.000231
 775	7.7013e+01	9.1489	98.312329	0.000730	7.299289	2.473066	-0.000292
 776	7.7112e+01	9.1169	98.090287	0.000558	5.575846	1.889148	-0.000223
 777	7.7212e+01	9.0735	97.848059	0.000608	6.082741	2.060888	-0.000243
 778	7.7311e+01	9.0302	97.589682	0.000649	6.488257	2.198281	-0.000260
 779	7.7411e+01	8.9949	97.403974	0.000466	4.663435	1.580014	-0.000187
 780	7.7510e+01	8.9661	97.153672	0.000629	6.285499	2.129585	-0.000252
 781	7.7610e+01	8.9179	96.895295	0.000649	6.488257	2.198281	-0.000260
 782	7.7710e+01	8.8714	96.653067	0.000608	6.082741	2.060888	-0.000243
 783	7.7809e+01	8.8345	96.382579	0.000679	6.792394	2.301325	-0.000272
 784	7.7909e+01	8.8008	96.144388	0.000598	5.981362	2.026540	-0.000239
 785	7.8008e+01	8.7655	95.898122	0.000618	6.184120	2.095237	-0.000248
 786	7.8108e+01	8.7158	95.647820	0.000629	6.285499	2.129585	-0.000252
 787	7.8207e+01	8.6773	95.397517	0.000629	6.285499	2.129585	-0.000252
 788	7.8306e+01	8.6388	95.114918	0.000710	7.096531	2.404370	-0.000284
 789	7.8406e+01	8.5923	94.904987	0.000527	5.271709	1.786103	-0.000211
 790	7.8505e+01	8.5586	94.670833	0.000588	5.879983	1.992192	-0.000235
 791	7.8605e+01	8.5265	94.384196	0.000720	7.197910	2.438718	-0.000288
 792	7.8704e+01	8.4752	94.158117	0.000568	5.677225	1.923496	-0.000227
 793	7.8804e+01	8.4254	93.911852	0.000618	6.184120	2.095237	-0.000248
 794	7.8903e+01	8.4030	93.661549	0.000629	6.285499	2.129585	-0.000252
 795	7.9003e+01	8.3581	93.378950	0.000710	7.096531	2.404370	-0.000284
 796	7.9103e+01	8.3179	93.136721	0.000608	6.082741	2.060888	-0.000243
 797	7.9202e+01	8.2843	92.882382	0.000639	6.386878	2.163933	-0.000256
 798	7.9302e+01	8.2409	92.652265	0.000578	5.778604	1.957844	-0.000231
 799	7.9401e+01	8.2008	92.377740	0.000689	6.893773	2.335674	-0.000276
 800	7.9501e+01	8.1543	92.111289	0.000669	6.691015	2.266977	-0.000268
 801	7.9600e+01	8.1190	91.856949	0.000639	6.386878	2.163933	-0.000256
 802	7.9700e+01	8.0853	91.638944	0.000547	5.474467	1.854800	-0.000219
 803	7.9799e+01	8.0372	91.320010	0.000801	8.008942	2.713503	-0.000321
 804	7.9898e+01	8.0019	91.130265	0.000476	4.764814	1.614363	-0.000191
 805	7.9998e+01	7.9586	90.855740	0.000689	6.893773	2.335674	-0.000276
 806	8.0097e+01	7.9281	90.581215	0.000689	6.893773	2.335674	-0.000276
 807	8.0197e+01	7.8800	90.347061	0.000588	5.879983	1.992192	-0.000235
 808	8.0296e+01	7.8415	90.104833	0.000608	6.082741	2.060888	-0.000243
 809	8.0396e+01	7.7966	89.838382	0.000669	6.691015	2.266977	-0.000268
 810	8.0496e+01	7.7661	89.584042	0.000639	6.386878	2.163933	-0.000256
 811	8.0595e+01	7.7308	89.325665	0.000649	6.488257	2.198281	-0.000260
 812	8.0695e+01	7.6746	89.067289	0.000649	6.488257	2.198281	-0.000260
 813	8.0794e+01	7.6361	88.808912	0.000649	6.488257	2.198281	-0.000260
 814	8.0894e+01	7.6105	88.554572	0.000639	6.386878	2.163933	-0.000256
 815	8.0993e+01	7.5559	88.271973	0.000710	7.096531	2.404370	-0.000284
 816	8.1093e+01	7.5190	88.053968	0.000547	5.474467	1.854800	-0.000219
 817	8.1192e+01	7.4886	87.799628	0.000639	6.386878	2.163933	-0.000256
 818	8.1291e+01	7.4404	87.537214	0.000659	6.589636	2.232629	-0.000264
 819	8.1391e+01	7.4035	87.250578	0.000720	7.197910	2.438718	-0.000288
 820	8.1490e+01	7.3714	86.984127	0.000669	6.691015	2.266977	-0.000268
 821	8.1590e+01	7.3265	86.778233	0.000517	5.170330	1.751755	-0.000207
 822	8.1689e+01	7.2752	86.479485	0.000750	7.502047	2.541762	-0.000300
 823	8.1789e+01	7.2351	86.269554	0.000527	5.271709	1.786103	-0.000211
 824	8.1888e+01	7.2078	85.962731	0.000770	7.704805	2.610459	-0.000308
 825	8.1988e+01	7.1565	85.704355	0.000649	6.488257	2.198281	-0.000260
 826	8.2088e+01	7.1228	85.425792	0.000700	6.995152	2.370022	-0.000280
 827	8.2187e+01	7.0859	85.167416	0.000649	6.488257	2.198281	-0.000260
 828	8.2287e+01	7.0442	84.876742	0.000730	7.299289	2.473066	-0.000292
 829	8.2386e+01	7.0121	84.602217	0.000689	6.893773	2.335674	-0.000276
 830	8.2486e+01	6.9672	84.380174	0.000558	5.575846	1.889148	-0.000223
 831	8.2585e+01	6.9207	84.069315	0.000781	7.806184	2.644807	-0.000312
 832	8.2684e+01	6.8870	83.831124	0.000598	5.981362	2.026540	-0.000239
 833	8.2784e+01	6.8340	83.528338	0.000760	7.603426	2.576111	-0.000304
 834	8.2883e+01	6.7971	83.269962	0.000649	6.488257	2.198281	-0.000260
 835	8.2983e+01	6.7634	83.019659	0.000629	6.285499	2.129585	-0.000252
 836	8.3082e+01	6.7298	82.765320	0.000639	6.386878	2.163933	-0.000256
 837	8.3182e+01	6.6784	82.446386	0.000801	8.008942	2.713503	-0.000321
 838	8.3281e+01	6.6447	82.216269	0.000578	5.778604	1.957844	-0.000231
 839	8.3381e+01	6.5998	81.909447	0.000770	7.704805	2.610459	-0.000308
 840	8.3481e+01	6.5709	81.651070	0.000649	6.488257	2.198281	-0.000260
 841	8.3580e+01	6.5164	81.396731	0.000639	6.386878	2.163933	-0.000256
 842	8.3680e+01	6.4795	81.093946	0.000760	7.603426	2.576111	-0.000304
 843	8.3779e+01	6.4602	80.843643	0.000629	6.285499	2.129585	-0.000252
 844	8.3879e+01	6.4169	80.561044	0.000710	7.096531	2.404370	-0.000284
 845	8.3978e+01	6.3720	80.306704	0.000639	6.386878	2.163933	-0.000256
 846	8.4078e+01	6.3319	80.040253	0.000669	6.691015	2.266977	-0.000268
 847	8.4177e+01	6.2966	79.753617	0.000720	7.197910	2.438718	-0.000288
 848	8.4276e+01	6.2469	79.511388	0.000608	6.082741	2.060888	-0.000243
 849	8.4376e+01	6.2052	79.208603	0.000760	7.603426	2.576111	-0.000304
 850	8.4475e+01	6.1731	78.930041	0.000700	6.995152	2.370022	-0.000280
 851	8.4575e+01	6.1394	78.663590	0.000669	6.691015	2.266977	-0.000268
 852	8.4674e+01	6.0816	78.393102	0.000679	6.792394	2.301325	-0.000272
 853	8.4774e+01	6.0512	78.150874	0.000608	6.082741	2.060888	-0.000243
 854	8.4874e+01	6.0127	77.811754	0.000852	8.515837	2.885244	-0.000341
 855	8.4973e+01	5.9645	77.557415	0.000639	6.386878	2.163933	-0.000256
 856	8.5073e+01	5.9292	77.282889	0.000689	6.893773	2.335674	-0.000276
 857	8.5172e+01	5.8923	77.016438	0.000669	6.691015	2.266977	-0.000268
 858	8.5272e+01	5.8426	76.709616	0.000770	7.704805	2.610459	-0.000308
 859	8.5371e+01	5.8105	76.451239	0.000649	6.488257	2.198281	-0.000260
 860	8.5471e+01	5.7704	76.172677	0.000700	6.995152	2.370022	-0.000280
 861	8.5570e+01	5.7255	75.886040	0.000720	7.197910	2.438718	-0.000288
 862	8.5669e+01	5.7014	75.643812	0.000608	6.082741	2.060888	-0.000243
 863	8.5769e+01	5.6437	75.381399	0.000659	6.589636	2.232629	-0.000264
 864	8.5868e+01	5.6148	75.042279	0.000852	8.515837	2.885244	-0.000341
 865	8.5968e+01	5.5683	74.767754	0.000689	6.893773	2.335674	-0.000276
 866	8.6067e+01	5.5346	74.505340	0.000659	6.589636	2.232629	-0.000264
 867	8.6167e+01	5.4993	74.214666	0.000730	7.299289	2.473066	-0.000292
 868	8.6266e+01	5.4592	73.944178	0.000679	6.792394	2.301325	-0.000272
 869	8.6366e+01	5.4143	73.669653	0.000689	6.893773	2.335674	-0.000276
 870	8.6466e+01	5.3710	73.366868	0.000760	7.603426	2.576111	-0.000304
 871	8.6565e+01	5.3293	73.092343	0.000689	6.893773	2.335674	-0.000276
 872	8.6665e+01	5.2827	72.793594	0.000750	7.502047	2.541762	-0.000300
 873	8.6764e+01	5.2490	72.482735	0.000781	7.806184	2.644807	-0.000312
 874	8.6864e+01	5.2073	72.244544	0.000598	5.981362	2.026540	-0.000239
 875	8.6963e+01	5.1801	71.937722	0.000770	7.704805	2.610459	-0.000308
 876	8.7063e+01	5.1319	71.634937	0.000760	7.603426	2.576111	-0.000304
 877	8.7162e+01	5.0902	71.368486	0.000669	6.691015	2.266977	-0.000268
 878	8.7261e+01	5.0565	71.085886	0.000710	7.096531	2.404370	-0.000284
 879	8.7361e+01	5.0148	70.795212	0.000730	7.299289	2.473066	-0.000292
 880	8.7460e+01	4.9763	70.508576	0.000720	7.197910	2.438718	-0.000288
 881	8.7560e+01	4.9346	70.209828	0.000750	7.502047	2.541762	-0.000300
 882	8.7659e+01	4.8865	69.979711	0.000578	5.778604	1.957844	-0.000231
 883	8.7759e+01	4.8576	69.644629	0.000841	8.414458	2.850896	-0.000337
 884	8.7859e+01	4.8143	69.422586	0.000558	5.575846	1.889148	-0.000223
 885	8.7958e+01	4.7742	69.075392	0.000872	8.718595	2.953940	-0.000349
 886	8.8058e+01	4.7309	68.792793	0.000710	7.096531	2.404370	-0.000284
 887	8.8157e+01	4.6956	68.530379	0.000659	6.589636	2.232629	-0.000264
 888	8.8257e+01	4.6603	68.243743	0.000720	7.197910	2.438718	-0.000288
 889	8.8356e+01	4.6122	67.920772	0.000811	8.110321	2.747851	-0.000325
 890	8.8456e+01	4.5753	67.650284	0.000679	6.792394	2.301325	-0.000272
 891	8.8555e+01	4.5368	67.359610	0.000730	7.299289	2.473066	-0.000292
 892	8.8654e+01	4.4870	67.048750	0.000781	7.806184	2.644807	-0.000312
 893	8.8754e+01	4.4517	66.758077	0.000730	7.299289	2.473066	-0.000292
 894	8.8853e+01	4.4068	66.467403	0.000730	7.299289	2.473066	-0.000292
 895	8.8953e+01	4.3780	66.196915	0.000679	6.792394	2.301325	-0.000272
 896	8.9052e+01	4.3346	65.926427	0.000679	6.792394	2.301325	-0.000272
 897	8.9152e+01	4.2913	65.603456	0.000811	8.110321	2.747851	-0.000325
 898	8.9251e+01	4.2544	65.292596	0.000781	7.806184	2.644807	-0.000312
 899	8.9351e+01	4.2159	65.001923	0.000730	7.299289	2.473066	-0.000292
 900	8.9451e+01	4.1806	64.691063	0.000781	7.806184	2.644807	-0.000312
 901	8.9550e+01	4.1357	64.440761	0.000629	6.285499	2.129585	-0.000252
 902	8.9650e+01	4.0988	64.093567	0.000872	8.718595	2.953940	-0.000349
 903	8.9749e+01	4.0651	63.798856	0.000740	7.400668	2.507414	-0.000296
 904	8.9849e+01	4.0186	63.492034	0.000770	7.704805	2.610459	-0.000308
 905	8.9948e+01	3.9785	63.229620	0.000659	6.589636	2.232629	-0.000264
 906	9.0047e+01	3.9400	62.914723	0.000791	7.907563	2.679155	-0.000316
 907	9.0147e+01	3.8951	62.571567	0.000862	8.617216	2.919592	-0.000345
 908	9.0246e+01	3.8566	62.297042	0.000689	6.893773	2.335674	-0.000276
 909	9.0346e+01	3.8117	62.014442	0.000710	7.096531	2.404370	-0.000284
 910	9.0445e+01	3.7764	61.711657	0.000760	7.603426	2.576111	-0.000304
 911	9.0545e+01	3.7379	61.433095	0.000700	6.995152	2.370022	-0.000280
 912	9.0644e+01	3.6945	61.138384	0.000740	7.400668	2.507414	-0.000296
 913	9.0744e+01	3.6609	60.863858	0.000689	6.893773	2.335674	-0.000276
 914	9.0844e+01	3.6159	60.524739	0.000852	8.515837	2.885244	-0.000341
 915	9.0943e+01	3.5790	60.258288	0.000669	6.691015	2.266977	-0.000268
 916	9.1043e+01	3.5277	59.939354	0.000801	8.008942	2.713503	-0.000321
 917	9.1142e+01	3.4972	59.648681	0.000730	7.299289	2.473066	-0.000292
 918	9.1242e+01	3.4555	59.341858	0.000770	7.704805	2.610459	-0.000308
 919	9.1341e+01	3.4138	59.063296	0.000700	6.995152	2.370022	-0.000280
 920	9.1441e+01	3.3705	58.728214	0.000841	8.414458	2.850896	-0.000337
 921	9.1540e+01	3.3368	58.441577	0.000720	7.197910	2.438718	-0.000288
 922	9.1639e+01	3.3031	58.118606	0.000811	8.110321	2.747851	-0.000325
 923	9.1739e+01	3.2662	57.836007	0.000710	7.096531	2.404370	-0.000284
 924	9.1838e+01	3.2181	57.529184	0.000770	7.704805	2.610459	-0.000308
 925	9.1938e+01	3.1796	57.246585	0.000710	7.096531	2.404370	-0.000284
 926	9.2037e+01	3.1411	56.923614	0.000811	8.110321	2.747851	-0.000325
 927	9.2137e+01	3.0978	56.628903	0.000740	7.400668	2.507414	-0.000296
 928	9.2237e+01	3.0673	56.297858	0.000831	8.313079	2.816548	-0.000333
 929	9.2336e+01	3.0288	56.063704	0.000588	5.879983	1.992192	-0.000235
 930	9.2436e+01	2.9855	55.736696	0.000821	8.211700	2.782199	-0.000329
 931	9.2535e+01	2.9438	55.413725	0.000811	8.110321	2.747851	-0.000325
 932	9.2635e+01	2.9005	55.106903	0.000770	7.704805	2.610459	-0.000308
 933	9.2734e+01	2.8587	54.792006	0.000791	7.907563	2.679155	-0.000316
 934	9.2834e+01	2.8234	54.489221	0.000760	7.603426	2.576111	-0.000304
 935	9.2933e+01	2.7866	54.182399	0.000770	7.704805	2.610459	-0.000308
 936	9.3032e+01	2.7288	53.871539	0.000781	7.806184	2.644807	-0.000312
 937	9.3132e+01	2.7047	53.560680	0.000781	7.806184	2.644807	-0.000312
 938	9.3231e+01	2.6630	53.229635	0.000831	8.313079	2.816548	-0.000333
 939	9.3331e+01	2.6245	52.906664	0.000811	8.110321	2.747851	-0.000325
 940	9.3430e+01	2.5828	52.644250	0.000659	6.589636	2.232629	-0.000264
 941	9.3530e+01	2.5363	52.309168	0.000841	8.414458	2.850896	-0.000337
 942	9.3629e+01	2.4898	51.998308	0.000781	7.806184	2.644807	-0.000312
 943	9.3729e+01	2.4641	51.687449	0.000781	7.806184	2.644807	-0.000312
 944	9.3829e+01	2.4240	51.372552	0.000791	7.907563	2.679155	-0.000316
 945	9.3928e+01	2.3759	51.069767	0.000760	7.603426	2.576111	-0.000304
 946	9.4028e+01	2.3406	50.754870	0.000791	7.907563	2.679155	-0.000316
 947	9.4127e+01	2.3021	50.403640	0.000882	8.819974	2.988288	-0.000353
 948	9.4227e+01	2.2684	50.149300	0.000639	6.386878	2.163933	-0.000256
 949	9.4326e+01	2.2170	49.810181	0.000852	8.515837	2.885244	-0.000341
 950	9.4425e+01	2.1866	49.458950	0.000882	8.819974	2.988288	-0.000353
 951	9.4525e+01	2.1368	49.180388	0.000700	6.995152	2.370022	-0.000280
 952	9.4624e+01	2.0967	48.833194	0.000872	8.718595	2.953940	-0.000349
 953	9.4724e+01	2.0582	48.558669	0.000689	6.893773	2.335674	-0.000276
 954	9.4823e+01	2.0181	48.235698	0.000811	8.110321	2.747851	-0.000325
 955	9.4923e+01	1.9909	47.932913	0.000760	7.603426	2.576111	-0.000304
 956	9.5022e+01	1.9491	47.565533	0.000923	9.225490	3.125681	-0.000369
 957	9.5122e+01	1.9010	47.299082	0.000669	6.691015	2.266977	-0.000268
 958	9.5222e+01	1.8593	46.964000	0.000841	8.414458	2.850896	-0.000337
 959	9.5321e+01	1.8224	46.641029	0.000811	8.110321	2.747851	-0.000325
 960	9.5421e+01	1.7791	46.318058	0.000811	8.110321	2.747851	-0.000325
 961	9.5520e+01	1.7422	45.991050	0.000821	8.211700	2.782199	-0.000329
 962	9.5620e+01	1.7037	45.664042	0.000821	8.211700	2.782199	-0.000329
 963	9.5719e+01	1.6652	45.369331	0.000740	7.400668	2.507414	-0.000296
 964	9.5819e+01	1.6267	45.030212	0.000852	8.515837	2.885244	-0.000341
 965	9.5918e+01	1.5866	44.727427	0.000760	7.603426	2.576111	-0.000304
 966	9.6017e+01	1.5449	44.376196	0.000882	8.819974	2.988288	-0.000353
 967	9.6117e+01	1.5048	44.020928	0.000892	8.921353	3.022636	-0.000357
 968	9.6216e+01	1.4615	43.726217	0.000740	7.400668	2.507414	-0.000296
 969	9.6316e+01	1.4246	43.431506	0.000740	7.400668	2.507414	-0.000296
 970	9.6415e+01	1.3877	43.052016	0.000953	9.529627	3.228725	-0.000381
 971	9.6515e+01	1.3411	42.773453	0.000700	6.995152	2.370022	-0.000280
 972	9.6615e+01	1.3074	42.442408	0.000831	8.313079	2.816548	-0.000333
 973	9.6714e+01	1.2706	42.079066	0.000912	9.124111	3.091333	-0.000365
 974	9.6814e+01	1.2288	41.752058	0.000821	8.211700	2.782199	-0.000329
 975	9.6913e+01	1.1839	41.465421	0.000720	7.197910	2.438718	-0.000288
 976	9.7013e+01	1.1438	41.106116	0.000902	9.022732	3.056984	-0.000361
 977	9.7112e+01	1.1021	40.803331	0.000760	7.603426	2.576111	-0.000304
 978	9.7212e+01	1.0620	40.468249	0.000841	8.414458	2.850896	-0.000337
 979	9.7311e+01	1.0299	40.157389	0.000781	7.806184	2.644807	-0.000312
 980	9.7410e+01	0.9834	39.842493	0.000791	7.907563	2.679155	-0.000316
 981	9.7510e+01	0.9545	39.446853	0.000994	9.935144	3.366118	-0.000398
 982	9.7609e+01	0.9048	39.127920	0.000801	8.008942	2.713503	-0.000321
 983	9.7709e+01	0.8759	38.861469	0.000669	6.691015	2.266977	-0.000268
 984	9.7808e+01	0.8246	38.490052	0.000933	9.326869	3.160029	-0.000373
 985	9.7908e+01	0.7861	38.146896	0.000862	8.617216	2.919592	-0.000345
 986	9.8007e+01	0.7444	37.844110	0.000760	7.603426	2.576111	-0.000304
 987	9.8107e+01	0.6978	37.509028	0.000841	8.414458	2.850896	-0.000337
 988	9.8207e+01	0.6722	37.177983	0.000831	8.313079	2.816548	-0.000333
 989	9.8306e+01	0.6337	36.826752	0.000882	8.819974	2.988288	-0.000353
 990	9.8406e+01	0.5920	36.536078	0.000730	7.299289	2.473066	-0.000292
 991	9.8505e+01	0.5519	36.144476	0.000983	9.833765	3.331770	-0.000394
 992	9.8605e+01	0.5053	35.849765	0.000740	7.400668	2.507414	-0.000296
 993	9.8704e+01	0.4668	35.462200	0.000973	9.732386	3.297421	-0.000390
 994	9.8803e+01	0.4283	35.167489	0.000740	7.400668	2.507414	-0.000296
 995	9.8903e+01	0.3882	34.775887	0.000983	9.833765	3.331770	-0.000394
 996	9.9002e+01	0.3577	34.428694	0.000872	8.718595	2.953940	-0.000349
 997	9.9102e+01	0.3144	34.133983	0.000740	7.400668	2.507414	-0.000296
 998	9.9201e+01	0.2679	33.798900	0.000841	8.414458	2.850896	-0.000337
 999	9.9301e+01	0.2246	33.419410	0.000953	9.529627	3.228725	-0.000381
1000	9.9400e+01	0.1861	33.100476	0.000801	8.008942	2.713503	-0.000321
1001	9.9500e+01	0.1524	32.769431	0.000831	8.313079	2.816548	-0.000333
1002	9.9600e+01	0.1139	32.385903	0.000963	9.631007	3.263073	-0.000385
1003	9.9699e+01	0.0706	32.046783	0.000852	8.515837	2.885244	-0.000341
1004	9.9799e+01	0.0305	31.715738	0.000831	8.313079	2.816548	-0.000333
1005	9.9898e+01	0.0032	31.449287	0.000669	6.691015	2.266977	-0.000268
1006	9.9998e+01	-0.0417	31.122279	0.000821	8.211700	2.782199	-0.000329
1007	1.0010e+02	-0.0786	30.710492	0.001034	10.340660	3.503510	-0.000414
1008	1.0020e+02	-0.1380	30.395595	0.000791	7.907563	2.679155	-0.000316
1009	1.0030e+02	-0.1652	30.016104	0.000953	9.529627	3.228725	-0.000381
1010	1.0040e+02	-0.1925	29.693133	0.000811	8.110321	2.747851	-0.000325
1011	1.0050e+02	-0.2406	29.370162	0.000811	8.110321	2.747851	-0.000325
1012	1.0059e+02	-0.2759	28.994709	0.000943	9.428248	3.194377	-0.000377
1013	1.0069e+02	-0.3208	28.643478	0.000882	8.819974	2.988288	-0.000353
1014	1.0079e+02	-0.3610	28.280136	0.000912	9.124111	3.091333	-0.000365
1015	1.0089e+02	-0.4011	27.953128	0.000821	8.211700	2.782199	-0.000329
1016	1.0099e+02	-0.4412	27.581711	0.000933	9.326869	3.160029	-0.000373
1017	1.0109e+02	-0.4732	27.238555	0.000862	8.617216	2.919592	-0.000345
1018	1.0119e+02	-0.5246	26.867138	0.000933	9.326869	3.160029	-0.000373
1019	1.0129e+02	-0.5567	26.532056	0.000841	8.414458	2.850896	-0.000337
1020	1.0139e+02	-0.6000	26.176788	0.000892	8.921353	3.022636	-0.000357
1021	1.0149e+02	-0.6465	25.805372	0.000933	9.326869	3.160029	-0.000373
1022	1.0159e+02	-0.6722	25.458178	0.000872	8.718595	2.953940	-0.000349
1023	1.0169e+02	-0.7123	25.115021	0.000862	8.617216	2.919592	-0.000345
1024	1.0179e+02	-0.7540	24.775902	0.000852	8.515837	2.885244	-0.000341
1025	1.0189e+02	-0.7925	24.400448	0.000943	9.428248	3.194377	-0.000377
1026	1.0199e+02	-0.8374	24.037106	0.000912	9.124111	3.091333	-0.000365
1027	1.0209e+02	-0.8775	23.726247	0.000781	7.806184	2.644807	-0.000312
1028	1.0219e+02	-0.9192	23.334645	0.000983	9.833765	3.331770	-0.000394
1029	1.0229e+02	-0.9497	22.959191	0.000943	9.428248	3.194377	-0.000377
1030	1.0239e+02	-0.9978	22.607960	0.000882	8.819974	2.988288	-0.000353
1031	1.0248e+02	-1.0411	22.224432	0.000963	9.631007	3.263073	-0.000385
1032	1.0258e+02	-1.0732	21.925684	0.000750	7.502047	2.541762	-0.000300
1033	1.0268e+02	-1.1198	21.534082	0.000983	9.833765	3.331770	-0.000394
1034	1.0278e+02	-1.1583	21.150554	0.000963	9.631007	3.263073	-0.000385
1035	1.0288e+02	-1.2016	20.803360	0.000872	8.718595	2.953940	-0.000349
1036	1.0298e+02	-1.2449	20.476352	0.000821	8.211700	2.782199	-0.000329
1037	1.0308e+02	-1.2770	20.084750	0.000983	9.833765	3.331770	-0.000394
1038	1.0318e+02	-1.3123	19.777928	0.000770	7.704805	2.610459	-0.000308
1039	1.0328e+02	-1.3620	19.358066	0.001054	10.543418	3.572207	-0.000422
1040	1.0338e+02	-1.3973	18.962427	0.000994	9.935144	3.366118	-0.000398
1041	1.0348e+02	-1.4310	18.635419	0.000821	8.211700	2.782199	-0.000329
1042	1.0358e+02	-1.4711	18.264002	0.000933	9.326869	3.160029	-0.000373
1043	1.0368e+02	-1.5256	17.916808	0.000872	8.718595	2.953940	-0.000349
1044	1.0378e+02	-1.5577	17.581726	0.000841	8.414458	2.850896	-0.000337
1045	1.0388e+02	-1.5914	17.198198	0.000963	9.631007	3.263073	-0.000385
1046	1.0398e+02	-1.6347	16.806596	0.000983	9.833765	3.331770	-0.000394
1047	1.0408e+02	-1.6812	16.495737	0.000781	7.806184	2.644807	-0.000312
1048	1.0418e+02	-1.7133	16.063763	0.001085	10.847555	3.675251	-0.000434
1049	1.0428e+02	-1.7614	15.736755	0.000821	8.211700	2.782199	-0.000329
1050	1.0438e+02	-1.7903	15.365339	0.000933	9.326869	3.160029	-0.000373
1051	1.0447e+02	-1.8240	14.989885	0.000943	9.428248	3.194377	-0.000377
1052	1.0457e+02	-1.8770	14.626543	0.000912	9.124111	3.091333	-0.000365
1053	1.0467e+02	-1.9074	14.263201	0.000912	9.124111	3.091333	-0.000365
1054	1.0477e+02	-1.9507	13.899858	0.000912	9.124111	3.091333	-0.000365
1055	1.0487e+02	-1.9973	13.536516	0.000912	9.124111	3.091333	-0.000365
1056	1.0497e+02	-2.0326	13.161063	0.000943	9.428248	3.194377	-0.000377
1057	1.0507e+02	-2.0743	12.785609	0.000943	9.428248	3.194377	-0.000377
1058	1.0517e+02	-2.1015	12.389970	0.000994	9.935144	3.366118	-0.000398
1059	1.0527e+02	-2.1609	12.058924	0.000831	8.313079	2.816548	-0.000333
1060	1.0537e+02	-2.1962	11.655211	0.001014	10.137902	3.434814	-0.000406
1061	1.0547e+02	-2.2427	11.279757	0.000943	9.428248	3.194377	-0.000377
1062	1.0557e+02	-2.2780	10.892192	0.000973	9.732386	3.297421	-0.000390
1063	1.0567e+02	-2.3085	10.561147	0.000831	8.313079	2.816548	-0.000333
1064	1.0577e+02	-2.3518	10.177619	0.000963	9.631007	3.263073	-0.000385
1065	1.0587e+02	-2.3983	9.822351	0.000892	8.921353	3.022636	-0.000357
1066	1.0597e+02	-2.4288	9.467083	0.000892	8.921353	3.022636	-0.000357
1067	1.0607e+02	-2.4737	9.087593	0.000953	9.529627	3.228725	-0.000381
1068	1.0617e+02	-2.5202	8.691953	0.000994	9.935144	3.366118	-0.000398
1069	1.0627e+02	-2.5539	8.373020	0.000801	8.008942	2.713503	-0.000321
1070	1.0637e+02	-2.6005	7.981417	0.000983	9.833765	3.331770	-0.000394
1071	1.0647e+02	-2.6438	7.626149	0.000892	8.921353	3.022636	-0.000357
1072	1.0656e+02	-2.6678	7.202250	0.001064	10.644797	3.606555	-0.000426
1073	1.0666e+02	-2.7192	6.883316	0.000801	8.008942	2.713503	-0.000321
1074	1.0676e+02	-2.7432	6.499789	0.000963	9.631007	3.263073	-0.000385
1075	1.0686e+02	-2.7962	6.152595	0.000872	8.718595	2.953940	-0.000349
1076	1.0696e+02	-2.8363	5.813475	0.000852	8.515837	2.885244	-0.000341
1077	1.0706e+02	-2.8684	5.377465	0.001095	10.948934	3.709599	-0.000438
1078	1.0716e+02	-2.9149	5.042383	0.000841	8.414458	2.850896	-0.000337
1079	1.0726e+02	-2.9486	4.642706	0.001004	10.036523	3.400466	-0.000402
1080	1.0736e+02	-2.9919	4.343958	0.000750	7.502047	2.541762	-0.000300
1081	1.0746e+02	-3.0336	3.924096	0.001054	10.543418	3.572207	-0.000422
1082	1.0756e+02	-3.0593	3.597088	0.000821	8.211700	2.782199	-0.000329
1083	1.0766e+02	-3.1090	3.197412	0.001004	10.036523	3.400466	-0.000402
1084	1.0776e+02	-3.1507	2.846181	0.000882	8.819974	2.988288	-0.000353
1085	1.0786e+02	-3.1972	2.478801	0.000923	9.225490	3.125681	-0.000369
1086	1.0796e+02	-3.2229	2.119496	0.000902	9.022732	3.056984	-0.000361
1087	1.0806e+02	-3.2678	1.772303	0.000872	8.718595	2.953940	-0.000349
1088	1.0816e+02	-3.3063	1.437220	0.000841	8.414458	2.850896	-0.000337
1089	1.0826e+02	-3.3577	1.069841	0.000923	9.225490	3.125681	-0.000369
1090	1.0836e+02	-3.3881	0.710536	0.000902	9.022732	3.056984	-0.000361
1091	1.0845e+02	-3.4315	0.367379	0.000862	8.617216	2.919592	-0.000345
1092	1.0855e+02	-3.4716	0.004037	0.000912	9.124111	3.091333	-0.000365
1093	1.0865e+02	-3.5085	-0.367379	0.000933	9.326869	3.160029	-0.000373
1094	1.0875e+02	-3.5325	-0.666127	0.000750	7.502047	2.541762	-0.000300
1095	1.0885e+02	-3.5806	-1.073878	0.001024	10.239281	3.469162	-0.000410
1096	1.0895e+02	-3.6256	-1.425109	0.000882	8.819974	2.988288	-0.000353
1097	1.0905e+02	-3.6657	-1.784414	0.000902	9.022732	3.056984	-0.000361
1098	1.0915e+02	-3.7170	-2.139682	0.000892	8.921353	3.022636	-0.000357
1099	1.0925e+02	-3.7363	-2.511098	0.000933	9.326869	3.160029	-0.000373
1100	1.0935e+02	-3.7828	-2.830032	0.000801	8.008942	2.713503	-0.000321
1101	1.0945e+02	-3.8277	-3.201449	0.000933	9.326869	3.160029	-0.000373
1102	1.0955e+02	-3.8630	-3.512308	0.000781	7.806184	2.644807	-0.000312
1103	1.0965e+02	-3.9063	-3.895836	0.000963	9.631007	3.263073	-0.000385
1104	1.0975e+02	-3.9528	-4.255141	0.000902	9.022732	3.056984	-0.000361
1105	1.0985e+02	-3.9897	-4.622520	0.000923	9.225490	3.125681	-0.000369
1106	1.0995e+02	-4.0282	-4.941454	0.000801	8.008942	2.713503	-0.000321
1107	1.1005e+02	-4.0587	-5.312871	0.000933	9.326869	3.160029	-0.000373
1108	1.1015e+02	-4.1020	-5.639879	0.000821	8.211700	2.782199	-0.000329
1109	1.1025e+02	-4.1437	-6.023407	0.000963	9.631007	3.263073	-0.000385
1110	1.1035e+02	-4.1951	-6.326192	0.000760	7.603426	2.576111	-0.000304
1111	1.1044e+02	-4.2223	-6.697608	0.000933	9.326869	3.160029	-0.000373
1112	1.1054e+02	-4.2657	-7.048839	0.000882	8.819974	2.988288	-0.000353
1113	1.1064e+02	-4.3058	-7.404107	0.000892	8.921353	3.022636	-0.000357
1114	1.1074e+02	-4.3411	-7.731115	0.000821	8.211700	2.782199	-0.000329
1115	1.1084e+02	-4.3812	-8.082346	0.000882	8.819974	2.988288	-0.000353
1116	1.1094e+02	-4.4213	-8.397242	0.000791	7.907563	2.679155	-0.000316
1117	1.1104e+02	-4.4630	-8.732325	0.000841	8.414458	2.850896	-0.000337
1118	1.1114e+02	-4.5095	-9.067407	0.000841	8.414458	2.850896	-0.000337
1119	1.1124e+02	-4.5432	-9.446898	0.000953	9.529627	3.228725	-0.000381
1120	1.1134e+02	-4.5849	-9.761794	0.000791	7.907563	2.679155	-0.000316
1121	1.1144e+02	-4.6346	-10.100914	0.000852	8.515837	2.885244	-0.000341
1122	1.1154e+02	-4.6651	-10.415810	0.000791	7.907563	2.679155	-0.000316
1123	1.1164e+02	-4.7036	-10.823561	0.001024	10.239281	3.469162	-0.000410
1124	1.1174e+02	-4.7389	-11.134420	0.000781	7.806184	2.644807	-0.000312
1125	1.1184e+02	-4.7854	-11.417020	0.000710	7.096531	2.404370	-0.000284
1126	1.1194e+02	-4.8303	-11.796511	0.000953	9.529627	3.228725	-0.000381
1127	1.1204e+02	-4.8608	-12.135630	0.000852	8.515837	2.885244	-0.000341
1128	1.1214e+02	-4.8961	-12.486861	0.000882	8.819974	2.988288	-0.000353
1129	1.1224e+02	-4.9458	-12.813869	0.000821	8.211700	2.782199	-0.000329
1130	1.1234e+02	-4.9747	-13.112617	0.000750	7.502047	2.541762	-0.000300
1131	1.1244e+02	-5.0245	-13.492108	0.000953	9.529627	3.228725	-0.000381
1132	1.1253e+02	-5.0501	-13.794893	0.000760	7.603426	2.576111	-0.000304
1133	1.1263e+02	-5.1095	-14.129975	0.000841	8.414458	2.850896	-0.000337
1134	1.1273e+02	-5.1416	-14.481206	0.000882	8.819974	2.988288	-0.000353
1135	1.1283e+02	-5.1817	-14.808214	0.000821	8.211700	2.782199	-0.000329
1136	1.1293e+02	-5.2218	-15.155408	0.000872	8.718595	2.953940	-0.000349
1137	1.1303e+02	-5.2683	-15.450118	0.000740	7.400668	2.507414	-0.000296
1138	1.1313e+02	-5.3052	-15.789238	0.000852	8.515837	2.885244	-0.000341
1139	1.1323e+02	-5.3469	-16.112209	0.000811	8.110321	2.747851	-0.000325
1140	1.1333e+02	-5.3838	-16.410957	0.000750	7.502047	2.541762	-0.000300
1141	1.1343e+02	-5.4239	-16.782373	0.000933	9.326869	3.160029	-0.000373
1142	1.1353e+02	-5.4544	-17.081121	0.000750	7.502047	2.541762	-0.000300
1143	1.1363e+02	-5.4993	-17.412166	0.000831	8.313079	2.816548	-0.000333
1144	1.1373e+02	-5.5426	-17.743212	0.000831	8.313079	2.816548	-0.000333
1145	1.1383e+02	-5.5747	-18.066182	0.000811	8.110321	2.747851	-0.000325
1146	1.1393e+02	-5.6244	-18.368968	0.000760	7.603426	2.576111	-0.000304
1147	1.1403e+02	-5.6613	-18.744421	0.000943	9.428248	3.194377	-0.000377
1148	1.1413e+02	-5.6934	-19.059318	0.000791	7.907563	2.679155	-0.000316
1149	1.1423e+02	-5.7335	-19.362103	0.000760	7.603426	2.576111	-0.000304
1150	1.1433e+02	-5.7768	-19.709297	0.000872	8.718595	2.953940	-0.000349
1151	1.1442e+02	-5.8089	-20.024193	0.000791	7.907563	2.679155	-0.000316
1152	1.1452e+02	-5.8571	-20.306793	0.000710	7.096531	2.404370	-0.000284
1153	1.1462e+02	-5.9116	-20.621689	0.000791	7.907563	2.679155	-0.000316
1154	1.1472e+02	-5.9405	-21.029440	0.001024	10.239281	3.469162	-0.000410
1155	1.1482e+02	-5.9870	-21.263594	0.000588	5.879983	1.992192	-0.000235
1156	1.1492e+02	-6.0239	-21.635010	0.000933	9.326869	3.160029	-0.000373
1157	1.1502e+02	-6.0624	-21.933758	0.000750	7.502047	2.541762	-0.000300
1158	1.1512e+02	-6.0977	-22.240581	0.000770	7.704805	2.610459	-0.000308
1159	1.1522e+02	-6.1458	-22.543366	0.000760	7.603426	2.576111	-0.000304
1160	1.1532e+02	-6.1779	-22.910745	0.000923	9.225490	3.125681	-0.000369
1161	1.1542e+02	-6.2164	-23.213530	0.000760	7.603426	2.576111	-0.000304
1162	1.1552e+02	-6.2581	-23.532464	0.000801	8.008942	2.713503	-0.000321
1163	1.1562e+02	-6.2998	-23.851398	0.000801	8.008942	2.713503	-0.000321
1164	1.1572e+02	-6.3463	-24.194554	0.000862	8.617216	2.919592	-0.000345
1165	1.1582e+02	-6.3784	-24.452931	0.000649	6.488257	2.198281	-0.000260
1166	1.1592e+02	-6.4121	-24.808199	0.000892	8.921353	3.022636	-0.000357
1167	1.1602e+02	-6.4618	-25.102910	0.000740	7.400668	2.507414	-0.000296
1168	1.1612e+02	-6.4939	-25.401658	0.000750	7.502047	2.541762	-0.000300
1169	1.1622e+02	-6.5340	-25.716555	0.000791	7.907563	2.679155	-0.000316
1170	1.1632e+02	-6.5693	-26.083934	0.000923	9.225490	3.125681	-0.000369
1171	1.1642e+02	-6.6110	-26.382682	0.000750	7.502047	2.541762	-0.000300
1172	1.1651e+02	-6.6544	-26.717764	0.000841	8.414458	2.850896	-0.000337
1173	1.1661e+02	-6.6945	-26.955955	0.000598	5.981362	2.026540	-0.000239
1174	1.1671e+02	-6.7298	-27.303149	0.000872	8.718595	2.953940	-0.000349
1175	1.1681e+02	-6.7763	-27.622083	0.000801	8.008942	2.713503	-0.000321
1176	1.1691e+02	-6.8212	-27.936979	0.000791	7.907563	2.679155	-0.000316
1177	1.1701e+02	-6.8469	-28.268024	0.000831	8.313079	2.816548	-0.000333
1178	1.1711e+02	-6.8982	-28.554661	0.000720	7.197910	2.438718	-0.000288
1179	1.1721e+02	-6.9319	-28.881669	0.000821	8.211700	2.782199	-0.000329
1180	1.1731e+02	-6.9624	-29.208677	0.000821	8.211700	2.782199	-0.000329
1181	1.1741e+02	-7.0121	-29.519537	0.000781	7.806184	2.644807	-0.000312
1182	1.1751e+02	-7.0490	-29.806173	0.000720	7.197910	2.438718	-0.000288
1183	1.1761e+02	-7.0971	-30.117033	0.000781	7.806184	2.644807	-0.000312
1184	1.1771e+02	-7.1308	-30.431929	0.000791	7.907563	2.679155	-0.000316
1185	1.1781e+02	-7.1725	-30.738752	0.000770	7.704805	2.610459	-0.000308
1186	1.1791e+02	-7.2078	-31.009240	0.000679	6.792394	2.301325	-0.000272
1187	1.1801e+02	-7.2383	-31.376619	0.000923	9.225490	3.125681	-0.000369
1188	1.1811e+02	-7.2912	-31.659218	0.000710	7.096531	2.404370	-0.000284
1189	1.1821e+02	-7.3394	-31.978152	0.000801	8.008942	2.713503	-0.000321
1190	1.1831e+02	-7.3714	-32.260752	0.000710	7.096531	2.404370	-0.000284
1191	1.1841e+02	-7.4132	-32.603908	0.000862	8.617216	2.919592	-0.000345
1192	1.1850e+02	-7.4485	-32.898619	0.000740	7.400668	2.507414	-0.000296
1193	1.1860e+02	-7.4950	-33.221590	0.000811	8.110321	2.747851	-0.000325
1194	1.1870e+02	-7.5287	-33.520338	0.000750	7.502047	2.541762	-0.000300
1195	1.1880e+02	-7.5736	-33.823123	0.000760	7.603426	2.576111	-0.000304
1196	1.1890e+02	-7.6089	-34.129946	0.000770	7.704805	2.610459	-0.000308
1197	1.1900e+02	-7.6570	-34.420619	0.000730	7.299289	2.473066	-0.000292
1198	1.1910e+02	-7.6827	-34.739553	0.000801	8.008942	2.713503	-0.000321
1199	1.1920e+02	-7.7340	-35.042338	0.000760	7.603426	2.576111	-0.000304
1200	1.1930e+02	-7.7709	-35.337049	0.000740	7.400668	2.507414	-0.000296
1201	1.1940e+02	-7.8078	-35.631760	0.000740	7.400668	2.507414	-0.000296
1202	1.1950e+02	-7.8415	-35.922434	0.000730	7.299289	2.473066	-0.000292
1203	1.1960e+02	-7.8832	-36.261553	0.000852	8.515837	2.885244	-0.000341
1204	1.1970e+02	-7.9201	-36.523967	0.000659	6.589636	2.232629	-0.000264
1205	1.1980e+02	-7.9746	-36.818678	0.000740	7.400668	2.507414	-0.000296
1206	1.1990e+02	-8.0164	-37.145686	0.000821	8.211700	2.782199	-0.000329
1207	1.2000e+02	-8.0500	-37.464620	0.000801	8.008942	2.713503	-0.000321
1208	1.2010e+02	-8.0934	-37.735108	0.000679	6.792394	2.301325	-0.000272
1209	1.2020e+02	-8.1270	-38.058079	0.000811	8.110321	2.747851	-0.000325
1210	1.2030e+02	-8.1704	-38.360864	0.000760	7.603426	2.576111	-0.000304
1211	1.2039e+02	-8.2105	-38.651538	0.000730	7.299289	2.473066	-0.000292
1212	1.2049e+02	-8.2425	-38.922026	0.000679	6.792394	2.301325	-0.000272
1213	1.2059e+02	-8.2843	-39.220774	0.000750	7.502047	2.541762	-0.000300
1214	1.2069e+02	-8.3340	-39.531633	0.000781	7.806184	2.644807	-0.000312
1215	1.2079e+02	-8.3677	-39.830381	0.000750	7.502047	2.541762	-0.000300
1216	1.2089e+02	-8.4158	-40.149315	0.000801	8.008942	2.713503	-0.000321
1217	1.2099e+02	-8.4479	-40.399617	0.000629	6.285499	2.129585	-0.000252
1218	1.2109e+02	-8.4800	-40.722588	0.000811	8.110321	2.747851	-0.000325
1219	1.2119e+02	-8.5297	-41.005188	0.000710	7.096531	2.404370	-0.000284
1220	1.2129e+02	-8.5730	-41.283750	0.000700	6.995152	2.370022	-0.000280
1221	1.2139e+02	-8.6083	-41.594610	0.000781	7.806184	2.644807	-0.000312
1222	1.2149e+02	-8.6500	-41.905469	0.000781	7.806184	2.644807	-0.000312
1223	1.2159e+02	-8.6837	-42.171920	0.000669	6.691015	2.266977	-0.000268
1224	1.2169e+02	-8.7270	-42.494891	0.000811	8.110321	2.747851	-0.000325
1225	1.2179e+02	-8.7768	-42.757305	0.000659	6.589636	2.232629	-0.000264
1226	1.2189e+02	-8.7992	-43.072201	0.000791	7.907563	2.679155	-0.000316
1227	1.2199e+02	-8.8457	-43.322504	0.000629	6.285499	2.129585	-0.000252
1228	1.2209e+02	-8.8874	-43.625289	0.000760	7.603426	2.576111	-0.000304
1229	1.2219e+02	-8.9243	-43.932111	0.000770	7.704805	2.610459	-0.000308
1230	1.2229e+02	-8.9612	-44.230859	0.000750	7.502047	2.541762	-0.000300
1231	1.2239e+02	-9.0110	-44.493273	0.000659	6.589636	2.232629	-0.000264
1232	1.2248e+02	-9.0415	-44.796058	0.000760	7.603426	2.576111	-0.000304
1233	1.2258e+02	-9.0816	-45.094806	0.000750	7.502047	2.541762	-0.000300
1234	1.2268e+02	-9.1185	-45.365294	0.000679	6.792394	2.301325	-0.000272
1235	1.2278e+02	-9.1682	-45.672117	0.000770	7.704805	2.610459	-0.000308
1236	1.2288e+02	-9.2067	-45.962790	0.000730	7.299289	2.473066	-0.000292
1237	1.2298e+02	-9.2404	-46.253464	0.000730	7.299289	2.473066	-0.000292
1238	1.2308e+02	-9.2837	-46.548175	0.000740	7.400668	2.507414	-0.000296
1239	1.2318e+02	-9.3286	-46.842886	0.000740	7.400668	2.507414	-0.000296
1240	1.2328e+02	-9.3511	-47.117411	0.000689	6.893773	2.335674	-0.000276
1241	1.2338e+02	-9.4024	-47.412122	0.000740	7.400668	2.507414	-0.000296
1242	1.2348e+02	-9.4505	-47.682610	0.000679	6.792394	2.301325	-0.000272
1243	1.2358e+02	-9.4858	-47.981358	0.000750	7.502047	2.541762	-0.000300
1244	1.2368e+02	-9.5275	-48.296255	0.000791	7.907563	2.679155	-0.000316
1245	1.2378e+02	-9.5692	-48.498112	0.000507	5.068951	1.717407	-0.000203
1246	1.2388e+02	-9.6013	-48.813008	0.000791	7.907563	2.679155	-0.000316
1247	1.2398e+02	-9.6350	-49.079459	0.000669	6.691015	2.266977	-0.000268
1248	1.2408e+02	-9.6751	-49.398393	0.000801	8.008942	2.713503	-0.000321
1249	1.2418e+02	-9.7313	-49.676955	0.000700	6.995152	2.370022	-0.000280
1250	1.2428e+02	-9.7585	-49.947443	0.000679	6.792394	2.301325	-0.000272
1251	1.2438e+02	-9.8067	-50.217931	0.000679	6.792394	2.301325	-0.000272
1252	1.2447e+02	-9.8259	-50.496494	0.000700	6.995152	2.370022	-0.000280
1253	1.2457e+02	-9.8837	-50.746796	0.000629	6.285499	2.129585	-0.000252
1254	1.2467e+02	-9.9222	-51.037470	0.000730	7.299289	2.473066	-0.000292
1255	1.2477e+02	-9.9623	-51.303921	0.000669	6.691015	2.266977	-0.000268
1256	1.2487e+02	-9.9976	-51.582483	0.000700	6.995152	2.370022	-0.000280
1257	1.2497e+02	-10.0441	-51.901417	0.000801	8.008942	2.713503	-0.000321
1258	1.2507e+02	-10.0858	-52.163831	0.000659	6.589636	2.232629	-0.000264
1259	1.2517e+02	-10.1195	-52.406059	0.000608	6.082741	2.060888	-0.000243
1260	1.2527e+02	-10.1580	-52.700770	0.000740	7.400668	2.507414	-0.000296
1261	1.2537e+02	-10.1997	-52.995481	0.000740	7.400668	2.507414	-0.000296
1262	1.2547e+02	-10.2382	-53.265969	0.000679	6.792394	2.301325	-0.000272
1263	1.2557e+02	-10.2831	-53.520308	0.000639	6.386878	2.163933	-0.000256
1264	1.2567e+02	-10.3152	-53.843279	0.000811	8.110321	2.747851	-0.000325
1265	1.2577e+02	-10.3489	-54.081470	0.000598	5.981362	2.026540	-0.000239
1266	1.2587e+02	-10.4002	-54.347921	0.000669	6.691015	2.266977	-0.000268
1267	1.2597e+02	-10.4403	-54.630521	0.000710	7.096531	2.404370	-0.000284
1268	1.2607e+02	-10.4885	-54.892935	0.000659	6.589636	2.232629	-0.000264
1269	1.2617e+02	-10.5222	-55.171497	0.000700	6.995152	2.370022	-0.000280
1270	1.2627e+02	-10.5542	-55.413725	0.000608	6.082741	2.060888	-0.000243
1271	1.2636e+02	-10.6008	-55.716510	0.000760	7.603426	2.576111	-0.000304
1272	1.2646e+02	-10.6361	-56.003147	0.000720	7.197910	2.438718	-0.000288
1273	1.2656e+02	-10.6762	-56.257487	0.000639	6.386878	2.163933	-0.000256
1274	1.2666e+02	-10.7147	-56.544123	0.000720	7.197910	2.438718	-0.000288
1275	1.2676e+02	-10.7468	-56.774240	0.000578	5.778604	1.957844	-0.000231
1276	1.2686e+02	-10.7949	-57.077025	0.000760	7.603426	2.576111	-0.000304
1277	1.2696e+02	-10.8350	-57.343476	0.000669	6.691015	2.266977	-0.000268
1278	1.2706e+02	-10.8783	-57.618001	0.000689	6.893773	2.335674	-0.000276
1279	1.2716e+02	-10.9184	-57.880415	0.000659	6.589636	2.232629	-0.000264
1280	1.2726e+02	-10.9617	-58.130717	0.000629	6.285499	2.129585	-0.000252
1281	1.2736e+02	-10.9986	-58.397168	0.000669	6.691015	2.266977	-0.000268
1282	1.2746e+02	-11.0419	-58.691879	0.000740	7.400668	2.507414	-0.000296
1283	1.2756e+02	-11.0788	-58.942182	0.000629	6.285499	2.129585	-0.000252
1284	1.2766e+02	-11.1205	-59.196521	0.000639	6.386878	2.163933	-0.000256
1285	1.2776e+02	-11.1639	-59.475084	0.000700	6.995152	2.370022	-0.000280
1286	1.2786e+02	-11.2008	-59.753646	0.000700	6.995152	2.370022	-0.000280
1287	1.2796e+02	-11.2344	-60.020097	0.000669	6.691015	2.266977	-0.000268
1288	1.2806e+02	-11.2745	-60.254251	0.000588	5.879983	1.992192	-0.000235
1289	1.2816e+02	-11.3179	-60.524739	0.000679	6.792394	2.301325	-0.000272
1290	1.2826e+02	-11.3532	-60.823487	0.000750	7.502047	2.541762	-0.000300
1291	1.2835e+02	-11.4029	-61.061678	0.000598	5.981362	2.026540	-0.000239
1292	1.2845e+02	-11.4334	-61.336203	0.000689	6.893773	2.335674	-0.000276
1293	1.2855e+02	-11.4767	-61.626877	0.000730	7.299289	2.473066	-0.000292
1294	1.2865e+02	-11.5088	-61.856994	0.000578	5.778604	1.957844	-0.000231
1295	1.2875e+02	-11.5633	-62.111333	0.000639	6.386878	2.163933	-0.000256
1296	1.2885e+02	-11.5938	-62.349524	0.000598	5.981362	2.026540	-0.000239
1297	1.2895e+02	-11.6387	-62.676532	0.000821	8.211700	2.782199	-0.000329
1298	1.2905e+02	-11.6692	-62.926835	0.000629	6.285499	2.129585	-0.000252
1299	1.2915e+02	-11.7125	-63.165026	0.000598	5.981362	2.026540	-0.000239
1300	1.2925e+02	-11.7542	-63.431477	0.000669	6.691015	2.266977	-0.000268
1301	1.2935e+02	-11.7975	-63.710039	0.000700	6.995152	2.370022	-0.000280
1302	1.2945e+02	-11.8264	-63.952267	0.000608	6.082741	2.060888	-0.000243
1303	1.2955e+02	-11.8777	-64.230830	0.000700	6.995152	2.370022	-0.000280
1304	1.2965e+02	-11.9211	-64.513429	0.000710	7.096531	2.404370	-0.000284
1305	1.2975e+02	-11.9515	-64.767769	0.000639	6.386878	2.163933	-0.000256
1306	1.2985e+02	-11.9965	-65.030182	0.000659	6.589636	2.232629	-0.000264
1307	1.2995e+02	-12.0301	-65.264336	0.000588	5.879983	1.992192	-0.000235
1308	1.3005e+02	-12.0702	-65.546936	0.000710	7.096531	2.404370	-0.000284
1309	1.3015e+02	-12.1200	-65.789164	0.000608	6.082741	2.060888	-0.000243
1310	1.3025e+02	-12.1521	-66.043504	0.000639	6.386878	2.163933	-0.000256
1311	1.3034e+02	-12.1954	-66.334177	0.000730	7.299289	2.473066	-0.000292
1312	1.3044e+02	-12.2323	-66.588517	0.000639	6.386878	2.163933	-0.000256
1313	1.3054e+02	-12.2756	-66.834782	0.000618	6.184120	2.095237	-0.000248
1314	1.3064e+02	-12.3045	-67.089122	0.000639	6.386878	2.163933	-0.000256
1315	1.3074e+02	-12.3510	-67.404018	0.000791	7.907563	2.679155	-0.000316
1316	1.3084e+02	-12.3927	-67.617986	0.000537	5.373088	1.820451	-0.000215
1317	1.3094e+02	-12.4344	-67.864252	0.000618	6.184120	2.095237	-0.000248
1318	1.3104e+02	-12.4697	-68.158963	0.000740	7.400668	2.507414	-0.000296
1319	1.3114e+02	-12.5002	-68.393117	0.000588	5.879983	1.992192	-0.000235
1320	1.3124e+02	-12.5499	-68.699939	0.000770	7.704805	2.610459	-0.000308
1321	1.3134e+02	-12.5900	-68.930056	0.000578	5.778604	1.957844	-0.000231
1322	1.3144e+02	-12.6381	-69.184395	0.000639	6.386878	2.163933	-0.000256
1323	1.3154e+02	-12.6750	-69.450846	0.000669	6.691015	2.266977	-0.000268
1324	1.3164e+02	-12.7087	-69.693074	0.000608	6.082741	2.060888	-0.000243
1325	1.3174e+02	-12.7553	-69.931265	0.000598	5.981362	2.026540	-0.000239
1326	1.3184e+02	-12.7873	-70.193679	0.000659	6.589636	2.232629	-0.000264
1327	1.3194e+02	-12.8339	-70.496464	0.000760	7.603426	2.576111	-0.000304
1328	1.3204e+02	-12.8627	-70.742730	0.000618	6.184120	2.095237	-0.000248
1329	1.3214e+02	-12.9012	-71.013218	0.000679	6.792394	2.301325	-0.000272
1330	1.3224e+02	-12.9446	-71.275631	0.000659	6.589636	2.232629	-0.000264
1331	1.3234e+02	-12.9863	-71.521897	0.000618	6.184120	2.095237	-0.000248
1332	1.3243e+02	-13.0312	-71.812571	0.000730	7.299289	2.473066	-0.000292
1333	1.3253e+02	-13.0681	-72.046724	0.000588	5.879983	1.992192	-0.000235
1334	1.3263e+02	-13.1082	-72.333361	0.000720	7.197910	2.438718	-0.000288
1335	1.3273e+02	-13.1451	-72.603849	0.000679	6.792394	2.301325	-0.000272
1336	1.3283e+02	-13.1820	-72.846077	0.000608	6.082741	2.060888	-0.000243
1337	1.3293e+02	-13.2381	-73.160974	0.000791	7.907563	2.679155	-0.000316
1338	1.3303e+02	-13.2654	-73.415313	0.000639	6.386878	2.163933	-0.000256
1339	1.3313e+02	-13.3119	-73.705987	0.000730	7.299289	2.473066	-0.000292
1340	1.3323e+02	-13.3488	-73.956290	0.000629	6.285499	2.129585	-0.000252
1341	1.3333e+02	-13.3825	-74.218703	0.000659	6.589636	2.232629	-0.000264
1342	1.3343e+02	-13.4354	-74.477080	0.000649	6.488257	2.198281	-0.000260
1343	1.3353e+02	-13.4723	-74.771791	0.000740	7.400668	2.507414	-0.000296
1344	1.3363e+02	-13.5012	-75.022093	0.000629	6.285499	2.129585	-0.000252
1345	1.3373e+02	-13.5477	-75.296619	0.000689	6.893773	2.335674	-0.000276
1346	1.3383e+02	-13.5943	-75.546921	0.000629	6.285499	2.129585	-0.000252
1347	1.3393e+02	-13.6247	-75.857781	0.000781	7.806184	2.644807	-0.000312
1348	1.3403e+02	-13.6616	-76.091934	0.000588	5.879983	1.992192	-0.000235
1349	1.3413e+02	-13.7082	-76.410868	0.000801	8.008942	2.713503	-0.000321
1350	1.3423e+02	-13.7403	-76.689430	0.000700	6.995152	2.370022	-0.000280
1351	1.3432e+02	-13.7852	-76.967993	0.000700	6.995152	2.370022	-0.000280
1352	1.3442e+02	-13.8269	-77.202147	0.000588	5.879983	1.992192	-0.000235
1353	1.3452e+02	-13.8718	-77.492820	0.000730	7.299289	2.473066	-0.000292
1354	1.3462e+02	-13.9167	-77.791569	0.000750	7.502047	2.541762	-0.000300
1355	1.3472e+02	-13.9472	-78.037834	0.000618	6.184120	2.095237	-0.000248
1356	1.3482e+02	-13.9793	-78.324470	0.000720	7.197910	2.438718	-0.000288
1357	1.3492e+02	-14.0226	-78.598996	0.000689	6.893773	2.335674	-0.000276
1358	1.3502e+02	-14.0659	-78.893707	0.000740	7.400668	2.507414	-0.000296
1359	1.3512e+02	-14.1060	-79.135935	0.000608	6.082741	2.060888	-0.000243
1360	1.3522e+02	-14.1429	-79.466980	0.000831	8.313079	2.816548	-0.000333
1361	1.3532e+02	-14.1878	-79.737468	0.000679	6.792394	2.301325	-0.000272
1362	1.3542e+02	-14.2311	-79.995845	0.000649	6.488257	2.198281	-0.000260
1363	1.3552e+02	-14.2616	-80.310741	0.000791	7.907563	2.679155	-0.000316
1364	1.3562e+02	-14.2985	-80.597378	0.000720	7.197910	2.438718	-0.000288
1365	1.3572e+02	-14.3418	-80.888052	0.000730	7.299289	2.473066	-0.000292
1366	1.3582e+02	-14.3852	-81.162577	0.000689	6.893773	2.335674	-0.000276
1367	1.3592e+02	-14.4269	-81.493622	0.000831	8.313079	2.816548	-0.000333
1368	1.3602e+02	-14.4638	-81.747962	0.000639	6.386878	2.163933	-0.000256
1369	1.3612e+02	-14.5055	-82.062858	0.000791	7.907563	2.679155	-0.000316
1370	1.3622e+02	-14.5488	-82.365643	0.000760	7.603426	2.576111	-0.000304
1371	1.3631e+02	-14.5777	-82.664391	0.000750	7.502047	2.541762	-0.000300
1372	1.3641e+02	-14.6258	-82.934879	0.000679	6.792394	2.301325	-0.000272
1373	1.3651e+02	-14.6691	-83.237665	0.000760	7.603426	2.576111	-0.000304
1374	1.3661e+02	-14.7028	-83.552561	0.000791	7.907563	2.679155	-0.000316
1375	1.3671e+02	-14.7333	-83.879569	0.000821	8.211700	2.782199	-0.000329
1376	1.3681e+02	-14.7814	-84.170243	0.000730	7.299289	2.473066	-0.000292
1377	1.3691e+02	-14.8199	-84.452843	0.000710	7.096531	2.404370	-0.000284
1378	1.3701e+02	-14.8584	-84.731405	0.000700	6.995152	2.370022	-0.000280
1379	1.3711e+02	-14.9033	-85.078599	0.000872	8.718595	2.953940	-0.000349
1380	1.3721e+02	-14.9402	-85.373309	0.000740	7.400668	2.507414	-0.000296
1381	1.3731e+02	-14.9819	-85.692243	0.000801	8.008942	2.713503	-0.000321
1382	1.3741e+02	-15.0108	-86.031363	0.000852	8.515837	2.885244	-0.000341
1383	1.3751e+02	-15.0702	-86.326073	0.000740	7.400668	2.507414	-0.000296
1384	1.3761e+02	-15.0958	-86.640970	0.000791	7.907563	2.679155	-0.000316
1385	1.3771e+02	-15.1343	-86.959904	0.000801	8.008942	2.713503	-0.000321
1386	1.3781e+02	-15.1793	-87.262689	0.000760	7.603426	2.576111	-0.000304
1387	1.3791e+02	-15.2178	-87.565474	0.000760	7.603426	2.576111	-0.000304
1388	1.3801e+02	-15.2579	-87.916705	0.000882	8.819974	2.988288	-0.000353
1389	1.3811e+02	-15.2980	-88.276010	0.000902	9.022732	3.056984	-0.000361
1390	1.3821e+02	-15.3413	-88.562647	0.000720	7.197910	2.438718	-0.000288
1391	1.3831e+02	-15.3750	-88.881580	0.000801	8.008942	2.713503	-0.000321
1392	1.3840e+02	-15.4151	-89.196477	0.000791	7.907563	2.679155	-0.000316
1393	1.3850e+02	-15.4648	-89.584042	0.000973	9.732386	3.297421	-0.000390
1394	1.3860e+02	-15.5017	-89.886827	0.000760	7.603426	2.576111	-0.000304
1395	1.3870e+02	-15.5338	-90.314764	0.001075	10.746176	3.640903	-0.000430
1396	1.3880e+02	-15.5835	-90.613512	0.000750	7.502047	2.541762	-0.000300
1397	1.3890e+02	-15.6188	-90.964742	0.000882	8.819974	2.988288	-0.000353
1398	1.3900e+02	-15.6589	-91.291750	0.000821	8.211700	2.782199	-0.000329
1399	1.3910e+02	-15.7022	-91.655093	0.000912	9.124111	3.091333	-0.000365
1400	1.3920e+02	-15.7375	-91.965952	0.000781	7.806184	2.644807	-0.000312
1401	1.3930e+02	-15.7824	-92.305072	0.000852	8.515837	2.885244	-0.000341
1402	1.3940e+02	-15.8225	-92.660339	0.000892	8.921353	3.022636	-0.000357
1403	1.3950e+02	-15.8610	-93.076164	0.001044	10.442039	3.537858	-0.000418
1404	1.3960e+02	-15.8996	-93.407210	0.000831	8.313079	2.816548	-0.000333
1405	1.3970e+02	-15.9397	-93.766515	0.000902	9.022732	3.056984	-0.000361
1406	1.3980e+02	-15.9814	-94.146005	0.000953	9.529627	3.228725	-0.000381
1407	1.3990e+02	-16.0135	-94.497236	0.000882	8.819974	2.988288	-0.000353
1408	1.4000e+02	-16.0632	-94.832318	0.000841	8.414458	2.850896	-0.000337
1409	1.4010e+02	-16.0872	-95.260255	0.001075	10.746176	3.640903	-0.000430
1410	1.4020e+02	-16.1290	-95.611486	0.000882	8.819974	2.988288	-0.000353
1411	1.4029e+02	-16.1771	-95.974828	0.000912	9.124111	3.091333	-0.000365
1412	1.4039e+02	-16.2124	-96.386616	0.001034	10.340660	3.503510	-0.000414
1413	1.4049e+02	-16.2541	-96.725735	0.000852	8.515837	2.885244	-0.000341
1414	1.4059e+02	-16.2958	-97.169820	0.001115	11.151692	3.778295	-0.000446
1415	1.4069e+02	-16.3391	-97.508939	0.000852	8.515837	2.885244	-0.000341
1416	1.4079e+02	-16.3792	-97.896505	0.000973	9.732386	3.297421	-0.000390
1417	1.4089e+02	-16.4209	-98.271958	0.000943	9.428248	3.194377	-0.000377
1418	1.4099e+02	-16.4594	-98.651449	0.000953	9.529627	3.228725	-0.000381
1419	1.4109e+02	-16.4915	-99.043051	0.000983	9.833765	3.331770	-0.000394
1420	1.4119e+02	-16.5284	-99.426579	0.000963	9.631007	3.263073	-0.000385
1421	1.4129e+02	-16.5685	-99.866627	0.001105	11.050313	3.743947	-0.000442
1422	1.4139e+02	-16.6134	-100.274377	0.001024	10.239281	3.469162	-0.000410
1423	1.4149e+02	-16.6551	-100.625608	0.000882	8.819974	2.988288	-0.000353
1424	1.4159e+02	-16.6904	-101.069693	0.001115	11.151692	3.778295	-0.000446
1425	1.4169e+02	-16.7370	-101.445147	0.000943	9.428248	3.194377	-0.000377
1426	1.4179e+02	-16.7674	-101.897306	0.001135	11.354450	3.846992	-0.000454
1427	1.4189e+02	-16.8075	-102.292945	0.000994	9.935144	3.366118	-0.000398
1428	1.4199e+02	-16.8541	-102.753179	0.001156	11.557208	3.915688	-0.000463
1429	1.4209e+02	-16.8942	-103.144781	0.000983	9.833765	3.331770	-0.000394
1430	1.4219e+02	-16.9407	-103.600977	0.001146	11.455829	3.881340	-0.000458
1431	1.4228e+02	-16.9744	-104.049099	0.001125	11.253071	3.812644	-0.000450
1432	1.4238e+02	-17.0113	-104.481073	0.001085	10.847555	3.675251	-0.000434
1433	1.4248e+02	-17.0482	-104.892861	0.001034	10.340660	3.503510	-0.000414
1434	1.4258e+02	-17.0899	-105.324834	0.001085	10.847555	3.675251	-0.000434
1435	1.4268e+02	-17.1444	-105.797179	0.001186	11.861345	4.018732	-0.000475
1436	1.4278e+02	-17.1717	-106.229153	0.001085	10.847555	3.675251	-0.000434
1437	1.4288e+02	-17.2182	-106.681312	0.001135	11.354450	3.846992	-0.000454
1438	1.4298e+02	-17.2455	-107.153657	0.001186	11.861345	4.018732	-0.000475
1439	1.4308e+02	-17.3049	-107.609853	0.001146	11.455829	3.881340	-0.000458
1440	1.4318e+02	-17.3402	-108.041827	0.001085	10.847555	3.675251	-0.000434
1441	1.4328e+02	-17.3610	-108.558580	0.001298	12.976514	4.396562	-0.000519
1442	1.4338e+02	-17.4107	-109.010739	0.001135	11.354450	3.846992	-0.000454
1443	1.4348e+02	-17.4476	-109.487121	0.001196	11.962724	4.053081	-0.000479
1444	1.4358e+02	-17.4910	-109.947355	0.001156	11.557208	3.915688	-0.000463
1445	1.4368e+02	-17.5295	-110.460071	0.001288	12.875135	4.362214	-0.000515
1446	1.4378e+02	-17.5647	-110.944527	0.001217	12.165482	4.121777	-0.000487
1447	1.4388e+02	-17.6113	-111.437058	0.001237	12.368240	4.190473	-0.000495
1448	1.4398e+02	-17.6466	-111.909403	0.001186	11.861345	4.018732	-0.000475
1449	1.4408e+02	-17.6963	-112.434230	0.001318	13.179272	4.465258	-0.000527
1450	1.4418e+02	-17.7332	-112.910612	0.001196	11.962724	4.053081	-0.000479
1451	1.4428e+02	-17.7669	-113.431403	0.001308	13.077893	4.430910	-0.000523
1452	1.4437e+02	-17.8086	-113.863376	0.001085	10.847555	3.675251	-0.000434
1453	1.4447e+02	-17.8551	-114.432612	0.001429	14.294441	4.843088	-0.000572
1454	1.4457e+02	-17.8872	-114.965514	0.001338	13.382030	4.533955	-0.000536
1455	1.4467e+02	-17.9241	-115.486305	0.001308	13.077893	4.430910	-0.000523
1456	1.4477e+02	-17.9642	-116.031318	0.001369	13.686167	4.636999	-0.000548
1457	1.4487e+02	-18.0043	-116.535960	0.001267	12.672377	4.293518	-0.000507
1458	1.4497e+02	-18.0476	-117.089048	0.001389	13.888925	4.705695	-0.000556
1459	1.4507e+02	-18.0893	-117.621950	0.001338	13.382030	4.533955	-0.000536
1460	1.4517e+02	-18.1294	-118.146777	0.001318	13.179272	4.465258	-0.000527
1461	1.4527e+02	-18.1663	-118.703902	0.001399	13.990304	4.740043	-0.000560
1462	1.4537e+02	-18.2145	-119.281213	0.001450	14.497199	4.911784	-0.000580
1463	1.4547e+02	-18.2465	-119.818152	0.001348	13.483409	4.568303	-0.000540
1464	1.4557e+02	-18.2899	-120.395462	0.001450	14.497199	4.911784	-0.000580
1465	1.4567e+02	-18.3284	-121.001032	0.001521	15.206852	5.152221	-0.000609
1466	1.4577e+02	-18.3701	-121.578343	0.001450	14.497199	4.911784	-0.000580
1467	1.4587e+02	-18.4086	-122.082985	0.001267	12.672377	4.293518	-0.000507
1468	1.4597e+02	-18.4519	-122.716815	0.001592	15.916506	5.392658	-0.000637
1469	1.4607e+02	-18.4904	-123.257791	0.001358	13.584788	4.602651	-0.000544
1470	1.4617e+02	-18.5401	-123.875473	0.001551	15.510989	5.255265	-0.000621
1471	1.4626e+02	-18.5738	-124.481043	0.001521	15.206852	5.152221	-0.000609
1472	1.4636e+02	-18.6043	-125.098725	0.001551	15.510989	5.255265	-0.000621
1473	1.4646e+02	-18.6540	-125.676036	0.001450	14.497199	4.911784	-0.000580
1474	1.4656e+02	-18.6925	-126.293717	0.001551	15.510989	5.255265	-0.000621
1475	1.4666e+02	-18.7246	-126.947733	0.001642	16.423401	5.564399	-0.000657
1476	1.4676e+02	-18.7583	-127.521007	0.001440	14.395820	4.877436	-0.000576
1477	1.4686e+02	-18.8048	-128.191171	0.001683	16.828917	5.701791	-0.000674
1478	1.4696e+02	-18.8481	-128.792704	0.001511	15.105473	5.117873	-0.000605
1479	1.4706e+02	-18.8914	-129.450757	0.001652	16.524780	5.598747	-0.000661
1480	1.4716e+02	-18.9235	-130.052291	0.001511	15.105473	5.117873	-0.000605
1481	1.4726e+02	-18.9652	-130.714381	0.001663	16.626159	5.633095	-0.000665
1482	1.4736e+02	-19.0005	-131.388583	0.001693	16.930296	5.736139	-0.000678
1483	1.4746e+02	-19.0503	-132.074896	0.001723	17.234433	5.839184	-0.000690
1484	1.4756e+02	-19.0888	-132.716800	0.001612	16.119264	5.461354	-0.000645
1485	1.4766e+02	-19.1225	-133.374853	0.001652	16.524780	5.598747	-0.000661
1486	1.4776e+02	-19.1690	-134.040981	0.001673	16.727538	5.667443	-0.000669
1487	1.4786e+02	-19.2171	-134.731331	0.001734	17.335812	5.873532	-0.000694
1488	1.4796e+02	-19.2428	-135.445904	0.001794	17.944086	6.079621	-0.000718
1489	1.4806e+02	-19.2893	-136.152403	0.001774	17.741328	6.010925	-0.000710
1490	1.4816e+02	-19.3198	-136.842753	0.001734	17.335812	5.873532	-0.000694
1491	1.4825e+02	-19.3631	-137.520992	0.001703	17.031675	5.770488	-0.000682
1492	1.4835e+02	-19.4048	-138.207305	0.001723	17.234433	5.839184	-0.000690
1493	1.4845e+02	-19.4513	-138.917841	0.001784	17.842707	6.045273	-0.000714
1494	1.4855e+02	-19.4882	-139.688934	0.001936	19.363392	6.560495	-0.000775
1495	1.4865e+02	-19.5187	-140.415618	0.001825	18.248223	6.182665	-0.000730
1496	1.4875e+02	-19.5732	-141.138265	0.001815	18.146844	6.148317	-0.000726
1497	1.4885e+02	-19.5989	-141.945693	0.002028	20.275803	6.869628	-0.000811
1498	1.4895e+02	-19.6406	-142.672377	0.001825	18.248223	6.182665	-0.000730
1499	1.4905e+02	-19.6743	-143.407136	0.001845	18.450981	6.251362	-0.000738
1500	1.4915e+02	-19.7224	-144.226674	0.002058	20.579940	6.972673	-0.000824
1501	1.4925e+02	-19.7658	-145.001804	0.001946	19.464771	6.594843	-0.000779
1502	1.4935e+02	-19.7978	-145.732526	0.001835	18.349602	6.217013	-0.000734
1503	1.4945e+02	-19.8379	-146.564176	0.002088	20.884077	7.075717	-0.000836
1504	1.4955e+02	-19.8780	-147.302972	0.001855	18.552360	6.285710	-0.000743
1505	1.4965e+02	-19.9149	-148.098287	0.001997	19.971666	6.766584	-0.000799
1506	1.4975e+02	-19.9551	-148.885529	0.001977	19.768908	6.697887	-0.000791
1507	1.4985e+02	-19.9968	-149.713142	0.002078	20.782698	7.041369	-0.000832
1508	1.4995e+02	-19.9615	-150.189524	-0.001196	-11.962724	-4.053081	-0.000479
1509	1.5005e+02	-19.9182	-150.524606	-0.000841	-8.414458	-2.850896	-0.000337
1510	1.5015e+02	-19.8829	-150.896022	-0.000933	-9.326869	-3.160029	-0.000373
1511	1.5025e+02	-19.8524	-151.186696	-0.000730	-7.299289	-2.473066	-0.000292
1512	1.5034e+02	-19.7930	-151.509667	-0.000811	-8.110321	-2.747851	-0.000325
1513	1.5044e+02	-19.7625	-151.764007	-0.000639	-6.386878	-2.163933	-0.000256
1514	1.5054e+02	-19.7192	-151.937604	-0.000436	-4.359298	-1.476970	-0.000174
1515	1.5064e+02	-19.6823	-152.135423	-0.000497	-4.967572	-1.683059	-0.000199
1516	1.5074e+02	-19.6470	-152.272686	-0.000345	-3.446887	-1.167837	-0.000138
1517	1.5084e+02	-19.5989	-152.438208	-0.000416	-4.156540	-1.408274	-0.000166
1518	1.5094e+02	-19.5636	-152.518951	-0.000203	-2.027580	-0.686963	-0.000081
1519	1.5104e+02	-19.5235	-152.615842	-0.000243	-2.433096	-0.824355	-0.000097
1520	1.5114e+02	-19.4850	-152.757142	-0.000355	-3.548266	-1.202185	-0.000142
1521	1.5124e+02	-19.4513	-152.817699	-0.000152	-1.520685	-0.515222	-0.000061
1522	1.5134e+02	-19.4016	-152.894405	-0.000193	-1.926201	-0.652615	-0.000077
1523	1.5144e+02	-19.3567	-152.963036	-0.000172	-1.723443	-0.583918	-0.000069
1524	1.5154e+02	-19.3262	-153.015519	-0.000132	-1.317927	-0.446526	-0.000053
1525	1.5164e+02	-19.2813	-153.068002	-0.000132	-1.317927	-0.446526	-0.000053
1526	1.5174e+02	-19.2492	-153.104336	-0.000091	-0.912411	-0.309133	-0.000037
1527	1.5184e+02	-19.2043	-153.108373	-0.000010	-0.101379	-0.034348	-0.000004
1528	1.5194e+02	-19.1690	-153.096261	0.000030	0.304137	0.103044	0.000012
1529	1.5204e+02	-19.1225	-153.076076	0.000051	0.506895	0.171741	0.000020
1530	1.5214e+02	-19.0904	-153.080113	-0.000010	-0.101379	-0.034348	-0.000004
1531	1.5224e+02	-19.0535	-153.084150	-0.000010	-0.101379	-0.034348	-0.000004
1532	1.5233e+02	-19.0150	-153.019556	0.000162	1.622064	0.549570	0.000065
1533	1.5243e+02	-18.9668	-153.019556	0.000000	0.000000	0.000000	0.000000
1534	1.5253e+02	-18.9203	-152.963036	0.000142	1.419306	0.480874	0.000057
1535	1.5263e+02	-18.8914	-152.922665	0.000101	1.013790	0.343481	0.000041
1536	1.5273e+02	-18.8545	-152.849996	0.000182	1.824822	0.618267	0.000073
1537	1.5283e+02	-18.8080	-152.833848	0.000041	0.405516	0.137393	0.000016
1538	1.5293e+02	-18.7663	-152.761179	0.000182	1.824822	0.618267	0.000073
1539	1.5303e+02	-18.7278	-152.676399	0.000213	2.128959	0.721311	0.000085
1540	1.5313e+02	-18.6797	-152.623917	0.000132	1.317927	0.446526	0.000053
1541	1.5323e+02	-18.6412	-152.518951	0.000264	2.635854	0.893052	0.000105
1542	1.5333e+02	-18.6075	-152.478580	0.000101	1.013790	0.343481	0.000041
1543	1.5343e+02	-18.5690	-152.393800	0.000213	2.128959	0.721311	0.000085
1544	1.5353e+02	-18.5241	-152.268649	0.000314	3.142749	1.064792	0.000126
1545	1.5363e+02	-18.4856	-152.175795	0.000233	2.331717	0.790007	0.000093
1546	1.5373e+02	-18.4455	-152.107163	0.000172	1.723443	0.583918	0.000069
1547	1.5383e+02	-18.4102	-152.034495	0.000182	1.824822	0.618267	0.000073
1548	1.5393e+02	-18.3620	-151.901269	0.000335	3.345508	1.133489	0.000134
1549	1.5403e+02	-18.3332	-151.768044	0.000335	3.345508	1.133489	0.000134
1550	1.5413e+02	-18.2915	-151.671153	0.000243	2.433096	0.824355	0.000097
1551	1.5422e+02	-18.2514	-151.570224	0.000253	2.534475	0.858704	0.000101
1552	1.5432e+02	-18.2129	-151.489481	0.000203	2.027580	0.686963	0.000081
1553	1.5442e+02	-18.1679	-151.348182	0.000355	3.548266	1.202185	0.000142
1554	1.5452e+02	-18.1359	-151.218993	0.000324	3.244129	1.099140	0.000130
1555	1.5462e+02	-18.0765	-151.118065	0.000253	2.534475	0.858704	0.000101
1556	1.5472e+02	-18.0444	-150.952542	0.000416	4.156540	1.408274	0.000166
1557	1.5482e+02	-18.0123	-150.896022	0.000142	1.419306	0.480874	0.000057
1558	1.5492e+02	-17.9690	-150.706277	0.000476	4.764814	1.614363	0.000191
1559	1.5502e+02	-17.9273	-150.661869	0.000112	1.115169	0.377830	0.000045
1560	1.5512e+02	-17.8888	-150.532680	0.000324	3.244129	1.099140	0.000130
1561	1.5522e+02	-17.8519	-150.342935	0.000476	4.764814	1.614363	0.000191
1562	1.5532e+02	-17.8086	-150.205672	0.000345	3.446887	1.167837	0.000138
1563	1.5542e+02	-17.7733	-150.120892	0.000213	2.128959	0.721311	0.000085
1564	1.5552e+02	-17.7300	-149.935184	0.000466	4.663435	1.580014	0.000187
1565	1.5562e+02	-17.6915	-149.862516	0.000182	1.824822	0.618267	0.000073
1566	1.5572e+02	-17.6482	-149.660659	0.000507	5.068951	1.717407	0.000203
1567	1.5582e+02	-17.6177	-149.583953	0.000193	1.926201	0.652615	0.000077
1568	1.5592e+02	-17.5712	-149.398245	0.000466	4.663435	1.580014	0.000187
1569	1.5602e+02	-17.5327	-149.281168	0.000294	2.939991	0.996096	0.000118
1570	1.5612e+02	-17.4942	-149.176203	0.000264	2.635854	0.893052	0.000105
1571	1.5622e+02	-17.4621	-148.966272	0.000527	5.271709	1.786103	0.000211
1572	1.5631e+02	-17.4139	-148.889566	0.000193	1.926201	0.652615	0.000077
1573	1.5641e+02	-17.3722	-148.720006	0.000426	4.257919	1.442622	0.000170
1574	1.5651e+02	-17.3273	-148.558521	0.000406	4.055161	1.373926	0.000162
1575	1.5661e+02	-17.2904	-148.441444	0.000294	2.939991	0.996096	0.000118
1576	1.5671e+02	-17.2535	-148.283996	0.000395	3.953782	1.339577	0.000158
1577	1.5681e+02	-17.2022	-148.138659	0.000365	3.649645	1.236533	0.000146
1578	1.5691e+02	-17.1797	-147.961025	0.000446	4.460677	1.511318	0.000179
1579	1.5701e+02	-17.1268	-147.791465	0.000426	4.257919	1.442622	0.000170
1580	1.5711e+02	-17.0899	-147.654202	0.000345	3.446887	1.167837	0.000138
1581	1.5721e+02	-17.0530	-147.500791	0.000385	3.852403	1.305229	0.000154
1582	1.5731e+02	-17.0161	-147.343343	0.000395	3.953782	1.339577	0.000158
1583	1.5741e+02	-16.9808	-147.210118	0.000335	3.345508	1.133489	0.000134
1584	1.5751e+02	-16.9327	-147.064781	0.000365	3.649645	1.236533	0.000146
1585	1.5761e+02	-16.8910	-146.875035	0.000476	4.764814	1.614363	0.000191
1586	1.5771e+02	-16.8557	-146.749884	0.000314	3.142749	1.064792	0.000126
1587	1.5781e+02	-16.8220	-146.576287	0.000436	4.359298	1.476970	0.000174
1588	1.5791e+02	-16.7803	-146.398653	0.000446	4.460677	1.511318	0.000179
1589	1.5801e+02	-16.7418	-146.245242	0.000385	3.852403	1.305229	0.000154
1590	1.5811e+02	-16.6985	-146.079720	0.000416	4.156540	1.408274	0.000166
1591	1.5821e+02	-16.6535	-145.881900	0.000497	4.967572	1.683059	0.000199
1592	1.5830e+02	-16.6166	-145.764823	0.000294	2.939991	0.996096	0.000118
1593	1.5840e+02	-16.5781	-145.619486	0.000365	3.649645	1.236533	0.000146
1594	1.5850e+02	-16.5412	-145.462038	0.000395	3.953782	1.339577	0.000158
1595	1.5860e+02	-16.4963	-145.219810	0.000608	6.082741	2.060888	0.000243
1596	1.5870e+02	-16.4514	-145.058324	0.000406	4.055161	1.373926	0.000162
1597	1.5880e+02	-16.4145	-144.953359	0.000264	2.635854	0.893052	0.000105
1598	1.5890e+02	-16.3776	-144.779762	0.000436	4.359298	1.476970	0.000174
1599	1.5900e+02	-16.3343	-144.585979	0.000487	4.866193	1.648711	0.000195
1600	1.5910e+02	-16.3054	-144.436605	0.000375	3.751024	1.270881	0.000150
1601	1.5920e+02	-16.2557	-144.275120	0.000406	4.055161	1.373926	0.000162
1602	1.5930e+02	-16.2188	-144.081337	0.000487	4.866193	1.648711	0.000195
1603	1.5940e+02	-16.1771	-143.919852	0.000406	4.055161	1.373926	0.000162
1604	1.5950e+02	-16.1370	-143.750292	0.000426	4.257919	1.442622	0.000170
1605	1.5960e+02	-16.1017	-143.564584	0.000466	4.663435	1.580014	0.000187
1606	1.5970e+02	-16.0584	-143.443470	0.000304	3.041370	1.030444	0.000122
1607	1.5980e+02	-16.0151	-143.229502	0.000537	5.373088	1.820451	0.000215
1608	1.5990e+02	-15.9798	-143.072053	0.000395	3.953782	1.339577	0.000158
1609	1.6000e+02	-15.9332	-142.906531	0.000416	4.156540	1.408274	0.000166
1610	1.6010e+02	-15.9012	-142.732934	0.000436	4.359298	1.476970	0.000174
1611	1.6019e+02	-15.8530	-142.603746	0.000324	3.244129	1.099140	0.000130
1612	1.6029e+02	-15.8242	-142.397852	0.000517	5.170330	1.751755	0.000207
1613	1.6039e+02	-15.7840	-142.260589	0.000345	3.446887	1.167837	0.000138
1614	1.6049e+02	-15.7311	-142.062769	0.000497	4.967572	1.683059	0.000199
1615	1.6059e+02	-15.6974	-141.881098	0.000456	4.562056	1.545666	0.000183
1616	1.6069e+02	-15.6573	-141.743836	0.000345	3.446887	1.167837	0.000138
1617	1.6079e+02	-15.6236	-141.533905	0.000527	5.271709	1.786103	0.000211
1618	1.6089e+02	-15.5771	-141.332048	0.000507	5.068951	1.717407	0.000203
1619	1.6099e+02	-15.5450	-141.174600	0.000395	3.953782	1.339577	0.000158
1620	1.6109e+02	-15.5001	-140.980817	0.000487	4.866193	1.648711	0.000195
1621	1.6119e+02	-15.4696	-140.855666	0.000314	3.142749	1.064792	0.000126
1622	1.6129e+02	-15.4183	-140.649772	0.000517	5.170330	1.751755	0.000207
1623	1.6139e+02	-15.3750	-140.524621	0.000314	3.142749	1.064792	0.000126
1624	1.6149e+02	-15.3349	-140.314690	0.000527	5.271709	1.786103	0.000211
1625	1.6159e+02	-15.3060	-140.137056	0.000446	4.460677	1.511318	0.000179
1626	1.6169e+02	-15.2659	-139.959422	0.000446	4.460677	1.511318	0.000179
1627	1.6179e+02	-15.2178	-139.797936	0.000406	4.055161	1.373926	0.000162
1628	1.6189e+02	-15.1793	-139.575894	0.000558	5.575846	1.889148	0.000223
1629	1.6199e+02	-15.1407	-139.402297	0.000436	4.359298	1.476970	0.000174
1630	1.6209e+02	-15.1071	-139.252923	0.000375	3.751024	1.270881	0.000150
1631	1.6219e+02	-15.0589	-139.034918	0.000547	5.474467	1.854800	0.000219
1632	1.6228e+02	-15.0317	-138.905729	0.000324	3.244129	1.099140	0.000130
1633	1.6238e+02	-14.9787	-138.703873	0.000507	5.068951	1.717407	0.000203
1634	1.6248e+02	-14.9306	-138.518164	0.000466	4.663435	1.580014	0.000187
1635	1.6258e+02	-14.8953	-138.328419	0.000476	4.764814	1.614363	0.000191
1636	1.6268e+02	-14.8616	-138.142711	0.000466	4.663435	1.580014	0.000187
1637	1.6278e+02	-14.8295	-137.981225	0.000406	4.055161	1.373926	0.000162
1638	1.6288e+02	-14.7862	-137.819740	0.000406	4.055161	1.373926	0.000162
1639	1.6298e+02	-14.7461	-137.621920	0.000497	4.967572	1.683059	0.000199
1640	1.6308e+02	-14.7028	-137.440249	0.000456	4.562056	1.545666	0.000183
1641	1.6318e+02	-14.6627	-137.238392	0.000507	5.068951	1.717407	0.000203
1642	1.6328e+02	-14.6178	-137.072870	0.000416	4.156540	1.408274	0.000166
1643	1.6338e+02	-14.5905	-136.919459	0.000385	3.852403	1.305229	0.000154
1644	1.6348e+02	-14.5472	-136.729713	0.000476	4.764814	1.614363	0.000191
1645	1.6358e+02	-14.5023	-136.531894	0.000497	4.967572	1.683059	0.000199
1646	1.6368e+02	-14.4670	-136.338111	0.000487	4.866193	1.648711	0.000195
1647	1.6378e+02	-14.4204	-136.128180	0.000527	5.271709	1.786103	0.000211
1648	1.6388e+02	-14.3787	-135.962657	0.000416	4.156540	1.408274	0.000166
1649	1.6398e+02	-14.3418	-135.793098	0.000426	4.257919	1.442622	0.000170
1650	1.6408e+02	-14.3114	-135.583167	0.000527	5.271709	1.786103	0.000211
1651	1.6418e+02	-14.2552	-135.417644	0.000416	4.156540	1.408274	0.000166
1652	1.6427e+02	-14.2279	-135.248084	0.000426	4.257919	1.442622	0.000170
1653	1.6437e+02	-14.1798	-135.058339	0.000476	4.764814	1.614363	0.000191
1654	1.6447e+02	-14.1413	-134.844371	0.000537	5.373088	1.820451	0.000215
1655	1.6457e+02	-14.1028	-134.646551	0.000497	4.967572	1.683059	0.000199
1656	1.6467e+02	-14.0595	-134.448731	0.000497	4.967572	1.683059	0.000199
1657	1.6477e+02	-14.0178	-134.246875	0.000507	5.068951	1.717407	0.000203
1658	1.6487e+02	-13.9809	-134.089426	0.000395	3.953782	1.339577	0.000158
1659	1.6497e+02	-13.9472	-133.895644	0.000487	4.866193	1.648711	0.000195
1660	1.6507e+02	-13.9039	-133.689750	0.000517	5.170330	1.751755	0.000207
1661	1.6517e+02	-13.8622	-133.508079	0.000456	4.562056	1.545666	0.000183
1662	1.6527e+02	-13.8269	-133.342556	0.000416	4.156540	1.408274	0.000166
1663	1.6537e+02	-13.7884	-133.112440	0.000578	5.778604	1.957844	0.000231
1664	1.6547e+02	-13.7403	-132.963066	0.000375	3.751024	1.270881	0.000150
1665	1.6557e+02	-13.7082	-132.765246	0.000497	4.967572	1.683059	0.000199
1666	1.6567e+02	-13.6552	-132.547241	0.000547	5.474467	1.854800	0.000219
1667	1.6577e+02	-13.6280	-132.353458	0.000487	4.866193	1.648711	0.000195
1668	1.6587e+02	-13.5895	-132.212158	0.000355	3.548266	1.202185	0.000142
1669	1.6597e+02	-13.5429	-131.982042	0.000578	5.778604	1.957844	0.000231
1670	1.6607e+02	-13.5028	-131.840742	0.000355	3.548266	1.202185	0.000142
1671	1.6616e+02	-13.4643	-131.638885	0.000507	5.068951	1.717407	0.000203
1672	1.6626e+02	-13.4338	-131.428954	0.000527	5.271709	1.786103	0.000211
1673	1.6636e+02	-13.3953	-131.239209	0.000476	4.764814	1.614363	0.000191
1674	1.6646e+02	-13.3504	-131.037352	0.000507	5.068951	1.717407	0.000203
1675	1.6656e+02	-13.3055	-130.867792	0.000426	4.257919	1.442622	0.000170
1676	1.6666e+02	-13.2686	-130.649787	0.000547	5.474467	1.854800	0.000219
1677	1.6676e+02	-13.2253	-130.427744	0.000558	5.575846	1.889148	0.000223
1678	1.6686e+02	-13.1788	-130.278370	0.000375	3.751024	1.270881	0.000150
1679	1.6696e+02	-13.1483	-130.096699	0.000456	4.562056	1.545666	0.000183
1680	1.6706e+02	-13.1066	-129.927139	0.000426	4.257919	1.442622	0.000170
1681	1.6716e+02	-13.0697	-129.709134	0.000547	5.474467	1.854800	0.000219
1682	1.6726e+02	-13.0232	-129.491129	0.000547	5.474467	1.854800	0.000219
1683	1.6736e+02	-12.9863	-129.256975	0.000588	5.879983	1.992192	0.000235
1684	1.6746e+02	-12.9494	-129.143935	0.000284	2.838612	0.961748	0.000114
1685	1.6756e+02	-12.9093	-128.873447	0.000679	6.792394	2.301325	0.000272
1686	1.6766e+02	-12.8692	-128.715999	0.000395	3.953782	1.339577	0.000158
1687	1.6776e+02	-12.8339	-128.502031	0.000537	5.373088	1.820451	0.000215
1688	1.6786e+02	-12.7922	-128.356694	0.000365	3.649645	1.236533	0.000146
1689	1.6796e+02	-12.7504	-128.114466	0.000608	6.082741	2.060888	0.000243
1690	1.6806e+02	-12.7023	-127.928757	0.000466	4.663435	1.580014	0.000187
1691	1.6816e+02	-12.6686	-127.734975	0.000487	4.866193	1.648711	0.000195
1692	1.6825e+02	-12.6365	-127.537155	0.000497	4.967572	1.683059	0.000199
1693	1.6835e+02	-12.5916	-127.343373	0.000487	4.866193	1.648711	0.000195
1694	1.6845e+02	-12.5483	-127.153627	0.000476	4.764814	1.614363	0.000191
1695	1.6855e+02	-12.5194	-126.951770	0.000507	5.068951	1.717407	0.000203
1696	1.6865e+02	-12.4761	-126.741839	0.000527	5.271709	1.786103	0.000211
1697	1.6875e+02	-12.4328	-126.523834	0.000547	5.474467	1.854800	0.000219
1698	1.6885e+02	-12.3831	-126.334089	0.000476	4.764814	1.614363	0.000191
1699	1.6895e+02	-12.3510	-126.112046	0.000558	5.575846	1.889148	0.000223
1700	1.6905e+02	-12.3109	-125.954598	0.000395	3.953782	1.339577	0.000158
1701	1.6915e+02	-12.2772	-125.720444	0.000588	5.879983	1.992192	0.000235
1702	1.6925e+02	-12.2355	-125.567033	0.000385	3.852403	1.305229	0.000154
1703	1.6935e+02	-12.2002	-125.328842	0.000598	5.981362	2.026540	0.000239
1704	1.6945e+02	-12.1537	-125.082577	0.000618	6.184120	2.095237	0.000248
1705	1.6955e+02	-12.1168	-124.913017	0.000426	4.257919	1.442622	0.000170
1706	1.6965e+02	-12.0751	-124.739420	0.000436	4.359298	1.476970	0.000174
1707	1.6975e+02	-12.0350	-124.513340	0.000568	5.677225	1.923496	0.000227
1708	1.6985e+02	-11.9932	-124.287261	0.000568	5.677225	1.923496	0.000227
1709	1.6995e+02	-11.9467	-124.129813	0.000395	3.953782	1.339577	0.000158
1710	1.7005e+02	-11.9098	-123.859324	0.000679	6.792394	2.301325	0.000272
1711	1.7015e+02	-11.8729	-123.709950	0.000375	3.751024	1.270881	0.000150
1712	1.7024e+02	-11.8296	-123.479834	0.000578	5.778604	1.957844	0.000231
1713	1.7034e+02	-11.7943	-123.269903	0.000527	5.271709	1.786103	0.000211
1714	1.7044e+02	-11.7574	-123.064009	0.000517	5.170330	1.751755	0.000207
1715	1.7054e+02	-11.7093	-122.882338	0.000456	4.562056	1.545666	0.000183
1716	1.7064e+02	-11.6756	-122.611849	0.000679	6.792394	2.301325	0.000272
1717	1.7074e+02	-11.6307	-122.414030	0.000497	4.967572	1.683059	0.000199
1718	1.7084e+02	-11.5970	-122.264656	0.000375	3.751024	1.270881	0.000150
1719	1.7094e+02	-11.5505	-122.026465	0.000598	5.981362	2.026540	0.000239
1720	1.7104e+02	-11.5136	-121.820571	0.000517	5.170330	1.751755	0.000207
1721	1.7114e+02	-11.4751	-121.618714	0.000507	5.068951	1.717407	0.000203
1722	1.7124e+02	-11.4350	-121.388597	0.000578	5.778604	1.957844	0.000231
1723	1.7134e+02	-11.3901	-121.186741	0.000507	5.068951	1.717407	0.000203
1724	1.7144e+02	-11.3644	-120.992958	0.000487	4.866193	1.648711	0.000195
1725	1.7154e+02	-11.3227	-120.770916	0.000558	5.575846	1.889148	0.000223
1726	1.7164e+02	-11.2697	-120.540799	0.000578	5.778604	1.957844	0.000231
1727	1.7174e+02	-11.2377	-120.355091	0.000466	4.663435	1.580014	0.000187
1728	1.7184e+02	-11.2024	-120.116900	0.000598	5.981362	2.026540	0.000239
1729	1.7194e+02	-11.1558	-119.931191	0.000466	4.663435	1.580014	0.000187
1730	1.7204e+02	-11.1157	-119.753557	0.000446	4.460677	1.511318	0.000179
1731	1.7213e+02	-11.0692	-119.426549	0.000821	8.211700	2.782199	0.000329
1732	1.7223e+02	-11.0387	-119.285250	0.000355	3.548266	1.202185	0.000142
1733	1.7233e+02	-11.0018	-119.091467	0.000487	4.866193	1.648711	0.000195
1734	1.7243e+02	-10.9473	-118.881536	0.000527	5.271709	1.786103	0.000211
1735	1.7253e+02	-10.9184	-118.635271	0.000618	6.184120	2.095237	0.000248
1736	1.7263e+02	-10.8767	-118.445525	0.000476	4.764814	1.614363	0.000191
1737	1.7273e+02	-10.8318	-118.247706	0.000497	4.967572	1.683059	0.000199
1738	1.7283e+02	-10.8077	-118.001440	0.000618	6.184120	2.095237	0.000248
1739	1.7293e+02	-10.7564	-117.823807	0.000446	4.460677	1.511318	0.000179
1740	1.7303e+02	-10.7227	-117.549281	0.000689	6.893773	2.335674	0.000276
1741	1.7313e+02	-10.6858	-117.395870	0.000385	3.852403	1.305229	0.000154
1742	1.7323e+02	-10.6409	-117.153642	0.000608	6.082741	2.060888	0.000243
1743	1.7333e+02	-10.5960	-116.899302	0.000639	6.386878	2.163933	0.000256
1744	1.7343e+02	-10.5607	-116.737817	0.000406	4.055161	1.373926	0.000162
1745	1.7353e+02	-10.5125	-116.515775	0.000558	5.575846	1.889148	0.000223
1746	1.7363e+02	-10.4805	-116.277584	0.000598	5.981362	2.026540	0.000239
1747	1.7373e+02	-10.4371	-116.047467	0.000578	5.778604	1.957844	0.000231
1748	1.7383e+02	-10.4051	-115.833499	0.000537	5.373088	1.820451	0.000215
1749	1.7393e+02	-10.3569	-115.619530	0.000537	5.373088	1.820451	0.000215
1750	1.7403e+02	-10.3200	-115.393451	0.000568	5.677225	1.923496	0.000227
1751	1.7413e+02	-10.2783	-115.171408	0.000558	5.575846	1.889148	0.000223
1752	1.7422e+02	-10.2462	-114.957440	0.000537	5.373088	1.820451	0.000215
1753	1.7432e+02	-10.2093	-114.699063	0.000649	6.488257	2.198281	0.000260
1754	1.7442e+02	-10.1580	-114.501244	0.000497	4.967572	1.683059	0.000199
1755	1.7452e+02	-10.1339	-114.275164	0.000568	5.677225	1.923496	0.000227
1756	1.7462e+02	-10.0730	-114.028899	0.000618	6.184120	2.095237	0.000248
1757	1.7472e+02	-10.0345	-113.790708	0.000598	5.981362	2.026540	0.000239
1758	1.7482e+02	-10.0024	-113.609037	0.000456	4.562056	1.545666	0.000183
1759	1.7492e+02	-9.9591	-113.382957	0.000568	5.677225	1.923496	0.000227
1760	1.7502e+02	-9.9286	-113.156878	0.000568	5.677225	1.923496	0.000227
1761	1.7512e+02	-9.8853	-112.938872	0.000547	5.474467	1.854800	0.000219
1762	1.7522e+02	-9.8420	-112.684533	0.000639	6.386878	2.163933	0.000256
1763	1.7532e+02	-9.8019	-112.482676	0.000507	5.068951	1.717407	0.000203
1764	1.7542e+02	-9.7618	-112.252559	0.000578	5.778604	1.957844	0.000231
1765	1.7552e+02	-9.7281	-112.042628	0.000527	5.271709	1.786103	0.000211
1766	1.7562e+02	-9.6719	-111.768103	0.000689	6.893773	2.335674	0.000276
1767	1.7572e+02	-9.6479	-111.554135	0.000537	5.373088	1.820451	0.000215
1768	1.7582e+02	-9.5997	-111.360352	0.000487	4.866193	1.648711	0.000195
1769	1.7592e+02	-9.5580	-111.134273	0.000568	5.677225	1.923496	0.000227
1770	1.7602e+02	-9.5227	-110.883970	0.000629	6.285499	2.129585	0.000252
1771	1.7612e+02	-9.4794	-110.637705	0.000618	6.184120	2.095237	0.000248
1772	1.7621e+02	-9.4441	-110.427774	0.000527	5.271709	1.786103	0.000211
1773	1.7631e+02	-9.4088	-110.201694	0.000568	5.677225	1.923496	0.000227
1774	1.7641e+02	-9.3703	-109.931206	0.000679	6.792394	2.301325	0.000272
1775	1.7651e+02	-9.3270	-109.737424	0.000487	4.866193	1.648711	0.000195
1776	1.7661e+02	-9.2837	-109.491158	0.000618	6.184120	2.095237	0.000248
1777	1.7671e+02	-9.2436	-109.313524	0.000446	4.460677	1.511318	0.000179
1778	1.7681e+02	-9.2067	-109.047073	0.000669	6.691015	2.266977	0.000268
1779	1.7691e+02	-9.1538	-108.788697	0.000649	6.488257	2.198281	0.000260
1780	1.7701e+02	-9.1201	-108.578766	0.000527	5.271709	1.786103	0.000211
1781	1.7711e+02	-9.0912	-108.356723	0.000558	5.575846	1.889148	0.000223
1782	1.7721e+02	-9.0431	-108.082198	0.000689	6.893773	2.335674	0.000276
1783	1.7731e+02	-9.0046	-107.896490	0.000466	4.663435	1.580014	0.000187
1784	1.7741e+02	-8.9548	-107.650224	0.000618	6.184120	2.095237	0.000248
1785	1.7751e+02	-8.9276	-107.403959	0.000618	6.184120	2.095237	0.000248
1786	1.7761e+02	-8.8746	-107.169805	0.000588	5.879983	1.992192	0.000235
1787	1.7771e+02	-8.8409	-106.903354	0.000669	6.691015	2.266977	0.000268
1788	1.7781e+02	-8.8056	-106.657089	0.000618	6.184120	2.095237	0.000248
1789	1.7791e+02	-8.7687	-106.483492	0.000436	4.359298	1.476970	0.000174
1790	1.7801e+02	-8.7142	-106.213004	0.000679	6.792394	2.301325	0.000272
1791	1.7810e+02	-8.6901	-106.011147	0.000507	5.068951	1.717407	0.000203
1792	1.7820e+02	-8.6468	-105.724511	0.000720	7.197910	2.438718	0.000288
1793	1.7830e+02	-8.6035	-105.518617	0.000517	5.170330	1.751755	0.000207
1794	1.7840e+02	-8.5650	-105.312723	0.000517	5.170330	1.751755	0.000207
1795	1.7850e+02	-8.5217	-105.022049	0.000730	7.299289	2.473066	0.000292
1796	1.7860e+02	-8.4896	-104.791932	0.000578	5.778604	1.957844	0.000231
1797	1.7870e+02	-8.4447	-104.541630	0.000629	6.285499	2.129585	0.000252
1798	1.7880e+02	-8.4094	-104.331699	0.000527	5.271709	1.786103	0.000211
1799	1.7890e+02	-8.3709	-104.073322	0.000649	6.488257	2.198281	0.000260
1800	1.7900e+02	-8.3356	-103.851280	0.000558	5.575846	1.889148	0.000223
1801	1.7910e+02	-8.2875	-103.580792	0.000679	6.792394	2.301325	0.000272
1802	1.7920e+02	-8.2554	-103.350675	0.000578	5.778604	1.957844	0.000231
1803	1.7930e+02	-8.2057	-103.104410	0.000618	6.184120	2.095237	0.000248
1804	1.7940e+02	-8.1671	-102.862181	0.000608	6.082741	2.060888	0.000243
1805	1.7950e+02	-8.1286	-102.619953	0.000608	6.082741	2.060888	0.000243
1806	1.7960e+02	-8.0869	-102.377725	0.000608	6.082741	2.060888	0.000243
1807	1.7970e+02	-8.0516	-102.216240	0.000406	4.055161	1.373926	0.000162
1808	1.7980e+02	-8.0019	-101.885195	0.000831	8.313079	2.816548	0.000333
1809	1.7990e+02	-7.9634	-101.671226	0.000537	5.373088	1.820451	0.000215
1810	1.8000e+02	-7.9281	-101.392664	0.000700	6.995152	2.370022	0.000280
1811	1.8009e+02	-7.8896	-101.178696	0.000537	5.373088	1.820451	0.000215
1812	1.8019e+02	-7.8495	-100.896096	0.000710	7.096531	2.404370	0.000284
1813	1.8029e+02	-7.8062	-100.674054	0.000558	5.575846	1.889148	0.000223
1814	1.8039e+02	-7.7709	-100.395492	0.000700	6.995152	2.370022	0.000280
1815	1.8049e+02	-7.7372	-100.165375	0.000578	5.778604	1.957844	0.000231
1816	1.8059e+02	-7.6971	-99.943332	0.000558	5.575846	1.889148	0.000223
1817	1.8069e+02	-7.6490	-99.709178	0.000588	5.879983	1.992192	0.000235
1818	1.8079e+02	-7.6073	-99.426579	0.000710	7.096531	2.404370	0.000284
1819	1.8089e+02	-7.5688	-99.176277	0.000629	6.285499	2.129585	0.000252
1820	1.8099e+02	-7.5255	-98.942123	0.000588	5.879983	1.992192	0.000235
1821	1.8109e+02	-7.4918	-98.691820	0.000629	6.285499	2.129585	0.000252
1822	1.8119e+02	-7.4485	-98.413258	0.000700	6.995152	2.370022	0.000280
1823	1.8129e+02	-7.4067	-98.231587	0.000456	4.562056	1.545666	0.000183
1824	1.8139e+02	-7.3731	-97.912653	0.000801	8.008942	2.713503	0.000321
1825	1.8149e+02	-7.3394	-97.710796	0.000507	5.068951	1.717407	0.000203
1826	1.8159e+02	-7.2896	-97.444345	0.000669	6.691015	2.266977	0.000268
1827	1.8169e+02	-7.2495	-97.141560	0.000760	7.603426	2.576111	0.000304
1828	1.8179e+02	-7.2207	-96.927592	0.000537	5.373088	1.820451	0.000215
1829	1.8189e+02	-7.1725	-96.673252	0.000639	6.386878	2.163933	0.000256
1830	1.8199e+02	-7.1324	-96.426987	0.000618	6.184120	2.095237	0.000248
1831	1.8209e+02	-7.0939	-96.120165	0.000770	7.704805	2.610459	0.000308
1832	1.8218e+02	-7.0570	-95.881974	0.000598	5.981362	2.026540	0.000239
1833	1.8228e+02	-7.0137	-95.663968	0.000547	5.474467	1.854800	0.000219
1834	1.8238e+02	-6.9784	-95.425777	0.000598	5.981362	2.026540	0.000239
1835	1.8248e+02	-6.9287	-95.183549	0.000608	6.082741	2.060888	0.000243
1836	1.8258e+02	-6.8934	-94.868653	0.000791	7.907563	2.679155	0.000316
1837	1.8268e+02	-6.8565	-94.658722	0.000527	5.271709	1.786103	0.000211
1838	1.8278e+02	-6.8228	-94.432642	0.000568	5.677225	1.923496	0.000227
1839	1.8288e+02	-6.7683	-94.105634	0.000821	8.211700	2.782199	0.000329
1840	1.8298e+02	-6.7378	-93.867443	0.000598	5.981362	2.026540	0.000239
1841	1.8308e+02	-6.6929	-93.588881	0.000700	6.995152	2.370022	0.000280
1842	1.8318e+02	-6.6576	-93.382987	0.000517	5.170330	1.751755	0.000207
1843	1.8328e+02	-6.6191	-93.124610	0.000649	6.488257	2.198281	0.000260
1844	1.8338e+02	-6.5758	-92.866233	0.000649	6.488257	2.198281	0.000260
1845	1.8348e+02	-6.5292	-92.587671	0.000700	6.995152	2.370022	0.000280
1846	1.8358e+02	-6.4923	-92.313146	0.000689	6.893773	2.335674	0.000276
1847	1.8368e+02	-6.4506	-92.042658	0.000679	6.792394	2.301325	0.000272
1848	1.8378e+02	-6.4089	-91.828689	0.000537	5.373088	1.820451	0.000215
1849	1.8388e+02	-6.3784	-91.562239	0.000669	6.691015	2.266977	0.000268
1850	1.8398e+02	-6.3303	-91.307899	0.000639	6.386878	2.163933	0.000256
1851	1.8407e+02	-6.2998	-91.029337	0.000700	6.995152	2.370022	0.000280
1852	1.8417e+02	-6.2565	-90.815368	0.000537	5.373088	1.820451	0.000215
1853	1.8427e+02	-6.2244	-90.516620	0.000750	7.502047	2.541762	0.000300
1854	1.8437e+02	-6.1747	-90.258244	0.000649	6.488257	2.198281	0.000260
1855	1.8447e+02	-6.1378	-89.983718	0.000689	6.893773	2.335674	0.000276
1856	1.8457e+02	-6.1009	-89.737453	0.000618	6.184120	2.095237	0.000248
1857	1.8467e+02	-6.0608	-89.471002	0.000669	6.691015	2.266977	0.000268
1858	1.8477e+02	-6.0159	-89.196477	0.000689	6.893773	2.335674	0.000276
1859	1.8487e+02	-5.9806	-88.946175	0.000629	6.285499	2.129585	0.000252
1860	1.8497e+02	-5.9405	-88.687798	0.000649	6.488257	2.198281	0.000260
1861	1.8507e+02	-5.8940	-88.380976	0.000770	7.704805	2.610459	0.000308
1862	1.8517e+02	-5.8619	-88.094339	0.000720	7.197910	2.438718	0.000288
1863	1.8527e+02	-5.8153	-87.868259	0.000568	5.677225	1.923496	0.000227
1864	1.8537e+02	-5.7849	-87.581623	0.000720	7.197910	2.438718	0.000288
1865	1.8547e+02	-5.7432	-87.315172	0.000669	6.691015	2.266977	0.000268
1866	1.8557e+02	-5.6998	-87.056795	0.000649	6.488257	2.198281	0.000260
1867	1.8567e+02	-5.6581	-86.786307	0.000679	6.792394	2.301325	0.000272
1868	1.8577e+02	-5.6068	-86.523893	0.000659	6.589636	2.232629	0.000264
1869	1.8587e+02	-5.5715	-86.208997	0.000791	7.907563	2.679155	0.000316
1870	1.8597e+02	-5.5458	-85.978880	0.000578	5.778604	1.957844	0.000231
1871	1.8606e+02	-5.5073	-85.716466	0.000659	6.589636	2.232629	0.000264
1872	1.8616e+02	-5.4640	-85.401569	0.000791	7.907563	2.679155	0.000316
1873	1.8626e+02	-5.4127	-85.207787	0.000487	4.866193	1.648711	0.000195
1874	1.8636e+02	-5.3822	-84.880779	0.000821	8.211700	2.782199	0.000329
1875	1.8646e+02	-5.3437	-84.614328	0.000669	6.691015	2.266977	0.000268
1876	1.8656e+02	-5.3020	-84.319617	0.000740	7.400668	2.507414	0.000296
1877	1.8666e+02	-5.2603	-84.057203	0.000659	6.589636	2.232629	0.000264
1878	1.8676e+02	-5.2282	-83.766529	0.000730	7.299289	2.473066	0.000292
1879	1.8686e+02	-5.1833	-83.504116	0.000659	6.589636	2.232629	0.000264
1880	1.8696e+02	-5.1368	-83.221516	0.000710	7.096531	2.404370	0.000284
1881	1.8706e+02	-5.0950	-82.963139	0.000649	6.488257	2.198281	0.000260
1882	1.8716e+02	-5.0517	-82.652280	0.000781	7.806184	2.644807	0.000312
1883	1.8726e+02	-5.0245	-82.369680	0.000710	7.096531	2.404370	0.000284
1884	1.8736e+02	-4.9763	-82.111304	0.000649	6.488257	2.198281	0.000260
1885	1.8746e+02	-4.9426	-81.828704	0.000710	7.096531	2.404370	0.000284
1886	1.8756e+02	-4.9025	-81.562253	0.000669	6.691015	2.266977	0.000268
1887	1.8766e+02	-4.8608	-81.299839	0.000659	6.589636	2.232629	0.000264
1888	1.8776e+02	-4.8223	-80.968794	0.000831	8.313079	2.816548	0.000333
1889	1.8786e+02	-4.7790	-80.678121	0.000730	7.299289	2.473066	0.000292
1890	1.8796e+02	-4.7453	-80.419744	0.000649	6.488257	2.198281	0.000260
1891	1.8806e+02	-4.7004	-80.096773	0.000811	8.110321	2.747851	0.000325
1892	1.8815e+02	-4.6619	-79.830322	0.000669	6.691015	2.266977	0.000268
1893	1.8825e+02	-4.6202	-79.575983	0.000639	6.386878	2.163933	0.000256
1894	1.8835e+02	-4.5833	-79.257049	0.000801	8.008942	2.713503	0.000321
1895	1.8845e+02	-4.5368	-78.962338	0.000740	7.400668	2.507414	0.000296
1896	1.8855e+02	-4.5015	-78.691850	0.000679	6.792394	2.301325	0.000272
1897	1.8865e+02	-4.4694	-78.405213	0.000720	7.197910	2.438718	0.000288
1898	1.8875e+02	-4.4181	-78.114539	0.000730	7.299289	2.473066	0.000292
1899	1.8885e+02	-4.3908	-77.880386	0.000588	5.879983	1.992192	0.000235
1900	1.8895e+02	-4.3539	-77.581637	0.000750	7.502047	2.541762	0.000300
1901	1.8905e+02	-4.3074	-77.258667	0.000811	8.110321	2.747851	0.000325
1902	1.8915e+02	-4.2721	-76.988179	0.000679	6.792394	2.301325	0.000272
1903	1.8925e+02	-4.2304	-76.681356	0.000770	7.704805	2.610459	0.000308
1904	1.8935e+02	-4.1967	-76.463351	0.000547	5.474467	1.854800	0.000219
1905	1.8945e+02	-4.1453	-76.100009	0.000912	9.124111	3.091333	0.000365
1906	1.8955e+02	-4.1068	-75.825483	0.000689	6.893773	2.335674	0.000276
1907	1.8965e+02	-4.0651	-75.534810	0.000730	7.299289	2.473066	0.000292
1908	1.8975e+02	-4.0202	-75.260284	0.000689	6.893773	2.335674	0.000276
1909	1.8985e+02	-3.9849	-74.949425	0.000781	7.806184	2.644807	0.000312
1910	1.8995e+02	-3.9320	-74.642603	0.000770	7.704805	2.610459	0.000308
1911	1.9004e+02	-3.9095	-74.347892	0.000740	7.400668	2.507414	0.000296
1912	1.9014e+02	-3.8566	-74.077404	0.000679	6.792394	2.301325	0.000272
1913	1.9024e+02	-3.8213	-73.810953	0.000669	6.691015	2.266977	0.000268
1914	1.9034e+02	-3.7860	-73.475870	0.000841	8.414458	2.850896	0.000337
1915	1.9044e+02	-3.7443	-73.185197	0.000730	7.299289	2.473066	0.000292
1916	1.9054e+02	-3.7026	-72.874337	0.000781	7.806184	2.644807	0.000312
1917	1.9064e+02	-3.6721	-72.595775	0.000700	6.995152	2.370022	0.000280
1918	1.9074e+02	-3.6288	-72.288953	0.000770	7.704805	2.610459	0.000308
1919	1.9084e+02	-3.5823	-71.998279	0.000730	7.299289	2.473066	0.000292
1920	1.9094e+02	-3.5502	-71.663196	0.000841	8.414458	2.850896	0.000337
1921	1.9104e+02	-3.5117	-71.368486	0.000740	7.400668	2.507414	0.000296
1922	1.9114e+02	-3.4732	-71.017255	0.000882	8.819974	2.988288	0.000353
1923	1.9124e+02	-3.4298	-70.750804	0.000669	6.691015	2.266977	0.000268
1924	1.9134e+02	-3.3817	-70.439944	0.000781	7.806184	2.644807	0.000312
1925	1.9144e+02	-3.3432	-70.161382	0.000700	6.995152	2.370022	0.000280
1926	1.9154e+02	-3.3159	-69.862634	0.000750	7.502047	2.541762	0.000300
1927	1.9164e+02	-3.2742	-69.563886	0.000750	7.502047	2.541762	0.000300
1928	1.9174e+02	-3.2277	-69.265138	0.000750	7.502047	2.541762	0.000300
1929	1.9184e+02	-3.1940	-68.958316	0.000770	7.704805	2.610459	0.000308
1930	1.9194e+02	-3.1491	-68.627270	0.000831	8.313079	2.816548	0.000333
1931	1.9203e+02	-3.1170	-68.344671	0.000710	7.096531	2.404370	0.000284
1932	1.9213e+02	-3.0641	-68.005552	0.000852	8.515837	2.885244	0.000341
1933	1.9223e+02	-3.0288	-67.698729	0.000770	7.704805	2.610459	0.000308
1934	1.9233e+02	-2.9775	-67.367684	0.000831	8.313079	2.816548	0.000333
1935	1.9243e+02	-2.9502	-67.097196	0.000679	6.792394	2.301325	0.000272
1936	1.9253e+02	-2.9133	-66.717705	0.000953	9.529627	3.228725	0.000381
1937	1.9263e+02	-2.8732	-66.418957	0.000750	7.502047	2.541762	0.000300
1938	1.9273e+02	-2.8186	-66.116172	0.000760	7.603426	2.576111	0.000304
1939	1.9283e+02	-2.7785	-65.813387	0.000760	7.603426	2.576111	0.000304
1940	1.9293e+02	-2.7513	-65.490416	0.000811	8.110321	2.747851	0.000325
1941	1.9303e+02	-2.7128	-65.187631	0.000760	7.603426	2.576111	0.000304
1942	1.9313e+02	-2.6694	-64.884846	0.000760	7.603426	2.576111	0.000304
1943	1.9323e+02	-2.6342	-64.545726	0.000852	8.515837	2.885244	0.000341
1944	1.9333e+02	-2.5860	-64.242941	0.000760	7.603426	2.576111	0.000304
1945	1.9343e+02	-2.5604	-63.928044	0.000791	7.907563	2.679155	0.000316
1946	1.9353e+02	-2.5138	-63.592962	0.000841	8.414458	2.850896	0.000337
1947	1.9363e+02	-2.4721	-63.282103	0.000781	7.806184	2.644807	0.000312
1948	1.9373e+02	-2.4304	-62.975280	0.000770	7.704805	2.610459	0.000308
1949	1.9383e+02	-2.3887	-62.644235	0.000831	8.313079	2.816548	0.000333
1950	1.9393e+02	-2.3598	-62.284930	0.000902	9.022732	3.056984	0.000361
1951	1.9403e+02	-2.3133	-62.002331	0.000710	7.096531	2.404370	0.000284
1952	1.9412e+02	-2.2764	-61.655137	0.000872	8.718595	2.953940	0.000349
1953	1.9422e+02	-2.2251	-61.336203	0.000801	8.008942	2.713503	0.000321
1954	1.9432e+02	-2.1930	-60.993047	0.000862	8.617216	2.919592	0.000345
1955	1.9442e+02	-2.1449	-60.710447	0.000710	7.096531	2.404370	0.000284
1956	1.9452e+02	-2.1176	-60.363254	0.000872	8.718595	2.953940	0.000349
1957	1.9462e+02	-2.0711	-60.056431	0.000770	7.704805	2.610459	0.000308
1958	1.9472e+02	-2.0310	-59.693089	0.000912	9.124111	3.091333	0.000365
1959	1.9482e+02	-1.9909	-59.378192	0.000791	7.907563	2.679155	0.000316
1960	1.9492e+02	-1.9540	-59.043110	0.000841	8.414458	2.850896	0.000337
1961	1.9502e+02	-1.9155	-58.728214	0.000791	7.907563	2.679155	0.000316
1962	1.9512e+02	-1.8753	-58.385057	0.000862	8.617216	2.919592	0.000345
1963	1.9522e+02	-1.8433	-58.082272	0.000760	7.603426	2.576111	0.000304
1964	1.9532e+02	-1.8048	-57.694707	0.000973	9.732386	3.297421	0.000390
1965	1.9542e+02	-1.7550	-57.339439	0.000892	8.921353	3.022636	0.000357
1966	1.9552e+02	-1.7037	-57.012431	0.000821	8.211700	2.782199	0.000329
1967	1.9562e+02	-1.6732	-56.705609	0.000770	7.704805	2.610459	0.000308
1968	1.9572e+02	-1.6411	-56.370526	0.000841	8.414458	2.850896	0.000337
1969	1.9582e+02	-1.5978	-56.027370	0.000862	8.617216	2.919592	0.000345
1970	1.9592e+02	-1.5561	-55.688250	0.000852	8.515837	2.885244	0.000341
1971	1.9601e+02	-1.5080	-55.361242	0.000821	8.211700	2.782199	0.000329
1972	1.9611e+02	-1.4759	-54.981752	0.000953	9.529627	3.228725	0.000381
1973	1.9621e+02	-1.4310	-54.670892	0.000781	7.806184	2.644807	0.000312
1974	1.9631e+02	-1.3989	-54.315624	0.000892	8.921353	3.022636	0.000357
1975	1.9641e+02	-1.3636	-54.012839	0.000760	7.603426	2.576111	0.000304
1976	1.9651e+02	-1.3235	-53.617200	0.000994	9.935144	3.366118	0.000398
1977	1.9661e+02	-1.2706	-53.265969	0.000882	8.819974	2.988288	0.000353
1978	1.9671e+02	-1.2369	-52.942998	0.000811	8.110321	2.747851	0.000325
1979	1.9681e+02	-1.1968	-52.583693	0.000902	9.022732	3.056984	0.000361
1980	1.9691e+02	-1.1599	-52.240536	0.000862	8.617216	2.919592	0.000345
1981	1.9701e+02	-1.1262	-51.869120	0.000933	9.326869	3.160029	0.000373
1982	1.9711e+02	-1.0796	-51.501741	0.000923	9.225490	3.125681	0.000369
1983	1.9721e+02	-1.0411	-51.158584	0.000862	8.617216	2.919592	0.000345
1984	1.9731e+02	-1.0010	-50.827539	0.000831	8.313079	2.816548	0.000333
1985	1.9741e+02	-0.9609	-50.435937	0.000983	9.833765	3.331770	0.000394
1986	1.9751e+02	-0.9144	-50.064520	0.000933	9.326869	3.160029	0.000373
1987	1.9761e+02	-0.8759	-49.721364	0.000862	8.617216	2.919592	0.000345
1988	1.9771e+02	-0.8422	-49.341873	0.000953	9.529627	3.228725	0.000381
1989	1.9781e+02	-0.7973	-48.990642	0.000882	8.819974	2.988288	0.000353
1990	1.9791e+02	-0.7508	-48.663634	0.000821	8.211700	2.782199	0.000329
1991	1.9800e+02	-0.7283	-48.235698	0.001075	10.746176	3.640903	0.000430
1992	1.9810e+02	-0.6866	-47.896578	0.000852	8.515837	2.885244	0.000341
1993	1.9820e+02	-0.6401	-47.525162	0.000933	9.326869	3.160029	0.000373
1994	1.9830e+02	-0.6000	-47.149708	0.000943	9.428248	3.194377	0.000377
1995	1.9840e+02	-0.5583	-46.758106	0.000983	9.833765	3.331770	0.000394
1996	1.9850e+02	-0.5166	-46.431098	0.000821	8.211700	2.782199	0.000329
1997	1.9860e+02	-0.4829	-46.019310	0.001034	10.340660	3.503510	0.000414
1998	1.9870e+02	-0.4476	-45.676154	0.000862	8.617216	2.919592	0.000345
1999	1.9880e+02	-0.4011	-45.304737	0.000933	9.326869	3.160029	0.000373
2000	1.9890e+02	-0.3577	-44.933321	0.000933	9.326869	3.160029	0.000373
2001	1.9900e+02	-0.3176	-44.557867	0.000943	9.428248	3.194377	0.000377
2002	1.9910e+02	-0.2791	-44.206636	0.000882	8.819974	2.988288	0.000353
2003	1.9920e+02	-0.2390	-43.847331	0.000902	9.022732	3.056984	0.000361
2004	1.9930e+02	-0.2005	-43.451692	0.000994	9.935144	3.366118	0.000398
2005	1.9940e+02	-0.1620	-43.060090	0.000983	9.833765	3.331770	0.000394
2006	1.9950e+02	-0.1299	-42.720970	0.000852	8.515837	2.885244	0.000341
2007	1.9960e+02	-0.0834	-42.313220	0.001024	10.239281	3.469162	0.000410
2008	1.9970e+02	-0.0321	-41.933729	0.000953	9.529627	3.228725	0.000381
2009	1.9980e+02	-0.0016	-41.578461	0.000953	9.529627	3.228725	0.000357

Center data before PMax,+/-Pr and +/-Vc Calc.

PMax (uC/cm2):	1.53e+02
Pr (uC/cm2):	3.14e+01
-Pr (uC/cm2):	-4.16e+01
PLoss (uC/cm2):	-5.31e+01
-Vc:	-3.47e+00
C (Max-Eff) (nF):	7.66e-01
K (Eff):	2.60e+03
Vert. (+/-Pr) Shift (uC/cm2):	-5.08e+00
Offset (uC/cm2):	-1.15e+01

A (Loop Area - uC/cm2·Volts):	3.54e-02



Hysteresis Version: 5.48.1 - Radiant Technologies, Inc., 1999 - 9/12/24

