»»»»»»»»»»»»»»»»»»»»»»»»»»»»»»»»»»»» Hysteresis ««««««««««««««««««««««««««««««««««««
»»»  Executed Version:	5.48.1
»»»  Vision Version:	5.48.4 (R)
»»»  Vision Compiled:	9/18/24
»»»  Driver Version:	5.47.0
»»»  Windows Version:	Windows 8 or 8.1
»»»  Processor Information:	x86 (AMD or Intel) - 32 Processors
»»»  Tester Name:	PMF21124-494 (100V)
»»»  Tester S/N:	PMF21124-494
»»»  Internal Amp Type:	100V RevK 270k
»»»  Internal Amp S/N:	iAB2-596/K     
»»»  Execution Count:	1
»»»»»»»»»»»»»»»»»»»»»»»»»»»»»»»»»»»»»»»»»»««««««««««««««««««««««««««««««««««««««««««

Stored:	6/5/2025 - 16:46:27
Configured:	06/05/25 02:51:50 PM
Executed:	06/05/25 04:45:39 PM

»»»»»»»»»»»»»»»»»»»»»»»»»»»»»»»»»»» Sample Info ««««««««««««««««««««««««««««««««««««
Sample Name:	
Lot Name:	
Wafer Name:	
Die Row/Column:	0/0
Capacitor Number:	0
Sample Area (cm2):	1.00e-04
Sample Thickness (microns):	3.00e-01

Amplifier:	Internal

»»»»»»»»»»»»»»»»»»»»»»»»»»»»»»»»»»» Tester Info «««««««««««««««««««««««««««««««««««
Tester Name:	PMF21124-494 (100V)
Tester Serial Number:	PMF21124-494
Return Signal Amp. Level:	0.19 [Index: 3]

»»»»»»»»»»»»»»»»»»»»»»»»»»»»»»»» Hysteresis Info ««««««««««««««««««««««««««««««««««
Task Name:	Hyst-353
Volts:	20.00
Field:	666.67 (kV/cm)
DCBias:	0.00
DCField:	0.00 (kV/cm)
Hysteresis Period (ms):	2.00e+02
Preset:	Enabled
Preset Delay (ms):	1.00e+03
Profile:	Standard Bipolar

»»»»»»»»»»»»»»»»»»»»»»»»»»»»»»»»»»»»»» Data «««««««««««««««««««««««««««««««««««««««
Points:	2009

Valid Data

Point	Time (ms)	Drive Voltage	Measured Polarization (uC/cm2)	Capacitance (uF)	Normalized Capacitance (uF/cm2)	Dielectric Constant	Instantaneous Current (mA)
   1	0.0000e+00	-0.0032	-4.297531	0.000223	2.229623	0.755417	0.000089
   2	9.9500e-02	0.0337	-4.208714	0.000223	2.229623	0.755417	0.000089
   3	1.9900e-01	0.0738	-4.071451	0.000345	3.445780	1.167462	0.000138
   4	2.9850e-01	0.1139	-3.966486	0.000264	2.635009	0.892765	0.000105
   5	3.9800e-01	0.1492	-3.813075	0.000385	3.851166	1.304810	0.000154
   6	4.9750e-01	0.1877	-3.659664	0.000385	3.851166	1.304810	0.000154
   7	5.9700e-01	0.2390	-3.486067	0.000436	4.357899	1.476496	0.000174
   8	6.9650e-01	0.2695	-3.336693	0.000375	3.749820	1.270473	0.000150
   9	7.9600e-01	0.3112	-3.187319	0.000375	3.749820	1.270473	0.000150
  10	8.9550e-01	0.3465	-3.025833	0.000405	4.053859	1.373485	0.000162
  11	9.9500e-01	0.3914	-2.868385	0.000395	3.952513	1.339148	0.000158
  12	1.0945e+00	0.4347	-2.731122	0.000345	3.445780	1.167462	0.000138
  13	1.1940e+00	0.4700	-2.521191	0.000527	5.270017	1.785530	0.000211
  14	1.2935e+00	0.5134	-2.367780	0.000385	3.851166	1.304810	0.000154
  15	1.3930e+00	0.5503	-2.202258	0.000416	4.155206	1.407822	0.000166
  16	1.4925e+00	0.5888	-2.032698	0.000426	4.256552	1.442159	0.000170
  17	1.5920e+00	0.6224	-1.867175	0.000416	4.155206	1.407822	0.000166
  18	1.6915e+00	0.6674	-1.705690	0.000405	4.053859	1.373485	0.000162
  19	1.7910e+00	0.7187	-1.544204	0.000405	4.053859	1.373485	0.000162
  20	1.8905e+00	0.7428	-1.358496	0.000466	4.661938	1.579507	0.000187
  21	1.9900e+00	0.7893	-1.160677	0.000497	4.965978	1.682519	0.000199
  22	2.0895e+00	0.8310	-1.035525	0.000314	3.141741	1.064451	0.000126
  23	2.1890e+00	0.8711	-0.857891	0.000446	4.459245	1.510833	0.000179
  24	2.2885e+00	0.9160	-0.716592	0.000355	3.547127	1.201799	0.000142
  25	2.3880e+00	0.9433	-0.514735	0.000507	5.067324	1.716856	0.000203
  26	2.4875e+00	0.9866	-0.300767	0.000537	5.371364	1.819867	0.000215
  27	2.5870e+00	1.0315	-0.155430	0.000365	3.648473	1.236136	0.000146
  28	2.6865e+00	1.0604	0.006056	0.000405	4.053859	1.373485	0.000162
  29	2.7860e+00	1.1085	0.191764	0.000466	4.661938	1.579507	0.000187
  30	2.8855e+00	1.1470	0.337101	0.000365	3.648473	1.236136	0.000146
  31	2.9850e+00	1.1839	0.542995	0.000517	5.168671	1.751193	0.000207
  32	3.0845e+00	1.2288	0.724666	0.000456	4.560592	1.545170	0.000183
  33	3.1840e+00	1.2770	0.914411	0.000476	4.763285	1.613845	0.000191
  34	3.2835e+00	1.3074	1.083971	0.000426	4.256552	1.442159	0.000170
  35	3.3830e+00	1.3411	1.265642	0.000456	4.560592	1.545170	0.000183
  36	3.4825e+00	1.3925	1.451350	0.000466	4.661938	1.579507	0.000187
  37	3.5820e+00	1.4149	1.685504	0.000588	5.878096	1.991553	0.000235
  38	3.6815e+00	1.4631	1.822767	0.000345	3.445780	1.167462	0.000138
  39	3.7810e+00	1.5016	2.020586	0.000497	4.965978	1.682519	0.000199
  40	3.8805e+00	1.5529	2.214369	0.000486	4.864631	1.648182	0.000195
  41	3.9800e+00	1.5882	2.359706	0.000365	3.648473	1.236136	0.000146
  42	4.0795e+00	1.6203	2.585785	0.000568	5.675403	1.922879	0.000227
  43	4.1790e+00	1.6636	2.771494	0.000466	4.661938	1.579507	0.000187
  44	4.2785e+00	1.7053	2.961239	0.000476	4.763285	1.613845	0.000191
  45	4.3780e+00	1.7566	3.114650	0.000385	3.851166	1.304810	0.000154
  46	4.4775e+00	1.7823	3.340730	0.000568	5.675403	1.922879	0.000227
  47	4.5770e+00	1.8224	3.530475	0.000476	4.763285	1.613845	0.000191
  48	4.6765e+00	1.8609	3.708109	0.000446	4.459245	1.510833	0.000179
  49	4.7760e+00	1.8994	3.889780	0.000456	4.560592	1.545170	0.000183
  50	4.8755e+00	1.9507	4.091637	0.000507	5.067324	1.716856	0.000203
  51	4.9750e+00	1.9828	4.265234	0.000436	4.357899	1.476496	0.000174
  52	5.0745e+00	2.0261	4.491314	0.000568	5.675403	1.922879	0.000227
  53	5.1740e+00	2.0630	4.677022	0.000466	4.661938	1.579507	0.000187
  54	5.2735e+00	2.1064	4.834470	0.000395	3.952513	1.339148	0.000158
  55	5.3730e+00	2.1497	5.040364	0.000517	5.168671	1.751193	0.000207
  56	5.4725e+00	2.1866	5.258369	0.000547	5.472710	1.854204	0.000219
  57	5.5720e+00	2.2267	5.427929	0.000426	4.256552	1.442159	0.000170
  58	5.6715e+00	2.2636	5.662083	0.000588	5.878096	1.991553	0.000235
  59	5.7710e+00	2.3085	5.803383	0.000355	3.547127	1.201799	0.000142
  60	5.8705e+00	2.3486	6.021388	0.000547	5.472710	1.854204	0.000219
  61	5.9700e+00	2.3823	6.178836	0.000395	3.952513	1.339148	0.000158
  62	6.0695e+00	2.4240	6.392804	0.000537	5.371364	1.819867	0.000215
  63	6.1690e+00	2.4561	6.582550	0.000476	4.763285	1.613845	0.000191
  64	6.2685e+00	2.5154	6.804592	0.000557	5.574057	1.888542	0.000223
  65	6.3680e+00	2.5459	6.982226	0.000446	4.459245	1.510833	0.000179
  66	6.4675e+00	2.5812	7.196194	0.000537	5.371364	1.819867	0.000215
  67	6.5670e+00	2.6277	7.369791	0.000436	4.357899	1.476496	0.000174
  68	6.6665e+00	2.6646	7.559537	0.000476	4.763285	1.613845	0.000191
  69	6.7660e+00	2.7047	7.765431	0.000517	5.168671	1.751193	0.000207
  70	6.8655e+00	2.7448	7.975362	0.000527	5.270017	1.785530	0.000211
  71	6.9650e+00	2.7785	8.161070	0.000466	4.661938	1.579507	0.000187
  72	7.0645e+00	2.8170	8.342741	0.000456	4.560592	1.545170	0.000183
  73	7.1640e+00	2.8652	8.540561	0.000497	4.965978	1.682519	0.000199
  74	7.2635e+00	2.9053	8.754529	0.000537	5.371364	1.819867	0.000215
  75	7.3630e+00	2.9357	8.964460	0.000527	5.270017	1.785530	0.000211
  76	7.4625e+00	2.9887	9.125945	0.000405	4.053859	1.373485	0.000162
  77	7.5620e+00	3.0160	9.323765	0.000497	4.965978	1.682519	0.000199
  78	7.6615e+00	3.0673	9.525622	0.000507	5.067324	1.716856	0.000203
  79	7.7610e+00	3.1026	9.771887	0.000618	6.182136	2.094564	0.000248
  80	7.8605e+00	3.1411	9.913187	0.000355	3.547127	1.201799	0.000142
  81	7.9600e+00	3.1780	10.143304	0.000578	5.776750	1.957216	0.000231
  82	8.0595e+00	3.2197	10.349197	0.000517	5.168671	1.751193	0.000207
  83	8.1590e+00	3.2598	10.530869	0.000456	4.560592	1.545170	0.000183
  84	8.2585e+00	3.2983	10.704465	0.000436	4.357899	1.476496	0.000174
  85	8.3580e+00	3.3416	10.918434	0.000537	5.371364	1.819867	0.000215
  86	8.4575e+00	3.3769	11.112216	0.000486	4.864631	1.648182	0.000195
  87	8.5570e+00	3.4170	11.305999	0.000486	4.864631	1.648182	0.000195
  88	8.6565e+00	3.4635	11.507855	0.000507	5.067324	1.716856	0.000203
  89	8.7560e+00	3.5004	11.737972	0.000578	5.776750	1.957216	0.000231
  90	8.8555e+00	3.5357	11.911569	0.000436	4.357899	1.476496	0.000174
  91	8.9550e+00	3.5774	12.141686	0.000578	5.776750	1.957216	0.000231
  92	9.0545e+00	3.6143	12.311245	0.000426	4.256552	1.442159	0.000170
  93	9.1540e+00	3.6560	12.549436	0.000598	5.979443	2.025890	0.000239
  94	9.2535e+00	3.7090	12.718996	0.000426	4.256552	1.442159	0.000170
  95	9.3530e+00	3.7347	12.916816	0.000497	4.965978	1.682519	0.000199
  96	9.4525e+00	3.7732	13.142895	0.000568	5.675403	1.922879	0.000227
  97	9.5520e+00	3.8213	13.328604	0.000466	4.661938	1.579507	0.000187
  98	9.6515e+00	3.8518	13.522386	0.000486	4.864631	1.648182	0.000195
  99	9.7510e+00	3.8855	13.732317	0.000527	5.270017	1.785530	0.000211
 100	9.8505e+00	3.9432	13.926100	0.000486	4.864631	1.648182	0.000195
 101	9.9500e+00	3.9801	14.111808	0.000466	4.661938	1.579507	0.000187
 102	1.0050e+01	4.0170	14.321739	0.000527	5.270017	1.785530	0.000211
 103	1.0149e+01	4.0603	14.519559	0.000497	4.965978	1.682519	0.000199
 104	1.0248e+01	4.1004	14.717378	0.000497	4.965978	1.682519	0.000199
 105	1.0348e+01	4.1373	14.931347	0.000537	5.371364	1.819867	0.000215
 106	1.0447e+01	4.1822	15.125129	0.000486	4.864631	1.648182	0.000195
 107	1.0547e+01	4.2127	15.355246	0.000578	5.776750	1.957216	0.000231
 108	1.0646e+01	4.2560	15.520768	0.000416	4.155206	1.407822	0.000166
 109	1.0746e+01	4.2913	15.742811	0.000557	5.574057	1.888542	0.000223
 110	1.0845e+01	4.3378	15.972928	0.000578	5.776750	1.957216	0.000231
 111	1.0945e+01	4.3667	16.178821	0.000517	5.168671	1.751193	0.000207
 112	1.1044e+01	4.4181	16.352418	0.000436	4.357899	1.476496	0.000174
 113	1.1144e+01	4.4566	16.550238	0.000497	4.965978	1.682519	0.000199
 114	1.1243e+01	4.4902	16.756132	0.000517	5.168671	1.751193	0.000207
 115	1.1343e+01	4.5400	16.949914	0.000486	4.864631	1.648182	0.000195
 116	1.1443e+01	4.5737	17.159845	0.000527	5.270017	1.785530	0.000211
 117	1.1542e+01	4.6170	17.373814	0.000537	5.371364	1.819867	0.000215
 118	1.1642e+01	4.6555	17.531262	0.000395	3.952513	1.339148	0.000158
 119	1.1741e+01	4.6924	17.749267	0.000547	5.472710	1.854204	0.000219
 120	1.1841e+01	4.7309	17.922864	0.000436	4.357899	1.476496	0.000174
 121	1.1940e+01	4.7726	18.148944	0.000568	5.675403	1.922879	0.000227
 122	1.2040e+01	4.8143	18.334652	0.000466	4.661938	1.579507	0.000187
 123	1.2139e+01	4.8576	18.560732	0.000568	5.675403	1.922879	0.000227
 124	1.2239e+01	4.8961	18.786811	0.000568	5.675403	1.922879	0.000227
 125	1.2338e+01	4.9234	18.956371	0.000426	4.256552	1.442159	0.000170
 126	1.2438e+01	4.9715	19.146116	0.000476	4.763285	1.613845	0.000191
 127	1.2537e+01	5.0036	19.356047	0.000527	5.270017	1.785530	0.000211
 128	1.2636e+01	5.0533	19.586164	0.000578	5.776750	1.957216	0.000231
 129	1.2736e+01	5.0999	19.771872	0.000466	4.661938	1.579507	0.000187
 130	1.2835e+01	5.1255	19.969692	0.000497	4.965978	1.682519	0.000199
 131	1.2935e+01	5.1720	20.215957	0.000618	6.182136	2.094564	0.000248
 132	1.3034e+01	5.2170	20.377443	0.000405	4.053859	1.373485	0.000162
 133	1.3134e+01	5.2587	20.591411	0.000537	5.371364	1.819867	0.000215
 134	1.3233e+01	5.2956	20.765008	0.000436	4.357899	1.476496	0.000174
 135	1.3333e+01	5.3453	20.962827	0.000497	4.965978	1.682519	0.000199
 136	1.3432e+01	5.3726	21.209093	0.000618	6.182136	2.094564	0.000248
 137	1.3532e+01	5.4143	21.435172	0.000568	5.675403	1.922879	0.000227
 138	1.3632e+01	5.4464	21.572435	0.000345	3.445780	1.167462	0.000138
 139	1.3731e+01	5.4865	21.826774	0.000638	6.384829	2.163238	0.000256
 140	1.3831e+01	5.5330	21.972111	0.000365	3.648473	1.236136	0.000146
 141	1.3930e+01	5.5747	22.186079	0.000537	5.371364	1.819867	0.000215
 142	1.4030e+01	5.6132	22.379862	0.000486	4.864631	1.648182	0.000195
 143	1.4129e+01	5.6597	22.605942	0.000568	5.675403	1.922879	0.000227
 144	1.4229e+01	5.6854	22.836058	0.000578	5.776750	1.957216	0.000231
 145	1.4328e+01	5.7399	23.021767	0.000466	4.661938	1.579507	0.000187
 146	1.4428e+01	5.7672	23.231698	0.000527	5.270017	1.785530	0.000211
 147	1.4527e+01	5.8137	23.441629	0.000527	5.270017	1.785530	0.000211
 148	1.4627e+01	5.8571	23.639448	0.000497	4.965978	1.682519	0.000199
 149	1.4726e+01	5.8795	23.817082	0.000446	4.459245	1.510833	0.000179
 150	1.4825e+01	5.9325	24.010865	0.000486	4.864631	1.648182	0.000195
 151	1.4925e+01	5.9677	24.253093	0.000608	6.080789	2.060227	0.000243
 152	1.5024e+01	6.0079	24.438801	0.000466	4.661938	1.579507	0.000187
 153	1.5124e+01	6.0512	24.660844	0.000557	5.574057	1.888542	0.000223
 154	1.5223e+01	6.0865	24.866738	0.000517	5.168671	1.751193	0.000207
 155	1.5323e+01	6.1346	25.028223	0.000405	4.053859	1.373485	0.000162
 156	1.5422e+01	6.1667	25.238154	0.000527	5.270017	1.785530	0.000211
 157	1.5522e+01	6.2100	25.484419	0.000618	6.182136	2.094564	0.000248
 158	1.5621e+01	6.2565	25.645905	0.000405	4.053859	1.373485	0.000162
 159	1.5721e+01	6.2870	25.851799	0.000517	5.168671	1.751193	0.000207
 160	1.5820e+01	6.3271	26.033470	0.000456	4.560592	1.545170	0.000183
 161	1.5920e+01	6.3784	26.255512	0.000557	5.574057	1.888542	0.000223
 162	1.6020e+01	6.4153	26.485629	0.000578	5.776750	1.957216	0.000231
 163	1.6119e+01	6.4426	26.675374	0.000476	4.763285	1.613845	0.000191
 164	1.6218e+01	6.4795	26.869157	0.000486	4.864631	1.648182	0.000195
 165	1.6318e+01	6.5116	27.111385	0.000608	6.080789	2.060227	0.000243
 166	1.6418e+01	6.5693	27.284982	0.000436	4.357899	1.476496	0.000174
 167	1.6517e+01	6.6094	27.462616	0.000446	4.459245	1.510833	0.000179
 168	1.6616e+01	6.6479	27.676584	0.000537	5.371364	1.819867	0.000215
 169	1.6716e+01	6.6752	27.890552	0.000537	5.371364	1.819867	0.000215
 170	1.6816e+01	6.7265	28.116632	0.000568	5.675403	1.922879	0.000227
 171	1.6915e+01	6.7715	28.298303	0.000456	4.560592	1.545170	0.000183
 172	1.7015e+01	6.8100	28.516308	0.000547	5.472710	1.854204	0.000219
 173	1.7114e+01	6.8517	28.702017	0.000466	4.661938	1.579507	0.000187
 174	1.7213e+01	6.8822	28.899836	0.000497	4.965978	1.682519	0.000199
 175	1.7313e+01	6.9271	29.117842	0.000547	5.472710	1.854204	0.000219
 176	1.7413e+01	6.9672	29.315661	0.000497	4.965978	1.682519	0.000199
 177	1.7512e+01	7.0041	29.501369	0.000466	4.661938	1.579507	0.000187
 178	1.7611e+01	7.0490	29.719375	0.000547	5.472710	1.854204	0.000219
 179	1.7711e+01	7.0891	29.897009	0.000446	4.459245	1.510833	0.000179
 180	1.7811e+01	7.1356	30.098865	0.000507	5.067324	1.716856	0.000203
 181	1.7910e+01	7.1629	30.300722	0.000507	5.067324	1.716856	0.000203
 182	1.8009e+01	7.2062	30.506616	0.000517	5.168671	1.751193	0.000207
 183	1.8109e+01	7.2271	30.744807	0.000598	5.979443	2.025890	0.000239
 184	1.8209e+01	7.2928	30.922441	0.000446	4.459245	1.510833	0.000179
 185	1.8308e+01	7.3249	31.124298	0.000507	5.067324	1.716856	0.000203
 186	1.8407e+01	7.3650	31.301932	0.000446	4.459245	1.510833	0.000179
 187	1.8507e+01	7.4116	31.528012	0.000568	5.675403	1.922879	0.000227
 188	1.8607e+01	7.4436	31.729868	0.000507	5.067324	1.716856	0.000203
 189	1.8706e+01	7.4773	31.907502	0.000446	4.459245	1.510833	0.000179
 190	1.8805e+01	7.5078	32.105322	0.000497	4.965978	1.682519	0.000199
 191	1.8905e+01	7.5688	32.315253	0.000527	5.270017	1.785530	0.000211
 192	1.9005e+01	7.6009	32.533258	0.000547	5.472710	1.854204	0.000219
 193	1.9104e+01	7.6442	32.714929	0.000456	4.560592	1.545170	0.000183
 194	1.9203e+01	7.6795	32.941009	0.000568	5.675403	1.922879	0.000227
 195	1.9303e+01	7.7196	33.114606	0.000436	4.357899	1.476496	0.000174
 196	1.9402e+01	7.7613	33.320500	0.000517	5.168671	1.751193	0.000207
 197	1.9502e+01	7.7982	33.518319	0.000497	4.965978	1.682519	0.000199
 198	1.9602e+01	7.8367	33.732288	0.000537	5.371364	1.819867	0.000215
 199	1.9701e+01	7.8720	33.942219	0.000527	5.270017	1.785530	0.000211
 200	1.9800e+01	7.9153	34.123890	0.000456	4.560592	1.545170	0.000183
 201	1.9900e+01	7.9666	34.329784	0.000517	5.168671	1.751193	0.000207
 202	2.0000e+01	8.0051	34.523566	0.000486	4.864631	1.648182	0.000195
 203	2.0099e+01	8.0340	34.697163	0.000436	4.357899	1.476496	0.000174
 204	2.0198e+01	8.0853	34.903057	0.000517	5.168671	1.751193	0.000207
 205	2.0298e+01	8.1238	35.117025	0.000537	5.371364	1.819867	0.000215
 206	2.0398e+01	8.1575	35.290622	0.000436	4.357899	1.476496	0.000174
 207	2.0497e+01	8.2024	35.492479	0.000507	5.067324	1.716856	0.000203
 208	2.0596e+01	8.2345	35.674150	0.000456	4.560592	1.545170	0.000183
 209	2.0696e+01	8.2794	35.904267	0.000578	5.776750	1.957216	0.000231
 210	2.0796e+01	8.3147	36.110161	0.000517	5.168671	1.751193	0.000207
 211	2.0895e+01	8.3548	36.303943	0.000486	4.864631	1.648182	0.000195
 212	2.0994e+01	8.3998	36.493689	0.000476	4.763285	1.613845	0.000191
 213	2.1094e+01	8.4351	36.675360	0.000456	4.560592	1.545170	0.000183
 214	2.1194e+01	8.4848	36.861068	0.000466	4.661938	1.579507	0.000187
 215	2.1293e+01	8.5121	37.083110	0.000557	5.574057	1.888542	0.000223
 216	2.1392e+01	8.5570	37.244596	0.000405	4.053859	1.373485	0.000162
 217	2.1492e+01	8.6003	37.450490	0.000517	5.168671	1.751193	0.000207
 218	2.1591e+01	8.6356	37.660421	0.000527	5.270017	1.785530	0.000211
 219	2.1691e+01	8.6837	37.842092	0.000456	4.560592	1.545170	0.000183
 220	2.1791e+01	8.7238	38.031837	0.000476	4.763285	1.613845	0.000191
 221	2.1890e+01	8.7559	38.205434	0.000436	4.357899	1.476496	0.000174
 222	2.1989e+01	8.7992	38.374994	0.000426	4.256552	1.442159	0.000170
 223	2.2089e+01	8.8281	38.592999	0.000547	5.472710	1.854204	0.000219
 224	2.2189e+01	8.8794	38.778707	0.000466	4.661938	1.579507	0.000187
 225	2.2288e+01	8.9308	38.976527	0.000497	4.965978	1.682519	0.000199
 226	2.2387e+01	8.9596	39.178384	0.000507	5.067324	1.716856	0.000203
 227	2.2487e+01	9.0062	39.364092	0.000466	4.661938	1.579507	0.000187
 228	2.2587e+01	9.0399	39.561912	0.000497	4.965978	1.682519	0.000199
 229	2.2686e+01	9.0751	39.763768	0.000507	5.067324	1.716856	0.000203
 230	2.2785e+01	9.1201	39.937365	0.000436	4.357899	1.476496	0.000174
 231	2.2885e+01	9.1538	40.139222	0.000507	5.067324	1.716856	0.000203
 232	2.2985e+01	9.1987	40.308782	0.000426	4.256552	1.442159	0.000170
 233	2.3084e+01	9.2340	40.498527	0.000476	4.763285	1.613845	0.000191
 234	2.3183e+01	9.2821	40.676161	0.000446	4.459245	1.510833	0.000179
 235	2.3283e+01	9.3174	40.861869	0.000466	4.661938	1.579507	0.000187
 236	2.3383e+01	9.3767	41.067763	0.000517	5.168671	1.751193	0.000207
 237	2.3482e+01	9.3976	41.261546	0.000486	4.864631	1.648182	0.000195
 238	2.3581e+01	9.4345	41.427068	0.000416	4.155206	1.407822	0.000166
 239	2.3681e+01	9.4762	41.596628	0.000426	4.256552	1.442159	0.000170
 240	2.3780e+01	9.5195	41.806559	0.000527	5.270017	1.785530	0.000211
 241	2.3880e+01	9.5580	42.008416	0.000507	5.067324	1.716856	0.000203
 242	2.3980e+01	9.5997	42.161827	0.000385	3.851166	1.304810	0.000154
 243	2.4079e+01	9.6366	42.339461	0.000446	4.459245	1.510833	0.000179
 244	2.4178e+01	9.6767	42.561504	0.000557	5.574057	1.888542	0.000223
 245	2.4278e+01	9.7200	42.710878	0.000375	3.749820	1.270473	0.000150
 246	2.4378e+01	9.7553	42.908697	0.000497	4.965978	1.682519	0.000199
 247	2.4477e+01	9.7922	43.078257	0.000426	4.256552	1.442159	0.000170
 248	2.4576e+01	9.8323	43.251854	0.000436	4.357899	1.476496	0.000174
 249	2.4676e+01	9.8741	43.481970	0.000578	5.776750	1.957216	0.000231
 250	2.4776e+01	9.9110	43.659604	0.000446	4.459245	1.510833	0.000179
 251	2.4875e+01	9.9591	43.841276	0.000456	4.560592	1.545170	0.000183
 252	2.4974e+01	9.9928	43.990650	0.000375	3.749820	1.270473	0.000150
 253	2.5074e+01	10.0345	44.204618	0.000537	5.371364	1.819867	0.000215
 254	2.5174e+01	10.0682	44.386289	0.000456	4.560592	1.545170	0.000183
 255	2.5273e+01	10.1115	44.580071	0.000486	4.864631	1.648182	0.000195
 256	2.5372e+01	10.1532	44.790002	0.000527	5.270017	1.785530	0.000211
 257	2.5472e+01	10.1965	44.939376	0.000375	3.749820	1.270473	0.000150
 258	2.5572e+01	10.2382	45.133159	0.000486	4.864631	1.648182	0.000195
 259	2.5671e+01	10.2783	45.330979	0.000497	4.965978	1.682519	0.000199
 260	2.5770e+01	10.3264	45.480353	0.000375	3.749820	1.270473	0.000150
 261	2.5870e+01	10.3457	45.657987	0.000446	4.459245	1.510833	0.000179
 262	2.5970e+01	10.3970	45.839658	0.000456	4.560592	1.545170	0.000183
 263	2.6069e+01	10.4307	46.001143	0.000405	4.053859	1.373485	0.000162
 264	2.6169e+01	10.4676	46.198963	0.000497	4.965978	1.682519	0.000199
 265	2.6268e+01	10.5141	46.352374	0.000385	3.851166	1.304810	0.000154
 266	2.6367e+01	10.5510	46.558268	0.000517	5.168671	1.751193	0.000207
 267	2.6467e+01	10.5992	46.687456	0.000324	3.243087	1.098788	0.000130
 268	2.6567e+01	10.6264	46.905462	0.000547	5.472710	1.854204	0.000219
 269	2.6666e+01	10.6746	47.054836	0.000375	3.749820	1.270473	0.000150
 270	2.6765e+01	10.7195	47.248618	0.000486	4.864631	1.648182	0.000195
 271	2.6865e+01	10.7532	47.389918	0.000355	3.547127	1.201799	0.000142
 272	2.6965e+01	10.7885	47.611960	0.000557	5.574057	1.888542	0.000223
 273	2.7064e+01	10.8334	47.789594	0.000446	4.459245	1.510833	0.000179
 274	2.7163e+01	10.8687	47.914746	0.000314	3.141741	1.064451	0.000126
 275	2.7263e+01	10.9152	48.128714	0.000537	5.371364	1.819867	0.000215
 276	2.7363e+01	10.9473	48.314422	0.000466	4.661938	1.579507	0.000187
 277	2.7462e+01	10.9938	48.467833	0.000385	3.851166	1.304810	0.000154
 278	2.7561e+01	11.0259	48.649504	0.000456	4.560592	1.545170	0.000183
 279	2.7661e+01	11.0628	48.843287	0.000486	4.864631	1.648182	0.000195
 280	2.7761e+01	11.1029	49.037069	0.000486	4.864631	1.648182	0.000195
 281	2.7860e+01	11.1558	49.174332	0.000345	3.445780	1.167462	0.000138
 282	2.7959e+01	11.1927	49.356003	0.000456	4.560592	1.545170	0.000183
 283	2.8059e+01	11.2280	49.553823	0.000497	4.965978	1.682519	0.000199
 284	2.8159e+01	11.2617	49.727419	0.000436	4.357899	1.476496	0.000174
 285	2.8258e+01	11.3114	49.941388	0.000537	5.371364	1.819867	0.000215
 286	2.8358e+01	11.3499	50.042316	0.000253	2.533662	0.858428	0.000101
 287	2.8457e+01	11.3901	50.280507	0.000598	5.979443	2.025890	0.000239
 288	2.8556e+01	11.4253	50.429881	0.000375	3.749820	1.270473	0.000150
 289	2.8656e+01	11.4799	50.595404	0.000416	4.155206	1.407822	0.000166
 290	2.8756e+01	11.5088	50.793223	0.000497	4.965978	1.682519	0.000199
 291	2.8855e+01	11.5505	50.954709	0.000405	4.053859	1.373485	0.000162
 292	2.8954e+01	11.5810	51.140417	0.000466	4.661938	1.579507	0.000187
 293	2.9054e+01	11.6211	51.293828	0.000385	3.851166	1.304810	0.000154
 294	2.9154e+01	11.6692	51.475499	0.000456	4.560592	1.545170	0.000183
 295	2.9253e+01	11.6981	51.645059	0.000426	4.256552	1.442159	0.000170
 296	2.9352e+01	11.7558	51.794433	0.000375	3.749820	1.270473	0.000150
 297	2.9452e+01	11.7879	51.963993	0.000426	4.256552	1.442159	0.000170
 298	2.9552e+01	11.8248	52.165849	0.000507	5.067324	1.716856	0.000203
 299	2.9651e+01	11.8649	52.319261	0.000385	3.851166	1.304810	0.000154
 300	2.9750e+01	11.9066	52.533229	0.000537	5.371364	1.819867	0.000215
 301	2.9850e+01	11.9499	52.731048	0.000497	4.965978	1.682519	0.000199
 302	2.9950e+01	11.9884	52.864274	0.000334	3.344434	1.133125	0.000134
 303	3.0049e+01	12.0334	53.037871	0.000436	4.357899	1.476496	0.000174
 304	3.0148e+01	12.0654	53.239728	0.000507	5.067324	1.716856	0.000203
 305	3.0248e+01	12.1087	53.389102	0.000375	3.749820	1.270473	0.000150
 306	3.0348e+01	12.1537	53.546550	0.000395	3.952513	1.339148	0.000158
 307	3.0447e+01	12.1890	53.716110	0.000426	4.256552	1.442159	0.000170
 308	3.0547e+01	12.2243	53.897781	0.000456	4.560592	1.545170	0.000183
 309	3.0646e+01	12.2644	54.103675	0.000517	5.168671	1.751193	0.000207
 310	3.0745e+01	12.3045	54.236900	0.000334	3.344434	1.133125	0.000134
 311	3.0845e+01	12.3510	54.418571	0.000456	4.560592	1.545170	0.000183
 312	3.0945e+01	12.3831	54.592168	0.000436	4.357899	1.476496	0.000174
 313	3.1044e+01	12.4264	54.773839	0.000456	4.560592	1.545170	0.000183
 314	3.1143e+01	12.4745	54.955510	0.000456	4.560592	1.545170	0.000183
 315	3.1243e+01	12.5050	55.165441	0.000527	5.270017	1.785530	0.000211
 316	3.1343e+01	12.5371	55.335001	0.000426	4.256552	1.442159	0.000170
 317	3.1442e+01	12.5756	55.456115	0.000304	3.040395	1.030114	0.000122
 318	3.1541e+01	12.6173	55.657972	0.000507	5.067324	1.716856	0.000203
 319	3.1641e+01	12.6606	55.799272	0.000355	3.547127	1.201799	0.000142
 320	3.1741e+01	12.7055	55.984980	0.000466	4.661938	1.579507	0.000187
 321	3.1840e+01	12.7488	56.174725	0.000476	4.763285	1.613845	0.000191
 322	3.1939e+01	12.7841	56.311988	0.000345	3.445780	1.167462	0.000138
 323	3.2039e+01	12.8210	56.529993	0.000547	5.472710	1.854204	0.000219
 324	3.2139e+01	12.8611	56.675330	0.000365	3.648473	1.236136	0.000146
 325	3.2238e+01	12.9044	56.848927	0.000436	4.357899	1.476496	0.000174
 326	3.2337e+01	12.9478	57.010412	0.000405	4.053859	1.373485	0.000162
 327	3.2437e+01	12.9782	57.159786	0.000375	3.749820	1.270473	0.000150
 328	3.2536e+01	13.0280	57.337420	0.000446	4.459245	1.510833	0.000179
 329	3.2636e+01	13.0585	57.519091	0.000456	4.560592	1.545170	0.000183
 330	3.2736e+01	13.1050	57.704800	0.000466	4.661938	1.579507	0.000187
 331	3.2835e+01	13.1355	57.850137	0.000365	3.648473	1.236136	0.000146
 332	3.2934e+01	13.1675	58.064105	0.000537	5.371364	1.819867	0.000215
 333	3.3034e+01	13.2189	58.201367	0.000345	3.445780	1.167462	0.000138
 334	3.3133e+01	13.2542	58.399187	0.000497	4.965978	1.682519	0.000199
 335	3.3233e+01	13.2959	58.572784	0.000436	4.357899	1.476496	0.000174
 336	3.3333e+01	13.3440	58.730232	0.000395	3.952513	1.339148	0.000158
 337	3.3432e+01	13.3793	58.895755	0.000416	4.155206	1.407822	0.000166
 338	3.3532e+01	13.4146	59.037054	0.000355	3.547127	1.201799	0.000142
 339	3.3631e+01	13.4579	59.218726	0.000456	4.560592	1.545170	0.000183
 340	3.3730e+01	13.4932	59.412508	0.000486	4.864631	1.648182	0.000195
 341	3.3830e+01	13.5365	59.573994	0.000405	4.053859	1.373485	0.000162
 342	3.3929e+01	13.5782	59.703182	0.000324	3.243087	1.098788	0.000130
 343	3.4029e+01	13.6135	59.941373	0.000598	5.979443	2.025890	0.000239
 344	3.4129e+01	13.6665	60.102858	0.000405	4.053859	1.373485	0.000162
 345	3.4228e+01	13.6969	60.280492	0.000446	4.459245	1.510833	0.000179
 346	3.4328e+01	13.7386	60.397569	0.000294	2.939048	0.995776	0.000118
 347	3.4427e+01	13.7739	60.607500	0.000527	5.270017	1.785530	0.000211
 348	3.4526e+01	13.8221	60.768986	0.000405	4.053859	1.373485	0.000162
 349	3.4626e+01	13.8574	60.942583	0.000436	4.357899	1.476496	0.000174
 350	3.4725e+01	13.9023	61.120217	0.000446	4.459245	1.510833	0.000179
 351	3.4825e+01	13.9456	61.265553	0.000365	3.648473	1.236136	0.000146
 352	3.4925e+01	13.9793	61.471447	0.000517	5.168671	1.751193	0.000207
 353	3.5024e+01	14.0146	61.628896	0.000395	3.952513	1.339148	0.000158
 354	3.5123e+01	14.0483	61.770195	0.000355	3.547127	1.201799	0.000142
 355	3.5223e+01	14.1012	61.959941	0.000476	4.763285	1.613845	0.000191
 356	3.5322e+01	14.1365	62.121426	0.000405	4.053859	1.373485	0.000162
 357	3.5422e+01	14.1798	62.315209	0.000486	4.864631	1.648182	0.000195
 358	3.5522e+01	14.2199	62.448434	0.000334	3.344434	1.133125	0.000134
 359	3.5621e+01	14.2600	62.630105	0.000456	4.560592	1.545170	0.000183
 360	3.5721e+01	14.2905	62.799665	0.000426	4.256552	1.442159	0.000170
 361	3.5820e+01	14.3306	62.973262	0.000436	4.357899	1.476496	0.000174
 362	3.5919e+01	14.3787	63.138784	0.000416	4.155206	1.407822	0.000166
 363	3.6019e+01	14.4156	63.336604	0.000497	4.965978	1.682519	0.000199
 364	3.6118e+01	14.4606	63.469830	0.000334	3.344434	1.133125	0.000134
 365	3.6218e+01	14.4830	63.615166	0.000365	3.648473	1.236136	0.000146
 366	3.6318e+01	14.5376	63.772615	0.000395	3.952513	1.339148	0.000158
 367	3.6417e+01	14.5761	63.966397	0.000486	4.864631	1.648182	0.000195
 368	3.6517e+01	14.6146	64.160180	0.000486	4.864631	1.648182	0.000195
 369	3.6616e+01	14.6547	64.309554	0.000375	3.749820	1.270473	0.000150
 370	3.6715e+01	14.6948	64.495262	0.000466	4.661938	1.579507	0.000187
 371	3.6815e+01	14.7317	64.608302	0.000284	2.837702	0.961439	0.000114
 372	3.6914e+01	14.7782	64.806121	0.000497	4.965978	1.682519	0.000199
 373	3.7014e+01	14.8199	64.995867	0.000476	4.763285	1.613845	0.000191
 374	3.7114e+01	14.8600	65.092758	0.000243	2.432316	0.824091	0.000097
 375	3.7213e+01	14.8937	65.326912	0.000588	5.878096	1.991553	0.000235
 376	3.7313e+01	14.9338	65.460137	0.000334	3.344434	1.133125	0.000134
 377	3.7412e+01	14.9739	65.617586	0.000395	3.952513	1.339148	0.000158
 378	3.7511e+01	15.0140	65.783108	0.000416	4.155206	1.407822	0.000166
 379	3.7611e+01	15.0525	65.968817	0.000466	4.661938	1.579507	0.000187
 380	3.7711e+01	15.0942	66.114153	0.000365	3.648473	1.236136	0.000146
 381	3.7810e+01	15.1311	66.291787	0.000446	4.459245	1.510833	0.000179
 382	3.7910e+01	15.1696	66.416939	0.000314	3.141741	1.064451	0.000126
 383	3.8009e+01	15.2129	66.622833	0.000517	5.168671	1.751193	0.000207
 384	3.8108e+01	15.2514	66.760095	0.000345	3.445780	1.167462	0.000138
 385	3.8208e+01	15.2867	66.925618	0.000416	4.155206	1.407822	0.000166
 386	3.8307e+01	15.3317	67.091140	0.000416	4.155206	1.407822	0.000166
 387	3.8407e+01	15.3750	67.268774	0.000446	4.459245	1.510833	0.000179
 388	3.8507e+01	15.4103	67.450445	0.000456	4.560592	1.545170	0.000183
 389	3.8606e+01	15.4520	67.559448	0.000274	2.736355	0.927102	0.000110
 390	3.8706e+01	15.4825	67.737082	0.000446	4.459245	1.510833	0.000179
 391	3.8805e+01	15.5258	67.874345	0.000345	3.445780	1.167462	0.000138
 392	3.8904e+01	15.5707	68.060053	0.000466	4.661938	1.579507	0.000187
 393	3.9004e+01	15.6108	68.205390	0.000365	3.648473	1.236136	0.000146
 394	3.9103e+01	15.6557	68.374949	0.000426	4.256552	1.442159	0.000170
 395	3.9203e+01	15.6910	68.536435	0.000405	4.053859	1.373485	0.000162
 396	3.9303e+01	15.7407	68.689846	0.000385	3.851166	1.304810	0.000154
 397	3.9402e+01	15.7792	68.831146	0.000355	3.547127	1.201799	0.000142
 398	3.9502e+01	15.8113	68.992631	0.000405	4.053859	1.373485	0.000162
 399	3.9601e+01	15.8466	69.150079	0.000395	3.952513	1.339148	0.000158
 400	3.9700e+01	15.8867	69.323676	0.000436	4.357899	1.476496	0.000174
 401	3.9800e+01	15.9364	69.493236	0.000426	4.256552	1.442159	0.000170
 402	3.9900e+01	15.9637	69.610313	0.000294	2.939048	0.995776	0.000118
 403	3.9999e+01	16.0151	69.791984	0.000456	4.560592	1.545170	0.000183
 404	4.0099e+01	16.0487	69.913098	0.000304	3.040395	1.030114	0.000122
 405	4.0198e+01	16.0889	70.098806	0.000466	4.661938	1.579507	0.000187
 406	4.0297e+01	16.1274	70.256255	0.000395	3.952513	1.339148	0.000158
 407	4.0397e+01	16.1675	70.377369	0.000304	3.040395	1.030114	0.000122
 408	4.0496e+01	16.2140	70.546928	0.000426	4.256552	1.442159	0.000170
 409	4.0596e+01	16.2573	70.680154	0.000334	3.344434	1.133125	0.000134
 410	4.0696e+01	16.2862	70.869899	0.000476	4.763285	1.613845	0.000191
 411	4.0795e+01	16.3311	71.015236	0.000365	3.648473	1.236136	0.000146
 412	4.0895e+01	16.3616	71.188833	0.000436	4.357899	1.476496	0.000174
 413	4.0994e+01	16.4001	71.338207	0.000375	3.749820	1.270473	0.000150
 414	4.1093e+01	16.4530	71.479507	0.000355	3.547127	1.201799	0.000142
 415	4.1193e+01	16.4947	71.624844	0.000365	3.648473	1.236136	0.000146
 416	4.1292e+01	16.5364	71.798441	0.000436	4.357899	1.476496	0.000174
 417	4.1392e+01	16.5653	71.939740	0.000355	3.547127	1.201799	0.000142
 418	4.1492e+01	16.6134	72.081040	0.000355	3.547127	1.201799	0.000142
 419	4.1591e+01	16.6455	72.246563	0.000416	4.155206	1.407822	0.000166
 420	4.1691e+01	16.6936	72.391899	0.000365	3.648473	1.236136	0.000146
 421	4.1790e+01	16.7289	72.525125	0.000334	3.344434	1.133125	0.000134
 422	4.1889e+01	16.7642	72.694685	0.000426	4.256552	1.442159	0.000170
 423	4.1989e+01	16.8043	72.848096	0.000385	3.851166	1.304810	0.000154
 424	4.2089e+01	16.8557	73.021693	0.000436	4.357899	1.476496	0.000174
 425	4.2188e+01	16.8829	73.110510	0.000223	2.229623	0.755417	0.000089
 426	4.2288e+01	16.9198	73.288144	0.000446	4.459245	1.510833	0.000179
 427	4.2387e+01	16.9712	73.453666	0.000416	4.155206	1.407822	0.000166
 428	4.2486e+01	17.0065	73.631300	0.000446	4.459245	1.510833	0.000179
 429	4.2586e+01	17.0466	73.764526	0.000334	3.344434	1.133125	0.000134
 430	4.2685e+01	17.0819	73.917937	0.000385	3.851166	1.304810	0.000154
 431	4.2785e+01	17.1220	74.055199	0.000345	3.445780	1.167462	0.000138
 432	4.2885e+01	17.1589	74.220722	0.000416	4.155206	1.407822	0.000166
 433	4.2984e+01	17.2086	74.337799	0.000294	2.939048	0.995776	0.000118
 434	4.3084e+01	17.2391	74.507359	0.000426	4.256552	1.442159	0.000170
 435	4.3183e+01	17.2808	74.644621	0.000345	3.445780	1.167462	0.000138
 436	4.3282e+01	17.3209	74.818218	0.000436	4.357899	1.476496	0.000174
 437	4.3382e+01	17.3770	74.919146	0.000253	2.533662	0.858428	0.000101
 438	4.3481e+01	17.4091	75.076595	0.000395	3.952513	1.339148	0.000158
 439	4.3581e+01	17.4428	75.238080	0.000405	4.053859	1.373485	0.000162
 440	4.3681e+01	17.4877	75.411677	0.000436	4.357899	1.476496	0.000174
 441	4.3780e+01	17.5295	75.536828	0.000314	3.141741	1.064451	0.000126
 442	4.3880e+01	17.5599	75.690239	0.000385	3.851166	1.304810	0.000154
 443	4.3979e+01	17.6113	75.819428	0.000324	3.243087	1.098788	0.000130
 444	4.4078e+01	17.6450	75.968802	0.000375	3.749820	1.270473	0.000150
 445	4.4178e+01	17.6819	76.126250	0.000395	3.952513	1.339148	0.000158
 446	4.4278e+01	17.7188	76.255438	0.000324	3.243087	1.098788	0.000130
 447	4.4377e+01	17.7621	76.416924	0.000405	4.053859	1.373485	0.000162
 448	4.4477e+01	17.7974	76.570335	0.000385	3.851166	1.304810	0.000154
 449	4.4576e+01	17.8455	76.683375	0.000284	2.837702	0.961439	0.000114
 450	4.4675e+01	17.8936	76.844860	0.000405	4.053859	1.373485	0.000162
 451	4.4775e+01	17.9273	76.998271	0.000385	3.851166	1.304810	0.000154
 452	4.4874e+01	17.9594	77.127460	0.000324	3.243087	1.098788	0.000130
 453	4.4974e+01	18.0027	77.276834	0.000375	3.749820	1.270473	0.000150
 454	4.5074e+01	18.0396	77.430245	0.000385	3.851166	1.304810	0.000154
 455	4.5173e+01	18.0829	77.567508	0.000345	3.445780	1.167462	0.000138
 456	4.5273e+01	18.1166	77.704770	0.000345	3.445780	1.167462	0.000138
 457	4.5372e+01	18.1631	77.886441	0.000456	4.560592	1.545170	0.000183
 458	4.5471e+01	18.2113	78.003518	0.000294	2.939048	0.995776	0.000118
 459	4.5571e+01	18.2369	78.156929	0.000385	3.851166	1.304810	0.000154
 460	4.5670e+01	18.2802	78.274006	0.000294	2.939048	0.995776	0.000118
 461	4.5770e+01	18.3203	78.443566	0.000426	4.256552	1.442159	0.000170
 462	4.5870e+01	18.3637	78.580829	0.000345	3.445780	1.167462	0.000138
 463	4.5969e+01	18.4054	78.738277	0.000395	3.952513	1.339148	0.000158
 464	4.6069e+01	18.4455	78.871502	0.000334	3.344434	1.133125	0.000134
 465	4.6168e+01	18.4824	78.976468	0.000264	2.635009	0.892765	0.000105
 466	4.6267e+01	18.5096	79.158139	0.000456	4.560592	1.545170	0.000183
 467	4.6367e+01	18.5594	79.347884	0.000476	4.763285	1.613845	0.000191
 468	4.6467e+01	18.6043	79.464961	0.000294	2.939048	0.995776	0.000118
 469	4.6566e+01	18.6476	79.614335	0.000375	3.749820	1.270473	0.000150
 470	4.6666e+01	18.6813	79.743524	0.000324	3.243087	1.098788	0.000130
 471	4.6765e+01	18.7262	79.921158	0.000446	4.459245	1.510833	0.000179
 472	4.6864e+01	18.7519	80.030160	0.000274	2.736355	0.927102	0.000110
 473	4.6964e+01	18.7936	80.207794	0.000446	4.459245	1.510833	0.000179
 474	4.7063e+01	18.8433	80.345057	0.000345	3.445780	1.167462	0.000138
 475	4.7163e+01	18.8754	80.486357	0.000355	3.547127	1.201799	0.000142
 476	4.7263e+01	18.9203	80.615545	0.000324	3.243087	1.098788	0.000130
 477	4.7362e+01	18.9556	80.777030	0.000405	4.053859	1.373485	0.000162
 478	4.7462e+01	18.9973	80.930442	0.000385	3.851166	1.304810	0.000154
 479	4.7561e+01	19.0422	81.027333	0.000243	2.432316	0.824091	0.000097
 480	4.7660e+01	19.0775	81.209004	0.000456	4.560592	1.545170	0.000183
 481	4.7760e+01	19.1176	81.338192	0.000324	3.243087	1.098788	0.000130
 482	4.7859e+01	19.1545	81.487566	0.000375	3.749820	1.270473	0.000150
 483	4.7959e+01	19.1898	81.653089	0.000416	4.155206	1.407822	0.000166
 484	4.8059e+01	19.2508	81.778240	0.000314	3.141741	1.064451	0.000126
 485	4.8158e+01	19.2829	81.939726	0.000405	4.053859	1.373485	0.000162
 486	4.8258e+01	19.3198	82.081025	0.000355	3.547127	1.201799	0.000142
 487	4.8357e+01	19.3567	82.198102	0.000294	2.939048	0.995776	0.000118
 488	4.8456e+01	19.3952	82.351513	0.000385	3.851166	1.304810	0.000154
 489	4.8556e+01	19.4289	82.525110	0.000436	4.357899	1.476496	0.000174
 490	4.8656e+01	19.4738	82.634113	0.000274	2.736355	0.927102	0.000110
 491	4.8755e+01	19.5155	82.787524	0.000385	3.851166	1.304810	0.000154
 492	4.8855e+01	19.5556	82.940935	0.000385	3.851166	1.304810	0.000154
 493	4.8954e+01	19.5973	83.118569	0.000446	4.459245	1.510833	0.000179
 494	4.9053e+01	19.6390	83.227572	0.000274	2.736355	0.927102	0.000110
 495	4.9153e+01	19.6711	83.352723	0.000314	3.141741	1.064451	0.000126
 496	4.9252e+01	19.7112	83.506134	0.000385	3.851166	1.304810	0.000154
 497	4.9352e+01	19.7577	83.623211	0.000294	2.939048	0.995776	0.000118
 498	4.9452e+01	19.7962	83.768548	0.000365	3.648473	1.236136	0.000146
 499	4.9551e+01	19.8299	83.930033	0.000405	4.053859	1.373485	0.000162
 500	4.9651e+01	19.8829	84.091519	0.000405	4.053859	1.373485	0.000162
 501	4.9750e+01	19.9149	84.257041	0.000416	4.155206	1.407822	0.000166
 502	4.9849e+01	19.9551	84.374118	0.000294	2.939048	0.995776	0.000118
 503	4.9949e+01	19.9952	84.527530	0.000385	3.851166	1.304810	0.000154
 504	5.0048e+01	19.9502	84.511381	0.000041	0.405386	0.137348	-0.000016
 505	5.0148e+01	19.9182	84.466972	0.000111	1.114811	0.377708	-0.000045
 506	5.0248e+01	19.8748	84.450824	0.000041	0.405386	0.137348	-0.000016
 507	5.0347e+01	19.8315	84.378155	0.000182	1.824237	0.618068	-0.000073
 508	5.0447e+01	19.7930	84.321636	0.000142	1.418851	0.480720	-0.000057
 509	5.0546e+01	19.7529	84.349896	-0.000071	-0.709425	-0.240360	0.000028
 510	5.0645e+01	19.7064	84.281264	0.000172	1.722890	0.583731	-0.000069
 511	5.0745e+01	19.6695	84.196484	0.000213	2.128276	0.721079	-0.000085
 512	5.0844e+01	19.6278	84.156113	0.000101	1.013465	0.343371	-0.000041
 513	5.0944e+01	19.5925	84.071333	0.000213	2.128276	0.721079	-0.000085
 514	5.1044e+01	19.5588	84.047110	0.000061	0.608079	0.206023	-0.000024
 515	5.1143e+01	19.5235	84.030962	0.000041	0.405386	0.137348	-0.000016
 516	5.1242e+01	19.4754	83.938108	0.000233	2.330969	0.789754	-0.000093
 517	5.1342e+01	19.4353	83.881588	0.000142	1.418851	0.480720	-0.000057
 518	5.1441e+01	19.4048	83.825068	0.000142	1.418851	0.480720	-0.000057
 519	5.1541e+01	19.3567	83.776622	0.000122	1.216158	0.412045	-0.000049
 520	5.1641e+01	19.3150	83.712028	0.000162	1.621544	0.549394	-0.000065
 521	5.1740e+01	19.2765	83.639360	0.000182	1.824237	0.618068	-0.000073
 522	5.1840e+01	19.2444	83.558617	0.000203	2.026930	0.686742	-0.000081
 523	5.1939e+01	19.1962	83.506134	0.000132	1.317504	0.446383	-0.000053
 524	5.2038e+01	19.1545	83.489986	0.000041	0.405386	0.137348	-0.000016
 525	5.2138e+01	19.1225	83.356760	0.000334	3.344434	1.133125	-0.000134
 526	5.2237e+01	19.0727	83.344649	0.000030	0.304039	0.103011	-0.000012
 527	5.2337e+01	19.0390	83.215460	0.000324	3.243087	1.098788	-0.000130
 528	5.2437e+01	18.9989	83.162978	0.000132	1.317504	0.446383	-0.000053
 529	5.2536e+01	18.9668	83.118569	0.000111	1.114811	0.377708	-0.000045
 530	5.2636e+01	18.9251	83.037826	0.000203	2.026930	0.686742	-0.000081
 531	5.2735e+01	18.8882	82.924787	0.000284	2.837702	0.961439	-0.000114
 532	5.2834e+01	18.8417	82.860192	0.000162	1.621544	0.549394	-0.000065
 533	5.2934e+01	18.8048	82.795598	0.000162	1.621544	0.549394	-0.000065
 534	5.3033e+01	18.7695	82.735041	0.000152	1.520197	0.515057	-0.000061
 535	5.3133e+01	18.7230	82.670447	0.000162	1.621544	0.549394	-0.000065
 536	5.3233e+01	18.6733	82.585667	0.000213	2.128276	0.721079	-0.000085
 537	5.3332e+01	18.6412	82.488776	0.000243	2.432316	0.824091	-0.000097
 538	5.3431e+01	18.5947	82.408033	0.000203	2.026930	0.686742	-0.000081
 539	5.3531e+01	18.5562	82.335365	0.000182	1.824237	0.618068	-0.000073
 540	5.3630e+01	18.5225	82.290956	0.000111	1.114811	0.377708	-0.000045
 541	5.3730e+01	18.4743	82.218288	0.000182	1.824237	0.618068	-0.000073
 542	5.3830e+01	18.4423	82.113322	0.000264	2.635009	0.892765	-0.000105
 543	5.3929e+01	18.3973	81.996245	0.000294	2.939048	0.995776	-0.000118
 544	5.4029e+01	18.3620	81.895317	0.000253	2.533662	0.858428	-0.000101
 545	5.4128e+01	18.3187	81.871094	0.000061	0.608079	0.206023	-0.000024
 546	5.4227e+01	18.2818	81.786314	0.000213	2.128276	0.721079	-0.000085
 547	5.4327e+01	18.2449	81.705572	0.000203	2.026930	0.686742	-0.000081
 548	5.4426e+01	18.2000	81.616755	0.000223	2.229623	0.755417	-0.000089
 549	5.4526e+01	18.1647	81.519863	0.000243	2.432316	0.824091	-0.000097
 550	5.4626e+01	18.1294	81.443158	0.000193	1.925583	0.652405	-0.000077
 551	5.4725e+01	18.0861	81.378564	0.000162	1.621544	0.549394	-0.000065
 552	5.4825e+01	18.0396	81.289747	0.000223	2.229623	0.755417	-0.000089
 553	5.4924e+01	18.0043	81.188818	0.000253	2.533662	0.858428	-0.000101
 554	5.5023e+01	17.9674	81.071741	0.000294	2.939048	0.995776	-0.000118
 555	5.5123e+01	17.9145	80.995036	0.000193	1.925583	0.652405	-0.000077
 556	5.5222e+01	17.8856	80.922367	0.000182	1.824237	0.618068	-0.000073
 557	5.5322e+01	17.8439	80.813365	0.000274	2.736355	0.927102	-0.000110
 558	5.5422e+01	17.8006	80.712436	0.000253	2.533662	0.858428	-0.000101
 559	5.5521e+01	17.7669	80.603434	0.000274	2.736355	0.927102	-0.000110
 560	5.5620e+01	17.7155	80.575174	0.000071	0.709425	0.240360	-0.000028
 561	5.5720e+01	17.6802	80.445985	0.000324	3.243087	1.098788	-0.000130
 562	5.5819e+01	17.6434	80.349094	0.000243	2.432316	0.824091	-0.000097
 563	5.5919e+01	17.6032	80.244128	0.000264	2.635009	0.892765	-0.000105
 564	5.6019e+01	17.5647	80.131089	0.000284	2.837702	0.961439	-0.000114
 565	5.6118e+01	17.5230	80.066495	0.000162	1.621544	0.549394	-0.000065
 566	5.6218e+01	17.4926	79.945380	0.000304	3.040395	1.030114	-0.000122
 567	5.6317e+01	17.4492	79.896935	0.000122	1.216158	0.412045	-0.000049
 568	5.6416e+01	17.3995	79.763709	0.000334	3.344434	1.133125	-0.000134
 569	5.6516e+01	17.3642	79.678929	0.000213	2.128276	0.721079	-0.000085
 570	5.6615e+01	17.3241	79.569927	0.000274	2.736355	0.927102	-0.000110
 571	5.6715e+01	17.2744	79.477073	0.000233	2.330969	0.789754	-0.000093
 572	5.6815e+01	17.2503	79.392293	0.000213	2.128276	0.721079	-0.000085
 573	5.6914e+01	17.2022	79.271179	0.000304	3.040395	1.030114	-0.000122
 574	5.7014e+01	17.1637	79.190436	0.000203	2.026930	0.686742	-0.000081
 575	5.7113e+01	17.1252	79.069322	0.000304	3.040395	1.030114	-0.000122
 576	5.7212e+01	17.0931	79.004728	0.000162	1.621544	0.549394	-0.000065
 577	5.7312e+01	17.0498	78.891688	0.000284	2.837702	0.961439	-0.000114
 578	5.7411e+01	17.0129	78.782685	0.000274	2.736355	0.927102	-0.000110
 579	5.7511e+01	16.9680	78.681757	0.000253	2.533662	0.858428	-0.000101
 580	5.7611e+01	16.9279	78.576791	0.000264	2.635009	0.892765	-0.000105
 581	5.7710e+01	16.8813	78.487974	0.000223	2.229623	0.755417	-0.000089
 582	5.7809e+01	16.8412	78.383009	0.000264	2.635009	0.892765	-0.000105
 583	5.7909e+01	16.8027	78.278043	0.000264	2.635009	0.892765	-0.000105
 584	5.8008e+01	16.7610	78.177115	0.000253	2.533662	0.858428	-0.000101
 585	5.8108e+01	16.7257	78.072149	0.000264	2.635009	0.892765	-0.000105
 586	5.8208e+01	16.6872	77.959110	0.000284	2.837702	0.961439	-0.000114
 587	5.8307e+01	16.6359	77.866256	0.000233	2.330969	0.789754	-0.000093
 588	5.8407e+01	16.6054	77.777439	0.000223	2.229623	0.755417	-0.000089
 589	5.8506e+01	16.5669	77.672473	0.000264	2.635009	0.892765	-0.000105
 590	5.8605e+01	16.5332	77.555396	0.000294	2.939048	0.995776	-0.000118
 591	5.8705e+01	16.4915	77.454468	0.000253	2.533662	0.858428	-0.000101
 592	5.8804e+01	16.4514	77.353539	0.000253	2.533662	0.858428	-0.000101
 593	5.8904e+01	16.3937	77.232425	0.000304	3.040395	1.030114	-0.000122
 594	5.9004e+01	16.3664	77.127460	0.000264	2.635009	0.892765	-0.000105
 595	5.9103e+01	16.3311	77.018457	0.000274	2.736355	0.927102	-0.000110
 596	5.9203e+01	16.2910	76.921566	0.000243	2.432316	0.824091	-0.000097
 597	5.9302e+01	16.2477	76.760080	0.000405	4.053859	1.373485	-0.000162
 598	5.9401e+01	16.2108	76.687412	0.000182	1.824237	0.618068	-0.000073
 599	5.9501e+01	16.1723	76.598595	0.000223	2.229623	0.755417	-0.000089
 600	5.9600e+01	16.1322	76.465369	0.000334	3.344434	1.133125	-0.000134
 601	5.9700e+01	16.0824	76.344255	0.000304	3.040395	1.030114	-0.000122
 602	5.9800e+01	16.0552	76.247364	0.000243	2.432316	0.824091	-0.000097
 603	5.9899e+01	16.0118	76.130287	0.000294	2.939048	0.995776	-0.000118
 604	5.9998e+01	15.9701	76.013210	0.000294	2.939048	0.995776	-0.000118
 605	6.0098e+01	15.9252	75.916319	0.000243	2.432316	0.824091	-0.000097
 606	6.0197e+01	15.8867	75.839613	0.000193	1.925583	0.652405	-0.000077
 607	6.0297e+01	15.8578	75.706388	0.000334	3.344434	1.133125	-0.000134
 608	6.0397e+01	15.8097	75.569125	0.000345	3.445780	1.167462	-0.000138
 609	6.0496e+01	15.7712	75.452048	0.000294	2.939048	0.995776	-0.000118
 610	6.0596e+01	15.7327	75.367269	0.000213	2.128276	0.721079	-0.000085
 611	6.0695e+01	15.6846	75.234043	0.000334	3.344434	1.133125	-0.000134
 612	6.0794e+01	15.6573	75.112929	0.000304	3.040395	1.030114	-0.000122
 613	6.0894e+01	15.6108	75.024112	0.000223	2.229623	0.755417	-0.000089
 614	6.0993e+01	15.5707	74.919146	0.000264	2.635009	0.892765	-0.000105
 615	6.1093e+01	15.5258	74.806107	0.000284	2.837702	0.961439	-0.000114
 616	6.1193e+01	15.5033	74.644621	0.000405	4.053859	1.373485	-0.000162
 617	6.1292e+01	15.4520	74.575990	0.000172	1.722890	0.583731	-0.000069
 618	6.1392e+01	15.4087	74.430653	0.000365	3.648473	1.236136	-0.000146
 619	6.1491e+01	15.3718	74.337799	0.000233	2.330969	0.789754	-0.000093
 620	6.1590e+01	15.3365	74.212648	0.000314	3.141741	1.064451	-0.000126
 621	6.1690e+01	15.2883	74.079422	0.000334	3.344434	1.133125	-0.000134
 622	6.1789e+01	15.2450	73.974457	0.000264	2.635009	0.892765	-0.000105
 623	6.1889e+01	15.2178	73.881603	0.000233	2.330969	0.789754	-0.000093
 624	6.1989e+01	15.1776	73.744340	0.000345	3.445780	1.167462	-0.000138
 625	6.2088e+01	15.1359	73.611114	0.000334	3.344434	1.133125	-0.000134
 626	6.2188e+01	15.0878	73.490000	0.000304	3.040395	1.030114	-0.000122
 627	6.2287e+01	15.0573	73.417332	0.000182	1.824237	0.618068	-0.000073
 628	6.2386e+01	15.0108	73.320441	0.000243	2.432316	0.824091	-0.000097
 629	6.2486e+01	14.9659	73.134732	0.000466	4.661938	1.579507	-0.000187
 630	6.2586e+01	14.9354	73.053990	0.000203	2.026930	0.686742	-0.000081
 631	6.2685e+01	14.8857	72.920764	0.000334	3.344434	1.133125	-0.000134
 632	6.2785e+01	14.8600	72.775427	0.000365	3.648473	1.236136	-0.000146
 633	6.2884e+01	14.8039	72.670462	0.000264	2.635009	0.892765	-0.000105
 634	6.2983e+01	14.7750	72.569533	0.000253	2.533662	0.858428	-0.000101
 635	6.3083e+01	14.7269	72.452457	0.000294	2.939048	0.995776	-0.000118
 636	6.3182e+01	14.6916	72.315194	0.000345	3.445780	1.167462	-0.000138
 637	6.3282e+01	14.6499	72.206191	0.000274	2.736355	0.927102	-0.000110
 638	6.3382e+01	14.6178	72.101226	0.000264	2.635009	0.892765	-0.000105
 639	6.3481e+01	14.5809	71.996260	0.000264	2.635009	0.892765	-0.000105
 640	6.3581e+01	14.5360	71.871109	0.000314	3.141741	1.064451	-0.000126
 641	6.3680e+01	14.4878	71.774218	0.000243	2.432316	0.824091	-0.000097
 642	6.3779e+01	14.4573	71.640992	0.000334	3.344434	1.133125	-0.000134
 643	6.3879e+01	14.4221	71.511804	0.000324	3.243087	1.098788	-0.000130
 644	6.3978e+01	14.3723	71.378578	0.000334	3.344434	1.133125	-0.000134
 645	6.4078e+01	14.3338	71.297836	0.000203	2.026930	0.686742	-0.000081
 646	6.4177e+01	14.3001	71.152499	0.000365	3.648473	1.236136	-0.000146
 647	6.4277e+01	14.2536	71.011199	0.000355	3.547127	1.201799	-0.000142
 648	6.4376e+01	14.2167	70.894122	0.000294	2.939048	0.995776	-0.000118
 649	6.4476e+01	14.1750	70.781082	0.000284	2.837702	0.961439	-0.000114
 650	6.4576e+01	14.1397	70.635745	0.000365	3.648473	1.236136	-0.000146
 651	6.4675e+01	14.0996	70.518669	0.000294	2.939048	0.995776	-0.000118
 652	6.4775e+01	14.0499	70.437926	0.000203	2.026930	0.686742	-0.000081
 653	6.4874e+01	14.0242	70.300663	0.000345	3.445780	1.167462	-0.000138
 654	6.4974e+01	13.9809	70.179549	0.000304	3.040395	1.030114	-0.000122
 655	6.5073e+01	13.9392	70.090732	0.000223	2.229623	0.755417	-0.000089
 656	6.5172e+01	13.8943	69.941358	0.000375	3.749820	1.270473	-0.000150
 657	6.5272e+01	13.8670	69.828318	0.000284	2.837702	0.961439	-0.000114
 658	6.5371e+01	13.8189	69.678944	0.000375	3.749820	1.270473	-0.000150
 659	6.5471e+01	13.7804	69.561867	0.000294	2.939048	0.995776	-0.000118
 660	6.5570e+01	13.7338	69.428642	0.000334	3.344434	1.133125	-0.000134
 661	6.5670e+01	13.6969	69.364048	0.000162	1.621544	0.549394	-0.000065
 662	6.5769e+01	13.6584	69.202562	0.000405	4.053859	1.373485	-0.000162
 663	6.5869e+01	13.6183	69.089522	0.000284	2.837702	0.961439	-0.000114
 664	6.5969e+01	13.5750	68.960334	0.000324	3.243087	1.098788	-0.000130
 665	6.6068e+01	13.5381	68.827109	0.000334	3.344434	1.133125	-0.000134
 666	6.6168e+01	13.4980	68.710032	0.000294	2.939048	0.995776	-0.000118
 667	6.6267e+01	13.4579	68.596992	0.000284	2.837702	0.961439	-0.000114
 668	6.6367e+01	13.4210	68.455692	0.000355	3.547127	1.201799	-0.000142
 669	6.6466e+01	13.3809	68.330541	0.000314	3.141741	1.064451	-0.000126
 670	6.6566e+01	13.3392	68.197315	0.000334	3.344434	1.133125	-0.000134
 671	6.6665e+01	13.3087	68.116573	0.000203	2.026930	0.686742	-0.000081
 672	6.6764e+01	13.2622	67.938939	0.000446	4.459245	1.510833	-0.000179
 673	6.6864e+01	13.2173	67.825899	0.000284	2.837702	0.961439	-0.000114
 674	6.6963e+01	13.1804	67.704785	0.000304	3.040395	1.030114	-0.000122
 675	6.7063e+01	13.1419	67.579634	0.000314	3.141741	1.064451	-0.000126
 676	6.7162e+01	13.1082	67.442371	0.000345	3.445780	1.167462	-0.000138
 677	6.7262e+01	13.0552	67.321257	0.000304	3.040395	1.030114	-0.000122
 678	6.7362e+01	13.0232	67.212254	0.000274	2.736355	0.927102	-0.000110
 679	6.7461e+01	12.9815	67.095177	0.000294	2.939048	0.995776	-0.000118
 680	6.7561e+01	12.9462	66.937729	0.000395	3.952513	1.339148	-0.000158
 681	6.7660e+01	12.9044	66.836801	0.000253	2.533662	0.858428	-0.000101
 682	6.7760e+01	12.8627	66.719724	0.000294	2.939048	0.995776	-0.000118
 683	6.7859e+01	12.8210	66.574387	0.000365	3.648473	1.236136	-0.000146
 684	6.7959e+01	12.7825	66.433087	0.000355	3.547127	1.201799	-0.000142
 685	6.8058e+01	12.7424	66.336196	0.000243	2.432316	0.824091	-0.000097
 686	6.8157e+01	12.7071	66.194896	0.000355	3.547127	1.201799	-0.000142
 687	6.8257e+01	12.6622	66.061671	0.000334	3.344434	1.133125	-0.000134
 688	6.8356e+01	12.6205	65.952668	0.000274	2.736355	0.927102	-0.000110
 689	6.8456e+01	12.5884	65.807331	0.000365	3.648473	1.236136	-0.000146
 690	6.8555e+01	12.5419	65.690254	0.000294	2.939048	0.995776	-0.000118
 691	6.8655e+01	12.5114	65.581251	0.000274	2.736355	0.927102	-0.000110
 692	6.8754e+01	12.4681	65.464175	0.000294	2.939048	0.995776	-0.000118
 693	6.8854e+01	12.4264	65.339023	0.000314	3.141741	1.064451	-0.000126
 694	6.8954e+01	12.3863	65.161389	0.000446	4.459245	1.510833	-0.000179
 695	6.9053e+01	12.3382	65.108907	0.000132	1.317504	0.446383	-0.000053
 696	6.9153e+01	12.3061	64.963570	0.000365	3.648473	1.236136	-0.000146
 697	6.9252e+01	12.2708	64.814196	0.000375	3.749820	1.270473	-0.000150
 698	6.9352e+01	12.2403	64.676933	0.000345	3.445780	1.167462	-0.000138
 699	6.9451e+01	12.1825	64.547745	0.000324	3.243087	1.098788	-0.000130
 700	6.9550e+01	12.1473	64.410482	0.000345	3.445780	1.167462	-0.000138
 701	6.9650e+01	12.1087	64.248997	0.000405	4.053859	1.373485	-0.000162
 702	6.9749e+01	12.0751	64.152105	0.000243	2.432316	0.824091	-0.000097
 703	6.9849e+01	12.0414	63.978509	0.000436	4.357899	1.476496	-0.000174
 704	6.9948e+01	11.9756	63.865469	0.000284	2.837702	0.961439	-0.000114
 705	7.0048e+01	11.9467	63.764540	0.000253	2.533662	0.858428	-0.000101
 706	7.0147e+01	11.9066	63.599018	0.000416	4.155206	1.407822	-0.000166
 707	7.0247e+01	11.8713	63.485978	0.000284	2.837702	0.961439	-0.000114
 708	7.0347e+01	11.8232	63.312381	0.000436	4.357899	1.476496	-0.000174
 709	7.0446e+01	11.7911	63.207416	0.000264	2.635009	0.892765	-0.000105
 710	7.0546e+01	11.7542	63.074190	0.000334	3.344434	1.133125	-0.000134
 711	7.0645e+01	11.7125	62.936928	0.000345	3.445780	1.167462	-0.000138
 712	7.0745e+01	11.6612	62.795628	0.000355	3.547127	1.201799	-0.000142
 713	7.0844e+01	11.6275	62.666439	0.000324	3.243087	1.098788	-0.000130
 714	7.0944e+01	11.5906	62.557437	0.000274	2.736355	0.927102	-0.000110
 715	7.1043e+01	11.5473	62.428248	0.000324	3.243087	1.098788	-0.000130
 716	7.1142e+01	11.5120	62.266763	0.000405	4.053859	1.373485	-0.000162
 717	7.1242e+01	11.4638	62.125463	0.000355	3.547127	1.201799	-0.000142
 718	7.1341e+01	11.4253	61.996275	0.000324	3.243087	1.098788	-0.000130
 719	7.1441e+01	11.3820	61.818641	0.000446	4.459245	1.510833	-0.000179
 720	7.1540e+01	11.3564	61.733861	0.000213	2.128276	0.721079	-0.000085
 721	7.1640e+01	11.3082	61.556227	0.000446	4.459245	1.510833	-0.000179
 722	7.1740e+01	11.2713	61.418965	0.000345	3.445780	1.167462	-0.000138
 723	7.1839e+01	11.2312	61.281702	0.000345	3.445780	1.167462	-0.000138
 724	7.1939e+01	11.1879	61.176736	0.000264	2.635009	0.892765	-0.000105
 725	7.2038e+01	11.1510	61.011214	0.000416	4.155206	1.407822	-0.000166
 726	7.2138e+01	11.1125	60.845691	0.000416	4.155206	1.407822	-0.000166
 727	7.2237e+01	11.0724	60.760911	0.000213	2.128276	0.721079	-0.000085
 728	7.2337e+01	11.0323	60.595389	0.000416	4.155206	1.407822	-0.000166
 729	7.2436e+01	10.9970	60.441978	0.000385	3.851166	1.304810	-0.000154
 730	7.2535e+01	10.9537	60.304715	0.000345	3.445780	1.167462	-0.000138
 731	7.2635e+01	10.9072	60.175527	0.000324	3.243087	1.098788	-0.000130
 732	7.2734e+01	10.8703	60.034227	0.000355	3.547127	1.201799	-0.000142
 733	7.2834e+01	10.8254	59.917150	0.000294	2.939048	0.995776	-0.000118
 734	7.2933e+01	10.7981	59.703182	0.000537	5.371364	1.819867	-0.000215
 735	7.3033e+01	10.7468	59.582068	0.000304	3.040395	1.030114	-0.000122
 736	7.3132e+01	10.7163	59.428657	0.000385	3.851166	1.304810	-0.000154
 737	7.3232e+01	10.6665	59.303505	0.000314	3.141741	1.064451	-0.000126
 738	7.3332e+01	10.6296	59.162206	0.000355	3.547127	1.201799	-0.000142
 739	7.3431e+01	10.5911	58.996683	0.000416	4.155206	1.407822	-0.000166
 740	7.3531e+01	10.5575	58.839235	0.000395	3.952513	1.339148	-0.000158
 741	7.3630e+01	10.5174	58.693898	0.000365	3.648473	1.236136	-0.000146
 742	7.3730e+01	10.4644	58.576821	0.000294	2.939048	0.995776	-0.000118
 743	7.3829e+01	10.4371	58.411298	0.000416	4.155206	1.407822	-0.000166
 744	7.3928e+01	10.3922	58.233664	0.000446	4.459245	1.510833	-0.000179
 745	7.4028e+01	10.3505	58.112550	0.000304	3.040395	1.030114	-0.000122
 746	7.4127e+01	10.3152	57.951065	0.000405	4.053859	1.373485	-0.000162
 747	7.4227e+01	10.2735	57.809765	0.000355	3.547127	1.201799	-0.000142
 748	7.4326e+01	10.2302	57.640205	0.000426	4.256552	1.442159	-0.000170
 749	7.4426e+01	10.1933	57.547351	0.000233	2.330969	0.789754	-0.000093
 750	7.4525e+01	10.1516	57.389903	0.000395	3.952513	1.339148	-0.000158
 751	7.4625e+01	10.1083	57.220343	0.000426	4.256552	1.442159	-0.000170
 752	7.4725e+01	10.0762	57.054821	0.000416	4.155206	1.407822	-0.000166
 753	7.4824e+01	10.0329	56.925632	0.000324	3.243087	1.098788	-0.000130
 754	7.4924e+01	9.9847	56.731850	0.000486	4.864631	1.648182	-0.000195
 755	7.5023e+01	9.9591	56.643033	0.000223	2.229623	0.755417	-0.000089
 756	7.5123e+01	9.9158	56.489622	0.000385	3.851166	1.304810	-0.000154
 757	7.5222e+01	9.8676	56.311988	0.000446	4.459245	1.510833	-0.000179
 758	7.5322e+01	9.8291	56.166651	0.000365	3.648473	1.236136	-0.000146
 759	7.5421e+01	9.7970	56.017277	0.000375	3.749820	1.270473	-0.000150
 760	7.5520e+01	9.7602	55.843680	0.000436	4.357899	1.476496	-0.000174
 761	7.5620e+01	9.7088	55.686232	0.000395	3.952513	1.339148	-0.000158
 762	7.5719e+01	9.6751	55.520709	0.000416	4.155206	1.407822	-0.000166
 763	7.5819e+01	9.6446	55.407669	0.000284	2.837702	0.961439	-0.000114
 764	7.5918e+01	9.6013	55.258295	0.000375	3.749820	1.270473	-0.000150
 765	7.6018e+01	9.5532	55.092773	0.000416	4.155206	1.407822	-0.000166
 766	7.6118e+01	9.5211	54.939362	0.000385	3.851166	1.304810	-0.000154
 767	7.6217e+01	9.4730	54.773839	0.000416	4.155206	1.407822	-0.000166
 768	7.6317e+01	9.4377	54.616391	0.000395	3.952513	1.339148	-0.000158
 769	7.6416e+01	9.4056	54.442794	0.000436	4.357899	1.476496	-0.000174
 770	7.6516e+01	9.3719	54.293420	0.000375	3.749820	1.270473	-0.000150
 771	7.6615e+01	9.3190	54.172306	0.000304	3.040395	1.030114	-0.000122
 772	7.6715e+01	9.2885	54.039080	0.000334	3.344434	1.133125	-0.000134
 773	7.6814e+01	9.2404	53.821075	0.000547	5.472710	1.854204	-0.000219
 774	7.6913e+01	9.1939	53.671701	0.000375	3.749820	1.270473	-0.000150
 775	7.7013e+01	9.1634	53.514253	0.000395	3.952513	1.339148	-0.000158
 776	7.7112e+01	9.1169	53.356804	0.000395	3.952513	1.339148	-0.000158
 777	7.7212e+01	9.0784	53.203393	0.000385	3.851166	1.304810	-0.000154
 778	7.7311e+01	9.0334	53.021722	0.000456	4.560592	1.545170	-0.000183
 779	7.7411e+01	8.9997	52.880422	0.000355	3.547127	1.201799	-0.000142
 780	7.7510e+01	8.9612	52.702788	0.000446	4.459245	1.510833	-0.000179
 781	7.7610e+01	8.9308	52.549377	0.000385	3.851166	1.304810	-0.000154
 782	7.7710e+01	8.8746	52.375780	0.000436	4.357899	1.476496	-0.000174
 783	7.7809e+01	8.8377	52.266778	0.000274	2.736355	0.927102	-0.000110
 784	7.7909e+01	8.7928	52.081070	0.000466	4.661938	1.579507	-0.000187
 785	7.8008e+01	8.7655	51.887287	0.000486	4.864631	1.648182	-0.000195
 786	7.8108e+01	8.7142	51.758099	0.000324	3.243087	1.098788	-0.000130
 787	7.8207e+01	8.6741	51.600650	0.000395	3.952513	1.339148	-0.000158
 788	7.8306e+01	8.6404	51.435128	0.000416	4.155206	1.407822	-0.000166
 789	7.8406e+01	8.5891	51.249420	0.000466	4.661938	1.579507	-0.000187
 790	7.8505e+01	8.5602	51.104083	0.000365	3.648473	1.236136	-0.000146
 791	7.8605e+01	8.5185	50.958746	0.000365	3.648473	1.236136	-0.000146
 792	7.8704e+01	8.4768	50.777075	0.000456	4.560592	1.545170	-0.000183
 793	7.8804e+01	8.4415	50.603478	0.000436	4.357899	1.476496	-0.000174
 794	7.8903e+01	8.3933	50.437955	0.000416	4.155206	1.407822	-0.000166
 795	7.9003e+01	8.3645	50.268396	0.000426	4.256552	1.442159	-0.000170
 796	7.9103e+01	8.3196	50.131133	0.000345	3.445780	1.167462	-0.000138
 797	7.9202e+01	8.2875	49.937351	0.000486	4.864631	1.648182	-0.000195
 798	7.9302e+01	8.2281	49.779902	0.000395	3.952513	1.339148	-0.000158
 799	7.9401e+01	8.1912	49.614380	0.000416	4.155206	1.407822	-0.000166
 800	7.9501e+01	8.1623	49.452894	0.000405	4.053859	1.373485	-0.000162
 801	7.9600e+01	8.1238	49.287372	0.000416	4.155206	1.407822	-0.000166
 802	7.9700e+01	8.0789	49.121849	0.000416	4.155206	1.407822	-0.000166
 803	7.9799e+01	8.0388	48.956327	0.000416	4.155206	1.407822	-0.000166
 804	7.9898e+01	8.0019	48.798878	0.000395	3.952513	1.339148	-0.000158
 805	7.9998e+01	7.9650	48.625281	0.000436	4.357899	1.476496	-0.000174
 806	8.0097e+01	7.9153	48.492056	0.000334	3.344434	1.133125	-0.000134
 807	8.0197e+01	7.8832	48.302311	0.000476	4.763285	1.613845	-0.000191
 808	8.0296e+01	7.8399	48.144862	0.000395	3.952513	1.339148	-0.000158
 809	8.0396e+01	7.7998	47.979340	0.000416	4.155206	1.407822	-0.000166
 810	8.0496e+01	7.7677	47.793631	0.000466	4.661938	1.579507	-0.000187
 811	8.0595e+01	7.7164	47.652332	0.000355	3.547127	1.201799	-0.000142
 812	8.0695e+01	7.6843	47.502958	0.000375	3.749820	1.270473	-0.000150
 813	8.0794e+01	7.6378	47.301101	0.000507	5.067324	1.716856	-0.000203
 814	8.0894e+01	7.6105	47.147690	0.000385	3.851166	1.304810	-0.000154
 815	8.0993e+01	7.5607	46.953907	0.000486	4.864631	1.648182	-0.000195
 816	8.1093e+01	7.5303	46.796459	0.000395	3.952513	1.339148	-0.000158
 817	8.1192e+01	7.4854	46.655159	0.000355	3.547127	1.201799	-0.000142
 818	8.1291e+01	7.4420	46.457340	0.000497	4.965978	1.682519	-0.000199
 819	8.1391e+01	7.4100	46.316040	0.000355	3.547127	1.201799	-0.000142
 820	8.1490e+01	7.3650	46.142443	0.000436	4.357899	1.476496	-0.000174
 821	8.1590e+01	7.3265	45.972883	0.000426	4.256552	1.442159	-0.000170
 822	8.1689e+01	7.2784	45.803324	0.000426	4.256552	1.442159	-0.000170
 823	8.1789e+01	7.2431	45.633764	0.000426	4.256552	1.442159	-0.000170
 824	8.1888e+01	7.2110	45.456130	0.000446	4.459245	1.510833	-0.000179
 825	8.1988e+01	7.1629	45.318867	0.000345	3.445780	1.167462	-0.000138
 826	8.2088e+01	7.1292	45.149308	0.000426	4.256552	1.442159	-0.000170
 827	8.2187e+01	7.0843	44.939376	0.000527	5.270017	1.785530	-0.000211
 828	8.2287e+01	7.0490	44.818262	0.000304	3.040395	1.030114	-0.000122
 829	8.2386e+01	7.0089	44.664851	0.000385	3.851166	1.304810	-0.000154
 830	8.2486e+01	6.9672	44.426660	0.000598	5.979443	2.025890	-0.000239
 831	8.2585e+01	6.9175	44.257101	0.000426	4.256552	1.442159	-0.000170
 832	8.2684e+01	6.8806	44.115801	0.000355	3.547127	1.201799	-0.000142
 833	8.2784e+01	6.8437	43.901833	0.000537	5.371364	1.819867	-0.000215
 834	8.2883e+01	6.8036	43.728236	0.000436	4.357899	1.476496	-0.000174
 835	8.2983e+01	6.7602	43.578862	0.000375	3.749820	1.270473	-0.000150
 836	8.3082e+01	6.7233	43.429488	0.000375	3.749820	1.270473	-0.000150
 837	8.3182e+01	6.6864	43.259928	0.000426	4.256552	1.442159	-0.000170
 838	8.3281e+01	6.6528	43.070183	0.000476	4.763285	1.613845	-0.000191
 839	8.3381e+01	6.5934	42.884474	0.000466	4.661938	1.579507	-0.000187
 840	8.3481e+01	6.5629	42.710878	0.000436	4.357899	1.476496	-0.000174
 841	8.3580e+01	6.5180	42.549392	0.000405	4.053859	1.373485	-0.000162
 842	8.3680e+01	6.4859	42.371758	0.000446	4.459245	1.510833	-0.000179
 843	8.3779e+01	6.4442	42.218347	0.000385	3.851166	1.304810	-0.000154
 844	8.3879e+01	6.4041	42.052824	0.000416	4.155206	1.407822	-0.000166
 845	8.3978e+01	6.3720	41.842893	0.000527	5.270017	1.785530	-0.000211
 846	8.4078e+01	6.3239	41.701594	0.000355	3.547127	1.201799	-0.000142
 847	8.4177e+01	6.2886	41.540108	0.000405	4.053859	1.373485	-0.000162
 848	8.4276e+01	6.2533	41.370548	0.000426	4.256552	1.442159	-0.000170
 849	8.4376e+01	6.2036	41.205026	0.000416	4.155206	1.407822	-0.000166
 850	8.4475e+01	6.1699	40.991058	0.000537	5.371364	1.819867	-0.000215
 851	8.4575e+01	6.1234	40.833609	0.000395	3.952513	1.339148	-0.000158
 852	8.4674e+01	6.0913	40.647901	0.000466	4.661938	1.579507	-0.000187
 853	8.4774e+01	6.0592	40.518713	0.000324	3.243087	1.098788	-0.000130
 854	8.4874e+01	6.0175	40.304745	0.000537	5.371364	1.819867	-0.000215
 855	8.4973e+01	5.9742	40.098851	0.000517	5.168671	1.751193	-0.000207
 856	8.5073e+01	5.9325	39.937365	0.000405	4.053859	1.373485	-0.000162
 857	8.5172e+01	5.8907	39.763768	0.000436	4.357899	1.476496	-0.000174
 858	8.5272e+01	5.8490	39.590172	0.000436	4.357899	1.476496	-0.000174
 859	8.5371e+01	5.8186	39.428686	0.000405	4.053859	1.373485	-0.000162
 860	8.5471e+01	5.7704	39.283349	0.000365	3.648473	1.236136	-0.000146
 861	8.5570e+01	5.7335	39.057270	0.000568	5.675403	1.922879	-0.000227
 862	8.5669e+01	5.6950	38.895784	0.000405	4.053859	1.373485	-0.000162
 863	8.5769e+01	5.6501	38.722187	0.000436	4.357899	1.476496	-0.000174
 864	8.5868e+01	5.6052	38.520331	0.000507	5.067324	1.716856	-0.000203
 865	8.5968e+01	5.5795	38.342697	0.000446	4.459245	1.510833	-0.000179
 866	8.6067e+01	5.5330	38.161026	0.000456	4.560592	1.545170	-0.000183
 867	8.6167e+01	5.4881	38.023763	0.000345	3.445780	1.167462	-0.000138
 868	8.6266e+01	5.4592	37.834018	0.000476	4.763285	1.613845	-0.000191
 869	8.6366e+01	5.4127	37.624087	0.000527	5.270017	1.785530	-0.000211
 870	8.6466e+01	5.3710	37.458564	0.000416	4.155206	1.407822	-0.000166
 871	8.6565e+01	5.3389	37.309190	0.000375	3.749820	1.270473	-0.000150
 872	8.6665e+01	5.2876	37.079073	0.000578	5.776750	1.957216	-0.000231
 873	8.6764e+01	5.2571	36.925662	0.000385	3.851166	1.304810	-0.000154
 874	8.6864e+01	5.2202	36.735917	0.000476	4.763285	1.613845	-0.000191
 875	8.6963e+01	5.1737	36.542134	0.000486	4.864631	1.648182	-0.000195
 876	8.7063e+01	5.1400	36.356426	0.000466	4.661938	1.579507	-0.000187
 877	8.7162e+01	5.0966	36.182829	0.000436	4.357899	1.476496	-0.000174
 878	8.7261e+01	5.0485	35.989047	0.000486	4.864631	1.648182	-0.000195
 879	8.7361e+01	5.0132	35.815450	0.000436	4.357899	1.476496	-0.000174
 880	8.7460e+01	4.9795	35.633779	0.000456	4.560592	1.545170	-0.000183
 881	8.7560e+01	4.9362	35.452107	0.000456	4.560592	1.545170	-0.000183
 882	8.7659e+01	4.8833	35.278511	0.000436	4.357899	1.476496	-0.000174
 883	8.7759e+01	4.8528	35.048394	0.000578	5.776750	1.957216	-0.000231
 884	8.7859e+01	4.8143	34.890946	0.000395	3.952513	1.339148	-0.000158
 885	8.7958e+01	4.7790	34.725423	0.000416	4.155206	1.407822	-0.000166
 886	8.8058e+01	4.7293	34.519529	0.000517	5.168671	1.751193	-0.000207
 887	8.8157e+01	4.6892	34.341895	0.000446	4.459245	1.510833	-0.000179
 888	8.8257e+01	4.6603	34.144076	0.000497	4.965978	1.682519	-0.000199
 889	8.8356e+01	4.6090	33.986627	0.000395	3.952513	1.339148	-0.000158
 890	8.8456e+01	4.5705	33.756510	0.000578	5.776750	1.957216	-0.000231
 891	8.8555e+01	4.5304	33.599062	0.000395	3.952513	1.339148	-0.000158
 892	8.8654e+01	4.5047	33.433540	0.000416	4.155206	1.407822	-0.000166
 893	8.8754e+01	4.4566	33.179200	0.000638	6.384829	2.163238	-0.000256
 894	8.8853e+01	4.4197	33.021752	0.000395	3.952513	1.339148	-0.000158
 895	8.8953e+01	4.3699	32.807784	0.000537	5.371364	1.819867	-0.000215
 896	8.9052e+01	4.3523	32.638224	0.000426	4.256552	1.442159	-0.000170
 897	8.9152e+01	4.2929	32.460590	0.000446	4.459245	1.510833	-0.000179
 898	8.9251e+01	4.2576	32.258733	0.000507	5.067324	1.716856	-0.000203
 899	8.9351e+01	4.2159	32.081099	0.000446	4.459245	1.510833	-0.000179
 900	8.9451e+01	4.1790	31.838871	0.000608	6.080789	2.060227	-0.000243
 901	8.9550e+01	4.1357	31.637014	0.000507	5.067324	1.716856	-0.000203
 902	8.9650e+01	4.0988	31.463417	0.000436	4.357899	1.476496	-0.000174
 903	8.9749e+01	4.0539	31.265598	0.000497	4.965978	1.682519	-0.000199
 904	8.9849e+01	4.0170	31.055667	0.000527	5.270017	1.785530	-0.000211
 905	8.9948e+01	3.9769	30.890144	0.000416	4.155206	1.407822	-0.000166
 906	9.0047e+01	3.9368	30.655990	0.000588	5.878096	1.991553	-0.000235
 907	9.0147e+01	3.8935	30.462208	0.000486	4.864631	1.648182	-0.000195
 908	9.0246e+01	3.8518	30.304759	0.000395	3.952513	1.339148	-0.000158
 909	9.0346e+01	3.8068	30.131163	0.000436	4.357899	1.476496	-0.000174
 910	9.0445e+01	3.7699	29.901046	0.000578	5.776750	1.957216	-0.000231
 911	9.0545e+01	3.7459	29.735523	0.000416	4.155206	1.407822	-0.000166
 912	9.0644e+01	3.6945	29.521555	0.000537	5.371364	1.819867	-0.000215
 913	9.0744e+01	3.6577	29.319698	0.000507	5.067324	1.716856	-0.000203
 914	9.0844e+01	3.6240	29.113804	0.000517	5.168671	1.751193	-0.000207
 915	9.0943e+01	3.5710	28.899836	0.000537	5.371364	1.819867	-0.000215
 916	9.1043e+01	3.5341	28.685868	0.000537	5.371364	1.819867	-0.000215
 917	9.1142e+01	3.4972	28.512271	0.000436	4.357899	1.476496	-0.000174
 918	9.1242e+01	3.4667	28.338674	0.000436	4.357899	1.476496	-0.000174
 919	9.1341e+01	3.4186	28.140855	0.000497	4.965978	1.682519	-0.000199
 920	9.1441e+01	3.3721	27.902664	0.000598	5.979443	2.025890	-0.000239
 921	9.1540e+01	3.3416	27.741178	0.000405	4.053859	1.373485	-0.000162
 922	9.1639e+01	3.2999	27.511061	0.000578	5.776750	1.957216	-0.000231
 923	9.1739e+01	3.2614	27.305168	0.000517	5.168671	1.751193	-0.000207
 924	9.1838e+01	3.2229	27.095237	0.000527	5.270017	1.785530	-0.000211
 925	9.1938e+01	3.1780	26.881268	0.000537	5.371364	1.819867	-0.000215
 926	9.2037e+01	3.1427	26.719783	0.000405	4.053859	1.373485	-0.000162
 927	9.2137e+01	3.0978	26.530038	0.000476	4.763285	1.613845	-0.000191
 928	9.2237e+01	3.0641	26.299921	0.000578	5.776750	1.957216	-0.000231
 929	9.2336e+01	3.0176	26.077878	0.000557	5.574057	1.888542	-0.000223
 930	9.2436e+01	2.9839	25.920430	0.000395	3.952513	1.339148	-0.000158
 931	9.2535e+01	2.9390	25.678202	0.000608	6.080789	2.060227	-0.000243
 932	9.2635e+01	2.9053	25.496531	0.000456	4.560592	1.545170	-0.000183
 933	9.2734e+01	2.8491	25.282563	0.000537	5.371364	1.819867	-0.000215
 934	9.2834e+01	2.8122	25.100891	0.000456	4.560592	1.545170	-0.000183
 935	9.2933e+01	2.7866	24.858663	0.000608	6.080789	2.060227	-0.000243
 936	9.3032e+01	2.7336	24.660844	0.000497	4.965978	1.682519	-0.000199
 937	9.3132e+01	2.6967	24.446875	0.000537	5.371364	1.819867	-0.000215
 938	9.3231e+01	2.6662	24.236944	0.000527	5.270017	1.785530	-0.000211
 939	9.3331e+01	2.6149	24.075459	0.000405	4.053859	1.373485	-0.000162
 940	9.3430e+01	2.5876	23.796897	0.000699	6.992907	2.369261	-0.000280
 941	9.3530e+01	2.5491	23.619263	0.000446	4.459245	1.510833	-0.000179
 942	9.3629e+01	2.5090	23.425480	0.000486	4.864631	1.648182	-0.000195
 943	9.3729e+01	2.4689	23.199401	0.000568	5.675403	1.922879	-0.000227
 944	9.3829e+01	2.4256	22.993507	0.000517	5.168671	1.751193	-0.000207
 945	9.3928e+01	2.3775	22.759353	0.000588	5.878096	1.991553	-0.000235
 946	9.4028e+01	2.3486	22.569607	0.000476	4.763285	1.613845	-0.000191
 947	9.4127e+01	2.3021	22.379862	0.000476	4.763285	1.613845	-0.000191
 948	9.4227e+01	2.2700	22.157819	0.000557	5.574057	1.888542	-0.000223
 949	9.4326e+01	2.2251	21.951926	0.000517	5.168671	1.751193	-0.000207
 950	9.4425e+01	2.1946	21.758143	0.000486	4.864631	1.648182	-0.000195
 951	9.4525e+01	2.1433	21.528026	0.000578	5.776750	1.957216	-0.000231
 952	9.4624e+01	2.1031	21.330207	0.000497	4.965978	1.682519	-0.000199
 953	9.4724e+01	2.0614	21.104127	0.000568	5.675403	1.922879	-0.000227
 954	9.4823e+01	2.0213	20.946679	0.000395	3.952513	1.339148	-0.000158
 955	9.4923e+01	1.9876	20.664079	0.000709	7.094254	2.403598	-0.000284
 956	9.5022e+01	1.9427	20.474334	0.000476	4.763285	1.613845	-0.000191
 957	9.5122e+01	1.9058	20.276514	0.000497	4.965978	1.682519	-0.000199
 958	9.5222e+01	1.8705	20.042360	0.000588	5.878096	1.991553	-0.000235
 959	9.5321e+01	1.8272	19.844541	0.000497	4.965978	1.682519	-0.000199
 960	9.5421e+01	1.7823	19.626535	0.000547	5.472710	1.854204	-0.000219
 961	9.5520e+01	1.7422	19.469087	0.000395	3.952513	1.339148	-0.000158
 962	9.5620e+01	1.6957	19.222822	0.000618	6.182136	2.094564	-0.000248
 963	9.5719e+01	1.6684	18.996742	0.000568	5.675403	1.922879	-0.000227
 964	9.5819e+01	1.6187	18.798923	0.000497	4.965978	1.682519	-0.000199
 965	9.5918e+01	1.5898	18.572843	0.000568	5.675403	1.922879	-0.000227
 966	9.6017e+01	1.5449	18.366949	0.000517	5.168671	1.751193	-0.000207
 967	9.6117e+01	1.5048	18.181241	0.000466	4.661938	1.579507	-0.000187
 968	9.6216e+01	1.4550	17.926901	0.000638	6.384829	2.163238	-0.000256
 969	9.6316e+01	1.4294	17.761379	0.000416	4.155206	1.407822	-0.000166
 970	9.6415e+01	1.3877	17.535299	0.000568	5.675403	1.922879	-0.000227
 971	9.6515e+01	1.3572	17.297108	0.000598	5.979443	2.025890	-0.000239
 972	9.6615e+01	1.3042	17.087177	0.000527	5.270017	1.785530	-0.000211
 973	9.6714e+01	1.2689	16.840912	0.000618	6.182136	2.094564	-0.000248
 974	9.6814e+01	1.2337	16.622906	0.000547	5.472710	1.854204	-0.000219
 975	9.6913e+01	1.1855	16.433161	0.000476	4.763285	1.613845	-0.000191
 976	9.7013e+01	1.1438	16.223230	0.000527	5.270017	1.785530	-0.000211
 977	9.7112e+01	1.1149	16.013299	0.000527	5.270017	1.785530	-0.000211
 978	9.7212e+01	1.0620	15.791256	0.000557	5.574057	1.888542	-0.000223
 979	9.7311e+01	1.0315	15.557103	0.000588	5.878096	1.991553	-0.000235
 980	9.7410e+01	0.9866	15.399654	0.000395	3.952513	1.339148	-0.000158
 981	9.7510e+01	0.9417	15.133203	0.000669	6.688868	2.266250	-0.000268
 982	9.7609e+01	0.9176	14.911161	0.000557	5.574057	1.888542	-0.000223
 983	9.7709e+01	0.8679	14.733527	0.000446	4.459245	1.510833	-0.000179
 984	9.7808e+01	0.8406	14.487262	0.000618	6.182136	2.094564	-0.000248
 985	9.7908e+01	0.7877	14.305590	0.000456	4.560592	1.545170	-0.000183
 986	9.8007e+01	0.7540	14.051251	0.000638	6.384829	2.163238	-0.000256
 987	9.8107e+01	0.7043	13.849394	0.000507	5.067324	1.716856	-0.000203
 988	9.8207e+01	0.6642	13.639463	0.000527	5.270017	1.785530	-0.000211
 989	9.8306e+01	0.6289	13.429532	0.000527	5.270017	1.785530	-0.000211
 990	9.8406e+01	0.5888	13.219601	0.000527	5.270017	1.785530	-0.000211
 991	9.8505e+01	0.5438	12.989484	0.000578	5.776750	1.957216	-0.000231
 992	9.8605e+01	0.5069	12.803776	0.000466	4.661938	1.579507	-0.000187
 993	9.8704e+01	0.4668	12.585771	0.000547	5.472710	1.854204	-0.000219
 994	9.8803e+01	0.4347	12.347580	0.000598	5.979443	2.025890	-0.000239
 995	9.8903e+01	0.3898	12.145723	0.000507	5.067324	1.716856	-0.000203
 996	9.9002e+01	0.3513	11.943866	0.000507	5.067324	1.716856	-0.000203
 997	9.9102e+01	0.3000	11.681452	0.000659	6.587521	2.231913	-0.000264
 998	9.9201e+01	0.2663	11.459410	0.000557	5.574057	1.888542	-0.000223
 999	9.9301e+01	0.2326	11.297924	0.000405	4.053859	1.373485	-0.000162
1000	9.9400e+01	0.1957	11.075882	0.000557	5.574057	1.888542	-0.000223
1001	9.9500e+01	0.1540	10.874025	0.000507	5.067324	1.716856	-0.000203
1002	9.9600e+01	0.1091	10.631797	0.000608	6.080789	2.060227	-0.000243
1003	9.9699e+01	0.0738	10.405717	0.000568	5.675403	1.922879	-0.000227
1004	9.9799e+01	0.0257	10.171563	0.000588	5.878096	1.991553	-0.000235
1005	9.9898e+01	0.0080	9.953558	0.000547	5.472710	1.854204	-0.000219
1006	9.9998e+01	-0.0433	9.804184	0.000375	3.749820	1.270473	-0.000150
1007	1.0010e+02	-0.0834	9.549845	0.000638	6.384829	2.163238	-0.000256
1008	1.0020e+02	-0.1187	9.343951	0.000517	5.168671	1.751193	-0.000207
1009	1.0030e+02	-0.1540	9.150168	0.000486	4.864631	1.648182	-0.000195
1010	1.0040e+02	-0.1973	8.924089	0.000568	5.675403	1.922879	-0.000227
1011	1.0050e+02	-0.2422	8.710120	0.000537	5.371364	1.819867	-0.000215
1012	1.0059e+02	-0.2775	8.451744	0.000649	6.486175	2.197576	-0.000260
1013	1.0069e+02	-0.3192	8.253924	0.000497	4.965978	1.682519	-0.000199
1014	1.0079e+02	-0.3545	8.035919	0.000547	5.472710	1.854204	-0.000219
1015	1.0089e+02	-0.3946	7.825988	0.000527	5.270017	1.785530	-0.000211
1016	1.0099e+02	-0.4347	7.624131	0.000507	5.067324	1.716856	-0.000203
1017	1.0109e+02	-0.4813	7.369791	0.000638	6.384829	2.163238	-0.000256
1018	1.0119e+02	-0.5182	7.192157	0.000446	4.459245	1.510833	-0.000179
1019	1.0129e+02	-0.5647	6.986263	0.000517	5.168671	1.751193	-0.000207
1020	1.0139e+02	-0.5920	6.727887	0.000649	6.486175	2.197576	-0.000260
1021	1.0149e+02	-0.6353	6.497770	0.000578	5.776750	1.957216	-0.000231
1022	1.0159e+02	-0.6754	6.279765	0.000547	5.472710	1.854204	-0.000219
1023	1.0169e+02	-0.7155	6.049648	0.000578	5.776750	1.957216	-0.000231
1024	1.0179e+02	-0.7588	5.884125	0.000416	4.155206	1.407822	-0.000166
1025	1.0189e+02	-0.8053	5.637860	0.000618	6.182136	2.094564	-0.000248
1026	1.0199e+02	-0.8390	5.415818	0.000557	5.574057	1.888542	-0.000223
1027	1.0209e+02	-0.8775	5.197812	0.000547	5.472710	1.854204	-0.000219
1028	1.0219e+02	-0.9176	4.963658	0.000588	5.878096	1.991553	-0.000235
1029	1.0229e+02	-0.9561	4.753727	0.000527	5.270017	1.785530	-0.000211
1030	1.0239e+02	-0.9914	4.568019	0.000466	4.661938	1.579507	-0.000187
1031	1.0248e+02	-1.0363	4.354051	0.000537	5.371364	1.819867	-0.000215
1032	1.0258e+02	-1.0780	4.103748	0.000628	6.283482	2.128901	-0.000252
1033	1.0268e+02	-1.1230	3.897855	0.000517	5.168671	1.751193	-0.000207
1034	1.0278e+02	-1.1518	3.635441	0.000659	6.587521	2.231913	-0.000264
1035	1.0288e+02	-1.2032	3.425510	0.000527	5.270017	1.785530	-0.000211
1036	1.0298e+02	-1.2288	3.207504	0.000547	5.472710	1.854204	-0.000219
1037	1.0308e+02	-1.2754	3.009685	0.000497	4.965978	1.682519	-0.000199
1038	1.0318e+02	-1.3123	2.795716	0.000537	5.371364	1.819867	-0.000215
1039	1.0328e+02	-1.3572	2.545414	0.000628	6.283482	2.128901	-0.000252
1040	1.0338e+02	-1.3861	2.347594	0.000497	4.965978	1.682519	-0.000199
1041	1.0348e+02	-1.4374	2.093255	0.000638	6.384829	2.163238	-0.000256
1042	1.0358e+02	-1.4695	1.891398	0.000507	5.067324	1.716856	-0.000203
1043	1.0368e+02	-1.5208	1.709727	0.000456	4.560592	1.545170	-0.000183
1044	1.0378e+02	-1.5561	1.479610	0.000578	5.776750	1.957216	-0.000231
1045	1.0388e+02	-1.5962	1.221234	0.000649	6.486175	2.197576	-0.000260
1046	1.0398e+02	-1.6331	1.019377	0.000507	5.067324	1.716856	-0.000203
1047	1.0408e+02	-1.6780	0.797334	0.000557	5.574057	1.888542	-0.000223
1048	1.0418e+02	-1.7117	0.567218	0.000578	5.776750	1.957216	-0.000231
1049	1.0428e+02	-1.7438	0.333064	0.000588	5.878096	1.991553	-0.000235
1050	1.0438e+02	-1.7903	0.151393	0.000456	4.560592	1.545170	-0.000183
1051	1.0447e+02	-1.8385	-0.127170	0.000699	6.992907	2.369261	-0.000280
1052	1.0457e+02	-1.8818	-0.300767	0.000436	4.357899	1.476496	-0.000174
1053	1.0467e+02	-1.9090	-0.526846	0.000568	5.675403	1.922879	-0.000227
1054	1.0477e+02	-1.9572	-0.789260	0.000659	6.587521	2.231913	-0.000264
1055	1.0487e+02	-1.9989	-0.987080	0.000497	4.965978	1.682519	-0.000199
1056	1.0497e+02	-2.0310	-1.245456	0.000649	6.486175	2.197576	-0.000260
1057	1.0507e+02	-2.0711	-1.471536	0.000568	5.675403	1.922879	-0.000227
1058	1.0517e+02	-2.1176	-1.624947	0.000385	3.851166	1.304810	-0.000154
1059	1.0527e+02	-2.1497	-1.895435	0.000679	6.790214	2.300587	-0.000272
1060	1.0537e+02	-2.1946	-2.117478	0.000557	5.574057	1.888542	-0.000223
1061	1.0547e+02	-2.2235	-2.347594	0.000578	5.776750	1.957216	-0.000231
1062	1.0557e+02	-2.2620	-2.593860	0.000618	6.182136	2.094564	-0.000248
1063	1.0567e+02	-2.3069	-2.799754	0.000517	5.168671	1.751193	-0.000207
1064	1.0577e+02	-2.3550	-2.997573	0.000497	4.965978	1.682519	-0.000199
1065	1.0587e+02	-2.3871	-3.251913	0.000638	6.384829	2.163238	-0.000256
1066	1.0597e+02	-2.4400	-3.482030	0.000578	5.776750	1.957216	-0.000231
1067	1.0607e+02	-2.4721	-3.683886	0.000507	5.067324	1.716856	-0.000203
1068	1.0617e+02	-2.5122	-3.918040	0.000588	5.878096	1.991553	-0.000235
1069	1.0627e+02	-2.5571	-4.164306	0.000618	6.182136	2.094564	-0.000248
1070	1.0637e+02	-2.5844	-4.386348	0.000557	5.574057	1.888542	-0.000223
1071	1.0647e+02	-2.6309	-4.584168	0.000497	4.965978	1.682519	-0.000199
1072	1.0656e+02	-2.6710	-4.826396	0.000608	6.080789	2.060227	-0.000243
1073	1.0666e+02	-2.7128	-5.032290	0.000517	5.168671	1.751193	-0.000207
1074	1.0676e+02	-2.7513	-5.262406	0.000578	5.776750	1.957216	-0.000231
1075	1.0686e+02	-2.7930	-5.520783	0.000649	6.486175	2.197576	-0.000260
1076	1.0696e+02	-2.8299	-5.742826	0.000557	5.574057	1.888542	-0.000223
1077	1.0706e+02	-2.8668	-5.928534	0.000466	4.661938	1.579507	-0.000187
1078	1.0716e+02	-2.9197	-6.158651	0.000578	5.776750	1.957216	-0.000231
1079	1.0726e+02	-2.9550	-6.372619	0.000537	5.371364	1.819867	-0.000215
1080	1.0736e+02	-2.9887	-6.602735	0.000578	5.776750	1.957216	-0.000231
1081	1.0746e+02	-3.0368	-6.832852	0.000578	5.776750	1.957216	-0.000231
1082	1.0756e+02	-3.0689	-7.067006	0.000588	5.878096	1.991553	-0.000235
1083	1.0766e+02	-3.1202	-7.313271	0.000618	6.182136	2.094564	-0.000248
1084	1.0776e+02	-3.1475	-7.490905	0.000446	4.459245	1.510833	-0.000179
1085	1.0786e+02	-3.1908	-7.757356	0.000669	6.688868	2.266250	-0.000268
1086	1.0796e+02	-3.2261	-7.987473	0.000578	5.776750	1.957216	-0.000231
1087	1.0806e+02	-3.2694	-8.185293	0.000497	4.965978	1.682519	-0.000199
1088	1.0816e+02	-3.3095	-8.407335	0.000557	5.574057	1.888542	-0.000223
1089	1.0826e+02	-3.3512	-8.649563	0.000608	6.080789	2.060227	-0.000243
1090	1.0836e+02	-3.3849	-8.883717	0.000588	5.878096	1.991553	-0.000235
1091	1.0845e+02	-3.4298	-9.093648	0.000527	5.270017	1.785530	-0.000211
1092	1.0855e+02	-3.4667	-9.303579	0.000527	5.270017	1.785530	-0.000211
1093	1.0865e+02	-3.5052	-9.509473	0.000517	5.168671	1.751193	-0.000207
1094	1.0875e+02	-3.5438	-9.751701	0.000608	6.080789	2.060227	-0.000243
1095	1.0885e+02	-3.5951	-9.989892	0.000598	5.979443	2.025890	-0.000239
1096	1.0895e+02	-3.6320	-10.195786	0.000517	5.168671	1.751193	-0.000207
1097	1.0905e+02	-3.6689	-10.454163	0.000649	6.486175	2.197576	-0.000260
1098	1.0915e+02	-3.7090	-10.631797	0.000446	4.459245	1.510833	-0.000179
1099	1.0925e+02	-3.7443	-10.869988	0.000598	5.979443	2.025890	-0.000239
1100	1.0935e+02	-3.7972	-11.100105	0.000578	5.776750	1.957216	-0.000231
1101	1.0945e+02	-3.8293	-11.334259	0.000588	5.878096	1.991553	-0.000235
1102	1.0955e+02	-3.8742	-11.564375	0.000578	5.776750	1.957216	-0.000231
1103	1.0965e+02	-3.8999	-11.774306	0.000527	5.270017	1.785530	-0.000211
1104	1.0975e+02	-3.9480	-12.020572	0.000618	6.182136	2.094564	-0.000248
1105	1.0985e+02	-3.9881	-12.230503	0.000527	5.270017	1.785530	-0.000211
1106	1.0995e+02	-4.0298	-12.428322	0.000497	4.965978	1.682519	-0.000199
1107	1.1005e+02	-4.0635	-12.650365	0.000557	5.574057	1.888542	-0.000223
1108	1.1015e+02	-4.1149	-12.876444	0.000568	5.675403	1.922879	-0.000227
1109	1.1025e+02	-4.1373	-13.094450	0.000547	5.472710	1.854204	-0.000219
1110	1.1035e+02	-4.1838	-13.356864	0.000659	6.587521	2.231913	-0.000264
1111	1.1044e+02	-4.2207	-13.562758	0.000517	5.168671	1.751193	-0.000207
1112	1.1054e+02	-4.2689	-13.772689	0.000527	5.270017	1.785530	-0.000211
1113	1.1064e+02	-4.3009	-14.010880	0.000598	5.979443	2.025890	-0.000239
1114	1.1074e+02	-4.3411	-14.208699	0.000497	4.965978	1.682519	-0.000199
1115	1.1084e+02	-4.3876	-14.394407	0.000466	4.661938	1.579507	-0.000187
1116	1.1094e+02	-4.4213	-14.664896	0.000679	6.790214	2.300587	-0.000272
1117	1.1104e+02	-4.4646	-14.866752	0.000507	5.067324	1.716856	-0.000203
1118	1.1114e+02	-4.5079	-15.088795	0.000557	5.574057	1.888542	-0.000223
1119	1.1124e+02	-4.5496	-15.290652	0.000507	5.067324	1.716856	-0.000203
1120	1.1134e+02	-4.5849	-15.524805	0.000588	5.878096	1.991553	-0.000235
1121	1.1144e+02	-4.6250	-15.754922	0.000578	5.776750	1.957216	-0.000231
1122	1.1154e+02	-4.6571	-15.932556	0.000446	4.459245	1.510833	-0.000179
1123	1.1164e+02	-4.7004	-16.158636	0.000568	5.675403	1.922879	-0.000227
1124	1.1174e+02	-4.7469	-16.400864	0.000608	6.080789	2.060227	-0.000243
1125	1.1184e+02	-4.7790	-16.590609	0.000476	4.763285	1.613845	-0.000191
1126	1.1194e+02	-4.8175	-16.824763	0.000588	5.878096	1.991553	-0.000235
1127	1.1204e+02	-4.8672	-17.002397	0.000446	4.459245	1.510833	-0.000179
1128	1.1214e+02	-4.8993	-17.248662	0.000618	6.182136	2.094564	-0.000248
1129	1.1224e+02	-4.9426	-17.430334	0.000456	4.560592	1.545170	-0.000183
1130	1.1234e+02	-4.9747	-17.680636	0.000628	6.283482	2.128901	-0.000252
1131	1.1244e+02	-5.0229	-17.918827	0.000598	5.979443	2.025890	-0.000239
1132	1.1253e+02	-5.0646	-18.116647	0.000497	4.965978	1.682519	-0.000199
1133	1.1263e+02	-5.1031	-18.326578	0.000527	5.270017	1.785530	-0.000211
1134	1.1273e+02	-5.1416	-18.528434	0.000507	5.067324	1.716856	-0.000203
1135	1.1283e+02	-5.1849	-18.722217	0.000486	4.864631	1.648182	-0.000195
1136	1.1293e+02	-5.2186	-18.960408	0.000598	5.979443	2.025890	-0.000239
1137	1.1303e+02	-5.2619	-19.174376	0.000537	5.371364	1.819867	-0.000215
1138	1.1313e+02	-5.2940	-19.384307	0.000527	5.270017	1.785530	-0.000211
1139	1.1323e+02	-5.3373	-19.602313	0.000547	5.472710	1.854204	-0.000219
1140	1.1333e+02	-5.3870	-19.832429	0.000578	5.776750	1.957216	-0.000231
1141	1.1343e+02	-5.4143	-19.989878	0.000395	3.952513	1.339148	-0.000158
1142	1.1353e+02	-5.4608	-20.224031	0.000588	5.878096	1.991553	-0.000235
1143	1.1363e+02	-5.5009	-20.433963	0.000527	5.270017	1.785530	-0.000211
1144	1.1373e+02	-5.5490	-20.631782	0.000497	4.965978	1.682519	-0.000199
1145	1.1383e+02	-5.5795	-20.882085	0.000628	6.283482	2.128901	-0.000252
1146	1.1393e+02	-5.6164	-21.059719	0.000446	4.459245	1.510833	-0.000179
1147	1.1403e+02	-5.6629	-21.285798	0.000568	5.675403	1.922879	-0.000227
1148	1.1413e+02	-5.7047	-21.467469	0.000456	4.560592	1.545170	-0.000183
1149	1.1423e+02	-5.7448	-21.681437	0.000537	5.371364	1.819867	-0.000215
1150	1.1433e+02	-5.7849	-21.911554	0.000578	5.776750	1.957216	-0.000231
1151	1.1442e+02	-5.8218	-22.077077	0.000416	4.155206	1.407822	-0.000166
1152	1.1452e+02	-5.8571	-22.274896	0.000497	4.965978	1.682519	-0.000199
1153	1.1462e+02	-5.8988	-22.488865	0.000537	5.371364	1.819867	-0.000215
1154	1.1472e+02	-5.9405	-22.650350	0.000405	4.053859	1.373485	-0.000162
1155	1.1482e+02	-5.9742	-22.928912	0.000699	6.992907	2.369261	-0.000280
1156	1.1492e+02	-6.0175	-23.102509	0.000436	4.357899	1.476496	-0.000174
1157	1.1502e+02	-6.0608	-23.312440	0.000527	5.270017	1.785530	-0.000211
1158	1.1512e+02	-6.0977	-23.518334	0.000517	5.168671	1.751193	-0.000207
1159	1.1522e+02	-6.1458	-23.728265	0.000527	5.270017	1.785530	-0.000211
1160	1.1532e+02	-6.1795	-23.909936	0.000456	4.560592	1.545170	-0.000183
1161	1.1542e+02	-6.2260	-24.123905	0.000537	5.371364	1.819867	-0.000215
1162	1.1552e+02	-6.2613	-24.345947	0.000557	5.574057	1.888542	-0.000223
1163	1.1562e+02	-6.2902	-24.499358	0.000385	3.851166	1.304810	-0.000154
1164	1.1572e+02	-6.3383	-24.725438	0.000568	5.675403	1.922879	-0.000227
1165	1.1582e+02	-6.3800	-24.939406	0.000537	5.371364	1.819867	-0.000215
1166	1.1592e+02	-6.4041	-25.157411	0.000547	5.472710	1.854204	-0.000219
1167	1.1602e+02	-6.4554	-25.331008	0.000436	4.357899	1.476496	-0.000174
1168	1.1612e+02	-6.4987	-25.496531	0.000416	4.155206	1.407822	-0.000166
1169	1.1622e+02	-6.5453	-25.746833	0.000628	6.283482	2.128901	-0.000252
1170	1.1632e+02	-6.5725	-25.960801	0.000537	5.371364	1.819867	-0.000215
1171	1.1642e+02	-6.6126	-26.138435	0.000446	4.459245	1.510833	-0.000179
1172	1.1651e+02	-6.6576	-26.336255	0.000497	4.965978	1.682519	-0.000199
1173	1.1661e+02	-6.6961	-26.530038	0.000486	4.864631	1.648182	-0.000195
1174	1.1671e+02	-6.7378	-26.699597	0.000426	4.256552	1.442159	-0.000170
1175	1.1681e+02	-6.7650	-26.957974	0.000649	6.486175	2.197576	-0.000260
1176	1.1691e+02	-6.8052	-27.119459	0.000405	4.053859	1.373485	-0.000162
1177	1.1701e+02	-6.8485	-27.305168	0.000466	4.661938	1.579507	-0.000187
1178	1.1711e+02	-6.8918	-27.515099	0.000527	5.270017	1.785530	-0.000211
1179	1.1721e+02	-6.9223	-27.688695	0.000436	4.357899	1.476496	-0.000174
1180	1.1731e+02	-6.9768	-27.886515	0.000497	4.965978	1.682519	-0.000199
1181	1.1741e+02	-7.0089	-28.144892	0.000649	6.486175	2.197576	-0.000260
1182	1.1751e+02	-7.0586	-28.270043	0.000314	3.141741	1.064451	-0.000126
1183	1.1761e+02	-7.0923	-28.479974	0.000527	5.270017	1.785530	-0.000211
1184	1.1771e+02	-7.1356	-28.685868	0.000517	5.168671	1.751193	-0.000207
1185	1.1781e+02	-7.1709	-28.871576	0.000466	4.661938	1.579507	-0.000187
1186	1.1791e+02	-7.2094	-29.045173	0.000436	4.357899	1.476496	-0.000174
1187	1.1801e+02	-7.2463	-29.267216	0.000557	5.574057	1.888542	-0.000223
1188	1.1811e+02	-7.2993	-29.412552	0.000365	3.648473	1.236136	-0.000146
1189	1.1821e+02	-7.3265	-29.642669	0.000578	5.776750	1.957216	-0.000231
1190	1.1831e+02	-7.3698	-29.804155	0.000405	4.053859	1.373485	-0.000162
1191	1.1841e+02	-7.4083	-29.985826	0.000456	4.560592	1.545170	-0.000183
1192	1.1850e+02	-7.4549	-30.207868	0.000557	5.574057	1.888542	-0.000223
1193	1.1860e+02	-7.4966	-30.389539	0.000456	4.560592	1.545170	-0.000183
1194	1.1870e+02	-7.5239	-30.575248	0.000466	4.661938	1.579507	-0.000187
1195	1.1880e+02	-7.5656	-30.777104	0.000507	5.067324	1.716856	-0.000203
1196	1.1890e+02	-7.6057	-30.950701	0.000436	4.357899	1.476496	-0.000174
1197	1.1900e+02	-7.6442	-31.144484	0.000486	4.864631	1.648182	-0.000195
1198	1.1910e+02	-7.6907	-31.342303	0.000497	4.965978	1.682519	-0.000199
1199	1.1920e+02	-7.7340	-31.560309	0.000547	5.472710	1.854204	-0.000219
1200	1.1930e+02	-7.7741	-31.701608	0.000355	3.547127	1.201799	-0.000142
1201	1.1940e+02	-7.8046	-31.891354	0.000476	4.763285	1.613845	-0.000191
1202	1.1950e+02	-7.8415	-32.101285	0.000527	5.270017	1.785530	-0.000211
1203	1.1960e+02	-7.8768	-32.299104	0.000497	4.965978	1.682519	-0.000199
1204	1.1970e+02	-7.9249	-32.456553	0.000395	3.952513	1.339148	-0.000158
1205	1.1980e+02	-7.9618	-32.666484	0.000527	5.270017	1.785530	-0.000211
1206	1.1990e+02	-8.0131	-32.872378	0.000517	5.168671	1.751193	-0.000207
1207	1.2000e+02	-8.0452	-33.009640	0.000345	3.445780	1.167462	-0.000138
1208	1.2010e+02	-8.0869	-33.195349	0.000466	4.661938	1.579507	-0.000187
1209	1.2020e+02	-8.1254	-33.385094	0.000476	4.763285	1.613845	-0.000191
1210	1.2030e+02	-8.1704	-33.603099	0.000547	5.472710	1.854204	-0.000219
1211	1.2039e+02	-8.2121	-33.772659	0.000426	4.256552	1.442159	-0.000170
1212	1.2049e+02	-8.2522	-33.954330	0.000456	4.560592	1.545170	-0.000183
1213	1.2059e+02	-8.2923	-34.140038	0.000466	4.661938	1.579507	-0.000187
1214	1.2069e+02	-8.3276	-34.285375	0.000365	3.648473	1.236136	-0.000146
1215	1.2079e+02	-8.3629	-34.527603	0.000608	6.080789	2.060227	-0.000243
1216	1.2089e+02	-8.4062	-34.705237	0.000446	4.459245	1.510833	-0.000179
1217	1.2099e+02	-8.4383	-34.874797	0.000426	4.256552	1.442159	-0.000170
1218	1.2109e+02	-8.4864	-35.076654	0.000507	5.067324	1.716856	-0.000203
1219	1.2119e+02	-8.5265	-35.230065	0.000385	3.851166	1.304810	-0.000154
1220	1.2129e+02	-8.5698	-35.472293	0.000608	6.080789	2.060227	-0.000243
1221	1.2139e+02	-8.6163	-35.621667	0.000375	3.749820	1.270473	-0.000150
1222	1.2149e+02	-8.6468	-35.807375	0.000466	4.661938	1.579507	-0.000187
1223	1.2159e+02	-8.6917	-35.968861	0.000405	4.053859	1.373485	-0.000162
1224	1.2169e+02	-8.7318	-36.170718	0.000507	5.067324	1.716856	-0.000203
1225	1.2179e+02	-8.7719	-36.364500	0.000486	4.864631	1.648182	-0.000195
1226	1.2189e+02	-8.8088	-36.538097	0.000436	4.357899	1.476496	-0.000174
1227	1.2199e+02	-8.8473	-36.764177	0.000568	5.675403	1.922879	-0.000227
1228	1.2209e+02	-8.8826	-36.933736	0.000426	4.256552	1.442159	-0.000170
1229	1.2219e+02	-8.9340	-37.115407	0.000456	4.560592	1.545170	-0.000183
1230	1.2229e+02	-8.9677	-37.337450	0.000557	5.574057	1.888542	-0.000223
1231	1.2239e+02	-8.9997	-37.507010	0.000426	4.256552	1.442159	-0.000170
1232	1.2248e+02	-9.0463	-37.664458	0.000395	3.952513	1.339148	-0.000158
1233	1.2258e+02	-9.0800	-37.842092	0.000446	4.459245	1.510833	-0.000179
1234	1.2268e+02	-9.1217	-38.043949	0.000507	5.067324	1.716856	-0.000203
1235	1.2278e+02	-9.1666	-38.209471	0.000416	4.155206	1.407822	-0.000166
1236	1.2288e+02	-9.1971	-38.459774	0.000628	6.283482	2.128901	-0.000252
1237	1.2298e+02	-9.2436	-38.564739	0.000264	2.635009	0.892765	-0.000105
1238	1.2308e+02	-9.2789	-38.750447	0.000466	4.661938	1.579507	-0.000187
1239	1.2318e+02	-9.3190	-38.948267	0.000497	4.965978	1.682519	-0.000199
1240	1.2328e+02	-9.3591	-39.162235	0.000537	5.371364	1.819867	-0.000215
1241	1.2338e+02	-9.4024	-39.327758	0.000416	4.155206	1.407822	-0.000166
1242	1.2348e+02	-9.4537	-39.497317	0.000426	4.256552	1.442159	-0.000170
1243	1.2358e+02	-9.4890	-39.683026	0.000466	4.661938	1.579507	-0.000187
1244	1.2368e+02	-9.5275	-39.884883	0.000507	5.067324	1.716856	-0.000203
1245	1.2378e+02	-9.5612	-40.042331	0.000395	3.952513	1.339148	-0.000158
1246	1.2388e+02	-9.6078	-40.228039	0.000466	4.661938	1.579507	-0.000187
1247	1.2398e+02	-9.6495	-40.361265	0.000334	3.344434	1.133125	-0.000134
1248	1.2408e+02	-9.6815	-40.571196	0.000527	5.270017	1.785530	-0.000211
1249	1.2418e+02	-9.7217	-40.756904	0.000466	4.661938	1.579507	-0.000187
1250	1.2428e+02	-9.7618	-40.934538	0.000446	4.459245	1.510833	-0.000179
1251	1.2438e+02	-9.7970	-41.136395	0.000507	5.067324	1.716856	-0.000203
1252	1.2447e+02	-9.8404	-41.269620	0.000334	3.344434	1.133125	-0.000134
1253	1.2457e+02	-9.8805	-41.499737	0.000578	5.776750	1.957216	-0.000231
1254	1.2467e+02	-9.9286	-41.657185	0.000395	3.952513	1.339148	-0.000158
1255	1.2477e+02	-9.9559	-41.834819	0.000446	4.459245	1.510833	-0.000179
1256	1.2487e+02	-9.9976	-42.008416	0.000436	4.357899	1.476496	-0.000174
1257	1.2497e+02	-10.0361	-42.246607	0.000598	5.979443	2.025890	-0.000239
1258	1.2507e+02	-10.0794	-42.387907	0.000355	3.547127	1.201799	-0.000142
1259	1.2517e+02	-10.1211	-42.553429	0.000416	4.155206	1.407822	-0.000166
1260	1.2527e+02	-10.1612	-42.743175	0.000476	4.763285	1.613845	-0.000191
1261	1.2537e+02	-10.1917	-42.912734	0.000426	4.256552	1.442159	-0.000170
1262	1.2547e+02	-10.2382	-43.086331	0.000436	4.357899	1.476496	-0.000174
1263	1.2557e+02	-10.2767	-43.300299	0.000537	5.371364	1.819867	-0.000215
1264	1.2567e+02	-10.3184	-43.477933	0.000446	4.459245	1.510833	-0.000179
1265	1.2577e+02	-10.3633	-43.623270	0.000365	3.648473	1.236136	-0.000146
1266	1.2587e+02	-10.4002	-43.792830	0.000426	4.256552	1.442159	-0.000170
1267	1.2597e+02	-10.4436	-43.998724	0.000517	5.168671	1.751193	-0.000207
1268	1.2607e+02	-10.4772	-44.168284	0.000426	4.256552	1.442159	-0.000170
1269	1.2617e+02	-10.5157	-44.337843	0.000426	4.256552	1.442159	-0.000170
1270	1.2627e+02	-10.5655	-44.555849	0.000547	5.472710	1.854204	-0.000219
1271	1.2636e+02	-10.5992	-44.717334	0.000405	4.053859	1.373485	-0.000162
1272	1.2646e+02	-10.6393	-44.886894	0.000426	4.256552	1.442159	-0.000170
1273	1.2656e+02	-10.6778	-45.084713	0.000497	4.965978	1.682519	-0.000199
1274	1.2666e+02	-10.7211	-45.266384	0.000456	4.560592	1.545170	-0.000183
1275	1.2676e+02	-10.7580	-45.448056	0.000456	4.560592	1.545170	-0.000183
1276	1.2686e+02	-10.8013	-45.609541	0.000405	4.053859	1.373485	-0.000162
1277	1.2696e+02	-10.8382	-45.799286	0.000476	4.763285	1.613845	-0.000191
1278	1.2706e+02	-10.8783	-45.956735	0.000395	3.952513	1.339148	-0.000158
1279	1.2716e+02	-10.9136	-46.142443	0.000466	4.661938	1.579507	-0.000187
1280	1.2726e+02	-10.9569	-46.332188	0.000476	4.763285	1.613845	-0.000191
1281	1.2736e+02	-11.0050	-46.489637	0.000395	3.952513	1.339148	-0.000158
1282	1.2746e+02	-11.0403	-46.667271	0.000446	4.459245	1.510833	-0.000179
1283	1.2756e+02	-11.0708	-46.852979	0.000466	4.661938	1.579507	-0.000187
1284	1.2766e+02	-11.1205	-47.018501	0.000416	4.155206	1.407822	-0.000166
1285	1.2776e+02	-11.1590	-47.200172	0.000456	4.560592	1.545170	-0.000183
1286	1.2786e+02	-11.1975	-47.397992	0.000497	4.965978	1.682519	-0.000199
1287	1.2796e+02	-11.2328	-47.567552	0.000426	4.256552	1.442159	-0.000170
1288	1.2806e+02	-11.2778	-47.757297	0.000476	4.763285	1.613845	-0.000191
1289	1.2816e+02	-11.3195	-47.959154	0.000507	5.067324	1.716856	-0.000203
1290	1.2826e+02	-11.3516	-48.120639	0.000405	4.053859	1.373485	-0.000162
1291	1.2835e+02	-11.3981	-48.282125	0.000405	4.053859	1.373485	-0.000162
1292	1.2845e+02	-11.4286	-48.403239	0.000304	3.040395	1.030114	-0.000122
1293	1.2855e+02	-11.4799	-48.617207	0.000537	5.371364	1.819867	-0.000215
1294	1.2865e+02	-11.5184	-48.790804	0.000436	4.357899	1.476496	-0.000174
1295	1.2875e+02	-11.5617	-48.960364	0.000426	4.256552	1.442159	-0.000170
1296	1.2885e+02	-11.5986	-49.137998	0.000446	4.459245	1.510833	-0.000179
1297	1.2895e+02	-11.6339	-49.339854	0.000507	5.067324	1.716856	-0.000203
1298	1.2905e+02	-11.6660	-49.501340	0.000405	4.053859	1.373485	-0.000162
1299	1.2915e+02	-11.7157	-49.670900	0.000426	4.256552	1.442159	-0.000170
1300	1.2925e+02	-11.7510	-49.856608	0.000466	4.661938	1.579507	-0.000187
1301	1.2935e+02	-11.7863	-50.038279	0.000456	4.560592	1.545170	-0.000183
1302	1.2945e+02	-11.8376	-50.183616	0.000365	3.648473	1.236136	-0.000146
1303	1.2955e+02	-11.8793	-50.345101	0.000405	4.053859	1.373485	-0.000162
1304	1.2965e+02	-11.9211	-50.542921	0.000497	4.965978	1.682519	-0.000199
1305	1.2975e+02	-11.9467	-50.720555	0.000446	4.459245	1.510833	-0.000179
1306	1.2985e+02	-11.9820	-50.878003	0.000395	3.952513	1.339148	-0.000158
1307	1.2995e+02	-12.0334	-51.055637	0.000446	4.459245	1.510833	-0.000179
1308	1.3005e+02	-12.0686	-51.192900	0.000345	3.445780	1.167462	-0.000138
1309	1.3015e+02	-12.1152	-51.370534	0.000446	4.459245	1.510833	-0.000179
1310	1.3025e+02	-12.1553	-51.548168	0.000446	4.459245	1.510833	-0.000179
1311	1.3034e+02	-12.1858	-51.766173	0.000547	5.472710	1.854204	-0.000219
1312	1.3044e+02	-12.2371	-51.879213	0.000284	2.837702	0.961439	-0.000114
1313	1.3054e+02	-12.2676	-52.056847	0.000446	4.459245	1.510833	-0.000179
1314	1.3064e+02	-12.3093	-52.246592	0.000476	4.763285	1.613845	-0.000191
1315	1.3074e+02	-12.3526	-52.404040	0.000395	3.952513	1.339148	-0.000158
1316	1.3084e+02	-12.3975	-52.593786	0.000476	4.763285	1.613845	-0.000191
1317	1.3094e+02	-12.4328	-52.743160	0.000375	3.749820	1.270473	-0.000150
1318	1.3104e+02	-12.4697	-52.892534	0.000375	3.749820	1.270473	-0.000150
1319	1.3114e+02	-12.5018	-53.086316	0.000486	4.864631	1.648182	-0.000195
1320	1.3124e+02	-12.5451	-53.251839	0.000416	4.155206	1.407822	-0.000166
1321	1.3134e+02	-12.5916	-53.433510	0.000456	4.560592	1.545170	-0.000183
1322	1.3144e+02	-12.6333	-53.599033	0.000416	4.155206	1.407822	-0.000166
1323	1.3154e+02	-12.6718	-53.748407	0.000375	3.749820	1.270473	-0.000150
1324	1.3164e+02	-12.7087	-53.897781	0.000375	3.749820	1.270473	-0.000150
1325	1.3174e+02	-12.7553	-54.107712	0.000527	5.270017	1.785530	-0.000211
1326	1.3184e+02	-12.7905	-54.281309	0.000436	4.357899	1.476496	-0.000174
1327	1.3194e+02	-12.8339	-54.462980	0.000456	4.560592	1.545170	-0.000183
1328	1.3204e+02	-12.8740	-54.624465	0.000405	4.053859	1.373485	-0.000162
1329	1.3214e+02	-12.9061	-54.753653	0.000324	3.243087	1.098788	-0.000130
1330	1.3224e+02	-12.9462	-54.890916	0.000345	3.445780	1.167462	-0.000138
1331	1.3234e+02	-12.9895	-55.096810	0.000517	5.168671	1.751193	-0.000207
1332	1.3243e+02	-13.0312	-55.254258	0.000395	3.952513	1.339148	-0.000158
1333	1.3253e+02	-13.0697	-55.383447	0.000324	3.243087	1.098788	-0.000130
1334	1.3263e+02	-13.1082	-55.569155	0.000466	4.661938	1.579507	-0.000187
1335	1.3273e+02	-13.1531	-55.734677	0.000416	4.155206	1.407822	-0.000166
1336	1.3283e+02	-13.1868	-55.932497	0.000497	4.965978	1.682519	-0.000199
1337	1.3293e+02	-13.2333	-56.073797	0.000355	3.547127	1.201799	-0.000142
1338	1.3303e+02	-13.2654	-56.235282	0.000405	4.053859	1.373485	-0.000162
1339	1.3313e+02	-13.3119	-56.392731	0.000395	3.952513	1.339148	-0.000158
1340	1.3323e+02	-13.3520	-56.598624	0.000517	5.168671	1.751193	-0.000207
1341	1.3333e+02	-13.3921	-56.743961	0.000365	3.648473	1.236136	-0.000146
1342	1.3343e+02	-13.4258	-56.885261	0.000355	3.547127	1.201799	-0.000142
1343	1.3353e+02	-13.4643	-57.099229	0.000537	5.371364	1.819867	-0.000215
1344	1.3363e+02	-13.5076	-57.248603	0.000375	3.749820	1.270473	-0.000150
1345	1.3373e+02	-13.5510	-57.422200	0.000436	4.357899	1.476496	-0.000174
1346	1.3383e+02	-13.5862	-57.523129	0.000253	2.533662	0.858428	-0.000101
1347	1.3393e+02	-13.6231	-57.749208	0.000568	5.675403	1.922879	-0.000227
1348	1.3403e+02	-13.6649	-57.886471	0.000345	3.445780	1.167462	-0.000138
1349	1.3413e+02	-13.7114	-58.051993	0.000416	4.155206	1.407822	-0.000166
1350	1.3423e+02	-13.7435	-58.205405	0.000385	3.851166	1.304810	-0.000154
1351	1.3432e+02	-13.7884	-58.379001	0.000436	4.357899	1.476496	-0.000174
1352	1.3442e+02	-13.8285	-58.536450	0.000395	3.952513	1.339148	-0.000158
1353	1.3452e+02	-13.8686	-58.681787	0.000365	3.648473	1.236136	-0.000146
1354	1.3462e+02	-13.9023	-58.851346	0.000426	4.256552	1.442159	-0.000170
1355	1.3472e+02	-13.9408	-59.041092	0.000476	4.763285	1.613845	-0.000191
1356	1.3482e+02	-13.9841	-59.137983	0.000243	2.432316	0.824091	-0.000097
1357	1.3492e+02	-14.0242	-59.319654	0.000456	4.560592	1.545170	-0.000183
1358	1.3502e+02	-14.0643	-59.509399	0.000476	4.763285	1.613845	-0.000191
1359	1.3512e+02	-14.0980	-59.654736	0.000365	3.648473	1.236136	-0.000146
1360	1.3522e+02	-14.1493	-59.848519	0.000486	4.864631	1.648182	-0.000195
1361	1.3532e+02	-14.1830	-59.993856	0.000365	3.648473	1.236136	-0.000146
1362	1.3542e+02	-14.2247	-60.131118	0.000345	3.445780	1.167462	-0.000138
1363	1.3552e+02	-14.2584	-60.320864	0.000476	4.763285	1.613845	-0.000191
1364	1.3562e+02	-14.3033	-60.478312	0.000395	3.952513	1.339148	-0.000158
1365	1.3572e+02	-14.3434	-60.615575	0.000345	3.445780	1.167462	-0.000138
1366	1.3582e+02	-14.3819	-60.793209	0.000446	4.459245	1.510833	-0.000179
1367	1.3592e+02	-14.4124	-60.930471	0.000345	3.445780	1.167462	-0.000138
1368	1.3602e+02	-14.4590	-61.112142	0.000456	4.560592	1.545170	-0.000183
1369	1.3612e+02	-14.5023	-61.229219	0.000294	2.939048	0.995776	-0.000118
1370	1.3622e+02	-14.5440	-61.414927	0.000466	4.661938	1.579507	-0.000187
1371	1.3631e+02	-14.5857	-61.588524	0.000436	4.357899	1.476496	-0.000174
1372	1.3641e+02	-14.6338	-61.758084	0.000426	4.256552	1.442159	-0.000170
1373	1.3651e+02	-14.6563	-61.883235	0.000314	3.141741	1.064451	-0.000126
1374	1.3661e+02	-14.7028	-62.064906	0.000456	4.560592	1.545170	-0.000183
1375	1.3671e+02	-14.7493	-62.230429	0.000416	4.155206	1.407822	-0.000166
1376	1.3681e+02	-14.7830	-62.375766	0.000365	3.648473	1.236136	-0.000146
1377	1.3691e+02	-14.8183	-62.573585	0.000497	4.965978	1.682519	-0.000199
1378	1.3701e+02	-14.8680	-62.702774	0.000324	3.243087	1.098788	-0.000130
1379	1.3711e+02	-14.9017	-62.864259	0.000405	4.053859	1.373485	-0.000162
1380	1.3721e+02	-14.9418	-62.989410	0.000314	3.141741	1.064451	-0.000126
1381	1.3731e+02	-14.9723	-63.179156	0.000476	4.763285	1.613845	-0.000191
1382	1.3741e+02	-15.0172	-63.340641	0.000405	4.053859	1.373485	-0.000162
1383	1.3751e+02	-15.0589	-63.506164	0.000416	4.155206	1.407822	-0.000166
1384	1.3761e+02	-15.1006	-63.712058	0.000517	5.168671	1.751193	-0.000207
1385	1.3771e+02	-15.1327	-63.817023	0.000264	2.635009	0.892765	-0.000105
1386	1.3781e+02	-15.1825	-63.970434	0.000385	3.851166	1.304810	-0.000154
1387	1.3791e+02	-15.2178	-64.160180	0.000476	4.763285	1.613845	-0.000191
1388	1.3801e+02	-15.2579	-64.325702	0.000416	4.155206	1.407822	-0.000166
1389	1.3811e+02	-15.2948	-64.507373	0.000456	4.560592	1.545170	-0.000183
1390	1.3821e+02	-15.3365	-64.640599	0.000334	3.344434	1.133125	-0.000134
1391	1.3831e+02	-15.3862	-64.765750	0.000314	3.141741	1.064451	-0.000126
1392	1.3840e+02	-15.4215	-64.971644	0.000517	5.168671	1.751193	-0.000207
1393	1.3850e+02	-15.4552	-65.112944	0.000355	3.547127	1.201799	-0.000142
1394	1.3860e+02	-15.4921	-65.314801	0.000507	5.067324	1.716856	-0.000203
1395	1.3870e+02	-15.5386	-65.468212	0.000385	3.851166	1.304810	-0.000154
1396	1.3880e+02	-15.5819	-65.629697	0.000405	4.053859	1.373485	-0.000162
1397	1.3890e+02	-15.6172	-65.754848	0.000314	3.141741	1.064451	-0.000126
1398	1.3900e+02	-15.6573	-65.944594	0.000476	4.763285	1.613845	-0.000191
1399	1.3910e+02	-15.7006	-66.118191	0.000436	4.357899	1.476496	-0.000174
1400	1.3920e+02	-15.7407	-66.275639	0.000395	3.952513	1.339148	-0.000158
1401	1.3930e+02	-15.7840	-66.420976	0.000365	3.648473	1.236136	-0.000146
1402	1.3940e+02	-15.8113	-66.610721	0.000476	4.763285	1.613845	-0.000191
1403	1.3950e+02	-15.8578	-66.780281	0.000426	4.256552	1.442159	-0.000170
1404	1.3960e+02	-15.9060	-66.901395	0.000304	3.040395	1.030114	-0.000122
1405	1.3970e+02	-15.9332	-67.127474	0.000568	5.675403	1.922879	-0.000227
1406	1.3980e+02	-15.9782	-67.256663	0.000324	3.243087	1.098788	-0.000130
1407	1.3990e+02	-16.0167	-67.426223	0.000426	4.256552	1.442159	-0.000170
1408	1.4000e+02	-16.0536	-67.543299	0.000294	2.939048	0.995776	-0.000118
1409	1.4010e+02	-16.1049	-67.712859	0.000426	4.256552	1.442159	-0.000170
1410	1.4020e+02	-16.1402	-67.906642	0.000486	4.864631	1.648182	-0.000195
1411	1.4029e+02	-16.1819	-68.080239	0.000436	4.357899	1.476496	-0.000174
1412	1.4039e+02	-16.2092	-68.217501	0.000345	3.445780	1.167462	-0.000138
1413	1.4049e+02	-16.2573	-68.395135	0.000446	4.459245	1.510833	-0.000179
1414	1.4059e+02	-16.3038	-68.544509	0.000375	3.749820	1.270473	-0.000150
1415	1.4069e+02	-16.3327	-68.689846	0.000365	3.648473	1.236136	-0.000146
1416	1.4079e+02	-16.3744	-68.851331	0.000405	4.053859	1.373485	-0.000162
1417	1.4089e+02	-16.4209	-69.057225	0.000517	5.168671	1.751193	-0.000207
1418	1.4099e+02	-16.4594	-69.234859	0.000446	4.459245	1.510833	-0.000179
1419	1.4109e+02	-16.4963	-69.380196	0.000365	3.648473	1.236136	-0.000146
1420	1.4119e+02	-16.5316	-69.501310	0.000304	3.040395	1.030114	-0.000122
1421	1.4129e+02	-16.5685	-69.715278	0.000537	5.371364	1.819867	-0.000215
1422	1.4139e+02	-16.6118	-69.864653	0.000375	3.749820	1.270473	-0.000150
1423	1.4149e+02	-16.6471	-70.001915	0.000345	3.445780	1.167462	-0.000138
1424	1.4159e+02	-16.6920	-70.187623	0.000466	4.661938	1.579507	-0.000187
1425	1.4169e+02	-16.7370	-70.381406	0.000486	4.864631	1.648182	-0.000195
1426	1.4179e+02	-16.7787	-70.506557	0.000314	3.141741	1.064451	-0.000126
1427	1.4189e+02	-16.8059	-70.696302	0.000476	4.763285	1.613845	-0.000191
1428	1.4199e+02	-16.8493	-70.894122	0.000497	4.965978	1.682519	-0.000199
1429	1.4209e+02	-16.8926	-71.059645	0.000416	4.155206	1.407822	-0.000166
1430	1.4219e+02	-16.9311	-71.164610	0.000264	2.635009	0.892765	-0.000105
1431	1.4228e+02	-16.9744	-71.350318	0.000466	4.661938	1.579507	-0.000187
1432	1.4238e+02	-17.0145	-71.499692	0.000375	3.749820	1.270473	-0.000150
1433	1.4248e+02	-17.0514	-71.661178	0.000405	4.053859	1.373485	-0.000162
1434	1.4258e+02	-17.0931	-71.854960	0.000486	4.864631	1.648182	-0.000195
1435	1.4268e+02	-17.1380	-71.996260	0.000355	3.547127	1.201799	-0.000142
1436	1.4278e+02	-17.1749	-72.153708	0.000395	3.952513	1.339148	-0.000158
1437	1.4288e+02	-17.2134	-72.339417	0.000466	4.661938	1.579507	-0.000187
1438	1.4298e+02	-17.2583	-72.525125	0.000466	4.661938	1.579507	-0.000187
1439	1.4308e+02	-17.2968	-72.710833	0.000466	4.661938	1.579507	-0.000187
1440	1.4318e+02	-17.3257	-72.876356	0.000416	4.155206	1.407822	-0.000166
1441	1.4328e+02	-17.3787	-73.025730	0.000375	3.749820	1.270473	-0.000150
1442	1.4338e+02	-17.4091	-73.207401	0.000456	4.560592	1.545170	-0.000183
1443	1.4348e+02	-17.4524	-73.360812	0.000385	3.851166	1.304810	-0.000154
1444	1.4358e+02	-17.4942	-73.522297	0.000405	4.053859	1.373485	-0.000162
1445	1.4368e+02	-17.5375	-73.716080	0.000486	4.864631	1.648182	-0.000195
1446	1.4378e+02	-17.5696	-73.853343	0.000345	3.445780	1.167462	-0.000138
1447	1.4388e+02	-17.6081	-74.010791	0.000395	3.952513	1.339148	-0.000158
1448	1.4398e+02	-17.6578	-74.216685	0.000517	5.168671	1.751193	-0.000207
1449	1.4408e+02	-17.6947	-74.414504	0.000497	4.965978	1.682519	-0.000199
1450	1.4418e+02	-17.7268	-74.575990	0.000405	4.053859	1.373485	-0.000162
1451	1.4428e+02	-17.7621	-74.701141	0.000314	3.141741	1.064451	-0.000126
1452	1.4437e+02	-17.8070	-74.870701	0.000426	4.256552	1.442159	-0.000170
1453	1.4447e+02	-17.8551	-75.068520	0.000497	4.965978	1.682519	-0.000199
1454	1.4457e+02	-17.8904	-75.221932	0.000385	3.851166	1.304810	-0.000154
1455	1.4467e+02	-17.9289	-75.399566	0.000446	4.459245	1.510833	-0.000179
1456	1.4477e+02	-17.9754	-75.565088	0.000416	4.155206	1.407822	-0.000166
1457	1.4487e+02	-18.0043	-75.734648	0.000426	4.256552	1.442159	-0.000170
1458	1.4497e+02	-18.0556	-75.888059	0.000385	3.851166	1.304810	-0.000154
1459	1.4507e+02	-18.0925	-76.053582	0.000416	4.155206	1.407822	-0.000166
1460	1.4517e+02	-18.1214	-76.239290	0.000466	4.661938	1.579507	-0.000187
1461	1.4527e+02	-18.1647	-76.416924	0.000446	4.459245	1.510833	-0.000179
1462	1.4537e+02	-18.2080	-76.622818	0.000517	5.168671	1.751193	-0.000207
1463	1.4547e+02	-18.2465	-76.784303	0.000405	4.053859	1.373485	-0.000162
1464	1.4557e+02	-18.2899	-76.909454	0.000314	3.141741	1.064451	-0.000126
1465	1.4567e+02	-18.3252	-77.074977	0.000416	4.155206	1.407822	-0.000166
1466	1.4577e+02	-18.3685	-77.260685	0.000466	4.661938	1.579507	-0.000187
1467	1.4587e+02	-18.4054	-77.450431	0.000476	4.763285	1.613845	-0.000191
1468	1.4597e+02	-18.4503	-77.591730	0.000355	3.547127	1.201799	-0.000142
1469	1.4607e+02	-18.4936	-77.761290	0.000426	4.256552	1.442159	-0.000170
1470	1.4617e+02	-18.5353	-77.934887	0.000436	4.357899	1.476496	-0.000174
1471	1.4626e+02	-18.5690	-78.144818	0.000527	5.270017	1.785530	-0.000211
1472	1.4636e+02	-18.6123	-78.302266	0.000395	3.952513	1.339148	-0.000158
1473	1.4646e+02	-18.6412	-78.443566	0.000355	3.547127	1.201799	-0.000142
1474	1.4656e+02	-18.6973	-78.617163	0.000436	4.357899	1.476496	-0.000174
1475	1.4666e+02	-18.7294	-78.819020	0.000507	5.067324	1.716856	-0.000203
1476	1.4676e+02	-18.7615	-78.972431	0.000385	3.851166	1.304810	-0.000154
1477	1.4686e+02	-18.7968	-79.166213	0.000486	4.864631	1.648182	-0.000195
1478	1.4696e+02	-18.8481	-79.351921	0.000466	4.661938	1.579507	-0.000187
1479	1.4706e+02	-18.8850	-79.473036	0.000304	3.040395	1.030114	-0.000122
1480	1.4716e+02	-18.9235	-79.682967	0.000527	5.270017	1.785530	-0.000211
1481	1.4726e+02	-18.9701	-79.856563	0.000436	4.357899	1.476496	-0.000174
1482	1.4736e+02	-19.0070	-80.022086	0.000416	4.155206	1.407822	-0.000166
1483	1.4746e+02	-19.0471	-80.171460	0.000375	3.749820	1.270473	-0.000150
1484	1.4756e+02	-19.0775	-80.345057	0.000436	4.357899	1.476496	-0.000174
1485	1.4766e+02	-19.1273	-80.546914	0.000507	5.067324	1.716856	-0.000203
1486	1.4776e+02	-19.1674	-80.716473	0.000426	4.256552	1.442159	-0.000170
1487	1.4786e+02	-19.2043	-80.902182	0.000466	4.661938	1.579507	-0.000187
1488	1.4796e+02	-19.2476	-81.075778	0.000436	4.357899	1.476496	-0.000174
1489	1.4806e+02	-19.2797	-81.225152	0.000375	3.749820	1.270473	-0.000150
1490	1.4816e+02	-19.3326	-81.455269	0.000578	5.776750	1.957216	-0.000231
1491	1.4825e+02	-19.3663	-81.564272	0.000274	2.736355	0.927102	-0.000110
1492	1.4835e+02	-19.4064	-81.754017	0.000476	4.763285	1.613845	-0.000191
1493	1.4845e+02	-19.4497	-81.907428	0.000385	3.851166	1.304810	-0.000154
1494	1.4855e+02	-19.4802	-82.105248	0.000497	4.965978	1.682519	-0.000199
1495	1.4865e+02	-19.5251	-82.311142	0.000517	5.168671	1.751193	-0.000207
1496	1.4875e+02	-19.5652	-82.480702	0.000426	4.256552	1.442159	-0.000170
1497	1.4885e+02	-19.6101	-82.622001	0.000355	3.547127	1.201799	-0.000142
1498	1.4895e+02	-19.6342	-82.775413	0.000385	3.851166	1.304810	-0.000154
1499	1.4905e+02	-19.6855	-82.973232	0.000497	4.965978	1.682519	-0.000199
1500	1.4915e+02	-19.7192	-83.175089	0.000507	5.067324	1.716856	-0.000203
1501	1.4925e+02	-19.7577	-83.372909	0.000497	4.965978	1.682519	-0.000199
1502	1.4935e+02	-19.8026	-83.538431	0.000416	4.155206	1.407822	-0.000166
1503	1.4945e+02	-19.8331	-83.720102	0.000456	4.560592	1.545170	-0.000183
1504	1.4955e+02	-19.8780	-83.869476	0.000375	3.749820	1.270473	-0.000150
1505	1.4965e+02	-19.9149	-84.075370	0.000517	5.168671	1.751193	-0.000207
1506	1.4975e+02	-19.9663	-84.285301	0.000527	5.270017	1.785530	-0.000211
1507	1.4985e+02	-20.0016	-84.442750	0.000395	3.952513	1.339148	-0.000158
1508	1.4995e+02	-19.9615	-84.454861	-0.000030	-0.304039	-0.103011	-0.000012
1509	1.5005e+02	-19.9166	-84.503307	-0.000122	-1.216158	-0.412045	-0.000049
1510	1.5015e+02	-19.8764	-84.483121	0.000051	0.506732	0.171686	0.000020
1511	1.5025e+02	-19.8412	-84.450824	0.000081	0.810772	0.274697	0.000032
1512	1.5034e+02	-19.8155	-84.527530	-0.000193	-1.925583	-0.652405	-0.000077
1513	1.5044e+02	-19.7545	-84.483121	0.000111	1.114811	0.377708	0.000045
1514	1.5054e+02	-19.7208	-84.483121	0.000000	0.000000	0.000000	0.000000
1515	1.5064e+02	-19.6855	-84.466972	0.000041	0.405386	0.137348	0.000016
1516	1.5074e+02	-19.6422	-84.479084	-0.000030	-0.304039	-0.103011	-0.000012
1517	1.5084e+02	-19.5941	-84.410453	0.000172	1.722890	0.583731	0.000069
1518	1.5094e+02	-19.5604	-84.398341	0.000030	0.304039	0.103011	0.000012
1519	1.5104e+02	-19.5267	-84.366044	0.000081	0.810772	0.274697	0.000032
1520	1.5114e+02	-19.4658	-84.305487	0.000152	1.520197	0.515057	0.000061
1521	1.5124e+02	-19.4401	-84.285301	0.000051	0.506732	0.171686	0.000020
1522	1.5134e+02	-19.3920	-84.248967	0.000091	0.912118	0.309034	0.000037
1523	1.5144e+02	-19.3679	-84.208596	0.000101	1.013465	0.343371	0.000041
1524	1.5154e+02	-19.3230	-84.192447	0.000041	0.405386	0.137348	0.000016
1525	1.5164e+02	-19.2845	-84.160150	0.000081	0.810772	0.274697	0.000032
1526	1.5174e+02	-19.2444	-84.123816	0.000091	0.912118	0.309034	0.000037
1527	1.5184e+02	-19.2059	-84.063259	0.000152	1.520197	0.515057	0.000061
1528	1.5194e+02	-19.1561	-84.030962	0.000081	0.810772	0.274697	0.000032
1529	1.5204e+02	-19.1192	-83.970405	0.000152	1.520197	0.515057	0.000061
1530	1.5214e+02	-19.0840	-83.930033	0.000101	1.013465	0.343371	0.000041
1531	1.5224e+02	-19.0519	-83.877551	0.000132	1.317504	0.446383	0.000053
1532	1.5233e+02	-19.0086	-83.849291	0.000071	0.709425	0.240360	0.000028
1533	1.5243e+02	-18.9684	-83.756437	0.000233	2.330969	0.789754	0.000093
1534	1.5253e+02	-18.9316	-83.703954	0.000132	1.317504	0.446383	0.000053
1535	1.5263e+02	-18.8802	-83.667620	0.000091	0.912118	0.309034	0.000037
1536	1.5273e+02	-18.8433	-83.651471	0.000041	0.405386	0.137348	0.000016
1537	1.5283e+02	-18.8193	-83.578803	0.000182	1.824237	0.618068	0.000073
1538	1.5293e+02	-18.7711	-83.530357	0.000122	1.216158	0.412045	0.000049
1539	1.5303e+02	-18.7326	-83.409243	0.000304	3.040395	1.030114	0.000122
1540	1.5313e+02	-18.6861	-83.380983	0.000071	0.709425	0.240360	0.000028
1541	1.5323e+02	-18.6428	-83.340612	0.000101	1.013465	0.343371	0.000041
1542	1.5333e+02	-18.6027	-83.276017	0.000162	1.621544	0.549394	0.000065
1543	1.5343e+02	-18.5706	-83.167015	0.000274	2.736355	0.927102	0.000110
1544	1.5353e+02	-18.5401	-83.122606	0.000111	1.114811	0.377708	0.000045
1545	1.5363e+02	-18.4920	-83.106458	0.000041	0.405386	0.137348	0.000016
1546	1.5373e+02	-18.4455	-83.021678	0.000213	2.128276	0.721079	0.000085
1547	1.5383e+02	-18.4054	-82.884415	0.000345	3.445780	1.167462	0.000138
1548	1.5393e+02	-18.3637	-82.868267	0.000041	0.405386	0.137348	0.000016
1549	1.5403e+02	-18.3203	-82.799635	0.000172	1.722890	0.583731	0.000069
1550	1.5413e+02	-18.2899	-82.763301	0.000091	0.912118	0.309034	0.000037
1551	1.5422e+02	-18.2481	-82.670447	0.000233	2.330969	0.789754	0.000093
1552	1.5432e+02	-18.2161	-82.630076	0.000101	1.013465	0.343371	0.000041
1553	1.5442e+02	-18.1711	-82.521073	0.000274	2.736355	0.927102	0.000110
1554	1.5452e+02	-18.1310	-82.440330	0.000203	2.026930	0.686742	0.000081
1555	1.5462e+02	-18.0893	-82.387848	0.000132	1.317504	0.446383	0.000053
1556	1.5472e+02	-18.0492	-82.343439	0.000111	1.114811	0.377708	0.000045
1557	1.5482e+02	-18.0123	-82.258659	0.000213	2.128276	0.721079	0.000085
1558	1.5492e+02	-17.9690	-82.169842	0.000223	2.229623	0.755417	0.000089
1559	1.5502e+02	-17.9353	-82.097174	0.000182	1.824237	0.618068	0.000073
1560	1.5512e+02	-17.8888	-82.020468	0.000193	1.925583	0.652405	0.000077
1561	1.5522e+02	-17.8519	-81.972023	0.000122	1.216158	0.412045	0.000049
1562	1.5532e+02	-17.8054	-81.883206	0.000223	2.229623	0.755417	0.000089
1563	1.5542e+02	-17.7733	-81.858983	0.000061	0.608079	0.206023	0.000024
1564	1.5552e+02	-17.7252	-81.733832	0.000314	3.141741	1.064451	0.000126
1565	1.5562e+02	-17.6851	-81.657126	0.000193	1.925583	0.652405	0.000077
1566	1.5572e+02	-17.6450	-81.576383	0.000203	2.026930	0.686742	0.000081
1567	1.5582e+02	-17.6097	-81.495641	0.000203	2.026930	0.686742	0.000081
1568	1.5592e+02	-17.5696	-81.463343	0.000081	0.810772	0.274697	0.000032
1569	1.5602e+02	-17.5375	-81.394712	0.000172	1.722890	0.583731	0.000069
1570	1.5612e+02	-17.4877	-81.277635	0.000294	2.939048	0.995776	0.000118
1571	1.5622e+02	-17.4492	-81.229190	0.000122	1.216158	0.412045	0.000049
1572	1.5631e+02	-17.4123	-81.120187	0.000274	2.736355	0.927102	0.000110
1573	1.5641e+02	-17.3706	-81.059630	0.000152	1.520197	0.515057	0.000061
1574	1.5651e+02	-17.3305	-80.946590	0.000284	2.837702	0.961439	0.000114
1575	1.5661e+02	-17.2952	-80.845662	0.000253	2.533662	0.858428	0.000101
1576	1.5671e+02	-17.2487	-80.833550	0.000030	0.304039	0.103011	0.000012
1577	1.5681e+02	-17.2038	-80.748770	0.000213	2.128276	0.721079	0.000085
1578	1.5691e+02	-17.1685	-80.651879	0.000243	2.432316	0.824091	0.000097
1579	1.5701e+02	-17.1348	-80.559025	0.000233	2.330969	0.789754	0.000093
1580	1.5711e+02	-17.0963	-80.494431	0.000162	1.621544	0.549394	0.000065
1581	1.5721e+02	-17.0546	-80.401577	0.000233	2.330969	0.789754	0.000093
1582	1.5731e+02	-17.0209	-80.336983	0.000162	1.621544	0.549394	0.000065
1583	1.5741e+02	-16.9728	-80.211831	0.000314	3.141741	1.064451	0.000126
1584	1.5751e+02	-16.9343	-80.118977	0.000233	2.330969	0.789754	0.000093
1585	1.5761e+02	-16.8926	-80.078606	0.000101	1.013465	0.343371	0.000041
1586	1.5771e+02	-16.8509	-80.014012	0.000162	1.621544	0.549394	0.000065
1587	1.5781e+02	-16.8172	-79.945380	0.000172	1.722890	0.583731	0.000069
1588	1.5791e+02	-16.7771	-79.820229	0.000314	3.141741	1.064451	0.000126
1589	1.5801e+02	-16.7354	-79.735449	0.000213	2.128276	0.721079	0.000085
1590	1.5811e+02	-16.6985	-79.658744	0.000193	1.925583	0.652405	0.000077
1591	1.5821e+02	-16.6567	-79.573964	0.000213	2.128276	0.721079	0.000085
1592	1.5830e+02	-16.6199	-79.481110	0.000233	2.330969	0.789754	0.000093
1593	1.5840e+02	-16.5733	-79.376144	0.000264	2.635009	0.892765	0.000105
1594	1.5850e+02	-16.5428	-79.279253	0.000243	2.432316	0.824091	0.000097
1595	1.5860e+02	-16.4915	-79.226770	0.000132	1.317504	0.446383	0.000053
1596	1.5870e+02	-16.4594	-79.125842	0.000253	2.533662	0.858428	0.000101
1597	1.5880e+02	-16.4129	-79.077396	0.000122	1.216158	0.412045	0.000049
1598	1.5890e+02	-16.3728	-78.952245	0.000314	3.141741	1.064451	0.000126
1599	1.5900e+02	-16.3407	-78.887651	0.000162	1.621544	0.549394	0.000065
1600	1.5910e+02	-16.2958	-78.774611	0.000284	2.837702	0.961439	0.000114
1601	1.5920e+02	-16.2605	-78.714054	0.000152	1.520197	0.515057	0.000061
1602	1.5930e+02	-16.2140	-78.613126	0.000253	2.533662	0.858428	0.000101
1603	1.5940e+02	-16.1707	-78.516234	0.000243	2.432316	0.824091	0.000097
1604	1.5950e+02	-16.1386	-78.431455	0.000213	2.128276	0.721079	0.000085
1605	1.5960e+02	-16.0905	-78.338600	0.000233	2.330969	0.789754	0.000093
1606	1.5970e+02	-16.0616	-78.282081	0.000142	1.418851	0.480720	0.000057
1607	1.5980e+02	-16.0151	-78.181152	0.000253	2.533662	0.858428	0.000101
1608	1.5990e+02	-15.9782	-78.076187	0.000264	2.635009	0.892765	0.000105
1609	1.6000e+02	-15.9461	-77.991407	0.000213	2.128276	0.721079	0.000085
1610	1.6010e+02	-15.8996	-77.878367	0.000284	2.837702	0.961439	0.000114
1611	1.6019e+02	-15.8546	-77.769364	0.000274	2.736355	0.927102	0.000110
1612	1.6029e+02	-15.8209	-77.716882	0.000132	1.317504	0.446383	0.000053
1613	1.6039e+02	-15.7792	-77.607879	0.000274	2.736355	0.927102	0.000110
1614	1.6049e+02	-15.7327	-77.543285	0.000162	1.621544	0.549394	0.000065
1615	1.6059e+02	-15.7006	-77.450431	0.000233	2.330969	0.789754	0.000093
1616	1.6069e+02	-15.6525	-77.377762	0.000182	1.824237	0.618068	0.000073
1617	1.6079e+02	-15.6252	-77.280871	0.000243	2.432316	0.824091	0.000097
1618	1.6089e+02	-15.5883	-77.159757	0.000304	3.040395	1.030114	0.000122
1619	1.6099e+02	-15.5434	-77.083051	0.000193	1.925583	0.652405	0.000077
1620	1.6109e+02	-15.4953	-76.965974	0.000294	2.939048	0.995776	0.000118
1621	1.6119e+02	-15.4632	-76.901380	0.000162	1.621544	0.549394	0.000065
1622	1.6129e+02	-15.4231	-76.776229	0.000314	3.141741	1.064451	0.000126
1623	1.6139e+02	-15.3734	-76.699523	0.000193	1.925583	0.652405	0.000077
1624	1.6149e+02	-15.3429	-76.598595	0.000253	2.533662	0.858428	0.000101
1625	1.6159e+02	-15.2980	-76.485555	0.000284	2.837702	0.961439	0.000114
1626	1.6169e+02	-15.2627	-76.388664	0.000243	2.432316	0.824091	0.000097
1627	1.6179e+02	-15.2258	-76.307921	0.000203	2.026930	0.686742	0.000081
1628	1.6189e+02	-15.1793	-76.206993	0.000253	2.533662	0.858428	0.000101
1629	1.6199e+02	-15.1440	-76.146436	0.000152	1.520197	0.515057	0.000061
1630	1.6209e+02	-15.1022	-75.997062	0.000375	3.749820	1.270473	0.000150
1631	1.6219e+02	-15.0557	-75.920356	0.000193	1.925583	0.652405	0.000077
1632	1.6228e+02	-15.0172	-75.815391	0.000264	2.635009	0.892765	0.000105
1633	1.6238e+02	-14.9883	-75.742722	0.000182	1.824237	0.618068	0.000073
1634	1.6248e+02	-14.9418	-75.609497	0.000334	3.344434	1.133125	0.000134
1635	1.6258e+02	-14.8937	-75.536828	0.000182	1.824237	0.618068	0.000073
1636	1.6268e+02	-14.8680	-75.464160	0.000182	1.824237	0.618068	0.000073
1637	1.6278e+02	-14.8215	-75.318823	0.000365	3.648473	1.236136	0.000146
1638	1.6288e+02	-14.7894	-75.238080	0.000203	2.026930	0.686742	0.000081
1639	1.6298e+02	-14.7349	-75.092743	0.000365	3.648473	1.236136	0.000146
1640	1.6308e+02	-14.7108	-75.036223	0.000142	1.418851	0.480720	0.000057
1641	1.6318e+02	-14.6579	-74.935295	0.000253	2.533662	0.858428	0.000101
1642	1.6328e+02	-14.6354	-74.814181	0.000304	3.040395	1.030114	0.000122
1643	1.6338e+02	-14.5841	-74.717290	0.000243	2.432316	0.824091	0.000097
1644	1.6348e+02	-14.5504	-74.580027	0.000345	3.445780	1.167462	0.000138
1645	1.6358e+02	-14.5087	-74.491210	0.000223	2.229623	0.755417	0.000089
1646	1.6368e+02	-14.4654	-74.402393	0.000223	2.229623	0.755417	0.000089
1647	1.6378e+02	-14.4140	-74.301465	0.000253	2.533662	0.858428	0.000101
1648	1.6388e+02	-14.3771	-74.160165	0.000355	3.547127	1.201799	0.000142
1649	1.6398e+02	-14.3531	-74.063274	0.000243	2.432316	0.824091	0.000097
1650	1.6408e+02	-14.3033	-73.986568	0.000193	1.925583	0.652405	0.000077
1651	1.6418e+02	-14.2632	-73.849305	0.000345	3.445780	1.167462	0.000138
1652	1.6427e+02	-14.2215	-73.748377	0.000253	2.533662	0.858428	0.000101
1653	1.6437e+02	-14.1782	-73.639374	0.000274	2.736355	0.927102	0.000110
1654	1.6447e+02	-14.1445	-73.538446	0.000253	2.533662	0.858428	0.000101
1655	1.6457e+02	-14.1076	-73.433481	0.000264	2.635009	0.892765	0.000105
1656	1.6467e+02	-14.0659	-73.320441	0.000284	2.837702	0.961439	0.000114
1657	1.6477e+02	-14.0258	-73.215475	0.000264	2.635009	0.892765	0.000105
1658	1.6487e+02	-13.9857	-73.070138	0.000365	3.648473	1.236136	0.000146
1659	1.6497e+02	-13.9488	-73.017656	0.000132	1.317504	0.446383	0.000053
1660	1.6507e+02	-13.9007	-72.876356	0.000355	3.547127	1.201799	0.000142
1661	1.6517e+02	-13.8686	-72.759279	0.000294	2.939048	0.995776	0.000118
1662	1.6527e+02	-13.8285	-72.714870	0.000111	1.114811	0.377708	0.000045
1663	1.6537e+02	-13.7852	-72.545311	0.000426	4.256552	1.442159	0.000170
1664	1.6547e+02	-13.7515	-72.452457	0.000233	2.330969	0.789754	0.000093
1665	1.6557e+02	-13.7034	-72.339417	0.000284	2.837702	0.961439	0.000114
1666	1.6567e+02	-13.6729	-72.194080	0.000365	3.648473	1.236136	0.000146
1667	1.6577e+02	-13.6328	-72.097189	0.000243	2.432316	0.824091	0.000097
1668	1.6587e+02	-13.5798	-72.012409	0.000213	2.128276	0.721079	0.000085
1669	1.6597e+02	-13.5381	-71.879183	0.000334	3.344434	1.133125	0.000134
1670	1.6607e+02	-13.5060	-71.814589	0.000162	1.621544	0.549394	0.000065
1671	1.6616e+02	-13.4643	-71.673289	0.000355	3.547127	1.201799	0.000142
1672	1.6626e+02	-13.4274	-71.544101	0.000324	3.243087	1.098788	0.000130
1673	1.6636e+02	-13.3761	-71.443173	0.000253	2.533662	0.858428	0.000101
1674	1.6646e+02	-13.3408	-71.326096	0.000294	2.939048	0.995776	0.000118
1675	1.6656e+02	-13.3071	-71.213056	0.000284	2.837702	0.961439	0.000114
1676	1.6666e+02	-13.2638	-71.100016	0.000284	2.837702	0.961439	0.000114
1677	1.6676e+02	-13.2285	-70.991013	0.000274	2.736355	0.927102	0.000110
1678	1.6686e+02	-13.1868	-70.886048	0.000264	2.635009	0.892765	0.000105
1679	1.6696e+02	-13.1531	-70.736674	0.000375	3.749820	1.270473	0.000150
1680	1.6706e+02	-13.1034	-70.623634	0.000284	2.837702	0.961439	0.000114
1681	1.6716e+02	-13.0633	-70.518669	0.000264	2.635009	0.892765	0.000105
1682	1.6726e+02	-13.0280	-70.389480	0.000324	3.243087	1.098788	0.000130
1683	1.6736e+02	-12.9895	-70.240106	0.000375	3.749820	1.270473	0.000150
1684	1.6746e+02	-12.9478	-70.143215	0.000243	2.432316	0.824091	0.000097
1685	1.6756e+02	-12.9061	-70.054398	0.000223	2.229623	0.755417	0.000089
1686	1.6766e+02	-12.8772	-69.921172	0.000334	3.344434	1.133125	0.000134
1687	1.6776e+02	-12.8371	-69.824281	0.000243	2.432316	0.824091	0.000097
1688	1.6786e+02	-12.7922	-69.687019	0.000345	3.445780	1.167462	0.000138
1689	1.6796e+02	-12.7504	-69.578016	0.000274	2.736355	0.927102	0.000110
1690	1.6806e+02	-12.7119	-69.404419	0.000436	4.357899	1.476496	0.000174
1691	1.6816e+02	-12.6686	-69.307528	0.000243	2.432316	0.824091	0.000097
1692	1.6825e+02	-12.6349	-69.214674	0.000233	2.330969	0.789754	0.000093
1693	1.6835e+02	-12.5964	-69.073374	0.000355	3.547127	1.201799	0.000142
1694	1.6845e+02	-12.5435	-69.000705	0.000182	1.824237	0.618068	0.000073
1695	1.6855e+02	-12.5114	-68.839220	0.000405	4.053859	1.373485	0.000162
1696	1.6865e+02	-12.4825	-68.730217	0.000274	2.736355	0.927102	0.000110
1697	1.6875e+02	-12.4312	-68.564695	0.000416	4.155206	1.407822	0.000166
1698	1.6885e+02	-12.3927	-68.483952	0.000203	2.026930	0.686742	0.000081
1699	1.6895e+02	-12.3542	-68.338615	0.000365	3.648473	1.236136	0.000146
1700	1.6905e+02	-12.3045	-68.241724	0.000243	2.432316	0.824091	0.000097
1701	1.6915e+02	-12.2740	-68.100424	0.000355	3.547127	1.201799	0.000142
1702	1.6925e+02	-12.2355	-67.975273	0.000314	3.141741	1.064451	0.000126
1703	1.6935e+02	-12.1858	-67.833973	0.000355	3.547127	1.201799	0.000142
1704	1.6945e+02	-12.1489	-67.724971	0.000274	2.736355	0.927102	0.000110
1705	1.6955e+02	-12.1071	-67.595782	0.000324	3.243087	1.098788	0.000130
1706	1.6965e+02	-12.0783	-67.486780	0.000274	2.736355	0.927102	0.000110
1707	1.6975e+02	-12.0301	-67.385851	0.000253	2.533662	0.858428	0.000101
1708	1.6985e+02	-11.9965	-67.208217	0.000446	4.459245	1.510833	0.000179
1709	1.6995e+02	-11.9547	-67.066917	0.000355	3.547127	1.201799	0.000142
1710	1.7005e+02	-11.9098	-66.970026	0.000243	2.432316	0.824091	0.000097
1711	1.7015e+02	-11.8761	-66.905432	0.000162	1.621544	0.549394	0.000065
1712	1.7024e+02	-11.8344	-66.731835	0.000436	4.357899	1.476496	0.000174
1713	1.7034e+02	-11.7879	-66.614758	0.000294	2.939048	0.995776	0.000118
1714	1.7044e+02	-11.7574	-66.517867	0.000243	2.432316	0.824091	0.000097
1715	1.7054e+02	-11.7141	-66.376567	0.000355	3.547127	1.201799	0.000142
1716	1.7064e+02	-11.6836	-66.243342	0.000334	3.344434	1.133125	0.000134
1717	1.7074e+02	-11.6275	-66.130302	0.000284	2.837702	0.961439	0.000114
1718	1.7084e+02	-11.5906	-65.944594	0.000466	4.661938	1.579507	0.000187
1719	1.7094e+02	-11.5681	-65.843665	0.000253	2.533662	0.858428	0.000101
1720	1.7104e+02	-11.5184	-65.714477	0.000324	3.243087	1.098788	0.000130
1721	1.7114e+02	-11.4687	-65.609511	0.000264	2.635009	0.892765	0.000105
1722	1.7124e+02	-11.4270	-65.452063	0.000395	3.952513	1.339148	0.000158
1723	1.7134e+02	-11.3965	-65.334986	0.000294	2.939048	0.995776	0.000118
1724	1.7144e+02	-11.3483	-65.209835	0.000314	3.141741	1.064451	0.000126
1725	1.7154e+02	-11.3195	-65.104869	0.000264	2.635009	0.892765	0.000105
1726	1.7164e+02	-11.2762	-64.987793	0.000294	2.939048	0.995776	0.000118
1727	1.7174e+02	-11.2360	-64.838419	0.000375	3.749820	1.270473	0.000150
1728	1.7184e+02	-11.1975	-64.753639	0.000213	2.128276	0.721079	0.000085
1729	1.7194e+02	-11.1526	-64.588116	0.000416	4.155206	1.407822	0.000166
1730	1.7204e+02	-11.1270	-64.422594	0.000416	4.155206	1.407822	0.000166
1731	1.7213e+02	-11.0724	-64.293405	0.000324	3.243087	1.098788	0.000130
1732	1.7223e+02	-11.0339	-64.204588	0.000223	2.229623	0.755417	0.000089
1733	1.7233e+02	-10.9938	-64.091548	0.000284	2.837702	0.961439	0.000114
1734	1.7243e+02	-10.9537	-63.966397	0.000314	3.141741	1.064451	0.000126
1735	1.7253e+02	-10.9168	-63.800875	0.000416	4.155206	1.407822	0.000166
1736	1.7263e+02	-10.8735	-63.708021	0.000233	2.330969	0.789754	0.000093
1737	1.7273e+02	-10.8430	-63.607092	0.000253	2.533662	0.858428	0.000101
1738	1.7283e+02	-10.7917	-63.457718	0.000375	3.749820	1.270473	0.000150
1739	1.7293e+02	-10.7564	-63.296233	0.000405	4.053859	1.373485	0.000162
1740	1.7303e+02	-10.7275	-63.191267	0.000264	2.635009	0.892765	0.000105
1741	1.7313e+02	-10.6826	-63.070153	0.000304	3.040395	1.030114	0.000122
1742	1.7323e+02	-10.6361	-62.920779	0.000375	3.749820	1.270473	0.000150
1743	1.7333e+02	-10.5944	-62.779479	0.000355	3.547127	1.201799	0.000142
1744	1.7343e+02	-10.5526	-62.674514	0.000264	2.635009	0.892765	0.000105
1745	1.7353e+02	-10.5206	-62.553400	0.000304	3.040395	1.030114	0.000122
1746	1.7363e+02	-10.4660	-62.379803	0.000436	4.357899	1.476496	0.000174
1747	1.7373e+02	-10.4420	-62.274837	0.000264	2.635009	0.892765	0.000105
1748	1.7383e+02	-10.3986	-62.117389	0.000395	3.952513	1.339148	0.000158
1749	1.7393e+02	-10.3553	-62.008386	0.000274	2.736355	0.927102	0.000110
1750	1.7403e+02	-10.3168	-61.915532	0.000233	2.330969	0.789754	0.000093
1751	1.7413e+02	-10.2815	-61.745973	0.000426	4.256552	1.442159	0.000170
1752	1.7422e+02	-10.2430	-61.608710	0.000345	3.445780	1.167462	0.000138
1753	1.7432e+02	-10.1997	-61.491633	0.000294	2.939048	0.995776	0.000118
1754	1.7442e+02	-10.1612	-61.334185	0.000395	3.952513	1.339148	0.000158
1755	1.7452e+02	-10.1211	-61.204996	0.000324	3.243087	1.098788	0.000130
1756	1.7462e+02	-10.0778	-61.112142	0.000233	2.330969	0.789754	0.000093
1757	1.7472e+02	-10.0393	-60.962768	0.000375	3.749820	1.270473	0.000150
1758	1.7482e+02	-9.9880	-60.773023	0.000476	4.763285	1.613845	0.000191
1759	1.7492e+02	-9.9591	-60.684206	0.000223	2.229623	0.755417	0.000089
1760	1.7502e+02	-9.9142	-60.559055	0.000314	3.141741	1.064451	0.000126
1761	1.7512e+02	-9.8885	-60.401606	0.000395	3.952513	1.339148	0.000158
1762	1.7522e+02	-9.8323	-60.256269	0.000365	3.648473	1.236136	0.000146
1763	1.7532e+02	-9.7987	-60.131118	0.000314	3.141741	1.064451	0.000126
1764	1.7542e+02	-9.7585	-60.010004	0.000304	3.040395	1.030114	0.000122
1765	1.7552e+02	-9.7313	-59.901002	0.000274	2.736355	0.927102	0.000110
1766	1.7562e+02	-9.6783	-59.743553	0.000395	3.952513	1.339148	0.000158
1767	1.7572e+02	-9.6334	-59.606291	0.000345	3.445780	1.167462	0.000138
1768	1.7582e+02	-9.5997	-59.477102	0.000324	3.243087	1.098788	0.000130
1769	1.7592e+02	-9.5660	-59.355988	0.000304	3.040395	1.030114	0.000122
1770	1.7602e+02	-9.5211	-59.182391	0.000436	4.357899	1.476496	0.000174
1771	1.7612e+02	-9.4794	-59.069352	0.000284	2.837702	0.961439	0.000114
1772	1.7621e+02	-9.4473	-58.964386	0.000264	2.635009	0.892765	0.000105
1773	1.7631e+02	-9.4024	-58.819049	0.000365	3.648473	1.236136	0.000146
1774	1.7641e+02	-9.3655	-58.681787	0.000345	3.445780	1.167462	0.000138
1775	1.7651e+02	-9.3158	-58.548561	0.000334	3.344434	1.133125	0.000134
1776	1.7661e+02	-9.2837	-58.411298	0.000345	3.445780	1.167462	0.000138
1777	1.7671e+02	-9.2420	-58.302296	0.000274	2.736355	0.927102	0.000110
1778	1.7681e+02	-9.2083	-58.120625	0.000456	4.560592	1.545170	0.000183
1779	1.7691e+02	-9.1554	-57.999511	0.000304	3.040395	1.030114	0.000122
1780	1.7701e+02	-9.1233	-57.870322	0.000324	3.243087	1.098788	0.000130
1781	1.7711e+02	-9.0912	-57.708837	0.000405	4.053859	1.373485	0.000162
1782	1.7721e+02	-9.0495	-57.603871	0.000264	2.635009	0.892765	0.000105
1783	1.7731e+02	-9.0062	-57.422200	0.000456	4.560592	1.545170	0.000183
1784	1.7741e+02	-8.9580	-57.329346	0.000233	2.330969	0.789754	0.000093
1785	1.7751e+02	-8.9292	-57.143638	0.000466	4.661938	1.579507	0.000187
1786	1.7761e+02	-8.8923	-57.034635	0.000274	2.736355	0.927102	0.000110
1787	1.7771e+02	-8.8393	-56.905447	0.000324	3.243087	1.098788	0.000130
1788	1.7781e+02	-8.8121	-56.719739	0.000466	4.661938	1.579507	0.000187
1789	1.7791e+02	-8.7591	-56.618810	0.000253	2.533662	0.858428	0.000101
1790	1.7801e+02	-8.7350	-56.473473	0.000365	3.648473	1.236136	0.000146
1791	1.7810e+02	-8.6869	-56.283728	0.000476	4.763285	1.613845	0.000191
1792	1.7820e+02	-8.6372	-56.174725	0.000274	2.736355	0.927102	0.000110
1793	1.7830e+02	-8.6035	-56.033425	0.000355	3.547127	1.201799	0.000142
1794	1.7840e+02	-8.5602	-55.867903	0.000416	4.155206	1.407822	0.000166
1795	1.7850e+02	-8.5153	-55.766975	0.000253	2.533662	0.858428	0.000101
1796	1.7860e+02	-8.4880	-55.641823	0.000314	3.141741	1.064451	0.000126
1797	1.7870e+02	-8.4463	-55.452078	0.000476	4.763285	1.613845	0.000191
1798	1.7880e+02	-8.4046	-55.326927	0.000314	3.141741	1.064451	0.000126
1799	1.7890e+02	-8.3629	-55.173516	0.000385	3.851166	1.304810	0.000154
1800	1.7900e+02	-8.3292	-55.040290	0.000334	3.344434	1.133125	0.000134
1801	1.7910e+02	-8.2778	-54.878805	0.000405	4.053859	1.373485	0.000162
1802	1.7920e+02	-8.2474	-54.741542	0.000345	3.445780	1.167462	0.000138
1803	1.7930e+02	-8.2073	-54.592168	0.000375	3.749820	1.270473	0.000150
1804	1.7940e+02	-8.1704	-54.462980	0.000324	3.243087	1.098788	0.000130
1805	1.7950e+02	-8.1254	-54.301494	0.000405	4.053859	1.373485	0.000162
1806	1.7960e+02	-8.0918	-54.184417	0.000294	2.939048	0.995776	0.000118
1807	1.7970e+02	-8.0484	-54.006783	0.000446	4.459245	1.510833	0.000179
1808	1.7980e+02	-8.0131	-53.922003	0.000213	2.128276	0.721079	0.000085
1809	1.7990e+02	-7.9682	-53.712072	0.000527	5.270017	1.785530	0.000211
1810	1.8000e+02	-7.9233	-53.570773	0.000355	3.547127	1.201799	0.000142
1811	1.8009e+02	-7.8864	-53.397176	0.000436	4.357899	1.476496	0.000174
1812	1.8019e+02	-7.8543	-53.267987	0.000324	3.243087	1.098788	0.000130
1813	1.8029e+02	-7.8094	-53.122651	0.000365	3.648473	1.236136	0.000146
1814	1.8039e+02	-7.7741	-52.953091	0.000426	4.256552	1.442159	0.000170
1815	1.8049e+02	-7.7308	-52.803717	0.000375	3.749820	1.270473	0.000150
1816	1.8059e+02	-7.6779	-52.674529	0.000324	3.243087	1.098788	0.000130
1817	1.8069e+02	-7.6538	-52.553414	0.000304	3.040395	1.030114	0.000122
1818	1.8079e+02	-7.6137	-52.343483	0.000527	5.270017	1.785530	0.000211
1819	1.8089e+02	-7.5672	-52.218332	0.000314	3.141741	1.064451	0.000126
1820	1.8099e+02	-7.5415	-52.044735	0.000436	4.357899	1.476496	0.000174
1821	1.8109e+02	-7.4918	-51.911510	0.000334	3.344434	1.133125	0.000134
1822	1.8119e+02	-7.4436	-51.737913	0.000436	4.357899	1.476496	0.000174
1823	1.8129e+02	-7.4100	-51.584502	0.000385	3.851166	1.304810	0.000154
1824	1.8139e+02	-7.3634	-51.443202	0.000355	3.547127	1.201799	0.000142
1825	1.8149e+02	-7.3329	-51.245382	0.000497	4.965978	1.682519	0.000199
1826	1.8159e+02	-7.2944	-51.140417	0.000264	2.635009	0.892765	0.000105
1827	1.8169e+02	-7.2527	-50.966820	0.000436	4.357899	1.476496	0.000174
1828	1.8179e+02	-7.2094	-50.805335	0.000405	4.053859	1.373485	0.000162
1829	1.8189e+02	-7.1741	-50.635775	0.000426	4.256552	1.442159	0.000170
1830	1.8199e+02	-7.1228	-50.498512	0.000345	3.445780	1.167462	0.000138
1831	1.8209e+02	-7.0923	-50.345101	0.000385	3.851166	1.304810	0.000154
1832	1.8218e+02	-7.0506	-50.179579	0.000416	4.155206	1.407822	0.000166
1833	1.8228e+02	-7.0057	-50.038279	0.000355	3.547127	1.201799	0.000142
1834	1.8238e+02	-6.9672	-49.884868	0.000385	3.851166	1.304810	0.000154
1835	1.8248e+02	-6.9367	-49.678974	0.000517	5.168671	1.751193	0.000207
1836	1.8258e+02	-6.8822	-49.533637	0.000365	3.648473	1.236136	0.000146
1837	1.8268e+02	-6.8565	-49.396374	0.000345	3.445780	1.167462	0.000138
1838	1.8278e+02	-6.8148	-49.214703	0.000456	4.560592	1.545170	0.000183
1839	1.8288e+02	-6.7699	-49.077441	0.000345	3.445780	1.167462	0.000138
1840	1.8298e+02	-6.7282	-48.911918	0.000416	4.155206	1.407822	0.000166
1841	1.8308e+02	-6.6961	-48.770618	0.000355	3.547127	1.201799	0.000142
1842	1.8318e+02	-6.6576	-48.572799	0.000497	4.965978	1.682519	0.000199
1843	1.8328e+02	-6.6143	-48.403239	0.000426	4.256552	1.442159	0.000170
1844	1.8338e+02	-6.5790	-48.278088	0.000314	3.141741	1.064451	0.000126
1845	1.8348e+02	-6.5260	-48.088342	0.000476	4.763285	1.613845	0.000191
1846	1.8358e+02	-6.4907	-47.938968	0.000375	3.749820	1.270473	0.000150
1847	1.8368e+02	-6.4635	-47.797669	0.000355	3.547127	1.201799	0.000142
1848	1.8378e+02	-6.4233	-47.656369	0.000355	3.547127	1.201799	0.000142
1849	1.8388e+02	-6.3768	-47.426252	0.000578	5.776750	1.957216	0.000231
1850	1.8398e+02	-6.3415	-47.288989	0.000345	3.445780	1.167462	0.000138
1851	1.8407e+02	-6.2950	-47.099244	0.000476	4.763285	1.613845	0.000191
1852	1.8417e+02	-6.2581	-46.937759	0.000405	4.053859	1.373485	0.000162
1853	1.8427e+02	-6.2148	-46.772236	0.000416	4.155206	1.407822	0.000166
1854	1.8437e+02	-6.1763	-46.630936	0.000355	3.547127	1.201799	0.000142
1855	1.8447e+02	-6.1378	-46.453302	0.000446	4.459245	1.510833	0.000179
1856	1.8457e+02	-6.1089	-46.275668	0.000446	4.459245	1.510833	0.000179
1857	1.8467e+02	-6.0592	-46.130332	0.000365	3.648473	1.236136	0.000146
1858	1.8477e+02	-6.0159	-45.920400	0.000527	5.270017	1.785530	0.000211
1859	1.8487e+02	-5.9790	-45.771026	0.000375	3.749820	1.270473	0.000150
1860	1.8497e+02	-5.9421	-45.613578	0.000395	3.952513	1.339148	0.000158
1861	1.8507e+02	-5.8972	-45.431907	0.000456	4.560592	1.545170	0.000183
1862	1.8517e+02	-5.8587	-45.250236	0.000456	4.560592	1.545170	0.000183
1863	1.8527e+02	-5.8202	-45.112973	0.000345	3.445780	1.167462	0.000138
1864	1.8537e+02	-5.7768	-44.935339	0.000446	4.459245	1.510833	0.000179
1865	1.8547e+02	-5.7367	-44.733483	0.000507	5.067324	1.716856	0.000203
1866	1.8557e+02	-5.6966	-44.600257	0.000334	3.344434	1.133125	0.000134
1867	1.8567e+02	-5.6629	-44.422623	0.000446	4.459245	1.510833	0.000179
1868	1.8577e+02	-5.6116	-44.253063	0.000426	4.256552	1.442159	0.000170
1869	1.8587e+02	-5.5699	-44.055244	0.000497	4.965978	1.682519	0.000199
1870	1.8597e+02	-5.5346	-43.873573	0.000456	4.560592	1.545170	0.000183
1871	1.8606e+02	-5.4961	-43.716124	0.000395	3.952513	1.339148	0.000158
1872	1.8616e+02	-5.4560	-43.542528	0.000436	4.357899	1.476496	0.000174
1873	1.8626e+02	-5.4351	-43.385079	0.000395	3.952513	1.339148	0.000158
1874	1.8636e+02	-5.3838	-43.179185	0.000517	5.168671	1.751193	0.000207
1875	1.8646e+02	-5.3469	-43.021737	0.000395	3.952513	1.339148	0.000158
1876	1.8656e+02	-5.2988	-42.856214	0.000416	4.155206	1.407822	0.000166
1877	1.8666e+02	-5.2667	-42.682618	0.000436	4.357899	1.476496	0.000174
1878	1.8676e+02	-5.2234	-42.500946	0.000456	4.560592	1.545170	0.000183
1879	1.8686e+02	-5.1897	-42.347535	0.000385	3.851166	1.304810	0.000154
1880	1.8696e+02	-5.1480	-42.121456	0.000568	5.675403	1.922879	0.000227
1881	1.8706e+02	-5.0999	-41.976119	0.000365	3.648473	1.236136	0.000146
1882	1.8716e+02	-5.0710	-41.790411	0.000466	4.661938	1.579507	0.000187
1883	1.8726e+02	-5.0196	-41.628925	0.000405	4.053859	1.373485	0.000162
1884	1.8736e+02	-4.9795	-41.410920	0.000547	5.472710	1.854204	0.000219
1885	1.8746e+02	-4.9394	-41.225212	0.000466	4.661938	1.579507	0.000187
1886	1.8756e+02	-4.9025	-41.083912	0.000355	3.547127	1.201799	0.000142
1887	1.8766e+02	-4.8640	-40.930501	0.000385	3.851166	1.304810	0.000154
1888	1.8776e+02	-4.8159	-40.740755	0.000476	4.763285	1.613845	0.000191
1889	1.8786e+02	-4.7838	-40.502564	0.000598	5.979443	2.025890	0.000239
1890	1.8796e+02	-4.7357	-40.365302	0.000345	3.445780	1.167462	0.000138
1891	1.8806e+02	-4.7068	-40.191705	0.000436	4.357899	1.476496	0.000174
1892	1.8815e+02	-4.6683	-39.981774	0.000527	5.270017	1.785530	0.000211
1893	1.8825e+02	-4.6266	-39.832400	0.000375	3.749820	1.270473	0.000150
1894	1.8835e+02	-4.5929	-39.642654	0.000476	4.763285	1.613845	0.000191
1895	1.8845e+02	-4.5448	-39.428686	0.000537	5.371364	1.819867	0.000215
1896	1.8855e+02	-4.5095	-39.319684	0.000274	2.736355	0.927102	0.000110
1897	1.8865e+02	-4.4646	-39.081493	0.000598	5.979443	2.025890	0.000239
1898	1.8875e+02	-4.4213	-38.940193	0.000355	3.547127	1.201799	0.000142
1899	1.8885e+02	-4.3715	-38.762559	0.000446	4.459245	1.510833	0.000179
1900	1.8895e+02	-4.3427	-38.592999	0.000426	4.256552	1.442159	0.000170
1901	1.8905e+02	-4.3042	-38.387105	0.000517	5.168671	1.751193	0.000207
1902	1.8915e+02	-4.2705	-38.233694	0.000385	3.851166	1.304810	0.000154
1903	1.8925e+02	-4.2223	-38.047986	0.000466	4.661938	1.579507	0.000187
1904	1.8935e+02	-4.1919	-37.866315	0.000456	4.560592	1.545170	0.000183
1905	1.8945e+02	-4.1421	-37.648309	0.000547	5.472710	1.854204	0.000219
1906	1.8955e+02	-4.1036	-37.474712	0.000436	4.357899	1.476496	0.000174
1907	1.8965e+02	-4.0651	-37.293041	0.000456	4.560592	1.545170	0.000183
1908	1.8975e+02	-4.0266	-37.127519	0.000416	4.155206	1.407822	0.000166
1909	1.8985e+02	-3.9817	-36.925662	0.000507	5.067324	1.716856	0.000203
1910	1.8995e+02	-3.9464	-36.715731	0.000527	5.270017	1.785530	0.000211
1911	1.9004e+02	-3.9031	-36.554246	0.000405	4.053859	1.373485	0.000162
1912	1.9014e+02	-3.8614	-36.352389	0.000507	5.067324	1.716856	0.000203
1913	1.9024e+02	-3.8229	-36.215126	0.000345	3.445780	1.167462	0.000138
1914	1.9034e+02	-3.7844	-36.013269	0.000507	5.067324	1.716856	0.000203
1915	1.9044e+02	-3.7587	-35.815450	0.000497	4.965978	1.682519	0.000199
1916	1.9054e+02	-3.7090	-35.593407	0.000557	5.574057	1.888542	0.000223
1917	1.9064e+02	-3.6705	-35.435959	0.000395	3.952513	1.339148	0.000158
1918	1.9074e+02	-3.6304	-35.250251	0.000466	4.661938	1.579507	0.000187
1919	1.9084e+02	-3.5903	-35.088765	0.000405	4.053859	1.373485	0.000162
1920	1.9094e+02	-3.5438	-34.927280	0.000405	4.053859	1.373485	0.000162
1921	1.9104e+02	-3.5069	-34.681015	0.000618	6.182136	2.094564	0.000248
1922	1.9114e+02	-3.4700	-34.487232	0.000486	4.864631	1.648182	0.000195
1923	1.9124e+02	-3.4315	-34.333821	0.000385	3.851166	1.304810	0.000154
1924	1.9134e+02	-3.3962	-34.140038	0.000486	4.864631	1.648182	0.000195
1925	1.9144e+02	-3.3432	-33.974516	0.000416	4.155206	1.407822	0.000166
1926	1.9154e+02	-3.3095	-33.752473	0.000557	5.574057	1.888542	0.000223
1927	1.9164e+02	-3.2726	-33.546579	0.000517	5.168671	1.751193	0.000207
1928	1.9174e+02	-3.2293	-33.372983	0.000436	4.357899	1.476496	0.000174
1929	1.9184e+02	-3.1908	-33.187274	0.000466	4.661938	1.579507	0.000187
1930	1.9194e+02	-3.1491	-32.997529	0.000476	4.763285	1.613845	0.000191
1931	1.9203e+02	-3.1058	-32.787598	0.000527	5.270017	1.785530	0.000211
1932	1.9213e+02	-3.0705	-32.601890	0.000466	4.661938	1.579507	0.000187
1933	1.9223e+02	-3.0320	-32.404070	0.000497	4.965978	1.682519	0.000199
1934	1.9233e+02	-2.9919	-32.222399	0.000456	4.560592	1.545170	0.000183
1935	1.9243e+02	-2.9550	-32.000356	0.000557	5.574057	1.888542	0.000223
1936	1.9253e+02	-2.9165	-31.818685	0.000456	4.560592	1.545170	0.000183
1937	1.9263e+02	-2.8700	-31.624903	0.000486	4.864631	1.648182	0.000195
1938	1.9273e+02	-2.8251	-31.467455	0.000395	3.952513	1.339148	0.000158
1939	1.9283e+02	-2.7946	-31.253486	0.000537	5.371364	1.819867	0.000215
1940	1.9293e+02	-2.7577	-31.031444	0.000557	5.574057	1.888542	0.000223
1941	1.9303e+02	-2.7128	-30.906293	0.000314	3.141741	1.064451	0.000126
1942	1.9313e+02	-2.6646	-30.708473	0.000497	4.965978	1.682519	0.000199
1943	1.9323e+02	-2.6277	-30.454133	0.000638	6.384829	2.163238	0.000256
1944	1.9333e+02	-2.5956	-30.244202	0.000527	5.270017	1.785530	0.000211
1945	1.9343e+02	-2.5539	-30.094828	0.000375	3.749820	1.270473	0.000150
1946	1.9353e+02	-2.5042	-29.868749	0.000568	5.675403	1.922879	0.000227
1947	1.9363e+02	-2.4657	-29.670929	0.000497	4.965978	1.682519	0.000199
1948	1.9373e+02	-2.4368	-29.493295	0.000446	4.459245	1.510833	0.000179
1949	1.9383e+02	-2.3951	-29.299513	0.000486	4.864631	1.648182	0.000195
1950	1.9393e+02	-2.3550	-29.101693	0.000497	4.965978	1.682519	0.000199
1951	1.9403e+02	-2.3197	-28.940208	0.000405	4.053859	1.373485	0.000162
1952	1.9412e+02	-2.2796	-28.689905	0.000628	6.283482	2.128901	0.000252
1953	1.9422e+02	-2.2283	-28.484011	0.000517	5.168671	1.751193	0.000207
1954	1.9432e+02	-2.1914	-28.330600	0.000385	3.851166	1.304810	0.000154
1955	1.9442e+02	-2.1529	-28.100483	0.000578	5.776750	1.957216	0.000231
1956	1.9452e+02	-2.1080	-27.866329	0.000588	5.878096	1.991553	0.000235
1957	1.9462e+02	-2.0775	-27.688695	0.000446	4.459245	1.510833	0.000179
1958	1.9472e+02	-2.0310	-27.507024	0.000456	4.560592	1.545170	0.000183
1959	1.9482e+02	-1.9892	-27.317279	0.000476	4.763285	1.613845	0.000191
1960	1.9492e+02	-1.9540	-27.083125	0.000588	5.878096	1.991553	0.000235
1961	1.9502e+02	-1.9187	-26.885305	0.000497	4.965978	1.682519	0.000199
1962	1.9512e+02	-1.8818	-26.691523	0.000486	4.864631	1.648182	0.000195
1963	1.9522e+02	-1.8352	-26.501778	0.000476	4.763285	1.613845	0.000191
1964	1.9532e+02	-1.7967	-26.279735	0.000557	5.574057	1.888542	0.000223
1965	1.9542e+02	-1.7534	-26.081915	0.000497	4.965978	1.682519	0.000199
1966	1.9552e+02	-1.7149	-25.892170	0.000476	4.763285	1.613845	0.000191
1967	1.9562e+02	-1.6748	-25.682239	0.000527	5.270017	1.785530	0.000211
1968	1.9572e+02	-1.6299	-25.472308	0.000527	5.270017	1.785530	0.000211
1969	1.9582e+02	-1.5850	-25.209894	0.000659	6.587521	2.231913	0.000264
1970	1.9592e+02	-1.5529	-25.016112	0.000486	4.864631	1.648182	0.000195
1971	1.9601e+02	-1.5160	-24.850589	0.000416	4.155206	1.407822	0.000166
1972	1.9611e+02	-1.4855	-24.608361	0.000608	6.080789	2.060227	0.000243
1973	1.9621e+02	-1.4406	-24.426690	0.000456	4.560592	1.545170	0.000183
1974	1.9631e+02	-1.3877	-24.208684	0.000547	5.472710	1.854204	0.000219
1975	1.9641e+02	-1.3572	-24.006828	0.000507	5.067324	1.716856	0.000203
1976	1.9651e+02	-1.3187	-23.784785	0.000557	5.574057	1.888542	0.000223
1977	1.9661e+02	-1.2754	-23.558706	0.000568	5.675403	1.922879	0.000227
1978	1.9671e+02	-1.2385	-23.381072	0.000446	4.459245	1.510833	0.000179
1979	1.9681e+02	-1.2000	-23.114621	0.000669	6.688868	2.266250	0.000268
1980	1.9691e+02	-1.1502	-22.961210	0.000385	3.851166	1.304810	0.000154
1981	1.9701e+02	-1.1165	-22.731093	0.000578	5.776750	1.957216	0.000231
1982	1.9711e+02	-1.0748	-22.517125	0.000537	5.371364	1.819867	0.000215
1983	1.9721e+02	-1.0363	-22.295082	0.000557	5.574057	1.888542	0.000223
1984	1.9731e+02	-0.9946	-22.101300	0.000486	4.864631	1.648182	0.000195
1985	1.9741e+02	-0.9609	-21.867146	0.000588	5.878096	1.991553	0.000235
1986	1.9751e+02	-0.9224	-21.653178	0.000537	5.371364	1.819867	0.000215
1987	1.9761e+02	-0.8839	-21.443246	0.000527	5.270017	1.785530	0.000211
1988	1.9771e+02	-0.8374	-21.237353	0.000517	5.168671	1.751193	0.000207
1989	1.9781e+02	-0.7957	-21.015310	0.000557	5.574057	1.888542	0.000223
1990	1.9791e+02	-0.7460	-20.781156	0.000588	5.878096	1.991553	0.000235
1991	1.9800e+02	-0.7187	-20.567188	0.000537	5.371364	1.819867	0.000215
1992	1.9810e+02	-0.6722	-20.393591	0.000436	4.357899	1.476496	0.000174
1993	1.9820e+02	-0.6433	-20.143289	0.000628	6.283482	2.128901	0.000252
1994	1.9830e+02	-0.6016	-19.913172	0.000578	5.776750	1.957216	0.000231
1995	1.9840e+02	-0.5567	-19.674981	0.000598	5.979443	2.025890	0.000239
1996	1.9850e+02	-0.5230	-19.452939	0.000557	5.574057	1.888542	0.000223
1997	1.9860e+02	-0.4732	-19.243007	0.000527	5.270017	1.785530	0.000211
1998	1.9870e+02	-0.4412	-19.033076	0.000527	5.270017	1.785530	0.000211
1999	1.9880e+02	-0.3962	-18.823145	0.000527	5.270017	1.785530	0.000211
2000	1.9890e+02	-0.3626	-18.552657	0.000679	6.790214	2.300587	0.000272
2001	1.9900e+02	-0.3289	-18.379060	0.000436	4.357899	1.476496	0.000174
2002	1.9910e+02	-0.2791	-18.128758	0.000628	6.283482	2.128901	0.000252
2003	1.9920e+02	-0.2342	-17.914790	0.000537	5.371364	1.819867	0.000215
2004	1.9930e+02	-0.2021	-17.704859	0.000527	5.270017	1.785530	0.000211
2005	1.9940e+02	-0.1572	-17.498965	0.000517	5.168671	1.751193	0.000207
2006	1.9950e+02	-0.1251	-17.232514	0.000669	6.688868	2.266250	0.000268
2007	1.9960e+02	-0.0786	-17.050843	0.000456	4.560592	1.545170	0.000183
2008	1.9970e+02	-0.0481	-16.816689	0.000588	5.878096	1.991553	0.000235
2009	1.9980e+02	-0.0080	-16.590609	0.000588	5.878096	1.991553	0.000227

Center data before PMax,+/-Pr and +/-Vc Calc.

PMax (uC/cm2):	8.45e+01
Pr (uC/cm2):	9.93e+00
-Pr (uC/cm2):	-1.66e+01
PLoss (uC/cm2):	-1.23e+01
Vc:	1.06e+00
-Vc:	-1.82e+00
C (Max-Eff) (nF):	4.23e-01
K (Eff):	1.43e+03
Vert. (+/-Pr) Shift (uC/cm2):	-3.33e+00
Horiz. Shift (+/-Vc):	-3.79e-01
Offset (uC/cm2):	4.31e+00

A (Loop Area - uC/cm2·Volts):	-2.95e-02



Hysteresis Version: 5.48.1 - Radiant Technologies, Inc., 1999 - 9/12/24

