»»»»»»»»»»»»»»»»»»»»»»»»»»»»»»»»»»»» Hysteresis ««««««««««««««««««««««««««««««««««««
»»»  Executed Version:	5.48.1
»»»  Vision Version:	5.48.4 (R)
»»»  Vision Compiled:	9/18/24
»»»  Driver Version:	5.47.0
»»»  Windows Version:	Windows 8 or 8.1
»»»  Processor Information:	x86 (AMD or Intel) - 32 Processors
»»»  Tester Name:	PMF21124-494 (100V)
»»»  Tester S/N:	PMF21124-494
»»»  Internal Amp Type:	100V RevK 270k
»»»  Internal Amp S/N:	iAB2-596/K     
»»»  Execution Count:	1
»»»»»»»»»»»»»»»»»»»»»»»»»»»»»»»»»»»»»»»»»»««««««««««««««««««««««««««««««««««««««««««

Stored:	6/16/2025 - 14:45:22
Configured:	06/16/25 02:13:38 PM
Executed:	06/16/25 02:44:53 PM

»»»»»»»»»»»»»»»»»»»»»»»»»»»»»»»»»»» Sample Info ««««««««««««««««««««««««««««««««««««
Sample Name:	
Lot Name:	
Wafer Name:	
Die Row/Column:	0/0
Capacitor Number:	0
Sample Area (cm2):	1.00e-04
Sample Thickness (microns):	3.00e-01

Amplifier:	Internal

»»»»»»»»»»»»»»»»»»»»»»»»»»»»»»»»»»» Tester Info «««««««««««««««««««««««««««««««««««
Tester Name:	PMF21124-494 (100V)
Tester Serial Number:	PMF21124-494
Return Signal Amp. Level:	1.9 [Index: 2]

»»»»»»»»»»»»»»»»»»»»»»»»»»»»»»»» Hysteresis Info ««««««««««««««««««««««««««««««««««
Task Name:	Hyst-4
Volts:	20.00
Field:	666.67 (kV/cm)
DCBias:	0.00
DCField:	0.00 (kV/cm)
Hysteresis Period (ms):	2.00e+02
Preset:	Enabled
Preset Delay (ms):	1.00e+03
Profile:	Standard Bipolar

»»»»»»»»»»»»»»»»»»»»»»»»»»»»»»»»»»»»»» Data «««««««««««««««««««««««««««««««««««««««
Points:	2009

Valid Data

Point	Time (ms)	Drive Voltage	Measured Polarization (uC/cm2)	Capacitance (uF)	Normalized Capacitance (uF/cm2)	Dielectric Constant	Instantaneous Current (mA)
   1	0.0000e+00	0.0128	-2.293135	0.000160	1.598494	0.541584	0.000064
   2	9.9500e-02	0.0545	-2.229182	0.000160	1.598494	0.541584	0.000064
   3	1.9900e-01	0.1091	-2.135901	0.000233	2.331561	0.789954	0.000094
   4	2.9850e-01	0.1636	-2.048322	0.000219	2.189020	0.741660	0.000088
   5	3.9800e-01	0.1684	-1.952189	0.000240	2.402831	0.814101	0.000097
   6	4.9750e-01	0.2166	-1.863796	0.000221	2.209383	0.748559	0.000089
   7	5.9700e-01	0.2551	-1.772551	0.000228	2.280653	0.772706	0.000092
   8	6.9650e-01	0.3032	-1.676826	0.000239	2.392650	0.810652	0.000096
   9	7.9600e-01	0.3449	-1.583137	0.000234	2.341742	0.793404	0.000094
  10	8.9550e-01	0.3722	-1.495151	0.000220	2.199201	0.745110	0.000088
  11	9.9500e-01	0.4155	-1.399018	0.000240	2.402831	0.814101	0.000097
  12	1.0945e+00	0.4797	-1.299626	0.000248	2.484283	0.841698	0.000100
  13	1.1940e+00	0.5005	-1.208382	0.000228	2.280653	0.772706	0.000092
  14	1.2935e+00	0.5406	-1.112656	0.000239	2.392650	0.810652	0.000096
  15	1.3930e+00	0.5807	-1.025078	0.000219	2.189020	0.741660	0.000088
  16	1.4925e+00	0.6160	-0.931389	0.000234	2.341742	0.793404	0.000094
  17	1.5920e+00	0.6674	-0.837293	0.000235	2.351924	0.796853	0.000095
  18	1.6915e+00	0.7171	-0.739530	0.000244	2.443557	0.827900	0.000098
  19	1.7910e+00	0.7379	-0.656840	0.000207	2.066842	0.700265	0.000083
  20	1.8905e+00	0.7652	-0.558670	0.000245	2.453739	0.831349	0.000099
  21	1.9900e+00	0.8166	-0.458057	0.000251	2.514827	0.852047	0.000101
  22	2.0895e+00	0.8599	-0.366812	0.000228	2.280653	0.772706	0.000092
  23	2.1890e+00	0.9000	-0.267828	0.000247	2.474101	0.838248	0.000099
  24	2.2885e+00	0.9449	-0.171288	0.000241	2.413013	0.817551	0.000097
  25	2.3880e+00	0.9593	-0.078821	0.000231	2.311198	0.783055	0.000093
  26	2.4875e+00	1.0203	0.022200	0.000253	2.525009	0.855496	0.000102
  27	2.5870e+00	1.0572	0.120370	0.000245	2.453739	0.831349	0.000099
  28	2.6865e+00	1.0813	0.215281	0.000237	2.372287	0.803752	0.000095
  29	2.7860e+00	1.1390	0.309377	0.000235	2.351924	0.796853	0.000095
  30	2.8855e+00	1.1823	0.412842	0.000259	2.586098	0.876194	0.000104
  31	2.9850e+00	1.2160	0.513455	0.000251	2.514827	0.852047	0.000101
  32	3.0845e+00	1.2657	0.605922	0.000231	2.311198	0.783055	0.000093
  33	3.1840e+00	1.2962	0.705721	0.000249	2.494464	0.845147	0.000100
  34	3.2835e+00	1.3155	0.805113	0.000248	2.484283	0.841698	0.000100
  35	3.3830e+00	1.3732	0.908985	0.000260	2.596279	0.879643	0.000104
  36	3.4825e+00	1.4133	1.004303	0.000238	2.382468	0.807202	0.000096
  37	3.5820e+00	1.4615	1.103287	0.000247	2.474101	0.838248	0.000099
  38	3.6815e+00	1.4871	1.196569	0.000233	2.331561	0.789954	0.000094
  39	3.7810e+00	1.5320	1.300034	0.000259	2.586098	0.876194	0.000104
  40	3.8805e+00	1.5673	1.399833	0.000249	2.494464	0.845147	0.000100
  41	3.9800e+00	1.6010	1.498002	0.000245	2.453739	0.831349	0.000099
  42	4.0795e+00	1.6508	1.598209	0.000250	2.504646	0.848597	0.000101
  43	4.1790e+00	1.6764	1.695563	0.000243	2.433376	0.824450	0.000098
  44	4.2785e+00	1.7310	1.794548	0.000247	2.474101	0.838248	0.000099
  45	4.3780e+00	1.7951	1.898420	0.000260	2.596279	0.879643	0.000104
  46	4.4775e+00	1.8096	1.993738	0.000238	2.382468	0.807202	0.000096
  47	4.5770e+00	1.8721	2.100055	0.000266	2.657368	0.900341	0.000107
  48	4.6765e+00	1.8866	2.193743	0.000234	2.341742	0.793404	0.000094
  49	4.7760e+00	1.9347	2.298430	0.000262	2.616642	0.886542	0.000105
  50	4.8755e+00	1.9892	2.396600	0.000245	2.453739	0.831349	0.000099
  51	4.9750e+00	2.0085	2.491918	0.000238	2.382468	0.807202	0.000096
  52	5.0745e+00	2.0310	2.593346	0.000254	2.535190	0.858946	0.000102
  53	5.1740e+00	2.1096	2.698848	0.000264	2.637005	0.893442	0.000106
  54	5.2735e+00	2.1320	2.792944	0.000235	2.351924	0.796853	0.000095
  55	5.3730e+00	2.1657	2.899668	0.000267	2.667550	0.903790	0.000107
  56	5.4725e+00	2.2170	3.002318	0.000257	2.565735	0.869295	0.000103
  57	5.5720e+00	2.2523	3.100488	0.000245	2.453739	0.831349	0.000099
  58	5.6715e+00	2.2780	3.208026	0.000269	2.687913	0.910689	0.000108
  59	5.7710e+00	2.3277	3.305788	0.000244	2.443557	0.827900	0.000098
  60	5.8705e+00	2.3855	3.404365	0.000246	2.463920	0.834799	0.000099
  61	5.9700e+00	2.4192	3.507423	0.000258	2.575916	0.872744	0.000104
  62	6.0695e+00	2.4625	3.611295	0.000260	2.596279	0.879643	0.000104
  63	6.1690e+00	2.4834	3.710280	0.000247	2.474101	0.838248	0.000099
  64	6.2685e+00	2.5443	3.814559	0.000261	2.606461	0.883093	0.000105
  65	6.3680e+00	2.5668	3.916395	0.000255	2.545372	0.862395	0.000102
  66	6.4675e+00	2.6133	4.023933	0.000269	2.687913	0.910689	0.000108
  67	6.5670e+00	2.6245	4.124547	0.000251	2.514827	0.852047	0.000101
  68	6.6665e+00	2.6999	4.227197	0.000257	2.565735	0.869295	0.000103
  69	6.7660e+00	2.7304	4.329440	0.000256	2.555553	0.865845	0.000103
  70	6.8655e+00	2.7769	4.433313	0.000260	2.596279	0.879643	0.000104
  71	6.9650e+00	2.8074	4.534334	0.000253	2.525009	0.855496	0.000102
  72	7.0645e+00	2.8523	4.637391	0.000258	2.575916	0.872744	0.000104
  73	7.1640e+00	2.8972	4.742486	0.000263	2.626824	0.889992	0.000106
  74	7.2635e+00	2.9390	4.847987	0.000264	2.637005	0.893442	0.000106
  75	7.3630e+00	2.9871	4.950638	0.000257	2.565735	0.869295	0.000103
  76	7.4625e+00	3.0095	5.051659	0.000253	2.525009	0.855496	0.000102
  77	7.5620e+00	3.0657	5.152680	0.000253	2.525009	0.855496	0.000102
  78	7.6615e+00	3.0769	5.263069	0.000276	2.759183	0.934837	0.000111
  79	7.7610e+00	3.1283	5.361646	0.000246	2.463920	0.834799	0.000099
  80	7.8605e+00	3.1780	5.473666	0.000280	2.799909	0.948635	0.000113
  81	7.9600e+00	3.2069	5.572650	0.000247	2.474101	0.838248	0.000099
  82	8.0595e+00	3.2438	5.681003	0.000271	2.708276	0.917589	0.000109
  83	8.1590e+00	3.2855	5.782839	0.000255	2.545372	0.862395	0.000102
  84	8.2585e+00	3.3384	5.885082	0.000256	2.555553	0.865845	0.000103
  85	8.3580e+00	3.3689	5.986510	0.000254	2.535190	0.858946	0.000102
  86	8.4575e+00	3.3913	6.086309	0.000249	2.494464	0.845147	0.000100
  87	8.5570e+00	3.4475	6.193440	0.000268	2.677731	0.907240	0.000108
  88	8.6565e+00	3.4956	6.295683	0.000256	2.555553	0.865845	0.000103
  89	8.7560e+00	3.5405	6.404443	0.000272	2.718457	0.921038	0.000109
  90	8.8555e+00	3.5694	6.500169	0.000239	2.392650	0.810652	0.000096
  91	8.9550e+00	3.5919	6.610151	0.000275	2.749002	0.931387	0.000111
  92	9.0545e+00	3.6625	6.713616	0.000259	2.586098	0.876194	0.000104
  93	9.1540e+00	3.6913	6.822784	0.000273	2.728639	0.924488	0.000110
  94	9.2535e+00	3.7154	6.917288	0.000236	2.362105	0.800303	0.000095
  95	9.3530e+00	3.7619	7.024419	0.000268	2.677731	0.907240	0.000108
  96	9.4525e+00	3.8197	7.129920	0.000264	2.637005	0.893442	0.000106
  97	9.5520e+00	3.8325	7.235015	0.000263	2.626824	0.889992	0.000106
  98	9.6515e+00	3.8951	7.331555	0.000241	2.413013	0.817551	0.000097
  99	9.7510e+00	3.9240	7.439908	0.000271	2.708276	0.917589	0.000109
 100	9.8505e+00	3.9689	7.542151	0.000256	2.555553	0.865845	0.000103
 101	9.9500e+00	4.0170	7.648875	0.000267	2.667550	0.903790	0.000107
 102	1.0050e+01	4.0346	7.749488	0.000251	2.514827	0.852047	0.000101
 103	1.0149e+01	4.0796	7.857841	0.000271	2.708276	0.917589	0.000109
 104	1.0248e+01	4.1197	7.958862	0.000253	2.525009	0.855496	0.000102
 105	1.0348e+01	4.1550	8.067216	0.000271	2.708276	0.917589	0.000109
 106	1.0447e+01	4.2047	8.167422	0.000250	2.504646	0.848597	0.000101
 107	1.0547e+01	4.2255	8.269665	0.000256	2.555553	0.865845	0.000103
 108	1.0646e+01	4.2977	8.375574	0.000265	2.647187	0.896891	0.000106
 109	1.0746e+01	4.3298	8.479854	0.000261	2.606461	0.883093	0.000105
 110	1.0845e+01	4.3523	8.580060	0.000250	2.504646	0.848597	0.000101
 111	1.0945e+01	4.4116	8.680673	0.000251	2.514827	0.852047	0.000101
 112	1.1044e+01	4.4453	8.785360	0.000262	2.616642	0.886542	0.000105
 113	1.1144e+01	4.4822	8.885567	0.000250	2.504646	0.848597	0.000101
 114	1.1243e+01	4.5255	8.993920	0.000271	2.708276	0.917589	0.000109
 115	1.1343e+01	4.5656	9.088423	0.000236	2.362105	0.800303	0.000095
 116	1.1443e+01	4.5849	9.192296	0.000260	2.596279	0.879643	0.000104
 117	1.1542e+01	4.6410	9.291280	0.000247	2.474101	0.838248	0.000099
 118	1.1642e+01	4.6876	9.396374	0.000263	2.626824	0.889992	0.000106
 119	1.1741e+01	4.7148	9.495359	0.000247	2.474101	0.838248	0.000099
 120	1.1841e+01	4.7549	9.596787	0.000254	2.535190	0.858946	0.000102
 121	1.1940e+01	4.8143	9.695364	0.000246	2.463920	0.834799	0.000099
 122	1.2040e+01	4.8448	9.803717	0.000271	2.708276	0.917589	0.000109
 123	1.2139e+01	4.8785	9.903516	0.000249	2.494464	0.845147	0.000100
 124	1.2239e+01	4.9362	10.004944	0.000254	2.535190	0.858946	0.000102
 125	1.2338e+01	4.9523	10.106372	0.000254	2.535190	0.858946	0.000102
 126	1.2438e+01	5.0084	10.205764	0.000248	2.484283	0.841698	0.000100
 127	1.2537e+01	5.0533	10.307192	0.000254	2.535190	0.858946	0.000102
 128	1.2636e+01	5.0710	10.415545	0.000271	2.708276	0.917589	0.000109
 129	1.2736e+01	5.1159	10.509641	0.000235	2.351924	0.796853	0.000095
 130	1.2835e+01	5.1640	10.617995	0.000271	2.708276	0.917589	0.000109
 131	1.2935e+01	5.2041	10.715757	0.000244	2.443557	0.827900	0.000098
 132	1.3034e+01	5.2523	10.819629	0.000260	2.596279	0.879643	0.000104
 133	1.3134e+01	5.2940	10.923909	0.000261	2.606461	0.883093	0.000105
 134	1.3233e+01	5.3196	11.018005	0.000235	2.351924	0.796853	0.000095
 135	1.3333e+01	5.3581	11.122692	0.000262	2.616642	0.886542	0.000105
 136	1.3432e+01	5.3950	11.226564	0.000260	2.596279	0.879643	0.000104
 137	1.3532e+01	5.4239	11.330029	0.000259	2.586098	0.876194	0.000104
 138	1.3632e+01	5.4672	11.426977	0.000242	2.423194	0.821000	0.000097
 139	1.3731e+01	5.5186	11.533701	0.000267	2.667550	0.903790	0.000107
 140	1.3831e+01	5.5571	11.631056	0.000243	2.433376	0.824450	0.000098
 141	1.3930e+01	5.5859	11.737372	0.000266	2.657368	0.900341	0.000107
 142	1.4030e+01	5.6453	11.832283	0.000237	2.372287	0.803752	0.000095
 143	1.4129e+01	5.6694	11.937377	0.000263	2.626824	0.889992	0.000106
 144	1.4229e+01	5.7143	12.040027	0.000257	2.565735	0.869295	0.000103
 145	1.4328e+01	5.7672	12.143492	0.000259	2.586098	0.876194	0.000104
 146	1.4428e+01	5.7913	12.243291	0.000249	2.494464	0.845147	0.000100
 147	1.4527e+01	5.8378	12.341054	0.000244	2.443557	0.827900	0.000098
 148	1.4627e+01	5.8811	12.441260	0.000250	2.504646	0.848597	0.000101
 149	1.4726e+01	5.9581	12.542688	0.000254	2.535190	0.858946	0.000102
 150	1.4825e+01	5.9629	12.643302	0.000251	2.514827	0.852047	0.000101
 151	1.4925e+01	5.9838	12.740657	0.000243	2.433376	0.824450	0.000098
 152	1.5024e+01	6.0592	12.841270	0.000251	2.514827	0.852047	0.000101
 153	1.5124e+01	6.0881	12.945957	0.000262	2.616642	0.886542	0.000105
 154	1.5223e+01	6.1169	13.038424	0.000231	2.311198	0.783055	0.000093
 155	1.5323e+01	6.1603	13.141889	0.000259	2.586098	0.876194	0.000104
 156	1.5422e+01	6.1955	13.240466	0.000246	2.463920	0.834799	0.000099
 157	1.5522e+01	6.2453	13.343931	0.000259	2.586098	0.876194	0.000104
 158	1.5621e+01	6.2661	13.443323	0.000248	2.484283	0.841698	0.000100
 159	1.5721e+01	6.3223	13.539048	0.000239	2.392650	0.810652	0.000096
 160	1.5820e+01	6.3560	13.645364	0.000266	2.657368	0.900341	0.000107
 161	1.5920e+01	6.4089	13.742719	0.000243	2.433376	0.824450	0.000098
 162	1.6020e+01	6.4266	13.844555	0.000255	2.545372	0.862395	0.000102
 163	1.6119e+01	6.4811	13.941910	0.000243	2.433376	0.824450	0.000098
 164	1.6218e+01	6.5164	14.037228	0.000238	2.382468	0.807202	0.000096
 165	1.6318e+01	6.5581	14.137027	0.000249	2.494464	0.845147	0.000100
 166	1.6418e+01	6.6014	14.242529	0.000264	2.637005	0.893442	0.000106
 167	1.6517e+01	6.6078	14.341106	0.000246	2.463920	0.834799	0.000099
 168	1.6616e+01	6.6961	14.442941	0.000255	2.545372	0.862395	0.000102
 169	1.6716e+01	6.7073	14.544369	0.000254	2.535190	0.858946	0.000102
 170	1.6816e+01	6.7442	14.643761	0.000248	2.484283	0.841698	0.000100
 171	1.6915e+01	6.7859	14.742338	0.000246	2.463920	0.834799	0.000099
 172	1.7015e+01	6.8421	14.849469	0.000268	2.677731	0.907240	0.000108
 173	1.7114e+01	6.8709	14.941121	0.000229	2.290835	0.776156	0.000092
 174	1.7213e+01	6.9094	15.044586	0.000259	2.586098	0.876194	0.000104
 175	1.7313e+01	6.9351	15.142756	0.000245	2.453739	0.831349	0.000099
 176	1.7413e+01	6.9848	15.249479	0.000267	2.667550	0.903790	0.000107
 177	1.7512e+01	7.0297	15.348871	0.000248	2.484283	0.841698	0.000100
 178	1.7611e+01	7.0715	15.451521	0.000257	2.565735	0.869295	0.000103
 179	1.7711e+01	7.1084	15.548062	0.000241	2.413013	0.817551	0.000097
 180	1.7811e+01	7.1693	15.654785	0.000267	2.667550	0.903790	0.000107
 181	1.7910e+01	7.1886	15.751733	0.000242	2.423194	0.821000	0.000097
 182	1.8009e+01	7.2351	15.855605	0.000260	2.596279	0.879643	0.000104
 183	1.8109e+01	7.2688	15.959885	0.000261	2.606461	0.883093	0.000105
 184	1.8209e+01	7.3105	16.057240	0.000243	2.433376	0.824450	0.000098
 185	1.8308e+01	7.3698	16.161519	0.000261	2.606461	0.883093	0.000105
 186	1.8407e+01	7.4003	16.259282	0.000244	2.443557	0.827900	0.000098
 187	1.8507e+01	7.4196	16.359081	0.000249	2.494464	0.845147	0.000100
 188	1.8607e+01	7.4741	16.460509	0.000254	2.535190	0.858946	0.000102
 189	1.8706e+01	7.5335	16.565603	0.000263	2.626824	0.889992	0.000106
 190	1.8805e+01	7.5383	16.667032	0.000254	2.535190	0.858946	0.000102
 191	1.8905e+01	7.5832	16.768052	0.000253	2.525009	0.855496	0.000102
 192	1.9005e+01	7.6394	16.869888	0.000255	2.545372	0.862395	0.000102
 193	1.9104e+01	7.6746	16.974168	0.000261	2.606461	0.883093	0.000105
 194	1.9203e+01	7.7051	17.080484	0.000266	2.657368	0.900341	0.000107
 195	1.9303e+01	7.7517	17.183949	0.000259	2.586098	0.876194	0.000104
 196	1.9402e+01	7.7837	17.282526	0.000246	2.463920	0.834799	0.000099
 197	1.9502e+01	7.8479	17.387620	0.000263	2.626824	0.889992	0.000106
 198	1.9602e+01	7.8607	17.491493	0.000260	2.596279	0.879643	0.000104
 199	1.9701e+01	7.8880	17.599439	0.000270	2.698094	0.914139	0.000108
 200	1.9800e+01	7.9538	17.694349	0.000237	2.372287	0.803752	0.000095
 201	1.9900e+01	7.9891	17.803110	0.000272	2.718457	0.921038	0.000109
 202	2.0000e+01	8.0260	17.906575	0.000259	2.586098	0.876194	0.000104
 203	2.0099e+01	8.0613	18.014928	0.000271	2.708276	0.917589	0.000109
 204	2.0198e+01	8.0950	18.112690	0.000244	2.443557	0.827900	0.000098
 205	2.0298e+01	8.1447	18.218192	0.000264	2.637005	0.893442	0.000106
 206	2.0398e+01	8.1896	18.323286	0.000263	2.626824	0.889992	0.000106
 207	2.0497e+01	8.2169	18.428788	0.000264	2.637005	0.893442	0.000106
 208	2.0596e+01	8.2538	18.528180	0.000248	2.484283	0.841698	0.000100
 209	2.0696e+01	8.3035	18.637755	0.000274	2.738820	0.927937	0.000110
 210	2.0796e+01	8.3500	18.744071	0.000266	2.657368	0.900341	0.000107
 211	2.0895e+01	8.3901	18.845092	0.000253	2.525009	0.855496	0.000102
 212	2.0994e+01	8.4431	18.952631	0.000269	2.687913	0.910689	0.000108
 213	2.1094e+01	8.4543	19.050800	0.000245	2.453739	0.831349	0.000099
 214	2.1194e+01	8.4912	19.157524	0.000267	2.667550	0.903790	0.000107
 215	2.1293e+01	8.5474	19.260582	0.000258	2.575916	0.872744	0.000104
 216	2.1392e+01	8.6163	19.370564	0.000275	2.749002	0.931387	0.000111
 217	2.1492e+01	8.6388	19.466290	0.000239	2.392650	0.810652	0.000096
 218	2.1591e+01	8.6773	19.574235	0.000270	2.698094	0.914139	0.000108
 219	2.1691e+01	8.7110	19.676886	0.000257	2.565735	0.869295	0.000103
 220	2.1791e+01	8.7447	19.785646	0.000272	2.718457	0.921038	0.000109
 221	2.1890e+01	8.7960	19.889111	0.000259	2.586098	0.876194	0.000104
 222	2.1989e+01	8.8121	19.991761	0.000257	2.565735	0.869295	0.000103
 223	2.2089e+01	8.8634	20.098893	0.000268	2.677731	0.907240	0.000108
 224	2.2189e+01	8.9324	20.201135	0.000256	2.555553	0.865845	0.000103
 225	2.2288e+01	8.9596	20.309081	0.000270	2.698094	0.914139	0.000108
 226	2.2387e+01	8.9789	20.409695	0.000251	2.514827	0.852047	0.000101
 227	2.2487e+01	9.0254	20.513975	0.000261	2.606461	0.883093	0.000105
 228	2.2587e+01	9.0928	20.624772	0.000277	2.769365	0.938286	0.000111
 229	2.2686e+01	9.1056	20.727015	0.000256	2.555553	0.865845	0.000103
 230	2.2785e+01	9.1217	20.832109	0.000263	2.626824	0.889992	0.000106
 231	2.2885e+01	9.1890	20.933945	0.000255	2.545372	0.862395	0.000102
 232	2.2985e+01	9.2420	21.042705	0.000272	2.718457	0.921038	0.000109
 233	2.3084e+01	9.2757	21.148614	0.000265	2.647187	0.896891	0.000106
 234	2.3183e+01	9.3046	21.256967	0.000271	2.708276	0.917589	0.000109
 235	2.3283e+01	9.3334	21.362876	0.000265	2.647187	0.896891	0.000106
 236	2.3383e+01	9.4008	21.465119	0.000256	2.555553	0.865845	0.000103
 237	2.3482e+01	9.4233	21.574287	0.000273	2.728639	0.924488	0.000110
 238	2.3581e+01	9.4618	21.681011	0.000267	2.667550	0.903790	0.000107
 239	2.3681e+01	9.5099	21.784883	0.000260	2.596279	0.879643	0.000104
 240	2.3780e+01	9.5500	21.890385	0.000264	2.637005	0.893442	0.000106
 241	2.3880e+01	9.5917	21.997516	0.000268	2.677731	0.907240	0.000108
 242	2.3980e+01	9.6286	22.104647	0.000268	2.677731	0.907240	0.000108
 243	2.4079e+01	9.6655	22.212186	0.000269	2.687913	0.910689	0.000108
 244	2.4178e+01	9.6928	22.312799	0.000251	2.514827	0.852047	0.000101
 245	2.4278e+01	9.7585	22.426855	0.000285	2.850817	0.965883	0.000115
 246	2.4378e+01	9.7842	22.525025	0.000245	2.453739	0.831349	0.000099
 247	2.4477e+01	9.8115	22.636229	0.000278	2.779546	0.941736	0.000112
 248	2.4576e+01	9.8708	22.733177	0.000242	2.423194	0.821000	0.000097
 249	2.4676e+01	9.8837	22.841937	0.000272	2.718457	0.921038	0.000109
 250	2.4776e+01	9.9591	22.946217	0.000261	2.606461	0.883093	0.000105
 251	2.4875e+01	9.9783	23.060680	0.000286	2.860998	0.969332	0.000115
 252	2.4974e+01	10.0056	23.154369	0.000234	2.341742	0.793404	0.000094
 253	2.5074e+01	10.0489	23.264759	0.000276	2.759183	0.934837	0.000111
 254	2.5174e+01	10.1002	23.367409	0.000257	2.565735	0.869295	0.000103
 255	2.5273e+01	10.1388	23.472911	0.000264	2.637005	0.893442	0.000106
 256	2.5372e+01	10.1901	23.579227	0.000266	2.657368	0.900341	0.000107
 257	2.5472e+01	10.2254	23.681878	0.000257	2.565735	0.869295	0.000103
 258	2.5572e+01	10.2735	23.790638	0.000272	2.718457	0.921038	0.000109
 259	2.5671e+01	10.3024	23.900621	0.000275	2.749002	0.931387	0.000111
 260	2.5770e+01	10.3425	24.006937	0.000266	2.657368	0.900341	0.000107
 261	2.5870e+01	10.3826	24.103884	0.000242	2.423194	0.821000	0.000097
 262	2.5970e+01	10.4179	24.213052	0.000273	2.728639	0.924488	0.000110
 263	2.6069e+01	10.4644	24.314888	0.000255	2.545372	0.862395	0.000102
 264	2.6169e+01	10.4997	24.424463	0.000274	2.738820	0.927937	0.000110
 265	2.6268e+01	10.5446	24.526299	0.000255	2.545372	0.862395	0.000102
 266	2.6367e+01	10.5847	24.633022	0.000267	2.667550	0.903790	0.000107
 267	2.6467e+01	10.6104	24.741783	0.000272	2.718457	0.921038	0.000109
 268	2.6567e+01	10.6585	24.842804	0.000253	2.525009	0.855496	0.000102
 269	2.6666e+01	10.6954	24.947898	0.000263	2.626824	0.889992	0.000106
 270	2.6765e+01	10.7419	25.056659	0.000272	2.718457	0.921038	0.000109
 271	2.6865e+01	10.7869	25.154828	0.000245	2.453739	0.831349	0.000099
 272	2.6965e+01	10.8398	25.264403	0.000274	2.738820	0.927937	0.000110
 273	2.7064e+01	10.8446	25.370312	0.000265	2.647187	0.896891	0.000106
 274	2.7163e+01	10.8959	25.466445	0.000240	2.402831	0.814101	0.000097
 275	2.7263e+01	10.9296	25.569503	0.000258	2.575916	0.872744	0.000104
 276	2.7363e+01	10.9762	25.673375	0.000260	2.596279	0.879643	0.000104
 277	2.7462e+01	10.9970	25.776433	0.000258	2.575916	0.872744	0.000104
 278	2.7561e+01	11.0564	25.881527	0.000263	2.626824	0.889992	0.000106
 279	2.7661e+01	11.1366	25.980919	0.000248	2.484283	0.841698	0.000100
 280	2.7761e+01	11.1350	26.088050	-0.000268	-2.677731	-0.907240	0.000108
 281	2.7860e+01	11.1751	26.186220	0.000245	2.453739	0.831349	0.000099
 282	2.7959e+01	11.2152	26.295387	0.000273	2.728639	0.924488	0.000110
 283	2.8059e+01	11.2521	26.390298	0.000237	2.372287	0.803752	0.000095
 284	2.8159e+01	11.2890	26.496207	0.000265	2.647187	0.896891	0.000106
 285	2.8258e+01	11.3580	26.596821	0.000251	2.514827	0.852047	0.000101
 286	2.8358e+01	11.3772	26.698249	0.000254	2.535190	0.858946	0.000102
 287	2.8457e+01	11.4414	26.800492	0.000256	2.555553	0.865845	0.000103
 288	2.8556e+01	11.4606	26.897440	0.000242	2.423194	0.821000	0.000097
 289	2.8656e+01	11.5007	27.001719	0.000261	2.606461	0.883093	0.000105
 290	2.8756e+01	11.5457	27.101926	0.000250	2.504646	0.848597	0.000101
 291	2.8855e+01	11.5810	27.203761	0.000255	2.545372	0.862395	0.000102
 292	2.8954e+01	11.6146	27.305190	0.000254	2.535190	0.858946	0.000102
 293	2.9054e+01	11.6548	27.409469	0.000261	2.606461	0.883093	0.000105
 294	2.9154e+01	11.6804	27.508861	0.000248	2.484283	0.841698	0.000100
 295	2.9253e+01	11.7237	27.611919	0.000258	2.575916	0.872744	0.000104
 296	2.9352e+01	11.7799	27.709273	0.000243	2.433376	0.824450	0.000098
 297	2.9452e+01	11.8088	27.809887	0.000251	2.514827	0.852047	0.000101
 298	2.9552e+01	11.8569	27.912945	0.000258	2.575916	0.872744	0.000104
 299	2.9651e+01	11.9114	28.014780	0.000255	2.545372	0.862395	0.000102
 300	2.9750e+01	11.9323	28.116209	0.000254	2.535190	0.858946	0.000102
 301	2.9850e+01	11.9708	28.218044	0.000255	2.545372	0.862395	0.000102
 302	2.9950e+01	12.0269	28.311326	0.000233	2.331561	0.789954	0.000094
 303	3.0049e+01	12.0478	28.416420	0.000263	2.626824	0.889992	0.000106
 304	3.0148e+01	12.0911	28.517441	0.000253	2.525009	0.855496	0.000102
 305	3.0248e+01	12.1328	28.620091	0.000257	2.565735	0.869295	0.000103
 306	3.0348e+01	12.1793	28.720298	0.000250	2.504646	0.848597	0.000101
 307	3.0447e+01	12.2034	28.820911	0.000251	2.514827	0.852047	0.000101
 308	3.0547e+01	12.2403	28.923154	0.000256	2.555553	0.865845	0.000103
 309	3.0646e+01	12.3029	29.024582	0.000254	2.535190	0.858946	0.000102
 310	3.0745e+01	12.3237	29.118271	0.000234	2.341742	0.793404	0.000094
 311	3.0845e+01	12.3606	29.221329	0.000258	2.575916	0.872744	0.000104
 312	3.0945e+01	12.4232	29.322350	0.000253	2.525009	0.855496	0.000102
 313	3.1044e+01	12.4521	29.428666	0.000266	2.657368	0.900341	0.000107
 314	3.1143e+01	12.4890	29.526836	0.000245	2.453739	0.831349	0.000099
 315	3.1243e+01	12.5307	29.619710	0.000232	2.321379	0.786505	0.000093
 316	3.1343e+01	12.5852	29.721138	0.000254	2.535190	0.858946	0.000102
 317	3.1442e+01	12.5932	29.821752	0.000251	2.514827	0.852047	0.000101
 318	3.1541e+01	12.6847	29.918292	0.000241	2.413013	0.817551	0.000097
 319	3.1641e+01	12.6895	30.016869	0.000246	2.463920	0.834799	0.000099
 320	3.1741e+01	12.7360	30.115039	0.000245	2.453739	0.831349	0.000099
 321	3.1840e+01	12.7681	30.215245	0.000250	2.504646	0.848597	0.000101
 322	3.1939e+01	12.8098	30.313414	0.000245	2.453739	0.831349	0.000099
 323	3.2039e+01	12.8435	30.411177	0.000244	2.443557	0.827900	0.000098
 324	3.2139e+01	12.8852	30.508124	0.000242	2.423194	0.821000	0.000097
 325	3.2238e+01	12.9526	30.609552	0.000254	2.535190	0.858946	0.000102
 326	3.2337e+01	12.9606	30.704871	0.000238	2.382468	0.807202	0.000096
 327	3.2437e+01	13.0087	30.796930	0.000230	2.301016	0.779605	0.000093
 328	3.2536e+01	13.0360	30.895914	0.000247	2.474101	0.838248	0.000099
 329	3.2636e+01	13.0665	30.994084	0.000245	2.453739	0.831349	0.000099
 330	3.2736e+01	13.1435	31.095919	0.000255	2.545372	0.862395	0.000102
 331	3.2835e+01	13.1675	31.191645	0.000239	2.392650	0.810652	0.000096
 332	3.2934e+01	13.2189	31.291444	0.000249	2.494464	0.845147	0.000100
 333	3.3034e+01	13.2494	31.388391	0.000242	2.423194	0.821000	0.000097
 334	3.3133e+01	13.2895	31.486968	0.000246	2.463920	0.834799	0.000099
 335	3.3233e+01	13.3087	31.590841	0.000260	2.596279	0.879643	0.000104
 336	3.3333e+01	13.3761	31.685751	0.000237	2.372287	0.803752	0.000095
 337	3.3432e+01	13.4226	31.785550	0.000249	2.494464	0.845147	0.000100
 338	3.3532e+01	13.4322	31.881276	0.000239	2.392650	0.810652	0.000096
 339	3.3631e+01	13.4820	31.982704	0.000254	2.535190	0.858946	0.000102
 340	3.3730e+01	13.5285	32.082503	0.000249	2.494464	0.845147	0.000100
 341	3.3830e+01	13.5558	32.176599	0.000235	2.351924	0.796853	0.000095
 342	3.3929e+01	13.6055	32.276398	0.000249	2.494464	0.845147	0.000100
 343	3.4029e+01	13.6424	32.379048	0.000257	2.565735	0.869295	0.000103
 344	3.4129e+01	13.6729	32.473959	0.000237	2.372287	0.803752	0.000095
 345	3.4228e+01	13.7354	32.571721	0.000244	2.443557	0.827900	0.000098
 346	3.4328e+01	13.7675	32.667447	0.000239	2.392650	0.810652	0.000096
 347	3.4427e+01	13.8044	32.773763	0.000266	2.657368	0.900341	0.000107
 348	3.4526e+01	13.8493	32.871933	0.000245	2.453739	0.831349	0.000099
 349	3.4626e+01	13.8718	32.971324	0.000248	2.484283	0.841698	0.000100
 350	3.4725e+01	13.9279	33.064606	0.000233	2.331561	0.789954	0.000094
 351	3.4825e+01	13.9552	33.167256	0.000257	2.565735	0.869295	0.000103
 352	3.4925e+01	14.0114	33.267055	0.000249	2.494464	0.845147	0.000100
 353	3.5024e+01	14.0386	33.366854	0.000249	2.494464	0.845147	0.000100
 354	3.5123e+01	14.0852	33.457284	0.000226	2.260290	0.765807	0.000091
 355	3.5223e+01	14.1172	33.561564	0.000261	2.606461	0.883093	0.000105
 356	3.5322e+01	14.1638	33.662585	0.000253	2.525009	0.855496	0.000102
 357	3.5422e+01	14.2087	33.764828	0.000256	2.555553	0.865845	0.000103
 358	3.5522e+01	14.2472	33.858924	0.000235	2.351924	0.796853	0.000095
 359	3.5621e+01	14.2761	33.961574	0.000257	2.565735	0.869295	0.000103
 360	3.5721e+01	14.3290	34.058929	0.000243	2.433376	0.824450	0.000098
 361	3.5820e+01	14.3675	34.161987	0.000258	2.575916	0.872744	0.000104
 362	3.5919e+01	14.4076	34.259342	0.000243	2.433376	0.824450	0.000098
 363	3.6019e+01	14.4429	34.364843	0.000264	2.637005	0.893442	0.000106
 364	3.6118e+01	14.4830	34.462606	0.000244	2.443557	0.827900	0.000098
 365	3.6218e+01	14.5247	34.564441	0.000255	2.545372	0.862395	0.000102
 366	3.6318e+01	14.5632	34.666277	0.000255	2.545372	0.862395	0.000102
 367	3.6417e+01	14.5969	34.761188	0.000237	2.372287	0.803752	0.000095
 368	3.6517e+01	14.6354	34.867911	0.000267	2.667550	0.903790	0.000107
 369	3.6616e+01	14.6835	34.965674	0.000244	2.443557	0.827900	0.000098
 370	3.6715e+01	14.7204	35.071583	0.000265	2.647187	0.896891	0.000106
 371	3.6815e+01	14.7798	35.167308	0.000239	2.392650	0.810652	0.000096
 372	3.6914e+01	14.7878	35.272810	0.000264	2.637005	0.893442	0.000106
 373	3.7014e+01	14.8295	35.371794	0.000247	2.474101	0.838248	0.000099
 374	3.7114e+01	14.8905	35.473630	0.000255	2.545372	0.862395	0.000102
 375	3.7213e+01	14.9017	35.579131	0.000264	2.637005	0.893442	0.000106
 376	3.7313e+01	14.9514	35.675672	0.000241	2.413013	0.817551	0.000097
 377	3.7412e+01	15.0092	35.772619	0.000242	2.423194	0.821000	0.000097
 378	3.7511e+01	15.0509	35.880158	0.000269	2.687913	0.910689	0.000108
 379	3.7611e+01	15.0734	35.979142	0.000247	2.474101	0.838248	0.000099
 380	3.7711e+01	15.1279	36.073645	0.000236	2.362105	0.800303	0.000095
 381	3.7810e+01	15.1760	36.179554	0.000265	2.647187	0.896891	0.000106
 382	3.7910e+01	15.2145	36.282205	0.000257	2.565735	0.869295	0.000103
 383	3.8009e+01	15.2354	36.379560	0.000243	2.433376	0.824450	0.000098
 384	3.8108e+01	15.2980	36.486691	0.000268	2.677731	0.907240	0.000108
 385	3.8208e+01	15.3252	36.582009	0.000238	2.382468	0.807202	0.000096
 386	3.8307e+01	15.3477	36.688733	0.000267	2.667550	0.903790	0.000107
 387	3.8407e+01	15.3990	36.794642	0.000265	2.647187	0.896891	0.000106
 388	3.8507e+01	15.4472	36.894033	0.000248	2.484283	0.841698	0.000100
 389	3.8606e+01	15.4680	36.988944	0.000237	2.372287	0.803752	0.000095
 390	3.8706e+01	15.5161	37.089558	0.000251	2.514827	0.852047	0.000101
 391	3.8805e+01	15.5755	37.190579	0.000253	2.525009	0.855496	0.000102
 392	3.8904e+01	15.6124	37.298932	0.000271	2.708276	0.917589	0.000109
 393	3.9004e+01	15.6236	37.398731	0.000249	2.494464	0.845147	0.000100
 394	3.9103e+01	15.6894	37.492419	0.000234	2.341742	0.793404	0.000094
 395	3.9203e+01	15.7086	37.598329	0.000265	2.647187	0.896891	0.000106
 396	3.9303e+01	15.7423	37.700979	0.000257	2.565735	0.869295	0.000103
 397	3.9402e+01	15.7712	37.806888	0.000265	2.647187	0.896891	0.000106
 398	3.9502e+01	15.8434	37.901391	0.000236	2.362105	0.800303	0.000095
 399	3.9601e+01	15.8739	38.006486	0.000263	2.626824	0.889992	0.000106
 400	3.9700e+01	15.9204	38.106285	0.000249	2.494464	0.845147	0.000100
 401	3.9800e+01	15.9589	38.219526	0.000283	2.830454	0.958984	0.000114
 402	3.9900e+01	15.9990	38.314029	0.000236	2.362105	0.800303	0.000095
 403	3.9999e+01	16.0327	38.415458	0.000254	2.535190	0.858946	0.000102
 404	4.0099e+01	16.0696	38.516886	0.000254	2.535190	0.858946	0.000102
 405	4.0198e+01	16.1145	38.621166	0.000261	2.606461	0.883093	0.000105
 406	4.0297e+01	16.1642	38.723001	0.000255	2.545372	0.862395	0.000102
 407	4.0397e+01	16.1979	38.825244	0.000256	2.555553	0.865845	0.000103
 408	4.0496e+01	16.2252	38.923821	0.000246	2.463920	0.834799	0.000099
 409	4.0596e+01	16.2637	39.032989	0.000273	2.728639	0.924488	0.000110
 410	4.0696e+01	16.3118	39.136454	0.000259	2.586098	0.876194	0.000104
 411	4.0795e+01	16.3584	39.239104	0.000257	2.565735	0.869295	0.000103
 412	4.0895e+01	16.3872	39.337274	0.000245	2.453739	0.831349	0.000099
 413	4.0994e+01	16.4482	39.440739	0.000259	2.586098	0.876194	0.000104
 414	4.1093e+01	16.4755	39.547463	0.000267	2.667550	0.903790	0.000107
 415	4.1193e+01	16.5140	39.641151	0.000234	2.341742	0.793404	0.000094
 416	4.1292e+01	16.5557	39.748283	0.000268	2.677731	0.907240	0.000108
 417	4.1392e+01	16.6054	39.846045	0.000244	2.443557	0.827900	0.000098
 418	4.1492e+01	16.6503	39.951954	0.000265	2.647187	0.896891	0.000106
 419	4.1591e+01	16.6744	40.052567	0.000251	2.514827	0.852047	0.000101
 420	4.1691e+01	16.7193	40.149108	0.000241	2.413013	0.817551	0.000097
 421	4.1790e+01	16.7546	40.249314	0.000250	2.504646	0.848597	0.000101
 422	4.1889e+01	16.7995	40.354001	0.000262	2.616642	0.886542	0.000105
 423	4.1989e+01	16.8316	40.456244	0.000256	2.555553	0.865845	0.000103
 424	4.2089e+01	16.8525	40.556857	0.000251	2.514827	0.852047	0.000101
 425	4.2188e+01	16.9054	40.658286	0.000254	2.535190	0.858946	0.000102
 426	4.2288e+01	16.9664	40.758492	0.000250	2.504646	0.848597	0.000101
 427	4.2387e+01	16.9936	40.861142	0.000257	2.565735	0.869295	0.000103
 428	4.2486e+01	17.0434	40.962571	0.000254	2.535190	0.858946	0.000102
 429	4.2586e+01	17.0658	41.066036	0.000259	2.586098	0.876194	0.000104
 430	4.2685e+01	17.1156	41.163798	0.000244	2.443557	0.827900	0.000098
 431	4.2785e+01	17.1589	41.264819	0.000253	2.525009	0.855496	0.000102
 432	4.2885e+01	17.1974	41.371950	0.000268	2.677731	0.907240	0.000108
 433	4.2984e+01	17.2359	41.469305	0.000243	2.433376	0.824450	0.000098
 434	4.3084e+01	17.2648	41.569918	0.000251	2.514827	0.852047	0.000101
 435	4.3183e+01	17.3081	41.671347	0.000254	2.535190	0.858946	0.000102
 436	4.3282e+01	17.3498	41.777256	0.000265	2.647187	0.896891	0.000106
 437	4.3382e+01	17.4075	41.872981	0.000239	2.392650	0.810652	0.000096
 438	4.3481e+01	17.4348	41.974002	0.000253	2.525009	0.855496	0.000102
 439	4.3581e+01	17.4605	42.079097	0.000263	2.626824	0.889992	0.000106
 440	4.3681e+01	17.5359	42.179710	0.000251	2.514827	0.852047	0.000101
 441	4.3780e+01	17.5599	42.282768	0.000258	2.575916	0.872744	0.000104
 442	4.3880e+01	17.5920	42.373198	0.000226	2.260290	0.765807	0.000091
 443	4.3979e+01	17.6305	42.474626	0.000254	2.535190	0.858946	0.000102
 444	4.4078e+01	17.6786	42.571981	0.000243	2.433376	0.824450	0.000098
 445	4.4178e+01	17.7188	42.675853	0.000260	2.596279	0.879643	0.000104
 446	4.4278e+01	17.7380	42.774430	0.000246	2.463920	0.834799	0.000099
 447	4.4377e+01	17.7781	42.868526	0.000235	2.351924	0.796853	0.000095
 448	4.4477e+01	17.8182	42.965881	0.000243	2.433376	0.824450	0.000098
 449	4.4576e+01	17.8599	43.068532	0.000257	2.565735	0.869295	0.000103
 450	4.4675e+01	17.9081	43.161813	0.000233	2.331561	0.789954	0.000094
 451	4.4775e+01	17.9530	43.262427	0.000251	2.514827	0.852047	0.000101
 452	4.4874e+01	18.0043	43.361004	0.000246	2.463920	0.834799	0.000099
 453	4.4974e+01	18.0300	43.456322	0.000238	2.382468	0.807202	0.000096
 454	4.5074e+01	18.0701	43.556935	0.000251	2.514827	0.852047	0.000101
 455	4.5173e+01	18.1118	43.655512	0.000246	2.463920	0.834799	0.000099
 456	4.5273e+01	18.1439	43.748386	0.000232	2.321379	0.786505	0.000093
 457	4.5372e+01	18.1631	43.844112	0.000239	2.392650	0.810652	0.000096
 458	4.5471e+01	18.2321	43.943911	0.000249	2.494464	0.845147	0.000100
 459	4.5571e+01	18.2690	44.040858	0.000242	2.423194	0.821000	0.000097
 460	4.5670e+01	18.3187	44.133732	0.000232	2.321379	0.786505	0.000093
 461	4.5770e+01	18.3604	44.234346	0.000251	2.514827	0.852047	0.000101
 462	4.5870e+01	18.4022	44.330072	0.000239	2.392650	0.810652	0.000096
 463	4.5969e+01	18.4294	44.434351	0.000261	2.606461	0.883093	0.000105
 464	4.6069e+01	18.4551	44.529669	0.000238	2.382468	0.807202	0.000096
 465	4.6168e+01	18.5048	44.624988	0.000238	2.382468	0.807202	0.000096
 466	4.6267e+01	18.5401	44.726008	0.000253	2.525009	0.855496	0.000102
 467	4.6367e+01	18.5738	44.817253	0.000228	2.280653	0.772706	0.000092
 468	4.6467e+01	18.6155	44.914608	0.000243	2.433376	0.824450	0.000098
 469	4.6566e+01	18.6701	45.010334	0.000239	2.392650	0.810652	0.000096
 470	4.6666e+01	18.7134	45.110540	0.000250	2.504646	0.848597	0.000101
 471	4.6765e+01	18.7471	45.209524	0.000247	2.474101	0.838248	0.000099
 472	4.6864e+01	18.7936	45.304028	0.000236	2.362105	0.800303	0.000095
 473	4.6964e+01	18.8177	45.397309	0.000233	2.331561	0.789954	0.000094
 474	4.7063e+01	18.8690	45.496701	0.000248	2.484283	0.841698	0.000100
 475	4.7163e+01	18.9075	45.594870	0.000245	2.453739	0.831349	0.000099
 476	4.7263e+01	18.9492	45.691003	0.000240	2.402831	0.814101	0.000097
 477	4.7362e+01	18.9893	45.784692	0.000234	2.341742	0.793404	0.000094
 478	4.7462e+01	19.0214	45.881232	0.000241	2.413013	0.817551	0.000097
 479	4.7561e+01	19.0551	45.976957	0.000239	2.392650	0.810652	0.000096
 480	4.7660e+01	19.1064	46.076349	0.000248	2.484283	0.841698	0.000100
 481	4.7760e+01	19.1369	46.165964	0.000224	2.239927	0.758908	0.000090
 482	4.7859e+01	19.1995	46.264134	0.000245	2.453739	0.831349	0.000099
 483	4.7959e+01	19.2235	46.358230	0.000235	2.351924	0.796853	0.000095
 484	4.8059e+01	19.2556	46.454770	0.000241	2.413013	0.817551	0.000097
 485	4.8158e+01	19.2973	46.545200	0.000226	2.260290	0.765807	0.000091
 486	4.8258e+01	19.3583	46.640926	0.000239	2.392650	0.810652	0.000096
 487	4.8357e+01	19.4000	46.739910	0.000247	2.474101	0.838248	0.000099
 488	4.8456e+01	19.4337	46.830340	0.000226	2.260290	0.765807	0.000091
 489	4.8556e+01	19.4609	46.922400	0.000230	2.301016	0.779605	0.000093
 490	4.8656e+01	19.5155	47.014459	0.000230	2.301016	0.779605	0.000093
 491	4.8755e+01	19.5347	47.115073	0.000251	2.514827	0.852047	0.000101
 492	4.8855e+01	19.5893	47.212020	0.000242	2.423194	0.821000	0.000097
 493	4.8954e+01	19.6342	47.305302	0.000233	2.331561	0.789954	0.000094
 494	4.9053e+01	19.6679	47.395324	0.000225	2.250109	0.762357	0.000090
 495	4.9153e+01	19.7064	47.490642	0.000238	2.382468	0.807202	0.000096
 496	4.9252e+01	19.7385	47.581887	0.000228	2.280653	0.772706	0.000092
 497	4.9352e+01	19.7866	47.679649	0.000244	2.443557	0.827900	0.000098
 498	4.9452e+01	19.8203	47.773745	0.000235	2.351924	0.796853	0.000095
 499	4.9551e+01	19.8700	47.868656	0.000237	2.372287	0.803752	0.000095
 500	4.9651e+01	19.9037	47.961938	0.000233	2.331561	0.789954	0.000094
 501	4.9750e+01	19.9422	48.057256	0.000238	2.382468	0.807202	0.000096
 502	4.9849e+01	19.9791	48.151759	0.000236	2.362105	0.800303	0.000095
 503	4.9949e+01	20.0208	48.250336	0.000246	2.463920	0.834799	0.000099
 504	5.0048e+01	19.9855	48.173348	0.000192	1.924301	0.651971	-0.000077
 505	5.0148e+01	19.9534	48.091473	0.000205	2.046479	0.693366	-0.000082
 506	5.0248e+01	19.9069	48.008375	0.000208	2.077023	0.703715	-0.000084
 507	5.0347e+01	19.8780	47.926092	0.000206	2.056660	0.696815	-0.000083
 508	5.0447e+01	19.8347	47.846252	0.000200	1.995572	0.676118	-0.000080
 509	5.0546e+01	19.7818	47.761525	0.000212	2.117749	0.717513	-0.000085
 510	5.0645e+01	19.7337	47.669873	0.000229	2.290835	0.776156	-0.000092
 511	5.0745e+01	19.7032	47.587997	0.000205	2.046479	0.693366	-0.000082
 512	5.0844e+01	19.6984	47.501641	0.000216	2.158475	0.731311	-0.000087
 513	5.0944e+01	19.6326	47.419765	0.000205	2.046479	0.693366	-0.000082
 514	5.1044e+01	19.5797	47.331371	0.000221	2.209383	0.748559	-0.000089
 515	5.1143e+01	19.5412	47.242571	0.000222	2.219564	0.752009	-0.000089
 516	5.1242e+01	19.5091	47.157029	0.000214	2.138112	0.724412	-0.000086
 517	5.1342e+01	19.4481	47.073524	0.000209	2.087205	0.707164	-0.000084
 518	5.1441e+01	19.4096	46.983908	0.000224	2.239927	0.758908	-0.000090
 519	5.1541e+01	19.3759	46.896330	0.000219	2.189020	0.741660	-0.000088
 520	5.1641e+01	19.3454	46.807936	0.000221	2.209383	0.748559	-0.000089
 521	5.1740e+01	19.2845	46.723209	0.000212	2.117749	0.717513	-0.000085
 522	5.1840e+01	19.2636	46.637260	0.000215	2.148294	0.727862	-0.000086
 523	5.1939e+01	19.2412	46.546830	0.000226	2.260290	0.765807	-0.000091
 524	5.2038e+01	19.1722	46.460066	0.000217	2.168657	0.734761	-0.000087
 525	5.2138e+01	19.1433	46.366784	0.000233	2.331561	0.789954	-0.000094
 526	5.2237e+01	19.1128	46.285723	0.000203	2.026116	0.686467	-0.000081
 527	5.2337e+01	19.0503	46.194886	0.000227	2.270472	0.769257	-0.000091
 528	5.2437e+01	19.0374	46.110973	0.000210	2.097386	0.710614	-0.000084
 529	5.2536e+01	18.9829	46.022580	0.000221	2.209383	0.748559	-0.000089
 530	5.2636e+01	18.9508	45.940704	0.000205	2.046479	0.693366	-0.000082
 531	5.2735e+01	18.8995	45.849052	0.000229	2.290835	0.776156	-0.000092
 532	5.2834e+01	18.8642	45.763510	0.000214	2.138112	0.724412	-0.000086
 533	5.2934e+01	18.8417	45.672673	0.000227	2.270472	0.769257	-0.000091
 534	5.3033e+01	18.7936	45.583465	0.000223	2.229746	0.755458	-0.000090
 535	5.3133e+01	18.7406	45.497108	0.000216	2.158475	0.731311	-0.000087
 536	5.3233e+01	18.7086	45.412381	0.000212	2.117749	0.717513	-0.000085
 537	5.3332e+01	18.6717	45.323173	0.000223	2.229746	0.755458	-0.000090
 538	5.3431e+01	18.6171	45.236409	0.000217	2.168657	0.734761	-0.000087
 539	5.3531e+01	18.5898	45.152089	0.000211	2.107568	0.714063	-0.000085
 540	5.3630e+01	18.5481	45.059215	0.000232	2.321379	0.786505	-0.000093
 541	5.3730e+01	18.4888	44.972451	0.000217	2.168657	0.734761	-0.000087
 542	5.3830e+01	18.4808	44.881613	0.000227	2.270472	0.769257	-0.000091
 543	5.3929e+01	18.4038	44.801774	0.000200	1.995572	0.676118	-0.000080
 544	5.4029e+01	18.3797	44.708493	0.000233	2.331561	0.789954	-0.000094
 545	5.4128e+01	18.3540	44.619692	0.000222	2.219564	0.752009	-0.000089
 546	5.4227e+01	18.2834	44.530077	0.000224	2.239927	0.758908	-0.000090
 547	5.4327e+01	18.2626	44.439239	0.000227	2.270472	0.769257	-0.000091
 548	5.4426e+01	18.2273	44.354105	0.000213	2.127931	0.720963	-0.000086
 549	5.4526e+01	18.1792	44.265304	0.000222	2.219564	0.752009	-0.000089
 550	5.4626e+01	18.1471	44.173245	0.000230	2.301016	0.779605	-0.000093
 551	5.4725e+01	18.0990	44.088517	0.000212	2.117749	0.717513	-0.000085
 552	5.4825e+01	18.0653	44.001346	0.000218	2.178838	0.738210	-0.000088
 553	5.4924e+01	18.0348	43.915804	0.000214	2.138112	0.724412	-0.000086
 554	5.5023e+01	17.9899	43.826189	0.000224	2.239927	0.758908	-0.000090
 555	5.5123e+01	17.9337	43.734129	0.000230	2.301016	0.779605	-0.000093
 556	5.5222e+01	17.9145	43.644514	0.000224	2.239927	0.758908	-0.000090
 557	5.5322e+01	17.8760	43.562638	0.000205	2.046479	0.693366	-0.000082
 558	5.5422e+01	17.8327	43.468949	0.000234	2.341742	0.793404	-0.000094
 559	5.5521e+01	17.7813	43.379741	0.000223	2.229746	0.755458	-0.000090
 560	5.5620e+01	17.7412	43.286053	0.000234	2.341742	0.793404	-0.000094
 561	5.5720e+01	17.7027	43.205399	0.000202	2.015935	0.683017	-0.000081
 562	5.5819e+01	17.6578	43.116598	0.000222	2.219564	0.752009	-0.000089
 563	5.5919e+01	17.6305	43.026983	0.000224	2.239927	0.758908	-0.000090
 564	5.6019e+01	17.5856	42.932072	0.000237	2.372287	0.803752	-0.000095
 565	5.6118e+01	17.5680	42.849789	0.000206	2.056660	0.696815	-0.000083
 566	5.6218e+01	17.5006	42.755693	0.000235	2.351924	0.796853	-0.000095
 567	5.6317e+01	17.4589	42.674224	0.000204	2.036298	0.689916	-0.000082
 568	5.6416e+01	17.4300	42.585016	0.000223	2.229746	0.755458	-0.000090
 569	5.6516e+01	17.3947	42.494179	0.000227	2.270472	0.769257	-0.000091
 570	5.6615e+01	17.3530	42.407415	0.000217	2.168657	0.734761	-0.000087
 571	5.6715e+01	17.3017	42.316985	0.000226	2.260290	0.765807	-0.000091
 572	5.6815e+01	17.2551	42.231035	0.000215	2.148294	0.727862	-0.000086
 573	5.6914e+01	17.2279	42.138161	0.000232	2.321379	0.786505	-0.000093
 574	5.7014e+01	17.1974	42.055063	0.000208	2.077023	0.703715	-0.000084
 575	5.7113e+01	17.1573	41.963819	0.000228	2.280653	0.772706	-0.000092
 576	5.7212e+01	17.1140	41.876240	0.000219	2.189020	0.741660	-0.000088
 577	5.7312e+01	17.0498	41.783773	0.000231	2.311198	0.783055	-0.000093
 578	5.7411e+01	17.0418	41.696195	0.000219	2.189020	0.741660	-0.000088
 579	5.7511e+01	16.9840	41.610245	0.000215	2.148294	0.727862	-0.000086
 580	5.7611e+01	16.9696	41.526333	0.000210	2.097386	0.710614	-0.000084
 581	5.7710e+01	16.9198	41.433459	0.000232	2.321379	0.786505	-0.000093
 582	5.7809e+01	16.8733	41.341399	0.000230	2.301016	0.779605	-0.000093
 583	5.7909e+01	16.8300	41.254228	0.000218	2.178838	0.738210	-0.000088
 584	5.8008e+01	16.7995	41.169908	0.000211	2.107568	0.714063	-0.000085
 585	5.8108e+01	16.7482	41.076219	0.000234	2.341742	0.793404	-0.000094
 586	5.8208e+01	16.7129	40.987011	0.000223	2.229746	0.755458	-0.000090
 587	5.8307e+01	16.6680	40.900247	0.000217	2.168657	0.734761	-0.000087
 588	5.8407e+01	16.6535	40.807373	0.000232	2.321379	0.786505	-0.000093
 589	5.8506e+01	16.5846	40.712055	0.000238	2.382468	0.807202	-0.000096
 590	5.8605e+01	16.5637	40.619996	0.000230	2.301016	0.779605	-0.000093
 591	5.8705e+01	16.5124	40.533639	0.000216	2.158475	0.731311	-0.000087
 592	5.8804e+01	16.4787	40.444838	0.000222	2.219564	0.752009	-0.000089
 593	5.8904e+01	16.4289	40.360518	0.000211	2.107568	0.714063	-0.000085
 594	5.9004e+01	16.3888	40.268866	0.000229	2.290835	0.776156	-0.000092
 595	5.9103e+01	16.3391	40.176400	0.000231	2.311198	0.783055	-0.000093
 596	5.9203e+01	16.3199	40.088821	0.000219	2.189020	0.741660	-0.000088
 597	5.9302e+01	16.2894	39.997983	0.000227	2.270472	0.769257	-0.000091
 598	5.9401e+01	16.2268	39.901036	0.000242	2.423194	0.821000	-0.000097
 599	5.9501e+01	16.2060	39.814272	0.000217	2.168657	0.734761	-0.000087
 600	5.9600e+01	16.1370	39.721398	0.000232	2.321379	0.786505	-0.000093
 601	5.9700e+01	16.1177	39.636263	0.000213	2.127931	0.720963	-0.000086
 602	5.9800e+01	16.0632	39.548685	0.000219	2.189020	0.741660	-0.000088
 603	5.9899e+01	16.0375	39.453366	0.000238	2.382468	0.807202	-0.000096
 604	5.9998e+01	15.9717	39.360085	0.000233	2.331561	0.789954	-0.000094
 605	6.0098e+01	15.9557	39.277395	0.000207	2.066842	0.700265	-0.000083
 606	6.0197e+01	15.9236	39.180447	0.000242	2.423194	0.821000	-0.000097
 607	6.0297e+01	15.8691	39.089610	0.000227	2.270472	0.769257	-0.000091
 608	6.0397e+01	15.8402	38.992255	0.000243	2.433376	0.824450	-0.000098
 609	6.0496e+01	15.8065	38.904676	0.000219	2.189020	0.741660	-0.000088
 610	6.0596e+01	15.7600	38.813839	0.000227	2.270472	0.769257	-0.000091
 611	6.0695e+01	15.7247	38.722594	0.000228	2.280653	0.772706	-0.000092
 612	6.0794e+01	15.6766	38.625239	0.000243	2.433376	0.824450	-0.000098
 613	6.0894e+01	15.6284	38.535624	0.000224	2.239927	0.758908	-0.000090
 614	6.0993e+01	15.6156	38.440713	0.000237	2.372287	0.803752	-0.000095
 615	6.1093e+01	15.5530	38.351912	0.000222	2.219564	0.752009	-0.000089
 616	6.1193e+01	15.5210	38.253743	0.000245	2.453739	0.831349	-0.000099
 617	6.1292e+01	15.4921	38.158425	0.000238	2.382468	0.807202	-0.000096
 618	6.1392e+01	15.4439	38.066772	0.000229	2.290835	0.776156	-0.000092
 619	6.1491e+01	15.4151	37.974306	0.000231	2.311198	0.783055	-0.000093
 620	6.1590e+01	15.3429	37.874914	0.000248	2.484283	0.841698	-0.000100
 621	6.1690e+01	15.3156	37.773486	0.000254	2.535190	0.858946	-0.000102
 622	6.1789e+01	15.2980	37.677353	0.000240	2.402831	0.814101	-0.000097
 623	6.1889e+01	15.2563	37.588552	0.000222	2.219564	0.752009	-0.000089
 624	6.1989e+01	15.2097	37.498937	0.000224	2.239927	0.758908	-0.000090
 625	6.2088e+01	15.1472	37.400360	0.000246	2.463920	0.834799	-0.000099
 626	6.2188e+01	15.1199	37.304635	0.000239	2.392650	0.810652	-0.000096
 627	6.2287e+01	15.1119	37.209724	0.000237	2.372287	0.803752	-0.000095
 628	6.2386e+01	15.0317	37.117664	0.000230	2.301016	0.779605	-0.000093
 629	6.2486e+01	15.0140	37.017051	0.000251	2.514827	0.852047	-0.000101
 630	6.2586e+01	14.9434	36.923362	0.000234	2.341742	0.793404	-0.000094
 631	6.2685e+01	14.9258	36.833339	0.000225	2.250109	0.762357	-0.000090
 632	6.2785e+01	14.8921	36.731504	0.000255	2.545372	0.862395	-0.000102
 633	6.2884e+01	14.8359	36.634963	0.000241	2.413013	0.817551	-0.000097
 634	6.2983e+01	14.8119	36.546570	0.000221	2.209383	0.748559	-0.000089
 635	6.3083e+01	14.7670	36.445142	0.000254	2.535190	0.858946	-0.000102
 636	6.3182e+01	14.7220	36.354304	0.000227	2.270472	0.769257	-0.000091
 637	6.3282e+01	14.6835	36.251654	0.000257	2.565735	0.869295	-0.000103
 638	6.3382e+01	14.6418	36.163261	0.000221	2.209383	0.748559	-0.000089
 639	6.3481e+01	14.6081	36.064276	0.000247	2.474101	0.838248	-0.000099
 640	6.3581e+01	14.5712	35.969773	0.000236	2.362105	0.800303	-0.000095
 641	6.3680e+01	14.5279	35.869159	0.000251	2.514827	0.852047	-0.000101
 642	6.3779e+01	14.5023	35.778322	0.000227	2.270472	0.769257	-0.000091
 643	6.3879e+01	14.4445	35.680152	0.000245	2.453739	0.831349	-0.000099
 644	6.3978e+01	14.3996	35.580761	0.000248	2.484283	0.841698	-0.000100
 645	6.4078e+01	14.3434	35.488294	0.000231	2.311198	0.783055	-0.000093
 646	6.4177e+01	14.3226	35.388495	0.000249	2.494464	0.845147	-0.000100
 647	6.4277e+01	14.2777	35.291548	0.000242	2.423194	0.821000	-0.000097
 648	6.4376e+01	14.2360	35.186861	0.000262	2.616642	0.886542	-0.000105
 649	6.4476e+01	14.2071	35.099282	0.000219	2.189020	0.741660	-0.000088
 650	6.4576e+01	14.1814	34.999890	0.000248	2.484283	0.841698	-0.000100
 651	6.4675e+01	14.1381	34.900499	0.000248	2.484283	0.841698	-0.000100
 652	6.4775e+01	14.0900	34.801107	0.000248	2.484283	0.841698	-0.000100
 653	6.4874e+01	14.0515	34.705789	0.000238	2.382468	0.807202	-0.000096
 654	6.4974e+01	14.0033	34.607212	0.000246	2.463920	0.834799	-0.000099
 655	6.5073e+01	13.9648	34.509857	0.000243	2.433376	0.824450	-0.000098
 656	6.5172e+01	13.9424	34.405985	0.000260	2.596279	0.879643	-0.000104
 657	6.5272e+01	13.8943	34.307001	0.000247	2.474101	0.838248	-0.000099
 658	6.5371e+01	13.8413	34.210053	0.000242	2.423194	0.821000	-0.000097
 659	6.5471e+01	13.8076	34.113920	0.000240	2.402831	0.814101	-0.000097
 660	6.5570e+01	13.7499	34.012492	0.000254	2.535190	0.858946	-0.000102
 661	6.5670e+01	13.7354	33.911878	0.000251	2.514827	0.852047	-0.000101
 662	6.5769e+01	13.6729	33.815338	0.000241	2.413013	0.817551	-0.000097
 663	6.5869e+01	13.6360	33.715947	0.000248	2.484283	0.841698	-0.000100
 664	6.5969e+01	13.6071	33.614926	0.000253	2.525009	0.855496	-0.000102
 665	6.6068e+01	13.5622	33.520015	0.000237	2.372287	0.803752	-0.000095
 666	6.6168e+01	13.5349	33.417365	0.000257	2.565735	0.869295	-0.000103
 667	6.6267e+01	13.4948	33.322454	0.000237	2.372287	0.803752	-0.000095
 668	6.6367e+01	13.4403	33.223470	0.000247	2.474101	0.838248	-0.000099
 669	6.6466e+01	13.4018	33.123263	0.000250	2.504646	0.848597	-0.000101
 670	6.6566e+01	13.3633	33.016947	0.000266	2.657368	0.900341	-0.000107
 671	6.6665e+01	13.3248	32.925702	0.000228	2.280653	0.772706	-0.000092
 672	6.6764e+01	13.2927	32.826311	0.000248	2.484283	0.841698	-0.000100
 673	6.6864e+01	13.2301	32.726104	0.000250	2.504646	0.848597	-0.000101
 674	6.6963e+01	13.1932	32.627120	0.000247	2.474101	0.838248	-0.000099
 675	6.7063e+01	13.1419	32.530172	0.000242	2.423194	0.821000	-0.000097
 676	6.7162e+01	13.1547	32.431188	-0.000247	-2.474101	-0.838248	-0.000099
 677	6.7262e+01	13.0793	32.328131	0.000258	2.575916	0.872744	-0.000104
 678	6.7362e+01	13.0392	32.229554	0.000246	2.463920	0.834799	-0.000099
 679	6.7461e+01	13.0200	32.130162	0.000248	2.484283	0.841698	-0.000100
 680	6.7561e+01	12.9863	32.036881	0.000233	2.331561	0.789954	-0.000094
 681	6.7660e+01	12.9253	31.942785	0.000235	2.351924	0.796853	-0.000095
 682	6.7760e+01	12.9028	31.842578	0.000250	2.504646	0.848597	-0.000101
 683	6.7859e+01	12.8579	31.742779	0.000249	2.494464	0.845147	-0.000100
 684	6.7959e+01	12.8034	31.649498	0.000233	2.331561	0.789954	-0.000094
 685	6.8058e+01	12.7825	31.548884	0.000251	2.514827	0.852047	-0.000101
 686	6.8157e+01	12.7232	31.445827	0.000258	2.575916	0.872744	-0.000104
 687	6.8257e+01	12.6766	31.341954	0.000260	2.596279	0.879643	-0.000104
 688	6.8356e+01	12.6494	31.247451	0.000236	2.362105	0.800303	-0.000095
 689	6.8456e+01	12.6285	31.148874	0.000246	2.463920	0.834799	-0.000099
 690	6.8555e+01	12.5884	31.050297	0.000246	2.463920	0.834799	-0.000099
 691	6.8655e+01	12.5371	30.949683	0.000251	2.514827	0.852047	-0.000101
 692	6.8754e+01	12.5018	30.852329	0.000243	2.433376	0.824450	-0.000098
 693	6.8854e+01	12.4472	30.757418	0.000237	2.372287	0.803752	-0.000095
 694	6.8954e+01	12.4216	30.655989	0.000254	2.535190	0.858946	-0.000102
 695	6.9053e+01	12.3718	30.561079	0.000237	2.372287	0.803752	-0.000095
 696	6.9153e+01	12.3285	30.460058	0.000253	2.525009	0.855496	-0.000102
 697	6.9252e+01	12.2948	30.365554	0.000236	2.362105	0.800303	-0.000095
 698	6.9352e+01	12.2483	30.265755	0.000249	2.494464	0.845147	-0.000100
 699	6.9451e+01	12.2034	30.173288	0.000231	2.311198	0.783055	-0.000093
 700	6.9550e+01	12.1408	30.073082	0.000250	2.504646	0.848597	-0.000101
 701	6.9650e+01	12.1424	29.971247	-0.000255	-2.545372	-0.862395	-0.000102
 702	6.9749e+01	12.0991	29.876336	0.000237	2.372287	0.803752	-0.000095
 703	6.9849e+01	12.0462	29.782647	0.000234	2.341742	0.793404	-0.000094
 704	6.9948e+01	12.0173	29.680404	0.000256	2.555553	0.865845	-0.000103
 705	7.0048e+01	11.9788	29.588752	0.000229	2.290835	0.776156	-0.000092
 706	7.0147e+01	11.9483	29.488953	0.000249	2.494464	0.845147	-0.000100
 707	7.0247e+01	11.9066	29.388339	0.000251	2.514827	0.852047	-0.000101
 708	7.0347e+01	11.8521	29.294651	0.000234	2.341742	0.793404	-0.000094
 709	7.0446e+01	11.8216	29.198110	0.000241	2.413013	0.817551	-0.000097
 710	7.0546e+01	11.7815	29.097904	0.000250	2.504646	0.848597	-0.000101
 711	7.0645e+01	11.7366	29.003401	0.000236	2.362105	0.800303	-0.000095
 712	7.0745e+01	11.6836	28.905638	0.000244	2.443557	0.827900	-0.000098
 713	7.0844e+01	11.6435	28.811135	0.000236	2.362105	0.800303	-0.000095
 714	7.0944e+01	11.6018	28.713780	0.000243	2.433376	0.824450	-0.000098
 715	7.1043e+01	11.5745	28.616425	0.000243	2.433376	0.824450	-0.000098
 716	7.1142e+01	11.5168	28.517848	0.000246	2.463920	0.834799	-0.000099
 717	7.1242e+01	11.4735	28.422123	0.000239	2.392650	0.810652	-0.000096
 718	7.1341e+01	11.4510	28.325175	0.000242	2.423194	0.821000	-0.000097
 719	7.1441e+01	11.4029	28.233116	0.000230	2.301016	0.779605	-0.000093
 720	7.1540e+01	11.3772	28.127614	0.000264	2.637005	0.893442	-0.000106
 721	7.1640e+01	11.3403	28.033925	0.000234	2.341742	0.793404	-0.000094
 722	7.1740e+01	11.2954	27.933312	0.000251	2.514827	0.852047	-0.000101
 723	7.1839e+01	11.2729	27.835142	0.000245	2.453739	0.831349	-0.000099
 724	7.1939e+01	11.2072	27.745527	0.000224	2.239927	0.758908	-0.000090
 725	7.2038e+01	11.1815	27.642877	0.000257	2.565735	0.869295	-0.000103
 726	7.2138e+01	11.1238	27.545929	0.000242	2.423194	0.821000	-0.000097
 727	7.2237e+01	11.0820	27.446945	0.000247	2.474101	0.838248	-0.000099
 728	7.2337e+01	11.0885	27.352441	-0.000236	-2.362105	-0.800303	-0.000095
 729	7.2436e+01	11.0163	27.253864	0.000246	2.463920	0.834799	-0.000099
 730	7.2535e+01	10.9778	27.160990	0.000232	2.321379	0.786505	-0.000093
 731	7.2635e+01	10.9521	27.061599	0.000248	2.484283	0.841698	-0.000100
 732	7.2734e+01	10.9136	26.963429	0.000245	2.453739	0.831349	-0.000099
 733	7.2834e+01	10.8510	26.862408	0.000253	2.525009	0.855496	-0.000102
 734	7.2933e+01	10.8157	26.770756	0.000229	2.290835	0.776156	-0.000092
 735	7.3033e+01	10.7772	26.675031	0.000239	2.392650	0.810652	-0.000096
 736	7.3132e+01	10.7339	26.580935	0.000235	2.351924	0.796853	-0.000095
 737	7.3232e+01	10.6842	26.484394	0.000241	2.413013	0.817551	-0.000097
 738	7.3332e+01	10.6585	26.394372	0.000225	2.250109	0.762357	-0.000090
 739	7.3431e+01	10.6168	26.290907	0.000259	2.586098	0.876194	-0.000104
 740	7.3531e+01	10.5719	26.199662	0.000228	2.280653	0.772706	-0.000092
 741	7.3630e+01	10.5350	26.097012	0.000257	2.565735	0.869295	-0.000103
 742	7.3730e+01	10.4805	26.007804	0.000223	2.229746	0.755458	-0.000090
 743	7.3829e+01	10.4500	25.904746	0.000258	2.575916	0.872744	-0.000104
 744	7.3928e+01	10.4147	25.811872	0.000232	2.321379	0.786505	-0.000093
 745	7.4028e+01	10.3762	25.712888	0.000247	2.474101	0.838248	-0.000099
 746	7.4127e+01	10.3521	25.621643	0.000228	2.280653	0.772706	-0.000092
 747	7.4227e+01	10.3008	25.523066	0.000246	2.463920	0.834799	-0.000099
 748	7.4326e+01	10.2414	25.426118	0.000242	2.423194	0.821000	-0.000097
 749	7.4426e+01	10.2158	25.332022	0.000235	2.351924	0.796853	-0.000095
 750	7.4525e+01	10.1869	25.235482	0.000241	2.413013	0.817551	-0.000097
 751	7.4625e+01	10.1404	25.135276	0.000250	2.504646	0.848597	-0.000101
 752	7.4725e+01	10.1083	25.039550	0.000239	2.392650	0.810652	-0.000096
 753	7.4824e+01	10.0585	24.945454	0.000235	2.351924	0.796853	-0.000095
 754	7.4924e+01	10.0345	24.841174	0.000261	2.606461	0.883093	-0.000105
 755	7.5023e+01	9.9687	24.750744	0.000226	2.260290	0.765807	-0.000091
 756	7.5123e+01	9.9414	24.643206	0.000269	2.687913	0.910689	-0.000108
 757	7.5222e+01	9.8917	24.556849	0.000216	2.158475	0.731311	-0.000087
 758	7.5322e+01	9.8580	24.450126	0.000267	2.667550	0.903790	-0.000107
 759	7.5421e+01	9.8211	24.364991	0.000213	2.127931	0.720963	-0.000086
 760	7.5520e+01	9.7714	24.261526	0.000259	2.586098	0.876194	-0.000104
 761	7.5620e+01	9.7746	24.162542	-0.000247	-2.474101	-0.838248	-0.000099
 762	7.5719e+01	9.6992	24.064372	0.000245	2.453739	0.831349	-0.000099
 763	7.5819e+01	9.6703	23.976794	0.000219	2.189020	0.741660	-0.000088
 764	7.5918e+01	9.6366	23.871292	0.000264	2.637005	0.893442	-0.000106
 765	7.6018e+01	9.5821	23.780862	0.000226	2.260290	0.765807	-0.000091
 766	7.6118e+01	9.5564	23.677397	0.000259	2.586098	0.876194	-0.000104
 767	7.6217e+01	9.5131	23.579635	0.000244	2.443557	0.827900	-0.000098
 768	7.6317e+01	9.4521	23.482280	0.000243	2.433376	0.824450	-0.000098
 769	7.6416e+01	9.4168	23.390220	0.000230	2.301016	0.779605	-0.000093
 770	7.6516e+01	9.3832	23.291236	0.000247	2.474101	0.838248	-0.000099
 771	7.6615e+01	9.3511	23.189808	0.000254	2.535190	0.858946	-0.000102
 772	7.6715e+01	9.3078	23.094082	0.000239	2.392650	0.810652	-0.000096
 773	7.6814e+01	9.2484	22.992247	0.000255	2.545372	0.862395	-0.000102
 774	7.6913e+01	9.2404	22.896521	0.000239	2.392650	0.810652	-0.000096
 775	7.7013e+01	9.1987	22.795908	0.000251	2.514827	0.852047	-0.000101
 776	7.7112e+01	9.1329	22.696923	0.000247	2.474101	0.838248	-0.000099
 777	7.7212e+01	9.1169	22.597532	0.000248	2.484283	0.841698	-0.000100
 778	7.7311e+01	9.0816	22.498955	0.000246	2.463920	0.834799	-0.000099
 779	7.7411e+01	9.0270	22.394268	0.000262	2.616642	0.886542	-0.000105
 780	7.7510e+01	8.9901	22.296913	0.000243	2.433376	0.824450	-0.000098
 781	7.7610e+01	8.9356	22.196299	0.000251	2.514827	0.852047	-0.000101
 782	7.7710e+01	8.8891	22.100166	0.000240	2.402831	0.814101	-0.000097
 783	7.7809e+01	8.8810	21.999960	0.000250	2.504646	0.848597	-0.000101
 784	7.7909e+01	8.8201	21.898125	0.000255	2.545372	0.862395	-0.000102
 785	7.8008e+01	8.7944	21.795067	0.000258	2.575916	0.872744	-0.000104
 786	7.8108e+01	8.7415	21.694453	0.000251	2.514827	0.852047	-0.000101
 787	7.8207e+01	8.7014	21.592618	0.000255	2.545372	0.862395	-0.000102
 788	7.8306e+01	8.6532	21.492819	0.000249	2.494464	0.845147	-0.000100
 789	7.8406e+01	8.6292	21.387724	0.000263	2.626824	0.889992	-0.000106
 790	7.8505e+01	8.5810	21.285889	0.000255	2.545372	0.862395	-0.000102
 791	7.8605e+01	8.5602	21.180387	0.000264	2.637005	0.893442	-0.000106
 792	7.8704e+01	8.5377	21.087920	0.000231	2.311198	0.783055	-0.000093
 793	7.8804e+01	8.4800	20.975901	0.000280	2.799909	0.948635	-0.000113
 794	7.8903e+01	8.4254	20.880583	0.000238	2.382468	0.807202	-0.000096
 795	7.9003e+01	8.3805	20.778340	0.000256	2.555553	0.865845	-0.000103
 796	7.9103e+01	8.3629	20.680170	0.000245	2.453739	0.831349	-0.000099
 797	7.9202e+01	8.3147	20.576298	0.000260	2.596279	0.879643	-0.000104
 798	7.9302e+01	8.2698	20.468352	0.000270	2.698094	0.914139	-0.000108
 799	7.9401e+01	8.2169	20.369368	0.000247	2.474101	0.838248	-0.000099
 800	7.9501e+01	8.1784	20.270384	0.000247	2.474101	0.838248	-0.000099
 801	7.9600e+01	8.1431	20.166511	0.000260	2.596279	0.879643	-0.000104
 802	7.9700e+01	8.1110	20.063861	0.000257	2.565735	0.869295	-0.000103
 803	7.9799e+01	8.0901	19.967728	0.000240	2.402831	0.814101	-0.000097
 804	7.9898e+01	8.0180	19.859375	0.000271	2.708276	0.917589	-0.000109
 805	7.9998e+01	7.9859	19.759984	0.000248	2.484283	0.841698	-0.000100
 806	8.0097e+01	7.9634	19.652445	0.000269	2.687913	0.910689	-0.000108
 807	8.0197e+01	7.9105	19.552646	0.000249	2.494464	0.845147	-0.000100
 808	8.0296e+01	7.8768	19.450403	0.000256	2.555553	0.865845	-0.000103
 809	8.0396e+01	7.8335	19.347345	0.000258	2.575916	0.872744	-0.000104
 810	8.0496e+01	7.7934	19.242658	0.000262	2.616642	0.886542	-0.000105
 811	8.0595e+01	7.7533	19.143674	0.000247	2.474101	0.838248	-0.000099
 812	8.0695e+01	7.7099	19.043875	0.000249	2.494464	0.845147	-0.000100
 813	8.0794e+01	7.6875	18.939596	0.000261	2.606461	0.883093	-0.000105
 814	8.0894e+01	7.6313	18.834094	0.000264	2.637005	0.893442	-0.000106
 815	8.0993e+01	7.5720	18.733888	0.000250	2.504646	0.848597	-0.000101
 816	8.1093e+01	7.5752	18.626757	-0.000268	-2.677731	-0.907240	-0.000108
 817	8.1192e+01	7.5287	18.525328	0.000254	2.535190	0.858946	-0.000102
 818	8.1291e+01	7.4565	18.420234	0.000263	2.626824	0.889992	-0.000106
 819	8.1391e+01	7.4164	18.316769	0.000259	2.586098	0.876194	-0.000104
 820	8.1490e+01	7.3939	18.208008	0.000272	2.718457	0.921038	-0.000109
 821	8.1590e+01	7.3506	18.105358	0.000257	2.565735	0.869295	-0.000103
 822	8.1689e+01	7.3137	17.999042	0.000266	2.657368	0.900341	-0.000107
 823	8.1789e+01	7.2704	17.895984	0.000258	2.575916	0.872744	-0.000104
 824	8.1888e+01	7.2158	17.788853	0.000268	2.677731	0.907240	-0.000108
 825	8.1988e+01	7.1902	17.687832	0.000253	2.525009	0.855496	-0.000102
 826	8.2088e+01	7.1420	17.583145	0.000262	2.616642	0.886542	-0.000105
 827	8.2187e+01	7.1148	17.475606	0.000269	2.687913	0.910689	-0.000108
 828	8.2287e+01	7.0490	17.370919	0.000262	2.616642	0.886542	-0.000105
 829	8.2386e+01	7.0410	17.267047	0.000260	2.596279	0.879643	-0.000104
 830	8.2486e+01	7.0169	17.164804	0.000256	2.555553	0.865845	-0.000103
 831	8.2585e+01	6.9560	17.057266	0.000269	2.687913	0.910689	-0.000108
 832	8.2684e+01	6.9094	16.947283	0.000275	2.749002	0.931387	-0.000111
 833	8.2784e+01	6.8677	16.843818	0.000259	2.586098	0.876194	-0.000104
 834	8.2883e+01	6.8292	16.743612	0.000250	2.504646	0.848597	-0.000101
 835	8.2983e+01	6.7875	16.637296	0.000266	2.657368	0.900341	-0.000107
 836	8.3082e+01	6.7490	16.532201	0.000263	2.626824	0.889992	-0.000106
 837	8.3182e+01	6.7233	16.431588	0.000251	2.514827	0.852047	-0.000101
 838	8.3281e+01	6.6576	16.327308	0.000261	2.606461	0.883093	-0.000105
 839	8.3381e+01	6.6159	16.220584	0.000267	2.667550	0.903790	-0.000107
 840	8.3481e+01	6.6046	16.112231	0.000271	2.708276	0.917589	-0.000109
 841	8.3580e+01	6.5485	16.010803	0.000254	2.535190	0.858946	-0.000102
 842	8.3680e+01	6.5260	15.906523	0.000261	2.606461	0.883093	-0.000105
 843	8.3779e+01	6.4522	15.803873	0.000257	2.565735	0.869295	-0.000103
 844	8.3879e+01	6.4394	15.704888	0.000247	2.474101	0.838248	-0.000099
 845	8.3978e+01	6.4041	15.595721	0.000273	2.728639	0.924488	-0.000110
 846	8.4078e+01	6.3528	15.491034	0.000262	2.616642	0.886542	-0.000105
 847	8.4177e+01	6.3223	15.387569	0.000259	2.586098	0.876194	-0.000104
 848	8.4276e+01	6.2677	15.284918	0.000257	2.565735	0.869295	-0.000103
 849	8.4376e+01	6.2308	15.178194	0.000267	2.667550	0.903790	-0.000107
 850	8.4475e+01	6.1875	15.074729	0.000259	2.586098	0.876194	-0.000104
 851	8.4575e+01	6.1426	14.974116	0.000251	2.514827	0.852047	-0.000101
 852	8.4674e+01	6.1218	14.862911	0.000278	2.779546	0.941736	-0.000112
 853	8.4774e+01	6.0720	14.763112	0.000249	2.494464	0.845147	-0.000100
 854	8.4874e+01	6.0367	14.653537	0.000274	2.738820	0.927937	-0.000110
 855	8.4973e+01	5.9950	14.547221	0.000266	2.657368	0.900341	-0.000107
 856	8.5073e+01	5.9710	14.444978	0.000256	2.555553	0.865845	-0.000103
 857	8.5172e+01	5.9373	14.343957	0.000253	2.525009	0.855496	-0.000102
 858	8.5272e+01	5.8795	14.234789	0.000273	2.728639	0.924488	-0.000110
 859	8.5371e+01	5.8266	14.131731	0.000258	2.575916	0.872744	-0.000104
 860	8.5471e+01	5.8105	14.029896	0.000255	2.545372	0.862395	-0.000102
 861	8.5570e+01	5.7704	13.928875	0.000253	2.525009	0.855496	-0.000102
 862	8.5669e+01	5.7271	13.820929	0.000270	2.698094	0.914139	-0.000108
 863	8.5769e+01	5.6742	13.720723	0.000250	2.504646	0.848597	-0.000101
 864	8.5868e+01	5.6373	13.612370	0.000271	2.708276	0.917589	-0.000109
 865	8.5968e+01	5.5988	13.517052	0.000238	2.382468	0.807202	-0.000096
 866	8.6067e+01	5.5635	13.412365	0.000262	2.616642	0.886542	-0.000105
 867	8.6167e+01	5.5218	13.307677	0.000262	2.616642	0.886542	-0.000105
 868	8.6266e+01	5.4897	13.204212	0.000259	2.586098	0.876194	-0.000104
 869	8.6366e+01	5.4351	13.107672	0.000241	2.413013	0.817551	-0.000097
 870	8.6466e+01	5.4127	13.000949	0.000267	2.667550	0.903790	-0.000107
 871	8.6565e+01	5.3517	12.902372	0.000246	2.463920	0.834799	-0.000099
 872	8.6665e+01	5.3068	12.796870	0.000264	2.637005	0.893442	-0.000106
 873	8.6764e+01	5.2683	12.698700	0.000245	2.453739	0.831349	-0.000099
 874	8.6864e+01	5.2250	12.589533	0.000273	2.728639	0.924488	-0.000110
 875	8.6963e+01	5.1977	12.491363	0.000245	2.453739	0.831349	-0.000099
 876	8.7063e+01	5.1608	12.389935	0.000254	2.535190	0.858946	-0.000102
 877	8.7162e+01	5.1335	12.281989	0.000270	2.698094	0.914139	-0.000108
 878	8.7261e+01	5.0774	12.189115	0.000232	2.321379	0.786505	-0.000093
 879	8.7361e+01	5.0598	12.078725	0.000276	2.759183	0.934837	-0.000111
 880	8.7460e+01	5.0132	11.977704	0.000253	2.525009	0.855496	-0.000102
 881	8.7560e+01	4.9667	11.875054	0.000257	2.565735	0.869295	-0.000103
 882	8.7659e+01	4.9186	11.778921	0.000240	2.402831	0.814101	-0.000097
 883	8.7759e+01	4.8769	11.675049	0.000260	2.596279	0.879643	-0.000104
 884	8.7859e+01	4.8368	11.569954	0.000263	2.626824	0.889992	-0.000106
 885	8.7958e+01	4.7999	11.470563	0.000248	2.484283	0.841698	-0.000100
 886	8.8058e+01	4.7678	11.369134	0.000254	2.535190	0.858946	-0.000102
 887	8.8157e+01	4.7293	11.267299	0.000255	2.545372	0.862395	-0.000102
 888	8.8257e+01	4.6956	11.166685	0.000251	2.514827	0.852047	-0.000101
 889	8.8356e+01	4.6523	11.066479	0.000250	2.504646	0.848597	-0.000101
 890	8.8456e+01	4.6009	10.963014	0.000259	2.586098	0.876194	-0.000104
 891	8.8555e+01	4.5865	10.861178	0.000255	2.545372	0.862395	-0.000102
 892	8.8654e+01	4.5320	10.756898	0.000261	2.606461	0.883093	-0.000105
 893	8.8754e+01	4.5047	10.655063	0.000255	2.545372	0.862395	-0.000102
 894	8.8853e+01	4.4485	10.551190	0.000260	2.596279	0.879643	-0.000104
 895	8.8953e+01	4.4261	10.453428	0.000244	2.443557	0.827900	-0.000098
 896	8.9052e+01	4.3378	10.351593	0.000255	2.545372	0.862395	-0.000102
 897	8.9152e+01	4.3186	10.251386	0.000250	2.504646	0.848597	-0.000101
 898	8.9251e+01	4.2624	10.147921	0.000259	2.586098	0.876194	-0.000104
 899	8.9351e+01	4.2384	10.043642	0.000261	2.606461	0.883093	-0.000105
 900	8.9451e+01	4.2063	9.944250	0.000248	2.484283	0.841698	-0.000100
 901	8.9550e+01	4.1646	9.844858	0.000248	2.484283	0.841698	-0.000100
 902	8.9650e+01	4.1149	9.738135	0.000267	2.667550	0.903790	-0.000107
 903	8.9749e+01	4.0844	9.646075	0.000230	2.301016	0.779605	-0.000093
 904	8.9849e+01	4.0603	9.543018	0.000258	2.575916	0.872744	-0.000104
 905	8.9948e+01	4.0042	9.442811	0.000250	2.504646	0.848597	-0.000101
 906	9.0047e+01	3.9560	9.342605	0.000250	2.504646	0.848597	-0.000101
 907	9.0147e+01	3.9175	9.241584	0.000253	2.525009	0.855496	-0.000102
 908	9.0246e+01	3.8951	9.138934	0.000257	2.565735	0.869295	-0.000103
 909	9.0346e+01	3.8325	9.044023	0.000237	2.372287	0.803752	-0.000095
 910	9.0445e+01	3.8052	8.940151	0.000260	2.596279	0.879643	-0.000104
 911	9.0545e+01	3.7619	8.843203	0.000242	2.423194	0.821000	-0.000097
 912	9.0644e+01	3.6945	8.736479	0.000267	2.667550	0.903790	-0.000107
 913	9.0744e+01	3.6913	8.643198	0.000233	2.331561	0.789954	-0.000094
 914	9.0844e+01	3.6320	8.540955	0.000256	2.555553	0.865845	-0.000103
 915	9.0943e+01	3.6095	8.444415	0.000241	2.413013	0.817551	-0.000097
 916	9.1043e+01	3.5614	8.338098	0.000266	2.657368	0.900341	-0.000107
 917	9.1142e+01	3.5085	8.242780	0.000238	2.382468	0.807202	-0.000096
 918	9.1242e+01	3.4940	8.141352	0.000254	2.535190	0.858946	-0.000102
 919	9.1341e+01	3.4475	8.039109	0.000256	2.555553	0.865845	-0.000103
 920	9.1441e+01	3.4058	7.934015	0.000263	2.626824	0.889992	-0.000106
 921	9.1540e+01	3.3817	7.839511	0.000236	2.362105	0.800303	-0.000095
 922	9.1639e+01	3.3192	7.737268	0.000256	2.555553	0.865845	-0.000103
 923	9.1739e+01	3.2951	7.636654	0.000251	2.514827	0.852047	-0.000101
 924	9.1838e+01	3.2486	7.534412	0.000256	2.555553	0.865845	-0.000103
 925	9.1938e+01	3.1924	7.433798	0.000251	2.514827	0.852047	-0.000101
 926	9.2037e+01	3.1764	7.333999	0.000249	2.494464	0.845147	-0.000100
 927	9.2137e+01	3.1250	7.232571	0.000254	2.535190	0.858946	-0.000102
 928	9.2237e+01	3.1058	7.134401	0.000245	2.453739	0.831349	-0.000099
 929	9.2336e+01	3.0593	7.031751	0.000257	2.565735	0.869295	-0.000103
 930	9.2436e+01	3.0160	6.929100	0.000257	2.565735	0.869295	-0.000103
 931	9.2535e+01	2.9598	6.826450	0.000257	2.565735	0.869295	-0.000103
 932	9.2635e+01	2.9390	6.732354	0.000235	2.351924	0.796853	-0.000095
 933	9.2734e+01	2.8908	6.630111	0.000256	2.555553	0.865845	-0.000103
 934	9.2834e+01	2.8443	6.521351	0.000272	2.718457	0.921038	-0.000109
 935	9.2933e+01	2.7930	6.421959	0.000248	2.484283	0.841698	-0.000100
 936	9.3032e+01	2.7705	6.323789	0.000245	2.453739	0.831349	-0.000099
 937	9.3132e+01	2.7112	6.219510	0.000261	2.606461	0.883093	-0.000105
 938	9.3231e+01	2.6871	6.122155	0.000243	2.433376	0.824450	-0.000098
 939	9.3331e+01	2.6566	6.019505	0.000257	2.565735	0.869295	-0.000103
 940	9.3430e+01	2.6117	5.920113	0.000248	2.484283	0.841698	-0.000100
 941	9.3530e+01	2.5812	5.816648	0.000259	2.586098	0.876194	-0.000104
 942	9.3629e+01	2.5315	5.713183	0.000259	2.586098	0.876194	-0.000104
 943	9.3729e+01	2.4978	5.610125	0.000258	2.575916	0.872744	-0.000104
 944	9.3829e+01	2.4497	5.513585	0.000241	2.413013	0.817551	-0.000097
 945	9.3928e+01	2.4208	5.406861	0.000267	2.667550	0.903790	-0.000107
 946	9.4028e+01	2.3743	5.307062	0.000249	2.494464	0.845147	-0.000100
 947	9.4127e+01	2.3277	5.199931	0.000268	2.677731	0.907240	-0.000108
 948	9.4227e+01	2.3005	5.102576	0.000243	2.433376	0.824450	-0.000098
 949	9.4326e+01	2.2491	4.991779	0.000277	2.769365	0.938286	-0.000111
 950	9.4425e+01	2.2283	4.895239	0.000241	2.413013	0.817551	-0.000097
 951	9.4525e+01	2.1850	4.787701	0.000269	2.687913	0.910689	-0.000108
 952	9.4624e+01	2.1352	4.680570	0.000268	2.677731	0.907240	-0.000108
 953	9.4724e+01	2.1128	4.580363	0.000250	2.504646	0.848597	-0.000101
 954	9.4823e+01	2.0646	4.474454	0.000265	2.647187	0.896891	-0.000106
 955	9.4923e+01	2.0037	4.368953	0.000264	2.637005	0.893442	-0.000106
 956	9.5022e+01	1.9588	4.262636	0.000266	2.657368	0.900341	-0.000107
 957	9.5122e+01	1.9395	4.164467	0.000245	2.453739	0.831349	-0.000099
 958	9.5222e+01	1.8673	4.055299	0.000273	2.728639	0.924488	-0.000110
 959	9.5321e+01	1.8481	3.955907	0.000248	2.484283	0.841698	-0.000100
 960	9.5421e+01	1.8096	3.846739	0.000273	2.728639	0.924488	-0.000110
 961	9.5520e+01	1.7919	3.751014	0.000239	2.392650	0.810652	-0.000096
 962	9.5620e+01	1.7326	3.640624	0.000276	2.759183	0.934837	-0.000111
 963	9.5719e+01	1.6925	3.535937	0.000262	2.616642	0.886542	-0.000105
 964	9.5819e+01	1.6379	3.430435	0.000264	2.637005	0.893442	-0.000106
 965	9.5918e+01	1.6235	3.328600	0.000255	2.545372	0.862395	-0.000102
 966	9.6017e+01	1.5882	3.225542	0.000258	2.575916	0.872744	-0.000104
 967	9.6117e+01	1.5433	3.128187	0.000243	2.433376	0.824450	-0.000098
 968	9.6216e+01	1.4919	3.014946	0.000283	2.830454	0.958984	-0.000114
 969	9.6316e+01	1.4550	2.913518	0.000254	2.535190	0.858946	-0.000102
 970	9.6415e+01	1.4310	2.816570	0.000242	2.423194	0.821000	-0.000097
 971	9.6515e+01	1.3700	2.706180	0.000276	2.759183	0.934837	-0.000111
 972	9.6615e+01	1.3251	2.599456	0.000267	2.667550	0.903790	-0.000107
 973	9.6714e+01	1.3010	2.496806	0.000257	2.565735	0.869295	-0.000103
 974	9.6814e+01	1.2738	2.386009	0.000277	2.769365	0.938286	-0.000111
 975	9.6913e+01	1.2048	2.285803	0.000250	2.504646	0.848597	-0.000101
 976	9.7013e+01	1.1711	2.184782	0.000253	2.525009	0.855496	-0.000102
 977	9.7112e+01	1.1342	2.073170	0.000279	2.789728	0.945185	-0.000112
 978	9.7212e+01	1.1214	1.966854	0.000266	2.657368	0.900341	-0.000107
 979	9.7311e+01	1.0444	1.867055	0.000249	2.494464	0.845147	-0.000100
 980	9.7410e+01	1.0428	1.763997	0.000258	2.575916	0.872744	-0.000104
 981	9.7510e+01	0.9625	1.656458	0.000269	2.687913	0.910689	-0.000108
 982	9.7609e+01	0.9224	1.548513	0.000270	2.698094	0.914139	-0.000108
 983	9.7709e+01	0.8871	1.445048	0.000259	2.586098	0.876194	-0.000104
 984	9.7808e+01	0.8390	1.343619	0.000254	2.535190	0.858946	-0.000102
 985	9.7908e+01	0.8133	1.235266	0.000271	2.708276	0.917589	-0.000109
 986	9.8007e+01	0.7716	1.122432	0.000282	2.820272	0.955534	-0.000113
 987	9.8107e+01	0.7428	1.016931	0.000264	2.637005	0.893442	-0.000106
 988	9.8207e+01	0.6946	0.915910	0.000253	2.525009	0.855496	-0.000102
 989	9.8306e+01	0.6497	0.810408	0.000264	2.637005	0.893442	-0.000106
 990	9.8406e+01	0.6128	0.702870	0.000269	2.687913	0.910689	-0.000108
 991	9.8505e+01	0.5775	0.592480	0.000276	2.759183	0.934837	-0.000111
 992	9.8605e+01	0.5326	0.492273	0.000250	2.504646	0.848597	-0.000101
 993	9.8704e+01	0.5005	0.383106	0.000273	2.728639	0.924488	-0.000110
 994	9.8803e+01	0.4588	0.280048	0.000258	2.575916	0.872744	-0.000104
 995	9.8903e+01	0.3962	0.170880	0.000273	2.728639	0.924488	-0.000110
 996	9.9002e+01	0.3786	0.068637	0.000256	2.555553	0.865845	-0.000103
 997	9.9102e+01	0.3353	-0.041345	0.000275	2.749002	0.931387	-0.000111
 998	9.9201e+01	0.2936	-0.145218	0.000260	2.596279	0.879643	-0.000104
 999	9.9301e+01	0.2535	-0.252756	0.000269	2.687913	0.910689	-0.000108
1000	9.9400e+01	0.2230	-0.358665	0.000265	2.647187	0.896891	-0.000106
1001	9.9500e+01	0.1749	-0.463759	0.000263	2.626824	0.889992	-0.000106
1002	9.9600e+01	0.1299	-0.572927	0.000273	2.728639	0.924488	-0.000110
1003	9.9699e+01	0.0834	-0.673948	0.000253	2.525009	0.855496	-0.000102
1004	9.9799e+01	0.0465	-0.787597	0.000284	2.840635	0.962433	-0.000114
1005	9.9898e+01	0.0241	-0.864992	0.000193	1.934483	0.655420	-0.000078
1006	9.9998e+01	-0.0160	-0.968457	0.000259	2.586098	0.876194	-0.000104
1007	1.0010e+02	-0.0481	-1.070293	0.000255	2.545372	0.862395	-0.000102
1008	1.0020e+02	-0.0690	-1.179053	0.000272	2.718457	0.921038	-0.000109
1009	1.0030e+02	-0.1412	-1.288221	0.000273	2.728639	0.924488	-0.000110
1010	1.0040e+02	-0.1861	-1.391278	0.000258	2.575916	0.872744	-0.000104
1011	1.0050e+02	-0.2150	-1.496780	0.000264	2.637005	0.893442	-0.000106
1012	1.0059e+02	-0.2519	-1.603097	0.000266	2.657368	0.900341	-0.000107
1013	1.0069e+02	-0.2856	-1.711857	0.000272	2.718457	0.921038	-0.000109
1014	1.0079e+02	-0.3385	-1.812471	0.000251	2.514827	0.852047	-0.000101
1015	1.0089e+02	-0.3738	-1.915936	0.000259	2.586098	0.876194	-0.000104
1016	1.0099e+02	-0.4299	-2.021845	0.000265	2.647187	0.896891	-0.000106
1017	1.0109e+02	-0.4508	-2.126939	0.000263	2.626824	0.889992	-0.000106
1018	1.0119e+02	-0.5053	-2.236922	0.000275	2.749002	0.931387	-0.000111
1019	1.0129e+02	-0.5198	-2.340387	0.000259	2.586098	0.876194	-0.000104
1020	1.0139e+02	-0.5759	-2.441815	0.000254	2.535190	0.858946	-0.000102
1021	1.0149e+02	-0.6016	-2.546502	0.000262	2.616642	0.886542	-0.000105
1022	1.0159e+02	-0.6417	-2.656892	0.000276	2.759183	0.934837	-0.000111
1023	1.0169e+02	-0.6706	-2.753025	0.000240	2.402831	0.814101	-0.000097
1024	1.0179e+02	-0.7299	-2.865451	0.000281	2.810091	0.952084	-0.000113
1025	1.0189e+02	-0.7652	-2.970546	0.000263	2.626824	0.889992	-0.000106
1026	1.0199e+02	-0.8117	-3.074825	0.000261	2.606461	0.883093	-0.000105
1027	1.0209e+02	-0.8535	-3.171365	0.000241	2.413013	0.817551	-0.000097
1028	1.0219e+02	-0.8903	-3.278497	0.000268	2.677731	0.907240	-0.000108
1029	1.0229e+02	-0.9224	-3.384406	0.000265	2.647187	0.896891	-0.000106
1030	1.0239e+02	-0.9738	-3.486649	0.000256	2.555553	0.865845	-0.000103
1031	1.0248e+02	-1.0010	-3.591336	0.000262	2.616642	0.886542	-0.000105
1032	1.0258e+02	-1.0588	-3.690727	0.000248	2.484283	0.841698	-0.000100
1033	1.0268e+02	-1.0925	-3.794600	0.000260	2.596279	0.879643	-0.000104
1034	1.0278e+02	-1.1374	-3.895620	0.000253	2.525009	0.855496	-0.000102
1035	1.0288e+02	-1.1791	-3.999085	0.000259	2.586098	0.876194	-0.000104
1036	1.0298e+02	-1.2224	-4.098884	0.000249	2.494464	0.845147	-0.000100
1037	1.0308e+02	-1.2288	-4.206423	0.000269	2.687913	0.910689	-0.000108
1038	1.0318e+02	-1.2786	-4.304185	0.000244	2.443557	0.827900	-0.000098
1039	1.0328e+02	-1.3395	-4.410094	0.000265	2.647187	0.896891	-0.000106
1040	1.0338e+02	-1.3540	-4.511115	0.000253	2.525009	0.855496	-0.000102
1041	1.0348e+02	-1.3796	-4.610099	0.000247	2.474101	0.838248	-0.000099
1042	1.0358e+02	-1.4518	-4.712342	0.000256	2.555553	0.865845	-0.000103
1043	1.0368e+02	-1.4711	-4.814993	0.000257	2.565735	0.869295	-0.000103
1044	1.0378e+02	-1.5336	-4.911533	0.000241	2.413013	0.817551	-0.000097
1045	1.0388e+02	-1.5721	-5.014590	0.000258	2.575916	0.872744	-0.000104
1046	1.0398e+02	-1.5946	-5.116019	0.000254	2.535190	0.858946	-0.000102
1047	1.0408e+02	-1.6540	-5.217447	0.000254	2.535190	0.858946	-0.000102
1048	1.0418e+02	-1.6716	-5.319690	0.000256	2.555553	0.865845	-0.000103
1049	1.0428e+02	-1.7390	-5.419896	0.000250	2.504646	0.848597	-0.000101
1050	1.0438e+02	-1.7486	-5.520103	0.000250	2.504646	0.848597	-0.000101
1051	1.0447e+02	-1.8160	-5.622753	0.000257	2.565735	0.869295	-0.000103
1052	1.0457e+02	-1.8481	-5.722144	0.000248	2.484283	0.841698	-0.000100
1053	1.0467e+02	-1.8946	-5.828868	0.000267	2.667550	0.903790	-0.000107
1054	1.0477e+02	-1.9347	-5.926223	0.000243	2.433376	0.824450	-0.000098
1055	1.0487e+02	-1.9684	-6.026022	0.000249	2.494464	0.845147	-0.000100
1056	1.0497e+02	-1.9812	-6.129487	0.000259	2.586098	0.876194	-0.000104
1057	1.0507e+02	-2.0534	-6.232137	0.000257	2.565735	0.869295	-0.000103
1058	1.0517e+02	-2.1015	-6.329085	0.000242	2.423194	0.821000	-0.000097
1059	1.0527e+02	-2.1417	-6.432143	0.000258	2.575916	0.872744	-0.000104
1060	1.0537e+02	-2.1866	-6.531127	0.000247	2.474101	0.838248	-0.000099
1061	1.0547e+02	-2.2106	-6.629296	0.000245	2.453739	0.831349	-0.000099
1062	1.0557e+02	-2.2427	-6.736020	0.000267	2.667550	0.903790	-0.000107
1063	1.0567e+02	-2.3005	-6.826450	0.000226	2.260290	0.765807	-0.000091
1064	1.0577e+02	-2.3197	-6.930322	0.000260	2.596279	0.879643	-0.000104
1065	1.0587e+02	-2.3662	-7.029307	0.000247	2.474101	0.838248	-0.000099
1066	1.0597e+02	-2.4336	-7.137660	0.000271	2.708276	0.917589	-0.000109
1067	1.0607e+02	-2.4336	-7.228905	0.000228	2.280653	0.772706	-0.000092
1068	1.0617e+02	-2.4994	-7.329926	0.000253	2.525009	0.855496	-0.000102
1069	1.0627e+02	-2.5267	-7.436649	0.000267	2.667550	0.903790	-0.000107
1070	1.0637e+02	-2.5652	-7.530338	0.000234	2.341742	0.793404	-0.000094
1071	1.0647e+02	-2.5989	-7.626064	0.000239	2.392650	0.810652	-0.000096
1072	1.0656e+02	-2.6358	-7.724640	0.000246	2.463920	0.834799	-0.000099
1073	1.0666e+02	-2.6839	-7.824032	0.000248	2.484283	0.841698	-0.000100
1074	1.0676e+02	-2.7336	-7.923016	0.000247	2.474101	0.838248	-0.000099
1075	1.0686e+02	-2.7384	-8.018334	0.000238	2.382468	0.807202	-0.000096
1076	1.0696e+02	-2.7978	-8.118133	0.000249	2.494464	0.845147	-0.000100
1077	1.0706e+02	-2.8571	-8.219969	0.000255	2.545372	0.862395	-0.000102
1078	1.0716e+02	-2.8796	-8.318546	0.000246	2.463920	0.834799	-0.000099
1079	1.0726e+02	-2.9213	-8.419974	0.000254	2.535190	0.858946	-0.000102
1080	1.0736e+02	-2.9630	-8.512034	0.000230	2.301016	0.779605	-0.000093
1081	1.0746e+02	-2.9999	-8.611018	0.000247	2.474101	0.838248	-0.000099
1082	1.0756e+02	-3.0416	-8.705114	0.000235	2.351924	0.796853	-0.000095
1083	1.0766e+02	-3.1026	-8.808579	0.000259	2.586098	0.876194	-0.000104
1084	1.0776e+02	-3.1186	-8.910822	0.000256	2.555553	0.865845	-0.000103
1085	1.0786e+02	-3.1475	-9.006140	0.000238	2.382468	0.807202	-0.000096
1086	1.0796e+02	-3.1828	-9.101051	0.000237	2.372287	0.803752	-0.000095
1087	1.0806e+02	-3.2293	-9.200443	0.000248	2.484283	0.841698	-0.000100
1088	1.0816e+02	-3.2678	-9.296575	0.000240	2.402831	0.814101	-0.000097
1089	1.0826e+02	-3.3368	-9.394338	0.000244	2.443557	0.827900	-0.000098
1090	1.0836e+02	-3.3737	-9.492914	0.000246	2.463920	0.834799	-0.000099
1091	1.0845e+02	-3.4170	-9.595565	0.000257	2.565735	0.869295	-0.000103
1092	1.0855e+02	-3.4539	-9.695364	0.000249	2.494464	0.845147	-0.000100
1093	1.0865e+02	-3.4764	-9.792311	0.000242	2.423194	0.821000	-0.000097
1094	1.0875e+02	-3.5069	-9.886815	0.000236	2.362105	0.800303	-0.000095
1095	1.0885e+02	-3.5470	-9.985392	0.000246	2.463920	0.834799	-0.000099
1096	1.0895e+02	-3.6047	-10.085191	0.000249	2.494464	0.845147	-0.000100
1097	1.0905e+02	-3.6384	-10.187026	0.000255	2.545372	0.862395	-0.000102
1098	1.0915e+02	-3.6689	-10.276642	0.000224	2.239927	0.758908	-0.000090
1099	1.0925e+02	-3.7282	-10.377663	0.000253	2.525009	0.855496	-0.000102
1100	1.0935e+02	-3.7619	-10.477869	0.000250	2.504646	0.848597	-0.000101
1101	1.0945e+02	-3.7924	-10.580112	0.000256	2.555553	0.865845	-0.000103
1102	1.0955e+02	-3.8486	-10.676245	0.000240	2.402831	0.814101	-0.000097
1103	1.0965e+02	-3.8742	-10.770748	0.000236	2.362105	0.800303	-0.000095
1104	1.0975e+02	-3.9400	-10.870547	0.000249	2.494464	0.845147	-0.000100
1105	1.0985e+02	-3.9576	-10.971568	0.000253	2.525009	0.855496	-0.000102
1106	1.0995e+02	-4.0026	-11.071774	0.000250	2.504646	0.848597	-0.000101
1107	1.1005e+02	-4.0314	-11.164648	0.000232	2.321379	0.786505	-0.000093
1108	1.1015e+02	-4.0844	-11.263633	0.000247	2.474101	0.838248	-0.000099
1109	1.1025e+02	-4.1197	-11.361802	0.000245	2.453739	0.831349	-0.000099
1110	1.1035e+02	-4.1582	-11.467711	0.000265	2.647187	0.896891	-0.000106
1111	1.1044e+02	-4.2047	-11.561400	0.000234	2.341742	0.793404	-0.000094
1112	1.1054e+02	-4.2111	-11.661606	0.000250	2.504646	0.848597	-0.000101
1113	1.1064e+02	-4.2897	-11.761405	0.000249	2.494464	0.845147	-0.000100
1114	1.1074e+02	-4.3154	-11.860797	0.000248	2.484283	0.841698	-0.000100
1115	1.1084e+02	-4.3362	-11.960596	0.000249	2.494464	0.845147	-0.000100
1116	1.1094e+02	-4.3908	-12.064061	0.000259	2.586098	0.876194	-0.000104
1117	1.1104e+02	-4.4309	-12.162230	0.000245	2.453739	0.831349	-0.000099
1118	1.1114e+02	-4.4742	-12.259585	0.000243	2.433376	0.824450	-0.000098
1119	1.1124e+02	-4.5287	-12.361421	0.000255	2.545372	0.862395	-0.000102
1120	1.1134e+02	-4.5608	-12.460405	0.000247	2.474101	0.838248	-0.000099
1121	1.1144e+02	-4.6090	-12.557353	0.000242	2.423194	0.821000	-0.000097
1122	1.1154e+02	-4.6539	-12.659595	0.000256	2.555553	0.865845	-0.000103
1123	1.1164e+02	-4.6763	-12.764283	0.000262	2.616642	0.886542	-0.000105
1124	1.1174e+02	-4.7132	-12.864489	0.000250	2.504646	0.848597	-0.000101
1125	1.1184e+02	-4.7630	-12.958178	0.000234	2.341742	0.793404	-0.000094
1126	1.1194e+02	-4.7886	-13.064087	0.000265	2.647187	0.896891	-0.000106
1127	1.1204e+02	-4.8303	-13.161849	0.000244	2.443557	0.827900	-0.000098
1128	1.1214e+02	-4.8624	-13.268980	0.000268	2.677731	0.907240	-0.000108
1129	1.1224e+02	-4.9250	-13.364298	0.000238	2.382468	0.807202	-0.000096
1130	1.1234e+02	-4.9475	-13.467356	0.000258	2.575916	0.872744	-0.000104
1131	1.1244e+02	-5.0068	-13.567562	0.000250	2.504646	0.848597	-0.000101
1132	1.1253e+02	-5.0293	-13.671434	0.000260	2.596279	0.879643	-0.000104
1133	1.1263e+02	-5.0662	-13.765531	0.000235	2.351924	0.796853	-0.000095
1134	1.1273e+02	-5.1351	-13.867773	0.000256	2.555553	0.865845	-0.000103
1135	1.1283e+02	-5.1480	-13.967572	0.000249	2.494464	0.845147	-0.000100
1136	1.1293e+02	-5.1897	-14.064927	0.000243	2.433376	0.824450	-0.000098
1137	1.1303e+02	-5.2346	-14.174502	0.000274	2.738820	0.927937	-0.000110
1138	1.1313e+02	-5.2763	-14.266562	0.000230	2.301016	0.779605	-0.000093
1139	1.1323e+02	-5.3132	-14.369620	0.000258	2.575916	0.872744	-0.000104
1140	1.1333e+02	-5.3662	-14.469418	0.000249	2.494464	0.845147	-0.000100
1141	1.1343e+02	-5.4127	-14.573698	0.000261	2.606461	0.883093	-0.000105
1142	1.1353e+02	-5.4432	-14.667794	0.000235	2.351924	0.796853	-0.000095
1143	1.1363e+02	-5.4592	-14.770852	0.000258	2.575916	0.872744	-0.000104
1144	1.1373e+02	-5.5025	-14.868614	0.000244	2.443557	0.827900	-0.000098
1145	1.1383e+02	-5.5603	-14.976967	0.000271	2.708276	0.917589	-0.000109
1146	1.1393e+02	-5.5924	-15.072285	0.000238	2.382468	0.807202	-0.000096
1147	1.1403e+02	-5.6437	-15.174528	0.000256	2.555553	0.865845	-0.000103
1148	1.1413e+02	-5.6662	-15.273513	0.000247	2.474101	0.838248	-0.000099
1149	1.1423e+02	-5.7111	-15.372090	0.000246	2.463920	0.834799	-0.000099
1150	1.1433e+02	-5.7496	-15.474740	0.000257	2.565735	0.869295	-0.000103
1151	1.1442e+02	-5.7849	-15.572909	0.000245	2.453739	0.831349	-0.000099
1152	1.1452e+02	-5.8378	-15.675967	0.000258	2.575916	0.872744	-0.000104
1153	1.1462e+02	-5.8715	-15.778210	0.000256	2.555553	0.865845	-0.000103
1154	1.1472e+02	-5.9148	-15.878416	0.000250	2.504646	0.848597	-0.000101
1155	1.1482e+02	-5.9581	-15.979030	0.000251	2.514827	0.852047	-0.000101
1156	1.1492e+02	-5.9982	-16.081273	0.000256	2.555553	0.865845	-0.000103
1157	1.1502e+02	-6.0095	-16.189219	0.000270	2.698094	0.914139	-0.000108
1158	1.1512e+02	-6.0624	-16.286981	0.000244	2.443557	0.827900	-0.000098
1159	1.1522e+02	-6.0784	-16.382299	0.000238	2.382468	0.807202	-0.000096
1160	1.1532e+02	-6.1346	-16.489837	0.000269	2.687913	0.910689	-0.000108
1161	1.1542e+02	-6.1779	-16.592080	0.000256	2.555553	0.865845	-0.000103
1162	1.1552e+02	-6.2517	-16.689843	0.000244	2.443557	0.827900	-0.000098
1163	1.1562e+02	-6.2629	-16.792086	0.000256	2.555553	0.865845	-0.000103
1164	1.1572e+02	-6.3094	-16.894329	0.000256	2.555553	0.865845	-0.000103
1165	1.1582e+02	-6.3496	-16.998201	0.000260	2.596279	0.879643	-0.000104
1166	1.1592e+02	-6.3736	-17.095963	0.000244	2.443557	0.827900	-0.000098
1167	1.1602e+02	-6.4217	-17.191689	0.000239	2.392650	0.810652	-0.000096
1168	1.1612e+02	-6.4699	-17.290266	0.000246	2.463920	0.834799	-0.000099
1169	1.1622e+02	-6.5004	-17.388435	0.000245	2.453739	0.831349	-0.000099
1170	1.1632e+02	-6.5581	-17.496788	0.000271	2.708276	0.917589	-0.000109
1171	1.1642e+02	-6.6014	-17.591292	0.000236	2.362105	0.800303	-0.000095
1172	1.1651e+02	-6.6415	-17.691905	0.000251	2.514827	0.852047	-0.000101
1173	1.1661e+02	-6.6752	-17.786816	0.000237	2.372287	0.803752	-0.000095
1174	1.1671e+02	-6.7105	-17.892318	0.000264	2.637005	0.893442	-0.000106
1175	1.1681e+02	-6.7474	-17.988451	0.000240	2.402831	0.814101	-0.000097
1176	1.1691e+02	-6.7827	-18.094767	0.000266	2.657368	0.900341	-0.000107
1177	1.1701e+02	-6.8244	-18.195381	0.000251	2.514827	0.852047	-0.000101
1178	1.1711e+02	-6.8469	-18.294772	0.000248	2.484283	0.841698	-0.000100
1179	1.1721e+02	-6.8982	-18.390905	0.000240	2.402831	0.814101	-0.000097
1180	1.1731e+02	-6.9479	-18.497222	0.000266	2.657368	0.900341	-0.000107
1181	1.1741e+02	-6.9592	-18.593354	0.000240	2.402831	0.814101	-0.000097
1182	1.1751e+02	-7.0362	-18.689487	0.000240	2.402831	0.814101	-0.000097
1183	1.1761e+02	-7.0618	-18.796618	0.000268	2.677731	0.907240	-0.000108
1184	1.1771e+02	-7.0987	-18.892344	0.000239	2.392650	0.810652	-0.000096
1185	1.1781e+02	-7.1501	-18.994180	0.000255	2.545372	0.862395	-0.000102
1186	1.1791e+02	-7.2046	-19.089498	0.000238	2.382468	0.807202	-0.000096
1187	1.1801e+02	-7.2110	-19.193777	0.000261	2.606461	0.883093	-0.000105
1188	1.1811e+02	-7.2495	-19.290318	0.000241	2.413013	0.817551	-0.000097
1189	1.1821e+02	-7.2848	-19.392968	0.000257	2.565735	0.869295	-0.000103
1190	1.1831e+02	-7.3506	-19.493989	0.000253	2.525009	0.855496	-0.000102
1191	1.1841e+02	-7.3779	-19.593380	0.000248	2.484283	0.841698	-0.000100
1192	1.1850e+02	-7.4003	-19.687069	0.000234	2.341742	0.793404	-0.000094
1193	1.1860e+02	-7.4693	-19.787683	0.000251	2.514827	0.852047	-0.000101
1194	1.1870e+02	-7.5078	-19.885445	0.000244	2.443557	0.827900	-0.000098
1195	1.1880e+02	-7.5271	-19.984837	0.000248	2.484283	0.841698	-0.000100
1196	1.1890e+02	-7.5864	-20.084228	0.000248	2.484283	0.841698	-0.000100
1197	1.1900e+02	-7.6121	-20.179954	0.000239	2.392650	0.810652	-0.000096
1198	1.1910e+02	-7.6554	-20.278938	0.000247	2.474101	0.838248	-0.000099
1199	1.1920e+02	-7.7035	-20.369775	0.000227	2.270472	0.769257	-0.000091
1200	1.1930e+02	-7.7388	-20.464279	0.000236	2.362105	0.800303	-0.000095
1201	1.1940e+02	-7.7853	-20.562448	0.000245	2.453739	0.831349	-0.000099
1202	1.1950e+02	-7.8126	-20.661840	0.000248	2.484283	0.841698	-0.000100
1203	1.1960e+02	-7.8575	-20.755936	0.000235	2.351924	0.796853	-0.000095
1204	1.1970e+02	-7.8944	-20.850440	0.000236	2.362105	0.800303	-0.000095
1205	1.1980e+02	-7.9602	-20.950646	0.000250	2.504646	0.848597	-0.000101
1206	1.1990e+02	-7.9939	-21.048001	0.000243	2.433376	0.824450	-0.000098
1207	1.2000e+02	-7.9987	-21.136394	0.000221	2.209383	0.748559	-0.000089
1208	1.2010e+02	-8.0565	-21.239452	0.000258	2.575916	0.872744	-0.000104
1209	1.2020e+02	-8.0853	-21.333955	0.000236	2.362105	0.800303	-0.000095
1210	1.2030e+02	-8.1415	-21.427237	0.000233	2.331561	0.789954	-0.000094
1211	1.2039e+02	-8.1655	-21.524591	0.000243	2.433376	0.824450	-0.000098
1212	1.2049e+02	-8.2506	-21.614614	0.000225	2.250109	0.762357	-0.000090
1213	1.2059e+02	-8.2570	-21.710747	0.000240	2.402831	0.814101	-0.000097
1214	1.2069e+02	-8.3244	-21.808509	0.000244	2.443557	0.827900	-0.000098
1215	1.2079e+02	-8.3388	-21.904642	0.000240	2.402831	0.814101	-0.000097
1216	1.2089e+02	-8.3789	-22.000775	0.000240	2.402831	0.814101	-0.000097
1217	1.2099e+02	-8.4174	-22.094056	0.000233	2.331561	0.789954	-0.000094
1218	1.2109e+02	-8.4431	-22.187745	0.000234	2.341742	0.793404	-0.000094
1219	1.2119e+02	-8.5056	-22.280212	0.000231	2.311198	0.783055	-0.000093
1220	1.2129e+02	-8.5217	-22.379603	0.000248	2.484283	0.841698	-0.000100
1221	1.2139e+02	-8.5923	-22.469626	0.000225	2.250109	0.762357	-0.000090
1222	1.2149e+02	-8.6147	-22.567796	0.000245	2.453739	0.831349	-0.000099
1223	1.2159e+02	-8.6548	-22.663929	0.000240	2.402831	0.814101	-0.000097
1224	1.2169e+02	-8.7014	-22.757210	0.000233	2.331561	0.789954	-0.000094
1225	1.2179e+02	-8.7318	-22.844381	0.000218	2.178838	0.738210	-0.000088
1226	1.2189e+02	-8.7671	-22.940514	0.000240	2.402831	0.814101	-0.000097
1227	1.2199e+02	-8.8008	-23.035832	0.000238	2.382468	0.807202	-0.000096
1228	1.2209e+02	-8.8313	-23.131965	0.000240	2.402831	0.814101	-0.000097
1229	1.2219e+02	-8.8955	-23.225247	0.000233	2.331561	0.789954	-0.000094
1230	1.2229e+02	-8.9436	-23.318935	0.000234	2.341742	0.793404	-0.000094
1231	1.2239e+02	-8.9853	-23.412624	0.000234	2.341742	0.793404	-0.000094
1232	1.2248e+02	-9.0014	-23.505498	0.000232	2.321379	0.786505	-0.000093
1233	1.2258e+02	-9.0703	-23.604890	0.000248	2.484283	0.841698	-0.000100
1234	1.2268e+02	-9.1008	-23.693283	0.000221	2.209383	0.748559	-0.000089
1235	1.2278e+02	-9.1265	-23.786972	0.000234	2.341742	0.793404	-0.000094
1236	1.2288e+02	-9.1778	-23.879439	0.000231	2.311198	0.783055	-0.000093
1237	1.2298e+02	-9.2211	-23.971905	0.000231	2.311198	0.783055	-0.000093
1238	1.2308e+02	-9.2612	-24.063965	0.000230	2.301016	0.779605	-0.000093
1239	1.2318e+02	-9.2981	-24.156432	0.000231	2.311198	0.783055	-0.000093
1240	1.2328e+02	-9.3286	-24.242381	0.000215	2.148294	0.727862	-0.000086
1241	1.2338e+02	-9.3767	-24.342587	0.000250	2.504646	0.848597	-0.000101
1242	1.2348e+02	-9.4152	-24.430981	0.000221	2.209383	0.748559	-0.000089
1243	1.2358e+02	-9.4441	-24.525891	0.000237	2.372287	0.803752	-0.000095
1244	1.2368e+02	-9.4618	-24.609397	0.000209	2.087205	0.707164	-0.000084
1245	1.2378e+02	-9.5275	-24.700641	0.000228	2.280653	0.772706	-0.000092
1246	1.2388e+02	-9.5837	-24.800033	0.000248	2.484283	0.841698	-0.000100
1247	1.2398e+02	-9.6029	-24.888834	0.000222	2.219564	0.752009	-0.000089
1248	1.2408e+02	-9.6543	-24.976412	0.000219	2.189020	0.741660	-0.000088
1249	1.2418e+02	-9.6880	-25.067250	0.000227	2.270472	0.769257	-0.000091
1250	1.2428e+02	-9.7361	-25.156050	0.000222	2.219564	0.752009	-0.000089
1251	1.2438e+02	-9.7730	-25.255849	0.000249	2.494464	0.845147	-0.000100
1252	1.2447e+02	-9.8147	-25.338540	0.000207	2.066842	0.700265	-0.000083
1253	1.2457e+02	-9.8452	-25.434673	0.000240	2.402831	0.814101	-0.000097
1254	1.2467e+02	-9.8917	-25.529583	0.000237	2.372287	0.803752	-0.000095
1255	1.2477e+02	-9.9142	-25.621643	0.000230	2.301016	0.779605	-0.000093
1256	1.2487e+02	-9.9671	-25.709221	0.000219	2.189020	0.741660	-0.000088
1257	1.2497e+02	-10.0152	-25.798429	0.000223	2.229746	0.755458	-0.000090
1258	1.2507e+02	-10.0922	-25.893748	0.000238	2.382468	0.807202	-0.000096
1259	1.2517e+02	-10.0922	-25.983363	0.000224	2.239927	0.758908	-0.000090
1260	1.2527e+02	-10.1404	-26.083162	0.000249	2.494464	0.845147	-0.000100
1261	1.2537e+02	-10.1708	-26.162594	0.000199	1.985390	0.672668	-0.000080
1262	1.2547e+02	-10.2174	-26.256690	0.000235	2.351924	0.796853	-0.000095
1263	1.2557e+02	-10.2382	-26.349157	0.000231	2.311198	0.783055	-0.000093
1264	1.2567e+02	-10.2847	-26.446919	0.000244	2.443557	0.827900	-0.000098
1265	1.2577e+02	-10.3393	-26.528387	0.000204	2.036298	0.689916	-0.000082
1266	1.2587e+02	-10.3762	-26.619225	0.000227	2.270472	0.769257	-0.000091
1267	1.2597e+02	-10.4243	-26.712099	0.000232	2.321379	0.786505	-0.000093
1268	1.2607e+02	-10.4307	-26.810676	0.000246	2.463920	0.834799	-0.000099
1269	1.2617e+02	-10.5013	-26.898254	0.000219	2.189020	0.741660	-0.000088
1270	1.2627e+02	-10.5302	-26.989906	0.000229	2.290835	0.776156	-0.000092
1271	1.2636e+02	-10.5863	-27.075448	0.000214	2.138112	0.724412	-0.000086
1272	1.2646e+02	-10.6136	-27.170359	0.000237	2.372287	0.803752	-0.000095
1273	1.2656e+02	-10.6441	-27.255494	0.000213	2.127931	0.720963	-0.000086
1274	1.2666e+02	-10.7066	-27.350405	0.000237	2.372287	0.803752	-0.000095
1275	1.2676e+02	-10.7307	-27.435947	0.000214	2.138112	0.724412	-0.000086
1276	1.2686e+02	-10.7644	-27.534523	0.000246	2.463920	0.834799	-0.000099
1277	1.2696e+02	-10.8061	-27.626990	0.000231	2.311198	0.783055	-0.000093
1278	1.2706e+02	-10.8558	-27.710903	0.000210	2.097386	0.710614	-0.000084
1279	1.2716e+02	-10.9008	-27.802962	0.000230	2.301016	0.779605	-0.000093
1280	1.2726e+02	-10.9264	-27.902354	0.000248	2.484283	0.841698	-0.000100
1281	1.2736e+02	-10.9697	-27.993191	0.000227	2.270472	0.769257	-0.000091
1282	1.2746e+02	-11.0195	-28.090953	0.000244	2.443557	0.827900	-0.000098
1283	1.2756e+02	-11.0580	-28.177717	0.000217	2.168657	0.734761	-0.000087
1284	1.2766e+02	-11.0804	-28.267333	0.000224	2.239927	0.758908	-0.000090
1285	1.2776e+02	-11.1045	-28.365910	0.000246	2.463920	0.834799	-0.000099
1286	1.2786e+02	-11.1671	-28.459191	0.000233	2.331561	0.789954	-0.000094
1287	1.2796e+02	-11.2104	-28.546770	0.000219	2.189020	0.741660	-0.000088
1288	1.2806e+02	-11.2569	-28.640458	0.000234	2.341742	0.793404	-0.000094
1289	1.2816e+02	-11.2762	-28.732111	0.000229	2.290835	0.776156	-0.000092
1290	1.2826e+02	-11.3371	-28.831909	0.000249	2.494464	0.845147	-0.000100
1291	1.2835e+02	-11.3740	-28.921932	0.000225	2.250109	0.762357	-0.000090
1292	1.2845e+02	-11.4013	-29.008696	0.000217	2.168657	0.734761	-0.000087
1293	1.2855e+02	-11.4334	-29.102385	0.000234	2.341742	0.793404	-0.000094
1294	1.2865e+02	-11.4799	-29.203406	0.000253	2.525009	0.855496	-0.000102
1295	1.2875e+02	-11.5296	-29.295873	0.000231	2.311198	0.783055	-0.000093
1296	1.2885e+02	-11.5906	-29.385895	0.000225	2.250109	0.762357	-0.000090
1297	1.2895e+02	-11.6146	-29.477547	0.000229	2.290835	0.776156	-0.000092
1298	1.2905e+02	-11.6355	-29.570014	0.000231	2.311198	0.783055	-0.000093
1299	1.2915e+02	-11.7013	-29.671442	0.000254	2.535190	0.858946	-0.000102
1300	1.2925e+02	-11.7125	-29.754948	0.000209	2.087205	0.707164	-0.000084
1301	1.2935e+02	-11.7462	-29.849044	0.000235	2.351924	0.796853	-0.000095
1302	1.2945e+02	-11.8136	-29.936215	0.000218	2.178838	0.738210	-0.000088
1303	1.2955e+02	-11.8617	-30.037643	0.000254	2.535190	0.858946	-0.000102
1304	1.2965e+02	-11.8761	-30.127666	0.000225	2.250109	0.762357	-0.000090
1305	1.2975e+02	-11.9194	-30.220540	0.000232	2.321379	0.786505	-0.000093
1306	1.2985e+02	-11.9596	-30.310970	0.000226	2.260290	0.765807	-0.000091
1307	1.2995e+02	-12.0045	-30.409547	0.000246	2.463920	0.834799	-0.000099
1308	1.3005e+02	-12.0510	-30.504458	0.000237	2.372287	0.803752	-0.000095
1309	1.3015e+02	-12.0943	-30.594073	0.000224	2.239927	0.758908	-0.000090
1310	1.3025e+02	-12.1071	-30.688577	0.000236	2.362105	0.800303	-0.000095
1311	1.3034e+02	-12.1649	-30.781451	0.000232	2.321379	0.786505	-0.000093
1312	1.3044e+02	-12.2018	-30.870659	0.000223	2.229746	0.755458	-0.000090
1313	1.3054e+02	-12.2194	-30.962311	0.000229	2.290835	0.776156	-0.000092
1314	1.3064e+02	-12.2868	-31.058851	0.000241	2.413013	0.817551	-0.000097
1315	1.3074e+02	-12.3221	-31.152133	0.000233	2.331561	0.789954	-0.000094
1316	1.3084e+02	-12.3718	-31.244599	0.000231	2.311198	0.783055	-0.000093
1317	1.3094e+02	-12.4103	-31.339103	0.000236	2.362105	0.800303	-0.000095
1318	1.3104e+02	-12.4408	-31.429940	0.000227	2.270472	0.769257	-0.000091
1319	1.3114e+02	-12.4873	-31.517112	0.000218	2.178838	0.738210	-0.000088
1320	1.3124e+02	-12.4986	-31.614874	0.000244	2.443557	0.827900	-0.000098
1321	1.3134e+02	-12.5627	-31.706526	0.000229	2.290835	0.776156	-0.000092
1322	1.3144e+02	-12.5996	-31.800622	0.000235	2.351924	0.796853	-0.000095
1323	1.3154e+02	-12.6333	-31.897570	0.000242	2.423194	0.821000	-0.000097
1324	1.3164e+02	-12.6831	-31.994517	0.000242	2.423194	0.821000	-0.000097
1325	1.3174e+02	-12.7087	-32.080466	0.000215	2.148294	0.727862	-0.000086
1326	1.3184e+02	-12.7553	-32.179043	0.000246	2.463920	0.834799	-0.000099
1327	1.3194e+02	-12.8066	-32.275991	0.000242	2.423194	0.821000	-0.000097
1328	1.3204e+02	-12.8403	-32.368050	0.000230	2.301016	0.779605	-0.000093
1329	1.3214e+02	-12.8868	-32.451555	0.000209	2.087205	0.707164	-0.000084
1330	1.3224e+02	-12.9365	-32.549318	0.000244	2.443557	0.827900	-0.000098
1331	1.3234e+02	-12.9686	-32.640155	0.000227	2.270472	0.769257	-0.000091
1332	1.3243e+02	-12.9943	-32.738732	0.000246	2.463920	0.834799	-0.000099
1333	1.3253e+02	-13.0183	-32.827125	0.000221	2.209383	0.748559	-0.000089
1334	1.3263e+02	-13.0841	-32.925295	0.000245	2.453739	0.831349	-0.000099
1335	1.3273e+02	-13.1290	-33.018169	0.000232	2.321379	0.786505	-0.000093
1336	1.3283e+02	-13.1691	-33.106970	0.000222	2.219564	0.752009	-0.000089
1337	1.3293e+02	-13.2044	-33.205139	0.000245	2.453739	0.831349	-0.000099
1338	1.3303e+02	-13.2510	-33.300865	0.000239	2.392650	0.810652	-0.000096
1339	1.3313e+02	-13.2847	-33.391702	0.000227	2.270472	0.769257	-0.000091
1340	1.3323e+02	-13.3103	-33.482947	0.000228	2.280653	0.772706	-0.000092
1341	1.3333e+02	-13.3617	-33.576228	0.000233	2.331561	0.789954	-0.000094
1342	1.3343e+02	-13.3921	-33.665436	0.000223	2.229746	0.755458	-0.000090
1343	1.3353e+02	-13.4178	-33.758718	0.000233	2.331561	0.789954	-0.000094
1344	1.3363e+02	-13.4884	-33.849962	0.000228	2.280653	0.772706	-0.000092
1345	1.3373e+02	-13.5173	-33.945281	0.000238	2.382468	0.807202	-0.000096
1346	1.3383e+02	-13.5718	-34.035711	0.000226	2.260290	0.765807	-0.000091
1347	1.3393e+02	-13.6055	-34.131029	0.000238	2.382468	0.807202	-0.000096
1348	1.3403e+02	-13.6296	-34.226347	0.000238	2.382468	0.807202	-0.000096
1349	1.3413e+02	-13.6953	-34.315962	0.000224	2.239927	0.758908	-0.000090
1350	1.3423e+02	-13.6937	-34.406392	-0.000226	-2.260290	-0.765807	-0.000091
1351	1.3432e+02	-13.7547	-34.501303	0.000237	2.372287	0.803752	-0.000095
1352	1.3442e+02	-13.7884	-34.593363	0.000230	2.301016	0.779605	-0.000093
1353	1.3452e+02	-13.8285	-34.681349	0.000220	2.199201	0.745110	-0.000088
1354	1.3462e+02	-13.8766	-34.772593	0.000228	2.280653	0.772706	-0.000092
1355	1.3472e+02	-13.9119	-34.866282	0.000234	2.341742	0.793404	-0.000094
1356	1.3482e+02	-13.9729	-34.954268	0.000220	2.199201	0.745110	-0.000088
1357	1.3492e+02	-14.0017	-35.044698	0.000226	2.260290	0.765807	-0.000091
1358	1.3502e+02	-14.0370	-35.142053	0.000243	2.433376	0.824450	-0.000098
1359	1.3512e+02	-14.0820	-35.226780	0.000212	2.117749	0.717513	-0.000085
1360	1.3522e+02	-14.1253	-35.326579	0.000249	2.494464	0.845147	-0.000100
1361	1.3532e+02	-14.1558	-35.418639	0.000230	2.301016	0.779605	-0.000093
1362	1.3542e+02	-14.1894	-35.506625	0.000220	2.199201	0.745110	-0.000088
1363	1.3552e+02	-14.2295	-35.594611	0.000220	2.199201	0.745110	-0.000088
1364	1.3562e+02	-14.2809	-35.685448	0.000227	2.270472	0.769257	-0.000091
1365	1.3572e+02	-14.3130	-35.776285	0.000227	2.270472	0.769257	-0.000091
1366	1.3582e+02	-14.3579	-35.863457	0.000218	2.178838	0.738210	-0.000088
1367	1.3592e+02	-14.3932	-35.949813	0.000216	2.158475	0.731311	-0.000087
1368	1.3602e+02	-14.4285	-36.042687	0.000232	2.321379	0.786505	-0.000093
1369	1.3612e+02	-14.4862	-36.134339	0.000229	2.290835	0.776156	-0.000092
1370	1.3622e+02	-14.5023	-36.221103	0.000217	2.168657	0.734761	-0.000087
1371	1.3631e+02	-14.5360	-36.308682	0.000219	2.189020	0.741660	-0.000088
1372	1.3641e+02	-14.5873	-36.400334	0.000229	2.290835	0.776156	-0.000092
1373	1.3651e+02	-14.6531	-36.484654	0.000211	2.107568	0.714063	-0.000085
1374	1.3661e+02	-14.6755	-36.573047	0.000221	2.209383	0.748559	-0.000089
1375	1.3671e+02	-14.7285	-36.659404	0.000216	2.158475	0.731311	-0.000087
1376	1.3681e+02	-14.7445	-36.748612	0.000223	2.229746	0.755458	-0.000090
1377	1.3691e+02	-14.7926	-36.834561	0.000215	2.148294	0.727862	-0.000086
1378	1.3701e+02	-14.8295	-36.923362	0.000222	2.219564	0.752009	-0.000089
1379	1.3711e+02	-14.8520	-37.008497	0.000213	2.127931	0.720963	-0.000086
1380	1.3721e+02	-14.9001	-37.102185	0.000234	2.341742	0.793404	-0.000094
1381	1.3731e+02	-14.9482	-37.184061	0.000205	2.046479	0.693366	-0.000082
1382	1.3741e+02	-14.9932	-37.270825	0.000217	2.168657	0.734761	-0.000087
1383	1.3751e+02	-15.0477	-37.363699	0.000232	2.321379	0.786505	-0.000093
1384	1.3761e+02	-15.0525	-37.451685	0.000220	2.199201	0.745110	-0.000088
1385	1.3771e+02	-15.1055	-37.536005	0.000211	2.107568	0.714063	-0.000085
1386	1.3781e+02	-15.1584	-37.621954	0.000215	2.148294	0.727862	-0.000086
1387	1.3791e+02	-15.1841	-37.711977	0.000225	2.250109	0.762357	-0.000090
1388	1.3801e+02	-15.2354	-37.797926	0.000215	2.148294	0.727862	-0.000086
1389	1.3811e+02	-15.2723	-37.887949	0.000225	2.250109	0.762357	-0.000090
1390	1.3821e+02	-15.3236	-37.974713	0.000217	2.168657	0.734761	-0.000087
1391	1.3831e+02	-15.3493	-38.061477	0.000217	2.168657	0.734761	-0.000087
1392	1.3840e+02	-15.3669	-38.148241	0.000217	2.168657	0.734761	-0.000087
1393	1.3850e+02	-15.4279	-38.235820	0.000219	2.189020	0.741660	-0.000088
1394	1.3860e+02	-15.4696	-38.320140	0.000211	2.107568	0.714063	-0.000085
1395	1.3870e+02	-15.5177	-38.408126	0.000220	2.199201	0.745110	-0.000088
1396	1.3880e+02	-15.5643	-38.501814	0.000234	2.341742	0.793404	-0.000094
1397	1.3890e+02	-15.6108	-38.579209	0.000193	1.934483	0.655420	-0.000078
1398	1.3900e+02	-15.6268	-38.665566	0.000216	2.158475	0.731311	-0.000087
1399	1.3910e+02	-15.6814	-38.748257	0.000207	2.066842	0.700265	-0.000083
1400	1.3920e+02	-15.7215	-38.833798	0.000214	2.138112	0.724412	-0.000086
1401	1.3930e+02	-15.7391	-38.925858	0.000230	2.301016	0.779605	-0.000093
1402	1.3940e+02	-15.7889	-39.008548	0.000207	2.066842	0.700265	-0.000083
1403	1.3950e+02	-15.8225	-39.098978	0.000226	2.260290	0.765807	-0.000091
1404	1.3960e+02	-15.8594	-39.184113	0.000213	2.127931	0.720963	-0.000086
1405	1.3970e+02	-15.9156	-39.262730	0.000197	1.965027	0.665769	-0.000079
1406	1.3980e+02	-15.9477	-39.345828	0.000208	2.077023	0.703715	-0.000084
1407	1.3990e+02	-15.9862	-39.434221	0.000221	2.209383	0.748559	-0.000089
1408	1.4000e+02	-16.0247	-39.522615	0.000221	2.209383	0.748559	-0.000089
1409	1.4010e+02	-16.0696	-39.607749	0.000213	2.127931	0.720963	-0.000086
1410	1.4020e+02	-16.0808	-39.686366	0.000197	1.965027	0.665769	-0.000079
1411	1.4029e+02	-16.1482	-39.769464	0.000208	2.077023	0.703715	-0.000084
1412	1.4039e+02	-16.1787	-39.860709	0.000228	2.280653	0.772706	-0.000092
1413	1.4049e+02	-16.2124	-39.934438	0.000184	1.842849	0.624374	-0.000074
1414	1.4059e+02	-16.2653	-40.023646	0.000223	2.229746	0.755458	-0.000090
1415	1.4069e+02	-16.2798	-40.102671	0.000198	1.975209	0.669219	-0.000079
1416	1.4079e+02	-16.3487	-40.193915	0.000228	2.280653	0.772706	-0.000092
1417	1.4089e+02	-16.3840	-40.275791	0.000205	2.046479	0.693366	-0.000082
1418	1.4099e+02	-16.4081	-40.358482	0.000207	2.066842	0.700265	-0.000083
1419	1.4109e+02	-16.4723	-40.440357	0.000205	2.046479	0.693366	-0.000082
1420	1.4119e+02	-16.5108	-40.528343	0.000220	2.199201	0.745110	-0.000088
1421	1.4129e+02	-16.5557	-40.611441	0.000208	2.077023	0.703715	-0.000084
1422	1.4139e+02	-16.5814	-40.695354	0.000210	2.097386	0.710614	-0.000084
1423	1.4149e+02	-16.6199	-40.780081	0.000212	2.117749	0.717513	-0.000085
1424	1.4159e+02	-16.6616	-40.865216	0.000213	2.127931	0.720963	-0.000086
1425	1.4169e+02	-16.7113	-40.953202	0.000220	2.199201	0.745110	-0.000088
1426	1.4179e+02	-16.7530	-41.036300	0.000208	2.077023	0.703715	-0.000084
1427	1.4189e+02	-16.7979	-41.122656	0.000216	2.158475	0.731311	-0.000087
1428	1.4199e+02	-16.8348	-41.204125	0.000204	2.036298	0.689916	-0.000082
1429	1.4209e+02	-16.8573	-41.285186	0.000203	2.026116	0.686467	-0.000081
1430	1.4219e+02	-16.9134	-41.371135	0.000215	2.148294	0.727862	-0.000086
1431	1.4228e+02	-16.9616	-41.458307	0.000218	2.178838	0.738210	-0.000088
1432	1.4238e+02	-16.9744	-41.540590	0.000206	2.056660	0.696815	-0.000083
1433	1.4248e+02	-17.0113	-41.619614	0.000198	1.975209	0.669219	-0.000079
1434	1.4258e+02	-17.0626	-41.708415	0.000222	2.219564	0.752009	-0.000089
1435	1.4268e+02	-17.0899	-41.794364	0.000215	2.148294	0.727862	-0.000086
1436	1.4278e+02	-17.1525	-41.879906	0.000214	2.138112	0.724412	-0.000086
1437	1.4288e+02	-17.1813	-41.961375	0.000204	2.036298	0.689916	-0.000082
1438	1.4298e+02	-17.2230	-42.042436	0.000203	2.026116	0.686467	-0.000081
1439	1.4308e+02	-17.2712	-42.132458	0.000225	2.250109	0.762357	-0.000090
1440	1.4318e+02	-17.3241	-42.215964	0.000209	2.087205	0.707164	-0.000084
1441	1.4328e+02	-17.3305	-42.298247	0.000206	2.056660	0.696815	-0.000083
1442	1.4338e+02	-17.3578	-42.383789	0.000214	2.138112	0.724412	-0.000086
1443	1.4348e+02	-17.4332	-42.464850	0.000203	2.026116	0.686467	-0.000081
1444	1.4358e+02	-17.4669	-42.550392	0.000214	2.138112	0.724412	-0.000086
1445	1.4368e+02	-17.5038	-42.633490	0.000208	2.077023	0.703715	-0.000084
1446	1.4378e+02	-17.5439	-42.721883	0.000221	2.209383	0.748559	-0.000089
1447	1.4388e+02	-17.5920	-42.805388	0.000209	2.087205	0.707164	-0.000084
1448	1.4398e+02	-17.6225	-42.889301	0.000210	2.097386	0.710614	-0.000084
1449	1.4408e+02	-17.6674	-42.977694	0.000221	2.209383	0.748559	-0.000089
1450	1.4418e+02	-17.7075	-43.065273	0.000219	2.189020	0.741660	-0.000088
1451	1.4428e+02	-17.7316	-43.149185	0.000210	2.097386	0.710614	-0.000084
1452	1.4437e+02	-17.7701	-43.238393	0.000223	2.229746	0.755458	-0.000090
1453	1.4447e+02	-17.8022	-43.325565	0.000218	2.178838	0.738210	-0.000088
1454	1.4457e+02	-17.8535	-43.405811	0.000201	2.005753	0.679568	-0.000081
1455	1.4467e+02	-17.8824	-43.497871	0.000230	2.301016	0.779605	-0.000093
1456	1.4477e+02	-17.9433	-43.583413	0.000214	2.138112	0.724412	-0.000086
1457	1.4487e+02	-17.9690	-43.673028	0.000224	2.239927	0.758908	-0.000090
1458	1.4497e+02	-18.0187	-43.761829	0.000222	2.219564	0.752009	-0.000089
1459	1.4507e+02	-18.0572	-43.844519	0.000207	2.066842	0.700265	-0.000083
1460	1.4517e+02	-18.1134	-43.930468	0.000215	2.148294	0.727862	-0.000086
1461	1.4527e+02	-18.1230	-44.022935	0.000231	2.311198	0.783055	-0.000093
1462	1.4537e+02	-18.2064	-44.107662	0.000212	2.117749	0.717513	-0.000085
1463	1.4547e+02	-18.2241	-44.193204	0.000214	2.138112	0.724412	-0.000086
1464	1.4557e+02	-18.2546	-44.286079	0.000232	2.321379	0.786505	-0.000093
1465	1.4567e+02	-18.3011	-44.370806	0.000212	2.117749	0.717513	-0.000085
1466	1.4577e+02	-18.3348	-44.466124	0.000238	2.382468	0.807202	-0.000096
1467	1.4587e+02	-18.3781	-44.545963	0.000200	1.995572	0.676118	-0.000080
1468	1.4597e+02	-18.4262	-44.637615	0.000229	2.290835	0.776156	-0.000092
1469	1.4607e+02	-18.4374	-44.723972	0.000216	2.158475	0.731311	-0.000087
1470	1.4617e+02	-18.5064	-44.810736	0.000217	2.168657	0.734761	-0.000087
1471	1.4626e+02	-18.5289	-44.899536	0.000222	2.219564	0.752009	-0.000089
1472	1.4636e+02	-18.5898	-44.986300	0.000217	2.168657	0.734761	-0.000087
1473	1.4646e+02	-18.6123	-45.074694	0.000221	2.209383	0.748559	-0.000089
1474	1.4656e+02	-18.6556	-45.166346	0.000229	2.290835	0.776156	-0.000092
1475	1.4666e+02	-18.6877	-45.252702	0.000216	2.158475	0.731311	-0.000087
1476	1.4676e+02	-18.7326	-45.342318	0.000224	2.239927	0.758908	-0.000090
1477	1.4686e+02	-18.7775	-45.433970	0.000229	2.290835	0.776156	-0.000092
1478	1.4696e+02	-18.8225	-45.525215	0.000228	2.280653	0.772706	-0.000092
1479	1.4706e+02	-18.8545	-45.612386	0.000218	2.178838	0.738210	-0.000088
1480	1.4716e+02	-18.9091	-45.702409	0.000225	2.250109	0.762357	-0.000090
1481	1.4726e+02	-18.9396	-45.786321	0.000210	2.097386	0.710614	-0.000084
1482	1.4736e+02	-18.9604	-45.884898	0.000246	2.463920	0.834799	-0.000099
1483	1.4746e+02	-19.0086	-45.972884	0.000220	2.199201	0.745110	-0.000088
1484	1.4756e+02	-19.0471	-46.060870	0.000220	2.199201	0.745110	-0.000088
1485	1.4766e+02	-19.0872	-46.146819	0.000215	2.148294	0.727862	-0.000086
1486	1.4776e+02	-19.1385	-46.243767	0.000242	2.423194	0.821000	-0.000097
1487	1.4786e+02	-19.1802	-46.337456	0.000234	2.341742	0.793404	-0.000094
1488	1.4796e+02	-19.1946	-46.430737	0.000233	2.331561	0.789954	-0.000094
1489	1.4806e+02	-19.2588	-46.521574	0.000227	2.270472	0.769257	-0.000091
1490	1.4816e+02	-19.3005	-46.617707	0.000240	2.402831	0.814101	-0.000097
1491	1.4825e+02	-19.3278	-46.704879	0.000218	2.178838	0.738210	-0.000088
1492	1.4835e+02	-19.3647	-46.799789	0.000237	2.372287	0.803752	-0.000095
1493	1.4845e+02	-19.4192	-46.893071	0.000233	2.331561	0.789954	-0.000094
1494	1.4855e+02	-19.4465	-46.985538	0.000231	2.311198	0.783055	-0.000093
1495	1.4865e+02	-19.4882	-47.082485	0.000242	2.423194	0.821000	-0.000097
1496	1.4875e+02	-19.5428	-47.179025	0.000241	2.413013	0.817551	-0.000097
1497	1.4885e+02	-19.5668	-47.276788	0.000244	2.443557	0.827900	-0.000098
1498	1.4895e+02	-19.6037	-47.372106	0.000238	2.382468	0.807202	-0.000096
1499	1.4905e+02	-19.6310	-47.470683	0.000246	2.463920	0.834799	-0.000099
1500	1.4915e+02	-19.7080	-47.557039	0.000216	2.158475	0.731311	-0.000087
1501	1.4925e+02	-19.7417	-47.660504	0.000259	2.586098	0.876194	-0.000104
1502	1.4935e+02	-19.7641	-47.761525	0.000253	2.525009	0.855496	-0.000102
1503	1.4945e+02	-19.8059	-47.851955	0.000226	2.260290	0.765807	-0.000091
1504	1.4955e+02	-19.8620	-47.951754	0.000249	2.494464	0.845147	-0.000100
1505	1.4965e+02	-19.8877	-48.047480	0.000239	2.392650	0.810652	-0.000096
1506	1.4975e+02	-19.9246	-48.152167	0.000262	2.616642	0.886542	-0.000105
1507	1.4985e+02	-20.0032	-48.250336	0.000245	2.453739	0.831349	-0.000099
1508	1.4995e+02	-19.9262	-48.197382	0.000132	1.323593	0.448446	0.000053
1509	1.5005e+02	-19.8973	-48.150537	0.000117	1.170871	0.396702	0.000047
1510	1.5015e+02	-19.8379	-48.096361	0.000135	1.354138	0.458794	0.000054
1511	1.5025e+02	-19.8026	-48.043406	0.000132	1.323593	0.448446	0.000053
1512	1.5034e+02	-19.7722	-47.985564	0.000145	1.445771	0.489841	0.000058
1513	1.5044e+02	-19.7305	-47.932609	0.000132	1.323593	0.448446	0.000053
1514	1.5054e+02	-19.6839	-47.873952	0.000147	1.466134	0.496740	0.000059
1515	1.5064e+02	-19.6519	-47.811628	0.000156	1.557768	0.527786	0.000063
1516	1.5074e+02	-19.6182	-47.757452	0.000135	1.354138	0.458794	0.000054
1517	1.5084e+02	-19.5781	-47.698387	0.000148	1.476316	0.500189	0.000059
1518	1.5094e+02	-19.5396	-47.631990	0.000166	1.659582	0.562282	0.000067
1519	1.5104e+02	-19.4818	-47.579443	0.000131	1.313412	0.444996	0.000053
1520	1.5114e+02	-19.4481	-47.508973	0.000176	1.761397	0.596778	0.000071
1521	1.5124e+02	-19.4241	-47.447057	0.000155	1.547586	0.524336	0.000062
1522	1.5134e+02	-19.3855	-47.383919	0.000158	1.578131	0.534685	0.000063
1523	1.5144e+02	-19.3326	-47.321595	0.000156	1.557768	0.527786	0.000063
1524	1.5154e+02	-19.3005	-47.254384	0.000168	1.679945	0.569181	0.000068
1525	1.5164e+02	-19.2620	-47.193282	0.000153	1.527223	0.517437	0.000061
1526	1.5174e+02	-19.2011	-47.127293	0.000165	1.649401	0.558832	0.000066
1527	1.5184e+02	-19.1802	-47.064562	0.000157	1.567949	0.531236	0.000063
1528	1.5194e+02	-19.1481	-46.994499	0.000175	1.751216	0.593328	0.000070
1529	1.5204e+02	-19.0984	-46.924844	0.000174	1.741034	0.589878	0.000070
1530	1.5214e+02	-19.0471	-46.862113	0.000157	1.567949	0.531236	0.000063
1531	1.5224e+02	-19.0037	-46.790013	0.000180	1.802123	0.610576	0.000072
1532	1.5233e+02	-19.0037	-46.722394	-0.000169	-1.690127	-0.572631	0.000068
1533	1.5243e+02	-18.9235	-46.647443	0.000187	1.873394	0.634723	0.000075
1534	1.5253e+02	-18.9139	-46.581454	0.000165	1.649401	0.558832	0.000066
1535	1.5263e+02	-18.8754	-46.508132	0.000183	1.832668	0.620925	0.000074
1536	1.5273e+02	-18.8289	-46.441735	0.000166	1.659582	0.562282	0.000067
1537	1.5283e+02	-18.7663	-46.370450	0.000178	1.781760	0.603677	0.000072
1538	1.5293e+02	-18.7150	-46.296721	0.000184	1.842849	0.624374	0.000074
1539	1.5303e+02	-18.7005	-46.226658	0.000175	1.751216	0.593328	0.000070
1540	1.5313e+02	-18.6685	-46.153744	0.000182	1.822486	0.617475	0.000073
1541	1.5323e+02	-18.6203	-46.077571	0.000190	1.903938	0.645072	0.000077
1542	1.5333e+02	-18.5786	-46.011582	0.000165	1.649401	0.558832	0.000066
1543	1.5343e+02	-18.5401	-45.939889	0.000179	1.791942	0.607126	0.000072
1544	1.5353e+02	-18.5161	-45.860050	0.000200	1.995572	0.676118	0.000080
1545	1.5363e+02	-18.4567	-45.787951	0.000180	1.802123	0.610576	0.000072
1546	1.5373e+02	-18.4262	-45.711370	0.000191	1.914120	0.648521	0.000077
1547	1.5383e+02	-18.3861	-45.636419	0.000187	1.873394	0.634723	0.000075
1548	1.5393e+02	-18.3556	-45.569208	0.000168	1.679945	0.569181	0.000068
1549	1.5403e+02	-18.3075	-45.490183	0.000198	1.975209	0.669219	0.000079
1550	1.5413e+02	-18.2498	-45.416047	0.000185	1.853031	0.627824	0.000075
1551	1.5422e+02	-18.2337	-45.343132	0.000182	1.822486	0.617475	0.000073
1552	1.5432e+02	-18.1792	-45.273477	0.000174	1.741034	0.589878	0.000070
1553	1.5442e+02	-18.1246	-45.194452	0.000198	1.975209	0.669219	0.000079
1554	1.5452e+02	-18.1246	-45.117465	-0.000192	-1.924301	-0.651971	0.000077
1555	1.5462e+02	-18.0765	-45.038033	0.000199	1.985390	0.672668	0.000080
1556	1.5472e+02	-18.0091	-44.962675	0.000188	1.883575	0.638173	0.000076
1557	1.5482e+02	-17.9867	-44.890168	0.000181	1.812305	0.614025	0.000073
1558	1.5492e+02	-17.9369	-44.813180	0.000192	1.924301	0.651971	0.000077
1559	1.5502e+02	-17.9129	-44.742710	0.000176	1.761397	0.596778	0.000071
1560	1.5512e+02	-17.8519	-44.658797	0.000210	2.097386	0.710614	0.000084
1561	1.5522e+02	-17.8054	-44.584661	0.000185	1.853031	0.627824	0.000075
1562	1.5532e+02	-17.7733	-44.512968	0.000179	1.791942	0.607126	0.000072
1563	1.5542e+02	-17.7653	-44.432722	0.000201	2.005753	0.679568	0.000081
1564	1.5552e+02	-17.6867	-44.359400	0.000183	1.832668	0.620925	0.000074
1565	1.5562e+02	-17.6706	-44.279154	0.000201	2.005753	0.679568	0.000081
1566	1.5572e+02	-17.6289	-44.199722	0.000199	1.985390	0.672668	0.000080
1567	1.5582e+02	-17.5631	-44.123956	0.000189	1.893757	0.641622	0.000076
1568	1.5592e+02	-17.5407	-44.047783	0.000190	1.903938	0.645072	0.000077
1569	1.5602e+02	-17.5070	-43.967129	0.000202	2.015935	0.683017	0.000081
1570	1.5612e+02	-17.4877	-43.894215	0.000182	1.822486	0.617475	0.000073
1571	1.5622e+02	-17.4156	-43.816005	0.000195	1.954846	0.662320	0.000079
1572	1.5631e+02	-17.3787	-43.733315	0.000207	2.066842	0.700265	0.000083
1573	1.5641e+02	-17.3610	-43.654290	0.000198	1.975209	0.669219	0.000079
1574	1.5651e+02	-17.3145	-43.572007	0.000206	2.056660	0.696815	0.000083
1575	1.5661e+02	-17.2599	-43.490539	0.000204	2.036298	0.689916	0.000082
1576	1.5671e+02	-17.2054	-43.411921	0.000197	1.965027	0.665769	0.000079
1577	1.5681e+02	-17.1861	-43.337785	0.000185	1.853031	0.627824	0.000075
1578	1.5691e+02	-17.1412	-43.253465	0.000211	2.107568	0.714063	0.000085
1579	1.5701e+02	-17.0899	-43.173626	0.000200	1.995572	0.676118	0.000080
1580	1.5711e+02	-17.0722	-43.091343	0.000206	2.056660	0.696815	0.000083
1581	1.5721e+02	-17.0081	-43.015984	0.000188	1.883575	0.638173	0.000076
1582	1.5731e+02	-16.9856	-42.934516	0.000204	2.036298	0.689916	0.000082
1583	1.5741e+02	-16.9455	-42.852233	0.000206	2.056660	0.696815	0.000083
1584	1.5751e+02	-16.9166	-42.771579	0.000202	2.015935	0.683017	0.000081
1585	1.5761e+02	-16.8653	-42.690518	0.000203	2.026116	0.686467	0.000081
1586	1.5771e+02	-16.8252	-42.610271	0.000201	2.005753	0.679568	0.000081
1587	1.5781e+02	-16.7899	-42.530839	0.000199	1.985390	0.672668	0.000080
1588	1.5791e+02	-16.7546	-42.450186	0.000202	2.015935	0.683017	0.000081
1589	1.5801e+02	-16.6920	-42.366273	0.000210	2.097386	0.710614	0.000084
1590	1.5811e+02	-16.6471	-42.287249	0.000198	1.975209	0.669219	0.000079
1591	1.5821e+02	-16.6086	-42.203743	0.000209	2.087205	0.707164	0.000084
1592	1.5830e+02	-16.5862	-42.132051	0.000179	1.791942	0.607126	0.000072
1593	1.5840e+02	-16.5509	-42.050175	0.000205	2.046479	0.693366	0.000082
1594	1.5850e+02	-16.5108	-41.964633	0.000214	2.138112	0.724412	0.000086
1595	1.5860e+02	-16.4771	-41.877869	0.000217	2.168657	0.734761	0.000087
1596	1.5870e+02	-16.4273	-41.804955	0.000182	1.822486	0.617475	0.000073
1597	1.5880e+02	-16.3888	-41.721857	0.000208	2.077023	0.703715	0.000084
1598	1.5890e+02	-16.3439	-41.637945	0.000210	2.097386	0.710614	0.000084
1599	1.5900e+02	-16.2910	-41.555661	0.000206	2.056660	0.696815	0.000083
1600	1.5910e+02	-16.2782	-41.477452	0.000195	1.954846	0.662320	0.000079
1601	1.5920e+02	-16.2236	-41.394354	0.000208	2.077023	0.703715	0.000084
1602	1.5930e+02	-16.1915	-41.314515	0.000200	1.995572	0.676118	0.000080
1603	1.5940e+02	-16.1675	-41.232639	0.000205	2.046479	0.693366	0.000082
1604	1.5950e+02	-16.1386	-41.151985	0.000202	2.015935	0.683017	0.000081
1605	1.5960e+02	-16.0792	-41.074997	0.000192	1.924301	0.651971	0.000077
1606	1.5970e+02	-16.0215	-40.989863	0.000213	2.127931	0.720963	0.000086
1607	1.5980e+02	-15.9862	-40.903506	0.000216	2.158475	0.731311	0.000087
1608	1.5990e+02	-15.9541	-40.819186	0.000211	2.107568	0.714063	0.000085
1609	1.6000e+02	-15.9124	-40.741791	0.000193	1.934483	0.655420	0.000078
1610	1.6010e+02	-15.8627	-40.658286	0.000209	2.087205	0.707164	0.000084
1611	1.6019e+02	-15.8225	-40.578447	0.000200	1.995572	0.676118	0.000080
1612	1.6029e+02	-15.7905	-40.495349	0.000208	2.077023	0.703715	0.000084
1613	1.6039e+02	-15.7504	-40.416324	0.000198	1.975209	0.669219	0.000079
1614	1.6049e+02	-15.7183	-40.334041	0.000206	2.056660	0.696815	0.000083
1615	1.6059e+02	-15.6669	-40.254202	0.000200	1.995572	0.676118	0.000080
1616	1.6069e+02	-15.6236	-40.173955	0.000201	2.005753	0.679568	0.000081
1617	1.6079e+02	-15.6076	-40.092080	0.000205	2.046479	0.693366	0.000082
1618	1.6089e+02	-15.5627	-40.010204	0.000205	2.046479	0.693366	0.000082
1619	1.6099e+02	-15.5193	-39.928328	0.000205	2.046479	0.693366	0.000082
1620	1.6109e+02	-15.4632	-39.846859	0.000204	2.036298	0.689916	0.000082
1621	1.6119e+02	-15.4536	-39.769872	0.000192	1.924301	0.651971	0.000077
1622	1.6129e+02	-15.4022	-39.688810	0.000203	2.026116	0.686467	0.000081
1623	1.6139e+02	-15.3686	-39.613859	0.000187	1.873394	0.634723	0.000075
1624	1.6149e+02	-15.3252	-39.525466	0.000221	2.209383	0.748559	0.000089
1625	1.6159e+02	-15.2691	-39.451737	0.000184	1.842849	0.624374	0.000074
1626	1.6169e+02	-15.2354	-39.363344	0.000221	2.209383	0.748559	0.000089
1627	1.6179e+02	-15.1937	-39.289615	0.000184	1.842849	0.624374	0.000074
1628	1.6189e+02	-15.1472	-39.206110	0.000209	2.087205	0.707164	0.000084
1629	1.6199e+02	-15.1151	-39.128307	0.000194	1.944664	0.658870	0.000078
1630	1.6209e+02	-15.0686	-39.046024	0.000206	2.056660	0.696815	0.000083
1631	1.6219e+02	-15.0365	-38.968629	0.000193	1.934483	0.655420	0.000078
1632	1.6228e+02	-14.9964	-38.886346	0.000206	2.056660	0.696815	0.000083
1633	1.6238e+02	-14.9627	-38.799582	0.000217	2.168657	0.734761	0.000087
1634	1.6248e+02	-14.9049	-38.723409	0.000190	1.903938	0.645072	0.000077
1635	1.6258e+02	-14.8793	-38.635830	0.000219	2.189020	0.741660	0.000088
1636	1.6268e+02	-14.8295	-38.560879	0.000187	1.873394	0.634723	0.000075
1637	1.6278e+02	-14.7910	-38.479818	0.000203	2.026116	0.686467	0.000081
1638	1.6288e+02	-14.7654	-38.398349	0.000204	2.036298	0.689916	0.000082
1639	1.6298e+02	-14.7236	-38.314844	0.000209	2.087205	0.707164	0.000084
1640	1.6308e+02	-14.6900	-38.234190	0.000202	2.015935	0.683017	0.000081
1641	1.6318e+02	-14.6258	-38.155166	0.000198	1.975209	0.669219	0.000079
1642	1.6328e+02	-14.5921	-38.072883	0.000206	2.056660	0.696815	0.000083
1643	1.6338e+02	-14.5440	-37.989785	0.000208	2.077023	0.703715	0.000084
1644	1.6348e+02	-14.5215	-37.915648	0.000185	1.853031	0.627824	0.000075
1645	1.6358e+02	-14.4654	-37.830106	0.000214	2.138112	0.724412	0.000086
1646	1.6368e+02	-14.4140	-37.748231	0.000205	2.046479	0.693366	0.000082
1647	1.6378e+02	-14.3932	-37.668391	0.000200	1.995572	0.676118	0.000080
1648	1.6388e+02	-14.3611	-37.584886	0.000209	2.087205	0.707164	0.000084
1649	1.6398e+02	-14.2857	-37.509120	0.000189	1.893757	0.641622	0.000076
1650	1.6408e+02	-14.2584	-37.428467	0.000202	2.015935	0.683017	0.000081
1651	1.6418e+02	-14.2344	-37.341295	0.000218	2.178838	0.738210	0.000088
1652	1.6427e+02	-14.2119	-37.260234	0.000203	2.026116	0.686467	0.000081
1653	1.6437e+02	-14.1622	-37.182024	0.000195	1.954846	0.662320	0.000079
1654	1.6447e+02	-14.0916	-37.105444	0.000191	1.914120	0.648521	0.000077
1655	1.6457e+02	-14.0643	-37.019495	0.000215	2.148294	0.727862	0.000086
1656	1.6467e+02	-14.0386	-36.935582	0.000210	2.097386	0.710614	0.000084
1657	1.6477e+02	-13.9793	-36.855743	0.000200	1.995572	0.676118	0.000080
1658	1.6487e+02	-13.9440	-36.777941	0.000194	1.944664	0.658870	0.000078
1659	1.6497e+02	-13.9215	-36.698509	0.000199	1.985390	0.672668	0.000080
1660	1.6507e+02	-13.8718	-36.615818	0.000207	2.066842	0.700265	0.000083
1661	1.6517e+02	-13.8477	-36.533942	0.000205	2.046479	0.693366	0.000082
1662	1.6527e+02	-13.7804	-36.458584	0.000188	1.883575	0.638173	0.000076
1663	1.6537e+02	-13.7451	-36.377523	0.000203	2.026116	0.686467	0.000081
1664	1.6547e+02	-13.7001	-36.293203	0.000211	2.107568	0.714063	0.000085
1665	1.6557e+02	-13.6729	-36.212142	0.000203	2.026116	0.686467	0.000081
1666	1.6567e+02	-13.6408	-36.136783	0.000188	1.883575	0.638173	0.000076
1667	1.6577e+02	-13.5943	-36.057352	0.000199	1.985390	0.672668	0.000080
1668	1.6587e+02	-13.5654	-35.970180	0.000218	2.178838	0.738210	0.000088
1669	1.6597e+02	-13.5285	-35.896859	0.000183	1.832668	0.620925	0.000074
1670	1.6607e+02	-13.4836	-35.809280	0.000219	2.189020	0.741660	0.000088
1671	1.6616e+02	-13.4354	-35.728626	0.000202	2.015935	0.683017	0.000081
1672	1.6626e+02	-13.4178	-35.646343	0.000206	2.056660	0.696815	0.000083
1673	1.6636e+02	-13.3681	-35.566097	0.000201	2.005753	0.679568	0.000081
1674	1.6646e+02	-13.3103	-35.481369	0.000212	2.117749	0.717513	0.000085
1675	1.6656e+02	-13.2718	-35.406826	0.000186	1.863212	0.631273	0.000075
1676	1.6666e+02	-13.2221	-35.318025	0.000222	2.219564	0.752009	0.000089
1677	1.6676e+02	-13.1948	-35.236964	0.000203	2.026116	0.686467	0.000081
1678	1.6686e+02	-13.1675	-35.153866	0.000208	2.077023	0.703715	0.000084
1679	1.6696e+02	-13.1258	-35.074841	0.000198	1.975209	0.669219	0.000079
1680	1.6706e+02	-13.0633	-34.990522	0.000211	2.107568	0.714063	0.000085
1681	1.6716e+02	-13.0456	-34.910682	0.000200	1.995572	0.676118	0.000080
1682	1.6726e+02	-12.9831	-34.826770	0.000210	2.097386	0.710614	0.000084
1683	1.6736e+02	-12.9686	-34.741635	0.000213	2.127931	0.720963	0.000086
1684	1.6746e+02	-12.9333	-34.663425	0.000195	1.954846	0.662320	0.000079
1685	1.6756e+02	-12.8772	-34.578698	0.000212	2.117749	0.717513	0.000085
1686	1.6766e+02	-12.8355	-34.496822	0.000205	2.046479	0.693366	0.000082
1687	1.6776e+02	-12.8034	-34.413724	0.000208	2.077023	0.703715	0.000084
1688	1.6786e+02	-12.7553	-34.333885	0.000200	1.995572	0.676118	0.000080
1689	1.6796e+02	-12.7232	-34.248751	0.000213	2.127931	0.720963	0.000086
1690	1.6806e+02	-12.6815	-34.167690	0.000203	2.026116	0.686467	0.000081
1691	1.6816e+02	-12.6365	-34.084592	0.000208	2.077023	0.703715	0.000084
1692	1.6825e+02	-12.6141	-34.001901	0.000207	2.066842	0.700265	0.000083
1693	1.6835e+02	-12.5740	-33.917989	0.000210	2.097386	0.710614	0.000084
1694	1.6845e+02	-12.5210	-33.836927	0.000203	2.026116	0.686467	0.000081
1695	1.6855e+02	-12.4938	-33.746497	0.000226	2.260290	0.765807	0.000091
1696	1.6865e+02	-12.4472	-33.662992	0.000209	2.087205	0.707164	0.000084
1697	1.6875e+02	-12.3847	-33.578672	0.000211	2.107568	0.714063	0.000085
1698	1.6885e+02	-12.3510	-33.496389	0.000206	2.056660	0.696815	0.000083
1699	1.6895e+02	-12.3141	-33.408810	0.000219	2.189020	0.741660	0.000088
1700	1.6905e+02	-12.2708	-33.330601	0.000195	1.954846	0.662320	0.000079
1701	1.6915e+02	-12.2451	-33.234060	0.000241	2.413013	0.817551	0.000097
1702	1.6925e+02	-12.1874	-33.155443	0.000197	1.965027	0.665769	0.000079
1703	1.6935e+02	-12.1601	-33.069901	0.000214	2.138112	0.724412	0.000086
1704	1.6945e+02	-12.1296	-32.984359	0.000214	2.138112	0.724412	0.000086
1705	1.6955e+02	-12.0831	-32.887412	0.000242	2.423194	0.821000	0.000097
1706	1.6965e+02	-12.0189	-32.804721	0.000207	2.066842	0.700265	0.000083
1707	1.6975e+02	-12.0013	-32.722031	0.000207	2.066842	0.700265	0.000083
1708	1.6985e+02	-11.9612	-32.634045	0.000220	2.199201	0.745110	0.000088
1709	1.6995e+02	-11.9146	-32.550132	0.000210	2.097386	0.710614	0.000084
1710	1.7005e+02	-11.8986	-32.458073	0.000230	2.301016	0.779605	0.000093
1711	1.7015e+02	-11.8649	-32.371309	0.000217	2.168657	0.734761	0.000087
1712	1.7024e+02	-11.8039	-32.282916	0.000221	2.209383	0.748559	0.000089
1713	1.7034e+02	-11.7670	-32.195337	0.000219	2.189020	0.741660	0.000088
1714	1.7044e+02	-11.7221	-32.104500	0.000227	2.270472	0.769257	0.000091
1715	1.7054e+02	-11.6916	-32.020587	0.000210	2.097386	0.710614	0.000084
1716	1.7064e+02	-11.6515	-31.933416	0.000218	2.178838	0.738210	0.000088
1717	1.7074e+02	-11.6098	-31.845022	0.000221	2.209383	0.748559	0.000089
1718	1.7084e+02	-11.5617	-31.754592	0.000226	2.260290	0.765807	0.000091
1719	1.7094e+02	-11.5248	-31.668236	0.000216	2.158475	0.731311	0.000087
1720	1.7104e+02	-11.4975	-31.579435	0.000222	2.219564	0.752009	0.000089
1721	1.7114e+02	-11.4302	-31.492671	0.000217	2.168657	0.734761	0.000087
1722	1.7124e+02	-11.3965	-31.400204	0.000231	2.311198	0.783055	0.000093
1723	1.7134e+02	-11.3692	-31.315070	0.000213	2.127931	0.720963	0.000086
1724	1.7144e+02	-11.3323	-31.228713	0.000216	2.158475	0.731311	0.000087
1725	1.7154e+02	-11.2826	-31.140727	0.000220	2.199201	0.745110	0.000088
1726	1.7164e+02	-11.2505	-31.043780	0.000242	2.423194	0.821000	0.000097
1727	1.7174e+02	-11.2168	-30.961496	0.000206	2.056660	0.696815	0.000083
1728	1.7184e+02	-11.1671	-30.873103	0.000221	2.209383	0.748559	0.000089
1729	1.7194e+02	-11.1430	-30.788376	0.000212	2.117749	0.717513	0.000085
1730	1.7204e+02	-11.0885	-30.693872	0.000236	2.362105	0.800303	0.000095
1731	1.7213e+02	-11.0467	-30.602220	0.000229	2.290835	0.776156	0.000092
1732	1.7223e+02	-11.0131	-30.515864	0.000216	2.158475	0.731311	0.000087
1733	1.7233e+02	-10.9601	-30.425026	0.000227	2.270472	0.769257	0.000091
1734	1.7243e+02	-10.9312	-30.336226	0.000222	2.219564	0.752009	0.000089
1735	1.7253e+02	-10.9088	-30.239278	0.000242	2.423194	0.821000	0.000097
1736	1.7263e+02	-10.8494	-30.152921	0.000216	2.158475	0.731311	0.000087
1737	1.7273e+02	-10.8077	-30.066157	0.000217	2.168657	0.734761	0.000087
1738	1.7283e+02	-10.7740	-29.974098	0.000230	2.301016	0.779605	0.000093
1739	1.7293e+02	-10.7002	-29.883668	0.000226	2.260290	0.765807	0.000091
1740	1.7303e+02	-10.7163	-29.792016	-0.000229	-2.290835	-0.776156	0.000092
1741	1.7313e+02	-10.6569	-29.698327	0.000234	2.341742	0.793404	0.000094
1742	1.7323e+02	-10.6264	-29.610748	0.000219	2.189020	0.741660	0.000088
1743	1.7333e+02	-10.5703	-29.516245	0.000236	2.362105	0.800303	0.000095
1744	1.7343e+02	-10.5222	-29.422556	0.000234	2.341742	0.793404	0.000094
1745	1.7353e+02	-10.4917	-29.329682	0.000232	2.321379	0.786505	0.000093
1746	1.7363e+02	-10.4468	-29.242918	0.000217	2.168657	0.734761	0.000087
1747	1.7373e+02	-10.4355	-29.148415	0.000236	2.362105	0.800303	0.000095
1748	1.7383e+02	-10.3762	-29.057170	0.000228	2.280653	0.772706	0.000092
1749	1.7393e+02	-10.3473	-28.965518	0.000229	2.290835	0.776156	0.000092
1750	1.7403e+02	-10.2992	-28.871829	0.000234	2.341742	0.793404	0.000094
1751	1.7413e+02	-10.2591	-28.781806	0.000225	2.250109	0.762357	0.000090
1752	1.7422e+02	-10.2174	-28.684859	0.000242	2.423194	0.821000	0.000097
1753	1.7432e+02	-10.1580	-28.596873	0.000220	2.199201	0.745110	0.000088
1754	1.7442e+02	-10.1420	-28.505628	0.000228	2.280653	0.772706	0.000092
1755	1.7452e+02	-10.1019	-28.412347	0.000233	2.331561	0.789954	0.000094
1756	1.7462e+02	-10.0377	-28.322731	0.000224	2.239927	0.758908	0.000090
1757	1.7472e+02	-10.0008	-28.223340	0.000248	2.484283	0.841698	0.000100
1758	1.7482e+02	-9.9719	-28.127614	0.000239	2.392650	0.810652	0.000096
1759	1.7492e+02	-9.9446	-28.038406	0.000223	2.229746	0.755458	0.000090
1760	1.7502e+02	-9.8853	-27.952050	0.000216	2.158475	0.731311	0.000087
1761	1.7512e+02	-9.8452	-27.860805	0.000228	2.280653	0.772706	0.000092
1762	1.7522e+02	-9.8131	-27.764672	0.000240	2.402831	0.814101	0.000097
1763	1.7532e+02	-9.7874	-27.677908	0.000217	2.168657	0.734761	0.000087
1764	1.7542e+02	-9.7281	-27.580146	0.000244	2.443557	0.827900	0.000098
1765	1.7552e+02	-9.6815	-27.484828	0.000238	2.382468	0.807202	0.000096
1766	1.7562e+02	-9.6623	-27.393176	0.000229	2.290835	0.776156	0.000092
1767	1.7572e+02	-9.6254	-27.304375	0.000222	2.219564	0.752009	0.000089
1768	1.7582e+02	-9.5773	-27.210686	0.000234	2.341742	0.793404	0.000094
1769	1.7592e+02	-9.5227	-27.119849	0.000227	2.270472	0.769257	0.000091
1770	1.7602e+02	-9.4890	-27.031863	0.000220	2.199201	0.745110	0.000088
1771	1.7612e+02	-9.4666	-26.935323	0.000241	2.413013	0.817551	0.000097
1772	1.7621e+02	-9.4056	-26.837153	0.000245	2.453739	0.831349	0.000099
1773	1.7631e+02	-9.3735	-26.751611	0.000214	2.138112	0.724412	0.000086
1774	1.7641e+02	-9.3238	-26.656293	0.000238	2.382468	0.807202	0.000096
1775	1.7651e+02	-9.2757	-26.558938	0.000243	2.433376	0.824450	0.000098
1776	1.7661e+02	-9.2452	-26.472174	0.000217	2.168657	0.734761	0.000087
1777	1.7671e+02	-9.2067	-26.375227	0.000242	2.423194	0.821000	0.000097
1778	1.7681e+02	-9.1746	-26.281538	0.000234	2.341742	0.793404	0.000094
1779	1.7691e+02	-9.1281	-26.190700	0.000227	2.270472	0.769257	0.000091
1780	1.7701e+02	-9.1088	-26.091716	0.000247	2.474101	0.838248	0.000099
1781	1.7711e+02	-9.0559	-26.007396	0.000211	2.107568	0.714063	0.000085
1782	1.7721e+02	-9.0318	-25.916966	0.000226	2.260290	0.765807	0.000091
1783	1.7731e+02	-8.9821	-25.824499	0.000231	2.311198	0.783055	0.000093
1784	1.7741e+02	-8.9340	-25.728774	0.000239	2.392650	0.810652	0.000096
1785	1.7751e+02	-8.9083	-25.638344	0.000226	2.260290	0.765807	0.000091
1786	1.7761e+02	-8.8666	-25.551987	0.000216	2.158475	0.731311	0.000087
1787	1.7771e+02	-8.8024	-25.456262	0.000239	2.392650	0.810652	0.000096
1788	1.7781e+02	-8.7671	-25.365017	0.000228	2.280653	0.772706	0.000092
1789	1.7791e+02	-8.7302	-25.271736	0.000233	2.331561	0.789954	0.000094
1790	1.7801e+02	-8.6982	-25.183342	0.000221	2.209383	0.748559	0.000089
1791	1.7810e+02	-8.6661	-25.090468	0.000232	2.321379	0.786505	0.000093
1792	1.7820e+02	-8.6292	-24.999631	0.000227	2.270472	0.769257	0.000091
1793	1.7830e+02	-8.5730	-24.912052	0.000219	2.189020	0.741660	0.000088
1794	1.7840e+02	-8.5409	-24.821215	0.000227	2.270472	0.769257	0.000091
1795	1.7850e+02	-8.5105	-24.727526	0.000234	2.341742	0.793404	0.000094
1796	1.7860e+02	-8.4623	-24.639947	0.000219	2.189020	0.741660	0.000088
1797	1.7870e+02	-8.4030	-24.545444	0.000236	2.362105	0.800303	0.000095
1798	1.7880e+02	-8.3757	-24.457050	0.000221	2.209383	0.748559	0.000089
1799	1.7890e+02	-8.3356	-24.363769	0.000233	2.331561	0.789954	0.000094
1800	1.7900e+02	-8.3244	-24.272932	0.000227	2.270472	0.769257	0.000091
1801	1.7910e+02	-8.2377	-24.182094	0.000227	2.270472	0.769257	0.000091
1802	1.7920e+02	-8.2393	-24.084739	-0.000243	-2.433376	-0.824450	0.000098
1803	1.7930e+02	-8.1784	-23.999605	0.000213	2.127931	0.720963	0.000086
1804	1.7940e+02	-8.1335	-23.908767	0.000227	2.270472	0.769257	0.000091
1805	1.7950e+02	-8.1142	-23.813857	0.000237	2.372287	0.803752	0.000095
1806	1.7960e+02	-8.0532	-23.722612	0.000228	2.280653	0.772706	0.000092
1807	1.7970e+02	-8.0147	-23.628923	0.000234	2.341742	0.793404	0.000094
1808	1.7980e+02	-7.9811	-23.542566	0.000216	2.158475	0.731311	0.000087
1809	1.7990e+02	-7.9217	-23.448470	0.000235	2.351924	0.796853	0.000095
1810	1.8000e+02	-7.9297	-23.355189	-0.000233	-2.331561	-0.789954	0.000094
1811	1.8009e+02	-7.8720	-23.266388	0.000222	2.219564	0.752009	0.000089
1812	1.8019e+02	-7.8222	-23.176773	0.000224	2.239927	0.758908	0.000090
1813	1.8029e+02	-7.7789	-23.084713	0.000230	2.301016	0.779605	0.000093
1814	1.8039e+02	-7.7404	-22.990617	0.000235	2.351924	0.796853	0.000095
1815	1.8049e+02	-7.6971	-22.898965	0.000229	2.290835	0.776156	0.000092
1816	1.8059e+02	-7.6650	-22.810572	0.000221	2.209383	0.748559	0.000089
1817	1.8069e+02	-7.6361	-22.717290	0.000233	2.331561	0.789954	0.000094
1818	1.8079e+02	-7.5688	-22.629304	0.000220	2.199201	0.745110	0.000088
1819	1.8089e+02	-7.5543	-22.533172	0.000240	2.402831	0.814101	0.000097
1820	1.8099e+02	-7.5014	-22.448037	0.000213	2.127931	0.720963	0.000086
1821	1.8109e+02	-7.4420	-22.356792	0.000228	2.280653	0.772706	0.000092
1822	1.8119e+02	-7.4083	-22.259030	0.000244	2.443557	0.827900	0.000098
1823	1.8129e+02	-7.3987	-22.169822	0.000223	2.229746	0.755458	0.000090
1824	1.8139e+02	-7.3362	-22.077763	0.000230	2.301016	0.779605	0.000093
1825	1.8149e+02	-7.3009	-21.988147	0.000224	2.239927	0.758908	0.000090
1826	1.8159e+02	-7.2640	-21.898939	0.000223	2.229746	0.755458	0.000090
1827	1.8169e+02	-7.2078	-21.809324	0.000224	2.239927	0.758908	0.000090
1828	1.8179e+02	-7.1902	-21.713598	0.000239	2.392650	0.810652	0.000096
1829	1.8189e+02	-7.1404	-21.626427	0.000218	2.178838	0.738210	0.000088
1830	1.8199e+02	-7.1148	-21.532331	0.000235	2.351924	0.796853	0.000095
1831	1.8209e+02	-7.0634	-21.451677	0.000202	2.015935	0.683017	0.000081
1832	1.8218e+02	-7.0217	-21.352286	0.000248	2.484283	0.841698	0.000100
1833	1.8228e+02	-6.9640	-21.263078	0.000223	2.229746	0.755458	0.000090
1834	1.8238e+02	-6.9383	-21.169389	0.000234	2.341742	0.793404	0.000094
1835	1.8248e+02	-6.8934	-21.077329	0.000230	2.301016	0.779605	0.000093
1836	1.8258e+02	-6.8661	-20.986899	0.000226	2.260290	0.765807	0.000091
1837	1.8268e+02	-6.8276	-20.892803	0.000235	2.351924	0.796853	0.000095
1838	1.8278e+02	-6.7843	-20.808076	0.000212	2.117749	0.717513	0.000085
1839	1.8288e+02	-6.7538	-20.716831	0.000228	2.280653	0.772706	0.000092
1840	1.8298e+02	-6.7314	-20.623550	0.000233	2.331561	0.789954	0.000094
1841	1.8308e+02	-6.6544	-20.529454	0.000235	2.351924	0.796853	0.000095
1842	1.8318e+02	-6.6303	-20.437394	0.000230	2.301016	0.779605	0.000093
1843	1.8328e+02	-6.5838	-20.348593	0.000222	2.219564	0.752009	0.000089
1844	1.8338e+02	-6.5565	-20.252868	0.000239	2.392650	0.810652	0.000096
1845	1.8348e+02	-6.5180	-20.155513	0.000243	2.433376	0.824450	0.000098
1846	1.8358e+02	-6.4570	-20.069156	0.000216	2.158475	0.731311	0.000087
1847	1.8368e+02	-6.4346	-19.978319	0.000227	2.270472	0.769257	0.000091
1848	1.8378e+02	-6.3736	-19.895221	0.000208	2.077023	0.703715	0.000084
1849	1.8388e+02	-6.3415	-19.801940	0.000233	2.331561	0.789954	0.000094
1850	1.8398e+02	-6.3014	-19.706622	0.000238	2.382468	0.807202	0.000096
1851	1.8407e+02	-6.2742	-19.617414	0.000223	2.229746	0.755458	0.000090
1852	1.8417e+02	-6.2517	-19.524540	0.000232	2.321379	0.786505	0.000093
1853	1.8427e+02	-6.1715	-19.430036	0.000236	2.362105	0.800303	0.000095
1854	1.8437e+02	-6.1490	-19.338384	0.000229	2.290835	0.776156	0.000092
1855	1.8447e+02	-6.1201	-19.241844	0.000241	2.413013	0.817551	0.000097
1856	1.8457e+02	-6.0929	-19.154265	0.000219	2.189020	0.741660	0.000088
1857	1.8467e+02	-6.0287	-19.056910	0.000243	2.433376	0.824450	0.000098
1858	1.8477e+02	-5.9822	-18.968517	0.000221	2.209383	0.748559	0.000089
1859	1.8487e+02	-5.9469	-18.871569	0.000242	2.423194	0.821000	0.000097
1860	1.8497e+02	-5.9036	-18.778695	0.000232	2.321379	0.786505	0.000093
1861	1.8507e+02	-5.8891	-18.682970	0.000239	2.392650	0.810652	0.000096
1862	1.8517e+02	-5.8314	-18.592540	0.000226	2.260290	0.765807	0.000091
1863	1.8527e+02	-5.7993	-18.500073	0.000231	2.311198	0.783055	0.000093
1864	1.8537e+02	-5.7640	-18.406792	0.000233	2.331561	0.789954	0.000094
1865	1.8547e+02	-5.7255	-18.311881	0.000237	2.372287	0.803752	0.000095
1866	1.8557e+02	-5.6501	-18.216155	0.000239	2.392650	0.810652	0.000096
1867	1.8567e+02	-5.6052	-18.118800	0.000243	2.433376	0.824450	0.000098
1868	1.8577e+02	-5.5619	-18.021038	0.000244	2.443557	0.827900	0.000098
1869	1.8587e+02	-5.5651	-17.929793	-0.000228	-2.280653	-0.772706	0.000092
1870	1.8597e+02	-5.5025	-17.830402	0.000248	2.484283	0.841698	0.000100
1871	1.8606e+02	-5.4640	-17.736713	0.000234	2.341742	0.793404	0.000094
1872	1.8616e+02	-5.4432	-17.639766	0.000242	2.423194	0.821000	0.000097
1873	1.8626e+02	-5.4015	-17.544855	0.000237	2.372287	0.803752	0.000095
1874	1.8636e+02	-5.3485	-17.444241	0.000251	2.514827	0.852047	0.000101
1875	1.8646e+02	-5.3373	-17.350960	0.000233	2.331561	0.789954	0.000094
1876	1.8656e+02	-5.2635	-17.249531	0.000254	2.535190	0.858946	0.000102
1877	1.8666e+02	-5.2202	-17.154621	0.000237	2.372287	0.803752	0.000095
1878	1.8676e+02	-5.1753	-17.058488	0.000240	2.402831	0.814101	0.000097
1879	1.8686e+02	-5.1480	-16.958281	0.000250	2.504646	0.848597	0.000101
1880	1.8696e+02	-5.1111	-16.864185	0.000235	2.351924	0.796853	0.000095
1881	1.8706e+02	-5.0726	-16.769274	0.000237	2.372287	0.803752	0.000095
1882	1.8716e+02	-5.0373	-16.669476	0.000249	2.494464	0.845147	0.000100
1883	1.8726e+02	-5.0116	-16.570491	0.000247	2.474101	0.838248	0.000099
1884	1.8736e+02	-4.9555	-16.478025	0.000231	2.311198	0.783055	0.000093
1885	1.8746e+02	-4.9170	-16.367635	0.000276	2.759183	0.934837	0.000111
1886	1.8756e+02	-4.8753	-16.278019	0.000224	2.239927	0.758908	0.000090
1887	1.8766e+02	-4.8400	-16.177813	0.000250	2.504646	0.848597	0.000101
1888	1.8776e+02	-4.7870	-16.081273	0.000241	2.413013	0.817551	0.000097
1889	1.8786e+02	-4.7485	-15.981881	0.000248	2.484283	0.841698	0.000100
1890	1.8796e+02	-4.6956	-15.883712	0.000245	2.453739	0.831349	0.000099
1891	1.8806e+02	-4.6619	-15.786764	0.000242	2.423194	0.821000	0.000097
1892	1.8815e+02	-4.6362	-15.690224	0.000241	2.413013	0.817551	0.000097
1893	1.8825e+02	-4.6106	-15.594091	0.000240	2.402831	0.814101	0.000097
1894	1.8835e+02	-4.5592	-15.495514	0.000246	2.463920	0.834799	0.000099
1895	1.8845e+02	-4.5015	-15.394901	0.000251	2.514827	0.852047	0.000101
1896	1.8855e+02	-4.4646	-15.292250	0.000257	2.565735	0.869295	0.000103
1897	1.8865e+02	-4.4293	-15.194488	0.000244	2.443557	0.827900	0.000098
1898	1.8875e+02	-4.3828	-15.102021	0.000231	2.311198	0.783055	0.000093
1899	1.8885e+02	-4.3378	-14.998149	0.000260	2.596279	0.879643	0.000104
1900	1.8895e+02	-4.3058	-14.902831	0.000238	2.382468	0.807202	0.000096
1901	1.8905e+02	-4.2897	-14.798959	0.000260	2.596279	0.879643	0.000104
1902	1.8915e+02	-4.2320	-14.702011	0.000242	2.423194	0.821000	0.000097
1903	1.8925e+02	-4.2047	-14.600990	0.000253	2.525009	0.855496	0.000102
1904	1.8935e+02	-4.1534	-14.506487	0.000236	2.362105	0.800303	0.000095
1905	1.8945e+02	-4.1052	-14.403429	0.000258	2.575916	0.872744	0.000104
1906	1.8955e+02	-4.0715	-14.305667	0.000244	2.443557	0.827900	0.000098
1907	1.8965e+02	-4.0395	-14.199350	0.000266	2.657368	0.900341	0.000107
1908	1.8975e+02	-4.0090	-14.100366	0.000247	2.474101	0.838248	0.000099
1909	1.8985e+02	-3.9609	-13.994864	0.000264	2.637005	0.893442	0.000106
1910	1.8995e+02	-3.9159	-13.899546	0.000238	2.382468	0.807202	0.000096
1911	1.9004e+02	-3.8887	-13.797303	0.000256	2.555553	0.865845	0.000103
1912	1.9014e+02	-3.8229	-13.685284	0.000280	2.799909	0.948635	0.000113
1913	1.9024e+02	-3.7956	-13.596891	0.000221	2.209383	0.748559	0.000089
1914	1.9034e+02	-3.7587	-13.491796	0.000263	2.626824	0.889992	0.000106
1915	1.9044e+02	-3.7250	-13.388331	0.000259	2.586098	0.876194	0.000104
1916	1.9054e+02	-3.6849	-13.286088	0.000256	2.555553	0.865845	0.000103
1917	1.9064e+02	-3.6480	-13.191178	0.000237	2.372287	0.803752	0.000095
1918	1.9074e+02	-3.5871	-13.083639	0.000269	2.687913	0.910689	0.000108
1919	1.9084e+02	-3.5373	-12.983433	0.000250	2.504646	0.848597	0.000101
1920	1.9094e+02	-3.4908	-12.880782	0.000257	2.565735	0.869295	0.000103
1921	1.9104e+02	-3.4828	-12.777317	0.000259	2.586098	0.876194	0.000104
1922	1.9114e+02	-3.4331	-12.679148	0.000245	2.453739	0.831349	0.000099
1923	1.9124e+02	-3.3801	-12.579756	0.000248	2.484283	0.841698	0.000100
1924	1.9134e+02	-3.3545	-12.471811	0.000270	2.698094	0.914139	0.000108
1925	1.9144e+02	-3.3320	-12.366716	0.000263	2.626824	0.889992	0.000106
1926	1.9154e+02	-3.2823	-12.273027	0.000234	2.341742	0.793404	0.000094
1927	1.9164e+02	-3.2229	-12.171599	0.000254	2.535190	0.858946	0.000102
1928	1.9174e+02	-3.1876	-12.067727	0.000260	2.596279	0.879643	0.000104
1929	1.9184e+02	-3.1635	-11.969965	0.000244	2.443557	0.827900	0.000098
1930	1.9194e+02	-3.1106	-11.870980	0.000247	2.474101	0.838248	0.000099
1931	1.9203e+02	-3.1010	-11.771181	0.000249	2.494464	0.845147	0.000100
1932	1.9213e+02	-3.0432	-11.662014	0.000273	2.728639	0.924488	0.000110
1933	1.9223e+02	-3.0095	-11.564659	0.000243	2.433376	0.824450	0.000098
1934	1.9233e+02	-2.9662	-11.457528	0.000268	2.677731	0.907240	0.000108
1935	1.9243e+02	-2.9149	-11.361802	0.000239	2.392650	0.810652	0.000096
1936	1.9253e+02	-2.8812	-11.255078	0.000267	2.667550	0.903790	0.000107
1937	1.9263e+02	-2.8411	-11.155279	0.000249	2.494464	0.845147	0.000100
1938	1.9273e+02	-2.7994	-11.053851	0.000254	2.535190	0.858946	0.000102
1939	1.9283e+02	-2.7416	-10.955682	0.000245	2.453739	0.831349	0.000099
1940	1.9293e+02	-2.7192	-10.850587	0.000263	2.626824	0.889992	0.000106
1941	1.9303e+02	-2.6855	-10.749159	0.000254	2.535190	0.858946	0.000102
1942	1.9313e+02	-2.6374	-10.648138	0.000253	2.525009	0.855496	0.000102
1943	1.9323e+02	-2.6005	-10.540600	0.000269	2.687913	0.910689	0.000108
1944	1.9333e+02	-2.5523	-10.444874	0.000239	2.392650	0.810652	0.000096
1945	1.9343e+02	-2.5154	-10.334892	0.000275	2.749002	0.931387	0.000111
1946	1.9353e+02	-2.4721	-10.237129	0.000244	2.443557	0.827900	0.000098
1947	1.9363e+02	-2.4497	-10.132850	0.000261	2.606461	0.883093	0.000105
1948	1.9373e+02	-2.3839	-10.039161	0.000234	2.341742	0.793404	0.000094
1949	1.9383e+02	-2.3678	-9.931622	0.000269	2.687913	0.910689	0.000108
1950	1.9393e+02	-2.3342	-9.832638	0.000247	2.474101	0.838248	0.000099
1951	1.9403e+02	-2.2812	-9.728358	0.000261	2.606461	0.883093	0.000105
1952	1.9412e+02	-2.2588	-9.632633	0.000239	2.392650	0.810652	0.000096
1953	1.9422e+02	-2.2010	-9.532019	0.000251	2.514827	0.852047	0.000101
1954	1.9432e+02	-2.1641	-9.428147	0.000260	2.596279	0.879643	0.000104
1955	1.9442e+02	-2.1288	-9.332829	0.000238	2.382468	0.807202	0.000096
1956	1.9452e+02	-2.0711	-9.225290	0.000269	2.687913	0.910689	0.000108
1957	1.9462e+02	-2.0261	-9.130787	0.000236	2.362105	0.800303	0.000095
1958	1.9472e+02	-1.9892	-9.032210	0.000246	2.463920	0.834799	0.000099
1959	1.9482e+02	-1.9780	-8.930782	0.000254	2.535190	0.858946	0.000102
1960	1.9492e+02	-1.9155	-8.829353	0.000254	2.535190	0.858946	0.000102
1961	1.9502e+02	-1.8994	-8.732406	0.000242	2.423194	0.821000	0.000097
1962	1.9512e+02	-1.8561	-8.627719	0.000262	2.616642	0.886542	0.000105
1963	1.9522e+02	-1.8144	-8.532808	0.000237	2.372287	0.803752	0.000095
1964	1.9532e+02	-1.7550	-8.427714	0.000263	2.626824	0.889992	0.000106
1965	1.9542e+02	-1.7310	-8.330359	0.000243	2.433376	0.824450	0.000098
1966	1.9552e+02	-1.6844	-8.234633	0.000239	2.392650	0.810652	0.000096
1967	1.9562e+02	-1.6363	-8.131983	0.000257	2.565735	0.869295	0.000103
1968	1.9572e+02	-1.6058	-8.029740	0.000256	2.555553	0.865845	0.000103
1969	1.9582e+02	-1.5529	-7.928719	0.000253	2.525009	0.855496	0.000102
1970	1.9592e+02	-1.5288	-7.832179	0.000241	2.413013	0.817551	0.000097
1971	1.9601e+02	-1.4647	-7.732380	0.000249	2.494464	0.845147	0.000100
1972	1.9611e+02	-1.4534	-7.626878	0.000264	2.637005	0.893442	0.000106
1973	1.9621e+02	-1.4149	-7.530745	0.000240	2.402831	0.814101	0.000097
1974	1.9631e+02	-1.3652	-7.429724	0.000253	2.525009	0.855496	0.000102
1975	1.9641e+02	-1.3347	-7.333999	0.000239	2.392650	0.810652	0.000096
1976	1.9651e+02	-1.3074	-7.234607	0.000248	2.484283	0.841698	0.000100
1977	1.9661e+02	-1.2465	-7.129513	0.000263	2.626824	0.889992	0.000106
1978	1.9671e+02	-1.2048	-7.031343	0.000245	2.453739	0.831349	0.000099
1979	1.9681e+02	-1.1679	-6.933581	0.000244	2.443557	0.827900	0.000098
1980	1.9691e+02	-1.1133	-6.832560	0.000253	2.525009	0.855496	0.000102
1981	1.9701e+02	-1.0877	-6.732354	0.000250	2.504646	0.848597	0.000101
1982	1.9711e+02	-1.0572	-6.631740	0.000251	2.514827	0.852047	0.000101
1983	1.9721e+02	-1.0171	-6.539274	0.000231	2.311198	0.783055	0.000093
1984	1.9731e+02	-0.9593	-6.434994	0.000261	2.606461	0.883093	0.000105
1985	1.9741e+02	-0.9305	-6.333158	0.000255	2.545372	0.862395	0.000102
1986	1.9751e+02	-0.9096	-6.228879	0.000261	2.606461	0.883093	0.000105
1987	1.9761e+02	-0.8262	-6.129487	0.000248	2.484283	0.841698	0.000100
1988	1.9771e+02	-0.8182	-6.033762	0.000239	2.392650	0.810652	0.000096
1989	1.9781e+02	-0.7652	-5.931519	0.000256	2.555553	0.865845	0.000103
1990	1.9791e+02	-0.7203	-5.835386	0.000240	2.402831	0.814101	0.000097
1991	1.9800e+02	-0.6930	-5.731106	0.000261	2.606461	0.883093	0.000105
1992	1.9810e+02	-0.6674	-5.634566	0.000241	2.413013	0.817551	0.000097
1993	1.9820e+02	-0.6208	-5.534767	0.000249	2.494464	0.845147	0.000100
1994	1.9830e+02	-0.5871	-5.440671	0.000235	2.351924	0.796853	0.000095
1995	1.9840e+02	-0.5374	-5.338020	0.000257	2.565735	0.869295	0.000103
1996	1.9850e+02	-0.4925	-5.241480	0.000241	2.413013	0.817551	0.000097
1997	1.9860e+02	-0.4412	-5.144533	0.000242	2.423194	0.821000	0.000097
1998	1.9870e+02	-0.4139	-5.046771	0.000244	2.443557	0.827900	0.000098
1999	1.9880e+02	-0.3738	-4.941676	0.000263	2.626824	0.889992	0.000106
2000	1.9890e+02	-0.3144	-4.844729	0.000242	2.423194	0.821000	0.000097
2001	1.9900e+02	-0.2856	-4.744522	0.000250	2.504646	0.848597	0.000101
2002	1.9910e+02	-0.2519	-4.652870	0.000229	2.290835	0.776156	0.000092
2003	1.9920e+02	-0.2134	-4.547776	0.000263	2.626824	0.889992	0.000106
2004	1.9930e+02	-0.1668	-4.452865	0.000237	2.372287	0.803752	0.000095
2005	1.9940e+02	-0.1251	-4.349400	0.000259	2.586098	0.876194	0.000104
2006	1.9950e+02	-0.0866	-4.249601	0.000249	2.494464	0.845147	0.000100
2007	1.9960e+02	-0.0545	-4.153061	0.000241	2.413013	0.817551	0.000097
2008	1.9970e+02	-0.0305	-4.053669	0.000248	2.484283	0.841698	0.000100
2009	1.9980e+02	0.0225	-3.948168	0.000248	2.484283	0.841698	0.000106

Center data before PMax,+/-Pr and +/-Vc Calc.

PMax (uC/cm2):	4.83e+01
Pr (uC/cm2):	-9.27e-01
-Pr (uC/cm2):	-3.95e+00
PLoss (uC/cm2):	-1.66e+00
Vc:	1.01e+00
-Vc:	3.52e-01
C (Max-Eff) (nF):	2.41e-01
K (Eff):	8.17e+02
Vert. (+/-Pr) Shift (uC/cm2):	-2.44e+00
Horiz. Shift (+/-Vc):	6.79e-01
Offset (uC/cm2):	2.27e+00

A (Loop Area - uC/cm2·Volts):	1.70e-02



Hysteresis Version: 5.48.1 - Radiant Technologies, Inc., 1999 - 9/12/24

