»»»»»»»»»»»»»»»»»»»»»»»»»»»»»»»»»»»» Hysteresis ««««««««««««««««««««««««««««««««««««
»»»  Executed Version:	5.48.1
»»»  Vision Version:	5.48.4 (R)
»»»  Vision Compiled:	9/18/24
»»»  Driver Version:	5.47.0
»»»  Windows Version:	Windows 8 or 8.1
»»»  Processor Information:	x86 (AMD or Intel) - 32 Processors
»»»  Tester Name:	PMF21124-494 (100V)
»»»  Tester S/N:	PMF21124-494
»»»  Internal Amp Type:	100V RevK 270k
»»»  Internal Amp S/N:	iAB2-596/K     
»»»  Execution Count:	1
»»»»»»»»»»»»»»»»»»»»»»»»»»»»»»»»»»»»»»»»»»««««««««««««««««««««««««««««««««««««««««««

Stored:	6/16/2025 - 15:54:28
Configured:	06/16/25 02:13:38 PM
Executed:	06/16/25 03:53:17 PM

»»»»»»»»»»»»»»»»»»»»»»»»»»»»»»»»»»» Sample Info ««««««««««««««««««««««««««««««««««««
Sample Name:	
Lot Name:	
Wafer Name:	
Die Row/Column:	0/0
Capacitor Number:	0
Sample Area (cm2):	1.00e-04
Sample Thickness (microns):	3.00e-01

Amplifier:	Internal

»»»»»»»»»»»»»»»»»»»»»»»»»»»»»»»»»»» Tester Info «««««««««««««««««««««««««««««««««««
Tester Name:	PMF21124-494 (100V)
Tester Serial Number:	PMF21124-494
Return Signal Amp. Level:	0.2 [Index: 1]

»»»»»»»»»»»»»»»»»»»»»»»»»»»»»»»» Hysteresis Info ««««««««««««««««««««««««««««««««««
Task Name:	Hyst-4
Volts:	20.00
Field:	666.67 (kV/cm)
DCBias:	0.00
DCField:	0.00 (kV/cm)
Hysteresis Period (ms):	1.00e-02
Preset:	Enabled
Preset Delay (ms):	1.00e+03
Profile:	Standard Bipolar

»»»»»»»»»»»»»»»»»»»»»»»»»»»»»»»»»»»»»» Data «««««««««««««««««««««««««««««««««««««««
Points:	101

Valid Data

Point	Time (ms)	Drive Voltage	Measured Polarization (uC/cm2)	Capacitance (uF)	Normalized Capacitance (uF/cm2)	Dielectric Constant	Instantaneous Current (mA)
   1	0.0000e+00	0.0722	-1.317990	0.000032	0.322279	0.109191	0.254860
   2	1.0000e-04	0.5647	-1.063130	0.000032	0.322279	0.109191	0.254860
   3	2.0000e-04	1.6219	2.264613	0.000421	4.208038	1.425722	3.327744
   4	3.0000e-04	2.3165	2.508551	0.000031	0.308467	0.104511	0.243937
   5	4.0000e-04	3.0930	3.273131	0.000097	0.966836	0.327573	0.764580
   6	5.0000e-04	3.8277	5.242835	0.000249	2.490753	0.843890	1.969704
   7	6.0000e-04	4.6908	6.142127	0.000114	1.137183	0.385288	0.899292
   8	7.0000e-04	5.5057	7.594829	0.000184	1.836988	0.622388	1.452702
   9	8.0000e-04	6.2260	8.694368	0.000139	1.390402	0.471081	1.099539
  10	9.0000e-04	7.1196	10.085176	0.000176	1.758720	0.595871	1.390808
  11	1.0000e-03	7.8928	11.250250	0.000147	1.473274	0.499159	1.165074
  12	1.1000e-03	8.6404	12.375275	0.000142	1.422630	0.482000	1.125025
  13	1.2000e-03	9.5083	14.166577	0.000227	2.265158	0.767456	1.791302
  14	1.3000e-03	10.2334	15.160531	0.000126	1.256887	0.425845	0.993954
  15	1.4000e-03	11.0612	16.431191	0.000161	1.606789	0.544395	1.270659
  16	1.5000e-03	11.8633	17.669082	0.000157	1.565353	0.530356	1.237892
  17	1.6000e-03	12.6638	18.877847	0.000153	1.528521	0.517877	1.208765
  18	1.7000e-03	13.5574	20.490747	0.000204	2.039563	0.691023	1.612900
  19	1.8000e-03	14.2392	21.441011	0.000120	1.201639	0.407126	0.950264
  20	1.9000e-03	15.0670	22.533268	0.000138	1.381194	0.467961	1.092257
  21	2.0000e-03	15.8771	23.934998	0.000177	1.772532	0.600550	1.401730
  22	2.1000e-03	16.6648	25.092791	0.000146	1.464066	0.496039	1.157793
  23	2.2000e-03	17.5295	26.712973	0.000205	2.048771	0.694142	1.620182
  24	2.3000e-03	18.2193	27.539448	0.000105	1.045104	0.354091	0.826475
  25	2.4000e-03	19.0952	28.802825	0.000160	1.597581	0.541275	1.263378
  26	2.5000e-03	19.8476	29.876878	0.000136	1.358174	0.460162	1.074053
  27	2.6000e-03	19.6936	30.313781	-0.000055	-0.552478	-0.187184	0.436903
  28	2.7000e-03	18.2834	25.966597	0.000550	5.497152	1.862486	-4.347184
  29	2.8000e-03	17.6546	25.726300	0.000030	0.303863	0.102951	-0.240297
  30	2.9000e-03	16.9824	26.545493	-0.000104	-1.035896	-0.350971	0.819193
  31	3.0000e-03	16.2878	23.920435	0.000332	3.319470	1.124667	-2.625058
  32	3.1000e-03	15.3124	23.115806	0.000102	1.017480	0.344731	-0.804630
  33	3.2000e-03	14.5825	22.034471	0.000137	1.367382	0.463282	-1.081335
  34	3.3000e-03	13.8654	20.643663	0.000176	1.758720	0.595871	-1.390808
  35	3.4000e-03	12.9285	19.241933	0.000177	1.772532	0.600550	-1.401730
  36	3.5000e-03	12.2114	18.309873	0.000118	1.178619	0.399327	-0.932060
  37	3.6000e-03	11.4237	17.250384	0.000134	1.339758	0.453922	-1.059490
  38	3.7000e-03	10.5125	15.557385	0.000214	2.140851	0.725340	-1.692999
  39	3.8000e-03	9.8339	14.567072	0.000125	1.252283	0.424285	-0.990313
  40	3.9000e-03	9.0014	13.070679	0.000189	1.892236	0.641107	-1.496393
  41	4.0000e-03	8.1848	11.942013	0.000143	1.427234	0.483560	-1.128666
  42	4.1000e-03	7.3923	10.645868	0.000164	1.639017	0.555314	-1.296145
  43	4.2000e-03	6.5020	9.353363	0.000163	1.634413	0.553754	-1.292504
  44	4.3000e-03	5.8218	8.210134	0.000145	1.445650	0.489799	-1.143229
  45	4.4000e-03	5.0052	6.997728	0.000153	1.533125	0.519437	-1.212406
  46	4.5000e-03	4.1806	5.796245	0.000152	1.519313	0.514757	-1.201483
  47	4.6000e-03	3.4090	4.434565	0.000172	1.721889	0.583392	-1.361681
  48	4.7000e-03	2.5202	2.916327	0.000192	1.919860	0.650466	-1.518238
  49	4.8000e-03	1.8689	1.780379	0.000144	1.436442	0.486680	-1.135948
  50	4.9000e-03	0.9754	0.396853	0.000175	1.749512	0.592751	-1.383526
  51	5.0000e-03	0.1524	-0.935700	0.000169	1.685057	0.570913	-1.332554
  52	5.1000e-03	-0.5823	-2.151747	0.000154	1.537729	0.520997	-1.216046
  53	5.2000e-03	-1.4871	-3.527991	0.000174	1.740305	0.589631	-1.376244
  54	5.3000e-03	-2.1593	-4.583840	0.000134	1.335154	0.452363	-1.055849
  55	5.4000e-03	-3.0513	-5.876344	0.000163	1.634413	0.553754	-1.292504
  56	5.5000e-03	-3.8261	-7.216180	0.000169	1.694265	0.574032	-1.339836
  57	5.6000e-03	-4.5737	-8.606988	0.000176	1.758720	0.595871	-1.390808
  58	5.7000e-03	-5.4833	-9.684681	0.000136	1.362778	0.461722	-1.077694
  59	5.8000e-03	-6.1635	-10.704122	0.000129	1.289114	0.436764	-1.019440
  60	5.9000e-03	-7.0458	-12.120415	0.000179	1.790948	0.606790	-1.416294
  61	6.0000e-03	-7.8110	-13.274567	0.000146	1.459462	0.494479	-1.154152
  62	6.1000e-03	-8.5842	-14.228472	0.000121	1.206243	0.408686	-0.953905
  63	6.2000e-03	-9.4682	-15.983365	0.000222	2.219118	0.751858	-1.754893
  64	6.3000e-03	-10.1692	-16.842608	0.000109	1.086539	0.368129	-0.859242
  65	6.4000e-03	-11.0163	-17.927583	0.000137	1.371986	0.464841	-1.084976
  66	6.5000e-03	-11.8280	-19.143630	0.000154	1.537729	0.520997	-1.216046
  67	6.6000e-03	-12.6173	-20.337831	0.000151	1.510105	0.511638	-1.194201
  68	6.7000e-03	-13.5076	-21.677667	0.000169	1.694265	0.574032	-1.339836
  69	6.8000e-03	-14.1574	-22.409479	0.000093	0.925400	0.313534	-0.731812
  70	6.9000e-03	-15.0124	-23.377947	0.000122	1.224659	0.414926	-0.968468
  71	7.0000e-03	-15.8274	-24.932594	0.000197	1.965900	0.666065	-1.554646
  72	7.1000e-03	-16.6150	-25.737223	0.000102	1.017480	0.344731	-0.804630
  73	7.2000e-03	-17.4733	-26.949629	0.000153	1.533125	0.519437	-1.212406
  74	7.3000e-03	-18.1567	-27.878047	0.000117	1.174015	0.397767	-0.928419
  75	7.4000e-03	-19.0246	-28.850156	0.000123	1.229263	0.416485	-0.972109
  76	7.5000e-03	-19.8043	-29.956977	0.000140	1.399610	0.474201	-1.106821
  77	7.6000e-03	-19.5540	-30.313781	-0.000045	-0.451190	-0.152867	-0.356804
  78	7.7000e-03	-18.2738	-26.301556	0.000507	5.073586	1.718978	4.012225
  79	7.8000e-03	-17.5968	-27.037009	-0.000093	-0.930004	-0.315094	-0.735453
  80	7.9000e-03	-16.9792	-26.428986	0.000077	0.768865	0.260498	0.608023
  81	8.0000e-03	-16.1257	-24.768755	0.000210	2.099415	0.711301	1.660231
  82	8.1000e-03	-15.2498	-24.015097	0.000095	0.953024	0.322893	0.753658
  83	8.2000e-03	-14.5199	-22.744438	0.000161	1.606789	0.544395	1.270659
  84	8.3000e-03	-13.7226	-21.925245	0.000104	1.035896	0.350971	0.819193
  85	8.4000e-03	-12.8547	-20.523515	0.000177	1.772532	0.600550	1.401730
  86	8.5000e-03	-12.1296	-19.995590	0.000067	0.667577	0.226181	0.527924
  87	8.6000e-03	-11.3499	-18.710368	0.000163	1.625205	0.550634	1.285223
  88	8.7000e-03	-10.4580	-17.414222	0.000164	1.639017	0.555314	1.296145
  89	8.8000e-03	-9.7537	-16.292838	0.000142	1.418026	0.480440	1.121384
  90	8.9000e-03	-8.9356	-15.287961	0.000127	1.270699	0.430524	1.004877
  91	9.0000e-03	-8.1046	-13.922640	0.000173	1.726493	0.584952	1.365322
  92	9.1000e-03	-7.3233	-12.866791	0.000134	1.335154	0.452363	1.055849
  93	9.2000e-03	-6.4314	-11.534237	0.000169	1.685057	0.570913	1.332554
  94	9.3000e-03	-5.7480	-10.434698	0.000139	1.390402	0.471081	1.099539
  95	9.4000e-03	-4.9186	-9.171321	0.000160	1.597581	0.541275	1.263378
  96	9.5000e-03	-4.1100	-7.937070	0.000156	1.560749	0.528796	1.234251
  97	9.6000e-03	-3.3208	-6.695537	0.000157	1.569957	0.531916	1.241532
  98	9.7000e-03	-2.4801	-5.417596	0.000162	1.615997	0.547515	1.277941
  99	9.8000e-03	-1.7695	-4.321698	0.000139	1.385798	0.469521	1.095898
 100	9.9000e-03	-0.9096	-3.061961	0.000159	1.592977	0.539715	1.259737
 101	1.0000e-02	-0.1508	-1.842274	0.000159	1.592977	0.539715	1.219687

Center data before PMax,+/-Pr and +/-Vc Calc.

PMax (uC/cm2):	2.99e+01
Pr (uC/cm2):	-1.19e+00
-Pr (uC/cm2):	-1.84e+00
PLoss (uC/cm2):	-5.24e-01
-Vc:	7.30e-01
C (Max-Eff) (nF):	1.51e-01
K (Eff):	5.10e+02
Vert. (+/-Pr) Shift (uC/cm2):	-1.52e+00
Offset (uC/cm2):	1.35e+00

A (Loop Area - uC/cm2·Volts):	1.56e-01



Hysteresis Version: 5.48.1 - Radiant Technologies, Inc., 1999 - 9/12/24

