»»»»»»»»»»»»»»»»»»»»»»»»»»»»»»»»»»»» Hysteresis ««««««««««««««««««««««««««««««««««««
»»»  Executed Version:	5.48.1
»»»  Vision Version:	5.48.4 (R)
»»»  Vision Compiled:	9/18/24
»»»  Driver Version:	5.47.0
»»»  Windows Version:	Windows 8 or 8.1
»»»  Processor Information:	x86 (AMD or Intel) - 32 Processors
»»»  Tester Name:	PMF21124-494 (100V)
»»»  Tester S/N:	PMF21124-494
»»»  Internal Amp Type:	100V RevK 270k
»»»  Internal Amp S/N:	iAB2-596/K     
»»»  Execution Count:	1
»»»»»»»»»»»»»»»»»»»»»»»»»»»»»»»»»»»»»»»»»»««««««««««««««««««««««««««««««««««««««««««

Stored:	6/16/2025 - 15:53:2
Configured:	06/16/25 02:13:38 PM
Executed:	06/16/25 03:52:14 PM

»»»»»»»»»»»»»»»»»»»»»»»»»»»»»»»»»»» Sample Info ««««««««««««««««««««««««««««««««««««
Sample Name:	
Lot Name:	
Wafer Name:	
Die Row/Column:	0/0
Capacitor Number:	0
Sample Area (cm2):	1.00e-04
Sample Thickness (microns):	3.00e-01

Amplifier:	Internal

»»»»»»»»»»»»»»»»»»»»»»»»»»»»»»»»»»» Tester Info «««««««««««««««««««««««««««««««««««
Tester Name:	PMF21124-494 (100V)
Tester Serial Number:	PMF21124-494
Return Signal Amp. Level:	1.9 [Index: 2]

»»»»»»»»»»»»»»»»»»»»»»»»»»»»»»»» Hysteresis Info ««««««««««««««««««««««««««««««««««
Task Name:	Hyst-4
Volts:	20.00
Field:	666.67 (kV/cm)
DCBias:	0.00
DCField:	0.00 (kV/cm)
Hysteresis Period (ms):	2.00e+02
Preset:	Enabled
Preset Delay (ms):	1.00e+03
Profile:	Standard Bipolar

»»»»»»»»»»»»»»»»»»»»»»»»»»»»»»»»»»»»»» Data «««««««««««««««««««««««««««««««««««««««
Points:	2009

Valid Data

Point	Time (ms)	Drive Voltage	Measured Polarization (uC/cm2)	Capacitance (uF)	Normalized Capacitance (uF/cm2)	Dielectric Constant	Instantaneous Current (mA)
   1	0.0000e+00	0.0289	-2.627563	0.000109	1.090506	0.369474	0.000044
   2	9.9500e-02	0.0786	-2.583977	0.000109	1.090506	0.369474	0.000044
   3	1.9900e-01	0.1235	-2.519617	0.000161	1.610281	0.545578	0.000065
   4	2.9850e-01	0.1364	-2.461775	0.000145	1.447214	0.490329	0.000058
   5	3.9800e-01	0.1749	-2.394156	0.000169	1.691814	0.573202	0.000068
   6	4.9750e-01	0.2150	-2.331832	0.000156	1.559322	0.528313	0.000063
   7	5.9700e-01	0.2583	-2.268694	0.000158	1.579706	0.535219	0.000063
   8	6.9650e-01	0.3192	-2.203927	0.000162	1.620472	0.549031	0.000065
   9	7.9600e-01	0.3257	-2.140381	0.000159	1.589897	0.538672	0.000064
  10	8.9550e-01	0.3642	-2.073170	0.000168	1.681622	0.569749	0.000068
  11	9.9500e-01	0.4235	-2.010439	0.000157	1.569514	0.531766	0.000063
  12	1.0945e+00	0.4492	-1.945672	0.000162	1.620472	0.549031	0.000065
  13	1.1940e+00	0.4989	-1.879275	0.000166	1.661239	0.562843	0.000067
  14	1.2935e+00	0.5374	-1.814507	0.000162	1.620472	0.549031	0.000065
  15	1.3930e+00	0.5663	-1.751777	0.000157	1.569514	0.531766	0.000063
  16	1.4925e+00	0.6048	-1.671938	0.000200	1.997563	0.676793	0.000080
  17	1.5920e+00	0.6722	-1.596172	0.000190	1.895647	0.642262	0.000076
  18	1.6915e+00	0.7155	-1.529368	0.000167	1.671430	0.566296	0.000067
  19	1.7910e+00	0.7299	-1.467859	0.000154	1.538939	0.521407	0.000062
  20	1.8905e+00	0.7700	-1.400240	0.000169	1.691814	0.573202	0.000068
  21	1.9900e+00	0.8150	-1.335065	0.000163	1.630664	0.552484	0.000066
  22	2.0895e+00	0.8567	-1.267039	0.000170	1.702005	0.576655	0.000068
  23	2.1890e+00	0.8984	-1.202679	0.000161	1.610281	0.545578	0.000065
  24	2.2885e+00	0.9481	-1.136282	0.000166	1.661239	0.562843	0.000067
  25	2.3880e+00	0.9706	-1.071922	0.000161	1.610281	0.545578	0.000065
  26	2.4875e+00	1.0187	-1.003081	0.000172	1.722389	0.583561	0.000069
  27	2.5870e+00	1.0588	-0.932203	0.000177	1.773347	0.600826	0.000071
  28	2.6865e+00	1.0813	-0.868251	0.000160	1.600089	0.542125	0.000064
  29	2.7860e+00	1.1278	-0.802261	0.000165	1.651047	0.559390	0.000066
  30	2.8855e+00	1.1695	-0.731384	0.000177	1.773347	0.600826	0.000071
  31	2.9850e+00	1.2112	-0.666616	0.000162	1.620472	0.549031	0.000065
  32	3.0845e+00	1.2401	-0.599405	0.000168	1.681622	0.569749	0.000068
  33	3.1840e+00	1.3058	-0.533008	0.000166	1.661239	0.562843	0.000067
  34	3.2835e+00	1.3492	-0.463352	0.000174	1.742772	0.590467	0.000070
  35	3.3830e+00	1.3828	-0.387994	0.000189	1.885455	0.638809	0.000076
  36	3.4825e+00	1.4165	-0.326892	0.000153	1.528747	0.517954	0.000061
  37	3.5820e+00	1.4791	-0.259681	0.000168	1.681622	0.569749	0.000068
  38	3.6815e+00	1.5048	-0.196543	0.000158	1.579706	0.535219	0.000063
  39	3.7810e+00	1.5529	-0.130146	0.000166	1.661239	0.562843	0.000067
  40	3.8805e+00	1.5818	-0.062934	0.000168	1.681622	0.569749	0.000068
  41	3.9800e+00	1.6283	-0.004277	0.000147	1.467597	0.497235	0.000059
  42	4.0795e+00	1.6684	0.063342	0.000169	1.691814	0.573202	0.000068
  43	4.1790e+00	1.6925	0.127295	0.000160	1.600089	0.542125	0.000064
  44	4.2785e+00	1.7310	0.195321	0.000170	1.702005	0.576655	0.000068
  45	4.3780e+00	1.7566	0.264569	0.000173	1.732580	0.587014	0.000070
  46	4.4775e+00	1.7951	0.330966	0.000166	1.661239	0.562843	0.000067
  47	4.5770e+00	1.8385	0.401843	0.000177	1.773347	0.600826	0.000071
  48	4.6765e+00	1.8850	0.471092	0.000173	1.732580	0.587014	0.000070
  49	4.7760e+00	1.9010	0.537488	0.000166	1.661239	0.562843	0.000067
  50	4.8755e+00	1.9764	0.598590	0.000153	1.528747	0.517954	0.000061
  51	4.9750e+00	2.0053	0.669060	0.000176	1.763155	0.597373	0.000071
  52	5.0745e+00	2.0534	0.740345	0.000178	1.783539	0.604279	0.000072
  53	5.1740e+00	2.1192	0.811223	0.000177	1.773347	0.600826	0.000071
  54	5.2735e+00	2.1417	0.883730	0.000181	1.814113	0.614638	0.000073
  55	5.3730e+00	2.1866	0.945238	0.000154	1.538939	0.521407	0.000062
  56	5.4725e+00	2.1994	1.015709	0.000176	1.763155	0.597373	0.000071
  57	5.5720e+00	2.2668	1.081291	0.000164	1.640855	0.555937	0.000066
  58	5.6715e+00	2.3005	1.148502	0.000168	1.681622	0.569749	0.000068
  59	5.7710e+00	2.3293	1.212862	0.000161	1.610281	0.545578	0.000065
  60	5.8705e+00	2.3470	1.280889	0.000170	1.702005	0.576655	0.000068
  61	5.9700e+00	2.4272	1.345656	0.000162	1.620472	0.549031	0.000065
  62	6.0695e+00	2.4449	1.414090	0.000171	1.712197	0.580108	0.000069
  63	6.1690e+00	2.4850	1.480487	0.000166	1.661239	0.562843	0.000067
  64	6.2685e+00	2.5154	1.548513	0.000170	1.702005	0.576655	0.000068
  65	6.3680e+00	2.5620	1.613280	0.000162	1.620472	0.549031	0.000065
  66	6.4675e+00	2.5989	1.678048	0.000162	1.620472	0.549031	0.000065
  67	6.5670e+00	2.6406	1.741593	0.000159	1.589897	0.538672	0.000064
  68	6.6665e+00	2.7047	1.807990	0.000166	1.661239	0.562843	0.000067
  69	6.7660e+00	2.7256	1.874387	0.000166	1.661239	0.562843	0.000067
  70	6.8655e+00	2.7930	1.946079	0.000179	1.793730	0.607732	0.000072
  71	6.9650e+00	2.8106	2.012883	0.000167	1.671430	0.566296	0.000067
  72	7.0645e+00	2.8523	2.074799	0.000155	1.549131	0.524860	0.000062
  73	7.1640e+00	2.8956	2.136308	0.000154	1.538939	0.521407	0.000062
  74	7.2635e+00	2.9309	2.201075	0.000162	1.620472	0.549031	0.000065
  75	7.3630e+00	2.9823	2.268287	0.000168	1.681622	0.569749	0.000068
  76	7.4625e+00	3.0031	2.329796	0.000154	1.538939	0.521407	0.000062
  77	7.5620e+00	3.0657	2.394156	0.000161	1.610281	0.545578	0.000065
  78	7.6615e+00	3.0817	2.461367	0.000168	1.681622	0.569749	0.000068
  79	7.7610e+00	3.1347	2.525727	0.000161	1.610281	0.545578	0.000065
  80	7.8605e+00	3.1668	2.593346	0.000169	1.691814	0.573202	0.000068
  81	7.9600e+00	3.2037	2.654448	0.000153	1.528747	0.517954	0.000061
  82	8.0595e+00	3.2357	2.716364	0.000155	1.549131	0.524860	0.000062
  83	8.1590e+00	3.2742	2.784390	0.000170	1.702005	0.576655	0.000068
  84	8.2585e+00	3.3432	2.854453	0.000175	1.752964	0.593920	0.000070
  85	8.3580e+00	3.3753	2.912703	0.000146	1.457406	0.493782	0.000059
  86	8.4575e+00	3.4170	2.977063	0.000161	1.610281	0.545578	0.000065
  87	8.5570e+00	3.4491	3.052829	0.000190	1.895647	0.642262	0.000076
  88	8.6565e+00	3.4972	3.118818	0.000165	1.651047	0.559390	0.000066
  89	8.7560e+00	3.5373	3.179920	0.000153	1.528747	0.517954	0.000061
  90	8.8555e+00	3.5839	3.245094	0.000163	1.630664	0.552484	0.000066
  91	8.9550e+00	3.6079	3.312713	0.000169	1.691814	0.573202	0.000068
  92	9.0545e+00	3.6496	3.374222	0.000154	1.538939	0.521407	0.000062
  93	9.1540e+00	3.6929	3.440212	0.000165	1.651047	0.559390	0.000066
  94	9.2535e+00	3.7266	3.502535	0.000156	1.559322	0.528313	0.000063
  95	9.3530e+00	3.7603	3.570154	0.000169	1.691814	0.573202	0.000068
  96	9.4525e+00	3.8052	3.632070	0.000155	1.549131	0.524860	0.000062
  97	9.5520e+00	3.8470	3.695615	0.000159	1.589897	0.538672	0.000064
  98	9.6515e+00	3.8790	3.756717	0.000153	1.528747	0.517954	0.000061
  99	9.7510e+00	3.9111	3.819855	0.000158	1.579706	0.535219	0.000063
 100	9.8505e+00	3.9512	3.887474	0.000169	1.691814	0.573202	0.000068
 101	9.9500e+00	3.9929	3.949797	0.000156	1.559322	0.528313	0.000063
 102	1.0050e+01	4.0282	4.008862	0.000148	1.477789	0.500688	0.000059
 103	1.0149e+01	4.0908	4.068334	0.000149	1.487981	0.504142	0.000060
 104	1.0248e+01	4.1100	4.140026	0.000179	1.793730	0.607732	0.000072
 105	1.0348e+01	4.1566	4.208052	0.000170	1.702005	0.576655	0.000068
 106	1.0447e+01	4.2191	4.268339	0.000151	1.508364	0.511048	0.000061
 107	1.0547e+01	4.2689	4.331884	0.000159	1.589897	0.538672	0.000064
 108	1.0646e+01	4.3154	4.397467	0.000164	1.640855	0.555937	0.000066
 109	1.0746e+01	4.3378	4.460197	0.000157	1.569514	0.531766	0.000063
 110	1.0845e+01	4.3699	4.523743	0.000159	1.589897	0.538672	0.000064
 111	1.0945e+01	4.3940	4.587288	0.000159	1.589897	0.538672	0.000064
 112	1.1044e+01	4.4453	4.646353	0.000148	1.477789	0.500688	0.000059
 113	1.1144e+01	4.4710	4.711528	0.000163	1.630664	0.552484	0.000066
 114	1.1243e+01	4.5384	4.776702	0.000163	1.630664	0.552484	0.000066
 115	1.1343e+01	4.5544	4.837804	0.000153	1.528747	0.517954	0.000061
 116	1.1443e+01	4.6058	4.900942	0.000158	1.579706	0.535219	0.000063
 117	1.1542e+01	4.6298	4.964487	0.000159	1.589897	0.538672	0.000064
 118	1.1642e+01	4.6683	5.030069	0.000164	1.640855	0.555937	0.000066
 119	1.1741e+01	4.7197	5.095244	0.000163	1.630664	0.552484	0.000066
 120	1.1841e+01	4.7566	5.158790	0.000159	1.589897	0.538672	0.000064
 121	1.1940e+01	4.8303	5.230075	0.000178	1.783539	0.604279	0.000072
 122	1.2040e+01	4.8560	5.294842	0.000162	1.620472	0.549031	0.000065
 123	1.2139e+01	4.9170	5.362054	0.000168	1.681622	0.569749	0.000068
 124	1.2239e+01	4.9651	5.426414	0.000161	1.610281	0.545578	0.000065
 125	1.2338e+01	4.9763	5.489552	0.000158	1.579706	0.535219	0.000063
 126	1.2438e+01	4.9988	5.552690	0.000158	1.579706	0.535219	0.000063
 127	1.2537e+01	5.0485	5.621531	0.000172	1.722389	0.583561	0.000069
 128	1.2636e+01	5.0790	5.686298	0.000162	1.620472	0.549031	0.000065
 129	1.2736e+01	5.1063	5.740475	0.000136	1.355489	0.459252	0.000054
 130	1.2835e+01	5.1432	5.806872	0.000166	1.661239	0.562843	0.000067
 131	1.2935e+01	5.1977	5.872047	0.000163	1.630664	0.552484	0.000066
 132	1.3034e+01	5.2426	5.937221	0.000163	1.630664	0.552484	0.000066
 133	1.3134e+01	5.2731	6.007284	0.000175	1.752964	0.593920	0.000070
 134	1.3233e+01	5.3068	6.066349	0.000148	1.477789	0.500688	0.000059
 135	1.3333e+01	5.3597	6.130302	0.000160	1.600089	0.542125	0.000064
 136	1.3432e+01	5.3822	6.196291	0.000165	1.651047	0.559390	0.000066
 137	1.3532e+01	5.4271	6.263910	0.000169	1.691814	0.573202	0.000068
 138	1.3632e+01	5.4720	6.318494	0.000137	1.365681	0.462705	0.000055
 139	1.3731e+01	5.5041	6.391001	0.000181	1.814113	0.614638	0.000073
 140	1.3831e+01	5.5827	6.453324	0.000156	1.559322	0.528313	0.000063
 141	1.3930e+01	5.6148	6.525017	0.000179	1.793730	0.607732	0.000072
 142	1.4030e+01	5.6710	6.584489	0.000149	1.487981	0.504142	0.000060
 143	1.4129e+01	5.6870	6.652922	0.000171	1.712197	0.580108	0.000069
 144	1.4229e+01	5.7319	6.717282	0.000161	1.610281	0.545578	0.000065
 145	1.4328e+01	5.7544	6.775940	0.000147	1.467597	0.497235	0.000059
 146	1.4428e+01	5.8057	6.844373	0.000171	1.712197	0.580108	0.000069
 147	1.4527e+01	5.8250	6.909141	0.000162	1.620472	0.549031	0.000065
 148	1.4627e+01	5.8843	6.975130	0.000165	1.651047	0.559390	0.000066
 149	1.4726e+01	5.9164	7.045600	0.000176	1.763155	0.597373	0.000071
 150	1.4825e+01	5.9517	7.107924	0.000156	1.559322	0.528313	0.000063
 151	1.4925e+01	6.0046	7.173099	0.000163	1.630664	0.552484	0.000066
 152	1.5024e+01	6.0496	7.242754	0.000174	1.742772	0.590467	0.000070
 153	1.5124e+01	6.0688	7.312817	0.000175	1.752964	0.593920	0.000070
 154	1.5223e+01	6.1153	7.377992	0.000163	1.630664	0.552484	0.000066
 155	1.5323e+01	6.1442	7.447240	0.000173	1.732580	0.587014	0.000070
 156	1.5422e+01	6.2036	7.506712	0.000149	1.487981	0.504142	0.000060
 157	1.5522e+01	6.2453	7.576368	0.000174	1.742772	0.590467	0.000070
 158	1.5621e+01	6.2774	7.651319	0.000188	1.875263	0.635356	0.000075
 159	1.5721e+01	6.3271	7.715679	0.000161	1.610281	0.545578	0.000065
 160	1.5820e+01	6.3704	7.784112	0.000171	1.712197	0.580108	0.000069
 161	1.5920e+01	6.4073	7.849287	0.000163	1.630664	0.552484	0.000066
 162	1.6020e+01	6.4458	7.919758	0.000176	1.763155	0.597373	0.000071
 163	1.6119e+01	6.4747	7.984118	0.000161	1.610281	0.545578	0.000065
 164	1.6218e+01	6.4971	8.048070	0.000160	1.600089	0.542125	0.000064
 165	1.6318e+01	6.5324	8.112023	0.000160	1.600089	0.542125	0.000064
 166	1.6418e+01	6.5950	8.183308	0.000178	1.783539	0.604279	0.000072
 167	1.6517e+01	6.6319	8.247668	0.000161	1.610281	0.545578	0.000065
 168	1.6616e+01	6.6688	8.316917	0.000173	1.732580	0.587014	0.000070
 169	1.6716e+01	6.6880	8.387387	0.000176	1.763155	0.597373	0.000071
 170	1.6816e+01	6.7506	8.457450	0.000175	1.752964	0.593920	0.000070
 171	1.6915e+01	6.7650	8.520180	0.000157	1.569514	0.531766	0.000063
 172	1.7015e+01	6.8196	8.588614	0.000171	1.712197	0.580108	0.000069
 173	1.7114e+01	6.8822	8.655826	0.000168	1.681622	0.569749	0.000068
 174	1.7213e+01	6.9014	8.723444	0.000169	1.691814	0.573202	0.000068
 175	1.7313e+01	6.9479	8.790656	0.000168	1.681622	0.569749	0.000068
 176	1.7413e+01	7.0121	8.856645	0.000165	1.651047	0.559390	0.000066
 177	1.7512e+01	7.0314	8.925486	0.000172	1.722389	0.583561	0.000069
 178	1.7611e+01	7.0586	8.992290	0.000167	1.671430	0.566296	0.000067
 179	1.7711e+01	7.1132	9.062761	0.000176	1.763155	0.597373	0.000071
 180	1.7811e+01	7.1693	9.134046	0.000178	1.783539	0.604279	0.000072
 181	1.7910e+01	7.1693	9.197591	-0.000159	-1.589897	-0.538672	0.000064
 182	1.8009e+01	7.2319	9.268061	0.000176	1.763155	0.597373	0.000071
 183	1.8109e+01	7.2720	9.343012	0.000188	1.875263	0.635356	0.000075
 184	1.8209e+01	7.3201	9.415112	0.000180	1.803922	0.611185	0.000072
 185	1.8308e+01	7.3474	9.485990	0.000177	1.773347	0.600826	0.000071
 186	1.8407e+01	7.3987	9.550350	0.000161	1.610281	0.545578	0.000065
 187	1.8507e+01	7.4292	9.622449	0.000180	1.803922	0.611185	0.000072
 188	1.8607e+01	7.4661	9.689661	0.000168	1.681622	0.569749	0.000068
 189	1.8706e+01	7.4950	9.764205	0.000187	1.865072	0.631903	0.000075
 190	1.8805e+01	7.5463	9.831009	0.000167	1.671430	0.566296	0.000067
 191	1.8905e+01	7.5880	9.897813	0.000167	1.671430	0.566296	0.000067
 192	1.9005e+01	7.6185	9.964617	0.000167	1.671430	0.566296	0.000067
 193	1.9104e+01	7.6923	10.037124	0.000181	1.814113	0.614638	0.000073
 194	1.9203e+01	7.7180	10.102706	0.000164	1.640855	0.555937	0.000066
 195	1.9303e+01	7.7597	10.174806	0.000180	1.803922	0.611185	0.000072
 196	1.9402e+01	7.8094	10.244461	0.000174	1.742772	0.590467	0.000070
 197	1.9502e+01	7.8222	10.315746	0.000178	1.783539	0.604279	0.000072
 198	1.9602e+01	7.8848	10.381736	0.000165	1.651047	0.559390	0.000066
 199	1.9701e+01	7.9089	10.454243	0.000181	1.814113	0.614638	0.000073
 200	1.9800e+01	7.9570	10.523491	0.000173	1.732580	0.587014	0.000070
 201	1.9900e+01	7.9795	10.590295	0.000167	1.671430	0.566296	0.000067
 202	2.0000e+01	8.0244	10.662395	0.000180	1.803922	0.611185	0.000072
 203	2.0099e+01	8.0853	10.727162	0.000162	1.620472	0.549031	0.000065
 204	2.0198e+01	8.1126	10.793559	0.000166	1.661239	0.562843	0.000067
 205	2.0298e+01	8.1431	10.865252	0.000179	1.793730	0.607732	0.000072
 206	2.0398e+01	8.1736	10.928390	0.000158	1.579706	0.535219	0.000063
 207	2.0497e+01	8.2201	11.000082	0.000179	1.793730	0.607732	0.000072
 208	2.0596e+01	8.2682	11.061998	0.000155	1.549131	0.524860	0.000062
 209	2.0696e+01	8.3051	11.131654	0.000174	1.742772	0.590467	0.000070
 210	2.0796e+01	8.3532	11.200087	0.000171	1.712197	0.580108	0.000069
 211	2.0895e+01	8.3917	11.266891	0.000167	1.671430	0.566296	0.000067
 212	2.0994e+01	8.4399	11.340213	0.000183	1.834497	0.621544	0.000074
 213	2.1094e+01	8.4736	11.404166	0.000160	1.600089	0.542125	0.000064
 214	2.1194e+01	8.5249	11.477080	0.000182	1.824305	0.618091	0.000073
 215	2.1293e+01	8.5506	11.544292	0.000168	1.681622	0.569749	0.000068
 216	2.1392e+01	8.6131	11.611096	0.000167	1.671430	0.566296	0.000067
 217	2.1492e+01	8.6260	11.681566	0.000176	1.763155	0.597373	0.000071
 218	2.1591e+01	8.6564	11.751222	0.000174	1.742772	0.590467	0.000070
 219	2.1691e+01	8.7110	11.817211	0.000165	1.651047	0.559390	0.000066
 220	2.1791e+01	8.7447	11.889311	0.000180	1.803922	0.611185	0.000072
 221	2.1890e+01	8.7848	11.953671	0.000161	1.610281	0.545578	0.000065
 222	2.1989e+01	8.8249	12.020882	0.000168	1.681622	0.569749	0.000068
 223	2.2089e+01	8.8473	12.091353	0.000176	1.763155	0.597373	0.000071
 224	2.2189e+01	8.9131	12.161008	0.000174	1.742772	0.590467	0.000070
 225	2.2288e+01	8.9324	12.230256	0.000173	1.732580	0.587014	0.000070
 226	2.2387e+01	8.9805	12.298690	0.000171	1.712197	0.580108	0.000069
 227	2.2487e+01	9.0174	12.364679	0.000165	1.651047	0.559390	0.000066
 228	2.2587e+01	9.0623	12.436372	0.000179	1.793730	0.607732	0.000072
 229	2.2686e+01	9.1040	12.499917	0.000159	1.589897	0.538672	0.000064
 230	2.2785e+01	9.1602	12.569980	0.000175	1.752964	0.593920	0.000070
 231	2.2885e+01	9.2115	12.639636	0.000174	1.742772	0.590467	0.000070
 232	2.2985e+01	9.2259	12.706033	0.000166	1.661239	0.562843	0.000067
 233	2.3084e+01	9.3013	12.770393	0.000161	1.610281	0.545578	0.000065
 234	2.3183e+01	9.3013	12.836789	-0.000166	-1.661239	-0.562843	0.000067
 235	2.3283e+01	9.3495	12.901557	0.000162	1.620472	0.549031	0.000065
 236	2.3383e+01	9.3928	12.965917	0.000161	1.610281	0.545578	0.000065
 237	2.3482e+01	9.4265	13.033943	0.000170	1.702005	0.576655	0.000068
 238	2.3581e+01	9.4890	13.097081	0.000158	1.579706	0.535219	0.000063
 239	2.3681e+01	9.5003	13.163071	0.000165	1.651047	0.559390	0.000066
 240	2.3780e+01	9.5356	13.224987	0.000155	1.549131	0.524860	0.000062
 241	2.3880e+01	9.5773	13.290569	0.000164	1.640855	0.555937	0.000066
 242	2.3980e+01	9.6302	13.355744	0.000163	1.630664	0.552484	0.000066
 243	2.4079e+01	9.6607	13.424992	0.000173	1.732580	0.587014	0.000070
 244	2.4178e+01	9.6896	13.488945	0.000160	1.600089	0.542125	0.000064
 245	2.4278e+01	9.7281	13.551268	0.000156	1.559322	0.528313	0.000063
 246	2.4378e+01	9.7794	13.617258	0.000165	1.651047	0.559390	0.000066
 247	2.4477e+01	9.8323	13.682433	0.000163	1.630664	0.552484	0.000066
 248	2.4576e+01	9.8516	13.745978	0.000159	1.589897	0.538672	0.000064
 249	2.4676e+01	9.9174	13.817263	0.000178	1.783539	0.604279	0.000072
 250	2.4776e+01	9.9462	13.883253	0.000165	1.651047	0.559390	0.000066
 251	2.4875e+01	9.9944	13.948835	0.000164	1.640855	0.555937	0.000066
 252	2.4974e+01	10.0168	14.013195	0.000161	1.610281	0.545578	0.000065
 253	2.5074e+01	10.0634	14.079184	0.000165	1.651047	0.559390	0.000066
 254	2.5174e+01	10.0858	14.139064	0.000150	1.498172	0.507595	0.000060
 255	2.5273e+01	10.1644	14.205053	0.000165	1.651047	0.559390	0.000066
 256	2.5372e+01	10.1805	14.269006	0.000160	1.600089	0.542125	0.000064
 257	2.5472e+01	10.2430	14.333366	0.000161	1.610281	0.545578	0.000065
 258	2.5572e+01	10.2655	14.394875	0.000154	1.538939	0.521407	0.000062
 259	2.5671e+01	10.2847	14.464530	0.000174	1.742772	0.590467	0.000070
 260	2.5770e+01	10.3264	14.528076	0.000159	1.589897	0.538672	0.000064
 261	2.5870e+01	10.3698	14.590807	0.000157	1.569514	0.531766	0.000063
 262	2.5970e+01	10.4291	14.655981	0.000163	1.630664	0.552484	0.000066
 263	2.6069e+01	10.4484	14.721156	0.000163	1.630664	0.552484	0.000066
 264	2.6169e+01	10.4869	14.788775	0.000169	1.691814	0.573202	0.000068
 265	2.6268e+01	10.5318	14.847432	0.000147	1.467597	0.497235	0.000059
 266	2.6367e+01	10.5847	14.906497	0.000148	1.477789	0.500688	0.000059
 267	2.6467e+01	10.6329	14.974931	0.000171	1.712197	0.580108	0.000069
 268	2.6567e+01	10.6746	15.038476	0.000159	1.589897	0.538672	0.000064
 269	2.6666e+01	10.7179	15.102021	0.000159	1.589897	0.538672	0.000064
 270	2.6765e+01	10.7275	15.162715	0.000152	1.518556	0.514501	0.000061
 271	2.6865e+01	10.7788	15.227483	0.000162	1.620472	0.549031	0.000065
 272	2.6965e+01	10.8302	15.288992	0.000154	1.538939	0.521407	0.000062
 273	2.7064e+01	10.8719	15.349686	0.000152	1.518556	0.514501	0.000061
 274	2.7163e+01	10.8943	15.413231	0.000159	1.589897	0.538672	0.000064
 275	2.7263e+01	10.9328	15.475147	0.000155	1.549131	0.524860	0.000062
 276	2.7363e+01	10.9778	15.538285	0.000158	1.579706	0.535219	0.000063
 277	2.7462e+01	11.0050	15.600201	0.000155	1.549131	0.524860	0.000062
 278	2.7561e+01	11.0628	15.663339	0.000158	1.579706	0.535219	0.000063
 279	2.7661e+01	11.1157	15.721997	0.000147	1.467597	0.497235	0.000059
 280	2.7761e+01	11.1446	15.785135	0.000158	1.579706	0.535219	0.000063
 281	2.7860e+01	11.1767	15.847866	0.000157	1.569514	0.531766	0.000063
 282	2.7959e+01	11.2136	15.914262	0.000166	1.661239	0.562843	0.000067
 283	2.8059e+01	11.2569	15.971290	0.000143	1.426831	0.483423	0.000057
 284	2.8159e+01	11.3179	16.038095	0.000167	1.671430	0.566296	0.000067
 285	2.8258e+01	11.3740	16.105713	0.000169	1.691814	0.573202	0.000068
 286	2.8358e+01	11.3901	16.172518	0.000167	1.671430	0.566296	0.000067
 287	2.8457e+01	11.4478	16.234434	0.000155	1.549131	0.524860	0.000062
 288	2.8556e+01	11.4414	16.296350	-0.000155	-1.549131	-0.524860	0.000062
 289	2.8656e+01	11.5007	16.361117	0.000162	1.620472	0.549031	0.000065
 290	2.8756e+01	11.5216	16.426699	0.000164	1.640855	0.555937	0.000066
 291	2.8855e+01	11.5601	16.490245	0.000159	1.589897	0.538672	0.000064
 292	2.8954e+01	11.6211	16.548495	0.000146	1.457406	0.493782	0.000059
 293	2.9054e+01	11.6451	16.613670	0.000163	1.630664	0.552484	0.000066
 294	2.9154e+01	11.6933	16.678844	0.000163	1.630664	0.552484	0.000066
 295	2.9253e+01	11.7334	16.743612	0.000162	1.620472	0.549031	0.000065
 296	2.9352e+01	11.7670	16.802269	0.000147	1.467597	0.497235	0.000059
 297	2.9452e+01	11.8184	16.872739	0.000176	1.763155	0.597373	0.000071
 298	2.9552e+01	11.8489	16.925694	0.000132	1.324914	0.448893	0.000053
 299	2.9651e+01	11.8970	16.992091	0.000166	1.661239	0.562843	0.000067
 300	2.9750e+01	11.9243	17.052378	0.000151	1.508364	0.511048	0.000061
 301	2.9850e+01	11.9724	17.118774	0.000166	1.661239	0.562843	0.000067
 302	2.9950e+01	12.0253	17.183542	0.000162	1.620472	0.549031	0.000065
 303	3.0049e+01	12.0670	17.254419	0.000177	1.773347	0.600826	0.000071
 304	3.0148e+01	12.1023	17.315114	0.000152	1.518556	0.514501	0.000061
 305	3.0248e+01	12.1424	17.374586	0.000149	1.487981	0.504142	0.000060
 306	3.0348e+01	12.1745	17.437724	0.000158	1.579706	0.535219	0.000063
 307	3.0447e+01	12.2243	17.501676	0.000160	1.600089	0.542125	0.000064
 308	3.0547e+01	12.2531	17.559519	0.000145	1.447214	0.490329	0.000058
 309	3.0646e+01	12.3141	17.626731	0.000168	1.681622	0.569749	0.000068
 310	3.0745e+01	12.3189	17.685795	0.000148	1.477789	0.500688	0.000059
 311	3.0845e+01	12.3767	17.750563	0.000162	1.620472	0.549031	0.000065
 312	3.0945e+01	12.3927	17.814923	0.000161	1.610281	0.545578	0.000065
 313	3.1044e+01	12.4440	17.878468	0.000159	1.589897	0.538672	0.000064
 314	3.1143e+01	12.4986	17.942828	0.000161	1.610281	0.545578	0.000065
 315	3.1243e+01	12.5162	18.005152	0.000156	1.559322	0.528313	0.000063
 316	3.1343e+01	12.5788	18.071549	0.000166	1.661239	0.562843	0.000067
 317	3.1442e+01	12.6205	18.135501	0.000160	1.600089	0.542125	0.000064
 318	3.1541e+01	12.6349	18.196195	0.000152	1.518556	0.514501	0.000061
 319	3.1641e+01	12.6959	18.266258	0.000175	1.752964	0.593920	0.000070
 320	3.1741e+01	12.7617	18.339580	0.000183	1.834497	0.621544	0.000074
 321	3.1840e+01	12.7970	18.400274	0.000152	1.518556	0.514501	0.000061
 322	3.1939e+01	12.8194	18.469115	0.000172	1.722389	0.583561	0.000069
 323	3.2039e+01	12.8643	18.531438	0.000156	1.559322	0.528313	0.000063
 324	3.2139e+01	12.8948	18.599465	0.000170	1.702005	0.576655	0.000068
 325	3.2238e+01	12.9494	18.660566	0.000153	1.528747	0.517954	0.000061
 326	3.2337e+01	12.9750	18.723297	0.000157	1.569514	0.531766	0.000063
 327	3.2437e+01	12.9879	18.788879	0.000164	1.640855	0.555937	0.000066
 328	3.2536e+01	13.0601	18.852017	0.000158	1.579706	0.535219	0.000063
 329	3.2636e+01	13.0857	18.918006	0.000165	1.651047	0.559390	0.000066
 330	3.2736e+01	13.1162	18.986033	0.000170	1.702005	0.576655	0.000068
 331	3.2835e+01	13.1627	19.050800	0.000162	1.620472	0.549031	0.000065
 332	3.2934e+01	13.1916	19.111494	0.000152	1.518556	0.514501	0.000061
 333	3.3034e+01	13.2285	19.179113	0.000169	1.691814	0.573202	0.000068
 334	3.3133e+01	13.2991	19.246325	0.000168	1.681622	0.569749	0.000068
 335	3.3233e+01	13.3055	19.310277	0.000160	1.600089	0.542125	0.000064
 336	3.3333e+01	13.3793	19.377896	0.000169	1.691814	0.573202	0.000068
 337	3.3432e+01	13.4306	19.445515	0.000169	1.691814	0.573202	0.000068
 338	3.3532e+01	13.4611	19.509875	0.000161	1.610281	0.545578	0.000065
 339	3.3631e+01	13.4932	19.572199	0.000156	1.559322	0.528313	0.000063
 340	3.3730e+01	13.5445	19.641854	0.000174	1.742772	0.590467	0.000070
 341	3.3830e+01	13.5606	19.710695	0.000172	1.722389	0.583561	0.000069
 342	3.3929e+01	13.6103	19.773018	0.000156	1.559322	0.528313	0.000063
 343	3.4029e+01	13.6424	19.838193	0.000163	1.630664	0.552484	0.000066
 344	3.4129e+01	13.6921	19.906627	0.000171	1.712197	0.580108	0.000069
 345	3.4228e+01	13.7210	19.971394	0.000162	1.620472	0.549031	0.000065
 346	3.4328e+01	13.7659	20.036569	0.000163	1.630664	0.552484	0.000066
 347	3.4427e+01	13.7884	20.107447	0.000177	1.773347	0.600826	0.000071
 348	3.4526e+01	13.8461	20.172622	0.000163	1.630664	0.552484	0.000066
 349	3.4626e+01	13.9039	20.238204	0.000164	1.640855	0.555937	0.000066
 350	3.4725e+01	13.9135	20.306637	0.000171	1.712197	0.580108	0.000069
 351	3.4825e+01	13.9552	20.375885	0.000173	1.732580	0.587014	0.000070
 352	3.4925e+01	13.9889	20.443912	0.000170	1.702005	0.576655	0.000068
 353	3.5024e+01	14.0402	20.512753	0.000172	1.722389	0.583561	0.000069
 354	3.5123e+01	14.0916	20.572225	0.000149	1.487981	0.504142	0.000060
 355	3.5223e+01	14.1156	20.647583	0.000189	1.885455	0.638809	0.000076
 356	3.5322e+01	14.1606	20.713572	0.000165	1.651047	0.559390	0.000066
 357	3.5422e+01	14.2199	20.784043	0.000176	1.763155	0.597373	0.000071
 358	3.5522e+01	14.2440	20.844737	0.000152	1.518556	0.514501	0.000061
 359	3.5621e+01	14.2889	20.912356	0.000169	1.691814	0.573202	0.000068
 360	3.5721e+01	14.3114	20.983641	0.000178	1.783539	0.604279	0.000072
 361	3.5820e+01	14.3611	21.048001	0.000161	1.610281	0.545578	0.000065
 362	3.5919e+01	14.3948	21.120100	0.000180	1.803922	0.611185	0.000072
 363	3.6019e+01	14.4541	21.186497	0.000166	1.661239	0.562843	0.000067
 364	3.6118e+01	14.4846	21.252894	0.000166	1.661239	0.562843	0.000067
 365	3.6218e+01	14.5135	21.321735	0.000172	1.722389	0.583561	0.000069
 366	3.6318e+01	14.5632	21.393020	0.000178	1.783539	0.604279	0.000072
 367	3.6417e+01	14.5969	21.454121	0.000153	1.528747	0.517954	0.000061
 368	3.6517e+01	14.6226	21.526628	0.000181	1.814113	0.614638	0.000073
 369	3.6616e+01	14.6707	21.588137	0.000154	1.538939	0.521407	0.000062
 370	3.6715e+01	14.7204	21.657385	0.000173	1.732580	0.587014	0.000070
 371	3.6815e+01	14.7589	21.715228	0.000145	1.447214	0.490329	0.000058
 372	3.6914e+01	14.8279	21.781217	0.000165	1.651047	0.559390	0.000066
 373	3.7014e+01	14.8456	21.853724	0.000181	1.814113	0.614638	0.000073
 374	3.7114e+01	14.8985	21.921750	0.000170	1.702005	0.576655	0.000068
 375	3.7213e+01	14.9322	21.986518	0.000162	1.620472	0.549031	0.000065
 376	3.7313e+01	14.9707	22.051285	0.000162	1.620472	0.549031	0.000065
 377	3.7412e+01	15.0301	22.111572	0.000151	1.508364	0.511048	0.000061
 378	3.7511e+01	15.0349	22.182450	0.000177	1.773347	0.600826	0.000071
 379	3.7611e+01	15.0686	22.248032	0.000164	1.640855	0.555937	0.000066
 380	3.7711e+01	15.1263	22.313614	0.000164	1.640855	0.555937	0.000066
 381	3.7810e+01	15.1488	22.377974	0.000161	1.610281	0.545578	0.000065
 382	3.7910e+01	15.2001	22.449666	0.000179	1.793730	0.607732	0.000072
 383	3.8009e+01	15.2129	22.515249	0.000164	1.640855	0.555937	0.000066
 384	3.8108e+01	15.2643	22.580423	0.000163	1.630664	0.552484	0.000066
 385	3.8208e+01	15.3236	22.648450	0.000170	1.702005	0.576655	0.000068
 386	3.8307e+01	15.3621	22.716476	0.000170	1.702005	0.576655	0.000068
 387	3.8407e+01	15.3958	22.782873	0.000166	1.661239	0.562843	0.000067
 388	3.8507e+01	15.4263	22.848862	0.000165	1.651047	0.559390	0.000066
 389	3.8606e+01	15.4744	22.912408	0.000159	1.589897	0.538672	0.000064
 390	3.8706e+01	15.5210	22.976768	0.000161	1.610281	0.545578	0.000065
 391	3.8805e+01	15.5755	23.049682	0.000182	1.824305	0.618091	0.000073
 392	3.8904e+01	15.6028	23.115264	0.000164	1.640855	0.555937	0.000066
 393	3.9004e+01	15.6429	23.182068	0.000167	1.671430	0.566296	0.000067
 394	3.9103e+01	15.6685	23.247243	0.000163	1.630664	0.552484	0.000066
 395	3.9203e+01	15.7151	23.316084	0.000172	1.722389	0.583561	0.000069
 396	3.9303e+01	15.7600	23.380444	0.000161	1.610281	0.545578	0.000065
 397	3.9402e+01	15.8033	23.449285	0.000172	1.722389	0.583561	0.000069
 398	3.9502e+01	15.8498	23.512016	0.000157	1.569514	0.531766	0.000063
 399	3.9601e+01	15.8931	23.576376	0.000161	1.610281	0.545578	0.000065
 400	3.9700e+01	15.9156	23.642773	0.000166	1.661239	0.562843	0.000067
 401	3.9800e+01	15.9461	23.704689	0.000155	1.549131	0.524860	0.000062
 402	3.9900e+01	15.9910	23.764975	0.000151	1.508364	0.511048	0.000061
 403	3.9999e+01	16.0359	23.837075	0.000180	1.803922	0.611185	0.000072
 404	4.0099e+01	16.0632	23.896954	0.000150	1.498172	0.507595	0.000060
 405	4.0198e+01	16.0985	23.962944	0.000165	1.651047	0.559390	0.000066
 406	4.0297e+01	16.1482	24.022009	0.000148	1.477789	0.500688	0.000059
 407	4.0397e+01	16.1819	24.086776	0.000162	1.620472	0.549031	0.000065
 408	4.0496e+01	16.2348	24.148285	0.000154	1.538939	0.521407	0.000062
 409	4.0596e+01	16.2733	24.209794	0.000154	1.538939	0.521407	0.000062
 410	4.0696e+01	16.3199	24.270895	0.000153	1.528747	0.517954	0.000061
 411	4.0795e+01	16.3552	24.337699	0.000167	1.671430	0.566296	0.000067
 412	4.0895e+01	16.4033	24.402467	0.000162	1.620472	0.549031	0.000065
 413	4.0994e+01	16.4434	24.470085	0.000169	1.691814	0.573202	0.000068
 414	4.1093e+01	16.4755	24.535668	0.000164	1.640855	0.555937	0.000066
 415	4.1193e+01	16.5172	24.597584	0.000155	1.549131	0.524860	0.000062
 416	4.1292e+01	16.5525	24.663166	0.000164	1.640855	0.555937	0.000066
 417	4.1392e+01	16.5942	24.728341	0.000163	1.630664	0.552484	0.000066
 418	4.1492e+01	16.6343	24.793923	0.000164	1.640855	0.555937	0.000066
 419	4.1591e+01	16.6680	24.856654	0.000157	1.569514	0.531766	0.000063
 420	4.1691e+01	16.6840	24.921014	0.000161	1.610281	0.545578	0.000065
 421	4.1790e+01	16.7466	24.983744	0.000157	1.569514	0.531766	0.000063
 422	4.1889e+01	16.7979	25.045660	0.000155	1.549131	0.524860	0.000062
 423	4.1989e+01	16.8172	25.112465	0.000167	1.671430	0.566296	0.000067
 424	4.2089e+01	16.8781	25.173973	0.000154	1.538939	0.521407	0.000062
 425	4.2188e+01	16.8878	25.235482	0.000154	1.538939	0.521407	0.000062
 426	4.2288e+01	16.9599	25.292510	0.000143	1.426831	0.483423	0.000057
 427	4.2387e+01	17.0033	25.357685	0.000163	1.630664	0.552484	0.000066
 428	4.2486e+01	17.0386	25.422045	0.000161	1.610281	0.545578	0.000065
 429	4.2586e+01	17.0771	25.484776	0.000157	1.569514	0.531766	0.000063
 430	4.2685e+01	17.1188	25.551173	0.000166	1.661239	0.562843	0.000067
 431	4.2785e+01	17.1509	25.617977	0.000167	1.671430	0.566296	0.000067
 432	4.2885e+01	17.1958	25.681930	0.000160	1.600089	0.542125	0.000064
 433	4.2984e+01	17.2198	25.744660	0.000157	1.569514	0.531766	0.000063
 434	4.3084e+01	17.2760	25.803318	0.000147	1.467597	0.497235	0.000059
 435	4.3183e+01	17.3081	25.866456	0.000158	1.579706	0.535219	0.000063
 436	4.3282e+01	17.3434	25.927964	0.000154	1.538939	0.521407	0.000062
 437	4.3382e+01	17.3706	25.993139	0.000163	1.630664	0.552484	0.000066
 438	4.3481e+01	17.4316	26.054648	0.000154	1.538939	0.521407	0.000062
 439	4.3581e+01	17.4621	26.115749	0.000153	1.528747	0.517954	0.000061
 440	4.3681e+01	17.5038	26.181739	0.000165	1.651047	0.559390	0.000066
 441	4.3780e+01	17.5375	26.246099	0.000161	1.610281	0.545578	0.000065
 442	4.3880e+01	17.5920	26.303942	0.000145	1.447214	0.490329	0.000058
 443	4.3979e+01	17.6321	26.367080	0.000158	1.579706	0.535219	0.000063
 444	4.4078e+01	17.6786	26.420442	0.000134	1.335106	0.452346	0.000054
 445	4.4178e+01	17.7204	26.483987	0.000159	1.589897	0.538672	0.000064
 446	4.4278e+01	17.7508	26.544681	0.000152	1.518556	0.514501	0.000061
 447	4.4377e+01	17.8006	26.611893	0.000168	1.681622	0.569749	0.000068
 448	4.4477e+01	17.8262	26.671772	0.000150	1.498172	0.507595	0.000060
 449	4.4576e+01	17.8744	26.738169	0.000166	1.661239	0.562843	0.000067
 450	4.4675e+01	17.9145	26.802529	0.000161	1.610281	0.545578	0.000065
 451	4.4775e+01	17.9449	26.864445	0.000155	1.549131	0.524860	0.000062
 452	4.4874e+01	17.9931	26.927176	0.000157	1.569514	0.531766	0.000063
 453	4.4974e+01	18.0316	26.997239	0.000175	1.752964	0.593920	0.000070
 454	4.5074e+01	18.0476	27.061191	0.000160	1.600089	0.542125	0.000064
 455	4.5173e+01	18.0845	27.127996	0.000167	1.671430	0.566296	0.000067
 456	4.5273e+01	18.1471	27.189097	0.000153	1.528747	0.517954	0.000061
 457	4.5372e+01	18.1808	27.259975	0.000177	1.773347	0.600826	0.000071
 458	4.5471e+01	18.1856	27.325557	0.000164	1.640855	0.555937	0.000066
 459	4.5571e+01	18.2642	27.390324	0.000162	1.620472	0.549031	0.000065
 460	4.5670e+01	18.3091	27.449796	0.000149	1.487981	0.504142	0.000060
 461	4.5770e+01	18.3604	27.514971	0.000163	1.630664	0.552484	0.000066
 462	4.5870e+01	18.3957	27.578516	0.000159	1.589897	0.538672	0.000064
 463	4.5969e+01	18.4278	27.634730	0.000141	1.406448	0.476517	0.000056
 464	4.6069e+01	18.4888	27.697053	0.000156	1.559322	0.528313	0.000063
 465	4.6168e+01	18.5321	27.762635	0.000164	1.640855	0.555937	0.000066
 466	4.6267e+01	18.5449	27.831884	0.000173	1.732580	0.587014	0.000070
 467	4.6367e+01	18.5850	27.898280	0.000166	1.661239	0.562843	0.000067
 468	4.6467e+01	18.6171	27.963048	0.000162	1.620472	0.549031	0.000065
 469	4.6566e+01	18.6636	28.029852	0.000167	1.671430	0.566296	0.000067
 470	4.6666e+01	18.7134	28.101952	0.000180	1.803922	0.611185	0.000072
 471	4.6765e+01	18.7487	28.167534	0.000164	1.640855	0.555937	0.000066
 472	4.6864e+01	18.7968	28.233931	0.000166	1.661239	0.562843	0.000067
 473	4.6964e+01	18.8257	28.303994	0.000175	1.752964	0.593920	0.000070
 474	4.7063e+01	18.8658	28.369983	0.000165	1.651047	0.559390	0.000066
 475	4.7163e+01	18.8866	28.435158	0.000163	1.630664	0.552484	0.000066
 476	4.7263e+01	18.9412	28.502777	0.000169	1.691814	0.573202	0.000068
 477	4.7362e+01	18.9861	28.566729	0.000160	1.600089	0.542125	0.000064
 478	4.7462e+01	19.0390	28.637200	0.000176	1.763155	0.597373	0.000071
 479	4.7561e+01	19.0823	28.702782	0.000164	1.640855	0.555937	0.000066
 480	4.7660e+01	19.1032	28.767957	0.000163	1.630664	0.552484	0.000066
 481	4.7760e+01	19.1513	28.830687	0.000157	1.569514	0.531766	0.000063
 482	4.7859e+01	19.1995	28.893826	0.000158	1.579706	0.535219	0.000063
 483	4.7959e+01	19.2251	28.965925	0.000180	1.803922	0.611185	0.000072
 484	4.8059e+01	19.2620	29.036803	0.000177	1.773347	0.600826	0.000071
 485	4.8158e+01	19.2957	29.110124	0.000183	1.834497	0.621544	0.000074
 486	4.8258e+01	19.3214	29.184668	0.000187	1.865072	0.631903	0.000075
 487	4.8357e+01	19.3855	29.256360	0.000179	1.793730	0.607732	0.000072
 488	4.8456e+01	19.4192	29.331719	0.000189	1.885455	0.638809	0.000076
 489	4.8556e+01	19.4802	29.409929	0.000196	1.956797	0.662981	0.000079
 490	4.8656e+01	19.5027	29.479991	0.000175	1.752964	0.593920	0.000070
 491	4.8755e+01	19.5444	29.555350	0.000189	1.885455	0.638809	0.000076
 492	4.8855e+01	19.5668	29.625820	0.000176	1.763155	0.597373	0.000071
 493	4.8954e+01	19.6230	29.706474	0.000202	2.017946	0.683699	0.000081
 494	4.9053e+01	19.6486	29.779388	0.000182	1.824305	0.618091	0.000073
 495	4.9153e+01	19.6920	29.853932	0.000187	1.865072	0.631903	0.000075
 496	4.9252e+01	19.7160	29.923588	0.000174	1.742772	0.590467	0.000070
 497	4.9352e+01	19.7834	30.009129	0.000214	2.140246	0.725135	0.000086
 498	4.9452e+01	19.8428	30.077156	0.000170	1.702005	0.576655	0.000068
 499	4.9551e+01	19.8684	30.149255	0.000180	1.803922	0.611185	0.000072
 500	4.9651e+01	19.9101	30.219318	0.000175	1.752964	0.593920	0.000070
 501	4.9750e+01	19.9567	30.295084	0.000190	1.895647	0.642262	0.000076
 502	4.9849e+01	19.9807	30.375330	0.000201	2.007755	0.680246	0.000081
 503	4.9949e+01	20.0240	30.453133	0.000195	1.946605	0.659528	0.000078
 504	5.0048e+01	19.9695	30.421767	0.000078	0.784757	0.265883	-0.000032
 505	5.0148e+01	19.9406	30.394068	0.000069	0.693032	0.234806	-0.000028
 506	5.0248e+01	19.8893	30.353741	0.000101	1.008973	0.341849	-0.000041
 507	5.0347e+01	19.8588	30.321969	0.000079	0.794949	0.269336	-0.000032
 508	5.0447e+01	19.8187	30.284086	0.000095	0.947823	0.321131	-0.000038
 509	5.0546e+01	19.7754	30.253942	0.000075	0.754182	0.255524	-0.000030
 510	5.0645e+01	19.7369	30.211579	0.000106	1.059931	0.359115	-0.000043
 511	5.0745e+01	19.7032	30.175325	0.000091	0.907057	0.307319	-0.000036
 512	5.0844e+01	19.6374	30.137850	0.000094	0.937632	0.317678	-0.000038
 513	5.0944e+01	19.6182	30.103633	0.000086	0.856098	0.290054	-0.000034
 514	5.1044e+01	19.5941	30.066972	0.000092	0.917248	0.310772	-0.000037
 515	5.1143e+01	19.5604	30.027867	0.000098	0.978398	0.331490	-0.000039
 516	5.1242e+01	19.5267	29.986726	0.000103	1.029357	0.348755	-0.000041
 517	5.1342e+01	19.4626	29.949250	0.000094	0.937632	0.317678	-0.000038
 518	5.1441e+01	19.4321	29.907701	0.000104	1.039548	0.352208	-0.000042
 519	5.1541e+01	19.4032	29.876336	0.000078	0.784757	0.265883	-0.000032
 520	5.1641e+01	19.3390	29.839268	0.000093	0.927440	0.314225	-0.000037
 521	5.1740e+01	19.2861	29.807495	0.000079	0.794949	0.269336	-0.000032
 522	5.1840e+01	19.2781	29.775722	0.000079	0.794949	0.269336	-0.000032
 523	5.1939e+01	19.2348	29.737839	0.000095	0.947823	0.321131	-0.000038
 524	5.2038e+01	19.1898	29.698734	0.000098	0.978398	0.331490	-0.000039
 525	5.2138e+01	19.1417	29.669813	0.000072	0.723607	0.245165	-0.000029
 526	5.2237e+01	19.1016	29.634374	0.000089	0.886673	0.300413	-0.000036
 527	5.2337e+01	19.0471	29.592011	0.000106	1.059931	0.359115	-0.000043
 528	5.2437e+01	19.0134	29.559423	0.000082	0.815332	0.276242	-0.000033
 529	5.2536e+01	18.9909	29.520726	0.000097	0.968207	0.328037	-0.000039
 530	5.2636e+01	18.9412	29.489768	0.000077	0.774565	0.262430	-0.000031
 531	5.2735e+01	18.9027	29.451885	0.000095	0.947823	0.321131	-0.000038
 532	5.2834e+01	18.8770	29.411965	0.000100	0.998782	0.338396	-0.000040
 533	5.2934e+01	18.8144	29.373675	0.000096	0.958015	0.324584	-0.000038
 534	5.3033e+01	18.7936	29.335385	0.000096	0.958015	0.324584	-0.000038
 535	5.3133e+01	18.7567	29.289355	0.000115	1.151656	0.390192	-0.000046
 536	5.3233e+01	18.7278	29.250658	0.000097	0.968207	0.328037	-0.000039
 537	5.3332e+01	18.6669	29.216033	0.000087	0.866290	0.293507	-0.000035
 538	5.3431e+01	18.6364	29.178558	0.000094	0.937632	0.317678	-0.000038
 539	5.3531e+01	18.6059	29.138638	0.000100	0.998782	0.338396	-0.000040
 540	5.3630e+01	18.5465	29.101570	0.000093	0.927440	0.314225	-0.000037
 541	5.3730e+01	18.5145	29.060429	0.000103	1.029357	0.348755	-0.000041
 542	5.3830e+01	18.4743	29.024990	0.000089	0.886673	0.300413	-0.000036
 543	5.3929e+01	18.4294	28.983034	0.000105	1.049740	0.355661	-0.000042
 544	5.4029e+01	18.3813	28.941077	0.000105	1.049740	0.355661	-0.000042
 545	5.4128e+01	18.3235	28.904009	0.000093	0.927440	0.314225	-0.000037
 546	5.4227e+01	18.2883	28.862460	0.000104	1.039548	0.352208	-0.000042
 547	5.4327e+01	18.2498	28.823355	0.000098	0.978398	0.331490	-0.000039
 548	5.4426e+01	18.2096	28.789953	0.000084	0.835715	0.283148	-0.000034
 549	5.4526e+01	18.1727	28.753700	0.000091	0.907057	0.307319	-0.000036
 550	5.4626e+01	18.1278	28.708485	0.000113	1.131273	0.383286	-0.000045
 551	5.4725e+01	18.1246	28.672639	0.000090	0.896865	0.303866	-0.000036
 552	5.4825e+01	18.0669	28.627831	0.000112	1.121081	0.379833	-0.000045
 553	5.4924e+01	18.0332	28.586689	0.000103	1.029357	0.348755	-0.000041
 554	5.5023e+01	17.9979	28.540252	0.000116	1.161848	0.393645	-0.000047
 555	5.5123e+01	17.9690	28.499111	0.000103	1.029357	0.348755	-0.000041
 556	5.5222e+01	17.9209	28.455932	0.000108	1.080315	0.366021	-0.000043
 557	5.5322e+01	17.8647	28.420493	0.000089	0.886673	0.300413	-0.000036
 558	5.5422e+01	17.8150	28.375686	0.000112	1.121081	0.379833	-0.000045
 559	5.5521e+01	17.7829	28.333730	0.000105	1.049740	0.355661	-0.000042
 560	5.5620e+01	17.7444	28.286070	0.000119	1.192423	0.404004	-0.000048
 561	5.5720e+01	17.7107	28.249002	0.000093	0.927440	0.314225	-0.000037
 562	5.5819e+01	17.6514	28.201343	0.000119	1.192423	0.404004	-0.000048
 563	5.5919e+01	17.6193	28.158165	0.000108	1.080315	0.366021	-0.000043
 564	5.6019e+01	17.5792	28.112135	0.000115	1.151656	0.390192	-0.000046
 565	5.6118e+01	17.5439	28.067327	0.000112	1.121081	0.379833	-0.000045
 566	5.6218e+01	17.5038	28.022927	0.000111	1.110890	0.376380	-0.000045
 567	5.6317e+01	17.4701	27.976897	0.000115	1.151656	0.390192	-0.000046
 568	5.6416e+01	17.4332	27.928831	0.000120	1.202615	0.407457	-0.000048
 569	5.6516e+01	17.3963	27.878728	0.000125	1.253573	0.424722	-0.000050
 570	5.6615e+01	17.3498	27.827403	0.000128	1.284148	0.435081	-0.000052
 571	5.6715e+01	17.3257	27.773634	0.000135	1.345298	0.455799	-0.000054
 572	5.6815e+01	17.2744	27.728418	0.000113	1.131273	0.383286	-0.000045
 573	5.6914e+01	17.2198	27.676279	0.000130	1.304531	0.441987	-0.000052
 574	5.7014e+01	17.1974	27.631064	0.000113	1.131273	0.383286	-0.000045
 575	5.7113e+01	17.1460	27.582183	0.000122	1.222998	0.414363	-0.000049
 576	5.7212e+01	17.1188	27.534523	0.000119	1.192423	0.404004	-0.000048
 577	5.7312e+01	17.0755	27.485235	0.000123	1.233189	0.417816	-0.000050
 578	5.7411e+01	17.0402	27.437576	0.000119	1.192423	0.404004	-0.000048
 579	5.7511e+01	16.9840	27.390732	0.000117	1.172040	0.397098	-0.000047
 580	5.7611e+01	16.9455	27.339406	0.000128	1.284148	0.435081	-0.000052
 581	5.7710e+01	16.9070	27.288489	0.000127	1.273956	0.431628	-0.000051
 582	5.7809e+01	16.8621	27.237163	0.000128	1.284148	0.435081	-0.000052
 583	5.7909e+01	16.8284	27.187060	0.000125	1.253573	0.424722	-0.000050
 584	5.8008e+01	16.7803	27.139401	0.000119	1.192423	0.404004	-0.000048
 585	5.8108e+01	16.7498	27.089298	0.000125	1.253573	0.424722	-0.000050
 586	5.8208e+01	16.7017	27.036751	0.000131	1.314723	0.445440	-0.000053
 587	5.8307e+01	16.6824	26.985426	0.000128	1.284148	0.435081	-0.000052
 588	5.8407e+01	16.6455	26.934101	0.000128	1.284148	0.435081	-0.000052
 589	5.8506e+01	16.5894	26.872999	0.000153	1.528747	0.517954	-0.000061
 590	5.8605e+01	16.6086	26.820859	-0.000130	-1.304531	-0.441987	-0.000052
 591	5.8705e+01	16.5252	26.767905	0.000132	1.324914	0.448893	-0.000053
 592	5.8804e+01	16.4771	26.719838	0.000120	1.202615	0.407457	-0.000048
 593	5.8904e+01	16.4370	26.667291	0.000131	1.314723	0.445440	-0.000053
 594	5.9004e+01	16.4161	26.615966	0.000128	1.284148	0.435081	-0.000052
 595	5.9103e+01	16.3712	26.565048	0.000127	1.273956	0.431628	-0.000051
 596	5.9203e+01	16.3311	26.513723	0.000128	1.284148	0.435081	-0.000052
 597	5.9302e+01	16.2653	26.461991	0.000129	1.294339	0.438534	-0.000052
 598	5.9401e+01	16.2348	26.405370	0.000142	1.416639	0.479970	-0.000057
 599	5.9501e+01	16.1851	26.350786	0.000137	1.365681	0.462705	-0.000055
 600	5.9600e+01	16.1418	26.297831	0.000132	1.324914	0.448893	-0.000053
 601	5.9700e+01	16.1193	26.243248	0.000137	1.365681	0.462705	-0.000055
 602	5.9800e+01	16.0760	26.183776	0.000149	1.487981	0.504142	-0.000060
 603	5.9899e+01	16.0439	26.134080	0.000124	1.243381	0.421269	-0.000050
 604	5.9998e+01	15.9846	26.073793	0.000151	1.508364	0.511048	-0.000061
 605	6.0098e+01	15.9621	26.019616	0.000136	1.355489	0.459252	-0.000054
 606	6.0197e+01	15.9541	25.953220	0.000166	1.661239	0.562843	-0.000067
 607	6.0297e+01	15.8979	25.901487	0.000129	1.294339	0.438534	-0.000052
 608	6.0397e+01	15.8386	25.840386	0.000153	1.528747	0.517954	-0.000061
 609	6.0496e+01	15.8097	25.790283	0.000125	1.253573	0.424722	-0.000050
 610	6.0596e+01	15.7680	25.733255	0.000143	1.426831	0.483423	-0.000057
 611	6.0695e+01	15.7359	25.677041	0.000141	1.406448	0.476517	-0.000056
 612	6.0794e+01	15.6926	25.623680	0.000134	1.335106	0.452346	-0.000054
 613	6.0894e+01	15.6365	25.566652	0.000143	1.426831	0.483423	-0.000057
 614	6.0993e+01	15.6076	25.514104	0.000131	1.314723	0.445440	-0.000053
 615	6.1093e+01	15.5578	25.458298	0.000140	1.396256	0.473064	-0.000056
 616	6.1193e+01	15.5049	25.396790	0.000154	1.538939	0.521407	-0.000062
 617	6.1292e+01	15.4584	25.343428	0.000134	1.335106	0.452346	-0.000054
 618	6.1392e+01	15.4327	25.288029	0.000139	1.386064	0.469611	-0.000056
 619	6.1491e+01	15.3958	25.230594	0.000144	1.437022	0.486876	-0.000058
 620	6.1590e+01	15.3493	25.174381	0.000141	1.406448	0.476517	-0.000056
 621	6.1690e+01	15.3124	25.116131	0.000146	1.457406	0.493782	-0.000059
 622	6.1789e+01	15.2835	25.059103	0.000143	1.426831	0.483423	-0.000057
 623	6.1889e+01	15.2450	24.997187	0.000155	1.549131	0.524860	-0.000062
 624	6.1989e+01	15.2161	24.947084	0.000125	1.253573	0.424722	-0.000050
 625	6.2088e+01	15.1744	24.889648	0.000144	1.437022	0.486876	-0.000058
 626	6.2188e+01	15.1247	24.832213	0.000144	1.437022	0.486876	-0.000058
 627	6.2287e+01	15.0830	24.780888	0.000128	1.284148	0.435081	-0.000052
 628	6.2386e+01	15.0557	24.718564	0.000156	1.559322	0.528313	-0.000063
 629	6.2486e+01	15.0092	24.659092	0.000149	1.487981	0.504142	-0.000060
 630	6.2586e+01	14.9707	24.602879	0.000141	1.406448	0.476517	-0.000056
 631	6.2685e+01	14.9194	24.545444	0.000144	1.437022	0.486876	-0.000058
 632	6.2785e+01	14.8744	24.488416	0.000143	1.426831	0.483423	-0.000057
 633	6.2884e+01	14.8343	24.428129	0.000151	1.508364	0.511048	-0.000061
 634	6.2983e+01	14.7846	24.368250	0.000150	1.498172	0.507595	-0.000060
 635	6.3083e+01	14.7413	24.311222	0.000143	1.426831	0.483423	-0.000057
 636	6.3182e+01	14.7124	24.255823	0.000139	1.386064	0.469611	-0.000056
 637	6.3282e+01	14.6819	24.195129	0.000152	1.518556	0.514501	-0.000061
 638	6.3382e+01	14.6482	24.136879	0.000146	1.457406	0.493782	-0.000059
 639	6.3481e+01	14.5985	24.075778	0.000153	1.528747	0.517954	-0.000061
 640	6.3581e+01	14.5632	24.024860	0.000127	1.273956	0.431628	-0.000051
 641	6.3680e+01	14.5199	23.959278	0.000164	1.640855	0.555937	-0.000066
 642	6.3779e+01	14.4910	23.900213	0.000148	1.477789	0.500688	-0.000059
 643	6.3879e+01	14.4638	23.843593	0.000142	1.416639	0.479970	-0.000057
 644	6.3978e+01	14.4172	23.786157	0.000144	1.437022	0.486876	-0.000058
 645	6.4078e+01	14.3723	23.725463	0.000152	1.518556	0.514501	-0.000061
 646	6.4177e+01	14.3467	23.661510	0.000160	1.600089	0.542125	-0.000064
 647	6.4277e+01	14.2953	23.607741	0.000135	1.345298	0.455799	-0.000054
 648	6.4376e+01	14.2552	23.544603	0.000158	1.579706	0.535219	-0.000063
 649	6.4476e+01	14.1959	23.487983	0.000142	1.416639	0.479970	-0.000057
 650	6.4576e+01	14.1718	23.425252	0.000157	1.569514	0.531766	-0.000063
 651	6.4675e+01	14.1124	23.371890	0.000134	1.335106	0.452346	-0.000054
 652	6.4775e+01	14.0804	23.310789	0.000153	1.528747	0.517954	-0.000061
 653	6.4874e+01	14.0354	23.256205	0.000137	1.365681	0.462705	-0.000055
 654	6.4974e+01	13.9985	23.199584	0.000142	1.416639	0.479970	-0.000057
 655	6.5073e+01	13.9520	23.140112	0.000149	1.487981	0.504142	-0.000060
 656	6.5172e+01	13.9167	23.082269	0.000145	1.447214	0.490329	-0.000058
 657	6.5272e+01	13.8814	23.029315	0.000132	1.324914	0.448893	-0.000053
 658	6.5371e+01	13.8429	22.968213	0.000153	1.528747	0.517954	-0.000061
 659	6.5471e+01	13.7788	22.911185	0.000143	1.426831	0.483423	-0.000057
 660	6.5570e+01	13.7723	22.848047	0.000158	1.579706	0.535219	-0.000063
 661	6.5670e+01	13.7435	22.784502	0.000159	1.589897	0.538672	-0.000064
 662	6.5769e+01	13.7001	22.725845	0.000147	1.467597	0.497235	-0.000059
 663	6.5869e+01	13.6616	22.671261	0.000137	1.365681	0.462705	-0.000055
 664	6.5969e+01	13.6087	22.611381	0.000150	1.498172	0.507595	-0.000060
 665	6.6068e+01	13.5718	22.554761	0.000142	1.416639	0.479970	-0.000057
 666	6.6168e+01	13.5413	22.495289	0.000149	1.487981	0.504142	-0.000060
 667	6.6267e+01	13.4948	22.437446	0.000145	1.447214	0.490329	-0.000058
 668	6.6367e+01	13.4579	22.383677	0.000135	1.345298	0.455799	-0.000054
 669	6.6466e+01	13.4146	22.323798	0.000150	1.498172	0.507595	-0.000060
 670	6.6566e+01	13.3601	22.263918	0.000150	1.498172	0.507595	-0.000060
 671	6.6665e+01	13.3264	22.204853	0.000148	1.477789	0.500688	-0.000059
 672	6.6764e+01	13.2654	22.151084	0.000135	1.345298	0.455799	-0.000054
 673	6.6864e+01	13.2478	22.087131	0.000160	1.600089	0.542125	-0.000064
 674	6.6963e+01	13.1804	22.030104	0.000143	1.426831	0.483423	-0.000057
 675	6.7063e+01	13.1708	21.976334	0.000135	1.345298	0.455799	-0.000054
 676	6.7162e+01	13.1098	21.913604	0.000157	1.569514	0.531766	-0.000063
 677	6.7262e+01	13.0777	21.848836	0.000162	1.620472	0.549031	-0.000065
 678	6.7362e+01	13.0665	21.794660	0.000136	1.355489	0.459252	-0.000054
 679	6.7461e+01	13.0167	21.725004	0.000174	1.742772	0.590467	-0.000070
 680	6.7561e+01	12.9863	21.670827	0.000136	1.355489	0.459252	-0.000054
 681	6.7660e+01	12.9253	21.614207	0.000142	1.416639	0.479970	-0.000057
 682	6.7760e+01	12.9012	21.559623	0.000137	1.365681	0.462705	-0.000055
 683	6.7859e+01	12.8643	21.499336	0.000151	1.508364	0.511048	-0.000061
 684	6.7959e+01	12.8274	21.446382	0.000132	1.324914	0.448893	-0.000053
 685	6.8058e+01	12.7665	21.387317	0.000148	1.477789	0.500688	-0.000059
 686	6.8157e+01	12.7344	21.334362	0.000132	1.324914	0.448893	-0.000053
 687	6.8257e+01	12.6927	21.274076	0.000151	1.508364	0.511048	-0.000061
 688	6.8356e+01	12.6542	21.216640	0.000144	1.437022	0.486876	-0.000058
 689	6.8456e+01	12.6061	21.162057	0.000137	1.365681	0.462705	-0.000055
 690	6.8555e+01	12.5804	21.105029	0.000143	1.426831	0.483423	-0.000057
 691	6.8655e+01	12.5226	21.047186	0.000145	1.447214	0.490329	-0.000058
 692	6.8754e+01	12.4857	20.990565	0.000142	1.416639	0.479970	-0.000057
 693	6.8854e+01	12.4376	20.934352	0.000141	1.406448	0.476517	-0.000056
 694	6.8954e+01	12.4039	20.871214	0.000158	1.579706	0.535219	-0.000063
 695	6.9053e+01	12.3847	20.811335	0.000150	1.498172	0.507595	-0.000060
 696	6.9153e+01	12.3718	20.751863	0.000149	1.487981	0.504142	-0.000060
 697	6.9252e+01	12.3077	20.690354	0.000154	1.538939	0.521407	-0.000062
 698	6.9352e+01	12.2547	20.628030	0.000156	1.559322	0.528313	-0.000063
 699	6.9451e+01	12.2162	20.573447	0.000137	1.365681	0.462705	-0.000055
 700	6.9550e+01	12.1858	20.512345	0.000153	1.528747	0.517954	-0.000061
 701	6.9650e+01	12.1456	20.456947	0.000139	1.386064	0.469611	-0.000056
 702	6.9749e+01	12.0927	20.400326	0.000142	1.416639	0.479970	-0.000057
 703	6.9849e+01	12.0510	20.338003	0.000156	1.559322	0.528313	-0.000063
 704	6.9948e+01	11.9997	20.280160	0.000145	1.447214	0.490329	-0.000058
 705	7.0048e+01	11.9547	20.219466	0.000152	1.518556	0.514501	-0.000061
 706	7.0147e+01	11.9307	20.160809	0.000147	1.467597	0.497235	-0.000059
 707	7.0247e+01	11.8890	20.099300	0.000154	1.538939	0.521407	-0.000062
 708	7.0347e+01	11.8312	20.036569	0.000157	1.569514	0.531766	-0.000063
 709	7.0446e+01	11.8088	19.976282	0.000151	1.508364	0.511048	-0.000061
 710	7.0546e+01	11.7622	19.914774	0.000154	1.538939	0.521407	-0.000062
 711	7.0645e+01	11.7366	19.858968	0.000140	1.396256	0.473064	-0.000056
 712	7.0745e+01	11.6836	19.795830	0.000158	1.579706	0.535219	-0.000063
 713	7.0844e+01	11.6467	19.735950	0.000150	1.498172	0.507595	-0.000060
 714	7.0944e+01	11.6243	19.672405	0.000159	1.589897	0.538672	-0.000064
 715	7.1043e+01	11.5922	19.615377	0.000143	1.426831	0.483423	-0.000057
 716	7.1142e+01	11.5537	19.547758	0.000169	1.691814	0.573202	-0.000068
 717	7.1242e+01	11.4959	19.490730	0.000143	1.426831	0.483423	-0.000057
 718	7.1341e+01	11.4414	19.429221	0.000154	1.538939	0.521407	-0.000062
 719	7.1441e+01	11.4270	19.373008	0.000141	1.406448	0.476517	-0.000056
 720	7.1540e+01	11.3852	19.311907	0.000153	1.528747	0.517954	-0.000061
 721	7.1640e+01	11.3371	19.249176	0.000157	1.569514	0.531766	-0.000063
 722	7.1740e+01	11.2858	19.194185	0.000138	1.375873	0.466158	-0.000055
 723	7.1839e+01	11.2585	19.128603	0.000164	1.640855	0.555937	-0.000066
 724	7.1939e+01	11.2200	19.071167	0.000144	1.437022	0.486876	-0.000058
 725	7.2038e+01	11.1719	19.008436	0.000157	1.569514	0.531766	-0.000063
 726	7.2138e+01	11.1221	18.951409	0.000143	1.426831	0.483423	-0.000057
 727	7.2237e+01	11.0917	18.889900	0.000154	1.538939	0.521407	-0.000062
 728	7.2337e+01	11.0419	18.829613	0.000151	1.508364	0.511048	-0.000061
 729	7.2436e+01	11.0034	18.770141	0.000149	1.487981	0.504142	-0.000060
 730	7.2535e+01	10.9537	18.710262	0.000150	1.498172	0.507595	-0.000060
 731	7.2635e+01	10.9377	18.644680	0.000164	1.640855	0.555937	-0.000066
 732	7.2734e+01	10.8992	18.582764	0.000155	1.549131	0.524860	-0.000062
 733	7.2834e+01	10.8639	18.518811	0.000160	1.600089	0.542125	-0.000064
 734	7.2933e+01	10.8318	18.458524	0.000151	1.508364	0.511048	-0.000061
 735	7.3033e+01	10.8045	18.393757	0.000162	1.620472	0.549031	-0.000065
 736	7.3132e+01	10.7211	18.333470	0.000151	1.508364	0.511048	-0.000061
 737	7.3232e+01	10.7243	18.267888	-0.000164	-1.640855	-0.555937	-0.000066
 738	7.3332e+01	10.6505	18.205157	0.000157	1.569514	0.531766	-0.000063
 739	7.3431e+01	10.6168	18.139982	0.000163	1.630664	0.552484	-0.000066
 740	7.3531e+01	10.5863	18.073585	0.000166	1.661239	0.562843	-0.000067
 741	7.3630e+01	10.5366	18.013706	0.000150	1.498172	0.507595	-0.000060
 742	7.3730e+01	10.4933	17.949346	0.000161	1.610281	0.545578	-0.000065
 743	7.3829e+01	10.4468	17.881727	0.000169	1.691814	0.573202	-0.000068
 744	7.3928e+01	10.4034	17.819811	0.000155	1.549131	0.524860	-0.000062
 745	7.4028e+01	10.3714	17.752192	0.000169	1.691814	0.573202	-0.000068
 746	7.4127e+01	10.3232	17.693535	0.000147	1.467597	0.497235	-0.000059
 747	7.4227e+01	10.3008	17.625509	0.000170	1.702005	0.576655	-0.000068
 748	7.4326e+01	10.2478	17.559926	0.000164	1.640855	0.555937	-0.000066
 749	7.4426e+01	10.2109	17.495974	0.000160	1.600089	0.542125	-0.000064
 750	7.4525e+01	10.1773	17.430391	0.000164	1.640855	0.555937	-0.000066
 751	7.4625e+01	10.1452	17.367661	0.000157	1.569514	0.531766	-0.000063
 752	7.4725e+01	10.1404	17.302893	0.000162	1.620472	0.549031	-0.000065
 753	7.4824e+01	10.0457	17.238533	0.000161	1.610281	0.545578	-0.000065
 754	7.4924e+01	10.0136	17.169692	0.000172	1.722389	0.583561	-0.000069
 755	7.5023e+01	9.9751	17.110220	0.000149	1.487981	0.504142	-0.000060
 756	7.5123e+01	9.9655	17.043823	0.000166	1.661239	0.562843	-0.000067
 757	7.5222e+01	9.8821	16.979463	0.000161	1.610281	0.545578	-0.000065
 758	7.5322e+01	9.8837	16.912659	-0.000167	-1.671430	-0.566296	-0.000067
 759	7.5421e+01	9.8195	16.849928	0.000157	1.569514	0.531766	-0.000063
 760	7.5520e+01	9.7746	16.782717	0.000168	1.681622	0.569749	-0.000068
 761	7.5620e+01	9.7585	16.717542	0.000163	1.630664	0.552484	-0.000066
 762	7.5719e+01	9.7024	16.653997	0.000159	1.589897	0.538672	-0.000064
 763	7.5819e+01	9.6479	16.592080	0.000155	1.549131	0.524860	-0.000062
 764	7.5918e+01	9.6254	16.523240	0.000172	1.722389	0.583561	-0.000069
 765	7.6018e+01	9.5709	16.461731	0.000154	1.538939	0.521407	-0.000062
 766	7.6118e+01	9.5291	16.392075	0.000174	1.742772	0.590467	-0.000070
 767	7.6217e+01	9.4874	16.327308	0.000162	1.620472	0.549031	-0.000065
 768	7.6317e+01	9.4537	16.260504	0.000167	1.671430	0.566296	-0.000067
 769	7.6416e+01	9.4201	16.187182	0.000183	1.834497	0.621544	-0.000074
 770	7.6516e+01	9.3816	16.122822	0.000161	1.610281	0.545578	-0.000065
 771	7.6615e+01	9.3719	16.058462	0.000161	1.610281	0.545578	-0.000065
 772	7.6715e+01	9.3174	15.992880	0.000164	1.640855	0.555937	-0.000066
 773	7.6814e+01	9.2516	15.918336	0.000187	1.865072	0.631903	-0.000075
 774	7.6913e+01	9.2259	15.853976	0.000161	1.610281	0.545578	-0.000065
 775	7.7013e+01	9.1794	15.783506	0.000176	1.763155	0.597373	-0.000071
 776	7.7112e+01	9.1538	15.716294	0.000168	1.681622	0.569749	-0.000068
 777	7.7212e+01	9.1120	15.650712	0.000164	1.640855	0.555937	-0.000066
 778	7.7311e+01	9.0896	15.581871	0.000172	1.722389	0.583561	-0.000069
 779	7.7411e+01	9.0142	15.516289	0.000164	1.640855	0.555937	-0.000066
 780	7.7510e+01	8.9725	15.448670	0.000169	1.691814	0.573202	-0.000068
 781	7.7610e+01	8.9372	15.375348	0.000183	1.834497	0.621544	-0.000074
 782	7.7710e+01	8.8874	15.309359	0.000165	1.651047	0.559390	-0.000066
 783	7.7809e+01	8.8586	15.243369	0.000165	1.651047	0.559390	-0.000066
 784	7.7909e+01	8.8088	15.174121	0.000173	1.732580	0.587014	-0.000070
 785	7.8008e+01	8.7703	15.104058	0.000175	1.752964	0.593920	-0.000070
 786	7.8108e+01	8.7543	15.037254	0.000167	1.671430	0.566296	-0.000067
 787	7.8207e+01	8.6933	14.969228	0.000170	1.702005	0.576655	-0.000068
 788	7.8306e+01	8.6709	14.906497	0.000157	1.569514	0.531766	-0.000063
 789	7.8406e+01	8.6436	14.843359	0.000158	1.579706	0.535219	-0.000063
 790	7.8505e+01	8.5955	14.779813	0.000159	1.589897	0.538672	-0.000064
 791	7.8605e+01	8.5730	14.713009	0.000167	1.671430	0.566296	-0.000067
 792	7.8704e+01	8.5249	14.642946	0.000175	1.752964	0.593920	-0.000070
 793	7.8804e+01	8.4880	14.572476	0.000176	1.763155	0.597373	-0.000071
 794	7.8903e+01	8.4431	14.509338	0.000158	1.579706	0.535219	-0.000063
 795	7.9003e+01	8.4014	14.442126	0.000168	1.681622	0.569749	-0.000068
 796	7.9103e+01	8.3436	14.374915	0.000168	1.681622	0.569749	-0.000068
 797	7.9202e+01	8.2730	14.310148	0.000162	1.620472	0.549031	-0.000065
 798	7.9302e+01	8.2634	14.238863	0.000178	1.783539	0.604279	-0.000072
 799	7.9401e+01	8.2217	14.171244	0.000169	1.691814	0.573202	-0.000068
 800	7.9501e+01	8.1944	14.104847	0.000166	1.661239	0.562843	-0.000067
 801	7.9600e+01	8.1286	14.038043	0.000167	1.671430	0.566296	-0.000067
 802	7.9700e+01	8.1014	13.967165	0.000177	1.773347	0.600826	-0.000071
 803	7.9799e+01	8.0821	13.901583	0.000164	1.640855	0.555937	-0.000066
 804	7.9898e+01	8.0083	13.829483	0.000180	1.803922	0.611185	-0.000072
 805	7.9998e+01	7.9859	13.766753	0.000157	1.569514	0.531766	-0.000063
 806	8.0097e+01	7.9730	13.698319	0.000171	1.712197	0.580108	-0.000069
 807	8.0197e+01	7.9265	13.640476	0.000145	1.447214	0.490329	-0.000058
 808	8.0296e+01	7.8784	13.573265	0.000168	1.681622	0.569749	-0.000068
 809	8.0396e+01	7.8254	13.506461	0.000167	1.671430	0.566296	-0.000067
 810	8.0496e+01	7.7805	13.433139	0.000183	1.834497	0.621544	-0.000074
 811	8.0595e+01	7.7500	13.364705	0.000171	1.712197	0.580108	-0.000069
 812	8.0695e+01	7.7067	13.295050	0.000174	1.742772	0.590467	-0.000070
 813	8.0794e+01	7.6442	13.229060	0.000165	1.651047	0.559390	-0.000066
 814	8.0894e+01	7.6361	13.161034	0.000170	1.702005	0.576655	-0.000068
 815	8.0993e+01	7.5944	13.096267	0.000162	1.620472	0.549031	-0.000065
 816	8.1093e+01	7.5656	13.028648	0.000169	1.691814	0.573202	-0.000068
 817	8.1192e+01	7.5303	12.960622	0.000170	1.702005	0.576655	-0.000068
 818	8.1291e+01	7.4789	12.893003	0.000169	1.691814	0.573202	-0.000068
 819	8.1391e+01	7.4276	12.830679	0.000156	1.559322	0.528313	-0.000063
 820	8.1490e+01	7.3682	12.761431	0.000173	1.732580	0.587014	-0.000070
 821	8.1590e+01	7.3442	12.699515	0.000155	1.549131	0.524860	-0.000062
 822	8.1689e+01	7.3121	12.629452	0.000175	1.752964	0.593920	-0.000070
 823	8.1789e+01	7.2736	12.563870	0.000164	1.640855	0.555937	-0.000066
 824	8.1888e+01	7.2383	12.501547	0.000156	1.559322	0.528313	-0.000063
 825	8.1988e+01	7.1854	12.443704	0.000145	1.447214	0.490329	-0.000058
 826	8.2088e+01	7.1485	12.375678	0.000170	1.702005	0.576655	-0.000068
 827	8.2187e+01	7.1068	12.311318	0.000161	1.610281	0.545578	-0.000065
 828	8.2287e+01	7.0843	12.244921	0.000166	1.661239	0.562843	-0.000067
 829	8.2386e+01	7.0330	12.179746	0.000163	1.630664	0.552484	-0.000066
 830	8.2486e+01	6.9993	12.114164	0.000164	1.640855	0.555937	-0.000066
 831	8.2585e+01	6.9527	12.046545	0.000169	1.691814	0.573202	-0.000068
 832	8.2684e+01	6.9094	11.980963	0.000164	1.640855	0.555937	-0.000066
 833	8.2784e+01	6.8645	11.914159	0.000167	1.671430	0.566296	-0.000067
 834	8.2883e+01	6.8356	11.849798	0.000161	1.610281	0.545578	-0.000065
 835	8.2983e+01	6.8003	11.789919	0.000150	1.498172	0.507595	-0.000060
 836	8.3082e+01	6.7522	11.725966	0.000160	1.600089	0.542125	-0.000064
 837	8.3182e+01	6.7137	11.655496	0.000176	1.763155	0.597373	-0.000071
 838	8.3281e+01	6.6720	11.590729	0.000162	1.620472	0.549031	-0.000065
 839	8.3381e+01	6.6399	11.525146	0.000164	1.640855	0.555937	-0.000066
 840	8.3481e+01	6.5822	11.461194	0.000160	1.600089	0.542125	-0.000064
 841	8.3580e+01	6.5597	11.389909	0.000178	1.783539	0.604279	-0.000072
 842	8.3680e+01	6.5421	11.335732	0.000136	1.355489	0.459252	-0.000054
 843	8.3779e+01	6.4923	11.273409	0.000156	1.559322	0.528313	-0.000063
 844	8.3879e+01	6.4458	11.211493	0.000155	1.549131	0.524860	-0.000062
 845	8.3978e+01	6.4153	11.140208	0.000178	1.783539	0.604279	-0.000072
 846	8.4078e+01	6.3624	11.077070	0.000158	1.579706	0.535219	-0.000063
 847	8.4177e+01	6.3207	11.014339	0.000157	1.569514	0.531766	-0.000063
 848	8.4276e+01	6.2726	10.944683	0.000174	1.742772	0.590467	-0.000070
 849	8.4376e+01	6.2276	10.881138	0.000159	1.589897	0.538672	-0.000064
 850	8.4475e+01	6.2020	10.815556	0.000164	1.640855	0.555937	-0.000066
 851	8.4575e+01	6.1522	10.750788	0.000162	1.620472	0.549031	-0.000065
 852	8.4674e+01	6.1330	10.688465	0.000156	1.559322	0.528313	-0.000063
 853	8.4774e+01	6.0816	10.624919	0.000159	1.589897	0.538672	-0.000064
 854	8.4874e+01	6.0239	10.563411	0.000154	1.538939	0.521407	-0.000062
 855	8.4973e+01	5.9918	10.497421	0.000165	1.651047	0.559390	-0.000066
 856	8.5073e+01	5.9501	10.437135	0.000151	1.508364	0.511048	-0.000061
 857	8.5172e+01	5.9116	10.376848	0.000151	1.508364	0.511048	-0.000061
 858	8.5272e+01	5.8779	10.308414	0.000171	1.712197	0.580108	-0.000069
 859	8.5371e+01	5.8410	10.249350	0.000148	1.477789	0.500688	-0.000059
 860	8.5471e+01	5.8041	10.191914	0.000144	1.437022	0.486876	-0.000058
 861	8.5570e+01	5.7688	10.128776	0.000158	1.579706	0.535219	-0.000063
 862	8.5669e+01	5.7207	10.065231	0.000159	1.589897	0.538672	-0.000064
 863	8.5769e+01	5.7143	9.999241	0.000165	1.651047	0.559390	-0.000066
 864	8.5868e+01	5.6469	9.933659	0.000164	1.640855	0.555937	-0.000066
 865	8.5968e+01	5.6148	9.870114	0.000159	1.589897	0.538672	-0.000064
 866	8.6067e+01	5.5522	9.806568	0.000159	1.589897	0.538672	-0.000064
 867	8.6167e+01	5.5202	9.743023	0.000159	1.589897	0.538672	-0.000064
 868	8.6266e+01	5.4785	9.677848	0.000163	1.630664	0.552484	-0.000066
 869	8.6366e+01	5.4528	9.615525	0.000156	1.559322	0.528313	-0.000063
 870	8.6466e+01	5.4047	9.550350	0.000163	1.630664	0.552484	-0.000066
 871	8.6565e+01	5.3646	9.485175	0.000163	1.630664	0.552484	-0.000066
 872	8.6665e+01	5.3052	9.417149	0.000170	1.702005	0.576655	-0.000068
 873	8.6764e+01	5.2747	9.358491	0.000147	1.467597	0.497235	-0.000059
 874	8.6864e+01	5.2346	9.286392	0.000180	1.803922	0.611185	-0.000072
 875	8.6963e+01	5.1977	9.217144	0.000173	1.732580	0.587014	-0.000070
 876	8.7063e+01	5.1496	9.157672	0.000149	1.487981	0.504142	-0.000060
 877	8.7162e+01	5.1287	9.096978	0.000152	1.518556	0.514501	-0.000061
 878	8.7261e+01	5.0950	9.036691	0.000151	1.508364	0.511048	-0.000061
 879	8.7361e+01	5.0854	8.975589	0.000153	1.528747	0.517954	-0.000061
 880	8.7460e+01	5.0116	8.910007	0.000164	1.640855	0.555937	-0.000066
 881	8.7560e+01	4.9667	8.841166	0.000172	1.722389	0.583561	-0.000069
 882	8.7659e+01	4.9458	8.778843	0.000156	1.559322	0.528313	-0.000063
 883	8.7759e+01	4.8881	8.708373	0.000176	1.763155	0.597373	-0.000071
 884	8.7859e+01	4.8496	8.642791	0.000164	1.640855	0.555937	-0.000066
 885	8.7958e+01	4.8239	8.578838	0.000160	1.600089	0.542125	-0.000064
 886	8.8058e+01	4.7822	8.511219	0.000169	1.691814	0.573202	-0.000068
 887	8.8157e+01	4.7132	8.449710	0.000154	1.538939	0.521407	-0.000062
 888	8.8257e+01	4.6683	8.387794	0.000155	1.549131	0.524860	-0.000062
 889	8.8356e+01	4.6250	8.315695	0.000180	1.803922	0.611185	-0.000072
 890	8.8456e+01	4.5849	8.255000	0.000152	1.518556	0.514501	-0.000061
 891	8.8555e+01	4.5673	8.189011	0.000165	1.651047	0.559390	-0.000066
 892	8.8654e+01	4.5255	8.119763	0.000173	1.732580	0.587014	-0.000070
 893	8.8754e+01	4.4790	8.055810	0.000160	1.600089	0.542125	-0.000064
 894	8.8853e+01	4.4517	7.997153	0.000147	1.467597	0.497235	-0.000059
 895	8.8953e+01	4.3908	7.937273	0.000150	1.498172	0.507595	-0.000060
 896	8.9052e+01	4.3699	7.877801	0.000149	1.487981	0.504142	-0.000060
 897	8.9152e+01	4.3330	7.813441	0.000161	1.610281	0.545578	-0.000065
 898	8.9251e+01	4.2881	7.753154	0.000151	1.508364	0.511048	-0.000061
 899	8.9351e+01	4.2592	7.687980	0.000163	1.630664	0.552484	-0.000066
 900	8.9451e+01	4.2159	7.615473	0.000181	1.814113	0.614638	-0.000073
 901	8.9550e+01	4.1726	7.550298	0.000163	1.630664	0.552484	-0.000066
 902	8.9650e+01	4.1518	7.475754	0.000187	1.865072	0.631903	-0.000075
 903	8.9749e+01	4.1068	7.413023	0.000157	1.569514	0.531766	-0.000063
 904	8.9849e+01	4.0748	7.342961	0.000175	1.752964	0.593920	-0.000070
 905	8.9948e+01	4.0170	7.274527	0.000171	1.712197	0.580108	-0.000069
 906	9.0047e+01	3.9705	7.204057	0.000176	1.763155	0.597373	-0.000071
 907	9.0147e+01	3.9272	7.136438	0.000169	1.691814	0.573202	-0.000068
 908	9.0246e+01	3.9015	7.066782	0.000174	1.742772	0.590467	-0.000070
 909	9.0346e+01	3.8421	7.000385	0.000166	1.661239	0.562843	-0.000067
 910	9.0445e+01	3.8117	6.927471	0.000182	1.824305	0.618091	-0.000073
 911	9.0545e+01	3.7170	6.863926	0.000159	1.589897	0.538672	-0.000064
 912	9.0644e+01	3.7282	6.796714	-0.000168	-1.681622	-0.569749	-0.000068
 913	9.0744e+01	3.6753	6.737649	0.000148	1.477789	0.500688	-0.000059
 914	9.0844e+01	3.6577	6.672067	0.000164	1.640855	0.555937	-0.000066
 915	9.0943e+01	3.6143	6.604856	0.000168	1.681622	0.569749	-0.000068
 916	9.1043e+01	3.5710	6.542940	0.000155	1.549131	0.524860	-0.000062
 917	9.1142e+01	3.5486	6.481431	0.000154	1.538939	0.521407	-0.000062
 918	9.1242e+01	3.4988	6.407702	0.000184	1.844688	0.624997	-0.000074
 919	9.1341e+01	3.4427	6.336010	0.000179	1.793730	0.607732	-0.000072
 920	9.1441e+01	3.4106	6.267576	0.000171	1.712197	0.580108	-0.000069
 921	9.1540e+01	3.3962	6.197921	0.000174	1.742772	0.590467	-0.000070
 922	9.1639e+01	3.3464	6.123377	0.000187	1.865072	0.631903	-0.000075
 923	9.1739e+01	3.2791	6.059424	0.000160	1.600089	0.542125	-0.000064
 924	9.1838e+01	3.2518	5.988139	0.000178	1.783539	0.604279	-0.000072
 925	9.1938e+01	3.2037	5.918891	0.000173	1.732580	0.587014	-0.000070
 926	9.2037e+01	3.1780	5.853309	0.000164	1.640855	0.555937	-0.000066
 927	9.2137e+01	3.1218	5.781209	0.000180	1.803922	0.611185	-0.000072
 928	9.2237e+01	3.0930	5.716849	0.000161	1.610281	0.545578	-0.000065
 929	9.2336e+01	3.0368	5.644749	0.000180	1.803922	0.611185	-0.000072
 930	9.2436e+01	2.9887	5.580389	0.000161	1.610281	0.545578	-0.000065
 931	9.2535e+01	2.9502	5.515622	0.000162	1.620472	0.549031	-0.000065
 932	9.2635e+01	2.9197	5.456150	0.000149	1.487981	0.504142	-0.000060
 933	9.2734e+01	2.8876	5.389346	0.000167	1.671430	0.566296	-0.000067
 934	9.2834e+01	2.8539	5.322541	0.000167	1.671430	0.566296	-0.000067
 935	9.2933e+01	2.8299	5.252479	0.000175	1.752964	0.593920	-0.000070
 936	9.3032e+01	2.7705	5.181601	0.000177	1.773347	0.600826	-0.000071
 937	9.3132e+01	2.7481	5.106243	0.000189	1.885455	0.638809	-0.000076
 938	9.3231e+01	2.6807	5.032106	0.000185	1.854880	0.628450	-0.000075
 939	9.3331e+01	2.6598	4.964895	0.000168	1.681622	0.569749	-0.000068
 940	9.3430e+01	2.6309	4.893202	0.000179	1.793730	0.607732	-0.000072
 941	9.3530e+01	2.5700	4.818251	0.000188	1.875263	0.635356	-0.000075
 942	9.3629e+01	2.5219	4.750225	0.000170	1.702005	0.576655	-0.000068
 943	9.3729e+01	2.4753	4.679755	0.000176	1.763155	0.597373	-0.000071
 944	9.3829e+01	2.4689	4.612136	0.000169	1.691814	0.573202	-0.000068
 945	9.3928e+01	2.3967	4.536370	0.000190	1.895647	0.642262	-0.000076
 946	9.4028e+01	2.3598	4.467937	0.000171	1.712197	0.580108	-0.000069
 947	9.4127e+01	2.3149	4.396244	0.000179	1.793730	0.607732	-0.000072
 948	9.4227e+01	2.2876	4.333921	0.000156	1.559322	0.528313	-0.000063
 949	9.4326e+01	2.2507	4.263451	0.000176	1.763155	0.597373	-0.000071
 950	9.4425e+01	2.2219	4.195832	0.000169	1.691814	0.573202	-0.000068
 951	9.4525e+01	2.1834	4.134323	0.000154	1.538939	0.521407	-0.000062
 952	9.4624e+01	2.1384	4.058965	0.000189	1.885455	0.638809	-0.000076
 953	9.4724e+01	2.0983	3.995012	0.000160	1.600089	0.542125	-0.000064
 954	9.4823e+01	2.0614	3.920468	0.000187	1.865072	0.631903	-0.000075
 955	9.4923e+01	2.0165	3.845110	0.000189	1.885455	0.638809	-0.000076
 956	9.5022e+01	1.9684	3.776269	0.000172	1.722389	0.583561	-0.000069
 957	9.5122e+01	1.9459	3.708243	0.000170	1.702005	0.576655	-0.000068
 958	9.5222e+01	1.9042	3.638587	0.000174	1.742772	0.590467	-0.000070
 959	9.5321e+01	1.8529	3.568117	0.000176	1.763155	0.597373	-0.000071
 960	9.5421e+01	1.8144	3.496425	0.000179	1.793730	0.607732	-0.000072
 961	9.5520e+01	1.7855	3.432472	0.000160	1.600089	0.542125	-0.000064
 962	9.5620e+01	1.7310	3.359150	0.000183	1.834497	0.621544	-0.000074
 963	9.5719e+01	1.6957	3.290717	0.000171	1.712197	0.580108	-0.000069
 964	9.5819e+01	1.6347	3.224320	0.000166	1.661239	0.562843	-0.000067
 965	9.5918e+01	1.6074	3.159145	0.000163	1.630664	0.552484	-0.000066
 966	9.6017e+01	1.5705	3.097229	0.000155	1.549131	0.524860	-0.000062
 967	9.6117e+01	1.5288	3.028388	0.000172	1.722389	0.583561	-0.000069
 968	9.6216e+01	1.4791	2.958733	0.000174	1.742772	0.590467	-0.000070
 969	9.6316e+01	1.4550	2.893150	0.000164	1.640855	0.555937	-0.000066
 970	9.6415e+01	1.4069	2.826346	0.000167	1.671430	0.566296	-0.000067
 971	9.6515e+01	1.3764	2.762801	0.000159	1.589897	0.538672	-0.000064
 972	9.6615e+01	1.3347	2.685406	0.000194	1.936413	0.656075	-0.000078
 973	9.6714e+01	1.3026	2.612899	0.000181	1.814113	0.614638	-0.000073
 974	9.6814e+01	1.2513	2.544058	0.000172	1.722389	0.583561	-0.000069
 975	9.6913e+01	1.2176	2.474402	0.000174	1.742772	0.590467	-0.000070
 976	9.7013e+01	1.1599	2.401895	0.000181	1.814113	0.614638	-0.000073
 977	9.7112e+01	1.1294	2.328981	0.000182	1.824305	0.618091	-0.000073
 978	9.7212e+01	1.0973	2.262584	0.000166	1.661239	0.562843	-0.000067
 979	9.7311e+01	1.0620	2.185596	0.000193	1.926222	0.652622	-0.000077
 980	9.7410e+01	1.0187	2.117978	0.000169	1.691814	0.573202	-0.000068
 981	9.7510e+01	0.9770	2.047915	0.000175	1.752964	0.593920	-0.000070
 982	9.7609e+01	0.9433	1.977852	0.000175	1.752964	0.593920	-0.000070
 983	9.7709e+01	0.8775	1.917158	0.000152	1.518556	0.514501	-0.000061
 984	9.7808e+01	0.8326	1.849132	0.000170	1.702005	0.576655	-0.000068
 985	9.7908e+01	0.8230	1.790067	0.000148	1.477789	0.500688	-0.000059
 986	9.8007e+01	0.7861	1.718375	0.000179	1.793730	0.607732	-0.000072
 987	9.8107e+01	0.7444	1.661347	0.000143	1.426831	0.483423	-0.000057
 988	9.8207e+01	0.7171	1.598209	0.000158	1.579706	0.535219	-0.000063
 989	9.8306e+01	0.6722	1.523257	0.000188	1.875263	0.635356	-0.000075
 990	9.8406e+01	0.6337	1.458083	0.000163	1.630664	0.552484	-0.000066
 991	9.8505e+01	0.5583	1.389649	0.000171	1.712197	0.580108	-0.000069
 992	9.8605e+01	0.5470	1.324882	0.000162	1.620472	0.549031	-0.000065
 993	9.8704e+01	0.4957	1.253597	0.000178	1.783539	0.604279	-0.000072
 994	9.8803e+01	0.4620	1.187200	0.000166	1.661239	0.562843	-0.000067
 995	9.8903e+01	0.4107	1.117137	0.000175	1.752964	0.593920	-0.000070
 996	9.9002e+01	0.3802	1.051147	0.000165	1.651047	0.559390	-0.000066
 997	9.9102e+01	0.3305	0.987602	0.000159	1.589897	0.538672	-0.000064
 998	9.9201e+01	0.3080	0.918354	0.000173	1.732580	0.587014	-0.000070
 999	9.9301e+01	0.2326	0.853586	0.000162	1.620472	0.549031	-0.000065
1000	9.9400e+01	0.2086	0.781487	0.000180	1.803922	0.611185	-0.000072
1001	9.9500e+01	0.1797	0.720793	0.000152	1.518556	0.514501	-0.000061
1002	9.9600e+01	0.1412	0.657655	0.000158	1.579706	0.535219	-0.000063
1003	9.9699e+01	0.0882	0.600219	0.000144	1.437022	0.486876	-0.000058
1004	9.9799e+01	0.0561	0.532600	0.000169	1.691814	0.573202	-0.000068
1005	9.9898e+01	0.0353	0.489829	0.000107	1.070123	0.362568	-0.000043
1006	9.9998e+01	0.0160	0.422618	0.000168	1.681622	0.569749	-0.000068
1007	1.0010e+02	-0.0433	0.354184	0.000171	1.712197	0.580108	-0.000069
1008	1.0020e+02	-0.0946	0.285751	0.000171	1.712197	0.580108	-0.000069
1009	1.0030e+02	-0.1348	0.220169	0.000164	1.640855	0.555937	-0.000066
1010	1.0040e+02	-0.1717	0.152957	0.000168	1.681622	0.569749	-0.000068
1011	1.0050e+02	-0.2005	0.086968	0.000165	1.651047	0.559390	-0.000066
1012	1.0059e+02	-0.2551	0.013646	0.000183	1.834497	0.621544	-0.000074
1013	1.0069e+02	-0.2904	-0.050714	0.000161	1.610281	0.545578	-0.000065
1014	1.0079e+02	-0.3257	-0.115074	0.000161	1.610281	0.545578	-0.000065
1015	1.0089e+02	-0.3577	-0.179434	0.000161	1.610281	0.545578	-0.000065
1016	1.0099e+02	-0.4107	-0.249090	0.000174	1.742772	0.590467	-0.000070
1017	1.0109e+02	-0.4604	-0.313043	0.000160	1.600089	0.542125	-0.000064
1018	1.0119e+02	-0.5037	-0.379032	0.000165	1.651047	0.559390	-0.000066
1019	1.0129e+02	-0.5454	-0.436468	0.000144	1.437022	0.486876	-0.000058
1020	1.0139e+02	-0.5791	-0.497976	0.000154	1.538939	0.521407	-0.000062
1021	1.0149e+02	-0.6321	-0.555819	0.000145	1.447214	0.490329	-0.000058
1022	1.0159e+02	-0.6481	-0.613254	0.000144	1.437022	0.486876	-0.000058
1023	1.0169e+02	-0.6593	-0.670690	0.000144	1.437022	0.486876	-0.000058
1024	1.0179e+02	-0.7219	-0.736272	0.000164	1.640855	0.555937	-0.000066
1025	1.0189e+02	-0.7540	-0.805520	0.000173	1.732580	0.587014	-0.000070
1026	1.0199e+02	-0.7684	-0.871102	0.000164	1.640855	0.555937	-0.000066
1027	1.0209e+02	-0.8583	-0.931796	0.000152	1.518556	0.514501	-0.000061
1028	1.0219e+02	-0.8695	-1.001859	0.000175	1.752964	0.593920	-0.000070
1029	1.0229e+02	-0.9192	-1.068256	0.000166	1.661239	0.562843	-0.000067
1030	1.0239e+02	-0.9850	-1.131394	0.000158	1.579706	0.535219	-0.000063
1031	1.0248e+02	-1.0187	-1.197791	0.000166	1.661239	0.562843	-0.000067
1032	1.0258e+02	-1.0460	-1.262151	0.000161	1.610281	0.545578	-0.000065
1033	1.0268e+02	-1.0861	-1.323660	0.000154	1.538939	0.521407	-0.000062
1034	1.0278e+02	-1.1374	-1.386390	0.000157	1.569514	0.531766	-0.000063
1035	1.0288e+02	-1.1759	-1.452380	0.000165	1.651047	0.559390	-0.000066
1036	1.0298e+02	-1.2128	-1.511037	0.000147	1.467597	0.497235	-0.000059
1037	1.0308e+02	-1.2561	-1.574583	0.000159	1.589897	0.538672	-0.000064
1038	1.0318e+02	-1.3042	-1.636091	0.000154	1.538939	0.521407	-0.000062
1039	1.0328e+02	-1.3411	-1.694749	0.000147	1.467597	0.497235	-0.000059
1040	1.0338e+02	-1.3604	-1.755850	0.000153	1.528747	0.517954	-0.000061
1041	1.0348e+02	-1.3861	-1.809619	0.000135	1.345298	0.455799	-0.000054
1042	1.0358e+02	-1.4310	-1.880090	0.000176	1.763155	0.597373	-0.000071
1043	1.0368e+02	-1.4711	-1.949338	0.000173	1.732580	0.587014	-0.000070
1044	1.0378e+02	-1.5481	-2.014513	0.000163	1.630664	0.552484	-0.000066
1045	1.0388e+02	-1.5529	-2.082946	0.000171	1.712197	0.580108	-0.000069
1046	1.0398e+02	-1.5850	-2.150565	0.000169	1.691814	0.573202	-0.000068
1047	1.0408e+02	-1.6459	-2.218591	0.000170	1.702005	0.576655	-0.000068
1048	1.0418e+02	-1.6860	-2.283766	0.000163	1.630664	0.552484	-0.000066
1049	1.0428e+02	-1.7229	-2.348533	0.000162	1.620472	0.549031	-0.000065
1050	1.0438e+02	-1.7743	-2.407598	0.000148	1.477789	0.500688	-0.000059
1051	1.0447e+02	-1.8208	-2.474810	0.000168	1.681622	0.569749	-0.000068
1052	1.0457e+02	-1.8561	-2.535911	0.000153	1.528747	0.517954	-0.000061
1053	1.0467e+02	-1.8978	-2.604345	0.000171	1.712197	0.580108	-0.000069
1054	1.0477e+02	-1.9122	-2.671149	0.000167	1.671430	0.566296	-0.000067
1055	1.0487e+02	-1.9684	-2.727769	0.000142	1.416639	0.479970	-0.000057
1056	1.0497e+02	-2.0213	-2.789685	0.000155	1.549131	0.524860	-0.000062
1057	1.0507e+02	-2.0727	-2.846306	0.000142	1.416639	0.479970	-0.000057
1058	1.0517e+02	-2.0791	-2.910259	0.000160	1.600089	0.542125	-0.000064
1059	1.0527e+02	-2.1144	-2.962399	0.000130	1.304531	0.441987	-0.000052
1060	1.0537e+02	-2.1545	-3.031647	0.000173	1.732580	0.587014	-0.000070
1061	1.0547e+02	-2.1946	-3.101303	0.000174	1.742772	0.590467	-0.000070
1062	1.0557e+02	-2.2138	-3.163626	0.000156	1.559322	0.528313	-0.000063
1063	1.0567e+02	-2.2748	-3.227171	0.000159	1.589897	0.538672	-0.000064
1064	1.0577e+02	-2.3310	-3.298049	0.000177	1.773347	0.600826	-0.000071
1065	1.0587e+02	-2.3582	-3.362002	0.000160	1.600089	0.542125	-0.000064
1066	1.0597e+02	-2.3935	-3.425547	0.000159	1.589897	0.538672	-0.000064
1067	1.0607e+02	-2.4529	-3.491537	0.000165	1.651047	0.559390	-0.000066
1068	1.0617e+02	-2.4866	-3.558748	0.000168	1.681622	0.569749	-0.000068
1069	1.0627e+02	-2.5347	-3.618220	0.000149	1.487981	0.504142	-0.000060
1070	1.0637e+02	-2.5652	-3.692764	0.000187	1.865072	0.631903	-0.000075
1071	1.0647e+02	-2.6037	-3.749792	0.000143	1.426831	0.483423	-0.000057
1072	1.0656e+02	-2.6534	-3.823114	0.000183	1.834497	0.621544	-0.000074
1073	1.0666e+02	-2.7015	-3.882586	0.000149	1.487981	0.504142	-0.000060
1074	1.0676e+02	-2.7320	-3.952241	0.000174	1.742772	0.590467	-0.000070
1075	1.0686e+02	-2.7769	-4.011713	0.000149	1.487981	0.504142	-0.000060
1076	1.0696e+02	-2.7849	-4.073222	0.000154	1.538939	0.521407	-0.000062
1077	1.0706e+02	-2.8347	-4.131879	0.000147	1.467597	0.497235	-0.000059
1078	1.0716e+02	-2.8828	-4.198276	0.000166	1.661239	0.562843	-0.000067
1079	1.0726e+02	-2.8988	-4.270376	0.000180	1.803922	0.611185	-0.000072
1080	1.0736e+02	-2.9550	-4.334328	0.000160	1.600089	0.542125	-0.000064
1081	1.0746e+02	-3.0031	-4.403577	0.000173	1.732580	0.587014	-0.000070
1082	1.0756e+02	-3.0127	-4.473232	0.000174	1.742772	0.590467	-0.000070
1083	1.0766e+02	-3.0865	-4.540036	0.000167	1.671430	0.566296	-0.000067
1084	1.0776e+02	-3.1090	-4.604397	0.000161	1.610281	0.545578	-0.000065
1085	1.0786e+02	-3.1652	-4.673237	0.000172	1.722389	0.583561	-0.000069
1086	1.0796e+02	-3.2085	-4.733524	0.000151	1.508364	0.511048	-0.000061
1087	1.0806e+02	-3.2277	-4.807660	0.000185	1.854880	0.628450	-0.000075
1088	1.0816e+02	-3.2791	-4.868355	0.000152	1.518556	0.514501	-0.000061
1089	1.0826e+02	-3.3272	-4.940454	0.000180	1.803922	0.611185	-0.000072
1090	1.0836e+02	-3.3609	-5.006444	0.000165	1.651047	0.559390	-0.000066
1091	1.0845e+02	-3.3978	-5.076507	0.000175	1.752964	0.593920	-0.000070
1092	1.0855e+02	-3.4619	-5.134757	0.000146	1.457406	0.493782	-0.000059
1093	1.0865e+02	-3.4828	-5.199117	0.000161	1.610281	0.545578	-0.000065
1094	1.0875e+02	-3.5181	-5.258589	0.000149	1.487981	0.504142	-0.000060
1095	1.0885e+02	-3.5197	-5.317653	0.000148	1.477789	0.500688	-0.000059
1096	1.0895e+02	-3.5823	-5.383643	0.000165	1.651047	0.559390	-0.000066
1097	1.0905e+02	-3.6175	-5.454113	0.000176	1.763155	0.597373	-0.000071
1098	1.0915e+02	-3.6593	-5.516844	0.000157	1.569514	0.531766	-0.000063
1099	1.0925e+02	-3.7138	-5.585685	0.000172	1.722389	0.583561	-0.000069
1100	1.0935e+02	-3.7699	-5.655340	0.000174	1.742772	0.590467	-0.000070
1101	1.0945e+02	-3.7956	-5.727847	0.000181	1.814113	0.614638	-0.000073
1102	1.0955e+02	-3.8149	-5.791800	0.000160	1.600089	0.542125	-0.000064
1103	1.0965e+02	-3.9063	-5.864307	0.000181	1.814113	0.614638	-0.000073
1104	1.0975e+02	-3.9304	-5.933555	0.000173	1.732580	0.587014	-0.000070
1105	1.0985e+02	-3.9480	-6.000767	0.000168	1.681622	0.569749	-0.000068
1106	1.0995e+02	-3.9961	-6.069200	0.000171	1.712197	0.580108	-0.000069
1107	1.1005e+02	-4.0571	-6.136005	0.000167	1.671430	0.566296	-0.000067
1108	1.1015e+02	-4.0748	-6.203216	0.000168	1.681622	0.569749	-0.000068
1109	1.1025e+02	-4.1325	-6.272872	0.000174	1.742772	0.590467	-0.000070
1110	1.1035e+02	-4.1598	-6.345786	0.000182	1.824305	0.618091	-0.000073
1111	1.1044e+02	-4.2063	-6.401592	0.000140	1.396256	0.473064	-0.000056
1112	1.1054e+02	-4.2255	-6.470025	0.000171	1.712197	0.580108	-0.000069
1113	1.1064e+02	-4.2624	-6.526646	0.000142	1.416639	0.479970	-0.000057
1114	1.1074e+02	-4.3106	-6.597524	0.000177	1.773347	0.600826	-0.000071
1115	1.1084e+02	-4.3330	-6.664328	0.000167	1.671430	0.566296	-0.000067
1116	1.1094e+02	-4.4004	-6.733169	0.000172	1.722389	0.583561	-0.000069
1117	1.1104e+02	-4.4213	-6.804861	0.000179	1.793730	0.607732	-0.000072
1118	1.1114e+02	-4.4774	-6.875331	0.000176	1.763155	0.597373	-0.000071
1119	1.1124e+02	-4.5127	-6.938062	0.000157	1.569514	0.531766	-0.000063
1120	1.1134e+02	-4.5721	-7.013013	0.000188	1.875263	0.635356	-0.000075
1121	1.1144e+02	-4.6041	-7.076558	0.000159	1.589897	0.538672	-0.000064
1122	1.1154e+02	-4.6234	-7.147843	0.000178	1.783539	0.604279	-0.000072
1123	1.1164e+02	-4.6731	-7.210167	0.000156	1.559322	0.528313	-0.000063
1124	1.1174e+02	-4.7100	-7.274120	0.000160	1.600089	0.542125	-0.000064
1125	1.1184e+02	-4.7614	-7.340516	0.000166	1.661239	0.562843	-0.000067
1126	1.1194e+02	-4.7742	-7.406506	0.000165	1.651047	0.559390	-0.000066
1127	1.1204e+02	-4.8496	-7.470051	0.000159	1.589897	0.538672	-0.000064
1128	1.1214e+02	-4.8721	-7.545410	0.000189	1.885455	0.638809	-0.000076
1129	1.1224e+02	-4.9234	-7.604067	0.000147	1.467597	0.497235	-0.000059
1130	1.1234e+02	-4.9555	-7.663539	0.000149	1.487981	0.504142	-0.000060
1131	1.1244e+02	-4.9667	-7.723418	0.000150	1.498172	0.507595	-0.000060
1132	1.1253e+02	-5.0261	-7.789001	0.000164	1.640855	0.555937	-0.000066
1133	1.1263e+02	-5.0694	-7.853361	0.000161	1.610281	0.545578	-0.000065
1134	1.1273e+02	-5.1111	-7.925053	0.000179	1.793730	0.607732	-0.000072
1135	1.1283e+02	-5.1416	-7.991857	0.000167	1.671430	0.566296	-0.000067
1136	1.1293e+02	-5.1833	-8.064772	0.000182	1.824305	0.618091	-0.000073
1137	1.1303e+02	-5.2699	-8.128724	0.000160	1.600089	0.542125	-0.000064
1138	1.1313e+02	-5.2667	-8.192677	-0.000160	-1.600089	-0.542125	-0.000064
1139	1.1323e+02	-5.3277	-8.265184	0.000181	1.814113	0.614638	-0.000073
1140	1.1333e+02	-5.3613	-8.329544	0.000161	1.610281	0.545578	-0.000065
1141	1.1343e+02	-5.3918	-8.397570	0.000170	1.702005	0.576655	-0.000068
1142	1.1353e+02	-5.4383	-8.459486	0.000155	1.549131	0.524860	-0.000062
1143	1.1363e+02	-5.4752	-8.523032	0.000159	1.589897	0.538672	-0.000064
1144	1.1373e+02	-5.5073	-8.589836	0.000167	1.671430	0.566296	-0.000067
1145	1.1383e+02	-5.5587	-8.658677	0.000172	1.722389	0.583561	-0.000069
1146	1.1393e+02	-5.5827	-8.723037	0.000161	1.610281	0.545578	-0.000065
1147	1.1403e+02	-5.6244	-8.792285	0.000173	1.732580	0.587014	-0.000070
1148	1.1413e+02	-5.6678	-8.850943	0.000147	1.467597	0.497235	-0.000059
1149	1.1423e+02	-5.7079	-8.914488	0.000159	1.589897	0.538672	-0.000064
1150	1.1433e+02	-5.7560	-8.979256	0.000162	1.620472	0.549031	-0.000065
1151	1.1442e+02	-5.7544	-9.044023	-0.000162	-1.620472	-0.549031	-0.000065
1152	1.1452e+02	-5.8346	-9.110827	0.000167	1.671430	0.566296	-0.000067
1153	1.1462e+02	-5.8603	-9.176817	0.000165	1.651047	0.559390	-0.000066
1154	1.1472e+02	-5.9260	-9.237918	0.000153	1.528747	0.517954	-0.000061
1155	1.1482e+02	-5.9501	-9.300241	0.000156	1.559322	0.528313	-0.000063
1156	1.1492e+02	-5.9902	-9.367453	0.000168	1.681622	0.569749	-0.000068
1157	1.1502e+02	-5.9966	-9.430998	0.000159	1.589897	0.538672	-0.000064
1158	1.1512e+02	-6.0608	-9.497395	0.000166	1.661239	0.562843	-0.000067
1159	1.1522e+02	-6.1250	-9.556053	0.000147	1.467597	0.497235	-0.000059
1160	1.1532e+02	-6.1747	-9.615932	0.000150	1.498172	0.507595	-0.000060
1161	1.1542e+02	-6.2020	-9.681107	0.000163	1.630664	0.552484	-0.000066
1162	1.1552e+02	-6.2196	-9.747504	0.000166	1.661239	0.562843	-0.000067
1163	1.1562e+02	-6.2902	-9.803310	0.000140	1.396256	0.473064	-0.000056
1164	1.1572e+02	-6.3223	-9.873780	0.000176	1.763155	0.597373	-0.000071
1165	1.1582e+02	-6.3576	-9.933252	0.000149	1.487981	0.504142	-0.000060
1166	1.1592e+02	-6.3736	-9.988650	0.000139	1.386064	0.469611	-0.000056
1167	1.1602e+02	-6.4025	-10.046900	0.000146	1.457406	0.493782	-0.000059
1168	1.1612e+02	-6.4586	-10.107187	0.000151	1.508364	0.511048	-0.000061
1169	1.1622e+02	-6.5004	-10.168696	0.000154	1.538939	0.521407	-0.000062
1170	1.1632e+02	-6.5372	-10.235500	0.000167	1.671430	0.566296	-0.000067
1171	1.1642e+02	-6.5870	-10.295379	0.000150	1.498172	0.507595	-0.000060
1172	1.1651e+02	-6.6383	-10.358925	0.000159	1.589897	0.538672	-0.000064
1173	1.1661e+02	-6.6560	-10.418397	0.000149	1.487981	0.504142	-0.000060
1174	1.1671e+02	-6.6880	-10.479905	0.000154	1.538939	0.521407	-0.000062
1175	1.1681e+02	-6.7362	-10.541007	0.000153	1.528747	0.517954	-0.000061
1176	1.1691e+02	-6.8003	-10.606182	0.000163	1.630664	0.552484	-0.000066
1177	1.1701e+02	-6.8164	-10.664839	0.000147	1.467597	0.497235	-0.000059
1178	1.1711e+02	-6.8404	-10.731643	0.000167	1.671430	0.566296	-0.000067
1179	1.1721e+02	-6.9078	-10.790708	0.000148	1.477789	0.500688	-0.000059
1180	1.1731e+02	-6.9511	-10.856290	0.000164	1.640855	0.555937	-0.000066
1181	1.1741e+02	-6.9848	-10.914133	0.000145	1.447214	0.490329	-0.000058
1182	1.1751e+02	-7.0233	-10.980529	0.000166	1.661239	0.562843	-0.000067
1183	1.1761e+02	-7.0747	-11.035928	0.000139	1.386064	0.469611	-0.000056
1184	1.1771e+02	-7.0939	-11.094993	0.000148	1.477789	0.500688	-0.000059
1185	1.1781e+02	-7.1485	-11.155687	0.000152	1.518556	0.514501	-0.000061
1186	1.1791e+02	-7.1789	-11.216381	0.000152	1.518556	0.514501	-0.000061
1187	1.1801e+02	-7.2335	-11.281148	0.000162	1.620472	0.549031	-0.000065
1188	1.1811e+02	-7.2575	-11.336954	0.000140	1.396256	0.473064	-0.000056
1189	1.1821e+02	-7.3169	-11.396426	0.000149	1.487981	0.504142	-0.000060
1190	1.1831e+02	-7.3329	-11.449381	0.000132	1.324914	0.448893	-0.000053
1191	1.1841e+02	-7.3763	-11.512112	0.000157	1.569514	0.531766	-0.000063
1192	1.1850e+02	-7.4276	-11.571991	0.000150	1.498172	0.507595	-0.000060
1193	1.1860e+02	-7.4549	-11.627389	0.000139	1.386064	0.469611	-0.000056
1194	1.1870e+02	-7.5126	-11.692972	0.000164	1.640855	0.555937	-0.000066
1195	1.1880e+02	-7.5479	-11.750000	0.000143	1.426831	0.483423	-0.000057
1196	1.1890e+02	-7.5993	-11.807842	0.000145	1.447214	0.490329	-0.000058
1197	1.1900e+02	-7.6281	-11.868129	0.000151	1.508364	0.511048	-0.000061
1198	1.1910e+02	-7.6602	-11.930452	0.000156	1.559322	0.528313	-0.000063
1199	1.1920e+02	-7.7035	-11.988702	0.000146	1.457406	0.493782	-0.000059
1200	1.1930e+02	-7.7356	-12.047767	0.000148	1.477789	0.500688	-0.000059
1201	1.1940e+02	-7.7934	-12.099907	0.000130	1.304531	0.441987	-0.000052
1202	1.1950e+02	-7.7918	-12.158971	-0.000148	-1.477789	-0.500688	-0.000059
1203	1.1960e+02	-7.8543	-12.218036	0.000148	1.477789	0.500688	-0.000059
1204	1.1970e+02	-7.8848	-12.275064	0.000143	1.426831	0.483423	-0.000057
1205	1.1980e+02	-7.9217	-12.338610	0.000159	1.589897	0.538672	-0.000064
1206	1.1990e+02	-7.9618	-12.400933	0.000156	1.559322	0.528313	-0.000063
1207	1.2000e+02	-8.0035	-12.455110	0.000136	1.355489	0.459252	-0.000054
1208	1.2010e+02	-8.0581	-12.514989	0.000150	1.498172	0.507595	-0.000060
1209	1.2020e+02	-8.1158	-12.579349	0.000161	1.610281	0.545578	-0.000065
1210	1.2030e+02	-8.1367	-12.640858	0.000154	1.538939	0.521407	-0.000062
1211	1.2039e+02	-8.1976	-12.699922	0.000148	1.477789	0.500688	-0.000059
1212	1.2049e+02	-8.2233	-12.758987	0.000148	1.477789	0.500688	-0.000059
1213	1.2059e+02	-8.2827	-12.821718	0.000157	1.569514	0.531766	-0.000063
1214	1.2069e+02	-8.3051	-12.882819	0.000153	1.528747	0.517954	-0.000061
1215	1.2079e+02	-8.3388	-12.940255	0.000144	1.437022	0.486876	-0.000058
1216	1.2089e+02	-8.3901	-12.998504	0.000146	1.457406	0.493782	-0.000059
1217	1.2099e+02	-8.4110	-13.060828	0.000156	1.559322	0.528313	-0.000063
1218	1.2109e+02	-8.4463	-13.118263	0.000144	1.437022	0.486876	-0.000058
1219	1.2119e+02	-8.4880	-13.172847	0.000137	1.365681	0.462705	-0.000055
1220	1.2129e+02	-8.5425	-13.235578	0.000157	1.569514	0.531766	-0.000063
1221	1.2139e+02	-8.5778	-13.291791	0.000141	1.406448	0.476517	-0.000056
1222	1.2149e+02	-8.5955	-13.350856	0.000148	1.477789	0.500688	-0.000059
1223	1.2159e+02	-8.6500	-13.413587	0.000157	1.569514	0.531766	-0.000063
1224	1.2169e+02	-8.6869	-13.470207	0.000142	1.416639	0.479970	-0.000057
1225	1.2179e+02	-8.7334	-13.524791	0.000137	1.365681	0.462705	-0.000055
1226	1.2189e+02	-8.7752	-13.588744	0.000160	1.600089	0.542125	-0.000064
1227	1.2199e+02	-8.8121	-13.651882	0.000158	1.579706	0.535219	-0.000063
1228	1.2209e+02	-8.8714	-13.708095	0.000141	1.406448	0.476517	-0.000056
1229	1.2219e+02	-8.9003	-13.766345	0.000146	1.457406	0.493782	-0.000059
1230	1.2229e+02	-8.9372	-13.825410	0.000148	1.477789	0.500688	-0.000059
1231	1.2239e+02	-8.9773	-13.883660	0.000146	1.457406	0.493782	-0.000059
1232	1.2248e+02	-9.0190	-13.940688	0.000143	1.426831	0.483423	-0.000057
1233	1.2258e+02	-9.0623	-14.005455	0.000162	1.620472	0.549031	-0.000065
1234	1.2268e+02	-9.1136	-14.061669	0.000141	1.406448	0.476517	-0.000056
1235	1.2278e+02	-9.1457	-14.122363	0.000152	1.518556	0.514501	-0.000061
1236	1.2288e+02	-9.1746	-14.175317	0.000132	1.324914	0.448893	-0.000053
1237	1.2298e+02	-9.2051	-14.236419	0.000153	1.528747	0.517954	-0.000061
1238	1.2308e+02	-9.2484	-14.297927	0.000154	1.538939	0.521407	-0.000062
1239	1.2318e+02	-9.2853	-14.356585	0.000147	1.467597	0.497235	-0.000059
1240	1.2328e+02	-9.3302	-14.416871	0.000151	1.508364	0.511048	-0.000061
1241	1.2338e+02	-9.3350	-14.477973	0.000153	1.528747	0.517954	-0.000061
1242	1.2348e+02	-9.3832	-14.546406	0.000171	1.712197	0.580108	-0.000069
1243	1.2358e+02	-9.4553	-14.606693	0.000151	1.508364	0.511048	-0.000061
1244	1.2368e+02	-9.4987	-14.666165	0.000149	1.487981	0.504142	-0.000060
1245	1.2378e+02	-9.5436	-14.727674	0.000154	1.538939	0.521407	-0.000062
1246	1.2388e+02	-9.5933	-14.788368	0.000152	1.518556	0.514501	-0.000061
1247	1.2398e+02	-9.6302	-14.848654	0.000151	1.508364	0.511048	-0.000061
1248	1.2408e+02	-9.6511	-14.910570	0.000155	1.549131	0.524860	-0.000062
1249	1.2418e+02	-9.7040	-14.973709	0.000158	1.579706	0.535219	-0.000063
1250	1.2428e+02	-9.7441	-15.029922	0.000141	1.406448	0.476517	-0.000056
1251	1.2438e+02	-9.7634	-15.098763	0.000172	1.722389	0.583561	-0.000069
1252	1.2447e+02	-9.8035	-15.158235	0.000149	1.487981	0.504142	-0.000060
1253	1.2457e+02	-9.8644	-15.217299	0.000148	1.477789	0.500688	-0.000059
1254	1.2467e+02	-9.8741	-15.274735	0.000144	1.437022	0.486876	-0.000058
1255	1.2477e+02	-9.9158	-15.340317	0.000164	1.640855	0.555937	-0.000066
1256	1.2487e+02	-9.9607	-15.395715	0.000139	1.386064	0.469611	-0.000056
1257	1.2497e+02	-9.9992	-15.457224	0.000154	1.538939	0.521407	-0.000062
1258	1.2507e+02	-10.0569	-15.519955	0.000157	1.569514	0.531766	-0.000063
1259	1.2517e+02	-10.0858	-15.578205	0.000146	1.457406	0.493782	-0.000059
1260	1.2527e+02	-10.1339	-15.643380	0.000163	1.630664	0.552484	-0.000066
1261	1.2537e+02	-10.1692	-15.697556	0.000136	1.355489	0.459252	-0.000054
1262	1.2547e+02	-10.1933	-15.763546	0.000165	1.651047	0.559390	-0.000066
1263	1.2557e+02	-10.2494	-15.821388	0.000145	1.447214	0.490329	-0.000058
1264	1.2567e+02	-10.3168	-15.886156	0.000162	1.620472	0.549031	-0.000065
1265	1.2577e+02	-10.3264	-15.942369	0.000141	1.406448	0.476517	-0.000056
1266	1.2587e+02	-10.3970	-16.004693	0.000156	1.559322	0.528313	-0.000063
1267	1.2597e+02	-10.4034	-16.064979	0.000151	1.508364	0.511048	-0.000061
1268	1.2607e+02	-10.4500	-16.129339	0.000161	1.610281	0.545578	-0.000065
1269	1.2617e+02	-10.4933	-16.187589	0.000146	1.457406	0.493782	-0.000059
1270	1.2627e+02	-10.5254	-16.253171	0.000164	1.640855	0.555937	-0.000066
1271	1.2636e+02	-10.5302	-16.312236	0.000148	1.477789	0.500688	-0.000059
1272	1.2646e+02	-10.5976	-16.377818	0.000164	1.640855	0.555937	-0.000066
1273	1.2656e+02	-10.6056	-16.440549	0.000157	1.569514	0.531766	-0.000063
1274	1.2666e+02	-10.6906	-16.503687	0.000158	1.579706	0.535219	-0.000063
1275	1.2676e+02	-10.7243	-16.566418	0.000157	1.569514	0.531766	-0.000063
1276	1.2686e+02	-10.7516	-16.629556	0.000158	1.579706	0.535219	-0.000063
1277	1.2696e+02	-10.7965	-16.688213	0.000147	1.467597	0.497235	-0.000059
1278	1.2706e+02	-10.8414	-16.752981	0.000162	1.620472	0.549031	-0.000065
1279	1.2716e+02	-10.9120	-16.816934	0.000160	1.600089	0.542125	-0.000064
1280	1.2726e+02	-10.9393	-16.873554	0.000142	1.416639	0.479970	-0.000057
1281	1.2736e+02	-10.9874	-16.937100	0.000159	1.589897	0.538672	-0.000064
1282	1.2746e+02	-11.0115	-16.998201	0.000153	1.528747	0.517954	-0.000061
1283	1.2756e+02	-11.0644	-17.060524	0.000156	1.559322	0.528313	-0.000063
1284	1.2766e+02	-11.0997	-17.120811	0.000151	1.508364	0.511048	-0.000061
1285	1.2776e+02	-11.1302	-17.183949	0.000158	1.579706	0.535219	-0.000063
1286	1.2786e+02	-11.1863	-17.250753	0.000167	1.671430	0.566296	-0.000067
1287	1.2796e+02	-11.1767	-17.308596	-0.000145	-1.447214	-0.490329	-0.000058
1288	1.2806e+02	-11.2200	-17.372141	0.000159	1.589897	0.538672	-0.000064
1289	1.2816e+02	-11.2697	-17.436094	0.000160	1.600089	0.542125	-0.000064
1290	1.2826e+02	-11.3002	-17.498825	0.000157	1.569514	0.531766	-0.000063
1291	1.2835e+02	-11.3516	-17.559519	0.000152	1.518556	0.514501	-0.000061
1292	1.2845e+02	-11.4125	-17.617769	0.000146	1.457406	0.493782	-0.000059
1293	1.2855e+02	-11.4350	-17.675612	0.000145	1.447214	0.490329	-0.000058
1294	1.2865e+02	-11.4847	-17.735491	0.000150	1.498172	0.507595	-0.000060
1295	1.2875e+02	-11.5521	-17.798222	0.000157	1.569514	0.531766	-0.000063
1296	1.2885e+02	-11.5713	-17.856879	0.000147	1.467597	0.497235	-0.000059
1297	1.2895e+02	-11.6130	-17.914314	0.000144	1.437022	0.486876	-0.000058
1298	1.2905e+02	-11.6531	-17.973786	0.000149	1.487981	0.504142	-0.000060
1299	1.2915e+02	-11.6836	-18.036110	0.000156	1.559322	0.528313	-0.000063
1300	1.2925e+02	-11.7382	-18.096397	0.000151	1.508364	0.511048	-0.000061
1301	1.2935e+02	-11.7767	-18.153017	0.000142	1.416639	0.479970	-0.000057
1302	1.2945e+02	-11.8072	-18.215748	0.000157	1.569514	0.531766	-0.000063
1303	1.2955e+02	-11.8521	-18.280515	0.000162	1.620472	0.549031	-0.000065
1304	1.2965e+02	-11.8633	-18.337543	0.000143	1.426831	0.483423	-0.000057
1305	1.2975e+02	-11.9371	-18.401903	0.000161	1.610281	0.545578	-0.000065
1306	1.2985e+02	-11.9435	-18.468300	0.000166	1.661239	0.562843	-0.000067
1307	1.2995e+02	-12.0029	-18.529809	0.000154	1.538939	0.521407	-0.000062
1308	1.3005e+02	-12.0382	-18.588059	0.000146	1.457406	0.493782	-0.000059
1309	1.3015e+02	-12.0719	-18.642236	0.000136	1.355489	0.459252	-0.000054
1310	1.3025e+02	-12.1264	-18.705374	0.000158	1.579706	0.535219	-0.000063
1311	1.3034e+02	-12.1874	-18.766882	0.000154	1.538939	0.521407	-0.000062
1312	1.3044e+02	-12.2178	-18.821059	0.000136	1.355489	0.459252	-0.000054
1313	1.3054e+02	-12.2435	-18.883790	0.000157	1.569514	0.531766	-0.000063
1314	1.3064e+02	-12.2740	-18.945706	0.000155	1.549131	0.524860	-0.000062
1315	1.3074e+02	-12.3333	-19.003548	0.000145	1.447214	0.490329	-0.000058
1316	1.3084e+02	-12.3654	-19.063835	0.000151	1.508364	0.511048	-0.000061
1317	1.3094e+02	-12.4055	-19.123714	0.000150	1.498172	0.507595	-0.000060
1318	1.3104e+02	-12.4408	-19.176669	0.000132	1.324914	0.448893	-0.000053
1319	1.3114e+02	-12.4906	-19.243473	0.000167	1.671430	0.566296	-0.000067
1320	1.3124e+02	-12.5162	-19.302945	0.000149	1.487981	0.504142	-0.000060
1321	1.3134e+02	-12.5419	-19.357122	0.000136	1.355489	0.459252	-0.000054
1322	1.3144e+02	-12.6093	-19.418630	0.000154	1.538939	0.521407	-0.000062
1323	1.3154e+02	-12.6349	-19.474436	0.000140	1.396256	0.473064	-0.000056
1324	1.3164e+02	-12.6799	-19.545314	0.000177	1.773347	0.600826	-0.000071
1325	1.3174e+02	-12.7184	-19.599898	0.000137	1.365681	0.462705	-0.000055
1326	1.3184e+02	-12.7376	-19.654889	0.000138	1.375873	0.466158	-0.000055
1327	1.3194e+02	-12.7986	-19.709473	0.000137	1.365681	0.462705	-0.000055
1328	1.3204e+02	-12.8339	-19.768130	0.000147	1.467597	0.497235	-0.000059
1329	1.3214e+02	-12.8547	-19.819456	0.000128	1.284148	0.435081	-0.000052
1330	1.3224e+02	-12.9221	-19.874447	0.000138	1.375873	0.466158	-0.000055
1331	1.3234e+02	-12.9798	-19.926587	0.000130	1.304531	0.441987	-0.000052
1332	1.3243e+02	-13.0071	-19.988095	0.000154	1.538939	0.521407	-0.000062
1333	1.3253e+02	-13.0472	-20.036162	0.000120	1.202615	0.407457	-0.000048
1334	1.3263e+02	-13.0905	-20.098485	0.000156	1.559322	0.528313	-0.000063
1335	1.3273e+02	-13.1098	-20.154698	0.000141	1.406448	0.476517	-0.000056
1336	1.3283e+02	-13.1547	-20.210504	0.000140	1.396256	0.473064	-0.000056
1337	1.3293e+02	-13.2141	-20.269569	0.000148	1.477789	0.500688	-0.000059
1338	1.3303e+02	-13.2526	-20.327412	0.000145	1.447214	0.490329	-0.000058
1339	1.3313e+02	-13.2766	-20.384440	0.000143	1.426831	0.483423	-0.000057
1340	1.3323e+02	-13.2975	-20.438209	0.000135	1.345298	0.455799	-0.000054
1341	1.3333e+02	-13.3456	-20.498088	0.000150	1.498172	0.507595	-0.000060
1342	1.3343e+02	-13.3921	-20.562041	0.000160	1.600089	0.542125	-0.000064
1343	1.3353e+02	-13.4290	-20.621513	0.000149	1.487981	0.504142	-0.000060
1344	1.3363e+02	-13.4707	-20.672023	0.000126	1.263764	0.428175	-0.000051
1345	1.3373e+02	-13.5141	-20.723756	0.000129	1.294339	0.438534	-0.000052
1346	1.3383e+02	-13.5750	-20.780784	0.000143	1.426831	0.483423	-0.000057
1347	1.3393e+02	-13.6039	-20.841478	0.000152	1.518556	0.514501	-0.000061
1348	1.3403e+02	-13.6328	-20.890359	0.000122	1.222998	0.414363	-0.000049
1349	1.3413e+02	-13.6697	-20.950646	0.000151	1.508364	0.511048	-0.000061
1350	1.3423e+02	-13.7066	-21.000342	0.000124	1.243381	0.421269	-0.000050
1351	1.3432e+02	-13.7467	-21.058999	0.000147	1.467597	0.497235	-0.000059
1352	1.3442e+02	-13.8205	-21.113990	0.000138	1.375873	0.466158	-0.000055
1353	1.3452e+02	-13.8445	-21.165315	0.000128	1.284148	0.435081	-0.000052
1354	1.3462e+02	-13.8862	-21.220714	0.000139	1.386064	0.469611	-0.000056
1355	1.3472e+02	-13.9135	-21.276927	0.000141	1.406448	0.476517	-0.000056
1356	1.3482e+02	-13.9328	-21.327438	0.000126	1.263764	0.428175	-0.000051
1357	1.3492e+02	-13.9873	-21.383244	0.000140	1.396256	0.473064	-0.000056
1358	1.3502e+02	-14.0242	-21.437013	0.000135	1.345298	0.455799	-0.000054
1359	1.3512e+02	-14.0659	-21.500966	0.000160	1.600089	0.542125	-0.000064
1360	1.3522e+02	-14.0900	-21.562067	0.000153	1.528747	0.517954	-0.000061
1361	1.3532e+02	-14.1349	-21.613392	0.000128	1.284148	0.435081	-0.000052
1362	1.3542e+02	-14.1926	-21.665532	0.000130	1.304531	0.441987	-0.000052
1363	1.3552e+02	-14.2408	-21.712376	0.000117	1.172040	0.397098	-0.000047
1364	1.3562e+02	-14.2616	-21.766146	0.000135	1.345298	0.455799	-0.000054
1365	1.3572e+02	-14.3178	-21.820729	0.000137	1.365681	0.462705	-0.000055
1366	1.3582e+02	-14.3675	-21.865944	0.000113	1.131273	0.383286	-0.000045
1367	1.3592e+02	-14.3819	-21.921343	0.000139	1.386064	0.469611	-0.000056
1368	1.3602e+02	-14.4333	-21.975112	0.000135	1.345298	0.455799	-0.000054
1369	1.3612e+02	-14.4894	-22.026437	0.000128	1.284148	0.435081	-0.000052
1370	1.3622e+02	-14.5151	-22.081021	0.000137	1.365681	0.462705	-0.000055
1371	1.3631e+02	-14.5504	-22.131532	0.000126	1.263764	0.428175	-0.000051
1372	1.3641e+02	-14.5825	-22.187745	0.000141	1.406448	0.476517	-0.000056
1373	1.3651e+02	-14.6515	-22.237848	0.000125	1.253573	0.424722	-0.000050
1374	1.3661e+02	-14.6627	-22.293247	0.000139	1.386064	0.469611	-0.000056
1375	1.3671e+02	-14.6755	-22.352311	0.000148	1.477789	0.500688	-0.000059
1376	1.3681e+02	-14.7429	-22.419116	0.000167	1.671430	0.566296	-0.000067
1377	1.3691e+02	-14.7830	-22.475329	0.000141	1.406448	0.476517	-0.000056
1378	1.3701e+02	-14.8023	-22.535208	0.000150	1.498172	0.507595	-0.000060
1379	1.3711e+02	-14.8793	-22.588163	0.000132	1.324914	0.448893	-0.000053
1380	1.3721e+02	-14.9097	-22.638673	0.000126	1.263764	0.428175	-0.000051
1381	1.3731e+02	-14.9434	-22.694887	0.000141	1.406448	0.476517	-0.000056
1382	1.3741e+02	-14.9996	-22.748656	0.000135	1.345298	0.455799	-0.000054
1383	1.3751e+02	-15.0365	-22.804462	0.000140	1.396256	0.473064	-0.000056
1384	1.3761e+02	-15.0702	-22.850084	0.000114	1.141465	0.386739	-0.000046
1385	1.3771e+02	-15.1151	-22.907519	0.000144	1.437022	0.486876	-0.000058
1386	1.3781e+02	-15.1488	-22.958030	0.000126	1.263764	0.428175	-0.000051
1387	1.3791e+02	-15.2017	-23.014243	0.000141	1.406448	0.476517	-0.000056
1388	1.3801e+02	-15.2514	-23.065568	0.000128	1.284148	0.435081	-0.000052
1389	1.3811e+02	-15.2739	-23.113635	0.000120	1.202615	0.407457	-0.000048
1390	1.3821e+02	-15.3204	-23.170255	0.000142	1.416639	0.479970	-0.000057
1391	1.3831e+02	-15.3413	-23.230542	0.000151	1.508364	0.511048	-0.000061
1392	1.3840e+02	-15.3669	-23.283904	0.000134	1.335106	0.452346	-0.000054
1393	1.3850e+02	-15.4119	-23.345005	0.000153	1.528747	0.517954	-0.000061
1394	1.3860e+02	-15.4680	-23.399182	0.000136	1.355489	0.459252	-0.000054
1395	1.3870e+02	-15.4921	-23.458654	0.000149	1.487981	0.504142	-0.000060
1396	1.3880e+02	-15.5370	-23.519348	0.000152	1.518556	0.514501	-0.000061
1397	1.3890e+02	-15.6172	-23.568636	0.000123	1.233189	0.417816	-0.000050
1398	1.3900e+02	-15.6252	-23.620776	0.000130	1.304531	0.441987	-0.000052
1399	1.3910e+02	-15.6718	-23.677804	0.000143	1.426831	0.483423	-0.000057
1400	1.3920e+02	-15.6878	-23.725056	0.000118	1.182231	0.400551	-0.000047
1401	1.3930e+02	-15.7455	-23.779232	0.000136	1.355489	0.459252	-0.000054
1402	1.3940e+02	-15.7840	-23.835446	0.000141	1.406448	0.476517	-0.000056
1403	1.3950e+02	-15.8338	-23.890030	0.000137	1.365681	0.462705	-0.000055
1404	1.3960e+02	-15.8819	-23.941355	0.000128	1.284148	0.435081	-0.000052
1405	1.3970e+02	-15.9316	-24.003271	0.000155	1.549131	0.524860	-0.000062
1406	1.3980e+02	-15.9637	-24.054189	0.000127	1.273956	0.431628	-0.000051
1407	1.3990e+02	-16.0022	-24.112439	0.000146	1.457406	0.493782	-0.000059
1408	1.4000e+02	-16.0439	-24.172725	0.000151	1.508364	0.511048	-0.000061
1409	1.4010e+02	-16.0856	-24.230975	0.000146	1.457406	0.493782	-0.000059
1410	1.4020e+02	-16.1001	-24.283930	0.000132	1.324914	0.448893	-0.000053
1411	1.4029e+02	-16.1177	-24.344624	0.000152	1.518556	0.514501	-0.000061
1412	1.4039e+02	-16.1867	-24.406947	0.000156	1.559322	0.528313	-0.000063
1413	1.4049e+02	-16.2124	-24.467234	0.000151	1.508364	0.511048	-0.000061
1414	1.4059e+02	-16.2509	-24.534446	0.000168	1.681622	0.569749	-0.000068
1415	1.4069e+02	-16.2894	-24.589029	0.000137	1.365681	0.462705	-0.000055
1416	1.4079e+02	-16.3391	-24.643613	0.000137	1.365681	0.462705	-0.000055
1417	1.4089e+02	-16.3776	-24.699419	0.000140	1.396256	0.473064	-0.000056
1418	1.4099e+02	-16.4514	-24.756855	0.000144	1.437022	0.486876	-0.000058
1419	1.4109e+02	-16.4931	-24.813068	0.000141	1.406448	0.476517	-0.000056
1420	1.4119e+02	-16.5300	-24.868466	0.000139	1.386064	0.469611	-0.000056
1421	1.4129e+02	-16.5525	-24.921421	0.000132	1.324914	0.448893	-0.000053
1422	1.4139e+02	-16.5926	-24.982930	0.000154	1.538939	0.521407	-0.000062
1423	1.4149e+02	-16.6407	-25.033440	0.000126	1.263764	0.428175	-0.000051
1424	1.4159e+02	-16.6920	-25.096171	0.000157	1.569514	0.531766	-0.000063
1425	1.4169e+02	-16.7225	-25.153606	0.000144	1.437022	0.486876	-0.000058
1426	1.4179e+02	-16.7578	-25.209412	0.000140	1.396256	0.473064	-0.000056
1427	1.4189e+02	-16.7803	-25.269699	0.000151	1.508364	0.511048	-0.000061
1428	1.4199e+02	-16.7883	-25.325097	0.000139	1.386064	0.469611	-0.000056
1429	1.4209e+02	-16.8557	-25.390680	0.000164	1.640855	0.555937	-0.000066
1430	1.4219e+02	-16.9022	-25.452596	0.000155	1.549131	0.524860	-0.000062
1431	1.4228e+02	-16.9391	-25.515734	0.000158	1.579706	0.535219	-0.000063
1432	1.4238e+02	-16.9744	-25.575206	0.000149	1.487981	0.504142	-0.000060
1433	1.4248e+02	-17.0113	-25.638751	0.000159	1.589897	0.538672	-0.000064
1434	1.4258e+02	-17.0626	-25.693335	0.000137	1.365681	0.462705	-0.000055
1435	1.4268e+02	-17.0947	-25.749141	0.000140	1.396256	0.473064	-0.000056
1436	1.4278e+02	-17.1621	-25.808613	0.000149	1.487981	0.504142	-0.000060
1437	1.4288e+02	-17.1974	-25.863604	0.000138	1.375873	0.466158	-0.000055
1438	1.4298e+02	-17.2327	-25.923484	0.000150	1.498172	0.507595	-0.000060
1439	1.4308e+02	-17.2728	-25.985807	0.000156	1.559322	0.528313	-0.000063
1440	1.4318e+02	-17.3065	-26.048538	0.000157	1.569514	0.531766	-0.000063
1441	1.4328e+02	-17.3466	-26.106788	0.000146	1.457406	0.493782	-0.000059
1442	1.4338e+02	-17.3979	-26.166667	0.000150	1.498172	0.507595	-0.000060
1443	1.4348e+02	-17.4236	-26.224102	0.000144	1.437022	0.486876	-0.000058
1444	1.4358e+02	-17.4701	-26.291314	0.000168	1.681622	0.569749	-0.000068
1445	1.4368e+02	-17.4958	-26.349157	0.000145	1.447214	0.490329	-0.000058
1446	1.4378e+02	-17.5086	-26.415146	0.000165	1.651047	0.559390	-0.000066
1447	1.4388e+02	-17.5439	-26.476655	0.000154	1.538939	0.521407	-0.000062
1448	1.4398e+02	-17.6032	-26.539793	0.000158	1.579706	0.535219	-0.000063
1449	1.4408e+02	-17.6562	-26.608226	0.000171	1.712197	0.580108	-0.000069
1450	1.4418e+02	-17.6931	-26.670957	0.000157	1.569514	0.531766	-0.000063
1451	1.4428e+02	-17.7348	-26.738983	0.000170	1.702005	0.576655	-0.000068
1452	1.4437e+02	-17.7958	-26.807417	0.000171	1.712197	0.580108	-0.000069
1453	1.4447e+02	-17.8246	-26.866889	0.000149	1.487981	0.504142	-0.000060
1454	1.4457e+02	-17.8615	-26.923510	0.000142	1.416639	0.479970	-0.000057
1455	1.4467e+02	-17.9032	-26.985833	0.000156	1.559322	0.528313	-0.000063
1456	1.4477e+02	-17.9530	-27.037973	0.000130	1.304531	0.441987	-0.000052
1457	1.4487e+02	-17.9738	-27.099482	0.000154	1.538939	0.521407	-0.000062
1458	1.4497e+02	-18.0364	-27.159361	0.000150	1.498172	0.507595	-0.000060
1459	1.4507e+02	-18.0717	-27.215982	0.000142	1.416639	0.479970	-0.000057
1460	1.4517e+02	-18.1038	-27.278712	0.000157	1.569514	0.531766	-0.000063
1461	1.4527e+02	-18.1455	-27.339814	0.000153	1.528747	0.517954	-0.000061
1462	1.4537e+02	-18.1535	-27.404581	0.000162	1.620472	0.549031	-0.000065
1463	1.4547e+02	-18.1984	-27.462424	0.000145	1.447214	0.490329	-0.000058
1464	1.4557e+02	-18.2530	-27.531265	0.000172	1.722389	0.583561	-0.000069
1465	1.4567e+02	-18.2802	-27.594810	0.000159	1.589897	0.538672	-0.000064
1466	1.4577e+02	-18.3235	-27.660392	0.000164	1.640855	0.555937	-0.000066
1467	1.4587e+02	-18.3845	-27.720272	0.000150	1.498172	0.507595	-0.000060
1468	1.4597e+02	-18.3909	-27.790335	0.000175	1.752964	0.593920	-0.000070
1469	1.4607e+02	-18.4503	-27.859990	0.000174	1.742772	0.590467	-0.000070
1470	1.4617e+02	-18.4840	-27.922314	0.000156	1.559322	0.528313	-0.000063
1471	1.4626e+02	-18.5401	-27.979749	0.000144	1.437022	0.486876	-0.000058
1472	1.4636e+02	-18.5626	-28.044516	0.000162	1.620472	0.549031	-0.000065
1473	1.4646e+02	-18.6300	-28.106025	0.000154	1.538939	0.521407	-0.000062
1474	1.4656e+02	-18.6556	-28.168756	0.000157	1.569514	0.531766	-0.000063
1475	1.4666e+02	-18.7214	-28.230265	0.000154	1.538939	0.521407	-0.000062
1476	1.4676e+02	-18.7535	-28.295439	0.000163	1.630664	0.552484	-0.000066
1477	1.4686e+02	-18.7872	-28.361836	0.000166	1.661239	0.562843	-0.000067
1478	1.4696e+02	-18.8144	-28.426196	0.000161	1.610281	0.545578	-0.000065
1479	1.4706e+02	-18.8513	-28.498703	0.000181	1.814113	0.614638	-0.000073
1480	1.4716e+02	-18.9011	-28.563878	0.000163	1.630664	0.552484	-0.000066
1481	1.4726e+02	-18.9235	-28.625387	0.000154	1.538939	0.521407	-0.000062
1482	1.4736e+02	-18.9717	-28.701967	0.000192	1.916030	0.649169	-0.000077
1483	1.4746e+02	-19.0198	-28.771623	0.000174	1.742772	0.590467	-0.000070
1484	1.4756e+02	-19.0679	-28.843315	0.000179	1.793730	0.607732	-0.000072
1485	1.4766e+02	-19.0840	-28.913785	0.000176	1.763155	0.597373	-0.000071
1486	1.4776e+02	-19.1369	-28.985070	0.000178	1.783539	0.604279	-0.000072
1487	1.4786e+02	-19.1946	-29.056355	0.000178	1.783539	0.604279	-0.000072
1488	1.4796e+02	-19.2203	-29.118679	0.000156	1.559322	0.528313	-0.000063
1489	1.4806e+02	-19.2556	-29.185075	0.000166	1.661239	0.562843	-0.000067
1490	1.4816e+02	-19.2941	-29.252694	0.000169	1.691814	0.573202	-0.000068
1491	1.4825e+02	-19.3422	-29.316647	0.000160	1.600089	0.542125	-0.000064
1492	1.4835e+02	-19.3727	-29.380193	0.000159	1.589897	0.538672	-0.000064
1493	1.4845e+02	-19.4257	-29.455958	0.000190	1.895647	0.642262	-0.000076
1494	1.4855e+02	-19.4513	-29.521540	0.000164	1.640855	0.555937	-0.000066
1495	1.4865e+02	-19.4674	-29.591196	0.000174	1.742772	0.590467	-0.000070
1496	1.4875e+02	-19.5444	-29.658815	0.000169	1.691814	0.573202	-0.000068
1497	1.4885e+02	-19.5732	-29.732137	0.000183	1.834497	0.621544	-0.000074
1498	1.4895e+02	-19.6037	-29.804236	0.000180	1.803922	0.611185	-0.000072
1499	1.4905e+02	-19.6246	-29.880817	0.000192	1.916030	0.649169	-0.000077
1500	1.4915e+02	-19.6743	-29.954953	0.000185	1.854880	0.628450	-0.000075
1501	1.4925e+02	-19.7289	-30.030719	0.000190	1.895647	0.642262	-0.000076
1502	1.4935e+02	-19.7722	-30.107299	0.000192	1.916030	0.649169	-0.000077
1503	1.4945e+02	-19.8267	-30.185916	0.000197	1.966988	0.666434	-0.000079
1504	1.4955e+02	-19.8476	-30.255164	0.000173	1.732580	0.587014	-0.000070
1505	1.4965e+02	-19.8909	-30.313414	0.000146	1.457406	0.493782	-0.000059
1506	1.4975e+02	-19.9438	-30.389587	0.000191	1.905838	0.645716	-0.000077
1507	1.4985e+02	-19.9727	-30.453133	0.000159	1.589897	0.538672	-0.000064
1508	1.4995e+02	-19.9117	-30.429100	0.000060	0.601307	0.203728	0.000024
1509	1.5005e+02	-19.9101	-30.394068	0.000088	0.876482	0.296960	0.000035
1510	1.5015e+02	-19.8556	-30.362703	0.000078	0.784757	0.265883	0.000032
1511	1.5025e+02	-19.8107	-30.330930	0.000079	0.794949	0.269336	0.000032
1512	1.5034e+02	-19.7690	-30.302823	0.000070	0.703224	0.238259	0.000028
1513	1.5044e+02	-19.7256	-30.272680	0.000075	0.754182	0.255524	0.000030
1514	1.5054e+02	-19.6936	-30.240500	0.000081	0.805140	0.272789	0.000032
1515	1.5064e+02	-19.6230	-30.209135	0.000078	0.784757	0.265883	0.000032
1516	1.5074e+02	-19.5925	-30.176547	0.000082	0.815332	0.276242	0.000033
1517	1.5084e+02	-19.5797	-30.149663	0.000067	0.672649	0.227900	0.000027
1518	1.5094e+02	-19.5187	-30.115853	0.000085	0.845907	0.286601	0.000034
1519	1.5104e+02	-19.4946	-30.082858	0.000083	0.825524	0.279695	0.000033
1520	1.5114e+02	-19.4369	-30.044976	0.000095	0.947823	0.321131	0.000038
1521	1.5124e+02	-19.3968	-30.017276	0.000069	0.693032	0.234806	0.000028
1522	1.5134e+02	-19.3743	-29.974505	0.000107	1.070123	0.362568	0.000043
1523	1.5144e+02	-19.3214	-29.931327	0.000108	1.080315	0.366021	0.000043
1524	1.5154e+02	-19.2877	-29.886519	0.000112	1.121081	0.379833	0.000045
1525	1.5164e+02	-19.2556	-29.842934	0.000109	1.090506	0.369474	0.000044
1526	1.5174e+02	-19.2171	-29.804643	0.000096	0.958015	0.324584	0.000038
1527	1.5184e+02	-19.1658	-29.758614	0.000115	1.151656	0.390192	0.000046
1528	1.5194e+02	-19.1465	-29.717065	0.000104	1.039548	0.352208	0.000042
1529	1.5204e+02	-19.1241	-29.672257	0.000112	1.121081	0.379833	0.000045
1530	1.5214e+02	-19.0503	-29.633967	0.000096	0.958015	0.324584	0.000038
1531	1.5224e+02	-18.9925	-29.587123	0.000117	1.172040	0.397098	0.000047
1532	1.5233e+02	-18.9620	-29.554128	0.000083	0.825524	0.279695	0.000033
1533	1.5243e+02	-18.9155	-29.512172	0.000105	1.049740	0.355661	0.000042
1534	1.5253e+02	-18.8626	-29.475511	0.000092	0.917248	0.310772	0.000037
1535	1.5263e+02	-18.8578	-29.430296	0.000113	1.131273	0.383286	0.000045
1536	1.5273e+02	-18.8096	-29.393228	0.000093	0.927440	0.314225	0.000037
1537	1.5283e+02	-18.7840	-29.349235	0.000110	1.100698	0.372927	0.000044
1538	1.5293e+02	-18.7198	-29.304834	0.000111	1.110890	0.376380	0.000045
1539	1.5303e+02	-18.6829	-29.267359	0.000094	0.937632	0.317678	0.000038
1540	1.5313e+02	-18.6556	-29.225402	0.000105	1.049740	0.355661	0.000042
1541	1.5323e+02	-18.6235	-29.175299	0.000125	1.253573	0.424722	0.000050
1542	1.5333e+02	-18.5770	-29.131306	0.000110	1.100698	0.372927	0.000044
1543	1.5343e+02	-18.5433	-29.087721	0.000109	1.090506	0.369474	0.000044
1544	1.5353e+02	-18.5128	-29.039654	0.000120	1.202615	0.407457	0.000048
1545	1.5363e+02	-18.4583	-28.994846	0.000112	1.121081	0.379833	0.000045
1546	1.5373e+02	-18.4262	-28.950039	0.000112	1.121081	0.379833	0.000045
1547	1.5383e+02	-18.3877	-28.902787	0.000118	1.182231	0.400551	0.000047
1548	1.5393e+02	-18.3187	-28.862460	0.000101	1.008973	0.341849	0.000041
1549	1.5403e+02	-18.3075	-28.822133	0.000101	1.008973	0.341849	0.000041
1550	1.5413e+02	-18.2530	-28.777326	0.000112	1.121081	0.379833	0.000045
1551	1.5422e+02	-18.2096	-28.737406	0.000100	0.998782	0.338396	0.000040
1552	1.5432e+02	-18.1711	-28.697894	0.000099	0.988590	0.334943	0.000040
1553	1.5442e+02	-18.1310	-28.654308	0.000109	1.090506	0.369474	0.000044
1554	1.5452e+02	-18.0893	-28.605020	0.000123	1.233189	0.417816	0.000050
1555	1.5462e+02	-18.0524	-28.563063	0.000105	1.049740	0.355661	0.000042
1556	1.5472e+02	-18.0236	-28.522736	0.000101	1.008973	0.341849	0.000041
1557	1.5482e+02	-17.9963	-28.479151	0.000109	1.090506	0.369474	0.000044
1558	1.5492e+02	-17.9498	-28.430677	0.000121	1.212806	0.410910	0.000049
1559	1.5502e+02	-17.8936	-28.382611	0.000120	1.202615	0.407457	0.000048
1560	1.5512e+02	-17.8599	-28.331285	0.000128	1.284148	0.435081	0.000052
1561	1.5522e+02	-17.8343	-28.287292	0.000110	1.100698	0.372927	0.000044
1562	1.5532e+02	-17.7925	-28.235967	0.000128	1.284148	0.435081	0.000052
1563	1.5542e+02	-17.7428	-28.182605	0.000134	1.335106	0.452346	0.000054
1564	1.5552e+02	-17.6995	-28.132502	0.000125	1.253573	0.424722	0.000050
1565	1.5562e+02	-17.6369	-28.090953	0.000104	1.039548	0.352208	0.000042
1566	1.5572e+02	-17.5888	-28.044924	0.000115	1.151656	0.390192	0.000046
1567	1.5582e+02	-17.5968	-28.000523	-0.000111	-1.110890	-0.376380	0.000045
1568	1.5592e+02	-17.5487	-27.953679	0.000117	1.172040	0.397098	0.000047
1569	1.5602e+02	-17.4829	-27.910093	0.000109	1.090506	0.369474	0.000044
1570	1.5612e+02	-17.4492	-27.862027	0.000120	1.202615	0.407457	0.000048
1571	1.5622e+02	-17.3963	-27.819256	0.000107	1.070123	0.362568	0.000043
1572	1.5631e+02	-17.3787	-27.773634	0.000114	1.141465	0.386739	0.000046
1573	1.5641e+02	-17.3450	-27.728826	0.000112	1.121081	0.379833	0.000045
1574	1.5651e+02	-17.3177	-27.687277	0.000104	1.039548	0.352208	0.000042
1575	1.5661e+02	-17.2712	-27.638396	0.000122	1.222998	0.414363	0.000049
1576	1.5671e+02	-17.2246	-27.595625	0.000107	1.070123	0.362568	0.000043
1577	1.5681e+02	-17.1990	-27.555298	0.000101	1.008973	0.341849	0.000041
1578	1.5691e+02	-17.1557	-27.507231	0.000120	1.202615	0.407457	0.000048
1579	1.5701e+02	-17.1107	-27.454684	0.000131	1.314723	0.445440	0.000053
1580	1.5711e+02	-17.0771	-27.406211	0.000121	1.212806	0.410910	0.000049
1581	1.5721e+02	-17.0402	-27.358959	0.000118	1.182231	0.400551	0.000047
1582	1.5731e+02	-16.9519	-27.311300	0.000119	1.192423	0.404004	0.000048
1583	1.5741e+02	-16.9247	-27.269343	0.000105	1.049740	0.355661	0.000042
1584	1.5751e+02	-16.8813	-27.223314	0.000115	1.151656	0.390192	0.000046
1585	1.5761e+02	-16.8396	-27.175247	0.000120	1.202615	0.407457	0.000048
1586	1.5771e+02	-16.8204	-27.127996	0.000118	1.182231	0.400551	0.000047
1587	1.5781e+02	-16.7819	-27.090113	0.000095	0.947823	0.321131	0.000038
1588	1.5791e+02	-16.7305	-27.049786	0.000101	1.008973	0.341849	0.000041
1589	1.5801e+02	-16.6936	-26.999683	0.000125	1.253573	0.424722	0.000050
1590	1.5811e+02	-16.6648	-26.953653	0.000115	1.151656	0.390192	0.000046
1591	1.5821e+02	-16.6327	-26.907623	0.000115	1.151656	0.390192	0.000046
1592	1.5830e+02	-16.5894	-26.860779	0.000117	1.172040	0.397098	0.000047
1593	1.5840e+02	-16.5428	-26.817601	0.000108	1.080315	0.366021	0.000043
1594	1.5850e+02	-16.5188	-26.769534	0.000120	1.202615	0.407457	0.000048
1595	1.5860e+02	-16.4610	-26.724319	0.000113	1.131273	0.383286	0.000045
1596	1.5870e+02	-16.4418	-26.676253	0.000120	1.202615	0.407457	0.000048
1597	1.5880e+02	-16.3840	-26.626964	0.000123	1.233189	0.417816	0.000050
1598	1.5890e+02	-16.3455	-26.578083	0.000122	1.222998	0.414363	0.000049
1599	1.5900e+02	-16.3070	-26.528387	0.000124	1.243381	0.421269	0.000050
1600	1.5910e+02	-16.2156	-26.482765	0.000114	1.141465	0.386739	0.000046
1601	1.5920e+02	-16.2252	-26.434699	-0.000120	-1.202615	-0.407457	0.000048
1602	1.5930e+02	-16.1963	-26.391113	0.000109	1.090506	0.369474	0.000044
1603	1.5940e+02	-16.1514	-26.350786	0.000101	1.008973	0.341849	0.000041
1604	1.5950e+02	-16.1257	-26.305978	0.000112	1.121081	0.379833	0.000045
1605	1.5960e+02	-16.0985	-26.262800	0.000108	1.080315	0.366021	0.000043
1606	1.5970e+02	-16.0263	-26.220436	0.000106	1.059931	0.359115	0.000043
1607	1.5980e+02	-15.9942	-26.177665	0.000107	1.070123	0.362568	0.000043
1608	1.5990e+02	-15.9461	-26.131636	0.000115	1.151656	0.390192	0.000046
1609	1.6000e+02	-15.9236	-26.088050	0.000109	1.090506	0.369474	0.000044
1610	1.6010e+02	-15.8883	-26.048945	0.000098	0.978398	0.331490	0.000039
1611	1.6019e+02	-15.8354	-26.002508	0.000116	1.161848	0.393645	0.000047
1612	1.6029e+02	-15.7953	-25.954849	0.000119	1.192423	0.404004	0.000048
1613	1.6039e+02	-15.7600	-25.911263	0.000109	1.090506	0.369474	0.000044
1614	1.6049e+02	-15.7135	-25.864826	0.000116	1.161848	0.393645	0.000047
1615	1.6059e+02	-15.6734	-25.809835	0.000138	1.375873	0.466158	0.000055
1616	1.6069e+02	-15.6252	-25.763398	0.000116	1.161848	0.393645	0.000047
1617	1.6079e+02	-15.5819	-25.716146	0.000118	1.182231	0.400551	0.000047
1618	1.6089e+02	-15.5402	-25.669302	0.000117	1.172040	0.397098	0.000047
1619	1.6099e+02	-15.4792	-25.627346	0.000105	1.049740	0.355661	0.000042
1620	1.6109e+02	-15.4504	-25.584167	0.000108	1.080315	0.366021	0.000043
1621	1.6119e+02	-15.4359	-25.537730	0.000116	1.161848	0.393645	0.000047
1622	1.6129e+02	-15.3814	-25.494959	0.000107	1.070123	0.362568	0.000043
1623	1.6139e+02	-15.3445	-25.452188	0.000107	1.070123	0.362568	0.000043
1624	1.6149e+02	-15.3124	-25.401270	0.000127	1.273956	0.431628	0.000051
1625	1.6159e+02	-15.2546	-25.358907	0.000106	1.059931	0.359115	0.000043
1626	1.6169e+02	-15.2306	-25.311248	0.000119	1.192423	0.404004	0.000048
1627	1.6179e+02	-15.1969	-25.270514	0.000102	1.019165	0.345302	0.000041
1628	1.6189e+02	-15.1568	-25.213078	0.000144	1.437022	0.486876	0.000058
1629	1.6199e+02	-15.1022	-25.169900	0.000108	1.080315	0.366021	0.000043
1630	1.6209e+02	-15.0910	-25.120204	0.000124	1.243381	0.421269	0.000050
1631	1.6219e+02	-15.0333	-25.070101	0.000125	1.253573	0.424722	0.000050
1632	1.6228e+02	-15.0012	-25.017146	0.000132	1.324914	0.448893	0.000053
1633	1.6238e+02	-14.9434	-24.964599	0.000131	1.314723	0.445440	0.000053
1634	1.6248e+02	-14.8969	-24.912459	0.000130	1.304531	0.441987	0.000052
1635	1.6258e+02	-14.8600	-24.859912	0.000131	1.314723	0.445440	0.000053
1636	1.6268e+02	-14.8199	-24.811846	0.000120	1.202615	0.407457	0.000048
1637	1.6278e+02	-14.8055	-24.768668	0.000108	1.080315	0.366021	0.000043
1638	1.6288e+02	-14.7349	-24.721823	0.000117	1.172040	0.397098	0.000047
1639	1.6298e+02	-14.6884	-24.677015	0.000112	1.121081	0.379833	0.000045
1640	1.6308e+02	-14.6723	-24.632208	0.000112	1.121081	0.379833	0.000045
1641	1.6318e+02	-14.6290	-24.578439	0.000135	1.345298	0.455799	0.000054
1642	1.6328e+02	-14.5921	-24.534853	0.000109	1.090506	0.369474	0.000044
1643	1.6338e+02	-14.5632	-24.482713	0.000130	1.304531	0.441987	0.000052
1644	1.6348e+02	-14.5151	-24.434647	0.000120	1.202615	0.407457	0.000048
1645	1.6358e+02	-14.4654	-24.384951	0.000124	1.243381	0.421269	0.000050
1646	1.6368e+02	-14.4445	-24.337292	0.000119	1.192423	0.404004	0.000048
1647	1.6378e+02	-14.4204	-24.285967	0.000128	1.284148	0.435081	0.000052
1648	1.6388e+02	-14.3675	-24.240344	0.000114	1.141465	0.386739	0.000046
1649	1.6398e+02	-14.2905	-24.190241	0.000125	1.253573	0.424722	0.000050
1650	1.6408e+02	-14.2745	-24.136879	0.000134	1.335106	0.452346	0.000054
1651	1.6418e+02	-14.2263	-24.087183	0.000124	1.243381	0.421269	0.000050
1652	1.6427e+02	-14.1959	-24.034636	0.000131	1.314723	0.445440	0.000053
1653	1.6437e+02	-14.1590	-23.987792	0.000117	1.172040	0.397098	0.000047
1654	1.6447e+02	-14.1269	-23.936874	0.000127	1.273956	0.431628	0.000051
1655	1.6457e+02	-14.0755	-23.883919	0.000132	1.324914	0.448893	0.000053
1656	1.6467e+02	-14.0338	-23.830558	0.000134	1.335106	0.452346	0.000054
1657	1.6477e+02	-14.0001	-23.784528	0.000115	1.151656	0.390192	0.000046
1658	1.6487e+02	-13.9793	-23.733610	0.000127	1.273956	0.431628	0.000051
1659	1.6497e+02	-13.9183	-23.676175	0.000144	1.437022	0.486876	0.000058
1660	1.6507e+02	-13.8846	-23.621184	0.000138	1.375873	0.466158	0.000055
1661	1.6517e+02	-13.8333	-23.563341	0.000145	1.447214	0.490329	0.000058
1662	1.6527e+02	-13.8124	-23.515682	0.000119	1.192423	0.404004	0.000048
1663	1.6537e+02	-13.7723	-23.464357	0.000128	1.284148	0.435081	0.000052
1664	1.6547e+02	-13.7210	-23.408551	0.000140	1.396256	0.473064	0.000056
1665	1.6557e+02	-13.6424	-23.357226	0.000128	1.284148	0.435081	0.000052
1666	1.6567e+02	-13.6344	-23.307530	0.000124	1.243381	0.421269	0.000050
1667	1.6577e+02	-13.5798	-23.255797	0.000129	1.294339	0.438534	0.000052
1668	1.6587e+02	-13.5606	-23.199991	0.000140	1.396256	0.473064	0.000056
1669	1.6597e+02	-13.5189	-23.143371	0.000142	1.416639	0.479970	0.000057
1670	1.6607e+02	-13.4274	-23.092453	0.000127	1.273956	0.431628	0.000051
1671	1.6616e+02	-13.4162	-23.035018	0.000144	1.437022	0.486876	0.000058
1672	1.6626e+02	-13.4050	-22.981656	0.000134	1.335106	0.452346	0.000054
1673	1.6636e+02	-13.3440	-22.926664	0.000138	1.375873	0.466158	0.000055
1674	1.6646e+02	-13.3087	-22.872081	0.000137	1.365681	0.462705	0.000055
1675	1.6656e+02	-13.2830	-22.820348	0.000129	1.294339	0.438534	0.000052
1676	1.6666e+02	-13.2173	-22.763320	0.000143	1.426831	0.483423	0.000057
1677	1.6676e+02	-13.2012	-22.707514	0.000140	1.396256	0.473064	0.000056
1678	1.6686e+02	-13.1740	-22.652523	0.000138	1.375873	0.466158	0.000055
1679	1.6696e+02	-13.1242	-22.599161	0.000134	1.335106	0.452346	0.000054
1680	1.6706e+02	-13.0745	-22.547021	0.000130	1.304531	0.441987	0.000052
1681	1.6716e+02	-13.0504	-22.487957	0.000148	1.477789	0.500688	0.000059
1682	1.6726e+02	-12.9927	-22.437039	0.000127	1.273956	0.431628	0.000051
1683	1.6736e+02	-12.9397	-22.382455	0.000137	1.365681	0.462705	0.000055
1684	1.6746e+02	-12.9077	-22.337647	0.000112	1.121081	0.379833	0.000045
1685	1.6756e+02	-12.8804	-22.279805	0.000145	1.447214	0.490329	0.000058
1686	1.6766e+02	-12.8339	-22.225221	0.000137	1.365681	0.462705	0.000055
1687	1.6776e+02	-12.7938	-22.167378	0.000145	1.447214	0.490329	0.000058
1688	1.6786e+02	-12.7553	-22.107499	0.000150	1.498172	0.507595	0.000060
1689	1.6796e+02	-12.7151	-22.052100	0.000139	1.386064	0.469611	0.000056
1690	1.6806e+02	-12.6943	-21.991813	0.000151	1.508364	0.511048	0.000061
1691	1.6816e+02	-12.6414	-21.936415	0.000139	1.386064	0.469611	0.000056
1692	1.6825e+02	-12.6029	-21.874091	0.000156	1.559322	0.528313	0.000063
1693	1.6835e+02	-12.5916	-21.817471	0.000142	1.416639	0.479970	0.000057
1694	1.6845e+02	-12.5275	-21.758813	0.000147	1.467597	0.497235	0.000059
1695	1.6855e+02	-12.4825	-21.696897	0.000155	1.549131	0.524860	0.000062
1696	1.6865e+02	-12.4424	-21.643943	0.000132	1.324914	0.448893	0.000053
1697	1.6875e+02	-12.4023	-21.584471	0.000149	1.487981	0.504142	0.000060
1698	1.6885e+02	-12.3799	-21.530702	0.000135	1.345298	0.455799	0.000054
1699	1.6895e+02	-12.3173	-21.469193	0.000154	1.538939	0.521407	0.000062
1700	1.6905e+02	-12.2788	-21.413794	0.000139	1.386064	0.469611	0.000056
1701	1.6915e+02	-12.2371	-21.362876	0.000127	1.273956	0.431628	0.000051
1702	1.6925e+02	-12.2002	-21.303812	0.000148	1.477789	0.500688	0.000059
1703	1.6935e+02	-12.1521	-21.253709	0.000125	1.253573	0.424722	0.000050
1704	1.6945e+02	-12.1055	-21.191793	0.000155	1.549131	0.524860	0.000062
1705	1.6955e+02	-12.0831	-21.129877	0.000155	1.549131	0.524860	0.000062
1706	1.6965e+02	-12.0430	-21.076107	0.000135	1.345298	0.455799	0.000054
1707	1.6975e+02	-12.0061	-21.011340	0.000162	1.620472	0.549031	0.000065
1708	1.6985e+02	-11.9948	-20.951868	0.000149	1.487981	0.504142	0.000060
1709	1.6995e+02	-11.9355	-20.892396	0.000149	1.487981	0.504142	0.000060
1710	1.7005e+02	-11.8970	-20.833738	0.000147	1.467597	0.497235	0.000059
1711	1.7015e+02	-11.8569	-20.781599	0.000130	1.304531	0.441987	0.000052
1712	1.7024e+02	-11.8104	-20.718053	0.000159	1.589897	0.538672	0.000064
1713	1.7034e+02	-11.7654	-20.664691	0.000134	1.335106	0.452346	0.000054
1714	1.7044e+02	-11.7253	-20.603590	0.000153	1.528747	0.517954	0.000061
1715	1.7054e+02	-11.6708	-20.551857	0.000129	1.294339	0.438534	0.000052
1716	1.7064e+02	-11.6243	-20.487497	0.000161	1.610281	0.545578	0.000065
1717	1.7074e+02	-11.5922	-20.440653	0.000117	1.172040	0.397098	0.000047
1718	1.7084e+02	-11.5505	-20.383218	0.000144	1.437022	0.486876	0.000058
1719	1.7094e+02	-11.5248	-20.330263	0.000132	1.324914	0.448893	0.000053
1720	1.7104e+02	-11.4655	-20.274457	0.000140	1.396256	0.473064	0.000056
1721	1.7114e+02	-11.4590	-20.218244	0.000141	1.406448	0.476517	0.000056
1722	1.7124e+02	-11.4157	-20.156328	0.000155	1.549131	0.524860	0.000062
1723	1.7134e+02	-11.3628	-20.096856	0.000149	1.487981	0.504142	0.000060
1724	1.7144e+02	-11.3403	-20.034125	0.000157	1.569514	0.531766	0.000063
1725	1.7154e+02	-11.2778	-19.973024	0.000153	1.528747	0.517954	0.000061
1726	1.7164e+02	-11.2697	-19.909478	0.000159	1.589897	0.538672	0.000064
1727	1.7174e+02	-11.2056	-19.854487	0.000138	1.375873	0.466158	0.000055
1728	1.7184e+02	-11.1911	-19.795422	0.000148	1.477789	0.500688	0.000059
1729	1.7194e+02	-11.1270	-19.731877	0.000159	1.589897	0.538672	0.000064
1730	1.7204e+02	-11.1013	-19.677293	0.000137	1.365681	0.462705	0.000055
1731	1.7213e+02	-11.0596	-19.613748	0.000159	1.589897	0.538672	0.000064
1732	1.7223e+02	-11.0147	-19.554276	0.000149	1.487981	0.504142	0.000060
1733	1.7233e+02	-10.9762	-19.495211	0.000148	1.477789	0.500688	0.000059
1734	1.7243e+02	-10.9056	-19.435739	0.000149	1.487981	0.504142	0.000060
1735	1.7253e+02	-10.9024	-19.379526	0.000141	1.406448	0.476517	0.000056
1736	1.7263e+02	-10.8029	-19.323312	0.000141	1.406448	0.476517	0.000056
1737	1.7273e+02	-10.8077	-19.271172	-0.000130	-1.304531	-0.441987	0.000052
1738	1.7283e+02	-10.7548	-19.218625	0.000131	1.314723	0.445440	0.000053
1739	1.7293e+02	-10.7211	-19.166893	0.000129	1.294339	0.438534	0.000052
1740	1.7303e+02	-10.6922	-19.100496	0.000166	1.661239	0.562843	0.000067
1741	1.7313e+02	-10.6345	-19.047134	0.000134	1.335106	0.452346	0.000054
1742	1.7323e+02	-10.6280	-18.983996	0.000158	1.579706	0.535219	0.000063
1743	1.7333e+02	-10.5960	-18.926968	0.000143	1.426831	0.483423	0.000057
1744	1.7343e+02	-10.5398	-18.866681	0.000151	1.508364	0.511048	0.000061
1745	1.7353e+02	-10.5013	-18.806802	0.000150	1.498172	0.507595	0.000060
1746	1.7363e+02	-10.4500	-18.752625	0.000136	1.355489	0.459252	0.000054
1747	1.7373e+02	-10.4355	-18.691524	0.000153	1.528747	0.517954	0.000061
1748	1.7383e+02	-10.3682	-18.634903	0.000142	1.416639	0.479970	0.000057
1749	1.7393e+02	-10.3457	-18.574209	0.000152	1.518556	0.514501	0.000061
1750	1.7403e+02	-10.2879	-18.520847	0.000134	1.335106	0.452346	0.000054
1751	1.7413e+02	-10.2382	-18.460968	0.000150	1.498172	0.507595	0.000060
1752	1.7422e+02	-10.1853	-18.404755	0.000141	1.406448	0.476517	0.000056
1753	1.7432e+02	-10.1789	-18.347320	0.000144	1.437022	0.486876	0.000058
1754	1.7442e+02	-10.1227	-18.301290	0.000115	1.151656	0.390192	0.000046
1755	1.7452e+02	-10.1051	-18.247113	0.000136	1.355489	0.459252	0.000054
1756	1.7462e+02	-10.0168	-18.190900	0.000141	1.406448	0.476517	0.000056
1757	1.7472e+02	-10.0232	-18.139167	-0.000129	-1.294339	-0.438534	0.000052
1758	1.7482e+02	-9.9511	-18.080510	0.000147	1.467597	0.497235	0.000059
1759	1.7492e+02	-9.9495	-18.023482	0.000143	1.426831	0.483423	0.000057
1760	1.7502e+02	-9.8805	-17.962381	0.000153	1.528747	0.517954	0.000061
1761	1.7512e+02	-9.8484	-17.900465	0.000155	1.549131	0.524860	0.000062
1762	1.7522e+02	-9.8131	-17.838956	0.000154	1.538939	0.521407	0.000062
1763	1.7532e+02	-9.7810	-17.779891	0.000148	1.477789	0.500688	0.000059
1764	1.7542e+02	-9.7393	-17.726122	0.000135	1.345298	0.455799	0.000054
1765	1.7552e+02	-9.6880	-17.665835	0.000151	1.508364	0.511048	0.000061
1766	1.7562e+02	-9.6527	-17.603919	0.000155	1.549131	0.524860	0.000062
1767	1.7572e+02	-9.6222	-17.548928	0.000138	1.375873	0.466158	0.000055
1768	1.7582e+02	-9.5692	-17.489456	0.000149	1.487981	0.504142	0.000060
1769	1.7592e+02	-9.5452	-17.429169	0.000151	1.508364	0.511048	0.000061
1770	1.7602e+02	-9.4746	-17.376622	0.000131	1.314723	0.445440	0.000053
1771	1.7612e+02	-9.4361	-17.324075	0.000131	1.314723	0.445440	0.000053
1772	1.7621e+02	-9.4297	-17.271121	0.000132	1.324914	0.448893	0.000053
1773	1.7631e+02	-9.3575	-17.219795	0.000128	1.284148	0.435081	0.000052
1774	1.7641e+02	-9.3318	-17.169692	0.000125	1.253573	0.424722	0.000050
1775	1.7651e+02	-9.2821	-17.116330	0.000134	1.335106	0.452346	0.000054
1776	1.7661e+02	-9.2564	-17.065413	0.000127	1.273956	0.431628	0.000051
1777	1.7671e+02	-9.2131	-17.005126	0.000151	1.508364	0.511048	0.000061
1778	1.7681e+02	-9.1874	-16.946876	0.000146	1.457406	0.493782	0.000059
1779	1.7691e+02	-9.1281	-16.889848	0.000143	1.426831	0.483423	0.000057
1780	1.7701e+02	-9.1088	-16.826710	0.000158	1.579706	0.535219	0.000063
1781	1.7711e+02	-9.0687	-16.771719	0.000138	1.375873	0.466158	0.000055
1782	1.7721e+02	-9.0222	-16.707766	0.000160	1.600089	0.542125	0.000064
1783	1.7731e+02	-8.9933	-16.649108	0.000147	1.467597	0.497235	0.000059
1784	1.7741e+02	-8.9532	-16.593303	0.000140	1.396256	0.473064	0.000056
1785	1.7751e+02	-8.8955	-16.533830	0.000149	1.487981	0.504142	0.000060
1786	1.7761e+02	-8.8425	-16.479247	0.000137	1.365681	0.462705	0.000055
1787	1.7771e+02	-8.8040	-16.424255	0.000138	1.375873	0.466158	0.000055
1788	1.7781e+02	-8.7752	-16.368449	0.000140	1.396256	0.473064	0.000056
1789	1.7791e+02	-8.7126	-16.314273	0.000136	1.355489	0.459252	0.000054
1790	1.7801e+02	-8.6869	-16.266614	0.000119	1.192423	0.404004	0.000048
1791	1.7810e+02	-8.6484	-16.209993	0.000142	1.416639	0.479970	0.000057
1792	1.7820e+02	-8.6163	-16.160705	0.000123	1.233189	0.417816	0.000050
1793	1.7830e+02	-8.5810	-16.100825	0.000150	1.498172	0.507595	0.000060
1794	1.7840e+02	-8.5217	-16.048686	0.000130	1.304531	0.441987	0.000052
1795	1.7850e+02	-8.5089	-15.990843	0.000145	1.447214	0.490329	0.000058
1796	1.7860e+02	-8.4687	-15.930149	0.000152	1.518556	0.514501	0.000061
1797	1.7870e+02	-8.4270	-15.866603	0.000159	1.589897	0.538672	0.000064
1798	1.7880e+02	-8.3693	-15.807539	0.000148	1.477789	0.500688	0.000059
1799	1.7890e+02	-8.3581	-15.741957	0.000164	1.640855	0.555937	0.000066
1800	1.7900e+02	-8.3179	-15.683299	0.000147	1.467597	0.497235	0.000059
1801	1.7910e+02	-8.2762	-15.623827	0.000149	1.487981	0.504142	0.000060
1802	1.7920e+02	-8.2233	-15.558652	0.000163	1.630664	0.552484	0.000066
1803	1.7930e+02	-8.1816	-15.507735	0.000127	1.273956	0.431628	0.000051
1804	1.7940e+02	-8.1222	-15.444597	0.000158	1.579706	0.535219	0.000063
1805	1.7950e+02	-8.0966	-15.388791	0.000140	1.396256	0.473064	0.000056
1806	1.7960e+02	-8.0757	-15.333799	0.000138	1.375873	0.466158	0.000055
1807	1.7970e+02	-8.0164	-15.280845	0.000132	1.324914	0.448893	0.000053
1808	1.7980e+02	-7.9746	-15.229112	0.000129	1.294339	0.438534	0.000052
1809	1.7990e+02	-7.9329	-15.170455	0.000147	1.467597	0.497235	0.000059
1810	1.8000e+02	-7.8880	-15.117500	0.000132	1.324914	0.448893	0.000053
1811	1.8009e+02	-7.8287	-15.060880	0.000142	1.416639	0.479970	0.000057
1812	1.8019e+02	-7.8174	-14.999371	0.000154	1.538939	0.521407	0.000062
1813	1.8029e+02	-7.7709	-14.947639	0.000129	1.294339	0.438534	0.000052
1814	1.8039e+02	-7.7276	-14.884908	0.000157	1.569514	0.531766	0.000063
1815	1.8049e+02	-7.6875	-14.825436	0.000149	1.487981	0.504142	0.000060
1816	1.8059e+02	-7.6586	-14.763112	0.000156	1.559322	0.528313	0.000063
1817	1.8069e+02	-7.6217	-14.703640	0.000149	1.487981	0.504142	0.000060
1818	1.8079e+02	-7.5784	-14.642132	0.000154	1.538939	0.521407	0.000062
1819	1.8089e+02	-7.5479	-14.581438	0.000152	1.518556	0.514501	0.000061
1820	1.8099e+02	-7.5030	-14.525632	0.000140	1.396256	0.473064	0.000056
1821	1.8109e+02	-7.4485	-14.463716	0.000155	1.549131	0.524860	0.000062
1822	1.8119e+02	-7.3939	-14.396911	0.000167	1.671430	0.566296	0.000067
1823	1.8129e+02	-7.3666	-14.340698	0.000141	1.406448	0.476517	0.000056
1824	1.8139e+02	-7.3554	-14.285300	0.000139	1.386064	0.469611	0.000056
1825	1.8149e+02	-7.3089	-14.227864	0.000144	1.437022	0.486876	0.000058
1826	1.8159e+02	-7.2592	-14.170836	0.000143	1.426831	0.483423	0.000057
1827	1.8169e+02	-7.2174	-14.112179	0.000147	1.467597	0.497235	0.000059
1828	1.8179e+02	-7.1661	-14.048226	0.000160	1.600089	0.542125	0.000064
1829	1.8189e+02	-7.1356	-13.996086	0.000130	1.304531	0.441987	0.000052
1830	1.8199e+02	-7.1180	-13.930912	0.000163	1.630664	0.552484	0.000066
1831	1.8209e+02	-7.0747	-13.873476	0.000144	1.437022	0.486876	0.000058
1832	1.8218e+02	-7.0346	-13.811560	0.000155	1.549131	0.524860	0.000062
1833	1.8228e+02	-6.9784	-13.742312	0.000173	1.732580	0.587014	0.000070
1834	1.8238e+02	-6.9527	-13.682840	0.000149	1.487981	0.504142	0.000060
1835	1.8248e+02	-6.8998	-13.619295	0.000159	1.589897	0.538672	0.000064
1836	1.8258e+02	-6.8741	-13.550046	0.000173	1.732580	0.587014	0.000070
1837	1.8268e+02	-6.8597	-13.483649	0.000166	1.661239	0.562843	0.000067
1838	1.8278e+02	-6.7859	-13.423770	0.000150	1.498172	0.507595	0.000060
1839	1.8288e+02	-6.7314	-13.356559	0.000168	1.681622	0.569749	0.000068
1840	1.8298e+02	-6.7073	-13.296679	0.000150	1.498172	0.507595	0.000060
1841	1.8308e+02	-6.6688	-13.237207	0.000149	1.487981	0.504142	0.000060
1842	1.8318e+02	-6.6223	-13.181809	0.000139	1.386064	0.469611	0.000056
1843	1.8328e+02	-6.5774	-13.117856	0.000160	1.600089	0.542125	0.000064
1844	1.8338e+02	-6.5405	-13.059199	0.000147	1.467597	0.497235	0.000059
1845	1.8348e+02	-6.5020	-12.994431	0.000162	1.620472	0.549031	0.000065
1846	1.8358e+02	-6.4506	-12.936996	0.000144	1.437022	0.486876	0.000058
1847	1.8368e+02	-6.4458	-12.877524	0.000149	1.487981	0.504142	0.000060
1848	1.8378e+02	-6.4105	-12.817644	0.000150	1.498172	0.507595	0.000060
1849	1.8388e+02	-6.3528	-12.762246	0.000139	1.386064	0.469611	0.000056
1850	1.8398e+02	-6.3030	-12.701552	0.000152	1.518556	0.514501	0.000061
1851	1.8407e+02	-6.2709	-12.635562	0.000165	1.651047	0.559390	0.000066
1852	1.8417e+02	-6.2549	-12.570795	0.000162	1.620472	0.549031	0.000065
1853	1.8427e+02	-6.2132	-12.500732	0.000175	1.752964	0.593920	0.000070
1854	1.8437e+02	-6.1570	-12.434742	0.000165	1.651047	0.559390	0.000066
1855	1.8447e+02	-6.0784	-12.365494	0.000173	1.732580	0.587014	0.000070
1856	1.8457e+02	-6.0608	-12.303985	0.000154	1.538939	0.521407	0.000062
1857	1.8467e+02	-6.0287	-12.233923	0.000175	1.752964	0.593920	0.000070
1858	1.8477e+02	-5.9950	-12.173228	0.000152	1.518556	0.514501	0.000061
1859	1.8487e+02	-5.9613	-12.106832	0.000166	1.661239	0.562843	0.000067
1860	1.8497e+02	-5.9228	-12.044508	0.000156	1.559322	0.528313	0.000063
1861	1.8507e+02	-5.8731	-11.985851	0.000147	1.467597	0.497235	0.000059
1862	1.8517e+02	-5.8298	-11.919454	0.000166	1.661239	0.562843	0.000067
1863	1.8527e+02	-5.7801	-11.851428	0.000170	1.702005	0.576655	0.000068
1864	1.8537e+02	-5.7592	-11.794807	0.000142	1.416639	0.479970	0.000057
1865	1.8547e+02	-5.7255	-11.732484	0.000156	1.559322	0.528313	0.000063
1866	1.8557e+02	-5.6838	-11.663643	0.000172	1.722389	0.583561	0.000069
1867	1.8567e+02	-5.6309	-11.606208	0.000144	1.437022	0.486876	0.000058
1868	1.8577e+02	-5.5956	-11.541033	0.000163	1.630664	0.552484	0.000066
1869	1.8587e+02	-5.5667	-11.470563	0.000176	1.763155	0.597373	0.000071
1870	1.8597e+02	-5.5298	-11.401722	0.000172	1.722389	0.583561	0.000069
1871	1.8606e+02	-5.4576	-11.330844	0.000177	1.773347	0.600826	0.000071
1872	1.8616e+02	-5.4335	-11.263633	0.000168	1.681622	0.569749	0.000068
1873	1.8626e+02	-5.3950	-11.195606	0.000170	1.702005	0.576655	0.000068
1874	1.8636e+02	-5.3357	-11.123914	0.000179	1.793730	0.607732	0.000072
1875	1.8646e+02	-5.2843	-11.061591	0.000156	1.559322	0.528313	0.000063
1876	1.8656e+02	-5.2651	-10.998453	0.000158	1.579706	0.535219	0.000063
1877	1.8666e+02	-5.2266	-10.939388	0.000148	1.477789	0.500688	0.000059
1878	1.8676e+02	-5.1897	-10.877064	0.000156	1.559322	0.528313	0.000063
1879	1.8686e+02	-5.1480	-10.816370	0.000152	1.518556	0.514501	0.000061
1880	1.8696e+02	-5.1223	-10.752418	0.000160	1.600089	0.542125	0.000064
1881	1.8706e+02	-5.0710	-10.693760	0.000147	1.467597	0.497235	0.000059
1882	1.8716e+02	-5.0341	-10.626549	0.000168	1.681622	0.569749	0.000068
1883	1.8726e+02	-4.9924	-10.569521	0.000143	1.426831	0.483423	0.000057
1884	1.8736e+02	-4.9603	-10.503124	0.000166	1.661239	0.562843	0.000067
1885	1.8746e+02	-4.9170	-10.435098	0.000170	1.702005	0.576655	0.000068
1886	1.8756e+02	-4.8881	-10.378885	0.000141	1.406448	0.476517	0.000056
1887	1.8766e+02	-4.8336	-10.309636	0.000173	1.732580	0.587014	0.000070
1888	1.8776e+02	-4.7838	-10.236315	0.000183	1.834497	0.621544	0.000074
1889	1.8786e+02	-4.7630	-10.167881	0.000171	1.712197	0.580108	0.000069
1890	1.8796e+02	-4.7405	-10.100670	0.000168	1.681622	0.569749	0.000068
1891	1.8806e+02	-4.6828	-10.024904	0.000190	1.895647	0.642262	0.000076
1892	1.8815e+02	-4.6106	-9.965025	0.000150	1.498172	0.507595	0.000060
1893	1.8825e+02	-4.6122	-9.898628	-0.000166	-1.661239	-0.562843	0.000067
1894	1.8835e+02	-4.5239	-9.837526	0.000153	1.528747	0.517954	0.000061
1895	1.8845e+02	-4.4999	-9.776832	0.000152	1.518556	0.514501	0.000061
1896	1.8855e+02	-4.4870	-9.714916	0.000155	1.549131	0.524860	0.000062
1897	1.8865e+02	-4.4341	-9.646483	0.000171	1.712197	0.580108	0.000069
1898	1.8875e+02	-4.4068	-9.587011	0.000149	1.487981	0.504142	0.000060
1899	1.8885e+02	-4.3475	-9.518984	0.000170	1.702005	0.576655	0.000068
1900	1.8895e+02	-4.3202	-9.460734	0.000146	1.457406	0.493782	0.000059
1901	1.8905e+02	-4.2753	-9.390264	0.000176	1.763155	0.597373	0.000071
1902	1.8915e+02	-4.2512	-9.327126	0.000158	1.579706	0.535219	0.000063
1903	1.8925e+02	-4.1903	-9.261544	0.000164	1.640855	0.555937	0.000066
1904	1.8935e+02	-4.1630	-9.200443	0.000153	1.528747	0.517954	0.000061
1905	1.8945e+02	-4.1341	-9.131194	0.000173	1.732580	0.587014	0.000070
1906	1.8955e+02	-4.0956	-9.063168	0.000170	1.702005	0.576655	0.000068
1907	1.8965e+02	-4.0411	-8.994327	0.000172	1.722389	0.583561	0.000069
1908	1.8975e+02	-4.0074	-8.929560	0.000162	1.620472	0.549031	0.000065
1909	1.8985e+02	-3.9448	-8.859089	0.000176	1.763155	0.597373	0.000071
1910	1.8995e+02	-3.9256	-8.791878	0.000168	1.681622	0.569749	0.000068
1911	1.9004e+02	-3.8774	-8.732813	0.000148	1.477789	0.500688	0.000059
1912	1.9014e+02	-3.8341	-8.668861	0.000160	1.600089	0.542125	0.000064
1913	1.9024e+02	-3.7796	-8.610203	0.000147	1.467597	0.497235	0.000059
1914	1.9034e+02	-3.7411	-8.547880	0.000156	1.559322	0.528313	0.000063
1915	1.9044e+02	-3.7122	-8.490444	0.000144	1.437022	0.486876	0.000058
1916	1.9054e+02	-3.6753	-8.425270	0.000163	1.630664	0.552484	0.000066
1917	1.9064e+02	-3.6528	-8.366612	0.000147	1.467597	0.497235	0.000059
1918	1.9074e+02	-3.5951	-8.304289	0.000156	1.559322	0.528313	0.000063
1919	1.9084e+02	-3.5550	-8.241151	0.000158	1.579706	0.535219	0.000063
1920	1.9094e+02	-3.5229	-8.178420	0.000157	1.569514	0.531766	0.000063
1921	1.9104e+02	-3.4828	-8.123021	0.000139	1.386064	0.469611	0.000056
1922	1.9114e+02	-3.4475	-8.057847	0.000163	1.630664	0.552484	0.000066
1923	1.9124e+02	-3.4042	-7.993894	0.000160	1.600089	0.542125	0.000064
1924	1.9134e+02	-3.3641	-7.920165	0.000184	1.844688	0.624997	0.000074
1925	1.9144e+02	-3.3176	-7.852953	0.000168	1.681622	0.569749	0.000068
1926	1.9154e+02	-3.2855	-7.790630	0.000156	1.559322	0.528313	0.000063
1927	1.9164e+02	-3.2325	-7.725455	0.000163	1.630664	0.552484	0.000066
1928	1.9174e+02	-3.1940	-7.652948	0.000181	1.814113	0.614638	0.000073
1929	1.9184e+02	-3.1571	-7.595106	0.000145	1.447214	0.490329	0.000058
1930	1.9194e+02	-3.1026	-7.536448	0.000147	1.467597	0.497235	0.000059
1931	1.9203e+02	-3.0416	-7.476976	0.000149	1.487981	0.504142	0.000060
1932	1.9213e+02	-3.0288	-7.416282	0.000152	1.518556	0.514501	0.000061
1933	1.9223e+02	-2.9935	-7.349885	0.000166	1.661239	0.562843	0.000067
1934	1.9233e+02	-2.9759	-7.287969	0.000155	1.549131	0.524860	0.000062
1935	1.9243e+02	-2.9374	-7.230941	0.000143	1.426831	0.483423	0.000057
1936	1.9253e+02	-2.8924	-7.162508	0.000171	1.712197	0.580108	0.000069
1937	1.9263e+02	-2.8411	-7.100999	0.000154	1.538939	0.521407	0.000062
1938	1.9273e+02	-2.8074	-7.039490	0.000154	1.538939	0.521407	0.000062
1939	1.9283e+02	-2.7737	-6.979204	0.000151	1.508364	0.511048	0.000061
1940	1.9293e+02	-2.7400	-6.917695	0.000154	1.538939	0.521407	0.000062
1941	1.9303e+02	-2.7095	-6.852520	0.000163	1.630664	0.552484	0.000066
1942	1.9313e+02	-2.6438	-6.789382	0.000158	1.579706	0.535219	0.000063
1943	1.9323e+02	-2.6101	-6.718912	0.000176	1.763155	0.597373	0.000071
1944	1.9333e+02	-2.5604	-6.661069	0.000145	1.447214	0.490329	0.000058
1945	1.9343e+02	-2.5026	-6.595080	0.000165	1.651047	0.559390	0.000066
1946	1.9353e+02	-2.4721	-6.526646	0.000171	1.712197	0.580108	0.000069
1947	1.9363e+02	-2.4368	-6.470433	0.000141	1.406448	0.476517	0.000056
1948	1.9373e+02	-2.3839	-6.411368	0.000148	1.477789	0.500688	0.000059
1949	1.9383e+02	-2.3550	-6.348230	0.000158	1.579706	0.535219	0.000063
1950	1.9393e+02	-2.3085	-6.292424	0.000140	1.396256	0.473064	0.000056
1951	1.9403e+02	-2.2732	-6.227249	0.000163	1.630664	0.552484	0.000066
1952	1.9412e+02	-2.2283	-6.173480	0.000135	1.345298	0.455799	0.000054
1953	1.9422e+02	-2.2042	-6.110749	0.000157	1.569514	0.531766	0.000063
1954	1.9432e+02	-2.1802	-6.052092	0.000147	1.467597	0.497235	0.000059
1955	1.9442e+02	-2.1144	-5.986917	0.000163	1.630664	0.552484	0.000066
1956	1.9452e+02	-2.0903	-5.922964	0.000160	1.600089	0.542125	0.000064
1957	1.9462e+02	-2.0470	-5.867973	0.000138	1.375873	0.466158	0.000055
1958	1.9472e+02	-2.0005	-5.806464	0.000154	1.538939	0.521407	0.000062
1959	1.9482e+02	-1.9828	-5.737216	0.000173	1.732580	0.587014	0.000070
1960	1.9492e+02	-1.9395	-5.670005	0.000168	1.681622	0.569749	0.000068
1961	1.9502e+02	-1.9074	-5.603608	0.000166	1.661239	0.562843	0.000067
1962	1.9512e+02	-1.8352	-5.535174	0.000171	1.712197	0.580108	0.000069
1963	1.9522e+02	-1.7935	-5.464297	0.000177	1.773347	0.600826	0.000071
1964	1.9532e+02	-1.7631	-5.399937	0.000161	1.610281	0.545578	0.000065
1965	1.9542e+02	-1.7101	-5.342501	0.000144	1.437022	0.486876	0.000058
1966	1.9552e+02	-1.6893	-5.278548	0.000160	1.600089	0.542125	0.000064
1967	1.9562e+02	-1.6443	-5.219484	0.000148	1.477789	0.500688	0.000059
1968	1.9572e+02	-1.5978	-5.155938	0.000159	1.589897	0.538672	0.000064
1969	1.9582e+02	-1.5754	-5.094837	0.000153	1.528747	0.517954	0.000061
1970	1.9592e+02	-1.5369	-5.034550	0.000151	1.508364	0.511048	0.000061
1971	1.9601e+02	-1.4839	-4.973856	0.000152	1.518556	0.514501	0.000061
1972	1.9611e+02	-1.4374	-4.909089	0.000162	1.620472	0.549031	0.000065
1973	1.9621e+02	-1.4037	-4.850024	0.000148	1.477789	0.500688	0.000059
1974	1.9631e+02	-1.3957	-4.785664	0.000161	1.610281	0.545578	0.000065
1975	1.9641e+02	-1.3203	-4.727414	0.000146	1.457406	0.493782	0.000059
1976	1.9651e+02	-1.2978	-4.659795	0.000169	1.691814	0.573202	0.000068
1977	1.9661e+02	-1.2657	-4.596250	0.000159	1.589897	0.538672	0.000064
1978	1.9671e+02	-1.2080	-4.523335	0.000182	1.824305	0.618091	0.000073
1979	1.9681e+02	-1.1807	-4.458161	0.000163	1.630664	0.552484	0.000066
1980	1.9691e+02	-1.1278	-4.391356	0.000167	1.671430	0.566296	0.000067
1981	1.9701e+02	-1.0813	-4.326996	0.000161	1.610281	0.545578	0.000065
1982	1.9711e+02	-1.0524	-4.256933	0.000175	1.752964	0.593920	0.000070
1983	1.9721e+02	-0.9962	-4.196647	0.000151	1.508364	0.511048	0.000061
1984	1.9731e+02	-0.9625	-4.135545	0.000153	1.528747	0.517954	0.000061
1985	1.9741e+02	-0.9272	-4.079332	0.000141	1.406448	0.476517	0.000056
1986	1.9751e+02	-0.9000	-4.013750	0.000164	1.640855	0.555937	0.000066
1987	1.9761e+02	-0.8807	-3.949797	0.000160	1.600089	0.542125	0.000064
1988	1.9771e+02	-0.8214	-3.892769	0.000143	1.426831	0.483423	0.000057
1989	1.9781e+02	-0.7668	-3.828409	0.000161	1.610281	0.545578	0.000065
1990	1.9791e+02	-0.7299	-3.763642	0.000162	1.620472	0.549031	0.000065
1991	1.9800e+02	-0.7010	-3.693171	0.000176	1.763155	0.597373	0.000071
1992	1.9810e+02	-0.6289	-3.636958	0.000141	1.406448	0.476517	0.000056
1993	1.9820e+02	-0.6032	-3.570154	0.000167	1.671430	0.566296	0.000067
1994	1.9830e+02	-0.5823	-3.496832	0.000183	1.834497	0.621544	0.000074
1995	1.9840e+02	-0.5390	-3.428399	0.000171	1.712197	0.580108	0.000069
1996	1.9850e+02	-0.5037	-3.359965	0.000171	1.712197	0.580108	0.000069
1997	1.9860e+02	-0.4716	-3.291531	0.000171	1.712197	0.580108	0.000069
1998	1.9870e+02	-0.4155	-3.221469	0.000175	1.752964	0.593920	0.000070
1999	1.9880e+02	-0.3722	-3.146110	0.000189	1.885455	0.638809	0.000076
2000	1.9890e+02	-0.3257	-3.087860	0.000146	1.457406	0.493782	0.000059
2001	1.9900e+02	-0.2759	-3.023093	0.000162	1.620472	0.549031	0.000065
2002	1.9910e+02	-0.2535	-2.957918	0.000163	1.630664	0.552484	0.000066
2003	1.9920e+02	-0.2118	-2.893150	0.000162	1.620472	0.549031	0.000065
2004	1.9930e+02	-0.1588	-2.827568	0.000164	1.640855	0.555937	0.000066
2005	1.9940e+02	-0.1299	-2.764430	0.000158	1.579706	0.535219	0.000063
2006	1.9950e+02	-0.0802	-2.701292	0.000158	1.579706	0.535219	0.000063
2007	1.9960e+02	-0.0610	-2.632451	0.000172	1.722389	0.583561	0.000069
2008	1.9970e+02	-0.0257	-2.567684	0.000162	1.620472	0.549031	0.000065
2009	1.9980e+02	0.0353	-2.499658	0.000162	1.620472	0.549031	0.000068

Center data before PMax,+/-Pr and +/-Vc Calc.

PMax (uC/cm2):	3.05e+01
Pr (uC/cm2):	4.04e-01
-Pr (uC/cm2):	-2.50e+00
PLoss (uC/cm2):	1.28e-01
Vc:	1.63e+00
-Vc:	-2.63e-01
C (Max-Eff) (nF):	1.52e-01
K (Eff):	5.15e+02
Vert. (+/-Pr) Shift (uC/cm2):	-1.05e+00
Horiz. Shift (+/-Vc):	6.84e-01
Offset (uC/cm2):	2.64e+00

A (Loop Area - uC/cm2·Volts):	-3.44e-03



Hysteresis Version: 5.48.1 - Radiant Technologies, Inc., 1999 - 9/12/24

