»»»»»»»»»»»»»»»»»»»»»»»»»»»»»»»»»»»» Hysteresis ««««««««««««««««««««««««««««««««««««
»»»  Executed Version:	5.48.1
»»»  Vision Version:	5.48.4 (R)
»»»  Vision Compiled:	9/18/24
»»»  Driver Version:	5.47.0
»»»  Windows Version:	Windows 8 or 8.1
»»»  Processor Information:	x86 (AMD or Intel) - 32 Processors
»»»  Tester Name:	PMF21124-494 (100V)
»»»  Tester S/N:	PMF21124-494
»»»  Internal Amp Type:	100V RevK 270k
»»»  Internal Amp S/N:	iAB2-596/K     
»»»  Execution Count:	1
»»»»»»»»»»»»»»»»»»»»»»»»»»»»»»»»»»»»»»»»»»««««««««««««««««««««««««««««««««««««««««««

Stored:	6/16/2025 - 15:37:59
Configured:	06/16/25 02:13:38 PM
Executed:	06/16/25 03:37:25 PM

»»»»»»»»»»»»»»»»»»»»»»»»»»»»»»»»»»» Sample Info ««««««««««««««««««««««««««««««««««««
Sample Name:	
Lot Name:	
Wafer Name:	
Die Row/Column:	0/0
Capacitor Number:	0
Sample Area (cm2):	1.00e-04
Sample Thickness (microns):	3.00e-01

Amplifier:	Internal

»»»»»»»»»»»»»»»»»»»»»»»»»»»»»»»»»»» Tester Info «««««««««««««««««««««««««««««««««««
Tester Name:	PMF21124-494 (100V)
Tester Serial Number:	PMF21124-494
Return Signal Amp. Level:	1.79 [Index: 2]

»»»»»»»»»»»»»»»»»»»»»»»»»»»»»»»» Hysteresis Info ««««««««««««««««««««««««««««««««««
Task Name:	Hyst-4
Volts:	20.00
Field:	666.67 (kV/cm)
DCBias:	0.00
DCField:	0.00 (kV/cm)
Hysteresis Period (ms):	1.00e+00
Preset:	Enabled
Preset Delay (ms):	1.00e+03
Profile:	Standard Bipolar

»»»»»»»»»»»»»»»»»»»»»»»»»»»»»»»»»»»»»» Data «««««««««««««««««««««««««««««««««««««««
Points:	2001

Valid Data

Point	Time (ms)	Drive Voltage	Measured Polarization (uC/cm2)	Capacitance (uF)	Normalized Capacitance (uF/cm2)	Dielectric Constant	Instantaneous Current (mA)
   1	0.0000e+00	0.0385	-2.066927	0.000108	1.075184	0.364282	0.008724
   2	5.0000e-04	0.0578	-2.023309	0.000108	1.075184	0.364282	0.008724
   3	1.0000e-03	0.1075	-1.981829	0.000102	1.022479	0.346425	0.008296
   4	1.5000e-03	0.1556	-1.886041	0.000236	2.361188	0.799992	0.019158
   5	2.0000e-03	0.1636	-1.806503	0.000196	1.960629	0.664279	0.015908
   6	2.5000e-03	0.2438	-1.723971	0.000203	2.034416	0.689279	0.016506
   7	3.0000e-03	0.2567	-1.620058	0.000256	2.561467	0.867849	0.020783
   8	3.5000e-03	0.3273	-1.542658	0.000191	1.907924	0.646422	0.015480
   9	4.0000e-03	0.3706	-1.457561	0.000210	2.097662	0.710707	0.017019
  10	4.5000e-03	0.4187	-1.379733	0.000192	1.918465	0.649994	0.015566
  11	5.0000e-03	0.4444	-1.262136	0.000290	2.898780	0.982133	0.023519
  12	5.5000e-03	0.4716	-1.164210	0.000241	2.413893	0.817849	0.019585
  13	6.0000e-03	0.5214	-1.079112	0.000210	2.097662	0.710707	0.017019
  14	6.5000e-03	0.5823	-0.994443	0.000209	2.087121	0.707136	0.016934
  15	7.0000e-03	0.6128	-0.906352	0.000217	2.171450	0.735707	0.017618
  16	7.5000e-03	0.6481	-0.808853	0.000240	2.403352	0.814278	0.019500
  17	8.0000e-03	0.6722	-0.720762	0.000217	2.171450	0.735707	0.017618
  18	8.5000e-03	0.7396	-0.618560	0.000252	2.519303	0.853563	0.020440
  19	9.0000e-03	0.7636	-0.533035	0.000211	2.108203	0.714279	0.017105
  20	9.5000e-03	0.7877	-0.420142	0.000278	2.782829	0.942848	0.022579
  21	1.0000e-02	0.8310	-0.347446	0.000179	1.791973	0.607137	0.014539
  22	1.0500e-02	0.8791	-0.232842	0.000282	2.824993	0.957133	0.022921
  23	1.1000e-02	0.9240	-0.159718	0.000180	1.802514	0.610708	0.014625
  24	1.1500e-02	0.9850	-0.059226	0.000248	2.477139	0.839277	0.020098
  25	1.2000e-02	1.0379	0.000214	0.000147	1.465201	0.496424	0.011888
  26	1.2500e-02	1.0540	0.102844	0.000253	2.529844	0.857134	0.020526
  27	1.3000e-02	1.0572	0.206329	0.000255	2.550926	0.864277	0.020697
  28	1.3500e-02	1.1165	0.303400	0.000239	2.392811	0.810706	0.019414
  29	1.4000e-02	1.1534	0.379090	0.000187	1.865760	0.632137	0.015138
  30	1.4500e-02	1.1791	0.486851	0.000266	2.656336	0.899991	0.021552
  31	1.5000e-02	1.2385	0.570238	0.000206	2.055498	0.696422	0.016677
  32	1.5500e-02	1.2593	0.678855	0.000268	2.677418	0.907134	0.021723
  33	1.6000e-02	1.3219	0.772505	0.000231	2.308483	0.782135	0.018730
  34	1.6500e-02	1.3812	0.836649	0.000158	1.581153	0.535709	0.012829
  35	1.7000e-02	1.3989	0.952535	0.000286	2.856616	0.967848	0.023177
  36	1.7500e-02	1.4470	1.030791	0.000193	1.929006	0.653565	0.015651
  37	1.8000e-02	1.4759	1.139835	0.000269	2.687959	0.910705	0.021809
  38	1.8500e-02	1.5160	1.222794	0.000204	2.044957	0.692850	0.016592
  39	1.9000e-02	1.5609	1.332267	0.000270	2.698500	0.914277	0.021894
  40	1.9500e-02	1.6508	1.384864	0.000130	1.296545	0.439281	0.010520
  41	2.0000e-02	1.6475	1.486639	-0.000251	-2.508762	-0.849992	0.020355
  42	2.0500e-02	1.6620	1.605947	0.000294	2.940944	0.996419	0.023861
  43	2.1000e-02	1.7021	1.711998	0.000261	2.614172	0.885706	0.021210
  44	2.1500e-02	1.7390	1.773576	0.000152	1.517907	0.514281	0.012316
  45	2.2000e-02	1.8176	1.877489	0.000256	2.561467	0.867849	0.020783
  46	2.2500e-02	1.8401	1.946336	0.000170	1.697104	0.574994	0.013770
  47	2.3000e-02	1.9026	2.049822	0.000255	2.550926	0.864277	0.020697
  48	2.3500e-02	1.9395	2.132781	0.000204	2.044957	0.692850	0.016592
  49	2.4000e-02	1.9556	2.252944	0.000296	2.962026	1.003562	0.024033
  50	2.4500e-02	1.9828	2.343173	0.000222	2.224155	0.753564	0.018046
  51	2.5000e-02	2.0727	2.406034	0.000155	1.549530	0.524995	0.012572
  52	2.5500e-02	2.0663	2.524913	-0.000293	-2.930403	-0.992847	0.023776
  53	2.6000e-02	2.1048	2.611294	0.000213	2.129286	0.721421	0.017276
  54	2.6500e-02	2.1689	2.718200	0.000264	2.635254	0.892848	0.021381
  55	2.7000e-02	2.2395	2.793034	0.000184	1.844678	0.624994	0.014967
  56	2.7500e-02	2.2684	2.898658	0.000260	2.603631	0.882134	0.021125
  57	2.8000e-02	2.2796	2.982900	0.000208	2.076580	0.703564	0.016848
  58	2.8500e-02	2.3293	3.078261	0.000235	2.350647	0.796421	0.019072
  59	2.9000e-02	2.3711	3.176187	0.000241	2.413893	0.817849	0.019585
  60	2.9500e-02	2.3887	3.274541	0.000242	2.424434	0.821420	0.019671
  61	3.0000e-02	2.4609	3.363914	0.000220	2.203073	0.746421	0.017875
  62	3.0500e-02	2.5058	3.455426	0.000226	2.255778	0.764278	0.018302
  63	3.1000e-02	2.5202	3.550786	0.000235	2.350647	0.796421	0.019072
  64	3.1500e-02	2.5555	3.652561	0.000251	2.508762	0.849992	0.020355
  65	3.2000e-02	2.6069	3.732955	0.000198	1.981711	0.671422	0.016079
  66	3.2500e-02	2.6422	3.815914	0.000204	2.044957	0.692850	0.016592
  67	3.3000e-02	2.6518	3.933083	0.000289	2.888239	0.978562	0.023434
  68	3.3500e-02	2.7336	4.031437	0.000242	2.424434	0.821420	0.019671
  69	3.4000e-02	2.7753	4.128508	0.000239	2.392811	0.810706	0.019414
  70	3.4500e-02	2.7833	4.218310	0.000221	2.213614	0.749993	0.017960
  71	3.5000e-02	2.8427	4.315380	0.000239	2.392811	0.810706	0.019414
  72	3.5500e-02	2.8716	4.405609	0.000222	2.224155	0.753564	0.018046
  73	3.6000e-02	2.9582	4.482582	0.000190	1.897383	0.642851	0.015395
  74	3.6500e-02	2.9694	4.573238	0.000223	2.234696	0.757135	0.018131
  75	3.7000e-02	2.9935	4.713500	0.000346	3.457454	1.171417	0.028052
  76	3.7500e-02	3.0208	4.786196	0.000179	1.791973	0.607137	0.014539
  77	3.8000e-02	3.0753	4.867017	0.000199	1.992252	0.674993	0.016164
  78	3.8500e-02	3.1299	4.969220	0.000252	2.519303	0.853563	0.020440
  79	3.9000e-02	3.1379	5.058593	0.000220	2.203073	0.746421	0.017875
  80	3.9500e-02	3.1876	5.172769	0.000281	2.814452	0.953562	0.022835
  81	4.0000e-02	3.2454	5.251880	0.000195	1.950088	0.660708	0.015822
  82	4.0500e-02	3.2694	5.359214	0.000265	2.645795	0.896420	0.021467
  83	4.1000e-02	3.3368	5.439607	0.000198	1.981711	0.671422	0.016079
  84	4.1500e-02	3.3865	5.534540	0.000234	2.340106	0.792849	0.018987
  85	4.2000e-02	3.3817	5.639736	-0.000259	-2.593090	-0.878563	0.021039
  86	4.2500e-02	3.4619	5.704307	0.000159	1.591694	0.539280	0.012914
  87	4.3000e-02	3.4940	5.821049	0.000288	2.877698	0.974990	0.023348
  88	4.3500e-02	3.5245	5.886476	0.000161	1.612776	0.546423	0.013085
  89	4.4000e-02	3.5871	5.989961	0.000255	2.550926	0.864277	0.020697
  90	4.4500e-02	3.6047	6.096012	0.000261	2.614172	0.885706	0.021210
  91	4.5000e-02	3.6384	6.184958	0.000219	2.192532	0.742850	0.017789
  92	4.5500e-02	3.6817	6.284167	0.000245	2.445516	0.828563	0.019842
  93	4.6000e-02	3.7090	6.392784	0.000268	2.677418	0.907134	0.021723
  94	4.6500e-02	3.7571	6.481730	0.000219	2.192532	0.742850	0.017789
  95	4.7000e-02	3.7972	6.584788	0.000254	2.540385	0.860706	0.020612
  96	4.7500e-02	3.8486	6.636530	0.000128	1.275463	0.432139	0.010349
  97	4.8000e-02	3.8742	6.762680	0.000311	3.109600	1.053561	0.025230
  98	4.8500e-02	3.9368	6.859751	0.000239	2.392811	0.810706	0.019414
  99	4.9000e-02	3.9448	6.960670	0.000249	2.487680	0.842849	0.020184
 100	4.9500e-02	4.0010	7.044485	0.000207	2.066039	0.699993	0.016763
 101	5.0000e-02	4.0539	7.130438	0.000212	2.118744	0.717850	0.017191
 102	5.0500e-02	4.0924	7.230930	0.000248	2.477139	0.839277	0.020098
 103	5.1000e-02	4.1068	7.323297	0.000228	2.276860	0.771421	0.018473
 104	5.1500e-02	4.1566	7.434479	0.000274	2.740665	0.928562	0.022237
 105	5.2000e-02	4.1999	7.542241	0.000266	2.656336	0.899991	0.021552
 106	5.2500e-02	4.2432	7.623917	0.000201	2.013334	0.682136	0.016335
 107	5.3000e-02	4.2929	7.709442	0.000211	2.108203	0.714279	0.017105
 108	5.3500e-02	4.3042	7.826612	0.000289	2.888239	0.978562	0.023434
 109	5.4000e-02	4.3812	7.902729	0.000188	1.876301	0.635708	0.015223
 110	5.4500e-02	4.3924	8.010063	0.000265	2.645795	0.896420	0.021467
 111	5.5000e-02	4.4181	8.105423	0.000235	2.350647	0.796421	0.019072
 112	5.5500e-02	4.4582	8.200356	0.000234	2.340106	0.792849	0.018987
 113	5.6000e-02	4.5255	8.288875	0.000218	2.181991	0.739278	0.017704
 114	5.6500e-02	4.5801	8.365419	0.000189	1.886842	0.639279	0.015309
 115	5.7000e-02	4.6106	8.487720	0.000301	3.014731	1.021419	0.024460
 116	5.7500e-02	4.6491	8.555713	0.000168	1.676022	0.567852	0.013598
 117	5.8000e-02	4.6956	8.662619	0.000264	2.635254	0.892848	0.021381
 118	5.8500e-02	4.7405	8.751565	0.000219	2.192532	0.742850	0.017789
 119	5.9000e-02	4.7710	8.849064	0.000240	2.403352	0.814278	0.019500
 120	5.9500e-02	4.8031	8.962812	0.000280	2.803911	0.949991	0.022750
 121	6.0000e-02	4.8255	9.055179	0.000228	2.276860	0.771421	0.018473
 122	6.0500e-02	4.8624	9.151822	0.000238	2.382270	0.807135	0.019329
 123	6.1000e-02	4.9106	9.268136	0.000287	2.867157	0.971419	0.023263
 124	6.1500e-02	4.9571	9.337412	0.000171	1.707645	0.578566	0.013855
 125	6.2000e-02	4.9988	9.437476	0.000247	2.466598	0.835706	0.020013
 126	6.2500e-02	5.0277	9.514449	0.000190	1.897383	0.642851	0.015395
 127	6.3000e-02	5.0870	9.623065	0.000268	2.677418	0.907134	0.021723
 128	6.3500e-02	5.1159	9.737241	0.000281	2.814452	0.953562	0.022835
 129	6.4000e-02	5.1849	9.806517	0.000171	1.707645	0.578566	0.013855
 130	6.4500e-02	5.1897	9.926679	0.000296	2.962026	1.003562	0.024033
 131	6.5000e-02	5.2378	10.006645	0.000197	1.971170	0.667851	0.015993
 132	6.5500e-02	5.2763	10.106282	0.000246	2.456057	0.832135	0.019927
 133	6.6000e-02	5.3228	10.191379	0.000210	2.097662	0.710707	0.017019
 134	6.6500e-02	5.3549	10.282891	0.000226	2.255778	0.764278	0.018302
 135	6.7000e-02	5.3902	10.403054	0.000296	2.962026	1.003562	0.024033
 136	6.7500e-02	5.4464	10.480882	0.000192	1.918465	0.649994	0.015566
 137	6.8000e-02	5.4833	10.576670	0.000236	2.361188	0.799992	0.019158
 138	6.8500e-02	5.5170	10.704957	0.000316	3.162305	1.071418	0.025658
 139	6.9000e-02	5.5779	10.775943	0.000175	1.749809	0.592851	0.014197
 140	6.9500e-02	5.6084	10.877718	0.000251	2.508762	0.849992	0.020355
 141	7.0000e-02	5.6421	10.975216	0.000240	2.403352	0.814278	0.019500
 142	7.0500e-02	5.6645	11.079129	0.000256	2.561467	0.867849	0.020783
 143	7.1000e-02	5.7399	11.159095	0.000197	1.971170	0.667851	0.015993
 144	7.1500e-02	5.7704	11.263436	0.000257	2.572008	0.871420	0.020868
 145	7.2000e-02	5.8137	11.368632	0.000259	2.593090	0.878563	0.021039
 146	7.2500e-02	5.8394	11.458433	0.000221	2.213614	0.749993	0.017960
 147	7.3000e-02	5.8763	11.564056	0.000260	2.603631	0.882134	0.021125
 148	7.3500e-02	5.9260	11.651720	0.000216	2.160909	0.732136	0.017533
 149	7.4000e-02	5.9517	11.753494	0.000251	2.508762	0.849992	0.020355
 150	7.4500e-02	6.0127	11.829184	0.000187	1.865760	0.632137	0.015138
 151	7.5000e-02	6.0496	11.932242	0.000254	2.540385	0.860706	0.020612
 152	7.5500e-02	6.1009	12.037438	0.000259	2.593090	0.878563	0.021039
 153	7.6000e-02	6.0961	12.155462	-0.000291	-2.909321	-0.985705	0.023605
 154	7.6500e-02	6.1731	12.225165	0.000172	1.718186	0.582137	0.013941
 155	7.7000e-02	6.1715	12.323091	-0.000241	-2.413893	-0.817849	0.019585
 156	7.7500e-02	6.2517	12.420590	0.000240	2.403352	0.814278	0.019500
 157	7.8000e-02	6.2806	12.498845	0.000193	1.929006	0.653565	0.015651
 158	7.8500e-02	6.3383	12.616015	0.000289	2.888239	0.978562	0.023434
 159	7.9000e-02	6.3816	12.694698	0.000194	1.939547	0.657136	0.015737
 160	7.9500e-02	6.4057	12.796045	0.000250	2.498221	0.846420	0.020269
 161	8.0000e-02	6.4346	12.910648	0.000282	2.824993	0.957133	0.022921
 162	8.0500e-02	6.4891	13.000022	0.000220	2.203073	0.746421	0.017875
 163	8.1000e-02	6.4971	13.133014	0.000328	3.278256	1.110703	0.026598
 164	8.1500e-02	6.5774	13.173210	0.000099	0.990856	0.335711	0.008039
 165	8.2000e-02	6.5934	13.274985	0.000251	2.508762	0.849992	0.020355
 166	8.2500e-02	6.6335	13.371201	0.000237	2.371729	0.803564	0.019243
 167	8.3000e-02	6.6864	13.472976	0.000251	2.508762	0.849992	0.020355
 168	8.3500e-02	6.7137	13.592711	0.000295	2.951485	0.999990	0.023947
 169	8.4000e-02	6.7506	13.684223	0.000226	2.255778	0.764278	0.018302
 170	8.4500e-02	6.8100	13.764616	0.000198	1.981711	0.671422	0.016079
 171	8.5000e-02	6.8501	13.848003	0.000206	2.055498	0.696422	0.016677
 172	8.5500e-02	6.8822	13.936094	0.000217	2.171450	0.735707	0.017618
 173	8.6000e-02	6.9223	14.052408	0.000287	2.867157	0.971419	0.023263
 174	8.6500e-02	6.9800	14.170860	0.000292	2.919862	0.989276	0.023690
 175	8.7000e-02	7.0217	14.230300	0.000147	1.465201	0.496424	0.011888
 176	8.7500e-02	7.0458	14.329082	0.000243	2.434975	0.824992	0.019756
 177	8.8000e-02	7.0715	14.435133	0.000261	2.614172	0.885706	0.021210
 178	8.8500e-02	7.1228	14.531348	0.000237	2.371729	0.803564	0.019243
 179	8.9000e-02	7.1757	14.634406	0.000254	2.540385	0.860706	0.020612
 180	8.9500e-02	7.2158	14.726773	0.000228	2.276860	0.771421	0.018473
 181	9.0000e-02	7.2592	14.821706	0.000234	2.340106	0.792849	0.018987
 182	9.0500e-02	7.3009	14.919204	0.000240	2.403352	0.814278	0.019500
 183	9.1000e-02	7.3570	15.008150	0.000219	2.192532	0.742850	0.017789
 184	9.1500e-02	7.3570	15.111636	-0.000255	-2.550926	-0.864277	0.020697
 185	9.2000e-02	7.4340	15.204003	0.000228	2.276860	0.771421	0.018473
 186	9.2500e-02	7.4100	15.334856	-0.000323	-3.225551	-1.092846	0.026171
 187	9.3000e-02	7.4821	15.395579	0.000150	1.496824	0.507138	0.012145
 188	9.3500e-02	7.5447	15.509755	0.000281	2.814452	0.953562	0.022835
 189	9.4000e-02	7.5720	15.591004	0.000200	2.002793	0.678565	0.016250
 190	9.4500e-02	7.6089	15.682516	0.000226	2.255778	0.764278	0.018302
 191	9.5000e-02	7.6361	15.790705	0.000267	2.666877	0.903563	0.021638
 192	9.5500e-02	7.6763	15.895473	0.000258	2.582549	0.874991	0.020954
 193	9.6000e-02	7.7228	15.989123	0.000231	2.308483	0.782135	0.018730
 194	9.6500e-02	7.7581	16.093036	0.000256	2.561467	0.867849	0.020783
 195	9.7000e-02	7.8078	16.185830	0.000229	2.287401	0.774992	0.018559
 196	9.7500e-02	7.8672	16.259382	0.000181	1.813055	0.614280	0.014710
 197	9.8000e-02	7.8832	16.372703	0.000279	2.793370	0.946419	0.022664
 198	9.8500e-02	7.9153	16.471057	0.000242	2.424434	0.821420	0.019671
 199	9.9000e-02	7.9666	16.555299	0.000208	2.076580	0.703564	0.016848
 200	9.9500e-02	8.0019	16.651514	0.000237	2.371729	0.803564	0.019243
 201	1.0000e-01	8.0388	16.758421	0.000264	2.635254	0.892848	0.021381
 202	1.0050e-01	8.0998	16.859340	0.000249	2.487680	0.842849	0.020184
 203	1.0100e-01	8.1142	16.964108	0.000258	2.582549	0.874991	0.020954
 204	1.0150e-01	8.1591	17.056476	0.000228	2.276860	0.771421	0.018473
 205	1.0200e-01	8.1912	17.148415	0.000227	2.266319	0.767850	0.018388
 206	1.0250e-01	8.2425	17.233940	0.000211	2.108203	0.714279	0.017105
 207	1.0300e-01	8.2923	17.332721	0.000243	2.434975	0.824992	0.019756
 208	1.0350e-01	8.3147	17.423806	0.000225	2.245237	0.760707	0.018217
 209	1.0400e-01	8.3597	17.537554	0.000280	2.803911	0.949991	0.022750
 210	1.0450e-01	8.4110	17.633770	0.000237	2.371729	0.803564	0.019243
 211	1.0500e-01	8.4463	17.707749	0.000182	1.823596	0.617851	0.014796
 212	1.0550e-01	8.4639	17.825773	0.000291	2.909321	0.985705	0.023605
 213	1.0600e-01	8.5185	17.913864	0.000217	2.171450	0.735707	0.017618
 214	1.0650e-01	8.5778	18.019060	0.000259	2.593090	0.878563	0.021039
 215	1.0700e-01	8.6083	18.108434	0.000220	2.203073	0.746421	0.017875
 216	1.0750e-01	8.6404	18.202939	0.000233	2.329565	0.789278	0.018901
 217	1.0800e-01	8.6917	18.304286	0.000250	2.498221	0.846420	0.020269
 218	1.0850e-01	8.7126	18.415469	0.000274	2.740665	0.928562	0.022237
 219	1.0900e-01	8.7655	18.507408	0.000227	2.266319	0.767850	0.018388
 220	1.0950e-01	8.8121	18.611321	0.000256	2.561467	0.867849	0.020783
 221	1.1000e-01	8.8297	18.701978	0.000223	2.234696	0.757135	0.018131
 222	1.1050e-01	8.8794	18.786220	0.000208	2.076580	0.703564	0.016848
 223	1.1100e-01	8.9484	18.886284	0.000247	2.466598	0.835706	0.020013
 224	1.1150e-01	8.9789	18.970526	0.000208	2.076580	0.703564	0.016848
 225	1.1200e-01	9.0190	19.061610	0.000225	2.245237	0.760707	0.018217
 226	1.1250e-01	9.0896	19.140721	0.000195	1.950088	0.660708	0.015822
 227	1.1300e-01	9.0880	19.266015	-0.000309	-3.088518	-1.046418	0.025059
 228	1.1350e-01	9.1120	19.382329	0.000287	2.867157	0.971419	0.023263
 229	1.1400e-01	9.1425	19.473414	0.000225	2.245237	0.760707	0.018217
 230	1.1450e-01	9.2372	19.553807	0.000198	1.981711	0.671422	0.016079
 231	1.1500e-01	9.2564	19.649595	0.000236	2.361188	0.799992	0.019158
 232	1.1550e-01	9.2805	19.755646	0.000261	2.614172	0.885706	0.021210
 233	1.1600e-01	9.3206	19.865974	0.000272	2.719582	0.921419	0.022065
 234	1.1650e-01	9.3431	19.950643	0.000209	2.087121	0.707136	0.016934
 235	1.1700e-01	9.4217	20.025050	0.000183	1.834137	0.621422	0.014881
 236	1.1750e-01	9.4537	20.140937	0.000286	2.856616	0.967848	0.023177
 237	1.1800e-01	9.4874	20.238008	0.000239	2.392811	0.810706	0.019414
 238	1.1850e-01	9.5420	20.329092	0.000225	2.245237	0.760707	0.018217
 239	1.1900e-01	9.5612	20.432149	0.000254	2.540385	0.860706	0.020612
 240	1.1950e-01	9.6286	20.530076	0.000241	2.413893	0.817849	0.019585
 241	1.2000e-01	9.6398	20.621160	0.000225	2.245237	0.760707	0.018217
 242	1.2050e-01	9.6719	20.713527	0.000228	2.276860	0.771421	0.018473
 243	1.2100e-01	9.7425	20.815729	0.000252	2.519303	0.853563	0.020440
 244	1.2150e-01	9.7297	20.938458	-0.000303	-3.025272	-1.024990	0.024546
 245	1.2200e-01	9.7922	21.023983	0.000211	2.108203	0.714279	0.017105
 246	1.2250e-01	9.8468	21.111646	0.000216	2.160909	0.732136	0.017533
 247	1.2300e-01	9.8773	21.204868	0.000230	2.297942	0.778564	0.018644
 248	1.2350e-01	9.9206	21.304077	0.000245	2.445516	0.828563	0.019842
 249	1.2400e-01	9.9334	21.401576	0.000240	2.403352	0.814278	0.019500
 250	1.2450e-01	10.0232	21.482825	0.000200	2.002793	0.678565	0.016250
 251	1.2500e-01	10.0393	21.564929	0.000202	2.023875	0.685708	0.016421
 252	1.2550e-01	10.0810	21.685519	0.000297	2.972567	1.007133	0.024118
 253	1.2600e-01	10.1307	21.773182	0.000216	2.160909	0.732136	0.017533
 254	1.2650e-01	10.1500	21.891207	0.000291	2.909321	0.985705	0.023605
 255	1.2700e-01	10.1933	21.989561	0.000242	2.424434	0.821420	0.019671
 256	1.2750e-01	10.2494	22.060546	0.000175	1.749809	0.592851	0.014197
 257	1.2800e-01	10.2863	22.162321	0.000251	2.508762	0.849992	0.020355
 258	1.2850e-01	10.3136	22.270510	0.000267	2.666877	0.903563	0.021638
 259	1.2900e-01	10.3649	22.340213	0.000172	1.718186	0.582137	0.013941
 260	1.2950e-01	10.4067	22.439850	0.000246	2.456057	0.832135	0.019927
 261	1.3000e-01	10.4403	22.539914	0.000247	2.466598	0.835706	0.020013
 262	1.3050e-01	10.5077	22.635275	0.000235	2.350647	0.796421	0.019072
 263	1.3100e-01	10.5478	22.719517	0.000208	2.076580	0.703564	0.016848
 264	1.3150e-01	10.5751	22.838397	0.000293	2.930403	0.992847	0.023776
 265	1.3200e-01	10.6232	22.925205	0.000214	2.139827	0.724993	0.017362
 266	1.3250e-01	10.6569	23.012440	0.000215	2.150368	0.728564	0.017447
 267	1.3300e-01	10.6826	23.143294	0.000323	3.225551	1.092846	0.026171
 268	1.3350e-01	10.7083	23.232240	0.000219	2.192532	0.742850	0.017789
 269	1.3400e-01	10.7660	23.314771	0.000203	2.034416	0.689279	0.016506
 270	1.3450e-01	10.8013	23.410132	0.000235	2.350647	0.796421	0.019072
 271	1.3500e-01	10.8382	23.517466	0.000265	2.645795	0.896420	0.021467
 272	1.3550e-01	10.9024	23.594438	0.000190	1.897383	0.642851	0.015395
 273	1.3600e-01	10.9248	23.702628	0.000267	2.666877	0.903563	0.021638
 274	1.3650e-01	10.9954	23.768909	0.000163	1.633858	0.553566	0.013256
 275	1.3700e-01	11.0147	23.890355	0.000299	2.993649	1.014276	0.024289
 276	1.3750e-01	11.0419	23.984433	0.000232	2.319024	0.785707	0.018816
 277	1.3800e-01	11.0852	24.084069	0.000246	2.456057	0.832135	0.019927
 278	1.3850e-01	11.1334	24.173871	0.000221	2.213614	0.749993	0.017960
 279	1.3900e-01	11.1510	24.275645	0.000251	2.508762	0.849992	0.020355
 280	1.3950e-01	11.1606	24.376565	0.000249	2.487680	0.842849	0.020184
 281	1.4000e-01	11.2713	24.471070	0.000233	2.329565	0.789278	0.018901
 282	1.4050e-01	11.3034	24.542484	0.000176	1.760350	0.596423	0.014283
 283	1.4100e-01	11.3179	24.666495	0.000306	3.056895	1.035704	0.024802
 284	1.4150e-01	11.3467	24.764849	0.000242	2.424434	0.821420	0.019671
 285	1.4200e-01	11.4141	24.851657	0.000214	2.139827	0.724993	0.017362
 286	1.4250e-01	11.4446	24.929057	0.000191	1.907924	0.646422	0.015480
 287	1.4300e-01	11.4799	25.046226	0.000289	2.888239	0.978562	0.023434
 288	1.4350e-01	11.5441	25.130896	0.000209	2.087121	0.707136	0.016934
 289	1.4400e-01	11.5745	25.227112	0.000237	2.371729	0.803564	0.019243
 290	1.4450e-01	11.6211	25.324610	0.000240	2.403352	0.814278	0.019500
 291	1.4500e-01	11.6644	25.423819	0.000245	2.445516	0.828563	0.019842
 292	1.4550e-01	11.6804	25.507634	0.000207	2.066039	0.699993	0.016763
 293	1.4600e-01	11.6965	25.626514	0.000293	2.930403	0.992847	0.023776
 294	1.4650e-01	11.7703	25.713749	0.000215	2.150368	0.728564	0.017447
 295	1.4700e-01	11.8296	25.801412	0.000216	2.160909	0.732136	0.017533
 296	1.4750e-01	11.8473	25.883516	0.000202	2.023875	0.685708	0.016421
 297	1.4800e-01	11.8745	25.996837	0.000279	2.793370	0.946419	0.022664
 298	1.4850e-01	11.9387	26.090915	0.000232	2.319024	0.785707	0.018816
 299	1.4900e-01	11.9451	26.185420	0.000233	2.329565	0.789278	0.018901
 300	1.4950e-01	11.9932	26.287622	0.000252	2.519303	0.853563	0.020440
 301	1.5000e-01	12.0414	26.366733	0.000195	1.950088	0.660708	0.015822
 302	1.5050e-01	12.0702	26.484330	0.000290	2.898780	0.982133	0.023519
 303	1.5100e-01	12.1152	26.569000	0.000209	2.087121	0.707136	0.016934
 304	1.5150e-01	12.1569	26.686169	0.000289	2.888239	0.978562	0.023434
 305	1.5200e-01	12.1841	26.771267	0.000210	2.097662	0.710707	0.017019
 306	1.5250e-01	12.2708	26.833272	0.000153	1.528448	0.517852	0.012401
 307	1.5300e-01	12.2692	26.945738	-0.000277	-2.772288	-0.939276	0.022493
 308	1.5350e-01	12.2964	27.067183	0.000299	2.993649	1.014276	0.024289
 309	1.5400e-01	12.3670	27.127051	0.000148	1.475742	0.499995	0.011974
 310	1.5450e-01	12.4007	27.224977	0.000241	2.413893	0.817849	0.019585
 311	1.5500e-01	12.4649	27.324614	0.000246	2.456057	0.832135	0.019927
 312	1.5550e-01	12.4954	27.408428	0.000207	2.066039	0.699993	0.016763
 313	1.5600e-01	12.5258	27.517045	0.000268	2.677418	0.907134	0.021723
 314	1.5650e-01	12.5611	27.610695	0.000231	2.308483	0.782135	0.018730
 315	1.5700e-01	12.6189	27.711614	0.000249	2.487680	0.842849	0.020184
 316	1.5750e-01	12.6349	27.815100	0.000255	2.550926	0.864277	0.020697
 317	1.5800e-01	12.6783	27.893355	0.000193	1.929006	0.653565	0.015651
 318	1.5850e-01	12.7312	27.994275	0.000249	2.487680	0.842849	0.020184
 319	1.5900e-01	12.7553	28.102464	0.000267	2.666877	0.903563	0.021638
 320	1.5950e-01	12.8050	28.175160	0.000179	1.791973	0.607137	0.014539
 321	1.6000e-01	12.8387	28.270521	0.000235	2.350647	0.796421	0.019072
 322	1.6050e-01	12.8804	28.371013	0.000248	2.477139	0.839277	0.020098
 323	1.6100e-01	12.9397	28.447985	0.000190	1.897383	0.642851	0.015395
 324	1.6150e-01	12.9269	28.607489	-0.000393	-3.931799	-1.332130	0.031901
 325	1.6200e-01	13.0071	28.645976	0.000095	0.948692	0.321425	0.007697
 326	1.6250e-01	13.0456	28.744330	0.000242	2.424434	0.821420	0.019671
 327	1.6300e-01	13.0809	28.837552	0.000230	2.297942	0.778564	0.018644
 328	1.6350e-01	13.1290	28.934195	0.000238	2.382270	0.807135	0.019329
 329	1.6400e-01	13.1611	29.044950	0.000273	2.730124	0.924991	0.022151
 330	1.6450e-01	13.1964	29.133041	0.000217	2.171450	0.735707	0.017618
 331	1.6500e-01	13.2205	29.207020	0.000182	1.823596	0.617851	0.014796
 332	1.6550e-01	13.2943	29.313926	0.000264	2.635254	0.892848	0.021381
 333	1.6600e-01	13.3023	29.413991	0.000247	2.466598	0.835706	0.020013
 334	1.6650e-01	13.3761	29.514910	0.000249	2.487680	0.842849	0.020184
 335	1.6700e-01	13.3873	29.587179	0.000178	1.781432	0.603565	0.014454
 336	1.6750e-01	13.4547	29.687671	0.000248	2.477139	0.839277	0.020098
 337	1.6800e-01	13.4900	29.779183	0.000226	2.255778	0.764278	0.018302
 338	1.6850e-01	13.5028	29.864708	0.000211	2.108203	0.714279	0.017105
 339	1.6900e-01	13.5798	29.965200	0.000248	2.477139	0.839277	0.020098
 340	1.6950e-01	13.6135	30.052435	0.000215	2.150368	0.728564	0.017447
 341	1.7000e-01	13.6392	30.153355	0.000249	2.487680	0.842849	0.020184
 342	1.7050e-01	13.6841	30.272235	0.000293	2.930403	0.992847	0.023776
 343	1.7100e-01	13.7322	30.341510	0.000171	1.707645	0.578566	0.013855
 344	1.7150e-01	13.7547	30.442002	0.000248	2.477139	0.839277	0.020098
 345	1.7200e-01	13.8028	30.543777	0.000251	2.508762	0.849992	0.020355
 346	1.7250e-01	13.8253	30.634006	0.000222	2.224155	0.753564	0.018046
 347	1.7300e-01	13.8750	30.713116	0.000195	1.950088	0.660708	0.015822
 348	1.7350e-01	13.9087	30.826009	0.000278	2.782829	0.942848	0.022579
 349	1.7400e-01	13.9616	30.917094	0.000225	2.245237	0.760707	0.018217
 350	1.7450e-01	13.9761	31.012454	0.000235	2.350647	0.796421	0.019072
 351	1.7500e-01	14.0707	31.101400	0.000219	2.192532	0.742850	0.017789
 352	1.7550e-01	14.0627	31.187353	-0.000212	-2.118744	-0.717850	0.017191
 353	1.7600e-01	14.1381	31.274161	0.000214	2.139827	0.724993	0.017362
 354	1.7650e-01	14.1622	31.395606	0.000299	2.993649	1.014276	0.024289
 355	1.7700e-01	14.1991	31.490539	0.000234	2.340106	0.792849	0.018987
 356	1.7750e-01	14.2344	31.574781	0.000208	2.076580	0.703564	0.016848
 357	1.7800e-01	14.2729	31.691951	0.000289	2.888239	0.978562	0.023434
 358	1.7850e-01	14.3306	31.738134	0.000114	1.138430	0.385710	0.009237
 359	1.7900e-01	14.3611	31.865994	0.000315	3.151764	1.067847	0.025572
 360	1.7950e-01	14.4076	31.943822	0.000192	1.918465	0.649994	0.015566
 361	1.8000e-01	14.4525	32.015235	0.000176	1.760350	0.596423	0.014283
 362	1.8050e-01	14.4942	32.137108	0.000300	3.004190	1.017847	0.024375
 363	1.8100e-01	14.5327	32.223061	0.000212	2.118744	0.717850	0.017191
 364	1.8150e-01	14.5456	32.328685	0.000260	2.603631	0.882134	0.021125
 365	1.8200e-01	14.5969	32.416348	0.000216	2.160909	0.732136	0.017533
 366	1.8250e-01	14.6547	32.504439	0.000217	2.171450	0.735707	0.017618
 367	1.8300e-01	14.6932	32.592957	0.000218	2.181991	0.739278	0.017704
 368	1.8350e-01	14.7317	32.685752	0.000229	2.287401	0.774992	0.018559
 369	1.8400e-01	14.7541	32.793086	0.000265	2.645795	0.896420	0.021467
 370	1.8450e-01	14.7990	32.876900	0.000207	2.066039	0.699993	0.016763
 371	1.8500e-01	14.8408	32.983379	0.000262	2.624713	0.889277	0.021296
 372	1.8550e-01	14.8761	33.065911	0.000203	2.034416	0.689279	0.016506
 373	1.8600e-01	14.9113	33.167258	0.000250	2.498221	0.846420	0.020269
 374	1.8650e-01	14.9755	33.251072	0.000207	2.066039	0.699993	0.016763
 375	1.8700e-01	14.9948	33.349426	0.000242	2.424434	0.821420	0.019671
 376	1.8750e-01	15.0397	33.460181	0.000273	2.730124	0.924991	0.022151
 377	1.8800e-01	15.0862	33.535443	0.000186	1.855219	0.628565	0.015052
 378	1.8850e-01	15.1327	33.635507	0.000247	2.466598	0.835706	0.020013
 379	1.8900e-01	15.1504	33.723598	0.000217	2.171450	0.735707	0.017618
 380	1.8950e-01	15.2049	33.811689	0.000217	2.171450	0.735707	0.017618
 381	1.9000e-01	15.2498	33.892083	0.000198	1.981711	0.671422	0.016079
 382	1.9050e-01	15.2932	33.986588	0.000233	2.329565	0.789278	0.018901
 383	1.9100e-01	15.3429	34.071685	0.000210	2.097662	0.710707	0.017019
 384	1.9150e-01	15.3814	34.165763	0.000232	2.319024	0.785707	0.018816
 385	1.9200e-01	15.3974	34.288064	0.000301	3.014731	1.021419	0.024460
 386	1.9250e-01	15.4584	34.375727	0.000216	2.160909	0.732136	0.017533
 387	1.9300e-01	15.4760	34.459114	0.000206	2.055498	0.696422	0.016677
 388	1.9350e-01	15.5210	34.554047	0.000234	2.340106	0.792849	0.018987
 389	1.9400e-01	15.5739	34.654538	0.000248	2.477139	0.839277	0.020098
 390	1.9450e-01	15.6124	34.751609	0.000239	2.392811	0.810706	0.019414
 391	1.9500e-01	15.6381	34.837562	0.000212	2.118744	0.717850	0.017191
 392	1.9550e-01	15.6990	34.938482	0.000249	2.487680	0.842849	0.020184
 393	1.9600e-01	15.7455	35.006474	0.000168	1.676022	0.567852	0.013598
 394	1.9650e-01	15.7616	35.113380	0.000264	2.635254	0.892848	0.021381
 395	1.9700e-01	15.8017	35.212589	0.000245	2.445516	0.828563	0.019842
 396	1.9750e-01	15.8225	35.296404	0.000207	2.066039	0.699993	0.016763
 397	1.9800e-01	15.8675	35.401600	0.000259	2.593090	0.878563	0.021039
 398	1.9850e-01	15.9348	35.486270	0.000209	2.087121	0.707136	0.016934
 399	1.9900e-01	15.9750	35.583768	0.000240	2.403352	0.814278	0.019500
 400	1.9950e-01	16.0054	35.665445	0.000201	2.013334	0.682136	0.016335
 401	2.0000e-01	16.0167	35.779193	0.000280	2.803911	0.949991	0.022750
 402	2.0050e-01	16.0872	35.848468	0.000171	1.707645	0.578566	0.013855
 403	2.0100e-01	16.1306	35.930572	0.000202	2.023875	0.685708	0.016421
 404	2.0150e-01	16.1482	36.059715	0.000318	3.183387	1.078561	0.025829
 405	2.0200e-01	16.1819	36.146523	0.000214	2.139827	0.724993	0.017362
 406	2.0250e-01	16.2493	36.230338	0.000207	2.066039	0.699993	0.016763
 407	2.0300e-01	16.2814	36.317146	0.000214	2.139827	0.724993	0.017362
 408	2.0350e-01	16.3102	36.424907	0.000266	2.656336	0.899991	0.021552
 409	2.0400e-01	16.3824	36.515991	0.000225	2.245237	0.760707	0.018217
 410	2.0450e-01	16.4001	36.614345	0.000242	2.424434	0.821420	0.019671
 411	2.0500e-01	16.4402	36.681910	0.000167	1.665481	0.564280	0.013513
 412	2.0550e-01	16.4642	36.781547	0.000246	2.456057	0.832135	0.019927
 413	2.0600e-01	16.5316	36.863651	0.000202	2.023875	0.685708	0.016421
 414	2.0650e-01	16.5701	36.971840	0.000267	2.666877	0.903563	0.021638
 415	2.0700e-01	16.6086	37.058220	0.000213	2.129286	0.721421	0.017276
 416	2.0750e-01	16.6182	37.156146	0.000241	2.413893	0.817849	0.019585
 417	2.0800e-01	16.6728	37.252362	0.000237	2.371729	0.803564	0.019243
 418	2.0850e-01	16.7049	37.337032	0.000209	2.087121	0.707136	0.016934
 419	2.0900e-01	16.7803	37.416570	0.000196	1.960629	0.664279	0.015908
 420	2.0950e-01	16.8316	37.516634	0.000247	2.466598	0.835706	0.020013
 421	2.1000e-01	16.8477	37.611567	0.000234	2.340106	0.792849	0.018987
 422	2.1050e-01	16.8862	37.711204	0.000246	2.456057	0.832135	0.019927
 423	2.1100e-01	16.8958	37.823669	0.000277	2.772288	0.939276	0.022493
 424	2.1150e-01	16.9888	37.882254	0.000144	1.444119	0.489281	0.011717
 425	2.1200e-01	17.0177	37.965213	0.000204	2.044957	0.692850	0.016592
 426	2.1250e-01	17.0321	38.078106	0.000278	2.782829	0.942848	0.022579
 427	2.1300e-01	17.0947	38.166625	0.000218	2.181991	0.739278	0.017704
 428	2.1350e-01	17.1316	38.240604	0.000182	1.823596	0.617851	0.014796
 429	2.1400e-01	17.1476	38.354780	0.000281	2.814452	0.953562	0.022835
 430	2.1450e-01	17.1990	38.432180	0.000191	1.907924	0.646422	0.015480
 431	2.1500e-01	17.2246	38.537376	0.000259	2.593090	0.878563	0.021039
 432	2.1550e-01	17.2792	38.640006	0.000253	2.529844	0.857134	0.020526
 433	2.1600e-01	17.3402	38.708854	0.000170	1.697104	0.574994	0.013770
 434	2.1650e-01	17.3658	38.802931	0.000232	2.319024	0.785707	0.018816
 435	2.1700e-01	17.3851	38.897864	0.000234	2.340106	0.792849	0.018987
 436	2.1750e-01	17.4428	38.997073	0.000245	2.445516	0.828563	0.019842
 437	2.1800e-01	17.4813	39.087730	0.000223	2.234696	0.757135	0.018131
 438	2.1850e-01	17.5246	39.169834	0.000202	2.023875	0.685708	0.016421
 439	2.1900e-01	17.5599	39.271609	0.000251	2.508762	0.849992	0.020355
 440	2.1950e-01	17.5984	39.369962	0.000242	2.424434	0.821420	0.019671
 441	2.2000e-01	17.6145	39.465750	0.000236	2.361188	0.799992	0.019158
 442	2.2050e-01	17.6706	39.541012	0.000186	1.855219	0.628565	0.015052
 443	2.2100e-01	17.7188	39.633380	0.000228	2.276860	0.771421	0.018473
 444	2.2150e-01	17.7412	39.731306	0.000241	2.413893	0.817849	0.019585
 445	2.2200e-01	17.7990	39.823245	0.000227	2.266319	0.767850	0.018388
 446	2.2250e-01	17.8423	39.902783	0.000196	1.960629	0.664279	0.015908
 447	2.2300e-01	17.9113	39.984460	0.000201	2.013334	0.682136	0.016335
 448	2.2350e-01	17.9225	40.099491	0.000284	2.835534	0.960705	0.023006
 449	2.2400e-01	17.9674	40.193141	0.000231	2.308483	0.782135	0.018730
 450	2.2450e-01	18.0043	40.280377	0.000215	2.150368	0.728564	0.017447
 451	2.2500e-01	18.0460	40.365474	0.000210	2.097662	0.710707	0.017019
 452	2.2550e-01	18.0861	40.472380	0.000264	2.635254	0.892848	0.021381
 453	2.2600e-01	18.1487	40.536524	0.000158	1.581153	0.535709	0.012829
 454	2.2650e-01	18.1551	40.626753	0.000222	2.224155	0.753564	0.018046
 455	2.2700e-01	18.1968	40.736653	0.000271	2.709041	0.917848	0.021980
 456	2.2750e-01	18.2241	40.833296	0.000238	2.382270	0.807135	0.019329
 457	2.2800e-01	18.2915	40.894446	0.000151	1.507365	0.510709	0.012230
 458	2.2850e-01	18.3332	40.994938	0.000248	2.477139	0.839277	0.020098
 459	2.2900e-01	18.3717	41.077470	0.000203	2.034416	0.689279	0.016506
 460	2.2950e-01	18.3989	41.187370	0.000271	2.709041	0.917848	0.021980
 461	2.3000e-01	18.4535	41.270329	0.000204	2.044957	0.692850	0.016592
 462	2.3050e-01	18.4711	41.370821	0.000248	2.477139	0.839277	0.020098
 463	2.3100e-01	18.5209	41.446083	0.000186	1.855219	0.628565	0.015052
 464	2.3150e-01	18.5658	41.539733	0.000231	2.308483	0.782135	0.018730
 465	2.3200e-01	18.6075	41.620982	0.000200	2.002793	0.678565	0.016250
 466	2.3250e-01	18.6444	41.721046	0.000247	2.466598	0.835706	0.020013
 467	2.3300e-01	18.6925	41.818545	0.000240	2.403352	0.814278	0.019500
 468	2.3350e-01	18.7198	41.902359	0.000207	2.066039	0.699993	0.016763
 469	2.3400e-01	18.7711	41.981898	0.000196	1.960629	0.664279	0.015908
 470	2.3450e-01	18.7984	42.103343	0.000299	2.993649	1.014276	0.024289
 471	2.3500e-01	18.8562	42.159362	0.000138	1.380873	0.467853	0.011204
 472	2.3550e-01	18.8995	42.249163	0.000221	2.213614	0.749993	0.017960
 473	2.3600e-01	18.9299	42.354359	0.000259	2.593090	0.878563	0.021039
 474	2.3650e-01	18.9428	42.452713	0.000242	2.424434	0.821420	0.019671
 475	2.3700e-01	18.9989	42.541659	0.000219	2.192532	0.742850	0.017789
 476	2.3750e-01	19.0679	42.615638	0.000182	1.823596	0.617851	0.014796
 477	2.3800e-01	19.0856	42.712709	0.000239	2.392811	0.810706	0.019414
 478	2.3850e-01	19.1225	42.804649	0.000227	2.266319	0.767850	0.018388
 479	2.3900e-01	19.1545	42.913693	0.000269	2.687959	0.910705	0.021809
 480	2.3950e-01	19.2043	42.990238	0.000189	1.886842	0.639279	0.015309
 481	2.4000e-01	19.2412	43.073625	0.000206	2.055498	0.696422	0.016677
 482	2.4050e-01	19.3021	43.172406	0.000243	2.434975	0.824992	0.019756
 483	2.4100e-01	19.3294	43.253227	0.000199	1.992252	0.674993	0.016164
 484	2.4150e-01	19.3759	43.337897	0.000209	2.087121	0.707136	0.016934
 485	2.4200e-01	19.3904	43.446086	0.000267	2.666877	0.903563	0.021638
 486	2.4250e-01	19.4112	43.564539	0.000292	2.919862	0.989276	0.023690
 487	2.4300e-01	19.4882	43.618419	0.000133	1.328168	0.449996	0.010776
 488	2.4350e-01	19.5267	43.703089	0.000209	2.087121	0.707136	0.016934
 489	2.4400e-01	19.5781	43.774930	0.000177	1.770891	0.599994	0.014368
 490	2.4450e-01	19.6166	43.895521	0.000297	2.972567	1.007133	0.024118
 491	2.4500e-01	19.6278	43.980618	0.000210	2.097662	0.710707	0.017019
 492	2.4550e-01	19.6727	44.063150	0.000203	2.034416	0.689279	0.016506
 493	2.4600e-01	19.7369	44.147392	0.000208	2.076580	0.703564	0.016848
 494	2.4650e-01	19.7449	44.251732	0.000257	2.572008	0.871420	0.020868
 495	2.4700e-01	19.8059	44.332126	0.000198	1.981711	0.671422	0.016079
 496	2.4750e-01	19.8412	44.414230	0.000202	2.023875	0.685708	0.016421
 497	2.4800e-01	19.8620	44.510446	0.000237	2.371729	0.803564	0.019243
 498	2.4850e-01	19.9182	44.618635	0.000267	2.666877	0.903563	0.021638
 499	2.4900e-01	19.9583	44.697318	0.000194	1.939547	0.657136	0.015737
 500	2.4950e-01	20.0272	44.764455	0.000165	1.654940	0.560709	0.013427
 501	2.5000e-01	20.0385	44.870934	0.000262	2.624713	0.889277	0.021296
 502	2.5050e-01	19.9952	44.903006	-0.000079	-0.790576	-0.267855	0.006414
 503	2.5100e-01	19.9246	44.869223	0.000083	0.832740	0.282140	-0.006756
 504	2.5150e-01	19.9085	44.786264	0.000204	2.044957	0.692850	-0.016592
 505	2.5200e-01	19.8668	44.701594	0.000209	2.087121	0.707136	-0.016934
 506	2.5250e-01	19.8059	44.630608	0.000175	1.749809	0.592851	-0.014197
 507	2.5300e-01	19.7738	44.556202	0.000183	1.834137	0.621422	-0.014881
 508	2.5350e-01	19.7545	44.451861	0.000257	2.572008	0.871420	-0.020868
 509	2.5400e-01	19.7128	44.380875	0.000175	1.749809	0.592851	-0.014197
 510	2.5450e-01	19.6615	44.306469	0.000183	1.834137	0.621422	-0.014881
 511	2.5500e-01	19.6021	44.257292	0.000121	1.212217	0.410710	-0.009835
 512	2.5550e-01	19.5909	44.137557	0.000295	2.951485	0.999990	-0.023947
 513	2.5600e-01	19.5492	44.072130	0.000161	1.612776	0.546423	-0.013085
 514	2.5650e-01	19.5091	43.982756	0.000220	2.203073	0.746421	-0.017875
 515	2.5700e-01	19.4289	43.900225	0.000203	2.034416	0.689279	-0.016506
 516	2.5750e-01	19.4273	43.809996	0.000222	2.224155	0.753564	-0.018046
 517	2.5800e-01	19.4289	43.683846	-0.000311	-3.109600	-1.053561	-0.025230
 518	2.5850e-01	19.3422	43.654340	0.000073	0.727330	0.246426	-0.005901
 519	2.5900e-01	19.3198	43.553848	0.000248	2.477139	0.839277	-0.020098
 520	2.5950e-01	19.2556	43.490132	0.000157	1.570612	0.532138	-0.012743
 521	2.6000e-01	19.2203	43.408455	0.000201	2.013334	0.682136	-0.016335
 522	2.6050e-01	19.1930	43.314806	0.000231	2.308483	0.782135	-0.018730
 523	2.6100e-01	19.1465	43.217735	0.000239	2.392811	0.810706	-0.019414
 524	2.6150e-01	19.0888	43.157867	0.000148	1.475742	0.499995	-0.011974
 525	2.6200e-01	19.0471	43.074908	0.000204	2.044957	0.692850	-0.016592
 526	2.6250e-01	19.0358	42.987245	0.000216	2.160909	0.732136	-0.017533
 527	2.6300e-01	18.9925	42.902147	0.000210	2.097662	0.710707	-0.017019
 528	2.6350e-01	18.9460	42.831589	0.000174	1.739268	0.589280	-0.014112
 529	2.6400e-01	18.8786	42.758037	0.000181	1.813055	0.614280	-0.014710
 530	2.6450e-01	18.8610	42.643006	0.000284	2.835534	0.960705	-0.023006
 531	2.6500e-01	18.8080	42.583994	0.000145	1.454660	0.492852	-0.011802
 532	2.6550e-01	18.7904	42.486923	0.000239	2.392811	0.810706	-0.019414
 533	2.6600e-01	18.7615	42.398832	0.000217	2.171450	0.735707	-0.017618
 534	2.6650e-01	18.7070	42.321004	0.000192	1.918465	0.649994	-0.015566
 535	2.6700e-01	18.6877	42.226927	0.000232	2.319024	0.785707	-0.018816
 536	2.6750e-01	18.6284	42.137981	0.000219	2.192532	0.742850	-0.017789
 537	2.6800e-01	18.5770	42.058442	0.000196	1.960629	0.664279	-0.015908
 538	2.6850e-01	18.5530	41.960516	0.000241	2.413893	0.817849	-0.019585
 539	2.6900e-01	18.4824	41.918181	0.000104	1.043561	0.353568	-0.008467
 540	2.6950e-01	18.4824	41.789894	0.000316	3.162305	1.071418	-0.025658
 541	2.7000e-01	18.4294	41.722757	0.000165	1.654940	0.560709	-0.013427
 542	2.7050e-01	18.3925	41.637659	0.000210	2.097662	0.710707	-0.017019
 543	2.7100e-01	18.3476	41.550851	0.000214	2.139827	0.724993	-0.017362
 544	2.7150e-01	18.3203	41.478155	0.000179	1.791973	0.607137	-0.014539
 545	2.7200e-01	18.2578	41.376380	0.000251	2.508762	0.849992	-0.020355
 546	2.7250e-01	18.2289	41.303684	0.000179	1.791973	0.607137	-0.014539
 547	2.7300e-01	18.1551	41.225001	0.000194	1.939547	0.657136	-0.015737
 548	2.7350e-01	18.1503	41.121943	0.000254	2.540385	0.860706	-0.020612
 549	2.7400e-01	18.0909	41.050957	0.000175	1.749809	0.592851	-0.014197
 550	2.7450e-01	18.0701	40.956880	0.000232	2.319024	0.785707	-0.018816
 551	2.7500e-01	18.0203	40.870499	0.000213	2.129286	0.721421	-0.017276
 552	2.7550e-01	17.9754	40.790534	0.000197	1.971170	0.667851	-0.015993
 553	2.7600e-01	17.9000	40.716127	0.000183	1.834137	0.621422	-0.014881
 554	2.7650e-01	17.8872	40.629746	0.000213	2.129286	0.721421	-0.017276
 555	2.7700e-01	17.8679	40.524551	0.000259	2.593090	0.878563	-0.021039
 556	2.7750e-01	17.8150	40.433039	0.000226	2.255778	0.764278	-0.018302
 557	2.7800e-01	17.7621	40.362053	0.000175	1.749809	0.592851	-0.014197
 558	2.7850e-01	17.7492	40.279521	0.000203	2.034416	0.689279	-0.016506
 559	2.7900e-01	17.6754	40.212812	0.000164	1.644399	0.557137	-0.013342
 560	2.7950e-01	17.6899	40.089656	-0.000304	-3.035813	-1.028561	-0.024631
 561	2.8000e-01	17.6081	40.022091	0.000167	1.665481	0.564280	-0.013513
 562	2.8050e-01	17.5872	39.941697	0.000198	1.981711	0.671422	-0.016079
 563	2.8100e-01	17.5311	39.860021	0.000201	2.013334	0.682136	-0.016335
 564	2.8150e-01	17.4861	39.756963	0.000254	2.540385	0.860706	-0.020612
 565	2.8200e-01	17.4621	39.671866	0.000210	2.097662	0.710707	-0.017019
 566	2.8250e-01	17.3803	39.583775	0.000217	2.171450	0.735707	-0.017618
 567	2.8300e-01	17.3787	39.504237	0.000196	1.960629	0.664279	-0.015908
 568	2.8350e-01	17.3835	39.387923	-0.000287	-2.867157	-0.971419	-0.023263
 569	2.8400e-01	17.2984	39.322496	0.000161	1.612776	0.546423	-0.013085
 570	2.8450e-01	17.2439	39.238681	0.000207	2.066039	0.699993	-0.016763
 571	2.8500e-01	17.2359	39.157433	0.000200	2.002793	0.678565	-0.016250
 572	2.8550e-01	17.1701	39.056941	0.000248	2.477139	0.839277	-0.020098
 573	2.8600e-01	17.1300	38.981251	0.000187	1.865760	0.632137	-0.015138
 574	2.8650e-01	17.1236	38.901285	0.000197	1.971170	0.667851	-0.015993
 575	2.8700e-01	17.0819	38.791813	0.000270	2.698500	0.914277	-0.021894
 576	2.8750e-01	17.0273	38.708854	0.000204	2.044957	0.692850	-0.016592
 577	2.8800e-01	16.9648	38.632309	0.000189	1.886842	0.639279	-0.015309
 578	2.8850e-01	16.9134	38.547211	0.000210	2.097662	0.710707	-0.017019
 579	2.8900e-01	16.9006	38.465107	0.000202	2.023875	0.685708	-0.016421
 580	2.8950e-01	16.8573	38.380010	0.000210	2.097662	0.710707	-0.017019
 581	2.9000e-01	16.8220	38.261985	0.000291	2.909321	0.985705	-0.023605
 582	2.9050e-01	16.7883	38.196559	0.000161	1.612776	0.546423	-0.013085
 583	2.9100e-01	16.7370	38.106330	0.000222	2.224155	0.753564	-0.018046
 584	2.9150e-01	16.6888	38.035771	0.000174	1.739268	0.589280	-0.014112
 585	2.9200e-01	16.6503	37.928865	0.000264	2.635254	0.892848	-0.021381
 586	2.9250e-01	16.6054	37.845906	0.000204	2.044957	0.692850	-0.016592
 587	2.9300e-01	16.5589	37.768506	0.000191	1.907924	0.646422	-0.015480
 588	2.9350e-01	16.5252	37.678704	0.000221	2.213614	0.749993	-0.017960
 589	2.9400e-01	16.5011	37.572653	0.000261	2.614172	0.885706	-0.021210
 590	2.9450e-01	16.4674	37.478576	0.000232	2.319024	0.785707	-0.018816
 591	2.9500e-01	16.4145	37.411866	0.000164	1.644399	0.557137	-0.013342
 592	2.9550e-01	16.3792	37.318216	0.000231	2.308483	0.782135	-0.018730
 593	2.9600e-01	16.3038	37.246803	0.000176	1.760350	0.596423	-0.014283
 594	2.9650e-01	16.2974	37.142035	0.000258	2.582549	0.874991	-0.020954
 595	2.9700e-01	16.2364	37.058648	0.000206	2.055498	0.696422	-0.016677
 596	2.9750e-01	16.2011	36.979965	0.000194	1.939547	0.657136	-0.015737
 597	2.9800e-01	16.1610	36.882466	0.000240	2.403352	0.814278	-0.019500
 598	2.9850e-01	16.1338	36.775987	0.000262	2.624713	0.889277	-0.021296
 599	2.9900e-01	16.0953	36.713982	0.000153	1.528448	0.517852	-0.012401
 600	2.9950e-01	16.0520	36.627601	0.000213	2.129286	0.721421	-0.017276
 601	3.0000e-01	16.0102	36.532241	0.000235	2.350647	0.796421	-0.019072
 602	3.0050e-01	15.9782	36.443723	0.000218	2.181991	0.739278	-0.017704
 603	3.0100e-01	15.9397	36.347935	0.000236	2.361188	0.799992	-0.019158
 604	3.0150e-01	15.8931	36.271817	0.000188	1.876301	0.635708	-0.015223
 605	3.0200e-01	15.8787	36.180733	0.000225	2.245237	0.760707	-0.018217
 606	3.0250e-01	15.8065	36.094780	0.000212	2.118744	0.717850	-0.017191
 607	3.0300e-01	15.7921	35.990440	0.000257	2.572008	0.871420	-0.020868
 608	3.0350e-01	15.7183	35.929289	0.000151	1.507365	0.510709	-0.012230
 609	3.0400e-01	15.6926	35.820673	0.000268	2.677418	0.907134	-0.021723
 610	3.0450e-01	15.6589	35.741562	0.000195	1.950088	0.660708	-0.015822
 611	3.0500e-01	15.6156	35.657747	0.000207	2.066039	0.699993	-0.016763
 612	3.0550e-01	15.5867	35.561104	0.000238	2.382270	0.807135	-0.019329
 613	3.0600e-01	15.5578	35.464033	0.000239	2.392811	0.810706	-0.019414
 614	3.0650e-01	15.4873	35.388343	0.000187	1.865760	0.632137	-0.015138
 615	3.0700e-01	15.4632	35.303246	0.000210	2.097662	0.710707	-0.017019
 616	3.0750e-01	15.3942	35.199333	0.000256	2.561467	0.867849	-0.020783
 617	3.0800e-01	15.3734	35.126637	0.000179	1.791973	0.607137	-0.014539
 618	3.0850e-01	15.3429	35.032987	0.000231	2.308483	0.782135	-0.018730
 619	3.0900e-01	15.2851	34.954304	0.000194	1.939547	0.657136	-0.015737
 620	3.0950e-01	15.2530	34.858088	0.000237	2.371729	0.803564	-0.019243
 621	3.1000e-01	15.2226	34.761445	0.000238	2.382270	0.807135	-0.019329
 622	3.1050e-01	15.1921	34.684045	0.000191	1.907924	0.646422	-0.015480
 623	3.1100e-01	15.1600	34.583980	0.000247	2.466598	0.835706	-0.020013
 624	3.1150e-01	15.1183	34.503159	0.000199	1.992252	0.674993	-0.016164
 625	3.1200e-01	15.0252	34.412930	0.000222	2.224155	0.753564	-0.018046
 626	3.1250e-01	15.0381	34.341089	-0.000177	-1.770891	-0.599994	-0.014368
 627	3.1300e-01	14.9883	34.231617	0.000270	2.698500	0.914277	-0.021894
 628	3.1350e-01	14.9322	34.141388	0.000222	2.224155	0.753564	-0.018046
 629	3.1400e-01	14.9194	34.034482	0.000264	2.635254	0.892848	-0.021381
 630	3.1450e-01	14.8375	33.967345	0.000165	1.654940	0.560709	-0.013427
 631	3.1500e-01	14.8151	33.876260	0.000225	2.245237	0.760707	-0.018217
 632	3.1550e-01	14.7638	33.800571	0.000187	1.865760	0.632137	-0.015138
 633	3.1600e-01	14.7285	33.698796	0.000251	2.508762	0.849992	-0.020355
 634	3.1650e-01	14.7269	33.603863	0.000234	2.340106	0.792849	-0.018987
 635	3.1700e-01	14.6675	33.517910	0.000212	2.118744	0.717850	-0.017191
 636	3.1750e-01	14.6354	33.417419	0.000248	2.477139	0.839277	-0.020098
 637	3.1800e-01	14.5664	33.328900	0.000218	2.181991	0.739278	-0.017704
 638	3.1850e-01	14.5376	33.256631	0.000178	1.781432	0.603565	-0.014454
 639	3.1900e-01	14.4894	33.171534	0.000210	2.097662	0.710707	-0.017019
 640	3.1950e-01	14.4445	33.074035	0.000240	2.403352	0.814278	-0.019500
 641	3.2000e-01	14.3996	32.987655	0.000213	2.129286	0.721421	-0.017276
 642	3.2050e-01	14.3836	32.894005	0.000231	2.308483	0.782135	-0.018730
 643	3.2100e-01	14.3402	32.796934	0.000239	2.392811	0.810706	-0.019414
 644	3.2150e-01	14.3354	32.719962	0.000190	1.897383	0.642851	-0.015395
 645	3.2200e-01	14.2761	32.613055	0.000264	2.635254	0.892848	-0.021381
 646	3.2250e-01	14.1991	32.533517	0.000196	1.960629	0.664279	-0.015908
 647	3.2300e-01	14.1894	32.436874	0.000238	2.382270	0.807135	-0.019329
 648	3.2350e-01	14.1445	32.354770	0.000202	2.023875	0.685708	-0.016421
 649	3.2400e-01	14.1028	32.252140	0.000253	2.529844	0.857134	-0.020526
 650	3.2450e-01	14.0659	32.188851	0.000156	1.560071	0.528566	-0.012658
 651	3.2500e-01	14.0033	32.099050	0.000221	2.213614	0.749993	-0.017960
 652	3.2550e-01	13.9793	31.996420	0.000253	2.529844	0.857134	-0.020526
 653	3.2600e-01	13.9408	31.909184	0.000215	2.150368	0.728564	-0.017447
 654	3.2650e-01	13.9023	31.815534	0.000231	2.308483	0.782135	-0.018730
 655	3.2700e-01	13.8846	31.713759	0.000251	2.508762	0.849992	-0.020355
 656	3.2750e-01	13.7932	31.637215	0.000189	1.886842	0.639279	-0.015309
 657	3.2800e-01	13.7916	31.548268	0.000219	2.192532	0.742850	-0.017789
 658	3.2850e-01	13.7258	31.456757	0.000226	2.255778	0.764278	-0.018302
 659	3.2900e-01	13.6937	31.365672	0.000225	2.245237	0.760707	-0.018217
 660	3.2950e-01	13.6616	31.266463	0.000245	2.445516	0.828563	-0.019842
 661	3.3000e-01	13.6183	31.181794	0.000209	2.087121	0.707136	-0.016934
 662	3.3050e-01	13.5654	31.107814	0.000182	1.823596	0.617851	-0.014796
 663	3.3100e-01	13.5269	31.003901	0.000256	2.561467	0.867849	-0.020783
 664	3.3150e-01	13.4900	30.908113	0.000236	2.361188	0.799992	-0.019158
 665	3.3200e-01	13.4723	30.813181	0.000234	2.340106	0.792849	-0.018987
 666	3.3250e-01	13.4226	30.751603	0.000152	1.517907	0.514281	-0.012316
 667	3.3300e-01	13.3729	30.656242	0.000235	2.350647	0.796421	-0.019072
 668	3.3350e-01	13.3456	30.540783	0.000285	2.846075	0.964276	-0.023092
 669	3.3400e-01	13.2943	30.465949	0.000184	1.844678	0.624994	-0.014967
 670	3.3450e-01	13.2558	30.357332	0.000268	2.677418	0.907134	-0.021723
 671	3.3500e-01	13.2317	30.262399	0.000234	2.340106	0.792849	-0.018987
 672	3.3550e-01	13.1804	30.194407	0.000168	1.676022	0.567852	-0.013598
 673	3.3600e-01	13.1547	30.076810	0.000290	2.898780	0.982133	-0.023519
 674	3.3650e-01	13.1242	29.984015	0.000229	2.287401	0.774992	-0.018559
 675	3.3700e-01	13.0392	29.926286	0.000142	1.423037	0.482138	-0.011546
 676	3.3750e-01	13.0119	29.821090	0.000259	2.593090	0.878563	-0.021039
 677	3.3800e-01	12.9702	29.720170	0.000249	2.487680	0.842849	-0.020184
 678	3.3850e-01	12.9446	29.631652	0.000218	2.181991	0.739278	-0.017704
 679	3.3900e-01	12.9205	29.508924	0.000303	3.025272	1.024990	-0.024546
 680	3.3950e-01	12.8451	29.473858	0.000086	0.864363	0.292854	-0.007013
 681	3.4000e-01	12.8130	29.368235	0.000260	2.603631	0.882134	-0.021125
 682	3.4050e-01	12.7761	29.279289	0.000219	2.192532	0.742850	-0.017789
 683	3.4100e-01	12.7488	29.186494	0.000229	2.287401	0.774992	-0.018559
 684	3.4150e-01	12.7071	29.100541	0.000212	2.118744	0.717850	-0.017191
 685	3.4200e-01	12.6959	28.986365	0.000281	2.814452	0.953562	-0.022835
 686	3.4250e-01	12.6061	28.935050	0.000126	1.264922	0.428567	-0.010263
 687	3.4300e-01	12.5884	28.830710	0.000257	2.572008	0.871420	-0.020868
 688	3.4350e-01	12.5178	28.738770	0.000227	2.266319	0.767850	-0.018388
 689	3.4400e-01	12.4938	28.638278	0.000248	2.477139	0.839277	-0.020098
 690	3.4450e-01	12.4392	28.566437	0.000177	1.770891	0.599994	-0.014368
 691	3.4500e-01	12.4248	28.473215	0.000230	2.297942	0.778564	-0.018644
 692	3.4550e-01	12.3895	28.373151	0.000247	2.466598	0.835706	-0.020013
 693	3.4600e-01	12.3510	28.282067	0.000225	2.245237	0.760707	-0.018217
 694	3.4650e-01	12.2932	28.184568	0.000240	2.403352	0.814278	-0.019500
 695	3.4700e-01	12.2660	28.088780	0.000236	2.361188	0.799992	-0.019158
 696	3.4750e-01	12.2162	28.007531	0.000200	2.002793	0.678565	-0.016250
 697	3.4800e-01	12.1665	27.936118	0.000176	1.760350	0.596423	-0.014283
 698	3.4850e-01	12.1408	27.816810	0.000294	2.940944	0.996419	-0.023861
 699	3.4900e-01	12.1087	27.727437	0.000220	2.203073	0.746421	-0.017875
 700	3.4950e-01	12.0638	27.634214	0.000230	2.297942	0.778564	-0.018644
 701	3.5000e-01	12.0077	27.550827	0.000206	2.055498	0.696422	-0.016677
 702	3.5050e-01	11.9740	27.455467	0.000235	2.350647	0.796421	-0.019072
 703	3.5100e-01	11.9291	27.343001	0.000277	2.772288	0.939276	-0.022493
 704	3.5150e-01	11.8922	27.259187	0.000207	2.066039	0.699993	-0.016763
 705	3.5200e-01	11.8569	27.177511	0.000201	2.013334	0.682136	-0.016335
 706	3.5250e-01	11.8120	27.083433	0.000232	2.319024	0.785707	-0.018816
 707	3.5300e-01	11.7366	26.999618	0.000207	2.066039	0.699993	-0.016763
 708	3.5350e-01	11.7382	26.901692	-0.000241	-2.413893	-0.817849	-0.019585
 709	3.5400e-01	11.6852	26.809753	0.000227	2.266319	0.767850	-0.018388
 710	3.5450e-01	11.6580	26.712254	0.000240	2.403352	0.814278	-0.019500
 711	3.5500e-01	11.6291	26.610907	0.000250	2.498221	0.846420	-0.020269
 712	3.5550e-01	11.5777	26.524954	0.000212	2.118744	0.717850	-0.017191
 713	3.5600e-01	11.5537	26.436008	0.000219	2.192532	0.742850	-0.017789
 714	3.5650e-01	11.4927	26.348345	0.000216	2.160909	0.732136	-0.017533
 715	3.5700e-01	11.4751	26.247426	0.000249	2.487680	0.842849	-0.020184
 716	3.5750e-01	11.4286	26.153348	0.000232	2.319024	0.785707	-0.018816
 717	3.5800e-01	11.3852	26.047725	0.000260	2.603631	0.882134	-0.021125
 718	3.5850e-01	11.3195	25.990423	0.000141	1.412496	0.478567	-0.011460
 719	3.5900e-01	11.3179	25.893779	0.000238	2.382270	0.807135	-0.019329
 720	3.5950e-01	11.2393	25.814241	0.000196	1.960629	0.664279	-0.015908
 721	3.6000e-01	11.2104	25.702631	0.000275	2.751206	0.932134	-0.022322
 722	3.6050e-01	11.1655	25.613257	0.000220	2.203073	0.746421	-0.017875
 723	3.6100e-01	11.1414	25.511910	0.000250	2.498221	0.846420	-0.020269
 724	3.6150e-01	11.0917	25.415267	0.000238	2.382270	0.807135	-0.019329
 725	3.6200e-01	11.0612	25.331452	0.000207	2.066039	0.699993	-0.016763
 726	3.6250e-01	11.0307	25.235664	0.000236	2.361188	0.799992	-0.019158
 727	3.6300e-01	10.9585	25.132606	0.000254	2.540385	0.860706	-0.020612
 728	3.6350e-01	10.9296	25.057772	0.000184	1.844678	0.624994	-0.014967
 729	3.6400e-01	10.9312	24.962412	-0.000235	-2.350647	-0.796421	-0.019072
 730	3.6450e-01	10.8799	24.861920	0.000248	2.477139	0.839277	-0.020098
 731	3.6500e-01	10.8125	24.775112	0.000214	2.139827	0.724993	-0.017362
 732	3.6550e-01	10.7869	24.678896	0.000237	2.371729	0.803564	-0.019243
 733	3.6600e-01	10.7740	24.565148	0.000280	2.803911	0.949991	-0.022750
 734	3.6650e-01	10.6922	24.503570	0.000152	1.517907	0.514281	-0.012316
 735	3.6700e-01	10.6489	24.421466	0.000202	2.023875	0.685708	-0.016421
 736	3.6750e-01	10.6345	24.309855	0.000275	2.751206	0.932134	-0.022322
 737	3.6800e-01	10.5831	24.229034	0.000199	1.992252	0.674993	-0.016164
 738	3.6850e-01	10.5302	24.125549	0.000255	2.550926	0.864277	-0.020697
 739	3.6900e-01	10.4933	24.035320	0.000222	2.224155	0.753564	-0.018046
 740	3.6950e-01	10.4724	23.933545	0.000251	2.508762	0.849992	-0.020355
 741	3.7000e-01	10.4083	23.862132	0.000176	1.760350	0.596423	-0.014283
 742	3.7050e-01	10.3666	23.758219	0.000256	2.561467	0.867849	-0.020783
 743	3.7100e-01	10.3329	23.669700	0.000218	2.181991	0.739278	-0.017704
 744	3.7150e-01	10.2847	23.559373	0.000272	2.719582	0.921419	-0.022065
 745	3.7200e-01	10.2847	23.476414	0.000204	2.044957	0.692850	-0.016592
 746	3.7250e-01	10.2270	23.351547	0.000308	3.077977	1.042847	-0.024973
 747	3.7300e-01	10.1805	23.276285	0.000186	1.855219	0.628565	-0.015052
 748	3.7350e-01	10.1291	23.207010	0.000171	1.707645	0.578566	-0.013855
 749	3.7400e-01	10.1163	23.101814	0.000259	2.593090	0.878563	-0.021039
 750	3.7450e-01	10.0601	23.006026	0.000236	2.361188	0.799992	-0.019158
 751	3.7500e-01	10.0265	22.912376	0.000231	2.308483	0.782135	-0.018730
 752	3.7550e-01	9.9735	22.811029	0.000250	2.498221	0.846420	-0.020269
 753	3.7600e-01	9.9318	22.742609	0.000169	1.686563	0.571423	-0.013684
 754	3.7650e-01	9.9174	22.623301	0.000294	2.940944	0.996419	-0.023861
 755	3.7700e-01	9.8484	22.527513	0.000236	2.361188	0.799992	-0.019158
 756	3.7750e-01	9.8372	22.441133	0.000213	2.129286	0.721421	-0.017276
 757	3.7800e-01	9.7698	22.356036	0.000210	2.097662	0.710707	-0.017019
 758	3.7850e-01	9.7329	22.271793	0.000208	2.076580	0.703564	-0.016848
 759	3.7900e-01	9.7313	22.137519	0.000331	3.309879	1.121418	-0.026855
 760	3.7950e-01	9.6318	22.078507	0.000145	1.454660	0.492852	-0.011802
 761	3.8000e-01	9.5917	21.999396	0.000195	1.950088	0.660708	-0.015822
 762	3.8050e-01	9.5933	21.882654	-0.000288	-2.877698	-0.974990	-0.023348
 763	3.8100e-01	9.5227	21.782162	0.000248	2.477139	0.839277	-0.020098
 764	3.8150e-01	9.4890	21.704335	0.000192	1.918465	0.649994	-0.015566
 765	3.8200e-01	9.4602	21.594435	0.000271	2.709041	0.917848	-0.021980
 766	3.8250e-01	9.4104	21.510193	0.000208	2.076580	0.703564	-0.016848
 767	3.8300e-01	9.3671	21.413977	0.000237	2.371729	0.803564	-0.019243
 768	3.8350e-01	9.3302	21.314768	0.000245	2.445516	0.828563	-0.019842
 769	3.8400e-01	9.2837	21.217697	0.000239	2.392811	0.810706	-0.019414
 770	3.8450e-01	9.2372	21.128323	0.000220	2.203073	0.746421	-0.017875
 771	3.8500e-01	9.2612	21.032108	-0.000237	-2.371729	-0.803564	-0.019243
 772	3.8550e-01	9.1698	20.937175	0.000234	2.340106	0.792849	-0.018987
 773	3.8600e-01	9.1586	20.847374	0.000221	2.213614	0.749993	-0.017960
 774	3.8650e-01	9.0960	20.775105	0.000178	1.781432	0.603565	-0.014454
 775	3.8700e-01	9.0575	20.657080	0.000291	2.909321	0.985705	-0.023605
 776	3.8750e-01	9.0222	20.564286	0.000229	2.287401	0.774992	-0.018559
 777	3.8800e-01	8.9933	20.466359	0.000241	2.413893	0.817849	-0.019585
 778	3.8850e-01	8.9372	20.386394	0.000197	1.971170	0.667851	-0.015993
 779	3.8900e-01	8.9276	20.291888	0.000233	2.329565	0.789278	-0.018901
 780	3.8950e-01	8.8554	20.186693	0.000259	2.593090	0.878563	-0.021039
 781	3.9000e-01	8.8201	20.105871	0.000199	1.992252	0.674993	-0.016164
 782	3.9050e-01	8.7992	20.004097	0.000251	2.508762	0.849992	-0.020355
 783	3.9100e-01	8.7479	19.903605	0.000248	2.477139	0.839277	-0.020098
 784	3.9150e-01	8.7014	19.821928	0.000201	2.013334	0.682136	-0.016335
 785	3.9200e-01	8.6436	19.722291	0.000246	2.456057	0.832135	-0.019927
 786	3.9250e-01	8.6276	19.611109	0.000274	2.740665	0.928562	-0.022237
 787	3.9300e-01	8.5907	19.529432	0.000201	2.013334	0.682136	-0.016335
 788	3.9350e-01	8.5265	19.434500	0.000234	2.340106	0.792849	-0.018987
 789	3.9400e-01	8.5217	19.342133	0.000228	2.276860	0.771421	-0.018473
 790	3.9450e-01	8.4463	19.251904	0.000222	2.224155	0.753564	-0.018046
 791	3.9500e-01	8.4158	19.154405	0.000240	2.403352	0.814278	-0.019500
 792	3.9550e-01	8.3468	19.073156	0.000200	2.002793	0.678565	-0.016250
 793	3.9600e-01	8.3099	18.957270	0.000286	2.856616	0.967848	-0.023177
 794	3.9650e-01	8.2971	18.872172	0.000210	2.097662	0.710707	-0.017019
 795	3.9700e-01	8.2634	18.777667	0.000233	2.329565	0.789278	-0.018901
 796	3.9750e-01	8.2442	18.668623	0.000269	2.687959	0.910705	-0.021809
 797	3.9800e-01	8.1639	18.577539	0.000225	2.245237	0.760707	-0.018217
 798	3.9850e-01	8.1222	18.486882	0.000223	2.234696	0.757135	-0.018131
 799	3.9900e-01	8.1014	18.399647	0.000215	2.150368	0.728564	-0.017447
 800	3.9950e-01	8.0324	18.294451	0.000259	2.593090	0.878563	-0.021039
 801	4.0000e-01	8.0276	18.191821	0.000253	2.529844	0.857134	-0.020526
 802	4.0050e-01	7.9618	18.119980	0.000177	1.770891	0.599994	-0.014368
 803	4.0100e-01	7.9442	18.022909	0.000239	2.392811	0.810706	-0.019414
 804	4.0150e-01	7.8688	17.928403	0.000233	2.329565	0.789278	-0.018901
 805	4.0200e-01	7.8559	17.825773	0.000253	2.529844	0.857134	-0.020526
 806	4.0250e-01	7.7982	17.768044	0.000142	1.423037	0.482138	-0.011546
 807	4.0300e-01	7.7645	17.638046	0.000320	3.204469	1.085704	-0.026000
 808	4.0350e-01	7.7099	17.531567	0.000262	2.624713	0.889277	-0.021296
 809	4.0400e-01	7.6859	17.454595	0.000190	1.897383	0.642851	-0.015395
 810	4.0450e-01	7.6602	17.346405	0.000267	2.666877	0.903563	-0.021638
 811	4.0500e-01	7.6265	17.239499	0.000264	2.635254	0.892848	-0.021381
 812	4.0550e-01	7.5591	17.155257	0.000208	2.076580	0.703564	-0.016848
 813	4.0600e-01	7.5559	17.050489	0.000258	2.582549	0.874991	-0.020954
 814	4.0650e-01	7.4998	16.957266	0.000230	2.297942	0.778564	-0.018644
 815	4.0700e-01	7.4436	16.893978	0.000156	1.560071	0.528566	-0.012658
 816	4.0750e-01	7.4244	16.775098	0.000293	2.930403	0.992847	-0.023776
 817	4.0800e-01	7.3490	16.691284	0.000207	2.066039	0.699993	-0.016763
 818	4.0850e-01	7.3426	16.590364	0.000249	2.487680	0.842849	-0.020184
 819	4.0900e-01	7.2944	16.498852	0.000226	2.255778	0.764278	-0.018302
 820	4.0950e-01	7.2447	16.411617	0.000215	2.150368	0.728564	-0.017447
 821	4.1000e-01	7.2110	16.303427	0.000267	2.666877	0.903563	-0.021638
 822	4.1050e-01	7.1773	16.208067	0.000235	2.350647	0.796421	-0.019072
 823	4.1100e-01	7.1404	16.110996	0.000239	2.392811	0.810706	-0.019414
 824	4.1150e-01	7.0795	16.021195	0.000221	2.213614	0.749993	-0.017960
 825	4.1200e-01	7.0506	15.924979	0.000237	2.371729	0.803564	-0.019243
 826	4.1250e-01	7.0314	15.819356	0.000260	2.603631	0.882134	-0.021125
 827	4.1300e-01	6.9784	15.730837	0.000218	2.181991	0.739278	-0.017704
 828	4.1350e-01	6.9255	15.625214	0.000260	2.603631	0.882134	-0.021125
 829	4.1400e-01	6.8966	15.534130	0.000225	2.245237	0.760707	-0.018217
 830	4.1450e-01	6.8581	15.449460	0.000209	2.087121	0.707136	-0.016934
 831	4.1500e-01	6.8132	15.361797	0.000216	2.160909	0.732136	-0.017533
 832	4.1550e-01	6.7699	15.257028	0.000258	2.582549	0.874991	-0.020954
 833	4.1600e-01	6.7346	15.165944	0.000225	2.245237	0.760707	-0.018217
 834	4.1650e-01	6.7073	15.049202	0.000288	2.877698	0.974990	-0.023348
 835	4.1700e-01	6.6832	14.970519	0.000194	1.939547	0.657136	-0.015737
 836	4.1750e-01	6.6399	14.858054	0.000277	2.772288	0.939276	-0.022493
 837	4.1800e-01	6.5549	14.783220	0.000184	1.844678	0.624994	-0.014967
 838	4.1850e-01	6.5260	14.691708	0.000226	2.255778	0.764278	-0.018302
 839	4.1900e-01	6.4939	14.581808	0.000271	2.709041	0.917848	-0.021980
 840	4.1950e-01	6.4891	14.445396	0.000336	3.362585	1.139274	-0.027282
 841	4.2000e-01	6.3961	14.404771	0.000100	1.001397	0.339282	-0.008125
 842	4.2050e-01	6.3848	14.308983	0.000236	2.361188	0.799992	-0.019158
 843	4.2100e-01	6.3528	14.194380	0.000282	2.824993	0.957133	-0.022921
 844	4.2150e-01	6.2806	14.123394	0.000175	1.749809	0.592851	-0.014197
 845	4.2200e-01	6.2726	13.986981	0.000336	3.362585	1.139274	-0.027282
 846	4.2250e-01	6.1939	13.925403	0.000152	1.517907	0.514281	-0.012316
 847	4.2300e-01	6.1923	13.820635	0.000258	2.582549	0.874991	-0.020954
 848	4.2350e-01	6.1859	13.708597	0.000276	2.761747	0.935705	-0.022408
 849	4.2400e-01	6.0608	13.638039	0.000174	1.739268	0.589280	-0.014112
 850	4.2450e-01	6.0544	13.531560	0.000262	2.624713	0.889277	-0.021296
 851	4.2500e-01	6.0239	13.434062	0.000240	2.403352	0.814278	-0.019500
 852	4.2550e-01	5.9838	13.327155	0.000264	2.635254	0.892848	-0.021381
 853	4.2600e-01	5.9437	13.239492	0.000216	2.160909	0.732136	-0.017533
 854	4.2650e-01	5.9164	13.153540	0.000212	2.118744	0.717850	-0.017191
 855	4.2700e-01	5.8314	13.060745	0.000229	2.287401	0.774992	-0.018559
 856	4.2750e-01	5.8298	12.967095	0.000231	2.308483	0.782135	-0.018730
 857	4.2800e-01	5.7656	12.845649	0.000299	2.993649	1.014276	-0.024289
 858	4.2850e-01	5.7207	12.760124	0.000211	2.108203	0.714279	-0.017105
 859	4.2900e-01	5.7014	12.669895	0.000222	2.224155	0.753564	-0.018046
 860	4.2950e-01	5.6662	12.559568	0.000272	2.719582	0.921419	-0.022065
 861	4.3000e-01	5.6453	12.460787	0.000243	2.434975	0.824992	-0.019756
 862	4.3050e-01	5.5779	12.370558	0.000222	2.224155	0.753564	-0.018046
 863	4.3100e-01	5.5298	12.303848	0.000164	1.644399	0.557137	-0.013342
 864	4.3150e-01	5.5009	12.178126	0.000310	3.099059	1.049990	-0.025144
 865	4.3200e-01	5.4576	12.078490	0.000246	2.456057	0.832135	-0.019927
 866	4.3250e-01	5.4271	11.989116	0.000220	2.203073	0.746421	-0.017875
 867	4.3300e-01	5.3485	11.917703	0.000176	1.760350	0.596423	-0.014283
 868	4.3350e-01	5.3373	11.809513	0.000267	2.666877	0.903563	-0.021638
 869	4.3400e-01	5.2988	11.697476	0.000276	2.761747	0.935705	-0.022408
 870	4.3450e-01	5.2458	11.606819	0.000223	2.234696	0.757135	-0.018131
 871	4.3500e-01	5.2057	11.496492	0.000272	2.719582	0.921419	-0.022065
 872	4.3550e-01	5.1688	11.425934	0.000174	1.739268	0.589280	-0.014112
 873	4.3600e-01	5.1255	11.322876	0.000254	2.540385	0.860706	-0.020612
 874	4.3650e-01	5.0886	11.222384	0.000248	2.477139	0.839277	-0.020098
 875	4.3700e-01	5.0598	11.116760	0.000260	2.603631	0.882134	-0.021125
 876	4.3750e-01	5.0036	11.023538	0.000230	2.297942	0.778564	-0.018644
 877	4.3800e-01	4.9763	10.920908	0.000253	2.529844	0.857134	-0.020526
 878	4.3850e-01	4.9362	10.846074	0.000184	1.844678	0.624994	-0.014967
 879	4.3900e-01	4.9122	10.733181	0.000278	2.782829	0.942848	-0.022579
 880	4.3950e-01	4.8769	10.613873	0.000294	2.940944	0.996419	-0.023861
 881	4.4000e-01	4.8223	10.531769	0.000202	2.023875	0.685708	-0.016421
 882	4.4050e-01	4.8047	10.433415	0.000242	2.424434	0.821420	-0.019671
 883	4.4100e-01	4.7357	10.345752	0.000216	2.160909	0.732136	-0.017533
 884	4.4150e-01	4.6972	10.255951	0.000221	2.213614	0.749993	-0.017960
 885	4.4200e-01	4.6651	10.152893	0.000254	2.540385	0.860706	-0.020612
 886	4.4250e-01	4.6234	10.065230	0.000216	2.160909	0.732136	-0.017533
 887	4.4300e-01	4.5737	9.954475	0.000273	2.730124	0.924991	-0.022151
 888	4.4350e-01	4.5448	9.865957	0.000218	2.181991	0.739278	-0.017704
 889	4.4400e-01	4.4902	9.768886	0.000239	2.392811	0.810706	-0.019414
 890	4.4450e-01	4.4485	9.680367	0.000218	2.181991	0.739278	-0.017704
 891	4.4500e-01	4.4020	9.592704	0.000216	2.160909	0.732136	-0.017533
 892	4.4550e-01	4.3780	9.484942	0.000266	2.656336	0.899991	-0.021552
 893	4.4600e-01	4.3314	9.386589	0.000242	2.424434	0.821420	-0.019671
 894	4.4650e-01	4.2833	9.295077	0.000226	2.255778	0.764278	-0.018302
 895	4.4700e-01	4.2785	9.194585	0.000248	2.477139	0.839277	-0.020098
 896	4.4750e-01	4.2191	9.085968	0.000268	2.677418	0.907134	-0.021723
 897	4.4800e-01	4.1935	8.987614	0.000242	2.424434	0.821420	-0.019671
 898	4.4850e-01	4.1421	8.885412	0.000252	2.519303	0.853563	-0.020440
 899	4.4900e-01	4.0924	8.797321	0.000217	2.171450	0.735707	-0.017618
 900	4.4950e-01	4.0250	8.704099	0.000230	2.297942	0.778564	-0.018644
 901	4.5000e-01	4.0170	8.625416	0.000194	1.939547	0.657136	-0.015737
 902	4.5050e-01	3.9881	8.493279	0.000326	3.257174	1.103561	-0.026427
 903	4.5100e-01	3.9416	8.407327	0.000212	2.118744	0.717850	-0.017191
 904	4.5150e-01	3.8951	8.314532	0.000229	2.287401	0.774992	-0.018559
 905	4.5200e-01	3.8582	8.223875	0.000223	2.234696	0.757135	-0.018131
 906	4.5250e-01	3.8373	8.110127	0.000280	2.803911	0.949991	-0.022750
 907	4.5300e-01	3.7828	8.030161	0.000197	1.971170	0.667851	-0.015993
 908	4.5350e-01	3.7379	7.926676	0.000255	2.550926	0.864277	-0.020697
 909	4.5400e-01	3.6833	7.831743	0.000234	2.340106	0.792849	-0.018987
 910	4.5450e-01	3.6769	7.724409	0.000265	2.645795	0.896420	-0.021467
 911	4.5500e-01	3.6127	7.641022	0.000206	2.055498	0.696422	-0.016677
 912	4.5550e-01	3.5454	7.561484	0.000196	1.960629	0.664279	-0.015908
 913	4.5600e-01	3.5502	7.434907	-0.000312	-3.120141	-1.057132	-0.025315
 914	4.5650e-01	3.5036	7.344250	0.000223	2.234696	0.757135	-0.018131
 915	4.5700e-01	3.4507	7.239910	0.000257	2.572008	0.871420	-0.020868
 916	4.5750e-01	3.4186	7.150108	0.000221	2.213614	0.749993	-0.017960
 917	4.5800e-01	3.3865	7.044485	0.000260	2.603631	0.882134	-0.021125
 918	4.5850e-01	3.3352	6.969651	0.000184	1.844678	0.624994	-0.014967
 919	4.5900e-01	3.2935	6.872152	0.000240	2.403352	0.814278	-0.019500
 920	4.5950e-01	3.2550	6.771232	0.000249	2.487680	0.842849	-0.020184
 921	4.6000e-01	3.2630	6.636958	-0.000331	-3.309879	-1.121418	-0.026855
 922	4.6050e-01	3.1555	6.582650	0.000134	1.338709	0.453567	-0.010862
 923	4.6100e-01	3.1106	6.493276	0.000220	2.203073	0.746421	-0.017875
 924	4.6150e-01	3.0849	6.399198	0.000232	2.319024	0.785707	-0.018816
 925	4.6200e-01	3.0577	6.264924	0.000331	3.309879	1.121418	-0.026855
 926	4.6250e-01	3.0160	6.196076	0.000170	1.697104	0.574994	-0.013770
 927	4.6300e-01	2.9454	6.107558	0.000218	2.181991	0.739278	-0.017704
 928	4.6350e-01	2.9229	5.998086	0.000270	2.698500	0.914277	-0.021894
 929	4.6400e-01	2.8940	5.884765	0.000279	2.793370	0.946419	-0.022664
 930	4.6450e-01	2.8443	5.797957	0.000214	2.139827	0.724993	-0.017362
 931	4.6500e-01	2.8379	5.702169	0.000236	2.361188	0.799992	-0.019158
 932	4.6550e-01	2.7753	5.608947	0.000230	2.297942	0.778564	-0.018644
 933	4.6600e-01	2.7224	5.520001	0.000219	2.192532	0.742850	-0.017789
 934	4.6650e-01	2.6694	5.414805	0.000259	2.593090	0.878563	-0.021039
 935	4.6700e-01	2.6406	5.332273	0.000203	2.034416	0.689279	-0.016506
 936	4.6750e-01	2.6229	5.212111	0.000296	2.962026	1.003562	-0.024033
 937	4.6800e-01	2.6197	5.105632	0.000262	2.624713	0.889277	-0.021296
 938	4.6850e-01	2.5443	5.023956	0.000201	2.013334	0.682136	-0.016335
 939	4.6900e-01	2.4978	4.925174	0.000243	2.434975	0.824992	-0.019756
 940	4.6950e-01	2.4368	4.827676	0.000240	2.403352	0.814278	-0.019500
 941	4.7000e-01	2.4160	4.715638	0.000276	2.761747	0.935705	-0.022408
 942	4.7050e-01	2.3743	4.626692	0.000219	2.192532	0.742850	-0.017789
 943	4.7100e-01	2.3133	4.553995	0.000179	1.791973	0.607137	-0.014539
 944	4.7150e-01	2.3085	4.432977	0.000298	2.983108	1.010704	-0.024204
 945	4.7200e-01	2.2716	4.338900	0.000232	2.319024	0.785707	-0.018816
 946	4.7250e-01	2.1962	4.249099	0.000221	2.213614	0.749993	-0.017960
 947	4.7300e-01	2.1705	4.154166	0.000234	2.340106	0.792849	-0.018987
 948	4.7350e-01	2.1513	4.048542	0.000260	2.603631	0.882134	-0.021125
 949	4.7400e-01	2.0887	3.941208	0.000265	2.645795	0.896420	-0.021467
 950	4.7450e-01	2.0502	3.870223	0.000175	1.749809	0.592851	-0.014197
 951	4.7500e-01	1.9844	3.779138	0.000225	2.245237	0.760707	-0.018217
 952	4.7550e-01	1.9507	3.684633	0.000233	2.329565	0.789278	-0.018901
 953	4.7600e-01	1.9235	3.562760	0.000300	3.004190	1.017847	-0.024375
 954	4.7650e-01	1.9010	3.449439	0.000279	2.793370	0.946419	-0.022664
 955	4.7700e-01	1.8673	3.373322	0.000188	1.876301	0.635708	-0.015223
 956	4.7750e-01	1.8465	3.266843	0.000262	2.624713	0.889277	-0.021296
 957	4.7800e-01	1.7871	3.164213	0.000253	2.529844	0.857134	-0.020526
 958	4.7850e-01	1.7422	3.079971	0.000208	2.076580	0.703564	-0.016848
 959	4.7900e-01	1.6877	2.990597	0.000220	2.203073	0.746421	-0.017875
 960	4.7950e-01	1.6443	2.893954	0.000238	2.382270	0.807135	-0.019329
 961	4.8000e-01	1.6251	2.771653	0.000301	3.014731	1.021419	-0.024460
 962	4.8050e-01	1.5481	2.704516	0.000165	1.654940	0.560709	-0.013427
 963	4.8100e-01	1.5433	2.589485	0.000284	2.835534	0.960705	-0.023006
 964	4.8150e-01	1.5000	2.497118	0.000228	2.276860	0.771421	-0.018473
 965	4.8200e-01	1.4679	2.390211	0.000264	2.635254	0.892848	-0.021381
 966	4.8250e-01	1.4053	2.299555	0.000223	2.234696	0.757135	-0.018131
 967	4.8300e-01	1.3732	2.215740	0.000207	2.066039	0.699993	-0.016763
 968	4.8350e-01	1.3171	2.110545	0.000259	2.593090	0.878563	-0.021039
 969	4.8400e-01	1.3058	2.003211	0.000265	2.645795	0.896420	-0.021467
 970	4.8450e-01	1.2850	1.908705	0.000233	2.329565	0.789278	-0.018901
 971	4.8500e-01	1.2208	1.807786	0.000249	2.487680	0.842849	-0.020184
 972	4.8550e-01	1.1887	1.723544	0.000208	2.076580	0.703564	-0.016848
 973	4.8600e-01	1.1246	1.629894	0.000231	2.308483	0.782135	-0.018730
 974	4.8650e-01	1.0925	1.519566	0.000272	2.719582	0.921419	-0.022065
 975	4.8700e-01	1.0428	1.444732	0.000184	1.844678	0.624994	-0.014967
 976	4.8750e-01	1.0219	1.333977	0.000273	2.730124	0.924991	-0.022151
 977	4.8800e-01	0.9641	1.234768	0.000245	2.445516	0.828563	-0.019842
 978	4.8850e-01	0.9465	1.142401	0.000228	2.276860	0.771421	-0.018473
 979	4.8900e-01	0.8679	1.058586	0.000207	2.066039	0.699993	-0.016763
 980	4.8950e-01	0.9032	0.927305	-0.000324	-3.236092	-1.096418	-0.026256
 981	4.9000e-01	0.8037	0.855892	0.000176	1.760350	0.596423	-0.014283
 982	4.9050e-01	0.7845	0.758821	0.000239	2.392811	0.810706	-0.019414
 983	4.9100e-01	0.7396	0.645500	0.000279	2.793370	0.946419	-0.022664
 984	4.9150e-01	0.7171	0.548857	0.000238	2.382270	0.807135	-0.019329
 985	4.9200e-01	0.6513	0.467608	0.000200	2.002793	0.678565	-0.016250
 986	4.9250e-01	0.5904	0.384649	0.000204	2.044957	0.692850	-0.016592
 987	4.9300e-01	0.6016	0.251230	-0.000329	-3.288797	-1.114275	-0.026684
 988	4.9350e-01	0.5278	0.191362	0.000148	1.475742	0.499995	-0.011974
 989	4.9400e-01	0.4877	0.073338	0.000291	2.909321	0.985705	-0.023605
 990	4.9450e-01	0.4428	-0.021595	0.000234	2.340106	0.792849	-0.018987
 991	4.9500e-01	0.4412	-0.124653	0.000254	2.540385	0.860706	-0.020612
 992	4.9550e-01	0.3754	-0.216165	0.000226	2.255778	0.764278	-0.018302
 993	4.9600e-01	0.3481	-0.307249	0.000225	2.245237	0.760707	-0.018217
 994	4.9650e-01	0.2856	-0.395340	0.000217	2.171450	0.735707	-0.017618
 995	4.9700e-01	0.2631	-0.480009	0.000209	2.087121	0.707136	-0.016934
 996	4.9750e-01	0.2021	-0.583495	0.000255	2.550926	0.864277	-0.020697
 997	4.9800e-01	0.1700	-0.693394	0.000271	2.709041	0.917848	-0.021980
 998	4.9850e-01	0.1444	-0.808426	0.000284	2.835534	0.960705	-0.023006
 999	4.9900e-01	0.0979	-0.864444	0.000138	1.380873	0.467853	-0.011204
1000	4.9950e-01	0.0513	-0.975199	0.000273	2.730124	0.924991	-0.022151
1001	5.0000e-01	0.0545	-1.105198	-0.000320	-3.204469	-1.085704	-0.026000
1002	5.0050e-01	-0.0064	-1.166348	0.000151	1.507365	0.510709	-0.012230
1003	5.0100e-01	-0.0513	-1.258287	0.000227	2.266319	0.767850	-0.018388
1004	5.0150e-01	-0.0930	-1.344240	0.000212	2.118744	0.717850	-0.017191
1005	5.0200e-01	-0.1556	-1.431048	0.000214	2.139827	0.724993	-0.017362
1006	5.0250e-01	-0.1765	-1.536244	0.000259	2.593090	0.878563	-0.021039
1007	5.0300e-01	-0.1925	-1.650847	0.000282	2.824993	0.957133	-0.022921
1008	5.0350e-01	-0.2599	-1.720978	0.000173	1.728727	0.585709	-0.014026
1009	5.0400e-01	-0.2968	-1.825318	0.000257	2.572008	0.871420	-0.020868
1010	5.0450e-01	-0.3417	-1.901863	0.000189	1.886842	0.639279	-0.015309
1011	5.0500e-01	-0.3545	-2.028013	0.000311	3.109600	1.053561	-0.025230
1012	5.0550e-01	-0.4380	-2.113110	0.000210	2.097662	0.710707	-0.017019
1013	5.0600e-01	-0.4508	-2.213175	0.000247	2.466598	0.835706	-0.020013
1014	5.0650e-01	-0.4732	-2.305542	0.000228	2.276860	0.771421	-0.018473
1015	5.0700e-01	-0.5406	-2.406889	0.000250	2.498221	0.846420	-0.020269
1016	5.0750e-01	-0.5647	-2.509947	0.000254	2.540385	0.860706	-0.020612
1017	5.0800e-01	-0.5968	-2.597610	0.000216	2.160909	0.732136	-0.017533
1018	5.0850e-01	-0.6497	-2.693398	0.000236	2.361188	0.799992	-0.019158
1019	5.0900e-01	-0.6898	-2.797738	0.000257	2.572008	0.871420	-0.020868
1020	5.0950e-01	-0.7620	-2.870862	0.000180	1.802514	0.610708	-0.014625
1021	5.1000e-01	-0.7732	-2.981190	0.000272	2.719582	0.921419	-0.022065
1022	5.1050e-01	-0.8294	-3.059445	0.000193	1.929006	0.653565	-0.015651
1023	5.1100e-01	-0.8535	-3.178325	0.000293	2.930403	0.992847	-0.023776
1024	5.1150e-01	-0.8968	-3.266416	0.000217	2.171450	0.735707	-0.017618
1025	5.1200e-01	-0.9690	-3.356645	0.000222	2.224155	0.753564	-0.018046
1026	5.1250e-01	-0.9657	-3.466117	-0.000270	-2.698500	-0.914277	-0.021894
1027	5.1300e-01	-0.9930	-3.573451	0.000265	2.645795	0.896420	-0.021467
1028	5.1350e-01	-1.0684	-3.651278	0.000192	1.918465	0.649994	-0.015566
1029	5.1400e-01	-1.0877	-3.752626	0.000250	2.498221	0.846420	-0.020269
1030	5.1450e-01	-1.1390	-3.828315	0.000187	1.865760	0.632137	-0.015138
1031	5.1500e-01	-1.1743	-3.939070	0.000273	2.730124	0.924991	-0.022151
1032	5.1550e-01	-1.2064	-4.038707	0.000246	2.456057	0.832135	-0.019927
1033	5.1600e-01	-1.2593	-4.122521	0.000207	2.066039	0.699993	-0.016763
1034	5.1650e-01	-1.3091	-4.223013	0.000248	2.477139	0.839277	-0.020098
1035	5.1700e-01	-1.3476	-4.318374	0.000235	2.350647	0.796421	-0.019072
1036	5.1750e-01	-1.3925	-4.405182	0.000214	2.139827	0.724993	-0.017362
1037	5.1800e-01	-1.4101	-4.513799	0.000268	2.677418	0.907134	-0.021723
1038	5.1850e-01	-1.4919	-4.591626	0.000192	1.918465	0.649994	-0.015566
1039	5.1900e-01	-1.4919	-4.698533	0.000264	2.635254	0.892848	-0.021381
1040	5.1950e-01	-1.5032	-4.802018	0.000255	2.550926	0.864277	-0.020697
1041	5.2000e-01	-1.5882	-4.898661	0.000238	2.382270	0.807135	-0.019329
1042	5.2050e-01	-1.6299	-4.992311	0.000231	2.308483	0.782135	-0.018730
1043	5.2100e-01	-1.6492	-5.074843	0.000203	2.034416	0.689279	-0.016506
1044	5.2150e-01	-1.6989	-5.161651	0.000214	2.139827	0.724993	-0.017362
1045	5.2200e-01	-1.7262	-5.268985	0.000265	2.645795	0.896420	-0.021467
1046	5.2250e-01	-1.7935	-5.363918	0.000234	2.340106	0.792849	-0.018987
1047	5.2300e-01	-1.8048	-5.466975	0.000254	2.540385	0.860706	-0.020612
1048	5.2350e-01	-1.8529	-5.571316	0.000257	2.572008	0.871420	-0.020868
1049	5.2400e-01	-1.8850	-5.662400	0.000225	2.245237	0.760707	-0.018217
1050	5.2450e-01	-1.9636	-5.747070	0.000209	2.087121	0.707136	-0.016934
1051	5.2500e-01	-1.9812	-5.835588	0.000218	2.181991	0.739278	-0.017704
1052	5.2550e-01	-2.0101	-5.960455	0.000308	3.077977	1.042847	-0.024973
1053	5.2600e-01	-2.0326	-6.037427	0.000190	1.897383	0.642851	-0.015395
1054	5.2650e-01	-2.1080	-6.121242	0.000207	2.066039	0.699993	-0.016763
1055	5.2700e-01	-2.1513	-6.231569	0.000272	2.719582	0.921419	-0.022065
1056	5.2750e-01	-2.2203	-6.309825	0.000193	1.929006	0.653565	-0.015651
1057	5.2800e-01	-2.2443	-6.403475	0.000231	2.308483	0.782135	-0.018730
1058	5.2850e-01	-2.2363	-6.489000	-0.000211	-2.108203	-0.714279	-0.017105
1059	5.2900e-01	-2.3069	-6.620281	0.000324	3.236092	1.096418	-0.026256
1060	5.2950e-01	-2.3614	-6.691266	0.000175	1.749809	0.592851	-0.014197
1061	5.3000e-01	-2.3743	-6.795607	0.000257	2.572008	0.871420	-0.020868
1062	5.3050e-01	-2.3967	-6.896954	0.000250	2.498221	0.846420	-0.020269
1063	5.3100e-01	-2.4432	-6.967085	0.000173	1.728727	0.585709	-0.014026
1064	5.3150e-01	-2.4850	-7.083399	0.000287	2.867157	0.971419	-0.023263
1065	5.3200e-01	-2.5411	-7.174911	0.000226	2.255778	0.764278	-0.018302
1066	5.3250e-01	-2.5940	-7.258725	0.000207	2.066039	0.699993	-0.016763
1067	5.3300e-01	-2.6053	-7.367342	0.000268	2.677418	0.907134	-0.021723
1068	5.3350e-01	-2.6775	-7.443459	0.000188	1.876301	0.635708	-0.015223
1069	5.3400e-01	-2.7112	-7.553359	0.000271	2.709041	0.917848	-0.021980
1070	5.3450e-01	-2.7561	-7.642305	0.000219	2.192532	0.742850	-0.017789
1071	5.3500e-01	-2.7882	-7.717995	0.000187	1.865760	0.632137	-0.015138
1072	5.3550e-01	-2.7898	-7.849703	0.000325	3.246633	1.099989	-0.026342
1073	5.3600e-01	-2.9005	-7.927531	0.000192	1.918465	0.649994	-0.015566
1074	5.3650e-01	-2.8876	-8.017332	-0.000221	-2.213614	-0.749993	-0.017960
1075	5.3700e-01	-2.9390	-8.120390	0.000254	2.540385	0.860706	-0.020612
1076	5.3750e-01	-2.9919	-8.207198	0.000214	2.139827	0.724993	-0.017362
1077	5.3800e-01	-3.0176	-8.306835	0.000246	2.456057	0.832135	-0.019927
1078	5.3850e-01	-3.0593	-8.408610	0.000251	2.508762	0.849992	-0.020355
1079	5.3900e-01	-3.0962	-8.500549	0.000227	2.266319	0.767850	-0.018388
1080	5.3950e-01	-3.1347	-8.574956	0.000183	1.834137	0.621422	-0.014881
1081	5.4000e-01	-3.1732	-8.682717	0.000266	2.656336	0.899991	-0.021552
1082	5.4050e-01	-3.1956	-8.799887	0.000289	2.888239	0.978562	-0.023434
1083	5.4100e-01	-3.2646	-8.881991	0.000202	2.023875	0.685708	-0.016421
1084	5.4150e-01	-3.3047	-8.961529	0.000196	1.960629	0.664279	-0.015908
1085	5.4200e-01	-3.3320	-9.062021	0.000248	2.477139	0.839277	-0.020098
1086	5.4250e-01	-3.3689	-9.156099	0.000232	2.319024	0.785707	-0.018816
1087	5.4300e-01	-3.3962	-9.258729	0.000253	2.529844	0.857134	-0.020526
1088	5.4350e-01	-3.4475	-9.343826	0.000210	2.097662	0.710707	-0.017019
1089	5.4400e-01	-3.4812	-9.437476	0.000231	2.308483	0.782135	-0.018730
1090	5.4450e-01	-3.5389	-9.528988	0.000226	2.255778	0.764278	-0.018302
1091	5.4500e-01	-3.5903	-9.629052	0.000247	2.466598	0.835706	-0.020013
1092	5.4550e-01	-3.5935	-9.741518	0.000277	2.772288	0.939276	-0.022493
1093	5.4600e-01	-3.6320	-9.828326	0.000214	2.139827	0.724993	-0.017362
1094	5.4650e-01	-3.6609	-9.927535	0.000245	2.445516	0.828563	-0.019842
1095	5.4700e-01	-3.7555	-9.990395	0.000155	1.549530	0.524995	-0.012572
1096	5.4750e-01	-3.8117	-10.080624	0.000222	2.224155	0.753564	-0.018046
1097	5.4800e-01	-3.8261	-10.185820	0.000259	2.593090	0.878563	-0.021039
1098	5.4850e-01	-3.8470	-10.284174	0.000242	2.424434	0.821420	-0.019671
1099	5.4900e-01	-3.9143	-10.367133	0.000204	2.044957	0.692850	-0.016592
1100	5.4950e-01	-3.9384	-10.475750	0.000268	2.677418	0.907134	-0.021723
1101	5.5000e-01	-3.9977	-10.552295	0.000189	1.886842	0.639279	-0.015309
1102	5.5050e-01	-4.0106	-10.663050	0.000273	2.730124	0.924991	-0.022151
1103	5.5100e-01	-4.0523	-10.735746	0.000179	1.791973	0.607137	-0.014539
1104	5.5150e-01	-4.1149	-10.835811	0.000247	2.466598	0.835706	-0.020013
1105	5.5200e-01	-4.1421	-10.933309	0.000240	2.403352	0.814278	-0.019500
1106	5.5250e-01	-4.1806	-11.034229	0.000249	2.487680	0.842849	-0.020184
1107	5.5300e-01	-4.2320	-11.118899	0.000209	2.087121	0.707136	-0.016934
1108	5.5350e-01	-4.2592	-11.192450	0.000181	1.813055	0.614280	-0.014710
1109	5.5400e-01	-4.2897	-11.321165	0.000317	3.172846	1.074989	-0.025743
1110	5.5450e-01	-4.3459	-11.414388	0.000230	2.297942	0.778564	-0.018644
1111	5.5500e-01	-4.3635	-11.498202	0.000207	2.066039	0.699993	-0.016763
1112	5.5550e-01	-4.4020	-11.599122	0.000249	2.487680	0.842849	-0.020184
1113	5.5600e-01	-4.4646	-11.670963	0.000177	1.770891	0.599994	-0.014368
1114	5.5650e-01	-4.4967	-11.776586	0.000260	2.603631	0.882134	-0.021125
1115	5.5700e-01	-4.5143	-11.887341	0.000273	2.730124	0.924991	-0.022151
1116	5.5750e-01	-4.5785	-11.957044	0.000172	1.718186	0.582137	-0.013941
1117	5.5800e-01	-4.6202	-12.061812	0.000258	2.582549	0.874991	-0.020954
1118	5.5850e-01	-4.6683	-12.154179	0.000228	2.276860	0.771421	-0.018473
1119	5.5900e-01	-4.6779	-12.226020	0.000177	1.770891	0.599994	-0.014368
1120	5.5950e-01	-4.7325	-12.338058	0.000276	2.761747	0.935705	-0.022408
1121	5.6000e-01	-4.7758	-12.409044	0.000175	1.749809	0.592851	-0.014197
1122	5.6050e-01	-4.7951	-12.517233	0.000267	2.666877	0.903563	-0.021638
1123	5.6100e-01	-4.8592	-12.607035	0.000221	2.213614	0.749993	-0.017960
1124	5.6150e-01	-4.9073	-12.691704	0.000209	2.087121	0.707136	-0.016934
1125	5.6200e-01	-4.9266	-12.796900	0.000259	2.593090	0.878563	-0.021039
1126	5.6250e-01	-4.9892	-12.879432	0.000203	2.034416	0.689279	-0.016506
1127	5.6300e-01	-5.0261	-12.970944	0.000226	2.255778	0.764278	-0.018302
1128	5.6350e-01	-5.0277	-13.091106	0.000296	2.962026	1.003562	-0.024033
1129	5.6400e-01	-5.1063	-13.157388	0.000163	1.633858	0.553566	-0.013256
1130	5.6450e-01	-5.1368	-13.252749	0.000235	2.350647	0.796421	-0.019072
1131	5.6500e-01	-5.1801	-13.339129	0.000213	2.129286	0.721421	-0.017276
1132	5.6550e-01	-5.2170	-13.437910	0.000243	2.434975	0.824992	-0.019756
1133	5.6600e-01	-5.2394	-13.539258	0.000250	2.498221	0.846420	-0.020269
1134	5.6650e-01	-5.3132	-13.625210	0.000212	2.118744	0.717850	-0.017191
1135	5.6700e-01	-5.3437	-13.713729	0.000218	2.181991	0.739278	-0.017704
1136	5.6750e-01	-5.3694	-13.795405	0.000201	2.013334	0.682136	-0.016335
1137	5.6800e-01	-5.4367	-13.915140	0.000295	2.951485	0.999990	-0.023947
1138	5.6850e-01	-5.4817	-13.984416	0.000171	1.707645	0.578566	-0.013855
1139	5.6900e-01	-5.5202	-14.065237	0.000199	1.992252	0.674993	-0.016164
1140	5.6950e-01	-5.5282	-14.165729	0.000248	2.477139	0.839277	-0.020098
1141	5.7000e-01	-5.5667	-14.280332	0.000282	2.824993	0.957133	-0.022921
1142	5.7050e-01	-5.6260	-14.354739	0.000183	1.834137	0.621422	-0.014881
1143	5.7100e-01	-5.6389	-14.453520	0.000243	2.434975	0.824992	-0.019756
1144	5.7150e-01	-5.6918	-14.546315	0.000229	2.287401	0.774992	-0.018559
1145	5.7200e-01	-5.7159	-14.645524	0.000245	2.445516	0.828563	-0.019842
1146	5.7250e-01	-5.7656	-14.728911	0.000206	2.055498	0.696422	-0.016677
1147	5.7300e-01	-5.8298	-14.811015	0.000202	2.023875	0.685708	-0.016421
1148	5.7350e-01	-5.8715	-14.893975	0.000204	2.044957	0.692850	-0.016592
1149	5.7400e-01	-5.8907	-15.000026	0.000261	2.614172	0.885706	-0.021210
1150	5.7450e-01	-5.9822	-15.083840	0.000207	2.066039	0.699993	-0.016763
1151	5.7500e-01	-5.9902	-15.179628	0.000236	2.361188	0.799992	-0.019158
1152	5.7550e-01	-6.0367	-15.254035	0.000183	1.834137	0.621422	-0.014881
1153	5.7600e-01	-6.0688	-15.368211	0.000281	2.814452	0.953562	-0.022835
1154	5.7650e-01	-6.0993	-15.455874	0.000216	2.160909	0.732136	-0.017533
1155	5.7700e-01	-6.1314	-15.544820	0.000219	2.192532	0.742850	-0.017789
1156	5.7750e-01	-6.1988	-15.629062	0.000208	2.076580	0.703564	-0.016848
1157	5.7800e-01	-6.1907	-15.731265	-0.000252	-2.519303	-0.853563	-0.020440
1158	5.7850e-01	-6.2629	-15.822349	0.000225	2.245237	0.760707	-0.018217
1159	5.7900e-01	-6.2918	-15.905308	0.000204	2.044957	0.692850	-0.016592
1160	5.7950e-01	-6.3303	-15.997675	0.000228	2.276860	0.771421	-0.018473
1161	5.8000e-01	-6.3688	-16.121259	0.000305	3.046354	1.032133	-0.024717
1162	5.8050e-01	-6.4394	-16.166587	0.000112	1.117348	0.378568	-0.009066
1163	5.8100e-01	-6.4153	-16.334644	-0.000414	-4.142620	-1.403558	-0.033611
1164	5.8150e-01	-6.5389	-16.360729	0.000064	0.643002	0.217855	-0.005217
1165	5.8200e-01	-6.5356	-16.451386	-0.000223	-2.234696	-0.757135	-0.018131
1166	5.8250e-01	-6.5790	-16.520233	0.000170	1.697104	0.574994	-0.013770
1167	5.8300e-01	-6.6239	-16.640396	0.000296	2.962026	1.003562	-0.024033
1168	5.8350e-01	-6.6672	-16.715231	0.000184	1.844678	0.624994	-0.014967
1169	5.8400e-01	-6.6929	-16.808453	0.000230	2.297942	0.778564	-0.018644
1170	5.8450e-01	-6.7410	-16.917925	0.000270	2.698500	0.914277	-0.021894
1171	5.8500e-01	-6.7474	-17.004305	0.000213	2.129286	0.721421	-0.017276
1172	5.8550e-01	-6.8212	-17.069304	0.000160	1.602235	0.542852	-0.013000
1173	5.8600e-01	-6.8822	-17.163809	0.000233	2.329565	0.789278	-0.018901
1174	5.8650e-01	-6.8966	-17.274137	0.000272	2.719582	0.921419	-0.022065
1175	5.8700e-01	-6.9431	-17.352392	0.000193	1.929006	0.653565	-0.015651
1176	5.8750e-01	-6.9752	-17.448608	0.000237	2.371729	0.803564	-0.019243
1177	5.8800e-01	-7.0121	-17.527719	0.000195	1.950088	0.660708	-0.015822
1178	5.8850e-01	-7.0586	-17.617948	0.000222	2.224155	0.753564	-0.018046
1179	5.8900e-01	-7.0859	-17.731268	0.000279	2.793370	0.946419	-0.022664
1180	5.8950e-01	-7.1292	-17.806958	0.000187	1.865760	0.632137	-0.015138
1181	5.9000e-01	-7.1661	-17.885213	0.000193	1.929006	0.653565	-0.015651
1182	5.9050e-01	-7.2287	-17.978436	0.000230	2.297942	0.778564	-0.018644
1183	5.9100e-01	-7.2752	-18.072941	0.000233	2.329565	0.789278	-0.018901
1184	5.9150e-01	-7.3025	-18.164453	0.000226	2.255778	0.764278	-0.018302
1185	5.9200e-01	-7.3329	-18.246984	0.000203	2.034416	0.689279	-0.016506
1186	5.9250e-01	-7.3618	-18.355173	0.000267	2.666877	0.903563	-0.021638
1187	5.9300e-01	-7.4260	-18.429153	0.000182	1.823596	0.617851	-0.014796
1188	5.9350e-01	-7.4581	-18.501421	0.000178	1.781432	0.603565	-0.014454
1189	5.9400e-01	-7.4966	-18.612604	0.000274	2.740665	0.928562	-0.022237
1190	5.9450e-01	-7.5575	-18.699839	0.000215	2.150368	0.728564	-0.017447
1191	5.9500e-01	-7.5816	-18.781516	0.000201	2.013334	0.682136	-0.016335
1192	5.9550e-01	-7.6297	-18.878587	0.000239	2.392811	0.810706	-0.019414
1193	5.9600e-01	-7.6650	-18.959836	0.000200	2.002793	0.678565	-0.016250
1194	5.9650e-01	-7.6971	-19.056907	0.000239	2.392811	0.810706	-0.019414
1195	5.9700e-01	-7.7083	-19.165523	0.000268	2.677418	0.907134	-0.021723
1196	5.9750e-01	-7.7982	-19.241213	0.000187	1.865760	0.632137	-0.015138
1197	5.9800e-01	-7.8319	-19.309205	0.000168	1.676022	0.567852	-0.013598
1198	5.9850e-01	-7.8752	-19.412691	0.000255	2.550926	0.864277	-0.020697
1199	5.9900e-01	-7.9008	-19.506341	0.000231	2.308483	0.782135	-0.018730
1200	5.9950e-01	-7.9426	-19.601274	0.000234	2.340106	0.792849	-0.018987
1201	6.0000e-01	-7.9698	-19.689364	0.000217	2.171450	0.735707	-0.017618
1202	6.0050e-01	-8.0131	-19.777883	0.000218	2.181991	0.739278	-0.017704
1203	6.0100e-01	-8.0420	-19.869395	0.000226	2.255778	0.764278	-0.018302
1204	6.0150e-01	-8.1062	-19.939953	0.000174	1.739268	0.589280	-0.014112
1205	6.0200e-01	-8.1270	-20.045576	0.000260	2.603631	0.882134	-0.021125
1206	6.0250e-01	-8.1559	-20.124259	0.000194	1.939547	0.657136	-0.015737
1207	6.0300e-01	-8.2073	-20.216626	0.000228	2.276860	0.771421	-0.018473
1208	6.0350e-01	-8.2570	-20.306428	0.000221	2.213614	0.749993	-0.017960
1209	6.0400e-01	-8.3003	-20.402216	0.000236	2.361188	0.799992	-0.019158
1210	6.0450e-01	-8.3468	-20.492445	0.000222	2.224155	0.753564	-0.018046
1211	6.0500e-01	-8.4030	-20.561720	0.000171	1.707645	0.578566	-0.013855
1212	6.0550e-01	-8.3950	-20.670764	-0.000269	-2.687959	-0.910705	-0.021809
1213	6.0600e-01	-8.4559	-20.755434	0.000209	2.087121	0.707136	-0.016934
1214	6.0650e-01	-8.5153	-20.820433	0.000160	1.602235	0.542852	-0.013000
1215	6.0700e-01	-8.5297	-20.937603	0.000289	2.888239	0.978562	-0.023434
1216	6.0750e-01	-8.5682	-21.032108	0.000233	2.329565	0.789278	-0.018901
1217	6.0800e-01	-8.6195	-21.099672	0.000167	1.665481	0.564280	-0.013513
1218	6.0850e-01	-8.6548	-21.192040	0.000228	2.276860	0.771421	-0.018473
1219	6.0900e-01	-8.6805	-21.289966	0.000241	2.413893	0.817849	-0.019585
1220	6.0950e-01	-8.7415	-21.377629	0.000216	2.160909	0.732136	-0.017533
1221	6.1000e-01	-8.7752	-21.450325	0.000179	1.791973	0.607137	-0.014539
1222	6.1050e-01	-8.8185	-21.558942	0.000268	2.677418	0.907134	-0.021723
1223	6.1100e-01	-8.8506	-21.640618	0.000201	2.013334	0.682136	-0.016335
1224	6.1150e-01	-8.8907	-21.718446	0.000192	1.918465	0.649994	-0.015566
1225	6.1200e-01	-8.9404	-21.810386	0.000227	2.266319	0.767850	-0.018388
1226	6.1250e-01	-9.0046	-21.881799	0.000176	1.760350	0.596423	-0.014283
1227	6.1300e-01	-9.0030	-21.980153	-0.000242	-2.424434	-0.821420	-0.019671
1228	6.1350e-01	-9.0623	-22.063112	0.000204	2.044957	0.692850	-0.016592
1229	6.1400e-01	-9.0800	-22.181992	0.000293	2.930403	0.992847	-0.023776
1230	6.1450e-01	-9.1409	-22.248274	0.000163	1.633858	0.553566	-0.013256
1231	6.1500e-01	-9.1810	-22.344490	0.000237	2.371729	0.803564	-0.019243
1232	6.1550e-01	-9.1923	-22.441561	0.000239	2.392811	0.810706	-0.019414
1233	6.1600e-01	-9.2660	-22.530079	0.000218	2.181991	0.739278	-0.017704
1234	6.1650e-01	-9.3126	-22.583960	0.000133	1.328168	0.449996	-0.010776
1235	6.1700e-01	-9.3447	-22.690439	0.000262	2.624713	0.889277	-0.021296
1236	6.1750e-01	-9.3896	-22.769977	0.000196	1.960629	0.664279	-0.015908
1237	6.1800e-01	-9.4329	-22.863199	0.000230	2.297942	0.778564	-0.018644
1238	6.1850e-01	-9.4361	-22.950862	0.000216	2.160909	0.732136	-0.017533
1239	6.1900e-01	-9.4890	-23.038953	0.000217	2.171450	0.735707	-0.017618
1240	6.1950e-01	-9.5195	-23.118491	0.000196	1.960629	0.664279	-0.015908
1241	6.2000e-01	-9.5548	-23.227963	0.000270	2.698500	0.914277	-0.021894
1242	6.2050e-01	-9.6222	-23.304936	0.000190	1.897383	0.642851	-0.015395
1243	6.2100e-01	-9.6318	-23.403290	0.000242	2.424434	0.821420	-0.019671
1244	6.2150e-01	-9.7168	-23.472993	0.000172	1.718186	0.582137	-0.013941
1245	6.2200e-01	-9.7345	-23.551248	0.000193	1.929006	0.653565	-0.015651
1246	6.2250e-01	-9.7714	-23.635490	0.000208	2.076580	0.703564	-0.016848
1247	6.2300e-01	-9.8019	-23.746245	0.000273	2.730124	0.924991	-0.022151
1248	6.2350e-01	-9.8660	-23.816803	0.000174	1.739268	0.589280	-0.014112
1249	6.2400e-01	-9.8837	-23.902329	0.000211	2.108203	0.714279	-0.017105
1250	6.2450e-01	-9.9302	-23.992557	0.000222	2.224155	0.753564	-0.018046
1251	6.2500e-01	-9.9591	-24.102885	0.000272	2.719582	0.921419	-0.022065
1252	6.2550e-01	-10.0200	-24.167029	0.000158	1.581153	0.535709	-0.012829
1253	6.2600e-01	-10.0714	-24.244429	0.000191	1.907924	0.646422	-0.015480
1254	6.2650e-01	-10.0970	-24.332092	0.000216	2.160909	0.732136	-0.017533
1255	6.2700e-01	-10.1259	-24.422321	0.000222	2.224155	0.753564	-0.018046
1256	6.2750e-01	-10.1580	-24.518537	0.000237	2.371729	0.803564	-0.019243
1257	6.2800e-01	-10.2174	-24.591233	0.000179	1.791973	0.607137	-0.014539
1258	6.2850e-01	-10.2350	-24.693863	0.000253	2.529844	0.857134	-0.020526
1259	6.2900e-01	-10.2992	-24.764849	0.000175	1.749809	0.592851	-0.014197
1260	6.2950e-01	-10.3361	-24.856361	0.000226	2.255778	0.764278	-0.018302
1261	6.3000e-01	-10.3922	-24.941886	0.000211	2.108203	0.714279	-0.017105
1262	6.3050e-01	-10.4131	-25.032542	0.000223	2.234696	0.757135	-0.018131
1263	6.3100e-01	-10.4516	-25.113791	0.000200	2.002793	0.678565	-0.016250
1264	6.3150e-01	-10.5013	-25.193757	0.000197	1.971170	0.667851	-0.015993
1265	6.3200e-01	-10.5478	-25.290400	0.000238	2.382270	0.807135	-0.019329
1266	6.3250e-01	-10.5976	-25.367373	0.000190	1.897383	0.642851	-0.015395
1267	6.3300e-01	-10.6216	-25.458029	0.000223	2.234696	0.757135	-0.018131
1268	6.3350e-01	-10.6617	-25.549541	0.000226	2.255778	0.764278	-0.018302
1269	6.3400e-01	-10.7179	-25.630362	0.000199	1.992252	0.674993	-0.016164
1270	6.3450e-01	-10.7275	-25.729571	0.000245	2.445516	0.828563	-0.019842
1271	6.3500e-01	-10.7724	-25.797136	0.000167	1.665481	0.564280	-0.013513
1272	6.3550e-01	-10.8238	-25.891641	0.000233	2.329565	0.789278	-0.018901
1273	6.3600e-01	-10.8398	-25.976739	0.000210	2.097662	0.710707	-0.017019
1274	6.3650e-01	-10.9056	-26.070389	0.000231	2.308483	0.782135	-0.018730
1275	6.3700e-01	-10.9264	-26.149499	0.000195	1.950088	0.660708	-0.015822
1276	6.3750e-01	-10.9874	-26.223906	0.000183	1.834137	0.621422	-0.014881
1277	6.3800e-01	-10.9986	-26.318839	0.000234	2.340106	0.792849	-0.018987
1278	6.3850e-01	-11.0548	-26.405219	0.000213	2.129286	0.721421	-0.017276
1279	6.3900e-01	-11.0820	-26.483047	0.000192	1.918465	0.649994	-0.015566
1280	6.3950e-01	-11.1414	-26.569855	0.000214	2.139827	0.724993	-0.017362
1281	6.4000e-01	-11.1671	-26.671630	0.000251	2.508762	0.849992	-0.020355
1282	6.4050e-01	-11.2072	-26.750313	0.000194	1.939547	0.657136	-0.015737
1283	6.4100e-01	-11.2425	-26.830706	0.000198	1.981711	0.671422	-0.016079
1284	6.4150e-01	-11.2858	-26.920080	0.000220	2.203073	0.746421	-0.017875
1285	6.4200e-01	-11.3419	-26.994915	0.000184	1.844678	0.624994	-0.014967
1286	6.4250e-01	-11.3644	-27.089420	0.000233	2.329565	0.789278	-0.018901
1287	6.4300e-01	-11.4318	-27.150570	0.000151	1.507365	0.510709	-0.012230
1288	6.4350e-01	-11.4494	-27.261325	0.000273	2.730124	0.924991	-0.022151
1289	6.4400e-01	-11.5168	-27.333594	0.000178	1.781432	0.603565	-0.014454
1290	6.4450e-01	-11.5184	-27.442638	0.000269	2.687959	0.910705	-0.021809
1291	6.4500e-01	-11.5890	-27.500795	0.000143	1.433578	0.485709	-0.011631
1292	6.4550e-01	-11.6098	-27.589314	0.000218	2.181991	0.739278	-0.017704
1293	6.4600e-01	-11.6836	-27.676122	0.000214	2.139827	0.724993	-0.017362
1294	6.4650e-01	-11.6772	-27.756943	-0.000199	-1.992252	-0.674993	-0.016164
1295	6.4700e-01	-11.7510	-27.835626	0.000194	1.939547	0.657136	-0.015737
1296	6.4750e-01	-11.7927	-27.927993	0.000228	2.276860	0.771421	-0.018473
1297	6.4800e-01	-11.7895	-28.031051	-0.000254	-2.540385	-0.860706	-0.020612
1298	6.4850e-01	-11.8649	-28.109306	0.000193	1.929006	0.653565	-0.015651
1299	6.4900e-01	-11.8986	-28.171312	0.000153	1.528448	0.517852	-0.012401
1300	6.4950e-01	-11.9387	-28.255126	0.000207	2.066039	0.699993	-0.016763
1301	6.5000e-01	-11.9708	-28.362460	0.000265	2.645795	0.896420	-0.021467
1302	6.5050e-01	-12.0334	-28.423611	0.000151	1.507365	0.510709	-0.012230
1303	6.5100e-01	-12.0606	-28.532655	0.000269	2.687959	0.910705	-0.021809
1304	6.5150e-01	-12.0911	-28.626733	0.000232	2.319024	0.785707	-0.018816
1305	6.5200e-01	-12.1505	-28.690021	0.000156	1.560071	0.528566	-0.012658
1306	6.5250e-01	-12.1777	-28.786237	0.000237	2.371729	0.803564	-0.019243
1307	6.5300e-01	-12.2291	-28.864920	0.000194	1.939547	0.657136	-0.015737
1308	6.5350e-01	-12.2804	-28.942748	0.000192	1.918465	0.649994	-0.015566
1309	6.5400e-01	-12.2932	-29.020575	0.000192	1.918465	0.649994	-0.015566
1310	6.5450e-01	-12.3606	-29.101824	0.000200	2.002793	0.678565	-0.016250
1311	6.5500e-01	-12.3734	-29.201033	0.000245	2.445516	0.828563	-0.019842
1312	6.5550e-01	-12.4184	-29.278006	0.000190	1.897383	0.642851	-0.015395
1313	6.5600e-01	-12.4472	-29.371228	0.000230	2.297942	0.778564	-0.018644
1314	6.5650e-01	-12.5082	-29.430240	0.000145	1.454660	0.492852	-0.011802
1315	6.5700e-01	-12.5355	-29.530305	0.000247	2.466598	0.835706	-0.020013
1316	6.5750e-01	-12.5772	-29.619251	0.000219	2.192532	0.742850	-0.017789
1317	6.5800e-01	-12.6093	-29.699217	0.000197	1.971170	0.667851	-0.015993
1318	6.5850e-01	-12.6606	-29.791584	0.000228	2.276860	0.771421	-0.018473
1319	6.5900e-01	-12.7216	-29.848030	0.000139	1.391414	0.471424	-0.011289
1320	6.5950e-01	-12.7553	-29.937404	0.000220	2.203073	0.746421	-0.017875
1321	6.6000e-01	-12.7697	-30.025922	0.000218	2.181991	0.739278	-0.017704
1322	6.6050e-01	-12.8467	-30.095625	0.000172	1.718186	0.582137	-0.013941
1323	6.6100e-01	-12.8724	-30.187137	0.000226	2.255778	0.764278	-0.018302
1324	6.6150e-01	-12.8595	-30.313714	-0.000312	-3.120141	-1.057132	-0.025315
1325	6.6200e-01	-12.9253	-30.361608	0.000118	1.180594	0.399996	-0.009579
1326	6.6250e-01	-12.9718	-30.434305	0.000179	1.791973	0.607137	-0.014539
1327	6.6300e-01	-13.0151	-30.512132	0.000192	1.918465	0.649994	-0.015566
1328	6.6350e-01	-13.0665	-30.612624	0.000248	2.477139	0.839277	-0.020098
1329	6.6400e-01	-13.0873	-30.691307	0.000194	1.939547	0.657136	-0.015737
1330	6.6450e-01	-13.1258	-30.771701	0.000198	1.981711	0.671422	-0.016079
1331	6.6500e-01	-13.1788	-30.864923	0.000230	2.297942	0.778564	-0.018644
1332	6.6550e-01	-13.2221	-30.947027	0.000202	2.023875	0.685708	-0.016421
1333	6.6600e-01	-13.2462	-31.016303	0.000171	1.707645	0.578566	-0.013855
1334	6.6650e-01	-13.2927	-31.108670	0.000228	2.276860	0.771421	-0.018473
1335	6.6700e-01	-13.3456	-31.206168	0.000240	2.403352	0.814278	-0.019500
1336	6.6750e-01	-13.3793	-31.277582	0.000176	1.760350	0.596423	-0.014283
1337	6.6800e-01	-13.4274	-31.353699	0.000188	1.876301	0.635708	-0.015223
1338	6.6850e-01	-13.4483	-31.446921	0.000230	2.297942	0.778564	-0.018644
1339	6.6900e-01	-13.4900	-31.519618	0.000179	1.791973	0.607137	-0.014539
1340	6.6950e-01	-13.5301	-31.602577	0.000204	2.044957	0.692850	-0.016592
1341	6.7000e-01	-13.5879	-31.676556	0.000182	1.823596	0.617851	-0.014796
1342	6.7050e-01	-13.6023	-31.762509	0.000212	2.118744	0.717850	-0.017191
1343	6.7100e-01	-13.6809	-31.840764	0.000193	1.929006	0.653565	-0.015651
1344	6.7150e-01	-13.6905	-31.937407	0.000238	2.382270	0.807135	-0.019329
1345	6.7200e-01	-13.7386	-32.027636	0.000222	2.224155	0.753564	-0.018046
1346	6.7250e-01	-13.7451	-32.108030	0.000198	1.981711	0.671422	-0.016079
1347	6.7300e-01	-13.8237	-32.180726	0.000179	1.791973	0.607137	-0.014539
1348	6.7350e-01	-13.8622	-32.260692	0.000197	1.971170	0.667851	-0.015993
1349	6.7400e-01	-13.9023	-32.332961	0.000178	1.781432	0.603565	-0.014454
1350	6.7450e-01	-13.9392	-32.433453	0.000248	2.477139	0.839277	-0.020098
1351	6.7500e-01	-13.9857	-32.501873	0.000169	1.686563	0.571423	-0.013684
1352	6.7550e-01	-14.0082	-32.585260	0.000206	2.055498	0.696422	-0.016677
1353	6.7600e-01	-14.0258	-32.688745	0.000255	2.550926	0.864277	-0.020697
1354	6.7650e-01	-14.1076	-32.762724	0.000182	1.823596	0.617851	-0.014796
1355	6.7700e-01	-14.1365	-32.837131	0.000183	1.834137	0.621422	-0.014881
1356	6.7750e-01	-14.1654	-32.932491	0.000235	2.350647	0.796421	-0.019072
1357	6.7800e-01	-14.1959	-33.009892	0.000191	1.907924	0.646422	-0.015480
1358	6.7850e-01	-14.2360	-33.083871	0.000182	1.823596	0.617851	-0.014796
1359	6.7900e-01	-14.3098	-33.152291	0.000169	1.686563	0.571423	-0.013684
1360	6.7950e-01	-14.3306	-33.248507	0.000237	2.371729	0.803564	-0.019243
1361	6.8000e-01	-14.3515	-33.346005	0.000240	2.403352	0.814278	-0.019500
1362	6.8050e-01	-14.4076	-33.408866	0.000155	1.549530	0.524995	-0.012572
1363	6.8100e-01	-14.4718	-33.479852	0.000175	1.749809	0.592851	-0.014197
1364	6.8150e-01	-14.4782	-33.582482	0.000253	2.529844	0.857134	-0.020526
1365	6.8200e-01	-14.5456	-33.656889	0.000183	1.834137	0.621422	-0.014881
1366	6.8250e-01	-14.6017	-33.721032	0.000158	1.581153	0.535709	-0.012829
1367	6.8300e-01	-14.6049	-33.820669	0.000246	2.456057	0.832135	-0.019927
1368	6.8350e-01	-14.6691	-33.889517	0.000170	1.697104	0.574994	-0.013770
1369	6.8400e-01	-14.7012	-33.969910	0.000198	1.981711	0.671422	-0.016079
1370	6.8450e-01	-14.7028	-34.056718	0.000214	2.139827	0.724993	-0.017362
1371	6.8500e-01	-14.7878	-34.132408	0.000187	1.865760	0.632137	-0.015138
1372	6.8550e-01	-14.8087	-34.208953	0.000189	1.886842	0.639279	-0.015309
1373	6.8600e-01	-14.8375	-34.301320	0.000228	2.276860	0.771421	-0.018473
1374	6.8650e-01	-14.8761	-34.380431	0.000195	1.950088	0.660708	-0.015822
1375	6.8700e-01	-14.9258	-34.465528	0.000210	2.097662	0.710707	-0.017019
1376	6.8750e-01	-14.9819	-34.547205	0.000201	2.013334	0.682136	-0.016335
1377	6.8800e-01	-15.0220	-34.615625	0.000169	1.686563	0.571423	-0.013684
1378	6.8850e-01	-15.0557	-34.719537	0.000256	2.561467	0.867849	-0.020783
1379	6.8900e-01	-15.0894	-34.770853	0.000126	1.264922	0.428567	-0.010263
1380	6.8950e-01	-15.1247	-34.877759	0.000264	2.635254	0.892848	-0.021381
1381	6.9000e-01	-15.1552	-34.960718	0.000204	2.044957	0.692850	-0.016592
1382	6.9050e-01	-15.2242	-35.020158	0.000147	1.465201	0.496424	-0.011888
1383	6.9100e-01	-15.2530	-35.112953	0.000229	2.287401	0.774992	-0.018559
1384	6.9150e-01	-15.2787	-35.198905	0.000212	2.118744	0.717850	-0.017191
1385	6.9200e-01	-15.3541	-35.286569	0.000216	2.160909	0.732136	-0.017533
1386	6.9250e-01	-15.3926	-35.343870	0.000141	1.412496	0.478567	-0.011460
1387	6.9300e-01	-15.4247	-35.437520	0.000231	2.308483	0.782135	-0.018730
1388	6.9350e-01	-15.4504	-35.522618	0.000210	2.097662	0.710707	-0.017019
1389	6.9400e-01	-15.4985	-35.585906	0.000156	1.560071	0.528566	-0.012658
1390	6.9450e-01	-15.5177	-35.678701	0.000229	2.287401	0.774992	-0.018559
1391	6.9500e-01	-15.5691	-35.760805	0.000202	2.023875	0.685708	-0.016421
1392	6.9550e-01	-15.6028	-35.842909	0.000202	2.023875	0.685708	-0.016421
1393	6.9600e-01	-15.6589	-35.907053	0.000158	1.581153	0.535709	-0.012829
1394	6.9650e-01	-15.6798	-36.004979	0.000241	2.413893	0.817849	-0.019585
1395	6.9700e-01	-15.7536	-36.080241	0.000186	1.855219	0.628565	-0.015052
1396	6.9750e-01	-15.7937	-36.138826	0.000144	1.444119	0.489281	-0.011717
1397	6.9800e-01	-15.7985	-36.259844	0.000298	2.983108	1.010704	-0.024204
1398	6.9850e-01	-15.8659	-36.314152	0.000134	1.338709	0.453567	-0.010862
1399	6.9900e-01	-15.9060	-36.388559	0.000183	1.834137	0.621422	-0.014881
1400	6.9950e-01	-15.9236	-36.483064	0.000233	2.329565	0.789278	-0.018901
1401	7.0000e-01	-15.9862	-36.577142	0.000232	2.319024	0.785707	-0.018816
1402	7.0050e-01	-16.0102	-36.629312	0.000129	1.286004	0.435710	-0.010434
1403	7.0100e-01	-16.0471	-36.735363	0.000261	2.614172	0.885706	-0.021210
1404	7.0150e-01	-16.1065	-36.791382	0.000138	1.380873	0.467853	-0.011204
1405	7.0200e-01	-16.1065	-36.926939	0.000334	3.341503	1.132132	-0.027111
1406	7.0250e-01	-16.1755	-36.959439	0.000080	0.801117	0.271426	-0.006500
1407	7.0300e-01	-16.2429	-37.037694	0.000193	1.929006	0.653565	-0.015651
1408	7.0350e-01	-16.2621	-37.118943	0.000200	2.002793	0.678565	-0.016250
1409	7.0400e-01	-16.2814	-37.206606	0.000216	2.160909	0.732136	-0.017533
1410	7.0450e-01	-16.3552	-37.289138	0.000203	2.034416	0.689279	-0.016506
1411	7.0500e-01	-16.3856	-37.384071	0.000234	2.340106	0.792849	-0.018987
1412	7.0550e-01	-16.4289	-37.450780	0.000164	1.644399	0.557137	-0.013342
1413	7.0600e-01	-16.4530	-37.540581	0.000221	2.213614	0.749993	-0.017960
1414	7.0650e-01	-16.5060	-37.595745	0.000136	1.359791	0.460710	-0.011033
1415	7.0700e-01	-16.5300	-37.688967	0.000230	2.297942	0.778564	-0.018644
1416	7.0750e-01	-16.5621	-37.777486	0.000218	2.181991	0.739278	-0.017704
1417	7.0800e-01	-16.6022	-37.849754	0.000178	1.781432	0.603565	-0.014454
1418	7.0850e-01	-16.6824	-37.932714	0.000204	2.044957	0.692850	-0.016592
1419	7.0900e-01	-16.6936	-37.999851	0.000165	1.654940	0.560709	-0.013427
1420	7.0950e-01	-16.7209	-38.098632	0.000243	2.434975	0.824992	-0.019756
1421	7.1000e-01	-16.7787	-38.157217	0.000144	1.444119	0.489281	-0.011717
1422	7.1050e-01	-16.8204	-38.256854	0.000246	2.456057	0.832135	-0.019927
1423	7.1100e-01	-16.8589	-38.339813	0.000204	2.044957	0.692850	-0.016592
1424	7.1150e-01	-16.9038	-38.406095	0.000163	1.633858	0.553566	-0.013256
1425	7.1200e-01	-16.9279	-38.485633	0.000196	1.960629	0.664279	-0.015908
1426	7.1250e-01	-16.9728	-38.560895	0.000186	1.855219	0.628565	-0.015052
1427	7.1300e-01	-16.9968	-38.667802	0.000264	2.635254	0.892848	-0.021381
1428	7.1350e-01	-17.0546	-38.721255	0.000132	1.317627	0.446424	-0.010691
1429	7.1400e-01	-17.0947	-38.808918	0.000216	2.160909	0.732136	-0.017533
1430	7.1450e-01	-17.1172	-38.896154	0.000215	2.150368	0.728564	-0.017447
1431	7.1500e-01	-17.1637	-38.971416	0.000186	1.855219	0.628565	-0.015052
1432	7.1550e-01	-17.2214	-39.044967	0.000181	1.813055	0.614280	-0.014710
1433	7.1600e-01	-17.2631	-39.151873	0.000264	2.635254	0.892848	-0.021381
1434	7.1650e-01	-17.2984	-39.220294	0.000169	1.686563	0.571423	-0.013684
1435	7.1700e-01	-17.3402	-39.287858	0.000167	1.665481	0.564280	-0.013513
1436	7.1750e-01	-17.3546	-39.380653	0.000229	2.287401	0.774992	-0.018559
1437	7.1800e-01	-17.4123	-39.456770	0.000188	1.876301	0.635708	-0.015223
1438	7.1850e-01	-17.4589	-39.538447	0.000201	2.013334	0.682136	-0.016335
1439	7.1900e-01	-17.4926	-39.622261	0.000207	2.066039	0.699993	-0.016763
1440	7.1950e-01	-17.5359	-39.707359	0.000210	2.097662	0.710707	-0.017019
1441	7.2000e-01	-17.5856	-39.782193	0.000184	1.844678	0.624994	-0.014967
1442	7.2050e-01	-17.6369	-39.869856	0.000216	2.160909	0.732136	-0.017533
1443	7.2100e-01	-17.6690	-39.938276	0.000169	1.686563	0.571423	-0.013684
1444	7.2150e-01	-17.7027	-40.025512	0.000215	2.150368	0.728564	-0.017447
1445	7.2200e-01	-17.7348	-40.109754	0.000208	2.076580	0.703564	-0.016848
1446	7.2250e-01	-17.7508	-40.185016	0.000186	1.855219	0.628565	-0.015052
1447	7.2300e-01	-17.7990	-40.258995	0.000182	1.823596	0.617851	-0.014796
1448	7.2350e-01	-17.8519	-40.339389	0.000198	1.981711	0.671422	-0.016079
1449	7.2400e-01	-17.9032	-40.427052	0.000216	2.160909	0.732136	-0.017533
1450	7.2450e-01	-17.9610	-40.507446	0.000198	1.981711	0.671422	-0.016079
1451	7.2500e-01	-17.9963	-40.582280	0.000184	1.844678	0.624994	-0.014967
1452	7.2550e-01	-18.0268	-40.681489	0.000245	2.445516	0.828563	-0.019842
1453	7.2600e-01	-18.0428	-40.758889	0.000191	1.907924	0.646422	-0.015480
1454	7.2650e-01	-18.0797	-40.845270	0.000213	2.129286	0.721421	-0.017276
1455	7.2700e-01	-18.1471	-40.931222	0.000212	2.118744	0.717850	-0.017191
1456	7.2750e-01	-18.1487	-41.010333	0.000195	1.950088	0.660708	-0.015822
1457	7.2800e-01	-18.2337	-41.084312	0.000182	1.823596	0.617851	-0.014796
1458	7.2850e-01	-18.2514	-41.171120	0.000214	2.139827	0.724993	-0.017362
1459	7.2900e-01	-18.2818	-41.260066	0.000219	2.192532	0.742850	-0.017789
1460	7.2950e-01	-18.3364	-41.326776	0.000164	1.644399	0.557137	-0.013342
1461	7.3000e-01	-18.3813	-41.422136	0.000235	2.350647	0.796421	-0.019072
1462	7.3050e-01	-18.3989	-41.508944	0.000214	2.139827	0.724993	-0.017362
1463	7.3100e-01	-18.4615	-41.588910	0.000197	1.971170	0.667851	-0.015993
1464	7.3150e-01	-18.4872	-41.677856	0.000219	2.192532	0.742850	-0.017789
1465	7.3200e-01	-18.5401	-41.746704	0.000170	1.697104	0.574994	-0.013770
1466	7.3250e-01	-18.5850	-41.831801	0.000210	2.097662	0.710707	-0.017019
1467	7.3300e-01	-18.6043	-41.931865	0.000247	2.466598	0.835706	-0.020013
1468	7.3350e-01	-18.6300	-42.010976	0.000195	1.950088	0.660708	-0.015822
1469	7.3400e-01	-18.6877	-42.080251	0.000171	1.707645	0.578566	-0.013855
1470	7.3450e-01	-18.7326	-42.170053	0.000221	2.213614	0.749993	-0.017960
1471	7.3500e-01	-18.7631	-42.272255	0.000252	2.519303	0.853563	-0.020440
1472	7.3550e-01	-18.8369	-42.334261	0.000153	1.528448	0.517852	-0.012401
1473	7.3600e-01	-18.8562	-42.428338	0.000232	2.319024	0.785707	-0.018816
1474	7.3650e-01	-18.8995	-42.517712	0.000220	2.203073	0.746421	-0.017875
1475	7.3700e-01	-18.9540	-42.572876	0.000136	1.359791	0.460710	-0.011033
1476	7.3750e-01	-18.9749	-42.672940	0.000247	2.466598	0.835706	-0.020013
1477	7.3800e-01	-19.0005	-42.769156	0.000237	2.371729	0.803564	-0.019243
1478	7.3850e-01	-19.0214	-42.862378	0.000230	2.297942	0.778564	-0.018644
1479	7.3900e-01	-19.0920	-42.935930	0.000181	1.813055	0.614280	-0.014710
1480	7.3950e-01	-19.1674	-43.035566	0.000246	2.456057	0.832135	-0.019927
1481	7.4000e-01	-19.2011	-43.097999	0.000154	1.538989	0.521423	-0.012487
1482	7.4050e-01	-19.2139	-43.186518	0.000218	2.181991	0.739278	-0.017704
1483	7.4100e-01	-19.2588	-43.268194	0.000201	2.013334	0.682136	-0.016335
1484	7.4150e-01	-19.2829	-43.358851	0.000223	2.234696	0.757135	-0.018131
1485	7.4200e-01	-19.3102	-43.479014	0.000296	2.962026	1.003562	-0.024033
1486	7.4250e-01	-19.3615	-43.538026	0.000145	1.454660	0.492852	-0.011802
1487	7.4300e-01	-19.3872	-43.621413	0.000206	2.055498	0.696422	-0.016677
1488	7.4350e-01	-19.4642	-43.709931	0.000218	2.181991	0.739278	-0.017704
1489	7.4400e-01	-19.4994	-43.805719	0.000236	2.361188	0.799992	-0.019158
1490	7.4450e-01	-19.5139	-43.890817	0.000210	2.097662	0.710707	-0.017019
1491	7.4500e-01	-19.5620	-43.986177	0.000235	2.350647	0.796421	-0.019072
1492	7.4550e-01	-19.5893	-44.065715	0.000196	1.960629	0.664279	-0.015908
1493	7.4600e-01	-19.6823	-44.135846	0.000173	1.728727	0.585709	-0.014026
1494	7.4650e-01	-19.6920	-44.238904	0.000254	2.540385	0.860706	-0.020612
1495	7.4700e-01	-19.7224	-44.339823	0.000249	2.487680	0.842849	-0.020184
1496	7.4750e-01	-19.7690	-44.422783	0.000204	2.044957	0.692850	-0.016592
1497	7.4800e-01	-19.8203	-44.501466	0.000194	1.939547	0.657136	-0.015737
1498	7.4850e-01	-19.8476	-44.586991	0.000211	2.108203	0.714279	-0.017105
1499	7.4900e-01	-19.9069	-44.669095	0.000202	2.023875	0.685708	-0.016421
1500	7.4950e-01	-19.9342	-44.771297	0.000252	2.519303	0.853563	-0.020440
1501	7.5000e-01	-19.9695	-44.863664	0.000228	2.276860	0.771421	-0.018473
1502	7.5050e-01	-19.9053	-44.903006	-0.000097	-0.969774	-0.328568	-0.007868
1503	7.5100e-01	-19.8829	-44.868796	0.000084	0.843281	0.285711	0.006842
1504	7.5150e-01	-19.8075	-44.823895	0.000111	1.106807	0.374996	0.008980
1505	7.5200e-01	-19.7930	-44.766593	0.000141	1.412496	0.478567	0.011460
1506	7.5250e-01	-19.7369	-44.733239	0.000082	0.822199	0.278569	0.006671
1507	7.5300e-01	-19.7321	-44.659259	0.000182	1.823596	0.617851	0.014796
1508	7.5350e-01	-19.6535	-44.611793	0.000117	1.170053	0.396425	0.009493
1509	7.5400e-01	-19.6310	-44.553636	0.000143	1.433578	0.485709	0.011631
1510	7.5450e-01	-19.5797	-44.499755	0.000133	1.328168	0.449996	0.010776
1511	7.5500e-01	-19.5476	-44.435611	0.000158	1.581153	0.535709	0.012829
1512	7.5550e-01	-19.4850	-44.387717	0.000118	1.180594	0.399996	0.009579
1513	7.5600e-01	-19.4754	-44.318442	0.000171	1.707645	0.578566	0.013855
1514	7.5650e-01	-19.4257	-44.270548	0.000118	1.180594	0.399996	0.009579
1515	7.5700e-01	-19.4000	-44.199562	0.000175	1.749809	0.592851	0.014197
1516	7.5750e-01	-19.3615	-44.134991	0.000159	1.591694	0.539280	0.012914
1517	7.5800e-01	-19.3166	-44.086669	0.000119	1.191135	0.403567	0.009664
1518	7.5850e-01	-19.3198	-43.980618	-0.000261	-2.614172	-0.885706	0.021210
1519	7.5900e-01	-19.2396	-43.977625	0.000007	0.073787	0.025000	0.000599
1520	7.5950e-01	-19.2396	-43.897659	-0.000197	-1.971170	-0.667851	0.015993
1521	7.6000e-01	-19.1561	-43.831377	0.000163	1.633858	0.553566	0.013256
1522	7.6050e-01	-19.0791	-43.783910	0.000117	1.170053	0.396425	0.009493
1523	7.6100e-01	-19.0599	-43.710359	0.000181	1.813055	0.614280	0.014710
1524	7.6150e-01	-18.9941	-43.677432	0.000081	0.811658	0.274997	0.006585
1525	7.6200e-01	-18.9861	-43.600887	0.000189	1.886842	0.639279	0.015309
1526	7.6250e-01	-18.9604	-43.526052	0.000184	1.844678	0.624994	0.014967
1527	7.6300e-01	-18.9155	-43.470889	0.000136	1.359791	0.460710	0.011033
1528	7.6350e-01	-18.8802	-43.405462	0.000161	1.612776	0.546423	0.013085
1529	7.6400e-01	-18.8353	-43.348588	0.000140	1.401955	0.474995	0.011375
1530	7.6450e-01	-18.8000	-43.269050	0.000196	1.960629	0.664279	0.015908
1531	7.6500e-01	-18.7246	-43.206189	0.000155	1.549530	0.524995	0.012572
1532	7.6550e-01	-18.6701	-43.141617	0.000159	1.591694	0.539280	0.012914
1533	7.6600e-01	-18.6685	-43.070631	0.000175	1.749809	0.592851	0.014197
1534	7.6650e-01	-18.6540	-42.993659	0.000190	1.897383	0.642851	0.015395
1535	7.6700e-01	-18.5979	-42.932081	0.000152	1.517907	0.514281	0.012316
1536	7.6750e-01	-18.5546	-42.862378	0.000172	1.718186	0.582137	0.013941
1537	7.6800e-01	-18.5096	-42.797379	0.000160	1.602235	0.542852	0.013000
1538	7.6850e-01	-18.4824	-42.744781	0.000130	1.296545	0.439281	0.010520
1539	7.6900e-01	-18.4358	-42.649848	0.000234	2.340106	0.792849	0.018987
1540	7.6950e-01	-18.4086	-42.589125	0.000150	1.496824	0.507138	0.012145
1541	7.7000e-01	-18.3444	-42.543370	0.000113	1.127889	0.382139	0.009151
1542	7.7050e-01	-18.3348	-42.458272	0.000210	2.097662	0.710707	0.017019
1543	7.7100e-01	-18.2610	-42.396694	0.000152	1.517907	0.514281	0.012316
1544	7.7150e-01	-18.2257	-42.338965	0.000142	1.423037	0.482138	0.011546
1545	7.7200e-01	-18.2209	-42.245742	0.000230	2.297942	0.778564	0.018644
1546	7.7250e-01	-18.1439	-42.185020	0.000150	1.496824	0.507138	0.012145
1547	7.7300e-01	-18.1086	-42.120448	0.000159	1.591694	0.539280	0.012914
1548	7.7350e-01	-18.0653	-42.041337	0.000195	1.950088	0.660708	0.015822
1549	7.7400e-01	-18.0107	-41.993016	0.000119	1.191135	0.403567	0.009664
1550	7.7450e-01	-18.0075	-41.913050	0.000197	1.971170	0.667851	0.015993
1551	7.7500e-01	-17.9690	-41.836933	0.000188	1.876301	0.635708	0.015223
1552	7.7550e-01	-17.9177	-41.773216	0.000157	1.570612	0.532138	0.012743
1553	7.7600e-01	-17.8615	-41.701375	0.000177	1.770891	0.599994	0.014368
1554	7.7650e-01	-17.8503	-41.622692	0.000194	1.939547	0.657136	0.015737
1555	7.7700e-01	-17.7829	-41.567101	0.000137	1.370332	0.464281	0.011118
1556	7.7750e-01	-17.7877	-41.491839	-0.000186	-1.855219	-0.628565	0.015052
1557	7.7800e-01	-17.6883	-41.416577	0.000186	1.855219	0.628565	0.015052
1558	7.7850e-01	-17.6835	-41.334045	0.000203	2.034416	0.689279	0.016506
1559	7.7900e-01	-17.6273	-41.288717	0.000112	1.117348	0.378568	0.009066
1560	7.7950e-01	-17.5920	-41.205330	0.000206	2.055498	0.696422	0.016677
1561	7.8000e-01	-17.5423	-41.134344	0.000175	1.749809	0.592851	0.014197
1562	7.8050e-01	-17.5214	-41.057799	0.000189	1.886842	0.639279	0.015309
1563	7.8100e-01	-17.5038	-40.984248	0.000181	1.813055	0.614280	0.014710
1564	7.8150e-01	-17.4123	-40.929939	0.000134	1.338709	0.453567	0.010862
1565	7.8200e-01	-17.3787	-40.863657	0.000163	1.633858	0.553566	0.013256
1566	7.8250e-01	-17.3241	-40.795237	0.000169	1.686563	0.571423	0.013684
1567	7.8300e-01	-17.3209	-40.706719	0.000218	2.181991	0.739278	0.017704
1568	7.8350e-01	-17.2840	-40.634023	0.000179	1.791973	0.607137	0.014539
1569	7.8400e-01	-17.2471	-40.567313	0.000164	1.644399	0.557137	0.013342
1570	7.8450e-01	-17.2038	-40.481788	0.000211	2.108203	0.714279	0.017105
1571	7.8500e-01	-17.1621	-40.418927	0.000155	1.549530	0.524995	0.012572
1572	7.8550e-01	-17.1156	-40.347941	0.000175	1.749809	0.592851	0.014197
1573	7.8600e-01	-17.0546	-40.291922	0.000138	1.380873	0.467853	0.011204
1574	7.8650e-01	-17.0418	-40.202121	0.000221	2.213614	0.749993	0.017960
1575	7.8700e-01	-16.9952	-40.146530	0.000137	1.370332	0.464281	0.011118
1576	7.8750e-01	-16.9407	-40.078537	0.000168	1.676022	0.567852	0.013598
1577	7.8800e-01	-16.9214	-39.986598	0.000227	2.266319	0.767850	0.018388
1578	7.8850e-01	-16.8685	-39.925020	0.000152	1.517907	0.514281	0.012316
1579	7.8900e-01	-16.8316	-39.836502	0.000218	2.181991	0.739278	0.017704
1580	7.8950e-01	-16.7963	-39.765943	0.000174	1.739268	0.589280	0.014112
1581	7.9000e-01	-16.7450	-39.707359	0.000144	1.444119	0.489281	0.011717
1582	7.9050e-01	-16.7129	-39.633380	0.000182	1.823596	0.617851	0.014796
1583	7.9100e-01	-16.6503	-39.557262	0.000188	1.876301	0.635708	0.015223
1584	7.9150e-01	-16.6391	-39.467033	0.000222	2.224155	0.753564	0.018046
1585	7.9200e-01	-16.5926	-39.413580	0.000132	1.317627	0.446424	0.010691
1586	7.9250e-01	-16.5445	-39.343877	0.000172	1.718186	0.582137	0.013941
1587	7.9300e-01	-16.5252	-39.265622	0.000193	1.929006	0.653565	0.015651
1588	7.9350e-01	-16.5011	-39.172399	0.000230	2.297942	0.778564	0.018644
1589	7.9400e-01	-16.4354	-39.118091	0.000134	1.338709	0.453567	0.010862
1590	7.9450e-01	-16.3904	-39.048816	0.000171	1.707645	0.578566	0.013855
1591	7.9500e-01	-16.3568	-38.956021	0.000229	2.287401	0.774992	0.018559
1592	7.9550e-01	-16.2862	-38.919245	0.000091	0.906527	0.307140	0.007355
1593	7.9600e-01	-16.2573	-38.832437	0.000214	2.139827	0.724993	0.017362
1594	7.9650e-01	-16.2364	-38.758458	0.000182	1.823596	0.617851	0.014796
1595	7.9700e-01	-16.2092	-38.673361	0.000210	2.097662	0.710707	0.017019
1596	7.9750e-01	-16.1498	-38.583987	0.000220	2.203073	0.746421	0.017875
1597	7.9800e-01	-16.1177	-38.533955	0.000123	1.233299	0.417853	0.010006
1598	7.9850e-01	-16.0728	-38.450568	0.000206	2.055498	0.696422	0.016677
1599	7.9900e-01	-15.9974	-38.394549	0.000138	1.380873	0.467853	0.011204
1600	7.9950e-01	-15.9974	-38.301327	-0.000230	-2.297942	-0.778564	0.018644
1601	8.0000e-01	-15.9397	-38.237611	0.000157	1.570612	0.532138	0.012743
1602	8.0050e-01	-15.9156	-38.166625	0.000175	1.749809	0.592851	0.014197
1603	8.0100e-01	-15.8675	-38.093501	0.000180	1.802514	0.610708	0.014625
1604	8.0150e-01	-15.8129	-38.034061	0.000147	1.465201	0.496424	0.011888
1605	8.0200e-01	-15.7744	-37.955378	0.000194	1.939547	0.657136	0.015737
1606	8.0250e-01	-15.7423	-37.854458	0.000249	2.487680	0.842849	0.020184
1607	8.0300e-01	-15.7022	-37.801433	0.000131	1.307086	0.442853	0.010605
1608	8.0350e-01	-15.6718	-37.702651	0.000243	2.434975	0.824992	0.019756
1609	8.0400e-01	-15.6060	-37.667159	0.000087	0.874904	0.296426	0.007099
1610	8.0450e-01	-15.5915	-37.573509	0.000231	2.308483	0.782135	0.018730
1611	8.0500e-01	-15.5546	-37.481142	0.000228	2.276860	0.771421	0.018473
1612	8.0550e-01	-15.5017	-37.401176	0.000197	1.971170	0.667851	0.015993
1613	8.0600e-01	-15.4728	-37.334894	0.000163	1.633858	0.553566	0.013256
1614	8.0650e-01	-15.4247	-37.288283	0.000115	1.148971	0.389282	0.009322
1615	8.0700e-01	-15.4054	-37.187363	0.000249	2.487680	0.842849	0.020184
1616	8.0750e-01	-15.3653	-37.109108	0.000193	1.929006	0.653565	0.015651
1617	8.0800e-01	-15.3284	-37.031280	0.000192	1.918465	0.649994	0.015566
1618	8.0850e-01	-15.2563	-36.982958	0.000119	1.191135	0.403567	0.009664
1619	8.0900e-01	-15.2290	-36.897005	0.000212	2.118744	0.717850	0.017191
1620	8.0950e-01	-15.2081	-36.817467	0.000196	1.960629	0.664279	0.015908
1621	8.1000e-01	-15.1472	-36.733653	0.000207	2.066039	0.699993	0.016763
1622	8.1050e-01	-15.0926	-36.670364	0.000156	1.560071	0.528566	0.012658
1623	8.1100e-01	-15.0718	-36.598523	0.000177	1.770891	0.599994	0.014368
1624	8.1150e-01	-15.0204	-36.516847	0.000201	2.013334	0.682136	0.016335
1625	8.1200e-01	-14.9739	-36.424052	0.000229	2.287401	0.774992	0.018559
1626	8.1250e-01	-14.9755	-36.354349	-0.000172	-1.718186	-0.582137	0.013941
1627	8.1300e-01	-14.9065	-36.291916	0.000154	1.538989	0.521423	0.012487
1628	8.1350e-01	-14.8793	-36.194845	0.000239	2.392811	0.810706	0.019414
1629	8.1400e-01	-14.8215	-36.137115	0.000142	1.423037	0.482138	0.011546
1630	8.1450e-01	-14.7862	-36.067412	0.000172	1.718186	0.582137	0.013941
1631	8.1500e-01	-14.7557	-35.965638	0.000251	2.508762	0.849992	0.020355
1632	8.1550e-01	-14.6996	-35.902777	0.000155	1.549530	0.524995	0.012572
1633	8.1600e-01	-14.6418	-35.821100	0.000201	2.013334	0.682136	0.016335
1634	8.1650e-01	-14.6418	-35.745411	-0.000187	-1.865760	-0.632137	0.015138
1635	8.1700e-01	-14.5809	-35.690674	0.000135	1.349250	0.457138	0.010947
1636	8.1750e-01	-14.5408	-35.591893	0.000243	2.434975	0.824992	0.019756
1637	8.1800e-01	-14.4958	-35.509789	0.000202	2.023875	0.685708	0.016421
1638	8.1850e-01	-14.4606	-35.431106	0.000194	1.939547	0.657136	0.015737
1639	8.1900e-01	-14.4349	-35.357982	0.000180	1.802514	0.610708	0.014625
1640	8.1950e-01	-14.3691	-35.308805	0.000121	1.212217	0.410710	0.009835
1641	8.2000e-01	-14.3643	-35.205747	0.000254	2.540385	0.860706	0.020612
1642	8.2050e-01	-14.2985	-35.146735	0.000145	1.454660	0.492852	0.011802
1643	8.2100e-01	-14.3001	-35.058217	-0.000218	-2.181991	-0.739278	0.017704
1644	8.2150e-01	-14.2263	-34.989369	0.000170	1.697104	0.574994	0.013770
1645	8.2200e-01	-14.2119	-34.911969	0.000191	1.907924	0.646422	0.015480
1646	8.2250e-01	-14.1493	-34.815326	0.000238	2.382270	0.807135	0.019329
1647	8.2300e-01	-14.1012	-34.761445	0.000133	1.328168	0.449996	0.010776
1648	8.2350e-01	-14.0659	-34.670361	0.000225	2.245237	0.760707	0.018217
1649	8.2400e-01	-14.0322	-34.602796	0.000167	1.665481	0.564280	0.013513
1650	8.2450e-01	-14.0001	-34.504442	0.000242	2.424434	0.821420	0.019671
1651	8.2500e-01	-13.9488	-34.446285	0.000143	1.433578	0.485709	0.011631
1652	8.2550e-01	-13.9071	-34.368457	0.000192	1.918465	0.649994	0.015566
1653	8.2600e-01	-13.8670	-34.282932	0.000211	2.108203	0.714279	0.017105
1654	8.2650e-01	-13.8285	-34.212374	0.000174	1.739268	0.589280	0.014112
1655	8.2700e-01	-13.7980	-34.124283	0.000217	2.171450	0.735707	0.017618
1656	8.2750e-01	-13.7194	-34.058429	0.000162	1.623317	0.549995	0.013171
1657	8.2800e-01	-13.7082	-33.972904	0.000211	2.108203	0.714279	0.017105
1658	8.2850e-01	-13.6392	-33.894221	0.000194	1.939547	0.657136	0.015737
1659	8.2900e-01	-13.6151	-33.821952	0.000178	1.781432	0.603565	0.014454
1660	8.2950e-01	-13.5574	-33.747545	0.000183	1.834137	0.621422	0.014881
1661	8.3000e-01	-13.5622	-33.672711	-0.000184	-1.844678	-0.624994	0.014967
1662	8.3050e-01	-13.5092	-33.599159	0.000181	1.813055	0.614280	0.014710
1663	8.3100e-01	-13.4627	-33.506792	0.000228	2.276860	0.771421	0.018473
1664	8.3150e-01	-13.4338	-33.420840	0.000212	2.118744	0.717850	0.017191
1665	8.3200e-01	-13.3905	-33.351564	0.000171	1.707645	0.578566	0.013855
1666	8.3250e-01	-13.3617	-33.283572	0.000168	1.676022	0.567852	0.013598
1667	8.3300e-01	-13.3296	-33.196764	0.000214	2.139827	0.724993	0.017362
1668	8.3350e-01	-13.2750	-33.107818	0.000219	2.192532	0.742850	0.017789
1669	8.3400e-01	-13.2365	-33.043674	0.000158	1.581153	0.535709	0.012829
1670	8.3450e-01	-13.1932	-32.960287	0.000206	2.055498	0.696422	0.016677
1671	8.3500e-01	-13.1483	-32.878611	0.000201	2.013334	0.682136	0.016335
1672	8.3550e-01	-13.0905	-32.796934	0.000201	2.013334	0.682136	0.016335
1673	8.3600e-01	-13.0601	-32.727231	0.000172	1.718186	0.582137	0.013941
1674	8.3650e-01	-13.0039	-32.656246	0.000175	1.749809	0.592851	0.014197
1675	8.3700e-01	-12.9798	-32.574569	0.000201	2.013334	0.682136	0.016335
1676	8.3750e-01	-12.9397	-32.482202	0.000228	2.276860	0.771421	0.018473
1677	8.3800e-01	-12.9157	-32.403947	0.000193	1.929006	0.653565	0.015651
1678	8.3850e-01	-12.8724	-32.335527	0.000169	1.686563	0.571423	0.013684
1679	8.3900e-01	-12.8515	-32.204246	0.000324	3.236092	1.096418	0.026256
1680	8.3950e-01	-12.7665	-32.171318	0.000081	0.811658	0.274997	0.006585
1681	8.4000e-01	-12.7360	-32.113161	0.000143	1.433578	0.485709	0.011631
1682	8.4050e-01	-12.7007	-32.012242	0.000249	2.487680	0.842849	0.020184
1683	8.4100e-01	-12.6542	-31.935697	0.000189	1.886842	0.639279	0.015309
1684	8.4150e-01	-12.6141	-31.855731	0.000197	1.971170	0.667851	0.015993
1685	8.4200e-01	-12.5932	-31.780897	0.000184	1.844678	0.624994	0.014967
1686	8.4250e-01	-12.5660	-31.700931	0.000197	1.971170	0.667851	0.015993
1687	8.4300e-01	-12.4857	-31.626096	0.000184	1.844678	0.624994	0.014967
1688	8.4350e-01	-12.4601	-31.551689	0.000183	1.834137	0.621422	0.014881
1689	8.4400e-01	-12.4103	-31.455901	0.000236	2.361188	0.799992	0.019158
1690	8.4450e-01	-12.4071	-31.368666	0.000215	2.150368	0.728564	0.017447
1691	8.4500e-01	-12.3638	-31.307515	0.000151	1.507365	0.510709	0.012230
1692	8.4550e-01	-12.3301	-31.230543	0.000190	1.897383	0.642851	0.015395
1693	8.4600e-01	-12.2884	-31.141597	0.000219	2.192532	0.742850	0.017789
1694	8.4650e-01	-12.2628	-31.057355	0.000208	2.076580	0.703564	0.016848
1695	8.4700e-01	-12.2034	-30.967126	0.000222	2.224155	0.753564	0.018046
1696	8.4750e-01	-12.1825	-30.899989	0.000165	1.654940	0.560709	0.013427
1697	8.4800e-01	-12.1264	-30.819595	0.000198	1.981711	0.671422	0.016079
1698	8.4850e-01	-12.0799	-30.729366	0.000222	2.224155	0.753564	0.018046
1699	8.4900e-01	-12.0350	-30.651111	0.000193	1.929006	0.653565	0.015651
1700	8.4950e-01	-11.9981	-30.569434	0.000201	2.013334	0.682136	0.016335
1701	8.5000e-01	-11.9403	-30.510850	0.000144	1.444119	0.489281	0.011717
1702	8.5050e-01	-11.9146	-30.418055	0.000229	2.287401	0.774992	0.018559
1703	8.5100e-01	-11.8601	-30.343648	0.000183	1.834137	0.621422	0.014881
1704	8.5150e-01	-11.8312	-30.256412	0.000215	2.150368	0.728564	0.017447
1705	8.5200e-01	-11.7847	-30.193979	0.000154	1.538989	0.521423	0.012487
1706	8.5250e-01	-11.7622	-30.092204	0.000251	2.508762	0.849992	0.020355
1707	8.5300e-01	-11.7285	-30.010956	0.000200	2.002793	0.678565	0.016250
1708	8.5350e-01	-11.6740	-29.944674	0.000163	1.633858	0.553566	0.013256
1709	8.5400e-01	-11.5970	-29.879675	0.000160	1.602235	0.542852	0.013000
1710	8.5450e-01	-11.5890	-29.797998	0.000201	2.013334	0.682136	0.016335
1711	8.5500e-01	-11.5569	-29.703921	0.000232	2.319024	0.785707	0.018816
1712	8.5550e-01	-11.4927	-29.610271	0.000231	2.308483	0.782135	0.018730
1713	8.5600e-01	-11.4767	-29.514483	0.000236	2.361188	0.799992	0.019158
1714	8.5650e-01	-11.4109	-29.470010	0.000110	1.096266	0.371425	0.008895
1715	8.5700e-01	-11.4141	-29.350275	-0.000295	-2.951485	-0.999990	0.023947
1716	8.5750e-01	-11.3532	-29.276295	0.000182	1.823596	0.617851	0.014796
1717	8.5800e-01	-11.3034	-29.220704	0.000137	1.370332	0.464281	0.011118
1718	8.5850e-01	-11.2922	-29.136462	0.000208	2.076580	0.703564	0.016848
1719	8.5900e-01	-11.2312	-29.040246	0.000237	2.371729	0.803564	0.019243
1720	8.5950e-01	-11.1799	-28.968833	0.000176	1.760350	0.596423	0.014283
1721	8.6000e-01	-11.1574	-28.874328	0.000233	2.329565	0.789278	0.018901
1722	8.6050e-01	-11.1302	-28.802914	0.000176	1.760350	0.596423	0.014283
1723	8.6100e-01	-11.0660	-28.728935	0.000182	1.823596	0.617851	0.014796
1724	8.6150e-01	-11.0066	-28.637423	0.000226	2.255778	0.764278	0.018302
1725	8.6200e-01	-11.0066	-28.560023	-0.000191	-1.907924	-0.646422	0.015480
1726	8.6250e-01	-10.9312	-28.499728	0.000149	1.486283	0.503566	0.012059
1727	8.6300e-01	-10.9521	-28.376999	-0.000303	-3.025272	-1.024990	0.024546
1728	8.6350e-01	-10.8751	-28.300027	0.000190	1.897383	0.642851	0.015395
1729	8.6400e-01	-10.8302	-28.223054	0.000190	1.897383	0.642851	0.015395
1730	8.6450e-01	-10.7820	-28.152069	0.000175	1.749809	0.592851	0.014197
1731	8.6500e-01	-10.7628	-28.069964	0.000202	2.023875	0.685708	0.016421
1732	8.6550e-01	-10.6810	-27.983584	0.000213	2.129286	0.721421	0.017276
1733	8.6600e-01	-10.6858	-27.896776	-0.000214	-2.139827	-0.724993	0.017362
1734	8.6650e-01	-10.6313	-27.821942	0.000184	1.844678	0.624994	0.014967
1735	8.6700e-01	-10.5735	-27.738983	0.000204	2.044957	0.692850	0.016592
1736	8.6750e-01	-10.5735	-27.662865	-0.000188	-1.876301	-0.635708	0.015223
1737	8.6800e-01	-10.5141	-27.581189	0.000201	2.013334	0.682136	0.016335
1738	8.6850e-01	-10.4468	-27.499512	0.000201	2.013334	0.682136	0.016335
1739	8.6900e-01	-10.4147	-27.412277	0.000215	2.150368	0.728564	0.017447
1740	8.6950e-01	-10.3858	-27.313495	0.000243	2.434975	0.824992	0.019756
1741	8.7000e-01	-10.3521	-27.248069	0.000161	1.612776	0.546423	0.013085
1742	8.7050e-01	-10.3232	-27.165537	0.000203	2.034416	0.689279	0.016506
1743	8.7100e-01	-10.2783	-27.069749	0.000236	2.361188	0.799992	0.019158
1744	8.7150e-01	-10.2559	-26.991494	0.000193	1.929006	0.653565	0.015651
1745	8.7200e-01	-10.1981	-26.899126	0.000228	2.276860	0.771421	0.018473
1746	8.7250e-01	-10.1452	-26.829424	0.000172	1.718186	0.582137	0.013941
1747	8.7300e-01	-10.1227	-26.743898	0.000211	2.108203	0.714279	0.017105
1748	8.7350e-01	-10.0585	-26.661794	0.000202	2.023875	0.685708	0.016421
1749	8.7400e-01	-10.0377	-26.578835	0.000204	2.044957	0.692850	0.016592
1750	8.7450e-01	-9.9960	-26.497586	0.000200	2.002793	0.678565	0.016250
1751	8.7500e-01	-9.9254	-26.421897	0.000187	1.865760	0.632137	0.015138
1752	8.7550e-01	-9.9045	-26.332523	0.000220	2.203073	0.746421	0.017875
1753	8.7600e-01	-9.8644	-26.251702	0.000199	1.992252	0.674993	0.016164
1754	8.7650e-01	-9.8163	-26.175157	0.000189	1.886842	0.639279	0.015309
1755	8.7700e-01	-9.8003	-26.078514	0.000238	2.382270	0.807135	0.019329
1756	8.7750e-01	-9.7281	-25.994699	0.000207	2.066039	0.699993	0.016763
1757	8.7800e-01	-9.7249	-25.910884	0.000207	2.066039	0.699993	0.016763
1758	8.7850e-01	-9.6880	-25.812103	0.000243	2.434975	0.824992	0.019756
1759	8.7900e-01	-9.6366	-25.750097	0.000153	1.528448	0.517852	0.012401
1760	8.7950e-01	-9.6174	-25.638060	0.000276	2.761747	0.935705	0.022408
1761	8.8000e-01	-9.5372	-25.582041	0.000138	1.380873	0.467853	0.011204
1762	8.8050e-01	-9.4810	-25.494805	0.000215	2.150368	0.728564	0.017447
1763	8.8100e-01	-9.4650	-25.405859	0.000219	2.192532	0.742850	0.017789
1764	8.8150e-01	-9.4201	-25.332735	0.000180	1.802514	0.610708	0.014625
1765	8.8200e-01	-9.3960	-25.231816	0.000249	2.487680	0.842849	0.020184
1766	8.8250e-01	-9.3479	-25.155271	0.000189	1.886842	0.639279	0.015309
1767	8.8300e-01	-9.3190	-25.062904	0.000228	2.276860	0.771421	0.018473
1768	8.8350e-01	-9.2853	-24.979944	0.000204	2.044957	0.692850	0.016592
1769	8.8400e-01	-9.2580	-24.892281	0.000216	2.160909	0.732136	0.017533
1770	8.8450e-01	-9.1955	-24.808894	0.000206	2.055498	0.696422	0.016677
1771	8.8500e-01	-9.1136	-24.748171	0.000150	1.496824	0.507138	0.012145
1772	8.8550e-01	-9.1088	-24.639982	0.000267	2.666877	0.903563	0.021638
1773	8.8600e-01	-9.0623	-24.569424	0.000174	1.739268	0.589280	0.014112
1774	8.8650e-01	-9.0206	-24.482616	0.000214	2.139827	0.724993	0.017362
1775	8.8700e-01	-8.9853	-24.397091	0.000211	2.108203	0.714279	0.017105
1776	8.8750e-01	-8.9436	-24.324822	0.000178	1.781432	0.603565	0.014454
1777	8.8800e-01	-8.8987	-24.229034	0.000236	2.361188	0.799992	0.019158
1778	8.8850e-01	-8.8778	-24.146503	0.000203	2.034416	0.689279	0.016506
1779	8.8900e-01	-8.8056	-24.082786	0.000157	1.570612	0.532138	0.012743
1780	8.8950e-01	-8.7944	-23.960058	0.000303	3.025272	1.024990	0.024546
1781	8.9000e-01	-8.7479	-23.883513	0.000189	1.886842	0.639279	0.015309
1782	8.9050e-01	-8.7014	-23.812100	0.000176	1.760350	0.596423	0.014283
1783	8.9100e-01	-8.6677	-23.720160	0.000227	2.266319	0.767850	0.018388
1784	8.9150e-01	-8.6356	-23.626510	0.000231	2.308483	0.782135	0.018730
1785	8.9200e-01	-8.6099	-23.543551	0.000204	2.044957	0.692850	0.016592
1786	8.9250e-01	-8.5554	-23.463157	0.000198	1.981711	0.671422	0.016079
1787	8.9300e-01	-8.4992	-23.384474	0.000194	1.939547	0.657136	0.015737
1788	8.9350e-01	-8.4671	-23.290397	0.000232	2.319024	0.785707	0.018816
1789	8.9400e-01	-8.4110	-23.216418	0.000182	1.823596	0.617851	0.014796
1790	8.9450e-01	-8.3773	-23.128754	0.000216	2.160909	0.732136	0.017533
1791	8.9500e-01	-8.3388	-23.040236	0.000218	2.181991	0.739278	0.017704
1792	8.9550e-01	-8.3292	-22.937178	0.000254	2.540385	0.860706	0.020612
1793	8.9600e-01	-8.2602	-22.865765	0.000176	1.760350	0.596423	0.014283
1794	8.9650e-01	-8.2169	-22.776391	0.000220	2.203073	0.746421	0.017875
1795	8.9700e-01	-8.1800	-22.691721	0.000209	2.087121	0.707136	0.016934
1796	8.9750e-01	-8.1447	-22.618170	0.000181	1.813055	0.614280	0.014710
1797	8.9800e-01	-8.1158	-22.531790	0.000213	2.129286	0.721421	0.017276
1798	8.9850e-01	-8.0837	-22.434291	0.000240	2.403352	0.814278	0.019500
1799	8.9900e-01	-8.0452	-22.342352	0.000227	2.266319	0.767850	0.018388
1800	8.9950e-01	-7.9907	-22.254688	0.000216	2.160909	0.732136	0.017533
1801	9.0000e-01	-7.9297	-22.184985	0.000172	1.718186	0.582137	0.013941
1802	9.0050e-01	-7.9008	-22.094757	0.000222	2.224155	0.753564	0.018046
1803	9.0100e-01	-7.8896	-22.005383	0.000220	2.203073	0.746421	0.017875
1804	9.0150e-01	-7.8591	-21.923279	0.000202	2.023875	0.685708	0.016421
1805	9.0200e-01	-7.8078	-21.840747	0.000203	2.034416	0.689279	0.016506
1806	9.0250e-01	-7.7725	-21.733841	0.000264	2.635254	0.892848	0.021381
1807	9.0300e-01	-7.7099	-21.670980	0.000155	1.549530	0.524995	0.012572
1808	9.0350e-01	-7.6698	-21.558514	0.000277	2.772288	0.939276	0.022493
1809	9.0400e-01	-7.6378	-21.482825	0.000187	1.865760	0.632137	0.015138
1810	9.0450e-01	-7.5896	-21.398583	0.000208	2.076580	0.703564	0.016848
1811	9.0500e-01	-7.5415	-21.334011	0.000159	1.591694	0.539280	0.012914
1812	9.0550e-01	-7.5303	-21.235230	0.000243	2.434975	0.824992	0.019756
1813	9.0600e-01	-7.4709	-21.133027	0.000252	2.519303	0.853563	0.020440
1814	9.0650e-01	-7.4468	-21.045792	0.000215	2.150368	0.728564	0.017447
1815	9.0700e-01	-7.4196	-20.963260	0.000203	2.034416	0.689279	0.016506
1816	9.0750e-01	-7.3410	-20.881584	0.000201	2.013334	0.682136	0.016335
1817	9.0800e-01	-7.2977	-20.802473	0.000195	1.950088	0.660708	0.015822
1818	9.0850e-01	-7.2672	-20.712672	0.000221	2.213614	0.749993	0.017960
1819	9.0900e-01	-7.2094	-20.610042	0.000253	2.529844	0.857134	0.020526
1820	9.0950e-01	-7.1982	-20.530931	0.000195	1.950088	0.660708	0.015822
1821	9.1000e-01	-7.1453	-20.448827	0.000202	2.023875	0.685708	0.016421
1822	9.1050e-01	-7.0923	-20.379124	0.000172	1.718186	0.582137	0.013941
1823	9.1100e-01	-7.0859	-20.273073	0.000261	2.614172	0.885706	0.021210
1824	9.1150e-01	-7.0378	-20.187120	0.000212	2.118744	0.717850	0.017191
1825	9.1200e-01	-6.9784	-20.098174	0.000219	2.192532	0.742850	0.017789
1826	9.1250e-01	-6.9463	-20.006662	0.000226	2.255778	0.764278	0.018302
1827	9.1300e-01	-6.8854	-19.924558	0.000202	2.023875	0.685708	0.016421
1828	9.1350e-01	-6.8645	-19.832191	0.000228	2.276860	0.771421	0.018473
1829	9.1400e-01	-6.8517	-19.759067	0.000180	1.802514	0.610708	0.014625
1830	9.1450e-01	-6.8052	-19.647885	0.000274	2.740665	0.928562	0.022237
1831	9.1500e-01	-6.7634	-19.562360	0.000211	2.108203	0.714279	0.017105
1832	9.1550e-01	-6.7378	-19.479400	0.000204	2.044957	0.692850	0.016592
1833	9.1600e-01	-6.6608	-19.393875	0.000211	2.108203	0.714279	0.017105
1834	9.1650e-01	-6.6351	-19.315620	0.000193	1.929006	0.653565	0.015651
1835	9.1700e-01	-6.5982	-19.224963	0.000223	2.234696	0.757135	0.018131
1836	9.1750e-01	-6.5693	-19.125327	0.000246	2.456057	0.832135	0.019927
1837	9.1800e-01	-6.4811	-19.057334	0.000168	1.676022	0.567852	0.013598
1838	9.1850e-01	-6.4586	-18.954704	0.000253	2.529844	0.857134	0.020526
1839	9.1900e-01	-6.4250	-18.881580	0.000180	1.802514	0.610708	0.014625
1840	9.1950e-01	-6.4057	-18.765266	0.000287	2.867157	0.971419	0.023263
1841	9.2000e-01	-6.3752	-18.674610	0.000223	2.234696	0.757135	0.018131
1842	9.2050e-01	-6.3175	-18.618591	0.000138	1.380873	0.467853	0.011204
1843	9.2100e-01	-6.2693	-18.509119	0.000270	2.698500	0.914277	0.021894
1844	9.2150e-01	-6.2581	-18.427015	0.000202	2.023875	0.685708	0.016421
1845	9.2200e-01	-6.2036	-18.341062	0.000212	2.118744	0.717850	0.017191
1846	9.2250e-01	-6.1554	-18.245701	0.000235	2.350647	0.796421	0.019072
1847	9.2300e-01	-6.0897	-18.183268	0.000154	1.538989	0.521423	0.012487
1848	9.2350e-01	-6.0768	-18.075507	0.000266	2.656336	0.899991	0.021552
1849	9.2400e-01	-6.0464	-17.984850	0.000223	2.234696	0.757135	0.018131
1850	9.2450e-01	-5.9934	-17.914719	0.000173	1.728727	0.585709	0.014026
1851	9.2500e-01	-5.9533	-17.818504	0.000237	2.371729	0.803564	0.019243
1852	9.2550e-01	-5.8972	-17.745807	0.000179	1.791973	0.607137	0.014539
1853	9.2600e-01	-5.8715	-17.646171	0.000246	2.456057	0.832135	0.019927
1854	9.2650e-01	-5.8202	-17.568771	0.000191	1.907924	0.646422	0.015480
1855	9.2700e-01	-5.8025	-17.452884	0.000286	2.856616	0.967848	0.023177
1856	9.2750e-01	-5.7528	-17.378477	0.000183	1.834137	0.621422	0.014881
1857	9.2800e-01	-5.7127	-17.266012	0.000277	2.772288	0.939276	0.022493
1858	9.2850e-01	-5.6645	-17.201868	0.000158	1.581153	0.535709	0.012829
1859	9.2900e-01	-5.6373	-17.108218	0.000231	2.308483	0.782135	0.018730
1860	9.2950e-01	-5.6004	-17.022265	0.000212	2.118744	0.717850	0.017191
1861	9.3000e-01	-5.5426	-16.945293	0.000190	1.897383	0.642851	0.015395
1862	9.3050e-01	-5.5458	-16.827696	-0.000290	-2.898780	-0.982133	0.023519
1863	9.3100e-01	-5.4817	-16.747302	0.000198	1.981711	0.671422	0.016079
1864	9.3150e-01	-5.4512	-16.648949	0.000242	2.424434	0.821420	0.019671
1865	9.3200e-01	-5.3646	-16.570693	0.000193	1.929006	0.653565	0.015651
1866	9.3250e-01	-5.3373	-16.474050	0.000238	2.382270	0.807135	0.019329
1867	9.3300e-01	-5.3132	-16.379545	0.000233	2.329565	0.789278	0.018901
1868	9.3350e-01	-5.2956	-16.289316	0.000222	2.224155	0.753564	0.018046
1869	9.3400e-01	-5.2202	-16.217047	0.000178	1.781432	0.603565	0.014454
1870	9.3450e-01	-5.1897	-16.122970	0.000232	2.319024	0.785707	0.018816
1871	9.3500e-01	-5.1560	-16.020767	0.000252	2.519303	0.853563	0.020440
1872	9.3550e-01	-5.1031	-15.934814	0.000212	2.118744	0.717850	0.017191
1873	9.3600e-01	-5.0774	-15.851855	0.000204	2.044957	0.692850	0.016592
1874	9.3650e-01	-5.0180	-15.759916	0.000227	2.266319	0.767850	0.018388
1875	9.3700e-01	-5.0100	-15.669259	0.000223	2.234696	0.757135	0.018131
1876	9.3750e-01	-4.9555	-15.578175	0.000225	2.245237	0.760707	0.018217
1877	9.3800e-01	-4.9041	-15.497354	0.000199	1.992252	0.674993	0.016164
1878	9.3850e-01	-4.8849	-15.381895	0.000285	2.846075	0.964276	0.023092
1879	9.3900e-01	-4.8287	-15.303640	0.000193	1.929006	0.653565	0.015651
1880	9.3950e-01	-4.7854	-15.228805	0.000184	1.844678	0.624994	0.014967
1881	9.4000e-01	-4.7549	-15.135583	0.000230	2.297942	0.778564	0.018644
1882	9.4050e-01	-4.7293	-15.020979	0.000282	2.824993	0.957133	0.022921
1883	9.4100e-01	-4.6747	-14.940158	0.000199	1.992252	0.674993	0.016164
1884	9.4150e-01	-4.6346	-14.878580	0.000152	1.517907	0.514281	0.012316
1885	9.4200e-01	-4.5865	-14.774667	0.000256	2.561467	0.867849	0.020783
1886	9.4250e-01	-4.5528	-14.680589	0.000232	2.319024	0.785707	0.018816
1887	9.4300e-01	-4.5304	-14.590361	0.000222	2.224155	0.753564	0.018046
1888	9.4350e-01	-4.4854	-14.493717	0.000238	2.382270	0.807135	0.019329
1889	9.4400e-01	-4.4100	-14.418883	0.000184	1.844678	0.624994	0.014967
1890	9.4450e-01	-4.3715	-14.316680	0.000252	2.519303	0.853563	0.020440
1891	9.4500e-01	-4.3459	-14.225169	0.000226	2.255778	0.764278	0.018302
1892	9.4550e-01	-4.2993	-14.135367	0.000221	2.213614	0.749993	0.017960
1893	9.4600e-01	-4.2849	-14.047704	0.000216	2.160909	0.732136	0.017533
1894	9.4650e-01	-4.2352	-13.945502	0.000252	2.519303	0.853563	0.020440
1895	9.4700e-01	-4.1758	-13.861687	0.000207	2.066039	0.699993	0.016763
1896	9.4750e-01	-4.1742	-13.765471	0.000237	2.371729	0.803564	0.019243
1897	9.4800e-01	-4.1149	-13.693630	0.000177	1.770891	0.599994	0.014368
1898	9.4850e-01	-4.0924	-13.580310	0.000279	2.793370	0.946419	0.022664
1899	9.4900e-01	-4.0154	-13.507186	0.000180	1.802514	0.610708	0.014625
1900	9.4950e-01	-3.9865	-13.409260	0.000241	2.413893	0.817849	0.019585
1901	9.5000e-01	-3.9673	-13.326728	0.000203	2.034416	0.689279	0.016506
1902	9.5050e-01	-3.9159	-13.243341	0.000206	2.055498	0.696422	0.016677
1903	9.5100e-01	-3.8437	-13.155250	0.000217	2.171450	0.735707	0.017618
1904	9.5150e-01	-3.8197	-13.056041	0.000245	2.445516	0.828563	0.019842
1905	9.5200e-01	-3.7764	-12.952556	0.000255	2.550926	0.864277	0.020697
1906	9.5250e-01	-3.7298	-12.885419	0.000165	1.654940	0.560709	0.013427
1907	9.5300e-01	-3.6978	-12.771670	0.000280	2.803911	0.949991	0.022750
1908	9.5350e-01	-3.6689	-12.671178	0.000248	2.477139	0.839277	0.020098
1909	9.5400e-01	-3.6208	-12.601048	0.000173	1.728727	0.585709	0.014026
1910	9.5450e-01	-3.6063	-12.475326	0.000310	3.099059	1.049990	0.025144
1911	9.5500e-01	-3.5646	-12.394077	0.000200	2.002793	0.678565	0.016250
1912	9.5550e-01	-3.5454	-12.303848	0.000222	2.224155	0.753564	0.018046
1913	9.5600e-01	-3.4635	-12.227303	0.000189	1.886842	0.639279	0.015309
1914	9.5650e-01	-3.4363	-12.117831	0.000270	2.698500	0.914277	0.021894
1915	9.5700e-01	-3.4026	-12.037010	0.000199	1.992252	0.674993	0.016164
1916	9.5750e-01	-3.3496	-11.947209	0.000221	2.213614	0.749993	0.017960
1917	9.5800e-01	-3.3192	-11.841158	0.000261	2.614172	0.885706	0.021210
1918	9.5850e-01	-3.2758	-11.780007	0.000151	1.507365	0.510709	0.012230
1919	9.5900e-01	-3.2261	-11.681653	0.000242	2.424434	0.821420	0.019671
1920	9.5950e-01	-3.1796	-11.582017	0.000246	2.456057	0.832135	0.019927
1921	9.6000e-01	-3.1571	-11.474255	0.000266	2.656336	0.899991	0.021552
1922	9.6050e-01	-3.1170	-11.384881	0.000220	2.203073	0.746421	0.017875
1923	9.6100e-01	-3.1010	-11.289093	0.000236	2.361188	0.799992	0.019158
1924	9.6150e-01	-3.0144	-11.203568	0.000211	2.108203	0.714279	0.017105
1925	9.6200e-01	-2.9662	-11.125313	0.000193	1.929006	0.653565	0.015651
1926	9.6250e-01	-2.9422	-11.043637	0.000201	2.013334	0.682136	0.016335
1927	9.6300e-01	-2.9213	-10.935875	0.000266	2.656336	0.899991	0.021552
1928	9.6350e-01	-2.8571	-10.862323	0.000181	1.813055	0.614280	0.014710
1929	9.6400e-01	-2.8315	-10.749430	0.000278	2.782829	0.942848	0.022579
1930	9.6450e-01	-2.7882	-10.656636	0.000229	2.287401	0.774992	0.018559
1931	9.6500e-01	-2.7481	-10.562558	0.000232	2.319024	0.785707	0.018816
1932	9.6550e-01	-2.6791	-10.487724	0.000184	1.844678	0.624994	0.014967
1933	9.6600e-01	-2.6694	-10.372265	0.000285	2.846075	0.964276	0.023092
1934	9.6650e-01	-2.6261	-10.277332	0.000234	2.340106	0.792849	0.018987
1935	9.6700e-01	-2.5844	-10.205919	0.000176	1.760350	0.596423	0.014283
1936	9.6750e-01	-2.5636	-10.096447	0.000270	2.698500	0.914277	0.021894
1937	9.6800e-01	-2.5283	-10.003652	0.000229	2.287401	0.774992	0.018559
1938	9.6850e-01	-2.4625	-9.920693	0.000204	2.044957	0.692850	0.016592
1939	9.6900e-01	-2.4449	-9.812931	0.000266	2.656336	0.899991	0.021552
1940	9.6950e-01	-2.3935	-9.717998	0.000234	2.340106	0.792849	0.018987
1941	9.7000e-01	-2.3662	-9.622638	0.000235	2.350647	0.796421	0.019072
1942	9.7050e-01	-2.3069	-9.543955	0.000194	1.939547	0.657136	0.015737
1943	9.7100e-01	-2.2957	-9.444318	0.000246	2.456057	0.832135	0.019927
1944	9.7150e-01	-2.2315	-9.357510	0.000214	2.139827	0.724993	0.017362
1945	9.7200e-01	-2.2090	-9.257873	0.000246	2.456057	0.832135	0.019927
1946	9.7250e-01	-2.1433	-9.166789	0.000225	2.245237	0.760707	0.018217
1947	9.7300e-01	-2.0951	-9.093238	0.000181	1.813055	0.614280	0.014710
1948	9.7350e-01	-2.0454	-8.992318	0.000249	2.487680	0.842849	0.020184
1949	9.7400e-01	-2.0229	-8.870017	0.000301	3.014731	1.021419	0.024460
1950	9.7450e-01	-1.9828	-8.813143	0.000140	1.401955	0.474995	0.011375
1951	9.7500e-01	-1.9780	-8.683145	0.000320	3.204469	1.085704	0.026000
1952	9.7550e-01	-1.9235	-8.617718	0.000161	1.612776	0.546423	0.013085
1953	9.7600e-01	-1.8657	-8.515088	0.000253	2.529844	0.857134	0.020526
1954	9.7650e-01	-1.8032	-8.421011	0.000232	2.319024	0.785707	0.018816
1955	9.7700e-01	-1.7967	-8.346604	0.000183	1.834137	0.621422	0.014881
1956	9.7750e-01	-1.7518	-8.223875	0.000303	3.025272	1.024990	0.024546
1957	9.7800e-01	-1.7181	-8.140489	0.000206	2.055498	0.696422	0.016677
1958	9.7850e-01	-1.6524	-8.059667	0.000199	1.992252	0.674993	0.016164
1959	9.7900e-01	-1.6331	-7.953189	0.000262	2.624713	0.889277	0.021296
1960	9.7950e-01	-1.5818	-7.866808	0.000213	2.129286	0.721421	0.017276
1961	9.8000e-01	-1.5481	-7.773586	0.000230	2.297942	0.778564	0.018644
1962	9.8050e-01	-1.5032	-7.679081	0.000233	2.329565	0.789278	0.018901
1963	9.8100e-01	-1.4823	-7.581155	0.000241	2.413893	0.817849	0.019585
1964	9.8150e-01	-1.4262	-7.496057	0.000210	2.097662	0.710707	0.017019
1965	9.8200e-01	-1.3941	-7.390861	0.000259	2.593090	0.878563	0.021039
1966	9.8250e-01	-1.3411	-7.293790	0.000239	2.392811	0.810706	0.019414
1967	9.8300e-01	-1.3026	-7.206983	0.000214	2.139827	0.724993	0.017362
1968	9.8350e-01	-1.2433	-7.136424	0.000174	1.739268	0.589280	0.014112
1969	9.8400e-01	-1.1984	-7.032084	0.000257	2.572008	0.871420	0.020868
1970	9.8450e-01	-1.1935	-6.909783	0.000301	3.014731	1.021419	0.024460
1971	9.8500e-01	-1.1502	-6.826824	0.000204	2.044957	0.692850	0.016592
1972	9.8550e-01	-1.1149	-6.733174	0.000231	2.308483	0.782135	0.018730
1973	9.8600e-01	-1.0668	-6.637813	0.000235	2.350647	0.796421	0.019072
1974	9.8650e-01	-1.0235	-6.560841	0.000190	1.897383	0.642851	0.015395
1975	9.8700e-01	-0.9946	-6.427422	0.000329	3.288797	1.114275	0.026684
1976	9.8750e-01	-0.9513	-6.372258	0.000136	1.359791	0.460710	0.011033
1977	9.8800e-01	-0.9160	-6.258510	0.000280	2.803911	0.949991	0.022750
1978	9.8850e-01	-0.8615	-6.178116	0.000198	1.981711	0.671422	0.016079
1979	9.8900e-01	-0.8246	-6.083611	0.000233	2.329565	0.789278	0.018901
1980	9.8950e-01	-0.7861	-5.998941	0.000209	2.087121	0.707136	0.016934
1981	9.9000e-01	-0.7347	-5.904008	0.000234	2.340106	0.792849	0.018987
1982	9.9050e-01	-0.7155	-5.791115	0.000278	2.782829	0.942848	0.022579
1983	9.9100e-01	-0.6625	-5.694900	0.000237	2.371729	0.803564	0.019243
1984	9.9150e-01	-0.6208	-5.605098	0.000221	2.213614	0.749993	0.017960
1985	9.9200e-01	-0.6048	-5.510165	0.000234	2.340106	0.792849	0.018987
1986	9.9250e-01	-0.5631	-5.410956	0.000245	2.445516	0.828563	0.019842
1987	9.9300e-01	-0.5278	-5.314313	0.000238	2.382270	0.807135	0.019329
1988	9.9350e-01	-0.4749	-5.234347	0.000197	1.971170	0.667851	0.015993
1989	9.9400e-01	-0.4331	-5.124447	0.000271	2.709041	0.917848	0.021980
1990	9.9450e-01	-0.3593	-5.039778	0.000209	2.087121	0.707136	0.016934
1991	9.9500e-01	-0.3353	-4.955535	0.000208	2.076580	0.703564	0.016848
1992	9.9550e-01	-0.2984	-4.854188	0.000250	2.498221	0.846420	0.020269
1993	9.9600e-01	-0.2422	-4.772512	0.000201	2.013334	0.682136	0.016335
1994	9.9650e-01	-0.2294	-4.660046	0.000277	2.772288	0.939276	0.022493
1995	9.9700e-01	-0.1909	-4.572383	0.000216	2.160909	0.732136	0.017533
1996	9.9750e-01	-0.1492	-4.483010	0.000220	2.203073	0.746421	0.017875
1997	9.9800e-01	-0.0946	-4.372682	0.000272	2.719582	0.921419	0.022065
1998	9.9850e-01	-0.0578	-4.308966	0.000157	1.570612	0.532138	0.012743
1999	9.9900e-01	-0.0433	-4.169560	0.000344	3.436372	1.164274	0.027881
2000	9.9950e-01	-0.0064	-4.098147	0.000176	1.760350	0.596423	0.014283
2001	1.0000e+00	0.0594	-3.999365	0.000176	1.760350	0.596423	0.019756

Center data before PMax,+/-Pr and +/-Vc Calc.

PMax (uC/cm2):	4.49e+01
Pr (uC/cm2):	-1.16e+00
-Pr (uC/cm2):	-4.00e+00
PLoss (uC/cm2):	-1.93e+00
Vc:	1.04e+00
-Vc:	4.53e-01
C (Max-Eff) (nF):	2.24e-01
K (Eff):	7.59e+02
Vert. (+/-Pr) Shift (uC/cm2):	-2.58e+00
Horiz. Shift (+/-Vc):	7.45e-01
Offset (uC/cm2):	2.06e+00

A (Loop Area - uC/cm2·Volts):	5.14e-02



Hysteresis Version: 5.48.1 - Radiant Technologies, Inc., 1999 - 9/12/24

