»»»»»»»»»»»»»»»»»»»»»»»»»»»»»»»»»»»» Hysteresis ««««««««««««««««««««««««««««««««««««
»»»  Executed Version:	5.48.1
»»»  Vision Version:	5.48.4 (R)
»»»  Vision Compiled:	9/18/24
»»»  Driver Version:	5.47.0
»»»  Windows Version:	Windows 8 or 8.1
»»»  Processor Information:	x86 (AMD or Intel) - 32 Processors
»»»  Tester Name:	PMF21124-494 (100V)
»»»  Tester S/N:	PMF21124-494
»»»  Internal Amp Type:	100V RevK 270k
»»»  Internal Amp S/N:	iAB2-596/K     
»»»  Execution Count:	1
»»»»»»»»»»»»»»»»»»»»»»»»»»»»»»»»»»»»»»»»»»««««««««««««««««««««««««««««««««««««««««««

Stored:	6/16/2025 - 16:19:45
Configured:	06/16/25 02:13:38 PM
Executed:	06/16/25 04:19:01 PM

»»»»»»»»»»»»»»»»»»»»»»»»»»»»»»»»»»» Sample Info ««««««««««««««««««««««««««««««««««««
Sample Name:	
Lot Name:	
Wafer Name:	
Die Row/Column:	0/0
Capacitor Number:	0
Sample Area (cm2):	1.00e-04
Sample Thickness (microns):	3.00e-01

Amplifier:	Internal

»»»»»»»»»»»»»»»»»»»»»»»»»»»»»»»»»»» Tester Info «««««««««««««««««««««««««««««««««««
Tester Name:	PMF21124-494 (100V)
Tester Serial Number:	PMF21124-494
Return Signal Amp. Level:	0.19 [Index: 3]

»»»»»»»»»»»»»»»»»»»»»»»»»»»»»»»» Hysteresis Info ««««««««««««««««««««««««««««««««««
Task Name:	Hyst-4
Volts:	20.00
Field:	666.67 (kV/cm)
DCBias:	0.00
DCField:	0.00 (kV/cm)
Hysteresis Period (ms):	2.00e+02
Preset:	Enabled
Preset Delay (ms):	1.00e+03
Profile:	Standard Bipolar

»»»»»»»»»»»»»»»»»»»»»»»»»»»»»»»»»»»»»» Data «««««««««««««««««««««««««««««««««««««««
Points:	2009

Valid Data

Point	Time (ms)	Drive Voltage	Measured Polarization (uC/cm2)	Capacitance (uF)	Normalized Capacitance (uF/cm2)	Dielectric Constant	Instantaneous Current (mA)
   1	0.0000e+00	0.0064	-2.494950	0.000112	1.115080	0.377799	0.000045
   2	9.9500e-02	0.0353	-2.450541	0.000112	1.115080	0.377799	0.000045
   3	1.9900e-01	0.0770	-2.377873	0.000182	1.824676	0.618217	0.000073
   4	2.9850e-01	0.1155	-2.248685	0.000324	3.243868	1.099052	0.000130
   5	3.9800e-01	0.1588	-2.155830	0.000233	2.331530	0.789944	0.000093
   6	4.9750e-01	0.2037	-2.083162	0.000182	1.824676	0.618217	0.000073
   7	5.9700e-01	0.2326	-1.925714	0.000395	3.953464	1.339470	0.000158
   8	6.9650e-01	0.2839	-1.832860	0.000233	2.331530	0.789944	0.000093
   9	7.9600e-01	0.3160	-1.691560	0.000355	3.547981	1.202088	0.000142
  10	8.9550e-01	0.3593	-1.538149	0.000385	3.852093	1.305125	0.000154
  11	9.9500e-01	0.3978	-1.481629	0.000142	1.419192	0.480835	0.000057
  12	1.0945e+00	0.4251	-1.368589	0.000284	2.838385	0.961671	0.000114
  13	1.1940e+00	0.4749	-1.247475	0.000304	3.041126	1.030362	0.000122
  14	1.2935e+00	0.5134	-1.146547	0.000253	2.534272	0.858635	0.000101
  15	1.3930e+00	0.5470	-1.085990	0.000152	1.520563	0.515181	0.000061
  16	1.4925e+00	0.6000	-0.964875	0.000304	3.041126	1.030362	0.000122
  17	1.5920e+00	0.6208	-0.920467	0.000112	1.115080	0.377799	0.000045
  18	1.6915e+00	0.6722	-0.799353	0.000304	3.041126	1.030362	0.000122
  19	1.7910e+00	0.7107	-0.702462	0.000243	2.432901	0.824289	0.000097
  20	1.8905e+00	0.7460	-0.633830	0.000172	1.723305	0.583872	0.000069
  21	1.9900e+00	0.7877	-0.508679	0.000314	3.142497	1.064707	0.000126
  22	2.0895e+00	0.8358	-0.391602	0.000294	2.939756	0.996016	0.000118
  23	2.1890e+00	0.8743	-0.282600	0.000274	2.737014	0.927325	0.000110
  24	2.2885e+00	0.9160	-0.230117	0.000132	1.317821	0.446490	0.000053
  25	2.3880e+00	0.9561	-0.096891	0.000335	3.345239	1.133398	0.000134
  26	2.4875e+00	0.9850	-0.004037	0.000233	2.331530	0.789944	0.000093
  27	2.5870e+00	1.0315	0.109003	0.000284	2.838385	0.961671	0.000114
  28	2.6865e+00	1.0604	0.282600	0.000436	4.358948	1.476852	0.000174
  29	2.7860e+00	1.1165	0.367379	0.000213	2.128789	0.721253	0.000085
  30	2.8855e+00	1.1502	0.472345	0.000264	2.635643	0.892980	0.000105
  31	2.9850e+00	1.1968	0.581348	0.000274	2.737014	0.927325	0.000110
  32	3.0845e+00	1.2337	0.645942	0.000162	1.621934	0.549526	0.000065
  33	3.1840e+00	1.2770	0.754944	0.000274	2.737014	0.927325	0.000110
  34	3.2835e+00	1.3107	0.859910	0.000264	2.635643	0.892980	0.000105
  35	3.3830e+00	1.3443	0.912393	0.000132	1.317821	0.446490	0.000053
  36	3.4825e+00	1.3973	1.037544	0.000314	3.142497	1.064707	0.000126
  37	3.5820e+00	1.4294	1.118287	0.000203	2.027418	0.686908	0.000081
  38	3.6815e+00	1.4695	1.227289	0.000274	2.737014	0.927325	0.000110
  39	3.7810e+00	1.5048	1.332255	0.000264	2.635643	0.892980	0.000105
  40	3.8805e+00	1.5433	1.449332	0.000294	2.939756	0.996016	0.000118
  41	3.9800e+00	1.5930	1.526037	0.000193	1.926047	0.652562	0.000077
  42	4.0795e+00	1.6347	1.626966	0.000253	2.534272	0.858635	0.000101
  43	4.1790e+00	1.6684	1.744043	0.000294	2.939756	0.996016	0.000118
  44	4.2785e+00	1.7181	1.853045	0.000274	2.737014	0.927325	0.000110
  45	4.3780e+00	1.7550	1.978197	0.000314	3.142497	1.064707	0.000126
  46	4.4775e+00	1.7903	2.087199	0.000274	2.737014	0.927325	0.000110
  47	4.5770e+00	1.8240	2.204276	0.000294	2.939756	0.996016	0.000118
  48	4.6765e+00	1.8673	2.293093	0.000223	2.230159	0.755598	0.000089
  49	4.7760e+00	1.9042	2.389984	0.000243	2.432901	0.824289	0.000097
  50	4.8755e+00	1.9459	2.486876	0.000243	2.432901	0.824289	0.000097
  51	4.9750e+00	1.9828	2.628175	0.000355	3.547981	1.202088	0.000142
  52	5.0745e+00	2.0245	2.712955	0.000213	2.128789	0.721253	0.000085
  53	5.1740e+00	2.0679	2.777549	0.000162	1.621934	0.549526	0.000065
  54	5.2735e+00	2.1064	2.882515	0.000264	2.635643	0.892980	0.000105
  55	5.3730e+00	2.1449	2.955183	0.000182	1.824676	0.618217	0.000073
  56	5.4725e+00	2.1866	3.044000	0.000223	2.230159	0.755598	0.000089
  57	5.5720e+00	2.2219	3.173189	0.000324	3.243868	1.099052	0.000130
  58	5.6715e+00	2.2732	3.229709	0.000142	1.419192	0.480835	0.000057
  59	5.7710e+00	2.3021	3.350823	0.000304	3.041126	1.030362	0.000122
  60	5.8705e+00	2.3502	3.447714	0.000243	2.432901	0.824289	0.000097
  61	5.9700e+00	2.3791	3.552679	0.000264	2.635643	0.892980	0.000105
  62	6.0695e+00	2.4288	3.673794	0.000304	3.041126	1.030362	0.000122
  63	6.1690e+00	2.4673	3.766648	0.000233	2.331530	0.789944	0.000093
  64	6.2685e+00	2.5026	3.940244	0.000436	4.358948	1.476852	0.000174
  65	6.3680e+00	2.5443	4.016950	0.000193	1.926047	0.652562	0.000077
  66	6.4675e+00	2.5812	4.097693	0.000203	2.027418	0.686908	0.000081
  67	6.5670e+00	2.6293	4.226881	0.000324	3.243868	1.099052	0.000130
  68	6.6665e+00	2.6630	4.368181	0.000355	3.547981	1.202088	0.000142
  69	6.7660e+00	2.6999	4.412589	0.000112	1.115080	0.377799	0.000045
  70	6.8655e+00	2.7481	4.586186	0.000436	4.358948	1.476852	0.000174
  71	6.9650e+00	2.7833	4.634632	0.000122	1.216451	0.412145	0.000049
  72	7.0645e+00	2.8218	4.699226	0.000162	1.621934	0.549526	0.000065
  73	7.1640e+00	2.8620	4.735560	0.000091	0.912338	0.309108	0.000037
  74	7.2635e+00	2.9069	4.872823	0.000345	3.446610	1.167743	0.000138
  75	7.3630e+00	2.9438	4.989900	0.000294	2.939756	0.996016	0.000118
  76	7.4625e+00	2.9791	5.082754	0.000233	2.331530	0.789944	0.000093
  77	7.5620e+00	3.0224	5.187719	0.000264	2.635643	0.892980	0.000105
  78	7.6615e+00	3.0673	5.288648	0.000253	2.534272	0.858635	0.000101
  79	7.7610e+00	3.0946	5.397650	0.000274	2.737014	0.927325	0.000110
  80	7.8605e+00	3.1459	5.494542	0.000243	2.432901	0.824289	0.000097
  81	7.9600e+00	3.1828	5.595470	0.000253	2.534272	0.858635	0.000101
  82	8.0595e+00	3.2213	5.704473	0.000274	2.737014	0.927325	0.000110
  83	8.1590e+00	3.2662	5.841735	0.000345	3.446610	1.167743	0.000138
  84	8.2585e+00	3.3031	5.938627	0.000243	2.432901	0.824289	0.000097
  85	8.3580e+00	3.3464	6.043592	0.000264	2.635643	0.892980	0.000105
  86	8.4575e+00	3.3930	6.132409	0.000223	2.230159	0.755598	0.000089
  87	8.5570e+00	3.4315	6.261598	0.000324	3.243868	1.099052	0.000130
  88	8.6565e+00	3.4603	6.346377	0.000213	2.128789	0.721253	0.000085
  89	8.7560e+00	3.5036	6.491714	0.000365	3.649352	1.236434	0.000146
  90	8.8555e+00	3.5534	6.564383	0.000182	1.824676	0.618217	0.000073
  91	8.9550e+00	3.5839	6.604754	0.000101	1.013709	0.343454	0.000041
  92	9.0545e+00	3.6175	6.717794	0.000284	2.838385	0.961671	0.000114
  93	9.1540e+00	3.6705	6.826797	0.000274	2.737014	0.927325	0.000110
  94	9.2535e+00	3.7058	6.955985	0.000324	3.243868	1.099052	0.000130
  95	9.3530e+00	3.7443	7.044802	0.000223	2.230159	0.755598	0.000089
  96	9.4525e+00	3.7780	7.161879	0.000294	2.939756	0.996016	0.000118
  97	9.5520e+00	3.8213	7.242622	0.000203	2.027418	0.686908	0.000081
  98	9.6515e+00	3.8630	7.355661	0.000284	2.838385	0.961671	0.000114
  99	9.7510e+00	3.9015	7.480813	0.000314	3.142497	1.064707	0.000126
 100	9.8505e+00	3.9448	7.577704	0.000243	2.432901	0.824289	0.000097
 101	9.9500e+00	3.9689	7.698818	0.000304	3.041126	1.030362	0.000122
 102	1.0050e+01	4.0186	7.783598	0.000213	2.128789	0.721253	0.000085
 103	1.0149e+01	4.0635	7.920860	0.000345	3.446610	1.167743	0.000138
 104	1.0248e+01	4.0940	8.054086	0.000335	3.345239	1.133398	0.000134
 105	1.0348e+01	4.1373	8.142903	0.000223	2.230159	0.755598	0.000089
 106	1.0447e+01	4.1838	8.243831	0.000253	2.534272	0.858635	0.000101
 107	1.0547e+01	4.2288	8.381094	0.000345	3.446610	1.167743	0.000138
 108	1.0646e+01	4.2576	8.413391	0.000081	0.810967	0.274763	0.000032
 109	1.0746e+01	4.2977	8.562765	0.000375	3.750723	1.270779	0.000150
 110	1.0845e+01	4.3443	8.603136	0.000101	1.013709	0.343454	0.000041
 111	1.0945e+01	4.3763	8.716176	0.000284	2.838385	0.961671	0.000114
 112	1.1044e+01	4.4229	8.841327	0.000314	3.142497	1.064707	0.000126
 113	1.1144e+01	4.4614	8.966478	0.000314	3.142497	1.064707	0.000126
 114	1.1243e+01	4.5063	9.055295	0.000223	2.230159	0.755598	0.000089
 115	1.1343e+01	4.5320	9.172372	0.000294	2.939756	0.996016	0.000118
 116	1.1443e+01	4.5801	9.257152	0.000213	2.128789	0.721253	0.000085
 117	1.1542e+01	4.6266	9.378266	0.000304	3.041126	1.030362	0.000122
 118	1.1642e+01	4.6603	9.487269	0.000274	2.737014	0.927325	0.000110
 119	1.1741e+01	4.6892	9.604346	0.000294	2.939756	0.996016	0.000118
 120	1.1841e+01	4.7373	9.781980	0.000446	4.460319	1.511197	0.000179
 121	1.1940e+01	4.7758	9.870797	0.000223	2.230159	0.755598	0.000089
 122	1.2040e+01	4.8143	9.975762	0.000264	2.635643	0.892980	0.000105
 123	1.2139e+01	4.8544	10.076691	0.000253	2.534272	0.858635	0.000101
 124	1.2239e+01	4.8961	10.205879	0.000324	3.243868	1.099052	0.000130
 125	1.2338e+01	4.9410	10.274510	0.000172	1.723305	0.583872	0.000069
 126	1.2438e+01	4.9699	10.343142	0.000172	1.723305	0.583872	0.000069
 127	1.2537e+01	5.0148	10.444070	0.000253	2.534272	0.858635	0.000101
 128	1.2636e+01	5.0581	10.573258	0.000324	3.243868	1.099052	0.000130
 129	1.2736e+01	5.0999	10.645927	0.000182	1.824676	0.618217	0.000073
 130	1.2835e+01	5.1416	10.750892	0.000264	2.635643	0.892980	0.000105
 131	1.2935e+01	5.1753	10.876044	0.000314	3.142497	1.064707	0.000126
 132	1.3034e+01	5.2089	10.976972	0.000253	2.534272	0.858635	0.000101
 133	1.3134e+01	5.2523	11.081938	0.000264	2.635643	0.892980	0.000105
 134	1.3233e+01	5.2972	11.199015	0.000294	2.939756	0.996016	0.000118
 135	1.3333e+01	5.3341	11.279757	0.000203	2.027418	0.686908	0.000081
 136	1.3432e+01	5.3774	11.392797	0.000284	2.838385	0.961671	0.000114
 137	1.3532e+01	5.4207	11.542171	0.000375	3.750723	1.270779	0.000150
 138	1.3632e+01	5.4672	11.647137	0.000264	2.635643	0.892980	0.000105
 139	1.3731e+01	5.4945	11.780362	0.000335	3.345239	1.133398	0.000134
 140	1.3831e+01	5.5330	11.885328	0.000264	2.635643	0.892980	0.000105
 141	1.3930e+01	5.5875	12.014516	0.000324	3.243868	1.099052	0.000130
 142	1.4030e+01	5.6148	12.119481	0.000264	2.635643	0.892980	0.000105
 143	1.4129e+01	5.6549	12.232521	0.000284	2.838385	0.961671	0.000114
 144	1.4229e+01	5.7047	12.293078	0.000152	1.520563	0.515181	0.000061
 145	1.4328e+01	5.7319	12.398044	0.000264	2.635643	0.892980	0.000105
 146	1.4428e+01	5.7736	12.519158	0.000304	3.041126	1.030362	0.000122
 147	1.4527e+01	5.8105	12.599901	0.000203	2.027418	0.686908	0.000081
 148	1.4627e+01	5.8490	12.741200	0.000355	3.547981	1.202088	0.000142
 149	1.4726e+01	5.8907	12.805795	0.000162	1.621934	0.549526	0.000065
 150	1.4825e+01	5.9341	12.890574	0.000213	2.128789	0.721253	0.000085
 151	1.4925e+01	5.9645	13.088394	0.000497	4.967173	1.682924	0.000199
 152	1.5024e+01	6.0143	13.165100	0.000193	1.926047	0.652562	0.000077
 153	1.5124e+01	6.0608	13.245842	0.000203	2.027418	0.686908	0.000081
 154	1.5223e+01	6.0913	13.387142	0.000355	3.547981	1.202088	0.000142
 155	1.5323e+01	6.1394	13.500182	0.000284	2.838385	0.961671	0.000114
 156	1.5422e+01	6.1763	13.617259	0.000294	2.939756	0.996016	0.000118
 157	1.5522e+01	6.2164	13.758559	0.000355	3.547981	1.202088	0.000142
 158	1.5621e+01	6.2469	13.871598	0.000284	2.838385	0.961671	0.000114
 159	1.5721e+01	6.2982	13.980601	0.000274	2.737014	0.927325	0.000110
 160	1.5820e+01	6.3271	14.093641	0.000284	2.838385	0.961671	0.000114
 161	1.5920e+01	6.3768	14.210718	0.000294	2.939756	0.996016	0.000118
 162	1.6020e+01	6.4089	14.251089	0.000101	1.013709	0.343454	0.000041
 163	1.6119e+01	6.4554	14.356055	0.000264	2.635643	0.892980	0.000105
 164	1.6218e+01	6.4907	14.461020	0.000264	2.635643	0.892980	0.000105
 165	1.6318e+01	6.5228	14.561949	0.000253	2.534272	0.858635	0.000101
 166	1.6418e+01	6.5741	14.683063	0.000304	3.041126	1.030362	0.000122
 167	1.6517e+01	6.6175	14.836474	0.000385	3.852093	1.305125	0.000154
 168	1.6616e+01	6.6463	14.913179	0.000193	1.926047	0.652562	0.000077
 169	1.6716e+01	6.6897	14.981811	0.000172	1.723305	0.583872	0.000069
 170	1.6816e+01	6.7265	15.102925	0.000304	3.041126	1.030362	0.000122
 171	1.6915e+01	6.7683	15.256336	0.000385	3.852093	1.305125	0.000154
 172	1.7015e+01	6.8148	15.385524	0.000324	3.243868	1.099052	0.000130
 173	1.7114e+01	6.8533	15.458193	0.000182	1.824676	0.618217	0.000073
 174	1.7213e+01	6.8918	15.623715	0.000416	4.156206	1.408161	0.000166
 175	1.7313e+01	6.9367	15.744829	0.000304	3.041126	1.030362	0.000122
 176	1.7413e+01	6.9752	15.821535	0.000193	1.926047	0.652562	0.000077
 177	1.7512e+01	7.0041	15.922463	0.000253	2.534272	0.858635	0.000101
 178	1.7611e+01	7.0426	16.047615	0.000314	3.142497	1.064707	0.000126
 179	1.7711e+01	7.0795	16.164691	0.000294	2.939756	0.996016	0.000118
 180	1.7811e+01	7.1324	16.233323	0.000172	1.723305	0.583872	0.000069
 181	1.7910e+01	7.1661	16.269657	0.000091	0.912338	0.309108	0.000037
 182	1.8009e+01	7.2062	16.390771	0.000304	3.041126	1.030362	0.000122
 183	1.8109e+01	7.2447	16.519959	0.000324	3.243868	1.099052	0.000130
 184	1.8209e+01	7.2832	16.624925	0.000264	2.635643	0.892980	0.000105
 185	1.8308e+01	7.3313	16.766225	0.000355	3.547981	1.202088	0.000142
 186	1.8407e+01	7.3731	16.798522	0.000081	0.810967	0.274763	0.000032
 187	1.8507e+01	7.4019	16.960007	0.000405	4.054835	1.373815	0.000162
 188	1.8607e+01	7.4420	17.028639	0.000172	1.723305	0.583872	0.000069
 189	1.8706e+01	7.4773	17.125530	0.000243	2.432901	0.824289	0.000097
 190	1.8805e+01	7.5158	17.258755	0.000335	3.345239	1.133398	0.000134
 191	1.8905e+01	7.5720	17.396018	0.000345	3.446610	1.167743	0.000138
 192	1.9005e+01	7.6057	17.517132	0.000304	3.041126	1.030362	0.000122
 193	1.9104e+01	7.6378	17.634209	0.000294	2.939756	0.996016	0.000118
 194	1.9203e+01	7.6875	17.743212	0.000274	2.737014	0.927325	0.000110
 195	1.9303e+01	7.7244	17.872400	0.000324	3.243868	1.099052	0.000130
 196	1.9402e+01	7.7597	17.945068	0.000182	1.824676	0.618217	0.000073
 197	1.9502e+01	7.8158	18.058108	0.000284	2.838385	0.961671	0.000114
 198	1.9602e+01	7.8415	18.054071	-0.000010	-0.101371	-0.034345	-0.000004
 199	1.9701e+01	7.8864	18.235742	0.000456	4.561690	1.545542	0.000183
 200	1.9800e+01	7.9185	18.288225	0.000132	1.317821	0.446490	0.000053
 201	1.9900e+01	7.9666	18.437599	0.000375	3.750723	1.270779	0.000150
 202	2.0000e+01	8.0035	18.498156	0.000152	1.520563	0.515181	0.000061
 203	2.0099e+01	8.0356	18.643493	0.000365	3.649352	1.236434	0.000146
 204	2.0198e+01	8.0821	18.760570	0.000294	2.939756	0.996016	0.000118
 205	2.0298e+01	8.1158	18.788830	0.000071	0.709596	0.240418	0.000028
 206	2.0398e+01	8.1655	18.893795	0.000264	2.635643	0.892980	0.000105
 207	2.0497e+01	8.2057	19.043169	0.000375	3.750723	1.270779	0.000150
 208	2.0596e+01	8.2361	19.176395	0.000335	3.345239	1.133398	0.000134
 209	2.0696e+01	8.2827	19.325769	0.000375	3.750723	1.270779	0.000150
 210	2.0796e+01	8.3244	19.418623	0.000233	2.331530	0.789944	0.000093
 211	2.0895e+01	8.3613	19.523588	0.000264	2.635643	0.892980	0.000105
 212	2.0994e+01	8.4046	19.563960	0.000101	1.013709	0.343454	0.000041
 213	2.1094e+01	8.4447	19.717371	0.000385	3.852093	1.305125	0.000154
 214	2.1194e+01	8.4880	19.846559	0.000324	3.243868	1.099052	0.000130
 215	2.1293e+01	8.5153	19.911153	0.000162	1.621934	0.549526	0.000065
 216	2.1392e+01	8.5538	19.987859	0.000193	1.926047	0.652562	0.000077
 217	2.1492e+01	8.6083	20.052453	0.000162	1.621934	0.549526	0.000065
 218	2.1591e+01	8.6308	20.189716	0.000345	3.446610	1.167743	0.000138
 219	2.1691e+01	8.6725	20.278533	0.000223	2.230159	0.755598	0.000089
 220	2.1791e+01	8.7334	20.359276	0.000203	2.027418	0.686908	0.000081
 221	2.1890e+01	8.7607	20.472315	0.000284	2.838385	0.961671	0.000114
 222	2.1989e+01	8.8072	20.589392	0.000294	2.939756	0.996016	0.000118
 223	2.2089e+01	8.8329	20.678209	0.000223	2.230159	0.755598	0.000089
 224	2.2189e+01	8.8778	20.807398	0.000324	3.243868	1.099052	0.000130
 225	2.2288e+01	8.9292	20.888140	0.000203	2.027418	0.686908	0.000081
 226	2.2387e+01	8.9645	21.053663	0.000416	4.156206	1.408161	0.000166
 227	2.2487e+01	9.0046	21.182851	0.000324	3.243868	1.099052	0.000130
 228	2.2587e+01	9.0463	21.259557	0.000193	1.926047	0.652562	0.000077
 229	2.2686e+01	9.0767	21.380671	0.000304	3.041126	1.030362	0.000122
 230	2.2785e+01	9.1169	21.457376	0.000193	1.926047	0.652562	0.000077
 231	2.2885e+01	9.1586	21.586565	0.000324	3.243868	1.099052	0.000130
 232	2.2985e+01	9.2019	21.687493	0.000253	2.534272	0.858635	0.000101
 233	2.3084e+01	9.2372	21.768236	0.000203	2.027418	0.686908	0.000081
 234	2.3183e+01	9.2885	21.877239	0.000274	2.737014	0.927325	0.000110
 235	2.3283e+01	9.3190	21.933758	0.000142	1.419192	0.480835	0.000057
 236	2.3383e+01	9.3527	22.006427	0.000182	1.824676	0.618217	0.000073
 237	2.3482e+01	9.4024	22.119467	0.000284	2.838385	0.961671	0.000114
 238	2.3581e+01	9.4361	22.224432	0.000264	2.635643	0.892980	0.000105
 239	2.3681e+01	9.4698	22.305175	0.000203	2.027418	0.686908	0.000081
 240	2.3780e+01	9.5163	22.446475	0.000355	3.547981	1.202088	0.000142
 241	2.3880e+01	9.5564	22.523180	0.000193	1.926047	0.652562	0.000077
 242	2.3980e+01	9.5885	22.616034	0.000233	2.331530	0.789944	0.000093
 243	2.4079e+01	9.6414	22.733111	0.000294	2.939756	0.996016	0.000118
 244	2.4178e+01	9.6767	22.866337	0.000335	3.345239	1.133398	0.000134
 245	2.4278e+01	9.7136	22.979377	0.000284	2.838385	0.961671	0.000114
 246	2.4378e+01	9.7569	23.100491	0.000304	3.041126	1.030362	0.000122
 247	2.4477e+01	9.7938	23.225642	0.000314	3.142497	1.064707	0.000126
 248	2.4576e+01	9.8323	23.334645	0.000274	2.737014	0.927325	0.000110
 249	2.4676e+01	9.8757	23.366942	0.000081	0.810967	0.274763	0.000032
 250	2.4776e+01	9.9126	23.504204	0.000345	3.446610	1.167743	0.000138
 251	2.4875e+01	9.9591	23.597058	0.000233	2.331530	0.789944	0.000093
 252	2.4974e+01	9.9992	23.693950	0.000243	2.432901	0.824289	0.000097
 253	2.5074e+01	10.0345	23.766618	0.000182	1.824676	0.618217	0.000073
 254	2.5174e+01	10.0666	23.855435	0.000223	2.230159	0.755598	0.000089
 255	2.5273e+01	10.1211	23.932141	0.000193	1.926047	0.652562	0.000077
 256	2.5372e+01	10.1516	24.069403	0.000345	3.446610	1.167743	0.000138
 257	2.5472e+01	10.2013	24.146109	0.000193	1.926047	0.652562	0.000077
 258	2.5572e+01	10.2350	24.267223	0.000304	3.041126	1.030362	0.000122
 259	2.5671e+01	10.2767	24.339891	0.000182	1.824676	0.618217	0.000073
 260	2.5770e+01	10.3152	24.448894	0.000274	2.737014	0.927325	0.000110
 261	2.5870e+01	10.3473	24.553860	0.000264	2.635643	0.892980	0.000105
 262	2.5970e+01	10.3874	24.703234	0.000375	3.750723	1.270779	0.000150
 263	2.6069e+01	10.4355	24.832422	0.000324	3.243868	1.099052	0.000130
 264	2.6169e+01	10.4724	24.949499	0.000294	2.939756	0.996016	0.000118
 265	2.6268e+01	10.5174	25.074650	0.000314	3.142497	1.064707	0.000126
 266	2.6367e+01	10.5494	25.135207	0.000152	1.520563	0.515181	0.000061
 267	2.6467e+01	10.5960	25.276507	0.000355	3.547981	1.202088	0.000142
 268	2.6567e+01	10.6345	25.357250	0.000203	2.027418	0.686908	0.000081
 269	2.6666e+01	10.6698	25.470289	0.000284	2.838385	0.961671	0.000114
 270	2.6765e+01	10.7163	25.587366	0.000294	2.939756	0.996016	0.000118
 271	2.6865e+01	10.7548	25.651960	0.000162	1.621934	0.549526	0.000065
 272	2.6965e+01	10.7949	25.740777	0.000223	2.230159	0.755598	0.000089
 273	2.7064e+01	10.8254	25.829594	0.000223	2.230159	0.755598	0.000089
 274	2.7163e+01	10.8751	25.930523	0.000253	2.534272	0.858635	0.000101
 275	2.7263e+01	10.9168	26.007228	0.000193	1.926047	0.652562	0.000077
 276	2.7363e+01	10.9633	26.140454	0.000335	3.345239	1.133398	0.000134
 277	2.7462e+01	10.9938	26.233308	0.000233	2.331530	0.789944	0.000093
 278	2.7561e+01	11.0387	26.354422	0.000304	3.041126	1.030362	0.000122
 279	2.7661e+01	11.0692	26.427091	0.000182	1.824676	0.618217	0.000073
 280	2.7761e+01	11.1061	26.564353	0.000345	3.446610	1.167743	0.000138
 281	2.7860e+01	11.1574	26.705653	0.000355	3.547981	1.202088	0.000142
 282	2.7959e+01	11.1863	26.814656	0.000274	2.737014	0.927325	0.000110
 283	2.8059e+01	11.2232	26.875213	0.000152	1.520563	0.515181	0.000061
 284	2.8159e+01	11.2745	27.020549	0.000365	3.649352	1.236434	0.000146
 285	2.8258e+01	11.3130	27.117441	0.000243	2.432901	0.824289	0.000097
 286	2.8358e+01	11.3467	27.234518	0.000294	2.939756	0.996016	0.000118
 287	2.8457e+01	11.3933	27.367743	0.000335	3.345239	1.133398	0.000134
 288	2.8556e+01	11.4286	27.452523	0.000213	2.128789	0.721253	0.000085
 289	2.8656e+01	11.4719	27.565563	0.000284	2.838385	0.961671	0.000114
 290	2.8756e+01	11.5120	27.678603	0.000284	2.838385	0.961671	0.000114
 291	2.8855e+01	11.5601	27.755308	0.000193	1.926047	0.652562	0.000077
 292	2.8954e+01	11.5842	27.795680	0.000101	1.013709	0.343454	0.000041
 293	2.9054e+01	11.6275	27.904682	0.000274	2.737014	0.927325	0.000110
 294	2.9154e+01	11.6708	28.005611	0.000253	2.534272	0.858635	0.000101
 295	2.9253e+01	11.7045	28.138836	0.000335	3.345239	1.133398	0.000134
 296	2.9352e+01	11.7510	28.272062	0.000335	3.345239	1.133398	0.000134
 297	2.9452e+01	11.7975	28.405287	0.000335	3.345239	1.133398	0.000134
 298	2.9552e+01	11.8280	28.457770	0.000132	1.317821	0.446490	0.000053
 299	2.9651e+01	11.8745	28.586958	0.000324	3.243868	1.099052	0.000130
 300	2.9750e+01	11.9034	28.683849	0.000243	2.432901	0.824289	0.000097
 301	2.9850e+01	11.9483	28.780741	0.000243	2.432901	0.824289	0.000097
 302	2.9950e+01	11.9900	28.938189	0.000395	3.953464	1.339470	0.000158
 303	3.0049e+01	12.0285	29.018932	0.000203	2.027418	0.686908	0.000081
 304	3.0148e+01	12.0702	29.131971	0.000284	2.838385	0.961671	0.000114
 305	3.0248e+01	12.1168	29.208677	0.000193	1.926047	0.652562	0.000077
 306	3.0348e+01	12.1408	29.345940	0.000345	3.446610	1.167743	0.000138
 307	3.0447e+01	12.1890	29.402460	0.000142	1.419192	0.480835	0.000057
 308	3.0547e+01	12.2259	29.543759	0.000355	3.547981	1.202088	0.000142
 309	3.0646e+01	12.2756	29.640651	0.000243	2.432901	0.824289	0.000097
 310	3.0745e+01	12.3013	29.701208	0.000152	1.520563	0.515181	0.000061
 311	3.0845e+01	12.3430	29.806173	0.000264	2.635643	0.892980	0.000105
 312	3.0945e+01	12.3879	29.935361	0.000324	3.243868	1.099052	0.000130
 313	3.1044e+01	12.4232	30.028216	0.000233	2.331530	0.789944	0.000093
 314	3.1143e+01	12.4665	30.133181	0.000264	2.635643	0.892980	0.000105
 315	3.1243e+01	12.5098	30.270444	0.000345	3.446610	1.167743	0.000138
 316	3.1343e+01	12.5499	30.383484	0.000284	2.838385	0.961671	0.000114
 317	3.1442e+01	12.5884	30.488449	0.000264	2.635643	0.892980	0.000105
 318	3.1541e+01	12.6285	30.633786	0.000365	3.649352	1.236434	0.000146
 319	3.1641e+01	12.6734	30.690306	0.000142	1.419192	0.480835	0.000057
 320	3.1741e+01	12.7087	30.791234	0.000253	2.534272	0.858635	0.000101
 321	3.1840e+01	12.7472	30.888126	0.000243	2.432901	0.824289	0.000097
 322	3.1939e+01	12.7873	31.013277	0.000314	3.142497	1.064707	0.000126
 323	3.2039e+01	12.8258	31.146502	0.000335	3.345239	1.133398	0.000134
 324	3.2139e+01	12.8692	31.211096	0.000162	1.621934	0.549526	0.000065
 325	3.2238e+01	12.8996	31.344322	0.000335	3.345239	1.133398	0.000134
 326	3.2337e+01	12.9430	31.429102	0.000213	2.128789	0.721253	0.000085
 327	3.2437e+01	12.9782	31.546179	0.000294	2.939756	0.996016	0.000118
 328	3.2536e+01	13.0328	31.626921	0.000203	2.027418	0.686908	0.000081
 329	3.2636e+01	13.0617	31.719775	0.000233	2.331530	0.789944	0.000093
 330	3.2736e+01	13.1082	31.784370	0.000162	1.621934	0.549526	0.000065
 331	3.2835e+01	13.1451	31.925669	0.000355	3.547981	1.202088	0.000142
 332	3.2934e+01	13.1788	32.091192	0.000416	4.156206	1.408161	0.000166
 333	3.3034e+01	13.2189	32.171935	0.000203	2.027418	0.686908	0.000081
 334	3.3133e+01	13.2686	32.280937	0.000274	2.737014	0.927325	0.000110
 335	3.3233e+01	13.2975	32.402051	0.000304	3.041126	1.030362	0.000122
 336	3.3333e+01	13.3472	32.498943	0.000243	2.432901	0.824289	0.000097
 337	3.3432e+01	13.3857	32.599871	0.000253	2.534272	0.858635	0.000101
 338	3.3532e+01	13.4242	32.712911	0.000284	2.838385	0.961671	0.000114
 339	3.3631e+01	13.4595	32.813839	0.000253	2.534272	0.858635	0.000101
 340	3.3730e+01	13.5060	32.914768	0.000253	2.534272	0.858635	0.000101
 341	3.3830e+01	13.5461	33.031845	0.000294	2.939756	0.996016	0.000118
 342	3.3929e+01	13.5782	33.132773	0.000253	2.534272	0.858635	0.000101
 343	3.4029e+01	13.6199	33.229664	0.000243	2.432901	0.824289	0.000097
 344	3.4129e+01	13.6665	33.346741	0.000294	2.939756	0.996016	0.000118
 345	3.4228e+01	13.6985	33.455744	0.000274	2.737014	0.927325	0.000110
 346	3.4328e+01	13.7370	33.544561	0.000223	2.230159	0.755598	0.000089
 347	3.4427e+01	13.7755	33.601081	0.000142	1.419192	0.480835	0.000057
 348	3.4526e+01	13.8285	33.722195	0.000304	3.041126	1.030362	0.000122
 349	3.4626e+01	13.8718	33.806975	0.000213	2.128789	0.721253	0.000085
 350	3.4725e+01	13.8911	33.903866	0.000243	2.432901	0.824289	0.000097
 351	3.4825e+01	13.9440	34.016906	0.000284	2.838385	0.961671	0.000114
 352	3.4925e+01	13.9857	34.133983	0.000294	2.939756	0.996016	0.000118
 353	3.5024e+01	14.0258	34.238948	0.000264	2.635643	0.892980	0.000105
 354	3.5123e+01	14.0611	34.335839	0.000243	2.432901	0.824289	0.000097
 355	3.5223e+01	14.0964	34.473102	0.000345	3.446610	1.167743	0.000138
 356	3.5322e+01	14.1397	34.545771	0.000182	1.824676	0.618217	0.000073
 357	3.5422e+01	14.1766	34.646699	0.000253	2.534272	0.858635	0.000101
 358	3.5522e+01	14.2167	34.763776	0.000294	2.939756	0.996016	0.000118
 359	3.5621e+01	14.2536	34.824333	0.000152	1.520563	0.515181	0.000061
 360	3.5721e+01	14.3001	34.937373	0.000284	2.838385	0.961671	0.000114
 361	3.5820e+01	14.3322	35.054450	0.000294	2.939756	0.996016	0.000118
 362	3.5919e+01	14.3803	35.159415	0.000264	2.635643	0.892980	0.000105
 363	3.6019e+01	14.4124	35.272455	0.000284	2.838385	0.961671	0.000114
 364	3.6118e+01	14.4590	35.369346	0.000243	2.432901	0.824289	0.000097
 365	3.6218e+01	14.4975	35.442015	0.000182	1.824676	0.618217	0.000073
 366	3.6318e+01	14.5440	35.530832	0.000223	2.230159	0.755598	0.000089
 367	3.6417e+01	14.5777	35.627723	0.000243	2.432901	0.824289	0.000097
 368	3.6517e+01	14.6130	35.740763	0.000284	2.838385	0.961671	0.000114
 369	3.6616e+01	14.6531	35.833617	0.000233	2.331530	0.789944	0.000093
 370	3.6715e+01	14.6964	35.934545	0.000253	2.534272	0.858635	0.000101
 371	3.6815e+01	14.7365	36.067771	0.000335	3.345239	1.133398	0.000134
 372	3.6914e+01	14.7734	36.164662	0.000243	2.432901	0.824289	0.000097
 373	3.7014e+01	14.8071	36.277702	0.000284	2.838385	0.961671	0.000114
 374	3.7114e+01	14.8600	36.382667	0.000264	2.635643	0.892980	0.000105
 375	3.7213e+01	14.8985	36.459373	0.000193	1.926047	0.652562	0.000077
 376	3.7313e+01	14.9354	36.548190	0.000223	2.230159	0.755598	0.000089
 377	3.7412e+01	14.9755	36.681415	0.000335	3.345239	1.133398	0.000134
 378	3.7511e+01	15.0236	36.750047	0.000172	1.723305	0.583872	0.000069
 379	3.7611e+01	15.0557	36.855012	0.000264	2.635643	0.892980	0.000105
 380	3.7711e+01	15.0974	36.972089	0.000294	2.939756	0.996016	0.000118
 381	3.7810e+01	15.1327	37.056869	0.000213	2.128789	0.721253	0.000085
 382	3.7910e+01	15.1776	37.109352	0.000132	1.317821	0.446490	0.000053
 383	3.8009e+01	15.2161	37.278911	0.000426	4.257577	1.442506	0.000170
 384	3.8108e+01	15.2482	37.327357	0.000122	1.216451	0.412145	0.000049
 385	3.8208e+01	15.3044	37.460583	0.000335	3.345239	1.133398	0.000134
 386	3.8307e+01	15.3365	37.533251	0.000182	1.824676	0.618217	0.000073
 387	3.8407e+01	15.3766	37.650328	0.000294	2.939756	0.996016	0.000118
 388	3.8507e+01	15.4071	37.747219	0.000243	2.432901	0.824289	0.000097
 389	3.8606e+01	15.4488	37.844110	0.000243	2.432901	0.824289	0.000097
 390	3.8706e+01	15.4873	37.945039	0.000253	2.534272	0.858635	0.000101
 391	3.8805e+01	15.5258	38.054041	0.000274	2.737014	0.927325	0.000110
 392	3.8904e+01	15.5723	38.150933	0.000243	2.432901	0.824289	0.000097
 393	3.9004e+01	15.6188	38.251861	0.000253	2.534272	0.858635	0.000101
 394	3.9103e+01	15.6557	38.344715	0.000233	2.331530	0.789944	0.000093
 395	3.9203e+01	15.6958	38.473904	0.000324	3.243868	1.099052	0.000130
 396	3.9303e+01	15.7359	38.530423	0.000142	1.419192	0.480835	0.000057
 397	3.9402e+01	15.7808	38.659612	0.000324	3.243868	1.099052	0.000130
 398	3.9502e+01	15.8161	38.768614	0.000274	2.737014	0.927325	0.000110
 399	3.9601e+01	15.8434	38.841283	0.000182	1.824676	0.618217	0.000073
 400	3.9700e+01	15.8915	38.930100	0.000223	2.230159	0.755598	0.000089
 401	3.9800e+01	15.9300	39.051214	0.000304	3.041126	1.030362	0.000122
 402	3.9900e+01	15.9653	39.119845	0.000172	1.723305	0.583872	0.000069
 403	3.9999e+01	16.0167	39.240959	0.000304	3.041126	1.030362	0.000122
 404	4.0099e+01	16.0536	39.317665	0.000193	1.926047	0.652562	0.000077
 405	4.0198e+01	16.0905	39.410519	0.000233	2.331530	0.789944	0.000093
 406	4.0297e+01	16.1274	39.499336	0.000223	2.230159	0.755598	0.000089
 407	4.0397e+01	16.1707	39.628524	0.000324	3.243868	1.099052	0.000130
 408	4.0496e+01	16.2044	39.693119	0.000162	1.621934	0.549526	0.000065
 409	4.0596e+01	16.2477	39.834418	0.000355	3.547981	1.202088	0.000142
 410	4.0696e+01	16.2862	39.899012	0.000162	1.621934	0.549526	0.000065
 411	4.0795e+01	16.3279	39.951495	0.000132	1.317821	0.446490	0.000053
 412	4.0895e+01	16.3648	40.064535	0.000284	2.838385	0.961671	0.000114
 413	4.0994e+01	16.4129	40.193723	0.000324	3.243868	1.099052	0.000130
 414	4.1093e+01	16.4530	40.262355	0.000172	1.723305	0.583872	0.000069
 415	4.1193e+01	16.4963	40.367320	0.000264	2.635643	0.892980	0.000105
 416	4.1292e+01	16.5268	40.492471	0.000314	3.142497	1.064707	0.000126
 417	4.1392e+01	16.5637	40.589363	0.000243	2.432901	0.824289	0.000097
 418	4.1492e+01	16.6199	40.653957	0.000162	1.621934	0.549526	0.000065
 419	4.1591e+01	16.6648	40.742774	0.000223	2.230159	0.755598	0.000089
 420	4.1691e+01	16.6824	40.851777	0.000274	2.737014	0.927325	0.000110
 421	4.1790e+01	16.7241	40.972891	0.000304	3.041126	1.030362	0.000122
 422	4.1889e+01	16.7578	41.033448	0.000152	1.520563	0.515181	0.000061
 423	4.1989e+01	16.8108	41.146487	0.000284	2.838385	0.961671	0.000114
 424	4.2089e+01	16.8493	41.279713	0.000335	3.345239	1.133398	0.000134
 425	4.2188e+01	16.8813	41.376604	0.000243	2.432901	0.824289	0.000097
 426	4.2288e+01	16.9279	41.445235	0.000172	1.723305	0.583872	0.000069
 427	4.2387e+01	16.9728	41.546164	0.000253	2.534272	0.858635	0.000101
 428	4.2486e+01	17.0049	41.687464	0.000355	3.547981	1.202088	0.000142
 429	4.2586e+01	17.0434	41.756095	0.000172	1.723305	0.583872	0.000069
 430	4.2685e+01	17.0835	41.901432	0.000365	3.649352	1.236434	0.000146
 431	4.2785e+01	17.1156	41.970063	0.000172	1.723305	0.583872	0.000069
 432	4.2885e+01	17.1701	42.038694	0.000172	1.723305	0.583872	0.000069
 433	4.2984e+01	17.2134	42.163846	0.000314	3.142497	1.064707	0.000126
 434	4.3084e+01	17.2423	42.236514	0.000182	1.824676	0.618217	0.000073
 435	4.3183e+01	17.2872	42.402037	0.000416	4.156206	1.408161	0.000166
 436	4.3282e+01	17.3289	42.450482	0.000122	1.216451	0.412145	0.000049
 437	4.3382e+01	17.3626	42.543336	0.000233	2.331530	0.789944	0.000093
 438	4.3481e+01	17.3963	42.628116	0.000213	2.128789	0.721253	0.000085
 439	4.3581e+01	17.4444	42.769416	0.000355	3.547981	1.202088	0.000142
 440	4.3681e+01	17.4974	42.854196	0.000213	2.128789	0.721253	0.000085
 441	4.3780e+01	17.5278	42.951087	0.000243	2.432901	0.824289	0.000097
 442	4.3880e+01	17.5680	43.019718	0.000172	1.723305	0.583872	0.000069
 443	4.3979e+01	17.6097	43.140832	0.000304	3.041126	1.030362	0.000122
 444	4.4078e+01	17.6498	43.245798	0.000264	2.635643	0.892980	0.000105
 445	4.4178e+01	17.6883	43.362875	0.000294	2.939756	0.996016	0.000118
 446	4.4278e+01	17.7220	43.435543	0.000182	1.824676	0.618217	0.000073
 447	4.4377e+01	17.7685	43.528398	0.000233	2.331530	0.789944	0.000093
 448	4.4477e+01	17.8022	43.633363	0.000264	2.635643	0.892980	0.000105
 449	4.4576e+01	17.8519	43.714106	0.000203	2.027418	0.686908	0.000081
 450	4.4675e+01	17.8808	43.883665	0.000426	4.257577	1.442506	0.000170
 451	4.4775e+01	17.9209	43.972482	0.000223	2.230159	0.755598	0.000089
 452	4.4874e+01	17.9722	44.061299	0.000223	2.230159	0.755598	0.000089
 453	4.4974e+01	17.9915	44.146079	0.000213	2.128789	0.721253	0.000085
 454	4.5074e+01	18.0396	44.242971	0.000243	2.432901	0.824289	0.000097
 455	4.5173e+01	18.0845	44.356010	0.000284	2.838385	0.961671	0.000114
 456	4.5273e+01	18.1278	44.424642	0.000172	1.723305	0.583872	0.000069
 457	4.5372e+01	18.1599	44.590164	0.000416	4.156206	1.408161	0.000166
 458	4.5471e+01	18.2080	44.695130	0.000264	2.635643	0.892980	0.000105
 459	4.5571e+01	18.2369	44.767798	0.000182	1.824676	0.618217	0.000073
 460	4.5670e+01	18.2818	44.864689	0.000243	2.432901	0.824289	0.000097
 461	4.5770e+01	18.3268	44.977729	0.000284	2.838385	0.961671	0.000114
 462	4.5870e+01	18.3556	45.082695	0.000264	2.635643	0.892980	0.000105
 463	4.5969e+01	18.4038	45.135178	0.000132	1.317821	0.446490	0.000053
 464	4.6069e+01	18.4455	45.252254	0.000294	2.939756	0.996016	0.000118
 465	4.6168e+01	18.4792	45.345109	0.000233	2.331530	0.789944	0.000093
 466	4.6267e+01	18.5225	45.470260	0.000314	3.142497	1.064707	0.000126
 467	4.6367e+01	18.5546	45.579262	0.000274	2.737014	0.927325	0.000110
 468	4.6467e+01	18.6075	45.676154	0.000243	2.432901	0.824289	0.000097
 469	4.6566e+01	18.6460	45.785156	0.000274	2.737014	0.927325	0.000110
 470	4.6666e+01	18.6845	45.873973	0.000223	2.230159	0.755598	0.000089
 471	4.6765e+01	18.7278	45.987013	0.000284	2.838385	0.961671	0.000114
 472	4.6864e+01	18.7663	46.096016	0.000274	2.737014	0.927325	0.000110
 473	4.6964e+01	18.7984	46.184833	0.000223	2.230159	0.755598	0.000089
 474	4.7063e+01	18.8449	46.289798	0.000264	2.635643	0.892980	0.000105
 475	4.7163e+01	18.8898	46.394764	0.000264	2.635643	0.892980	0.000105
 476	4.7263e+01	18.9203	46.487618	0.000233	2.331530	0.789944	0.000093
 477	4.7362e+01	18.9684	46.612769	0.000314	3.142497	1.064707	0.000126
 478	4.7462e+01	19.0005	46.701586	0.000223	2.230159	0.755598	0.000089
 479	4.7561e+01	19.0390	46.782329	0.000203	2.027418	0.686908	0.000081
 480	4.7660e+01	19.0823	46.883257	0.000253	2.534272	0.858635	0.000101
 481	4.7760e+01	19.1225	47.004371	0.000304	3.041126	1.030362	0.000122
 482	4.7859e+01	19.1626	47.077040	0.000182	1.824676	0.618217	0.000073
 483	4.7959e+01	19.2043	47.214302	0.000345	3.446610	1.167743	0.000138
 484	4.8059e+01	19.2380	47.286971	0.000182	1.824676	0.618217	0.000073
 485	4.8158e+01	19.2813	47.387899	0.000253	2.534272	0.858635	0.000101
 486	4.8258e+01	19.3134	47.492865	0.000264	2.635643	0.892980	0.000105
 487	4.8357e+01	19.3583	47.605905	0.000284	2.838385	0.961671	0.000114
 488	4.8456e+01	19.3984	47.690684	0.000213	2.128789	0.721253	0.000085
 489	4.8556e+01	19.4417	47.823910	0.000335	3.345239	1.133398	0.000134
 490	4.8656e+01	19.4786	47.912727	0.000223	2.230159	0.755598	0.000089
 491	4.8755e+01	19.5219	48.017692	0.000264	2.635643	0.892980	0.000105
 492	4.8855e+01	19.5572	48.146881	0.000324	3.243868	1.099052	0.000130
 493	4.8954e+01	19.6069	48.231661	0.000213	2.128789	0.721253	0.000085
 494	4.9053e+01	19.6310	48.360849	0.000324	3.243868	1.099052	0.000130
 495	4.9153e+01	19.6871	48.465815	0.000264	2.635643	0.892980	0.000105
 496	4.9252e+01	19.7305	48.562706	0.000243	2.432901	0.824289	0.000097
 497	4.9352e+01	19.7529	48.635374	0.000182	1.824676	0.618217	0.000073
 498	4.9452e+01	19.7930	48.732265	0.000243	2.432901	0.824289	0.000097
 499	4.9551e+01	19.8363	48.825120	0.000233	2.331530	0.789944	0.000093
 500	4.9651e+01	19.8813	48.930085	0.000264	2.635643	0.892980	0.000105
 501	4.9750e+01	19.9166	49.010828	0.000203	2.027418	0.686908	0.000081
 502	4.9849e+01	19.9518	49.127905	0.000294	2.939756	0.996016	0.000118
 503	4.9949e+01	19.9936	49.236907	0.000274	2.737014	0.927325	0.000110
 504	5.0048e+01	19.9534	49.204610	0.000081	0.810967	0.274763	-0.000032
 505	5.0148e+01	19.9198	49.083496	0.000304	3.041126	1.030362	-0.000122
 506	5.0248e+01	19.8845	49.010828	0.000182	1.824676	0.618217	-0.000073
 507	5.0347e+01	19.8331	48.905862	0.000264	2.635643	0.892980	-0.000105
 508	5.0447e+01	19.7914	48.800897	0.000264	2.635643	0.892980	-0.000105
 509	5.0546e+01	19.7497	48.716117	0.000213	2.128789	0.721253	-0.000085
 510	5.0645e+01	19.7160	48.659597	0.000142	1.419192	0.480835	-0.000057
 511	5.0745e+01	19.6759	48.599040	0.000152	1.520563	0.515181	-0.000061
 512	5.0844e+01	19.6310	48.526372	0.000182	1.824676	0.618217	-0.000073
 513	5.0944e+01	19.6021	48.494074	0.000081	0.810967	0.274763	-0.000032
 514	5.1044e+01	19.5540	48.360849	0.000335	3.345239	1.133398	-0.000134
 515	5.1143e+01	19.5283	48.296255	0.000162	1.621934	0.549526	-0.000065
 516	5.1242e+01	19.4786	48.163029	0.000335	3.345239	1.133398	-0.000134
 517	5.1342e+01	19.4385	48.106509	0.000142	1.419192	0.480835	-0.000057
 518	5.1441e+01	19.3952	48.021730	0.000213	2.128789	0.721253	-0.000085
 519	5.1541e+01	19.3567	47.920801	0.000253	2.534272	0.858635	-0.000101
 520	5.1641e+01	19.3118	47.823910	0.000243	2.432901	0.824289	-0.000097
 521	5.1740e+01	19.2749	47.702796	0.000304	3.041126	1.030362	-0.000122
 522	5.1840e+01	19.2460	47.630127	0.000182	1.824676	0.618217	-0.000073
 523	5.1939e+01	19.1914	47.545348	0.000213	2.128789	0.721253	-0.000085
 524	5.2038e+01	19.1626	47.460568	0.000213	2.128789	0.721253	-0.000085
 525	5.2138e+01	19.1080	47.343491	0.000294	2.939756	0.996016	-0.000118
 526	5.2237e+01	19.0807	47.266785	0.000193	1.926047	0.652562	-0.000077
 527	5.2337e+01	19.0438	47.194117	0.000182	1.824676	0.618217	-0.000073
 528	5.2437e+01	18.9941	47.141634	0.000132	1.317821	0.446490	-0.000053
 529	5.2536e+01	18.9556	47.028594	0.000284	2.838385	0.961671	-0.000114
 530	5.2636e+01	18.9219	46.923629	0.000264	2.635643	0.892980	-0.000105
 531	5.2735e+01	18.8802	46.863072	0.000152	1.520563	0.515181	-0.000061
 532	5.2834e+01	18.8385	46.830775	0.000081	0.810967	0.274763	-0.000032
 533	5.2934e+01	18.8016	46.705623	0.000314	3.142497	1.064707	-0.000126
 534	5.3033e+01	18.7615	46.624881	0.000203	2.027418	0.686908	-0.000081
 535	5.3133e+01	18.7198	46.515878	0.000274	2.737014	0.927325	-0.000110
 536	5.3233e+01	18.6813	46.386690	0.000324	3.243868	1.099052	-0.000130
 537	5.3332e+01	18.6428	46.281724	0.000264	2.635643	0.892980	-0.000105
 538	5.3431e+01	18.5979	46.205019	0.000193	1.926047	0.652562	-0.000077
 539	5.3531e+01	18.5626	46.116202	0.000223	2.230159	0.755598	-0.000089
 540	5.3630e+01	18.5209	46.031422	0.000213	2.128789	0.721253	-0.000085
 541	5.3730e+01	18.4856	45.995087	0.000091	0.912338	0.309108	-0.000037
 542	5.3830e+01	18.4455	45.845713	0.000375	3.750723	1.270779	-0.000150
 543	5.3929e+01	18.4118	45.728637	0.000294	2.939756	0.996016	-0.000118
 544	5.4029e+01	18.3620	45.627708	0.000253	2.534272	0.858635	-0.000101
 545	5.4128e+01	18.3252	45.587337	0.000101	1.013709	0.343454	-0.000041
 546	5.4227e+01	18.2834	45.490445	0.000243	2.432901	0.824289	-0.000097
 547	5.4327e+01	18.2465	45.393554	0.000243	2.432901	0.824289	-0.000097
 548	5.4426e+01	18.2048	45.316849	0.000193	1.926047	0.652562	-0.000077
 549	5.4526e+01	18.1711	45.211883	0.000264	2.635643	0.892980	-0.000105
 550	5.4626e+01	18.1198	45.123066	0.000223	2.230159	0.755598	-0.000089
 551	5.4725e+01	18.0749	45.046361	0.000193	1.926047	0.652562	-0.000077
 552	5.4825e+01	18.0380	44.981766	0.000162	1.621934	0.549526	-0.000065
 553	5.4924e+01	18.0027	44.901024	0.000203	2.027418	0.686908	-0.000081
 554	5.5023e+01	17.9610	44.808170	0.000233	2.331530	0.789944	-0.000093
 555	5.5123e+01	17.9289	44.654758	0.000385	3.852093	1.305125	-0.000154
 556	5.5222e+01	17.8808	44.565941	0.000223	2.230159	0.755598	-0.000089
 557	5.5322e+01	17.8567	44.452902	0.000284	2.838385	0.961671	-0.000114
 558	5.5422e+01	17.8006	44.347936	0.000264	2.635643	0.892980	-0.000105
 559	5.5521e+01	17.7621	44.295453	0.000132	1.317821	0.446490	-0.000053
 560	5.5620e+01	17.7236	44.125894	0.000426	4.257577	1.442506	-0.000170
 561	5.5720e+01	17.6819	44.093597	0.000081	0.810967	0.274763	-0.000032
 562	5.5819e+01	17.6385	43.964408	0.000324	3.243868	1.099052	-0.000130
 563	5.5919e+01	17.6065	43.911925	0.000132	1.317821	0.446490	-0.000053
 564	5.6019e+01	17.5663	43.806960	0.000264	2.635643	0.892980	-0.000105
 565	5.6118e+01	17.5262	43.730254	0.000193	1.926047	0.652562	-0.000077
 566	5.6218e+01	17.4813	43.629326	0.000253	2.534272	0.858635	-0.000101
 567	5.6317e+01	17.4557	43.512249	0.000294	2.939756	0.996016	-0.000118
 568	5.6416e+01	17.4075	43.443618	0.000172	1.723305	0.583872	-0.000069
 569	5.6516e+01	17.3706	43.374986	0.000172	1.723305	0.583872	-0.000069
 570	5.6615e+01	17.3257	43.294244	0.000203	2.027418	0.686908	-0.000081
 571	5.6715e+01	17.2840	43.209464	0.000213	2.128789	0.721253	-0.000085
 572	5.6815e+01	17.2487	43.096424	0.000284	2.838385	0.961671	-0.000114
 573	5.6914e+01	17.2134	43.027793	0.000172	1.723305	0.583872	-0.000069
 574	5.7014e+01	17.1621	42.878419	0.000375	3.750723	1.270779	-0.000150
 575	5.7113e+01	17.1220	42.716933	0.000405	4.054835	1.373815	-0.000162
 576	5.7212e+01	17.0899	42.628116	0.000223	2.230159	0.755598	-0.000089
 577	5.7312e+01	17.0514	42.563522	0.000162	1.621934	0.549526	-0.000065
 578	5.7411e+01	17.0033	42.466631	0.000243	2.432901	0.824289	-0.000097
 579	5.7511e+01	16.9632	42.361665	0.000264	2.635643	0.892980	-0.000105
 580	5.7611e+01	16.9214	42.240551	0.000304	3.041126	1.030362	-0.000122
 581	5.7710e+01	16.8797	42.151734	0.000223	2.230159	0.755598	-0.000089
 582	5.7809e+01	16.8396	42.075029	0.000193	1.926047	0.652562	-0.000077
 583	5.7909e+01	16.8172	41.978137	0.000243	2.432901	0.824289	-0.000097
 584	5.8008e+01	16.7690	41.869135	0.000274	2.737014	0.927325	-0.000110
 585	5.8108e+01	16.7289	41.788392	0.000203	2.027418	0.686908	-0.000081
 586	5.8208e+01	16.6920	41.699575	0.000223	2.230159	0.755598	-0.000089
 587	5.8307e+01	16.6487	41.630944	0.000172	1.723305	0.583872	-0.000069
 588	5.8407e+01	16.6134	41.509830	0.000304	3.041126	1.030362	-0.000122
 589	5.8506e+01	16.5605	41.461384	0.000122	1.216451	0.412145	-0.000049
 590	5.8605e+01	16.5300	41.348344	0.000284	2.838385	0.961671	-0.000114
 591	5.8705e+01	16.4883	41.291824	0.000142	1.419192	0.480835	-0.000057
 592	5.8804e+01	16.4498	41.178785	0.000284	2.838385	0.961671	-0.000114
 593	5.8904e+01	16.4145	41.057670	0.000304	3.041126	1.030362	-0.000122
 594	5.9004e+01	16.3680	40.920408	0.000345	3.446610	1.167743	-0.000138
 595	5.9103e+01	16.3327	40.839665	0.000203	2.027418	0.686908	-0.000081
 596	5.9203e+01	16.2894	40.718551	0.000304	3.041126	1.030362	-0.000122
 597	5.9302e+01	16.2557	40.633771	0.000213	2.128789	0.721253	-0.000085
 598	5.9401e+01	16.2236	40.520731	0.000284	2.838385	0.961671	-0.000114
 599	5.9501e+01	16.1723	40.415766	0.000264	2.635643	0.892980	-0.000105
 600	5.9600e+01	16.1241	40.363283	0.000132	1.317821	0.446490	-0.000053
 601	5.9700e+01	16.1017	40.274466	0.000223	2.230159	0.755598	-0.000089
 602	5.9800e+01	16.0520	40.161426	0.000284	2.838385	0.961671	-0.000114
 603	5.9899e+01	16.0086	40.044349	0.000294	2.939756	0.996016	-0.000118
 604	5.9998e+01	15.9653	40.003978	0.000101	1.013709	0.343454	-0.000041
 605	6.0098e+01	15.9316	39.866715	0.000345	3.446610	1.167743	-0.000138
 606	6.0197e+01	15.8931	39.810196	0.000142	1.419192	0.480835	-0.000057
 607	6.0297e+01	15.8514	39.741564	0.000172	1.723305	0.583872	-0.000069
 608	6.0397e+01	15.8049	39.640636	0.000253	2.534272	0.858635	-0.000101
 609	6.0496e+01	15.7744	39.600264	0.000101	1.013709	0.343454	-0.000041
 610	6.0596e+01	15.7359	39.499336	0.000253	2.534272	0.858635	-0.000101
 611	6.0695e+01	15.6926	39.366111	0.000335	3.345239	1.133398	-0.000134
 612	6.0794e+01	15.6621	39.184439	0.000456	4.561690	1.545542	-0.000183
 613	6.0894e+01	15.6124	39.148105	0.000091	0.912338	0.309108	-0.000037
 614	6.0993e+01	15.5755	39.014880	0.000335	3.345239	1.133398	-0.000134
 615	6.1093e+01	15.5354	38.938174	0.000193	1.926047	0.652562	-0.000077
 616	6.1193e+01	15.5017	38.837246	0.000253	2.534272	0.858635	-0.000101
 617	6.1292e+01	15.4536	38.744392	0.000233	2.331530	0.789944	-0.000093
 618	6.1392e+01	15.4151	38.683835	0.000152	1.520563	0.515181	-0.000061
 619	6.1491e+01	15.3766	38.578869	0.000264	2.635643	0.892980	-0.000105
 620	6.1590e+01	15.3381	38.465829	0.000284	2.838385	0.961671	-0.000114
 621	6.1690e+01	15.2996	38.397198	0.000172	1.723305	0.583872	-0.000069
 622	6.1789e+01	15.2514	38.284158	0.000284	2.838385	0.961671	-0.000114
 623	6.1889e+01	15.2081	38.215527	0.000172	1.723305	0.583872	-0.000069
 624	6.1989e+01	15.1809	38.138821	0.000193	1.926047	0.652562	-0.000077
 625	6.2088e+01	15.1407	38.082301	0.000142	1.419192	0.480835	-0.000057
 626	6.2188e+01	15.0910	37.961187	0.000304	3.041126	1.030362	-0.000122
 627	6.2287e+01	15.0541	37.876407	0.000213	2.128789	0.721253	-0.000085
 628	6.2386e+01	15.0108	37.775479	0.000253	2.534272	0.858635	-0.000101
 629	6.2486e+01	14.9819	37.670514	0.000264	2.635643	0.892980	-0.000105
 630	6.2586e+01	14.9354	37.521140	0.000375	3.750723	1.270779	-0.000150
 631	6.2685e+01	14.9033	37.428285	0.000233	2.331530	0.789944	-0.000093
 632	6.2785e+01	14.8552	37.323320	0.000264	2.635643	0.892980	-0.000105
 633	6.2884e+01	14.8151	37.254689	0.000172	1.723305	0.583872	-0.000069
 634	6.2983e+01	14.7734	37.141649	0.000284	2.838385	0.961671	-0.000114
 635	6.3083e+01	14.7333	37.056869	0.000213	2.128789	0.721253	-0.000085
 636	6.3182e+01	14.7012	36.943829	0.000284	2.838385	0.961671	-0.000114
 637	6.3282e+01	14.6611	36.871161	0.000182	1.824676	0.618217	-0.000073
 638	6.3382e+01	14.6274	36.778307	0.000233	2.331530	0.789944	-0.000093
 639	6.3481e+01	14.5712	36.717750	0.000152	1.520563	0.515181	-0.000061
 640	6.3581e+01	14.5360	36.596635	0.000304	3.041126	1.030362	-0.000122
 641	6.3680e+01	14.4975	36.532041	0.000162	1.621934	0.549526	-0.000065
 642	6.3779e+01	14.4557	36.443224	0.000223	2.230159	0.755598	-0.000089
 643	6.3879e+01	14.4221	36.366519	0.000193	1.926047	0.652562	-0.000077
 644	6.3978e+01	14.3739	36.277702	0.000223	2.230159	0.755598	-0.000089
 645	6.4078e+01	14.3402	36.180810	0.000243	2.432901	0.824289	-0.000097
 646	6.4177e+01	14.3033	36.055659	0.000314	3.142497	1.064707	-0.000126
 647	6.4277e+01	14.2552	35.926471	0.000324	3.243868	1.099052	-0.000130
 648	6.4376e+01	14.2231	35.829580	0.000243	2.432901	0.824289	-0.000097
 649	6.4476e+01	14.1862	35.736726	0.000233	2.331530	0.789944	-0.000093
 650	6.4576e+01	14.1301	35.660020	0.000193	1.926047	0.652562	-0.000077
 651	6.4675e+01	14.0900	35.551017	0.000274	2.737014	0.927325	-0.000110
 652	6.4775e+01	14.0595	35.478349	0.000182	1.824676	0.618217	-0.000073
 653	6.4874e+01	14.0210	35.373383	0.000264	2.635643	0.892980	-0.000105
 654	6.4974e+01	13.9841	35.320901	0.000132	1.317821	0.446490	-0.000053
 655	6.5073e+01	13.9328	35.195749	0.000314	3.142497	1.064707	-0.000126
 656	6.5172e+01	13.8975	35.119044	0.000193	1.926047	0.652562	-0.000077
 657	6.5272e+01	13.8670	34.981781	0.000345	3.446610	1.167743	-0.000138
 658	6.5371e+01	13.8108	34.905076	0.000193	1.926047	0.652562	-0.000077
 659	6.5471e+01	13.7755	34.832407	0.000182	1.824676	0.618217	-0.000073
 660	6.5570e+01	13.7435	34.779924	0.000132	1.317821	0.446490	-0.000053
 661	6.5670e+01	13.7082	34.703219	0.000193	1.926047	0.652562	-0.000077
 662	6.5769e+01	13.6761	34.586142	0.000294	2.939756	0.996016	-0.000118
 663	6.5869e+01	13.6119	34.493288	0.000233	2.331530	0.789944	-0.000093
 664	6.5969e+01	13.5734	34.412545	0.000203	2.027418	0.686908	-0.000081
 665	6.6068e+01	13.5397	34.303542	0.000274	2.737014	0.927325	-0.000110
 666	6.6168e+01	13.5012	34.162243	0.000355	3.547981	1.202088	-0.000142
 667	6.6267e+01	13.4627	34.061314	0.000253	2.534272	0.858635	-0.000101
 668	6.6367e+01	13.4114	33.996720	0.000162	1.621934	0.549526	-0.000065
 669	6.6466e+01	13.3729	33.911940	0.000213	2.128789	0.721253	-0.000085
 670	6.6566e+01	13.3408	33.790826	0.000304	3.041126	1.030362	-0.000122
 671	6.6665e+01	13.3055	33.693935	0.000243	2.432901	0.824289	-0.000097
 672	6.6764e+01	13.2606	33.621266	0.000182	1.824676	0.618217	-0.000073
 673	6.6864e+01	13.2189	33.536487	0.000213	2.128789	0.721253	-0.000085
 674	6.6963e+01	13.1772	33.415373	0.000304	3.041126	1.030362	-0.000122
 675	6.7063e+01	13.1547	33.310407	0.000264	2.635643	0.892980	-0.000105
 676	6.7162e+01	13.1050	33.217553	0.000233	2.331530	0.789944	-0.000093
 677	6.7262e+01	13.0633	33.112587	0.000264	2.635643	0.892980	-0.000105
 678	6.7362e+01	13.0119	33.039919	0.000182	1.824676	0.618217	-0.000073
 679	6.7461e+01	12.9734	33.007622	0.000081	0.810967	0.274763	-0.000032
 680	6.7561e+01	12.9430	32.902656	0.000264	2.635643	0.892980	-0.000105
 681	6.7660e+01	12.9061	32.805765	0.000243	2.432901	0.824289	-0.000097
 682	6.7760e+01	12.8756	32.737134	0.000172	1.723305	0.583872	-0.000069
 683	6.7859e+01	12.8307	32.571611	0.000416	4.156206	1.408161	-0.000166
 684	6.7959e+01	12.7793	32.482794	0.000223	2.230159	0.755598	-0.000089
 685	6.8058e+01	12.7504	32.357643	0.000314	3.142497	1.064707	-0.000126
 686	6.8157e+01	12.7087	32.236529	0.000304	3.041126	1.030362	-0.000122
 687	6.8257e+01	12.6670	32.115415	0.000304	3.041126	1.030362	-0.000122
 688	6.8356e+01	12.6317	32.034672	0.000203	2.027418	0.686908	-0.000081
 689	6.8456e+01	12.5900	31.970078	0.000162	1.621934	0.549526	-0.000065
 690	6.8555e+01	12.5467	31.865112	0.000264	2.635643	0.892980	-0.000105
 691	6.8655e+01	12.5082	31.788407	0.000193	1.926047	0.652562	-0.000077
 692	6.8754e+01	12.4681	31.675367	0.000284	2.838385	0.961671	-0.000114
 693	6.8854e+01	12.4232	31.534067	0.000355	3.547981	1.202088	-0.000142
 694	6.8954e+01	12.3911	31.473510	0.000152	1.520563	0.515181	-0.000061
 695	6.9053e+01	12.3510	31.380656	0.000233	2.331530	0.789944	-0.000093
 696	6.9153e+01	12.3077	31.320099	0.000152	1.520563	0.515181	-0.000061
 697	6.9252e+01	12.2628	31.194948	0.000314	3.142497	1.064707	-0.000126
 698	6.9352e+01	12.2323	31.126317	0.000172	1.723305	0.583872	-0.000069
 699	6.9451e+01	12.1858	31.017314	0.000274	2.737014	0.927325	-0.000110
 700	6.9550e+01	12.1473	30.908311	0.000274	2.737014	0.927325	-0.000110
 701	6.9650e+01	12.1023	30.827568	0.000203	2.027418	0.686908	-0.000081
 702	6.9749e+01	12.0719	30.702417	0.000314	3.142497	1.064707	-0.000126
 703	6.9849e+01	12.0317	30.601489	0.000253	2.534272	0.858635	-0.000101
 704	6.9948e+01	11.9900	30.464226	0.000345	3.446610	1.167743	-0.000138
 705	7.0048e+01	11.9547	30.383484	0.000203	2.027418	0.686908	-0.000081
 706	7.0147e+01	11.9162	30.250258	0.000335	3.345239	1.133398	-0.000134
 707	7.0247e+01	11.8793	30.157404	0.000233	2.331530	0.789944	-0.000093
 708	7.0347e+01	11.8216	30.076661	0.000203	2.027418	0.686908	-0.000081
 709	7.0446e+01	11.7895	29.943436	0.000335	3.345239	1.133398	-0.000134
 710	7.0546e+01	11.7494	29.866730	0.000193	1.926047	0.652562	-0.000077
 711	7.0645e+01	11.7205	29.773876	0.000233	2.331530	0.789944	-0.000093
 712	7.0745e+01	11.6772	29.636613	0.000345	3.446610	1.167743	-0.000138
 713	7.0844e+01	11.6371	29.567982	0.000172	1.723305	0.583872	-0.000069
 714	7.0944e+01	11.5858	29.458979	0.000274	2.737014	0.927325	-0.000110
 715	7.1043e+01	11.5617	29.418608	0.000101	1.013709	0.343454	-0.000041
 716	7.1142e+01	11.5152	29.261160	0.000395	3.953464	1.339470	-0.000158
 717	7.1242e+01	11.4687	29.212714	0.000122	1.216451	0.412145	-0.000049
 718	7.1341e+01	11.4253	29.091600	0.000304	3.041126	1.030362	-0.000122
 719	7.1441e+01	11.3917	29.006820	0.000213	2.128789	0.721253	-0.000085
 720	7.1540e+01	11.3499	28.918003	0.000223	2.230159	0.755598	-0.000089
 721	7.1640e+01	11.3082	28.788815	0.000324	3.243868	1.099052	-0.000130
 722	7.1740e+01	11.2713	28.671738	0.000294	2.939756	0.996016	-0.000118
 723	7.1839e+01	11.2344	28.506215	0.000416	4.156206	1.408161	-0.000166
 724	7.1939e+01	11.1959	28.445658	0.000152	1.520563	0.515181	-0.000061
 725	7.2038e+01	11.1462	28.320507	0.000314	3.142497	1.064707	-0.000126
 726	7.2138e+01	11.1173	28.235727	0.000213	2.128789	0.721253	-0.000085
 727	7.2237e+01	11.0660	28.102502	0.000335	3.345239	1.133398	-0.000134
 728	7.2337e+01	11.0451	28.050019	0.000132	1.317821	0.446490	-0.000053
 729	7.2436e+01	10.9906	27.928905	0.000304	3.041126	1.030362	-0.000122
 730	7.2535e+01	10.9553	27.819902	0.000274	2.737014	0.927325	-0.000110
 731	7.2635e+01	10.9120	27.723011	0.000243	2.432901	0.824289	-0.000097
 732	7.2734e+01	10.8703	27.618046	0.000264	2.635643	0.892980	-0.000105
 733	7.2834e+01	10.8318	27.561526	0.000142	1.419192	0.480835	-0.000057
 734	7.2933e+01	10.7965	27.468672	0.000233	2.331530	0.789944	-0.000093
 735	7.3033e+01	10.7548	27.327372	0.000355	3.547981	1.202088	-0.000142
 736	7.3132e+01	10.7195	27.303149	0.000061	0.608225	0.206072	-0.000024
 737	7.3232e+01	10.6730	27.133589	0.000426	4.257577	1.442506	-0.000170
 738	7.3332e+01	10.6377	27.097255	0.000091	0.912338	0.309108	-0.000037
 739	7.3431e+01	10.5944	26.947881	0.000375	3.750723	1.270779	-0.000150
 740	7.3531e+01	10.5591	26.887324	0.000152	1.520563	0.515181	-0.000061
 741	7.3630e+01	10.5174	26.758136	0.000324	3.243868	1.099052	-0.000130
 742	7.3730e+01	10.4724	26.616836	0.000355	3.547981	1.202088	-0.000142
 743	7.3829e+01	10.4371	26.483610	0.000335	3.345239	1.133398	-0.000134
 744	7.3928e+01	10.3922	26.366534	0.000294	2.939756	0.996016	-0.000118
 745	7.4028e+01	10.3489	26.301939	0.000162	1.621934	0.549526	-0.000065
 746	7.4127e+01	10.3200	26.156602	0.000365	3.649352	1.236434	-0.000146
 747	7.4227e+01	10.2831	26.011266	0.000365	3.649352	1.236434	-0.000146
 748	7.4326e+01	10.2382	25.926486	0.000213	2.128789	0.721253	-0.000085
 749	7.4426e+01	10.1981	25.869966	0.000142	1.419192	0.480835	-0.000057
 750	7.4525e+01	10.1548	25.752889	0.000294	2.939756	0.996016	-0.000118
 751	7.4625e+01	10.1147	25.639849	0.000284	2.838385	0.961671	-0.000114
 752	7.4725e+01	10.0810	25.583329	0.000142	1.419192	0.480835	-0.000057
 753	7.4824e+01	10.0345	25.482401	0.000253	2.534272	0.858635	-0.000101
 754	7.4924e+01	9.9976	25.401658	0.000203	2.027418	0.686908	-0.000081
 755	7.5023e+01	9.9511	25.288618	0.000284	2.838385	0.961671	-0.000114
 756	7.5123e+01	9.9238	25.207876	0.000203	2.027418	0.686908	-0.000081
 757	7.5222e+01	9.8853	25.078687	0.000324	3.243868	1.099052	-0.000130
 758	7.5322e+01	9.8323	24.965647	0.000284	2.838385	0.961671	-0.000114
 759	7.5421e+01	9.8019	24.856645	0.000274	2.737014	0.927325	-0.000110
 760	7.5520e+01	9.7602	24.687085	0.000426	4.257577	1.442506	-0.000170
 761	7.5620e+01	9.7136	24.606342	0.000203	2.027418	0.686908	-0.000081
 762	7.5719e+01	9.6735	24.477154	0.000324	3.243868	1.099052	-0.000130
 763	7.5819e+01	9.6382	24.408523	0.000172	1.723305	0.583872	-0.000069
 764	7.5918e+01	9.5949	24.335854	0.000182	1.824676	0.618217	-0.000073
 765	7.6018e+01	9.5532	24.206666	0.000324	3.243868	1.099052	-0.000130
 766	7.6118e+01	9.5227	24.073440	0.000335	3.345239	1.133398	-0.000134
 767	7.6217e+01	9.4826	23.992698	0.000203	2.027418	0.686908	-0.000081
 768	7.6317e+01	9.4457	23.915992	0.000193	1.926047	0.652562	-0.000077
 769	7.6416e+01	9.3960	23.831212	0.000213	2.128789	0.721253	-0.000085
 770	7.6516e+01	9.3607	23.710098	0.000304	3.041126	1.030362	-0.000122
 771	7.6615e+01	9.3158	23.645504	0.000162	1.621934	0.549526	-0.000065
 772	7.6715e+01	9.2773	23.560724	0.000213	2.128789	0.721253	-0.000085
 773	7.6814e+01	9.2436	23.447684	0.000284	2.838385	0.961671	-0.000114
 774	7.6913e+01	9.2003	23.322533	0.000314	3.142497	1.064707	-0.000126
 775	7.7013e+01	9.1586	23.245828	0.000193	1.926047	0.652562	-0.000077
 776	7.7112e+01	9.1249	23.128751	0.000294	2.939756	0.996016	-0.000118
 777	7.7212e+01	9.0751	23.011674	0.000294	2.939756	0.996016	-0.000118
 778	7.7311e+01	9.0431	22.922857	0.000223	2.230159	0.755598	-0.000089
 779	7.7411e+01	9.0062	22.765408	0.000395	3.953464	1.339470	-0.000158
 780	7.7510e+01	8.9564	22.676591	0.000223	2.230159	0.755598	-0.000089
 781	7.7610e+01	8.9276	22.535292	0.000355	3.547981	1.202088	-0.000142
 782	7.7710e+01	8.8874	22.426289	0.000274	2.737014	0.927325	-0.000110
 783	7.7809e+01	8.8393	22.333435	0.000233	2.331530	0.789944	-0.000093
 784	7.7909e+01	8.7912	22.276915	0.000142	1.419192	0.480835	-0.000057
 785	7.8008e+01	8.7591	22.127541	0.000375	3.750723	1.270779	-0.000150
 786	7.8108e+01	8.7222	22.054873	0.000182	1.824676	0.618217	-0.000073
 787	7.8207e+01	8.6853	21.990278	0.000162	1.621934	0.549526	-0.000065
 788	7.8306e+01	8.6436	21.909536	0.000203	2.027418	0.686908	-0.000081
 789	7.8406e+01	8.6083	21.784384	0.000314	3.142497	1.064707	-0.000126
 790	7.8505e+01	8.5682	21.735939	0.000122	1.216451	0.412145	-0.000049
 791	7.8605e+01	8.5201	21.598676	0.000345	3.446610	1.167743	-0.000138
 792	7.8704e+01	8.4736	21.513896	0.000213	2.128789	0.721253	-0.000085
 793	7.8804e+01	8.4431	21.408931	0.000264	2.635643	0.892980	-0.000105
 794	7.8903e+01	8.4078	21.287817	0.000304	3.041126	1.030362	-0.000122
 795	7.9003e+01	8.3581	21.203037	0.000213	2.128789	0.721253	-0.000085
 796	7.9103e+01	8.3212	21.077886	0.000314	3.142497	1.064707	-0.000126
 797	7.9202e+01	8.2891	20.968883	0.000274	2.737014	0.927325	-0.000110
 798	7.9302e+01	8.2425	20.867955	0.000253	2.534272	0.858635	-0.000101
 799	7.9401e+01	8.2040	20.734729	0.000335	3.345239	1.133398	-0.000134
 800	7.9501e+01	8.1704	20.625726	0.000274	2.737014	0.927325	-0.000110
 801	7.9600e+01	8.1190	20.536909	0.000223	2.230159	0.755598	-0.000089
 802	7.9700e+01	8.0901	20.435981	0.000253	2.534272	0.858635	-0.000101
 803	7.9799e+01	8.0452	20.306793	0.000324	3.243868	1.099052	-0.000130
 804	7.9898e+01	8.0019	20.234124	0.000182	1.824676	0.618217	-0.000073
 805	7.9998e+01	7.9618	20.173567	0.000152	1.520563	0.515181	-0.000061
 806	8.0097e+01	7.9185	20.060527	0.000284	2.838385	0.961671	-0.000114
 807	8.0197e+01	7.8800	20.008045	0.000132	1.317821	0.446490	-0.000053
 808	8.0296e+01	7.8431	19.866745	0.000355	3.547981	1.202088	-0.000142
 809	8.0396e+01	7.7950	19.786002	0.000203	2.027418	0.686908	-0.000081
 810	8.0496e+01	7.7709	19.685074	0.000253	2.534272	0.858635	-0.000101
 811	8.0595e+01	7.7244	19.559923	0.000314	3.142497	1.064707	-0.000126
 812	8.0695e+01	7.6746	19.458994	0.000253	2.534272	0.858635	-0.000101
 813	8.0794e+01	7.6506	19.354029	0.000264	2.635643	0.892980	-0.000105
 814	8.0894e+01	7.6009	19.269249	0.000213	2.128789	0.721253	-0.000085
 815	8.0993e+01	7.5591	19.144098	0.000314	3.142497	1.064707	-0.000126
 816	8.1093e+01	7.5287	19.018946	0.000314	3.142497	1.064707	-0.000126
 817	8.1192e+01	7.4886	18.913981	0.000264	2.635643	0.892980	-0.000105
 818	8.1291e+01	7.4549	18.784793	0.000324	3.243868	1.099052	-0.000130
 819	8.1391e+01	7.4116	18.716161	0.000172	1.723305	0.583872	-0.000069
 820	8.1490e+01	7.3714	18.558713	0.000395	3.953464	1.339470	-0.000158
 821	8.1590e+01	7.3265	18.518342	0.000101	1.013709	0.343454	-0.000041
 822	8.1689e+01	7.2896	18.425488	0.000233	2.331530	0.789944	-0.000093
 823	8.1789e+01	7.2479	18.332633	0.000233	2.331530	0.789944	-0.000093
 824	8.1888e+01	7.2094	18.255928	0.000193	1.926047	0.652562	-0.000077
 825	8.1988e+01	7.1661	18.163074	0.000233	2.331530	0.789944	-0.000093
 826	8.2088e+01	7.1308	18.106554	0.000142	1.419192	0.480835	-0.000057
 827	8.2187e+01	7.0843	17.957180	0.000375	3.750723	1.270779	-0.000150
 828	8.2287e+01	7.0490	17.920846	0.000091	0.912338	0.309108	-0.000037
 829	8.2386e+01	7.0105	17.775509	0.000365	3.649352	1.236434	-0.000146
 830	8.2486e+01	6.9736	17.666506	0.000274	2.737014	0.927325	-0.000110
 831	8.2585e+01	6.9319	17.561540	0.000264	2.635643	0.892980	-0.000105
 832	8.2684e+01	6.8870	17.480798	0.000203	2.027418	0.686908	-0.000081
 833	8.2784e+01	6.8421	17.387944	0.000233	2.331530	0.789944	-0.000093
 834	8.2883e+01	6.8100	17.266830	0.000304	3.041126	1.030362	-0.000122
 835	8.2983e+01	6.7650	17.121493	0.000365	3.649352	1.236434	-0.000146
 836	8.3082e+01	6.7233	16.988267	0.000335	3.345239	1.133398	-0.000134
 837	8.3182e+01	6.6816	16.915599	0.000182	1.824676	0.618217	-0.000073
 838	8.3281e+01	6.6511	16.802559	0.000284	2.838385	0.961671	-0.000114
 839	8.3381e+01	6.6078	16.725853	0.000193	1.926047	0.652562	-0.000077
 840	8.3481e+01	6.5806	16.592628	0.000335	3.345239	1.133398	-0.000134
 841	8.3580e+01	6.5260	16.511885	0.000203	2.027418	0.686908	-0.000081
 842	8.3680e+01	6.4971	16.447291	0.000162	1.621934	0.549526	-0.000065
 843	8.3779e+01	6.4442	16.366548	0.000203	2.027418	0.686908	-0.000081
 844	8.3879e+01	6.4089	16.273694	0.000233	2.331530	0.789944	-0.000093
 845	8.3978e+01	6.3800	16.116246	0.000395	3.953464	1.339470	-0.000158
 846	8.4078e+01	6.3367	15.991095	0.000314	3.142497	1.064707	-0.000126
 847	8.4177e+01	6.2950	15.926500	0.000162	1.621934	0.549526	-0.000065
 848	8.4276e+01	6.2549	15.837684	0.000223	2.230159	0.755598	-0.000089
 849	8.4376e+01	6.2052	15.756941	0.000203	2.027418	0.686908	-0.000081
 850	8.4475e+01	6.1763	15.595455	0.000405	4.054835	1.373815	-0.000162
 851	8.4575e+01	6.1410	15.534898	0.000152	1.520563	0.515181	-0.000061
 852	8.4674e+01	6.0913	15.425896	0.000274	2.737014	0.927325	-0.000110
 853	8.4774e+01	6.0496	15.284596	0.000355	3.547981	1.202088	-0.000142
 854	8.4874e+01	6.0207	15.147333	0.000345	3.446610	1.167743	-0.000138
 855	8.4973e+01	5.9742	15.018145	0.000324	3.243868	1.099052	-0.000130
 856	8.5073e+01	5.9421	14.977774	0.000101	1.013709	0.343454	-0.000041
 857	8.5172e+01	5.8956	14.808214	0.000426	4.257577	1.442506	-0.000170
 858	8.5272e+01	5.8619	14.731508	0.000193	1.926047	0.652562	-0.000077
 859	8.5371e+01	5.8089	14.626543	0.000264	2.635643	0.892980	-0.000105
 860	8.5471e+01	5.7688	14.565986	0.000152	1.520563	0.515181	-0.000061
 861	8.5570e+01	5.7335	14.448909	0.000294	2.939756	0.996016	-0.000118
 862	8.5669e+01	5.6918	14.384315	0.000162	1.621934	0.549526	-0.000065
 863	8.5769e+01	5.6629	14.259163	0.000314	3.142497	1.064707	-0.000126
 864	8.5868e+01	5.6036	14.134012	0.000314	3.142497	1.064707	-0.000126
 865	8.5968e+01	5.5811	14.089604	0.000112	1.115080	0.377799	-0.000045
 866	8.6067e+01	5.5394	13.907933	0.000456	4.561690	1.545542	-0.000183
 867	8.6167e+01	5.4977	13.847376	0.000152	1.520563	0.515181	-0.000061
 868	8.6266e+01	5.4528	13.730299	0.000294	2.939756	0.996016	-0.000118
 869	8.6366e+01	5.4223	13.633407	0.000243	2.432901	0.824289	-0.000097
 870	8.6466e+01	5.3758	13.508256	0.000314	3.142497	1.064707	-0.000126
 871	8.6565e+01	5.3293	13.403291	0.000264	2.635643	0.892980	-0.000105
 872	8.6665e+01	5.2972	13.310437	0.000233	2.331530	0.789944	-0.000093
 873	8.6764e+01	5.2587	13.161063	0.000375	3.750723	1.270779	-0.000150
 874	8.6864e+01	5.2122	13.035911	0.000314	3.142497	1.064707	-0.000126
 875	8.6963e+01	5.1753	12.902686	0.000335	3.345239	1.133398	-0.000134
 876	8.7063e+01	5.1416	12.830017	0.000182	1.824676	0.618217	-0.000073
 877	8.7162e+01	5.0966	12.712940	0.000294	2.939756	0.996016	-0.000118
 878	8.7261e+01	5.0533	12.648346	0.000162	1.621934	0.549526	-0.000065
 879	8.7361e+01	5.0245	12.551455	0.000243	2.432901	0.824289	-0.000097
 880	8.7460e+01	4.9747	12.458601	0.000233	2.331530	0.789944	-0.000093
 881	8.7560e+01	4.9410	12.345561	0.000284	2.838385	0.961671	-0.000114
 882	8.7659e+01	4.8993	12.244633	0.000253	2.534272	0.858635	-0.000101
 883	8.7759e+01	4.8608	12.135630	0.000274	2.737014	0.927325	-0.000110
 884	8.7859e+01	4.8207	12.022590	0.000284	2.838385	0.961671	-0.000114
 885	8.7958e+01	4.7758	11.897439	0.000314	3.142497	1.064707	-0.000126
 886	8.8058e+01	4.7309	11.800548	0.000243	2.432901	0.824289	-0.000097
 887	8.8157e+01	4.6956	11.691545	0.000274	2.737014	0.927325	-0.000110
 888	8.8257e+01	4.6587	11.554282	0.000345	3.446610	1.167743	-0.000138
 889	8.8356e+01	4.6218	11.465465	0.000223	2.230159	0.755598	-0.000089
 890	8.8456e+01	4.5721	11.372611	0.000233	2.331530	0.789944	-0.000093
 891	8.8555e+01	4.5384	11.255534	0.000294	2.939756	0.996016	-0.000118
 892	8.8654e+01	4.5015	11.102123	0.000385	3.852093	1.305125	-0.000154
 893	8.8754e+01	4.4678	11.001195	0.000253	2.534272	0.858635	-0.000101
 894	8.8853e+01	4.4309	10.843747	0.000395	3.953464	1.339470	-0.000158
 895	8.8953e+01	4.3860	10.799338	0.000112	1.115080	0.377799	-0.000045
 896	8.9052e+01	4.3362	10.702447	0.000243	2.432901	0.824289	-0.000097
 897	8.9152e+01	4.2993	10.617667	0.000213	2.128789	0.721253	-0.000085
 898	8.9251e+01	4.2592	10.508664	0.000274	2.737014	0.927325	-0.000110
 899	8.9351e+01	4.2111	10.391587	0.000294	2.939756	0.996016	-0.000118
 900	8.9451e+01	4.1838	10.331030	0.000152	1.520563	0.515181	-0.000061
 901	8.9550e+01	4.1389	10.189731	0.000355	3.547981	1.202088	-0.000142
 902	8.9650e+01	4.1004	10.117062	0.000182	1.824676	0.618217	-0.000073
 903	8.9749e+01	4.0683	9.959614	0.000395	3.953464	1.339470	-0.000158
 904	8.9849e+01	4.0154	9.862723	0.000243	2.432901	0.824289	-0.000097
 905	8.9948e+01	3.9801	9.786017	0.000193	1.926047	0.652562	-0.000077
 906	9.0047e+01	3.9320	9.612420	0.000436	4.358948	1.476852	-0.000174
 907	9.0147e+01	3.8967	9.555900	0.000142	1.419192	0.480835	-0.000057
 908	9.0246e+01	3.8614	9.402489	0.000385	3.852093	1.305125	-0.000154
 909	9.0346e+01	3.8197	9.301561	0.000253	2.534272	0.858635	-0.000101
 910	9.0445e+01	3.7780	9.168335	0.000335	3.345239	1.133398	-0.000134
 911	9.0545e+01	3.7379	9.014924	0.000385	3.852093	1.305125	-0.000154
 912	9.0644e+01	3.6978	8.909959	0.000264	2.635643	0.892980	-0.000105
 913	9.0744e+01	3.6593	8.813067	0.000243	2.432901	0.824289	-0.000097
 914	9.0844e+01	3.6159	8.704065	0.000274	2.737014	0.927325	-0.000110
 915	9.0943e+01	3.5726	8.607173	0.000243	2.432901	0.824289	-0.000097
 916	9.1043e+01	3.5486	8.542579	0.000162	1.621934	0.549526	-0.000065
 917	9.1142e+01	3.5036	8.409354	0.000335	3.345239	1.133398	-0.000134
 918	9.1242e+01	3.4635	8.348797	0.000152	1.520563	0.515181	-0.000061
 919	9.1341e+01	3.4186	8.199423	0.000375	3.750723	1.270779	-0.000150
 920	9.1441e+01	3.3833	8.118680	0.000203	2.027418	0.686908	-0.000081
 921	9.1540e+01	3.3416	7.997566	0.000304	3.041126	1.030362	-0.000122
 922	9.1639e+01	3.3079	7.880489	0.000294	2.939756	0.996016	-0.000118
 923	9.1739e+01	3.2598	7.759375	0.000304	3.041126	1.030362	-0.000122
 924	9.1838e+01	3.2181	7.682669	0.000193	1.926047	0.652562	-0.000077
 925	9.1938e+01	3.1796	7.549444	0.000335	3.345239	1.133398	-0.000134
 926	9.2037e+01	3.1427	7.464664	0.000213	2.128789	0.721253	-0.000085
 927	9.2137e+01	3.1058	7.319327	0.000365	3.649352	1.236434	-0.000146
 928	9.2237e+01	3.0625	7.254733	0.000162	1.621934	0.549526	-0.000065
 929	9.2336e+01	3.0272	7.089210	0.000416	4.156206	1.408161	-0.000166
 930	9.2436e+01	2.9839	6.955985	0.000335	3.345239	1.133398	-0.000134
 931	9.2535e+01	2.9502	6.826797	0.000324	3.243868	1.099052	-0.000130
 932	9.2635e+01	2.9053	6.790462	0.000091	0.912338	0.309108	-0.000037
 933	9.2734e+01	2.8668	6.661274	0.000324	3.243868	1.099052	-0.000130
 934	9.2834e+01	2.8283	6.572457	0.000223	2.230159	0.755598	-0.000089
 935	9.2933e+01	2.7849	6.475566	0.000243	2.432901	0.824289	-0.000097
 936	9.3032e+01	2.7497	6.370600	0.000264	2.635643	0.892980	-0.000105
 937	9.3132e+01	2.6999	6.273709	0.000243	2.432901	0.824289	-0.000097
 938	9.3231e+01	2.6662	6.164706	0.000274	2.737014	0.927325	-0.000110
 939	9.3331e+01	2.6181	6.019369	0.000365	3.649352	1.236434	-0.000146
 940	9.3430e+01	2.5940	5.962849	0.000142	1.419192	0.480835	-0.000057
 941	9.3530e+01	2.5491	5.841735	0.000304	3.041126	1.030362	-0.000122
 942	9.3629e+01	2.5074	5.756956	0.000213	2.128789	0.721253	-0.000085
 943	9.3729e+01	2.4641	5.615656	0.000355	3.547981	1.202088	-0.000142
 944	9.3829e+01	2.4256	5.486467	0.000324	3.243868	1.099052	-0.000130
 945	9.3928e+01	2.3887	5.417836	0.000172	1.723305	0.583872	-0.000069
 946	9.4028e+01	2.3582	5.292685	0.000314	3.142497	1.064707	-0.000126
 947	9.4127e+01	2.3117	5.135237	0.000395	3.953464	1.339470	-0.000158
 948	9.4227e+01	2.2684	5.070642	0.000162	1.621934	0.549526	-0.000065
 949	9.4326e+01	2.2315	4.921268	0.000375	3.750723	1.270779	-0.000150
 950	9.4425e+01	2.1882	4.860711	0.000152	1.520563	0.515181	-0.000061
 951	9.4525e+01	2.1449	4.759783	0.000253	2.534272	0.858635	-0.000101
 952	9.4624e+01	2.0999	4.626558	0.000335	3.345239	1.133398	-0.000134
 953	9.4724e+01	2.0727	4.586186	0.000101	1.013709	0.343454	-0.000041
 954	9.4823e+01	2.0326	4.477184	0.000274	2.737014	0.927325	-0.000110
 955	9.4923e+01	1.9925	4.400478	0.000193	1.926047	0.652562	-0.000077
 956	9.5022e+01	1.9507	4.243030	0.000395	3.953464	1.339470	-0.000158
 957	9.5122e+01	1.9122	4.186510	0.000142	1.419192	0.480835	-0.000057
 958	9.5222e+01	1.8705	4.012913	0.000436	4.358948	1.476852	-0.000174
 959	9.5321e+01	1.8272	3.964467	0.000122	1.216451	0.412145	-0.000049
 960	9.5421e+01	1.7871	3.855465	0.000274	2.737014	0.927325	-0.000110
 961	9.5520e+01	1.7502	3.754536	0.000253	2.534272	0.858635	-0.000101
 962	9.5620e+01	1.7053	3.617274	0.000345	3.446610	1.167743	-0.000138
 963	9.5719e+01	1.6748	3.520382	0.000243	2.432901	0.824289	-0.000097
 964	9.5819e+01	1.6283	3.371008	0.000375	3.750723	1.270779	-0.000150
 965	9.5918e+01	1.5850	3.249894	0.000304	3.041126	1.030362	-0.000122
 966	9.6017e+01	1.5481	3.132817	0.000294	2.939756	0.996016	-0.000118
 967	9.6117e+01	1.5192	3.039963	0.000233	2.331530	0.789944	-0.000093
 968	9.6216e+01	1.4679	2.930961	0.000274	2.737014	0.927325	-0.000110
 969	9.6316e+01	1.4390	2.854255	0.000193	1.926047	0.652562	-0.000077
 970	9.6415e+01	1.3764	2.757364	0.000243	2.432901	0.824289	-0.000097
 971	9.6515e+01	1.3476	2.684695	0.000182	1.824676	0.618217	-0.000073
 972	9.6615e+01	1.3171	2.632213	0.000132	1.317821	0.446490	-0.000053
 973	9.6714e+01	1.2689	2.478801	0.000385	3.852093	1.305125	-0.000154
 974	9.6814e+01	1.2369	2.398059	0.000203	2.027418	0.686908	-0.000081
 975	9.6913e+01	1.1935	2.321353	0.000193	1.926047	0.652562	-0.000077
 976	9.7013e+01	1.1502	2.184090	0.000345	3.446610	1.167743	-0.000138
 977	9.7112e+01	1.1182	2.046828	0.000345	3.446610	1.167743	-0.000138
 978	9.7212e+01	1.0780	1.958011	0.000223	2.230159	0.755598	-0.000089
 979	9.7311e+01	1.0267	1.865157	0.000233	2.331530	0.789944	-0.000093
 980	9.7410e+01	0.9978	1.744043	0.000304	3.041126	1.030362	-0.000122
 981	9.7510e+01	0.9353	1.622929	0.000304	3.041126	1.030362	-0.000122
 982	9.7609e+01	0.9160	1.461443	0.000405	4.054835	1.373815	-0.000162
 983	9.7709e+01	0.8775	1.324181	0.000345	3.446610	1.167743	-0.000138
 984	9.7808e+01	0.8358	1.279772	0.000112	1.115080	0.377799	-0.000045
 985	9.7908e+01	0.7973	1.166732	0.000284	2.838385	0.961671	-0.000114
 986	9.8007e+01	0.7524	1.045618	0.000304	3.041126	1.030362	-0.000122
 987	9.8107e+01	0.7043	1.001210	0.000112	1.115080	0.377799	-0.000045
 988	9.8207e+01	0.6706	0.843761	0.000395	3.953464	1.339470	-0.000158
 989	9.8306e+01	0.6337	0.827613	0.000041	0.405484	0.137382	-0.000016
 990	9.8406e+01	0.6032	0.682276	0.000365	3.649352	1.236434	-0.000146
 991	9.8505e+01	0.5535	0.593459	0.000223	2.230159	0.755598	-0.000089
 992	9.8605e+01	0.5118	0.508679	0.000213	2.128789	0.721253	-0.000085
 993	9.8704e+01	0.4620	0.403714	0.000264	2.635643	0.892980	-0.000105
 994	9.8803e+01	0.4347	0.310859	0.000233	2.331530	0.789944	-0.000093
 995	9.8903e+01	0.3930	0.213968	0.000243	2.432901	0.824289	-0.000097
 996	9.9002e+01	0.3529	0.109003	0.000264	2.635643	0.892980	-0.000105
 997	9.9102e+01	0.3176	-0.016149	0.000314	3.142497	1.064707	-0.000126
 998	9.9201e+01	0.2904	-0.113040	0.000243	2.432901	0.824289	-0.000097
 999	9.9301e+01	0.2358	-0.242228	0.000324	3.243868	1.099052	-0.000130
1000	9.9400e+01	0.2021	-0.363342	0.000304	3.041126	1.030362	-0.000122
1001	9.9500e+01	0.1588	-0.488493	0.000314	3.142497	1.064707	-0.000126
1002	9.9600e+01	0.1171	-0.617682	0.000324	3.243868	1.099052	-0.000130
1003	9.9699e+01	0.0786	-0.645942	0.000071	0.709596	0.240418	-0.000028
1004	9.9799e+01	0.0385	-0.799353	0.000385	3.852093	1.305125	-0.000154
1005	9.9898e+01	-0.0048	-0.896244	0.000243	2.432901	0.824289	-0.000097
1006	9.9998e+01	-0.0305	-0.968913	0.000182	1.824676	0.618217	-0.000073
1007	1.0010e+02	-0.0834	-1.021395	0.000132	1.317821	0.446490	-0.000053
1008	1.0020e+02	-0.1203	-1.106175	0.000213	2.128789	0.721253	-0.000085
1009	1.0030e+02	-0.1604	-1.207104	0.000253	2.534272	0.858635	-0.000101
1010	1.0040e+02	-0.1925	-1.336292	0.000324	3.243868	1.099052	-0.000130
1011	1.0050e+02	-0.2374	-1.417035	0.000203	2.027418	0.686908	-0.000081
1012	1.0059e+02	-0.2743	-1.554297	0.000345	3.446610	1.167743	-0.000138
1013	1.0069e+02	-0.3225	-1.643114	0.000223	2.230159	0.755598	-0.000089
1014	1.0079e+02	-0.3545	-1.752117	0.000274	2.737014	0.927325	-0.000110
1015	1.0089e+02	-0.3882	-1.844971	0.000233	2.331530	0.789944	-0.000093
1016	1.0099e+02	-0.4315	-1.962048	0.000294	2.939756	0.996016	-0.000118
1017	1.0109e+02	-0.4749	-2.095273	0.000335	3.345239	1.133398	-0.000134
1018	1.0119e+02	-0.5101	-2.228499	0.000335	3.345239	1.133398	-0.000134
1019	1.0129e+02	-0.5551	-2.333464	0.000264	2.635643	0.892980	-0.000105
1020	1.0139e+02	-0.5920	-2.402096	0.000172	1.723305	0.583872	-0.000069
1021	1.0149e+02	-0.6369	-2.575693	0.000436	4.358948	1.476852	-0.000174
1022	1.0159e+02	-0.6722	-2.656435	0.000203	2.027418	0.686908	-0.000081
1023	1.0169e+02	-0.7155	-2.765438	0.000274	2.737014	0.927325	-0.000110
1024	1.0179e+02	-0.7492	-2.862329	0.000243	2.432901	0.824289	-0.000097
1025	1.0189e+02	-0.7893	-2.947109	0.000213	2.128789	0.721253	-0.000085
1026	1.0199e+02	-0.8326	-3.080335	0.000335	3.345239	1.133398	-0.000134
1027	1.0209e+02	-0.8743	-3.128780	0.000122	1.216451	0.412145	-0.000049
1028	1.0219e+02	-0.9176	-3.249894	0.000304	3.041126	1.030362	-0.000122
1029	1.0229e+02	-0.9513	-3.350823	0.000253	2.534272	0.858635	-0.000101
1030	1.0239e+02	-0.9962	-3.443677	0.000233	2.331530	0.789944	-0.000093
1031	1.0248e+02	-1.0347	-3.580939	0.000345	3.446610	1.167743	-0.000138
1032	1.0258e+02	-1.0700	-3.673794	0.000233	2.331530	0.789944	-0.000093
1033	1.0268e+02	-1.1165	-3.766648	0.000233	2.331530	0.789944	-0.000093
1034	1.0278e+02	-1.1631	-3.879687	0.000284	2.838385	0.961671	-0.000114
1035	1.0288e+02	-1.1968	-4.012913	0.000335	3.345239	1.133398	-0.000134
1036	1.0298e+02	-1.2321	-4.142101	0.000324	3.243868	1.099052	-0.000130
1037	1.0308e+02	-1.2561	-4.243030	0.000253	2.534272	0.858635	-0.000101
1038	1.0318e+02	-1.3107	-4.372218	0.000324	3.243868	1.099052	-0.000130
1039	1.0328e+02	-1.3492	-4.469109	0.000243	2.432901	0.824289	-0.000097
1040	1.0338e+02	-1.3989	-4.553889	0.000213	2.128789	0.721253	-0.000085
1041	1.0348e+02	-1.4326	-4.675003	0.000304	3.041126	1.030362	-0.000122
1042	1.0358e+02	-1.4711	-4.759783	0.000213	2.128789	0.721253	-0.000085
1043	1.0368e+02	-1.5208	-4.921268	0.000405	4.054835	1.373815	-0.000162
1044	1.0378e+02	-1.5529	-4.961640	0.000101	1.013709	0.343454	-0.000041
1045	1.0388e+02	-1.5834	-5.034308	0.000182	1.824676	0.618217	-0.000073
1046	1.0398e+02	-1.6283	-5.167534	0.000335	3.345239	1.133398	-0.000134
1047	1.0408e+02	-1.6620	-5.280574	0.000284	2.838385	0.961671	-0.000114
1048	1.0418e+02	-1.7181	-5.397650	0.000294	2.939756	0.996016	-0.000118
1049	1.0428e+02	-1.7582	-5.470319	0.000182	1.824676	0.618217	-0.000073
1050	1.0438e+02	-1.7823	-5.575284	0.000264	2.635643	0.892980	-0.000105
1051	1.0447e+02	-1.8368	-5.668139	0.000233	2.331530	0.789944	-0.000093
1052	1.0457e+02	-1.8721	-5.765030	0.000243	2.432901	0.824289	-0.000097
1053	1.0467e+02	-1.9155	-5.922478	0.000395	3.953464	1.339470	-0.000158
1054	1.0477e+02	-1.9540	-6.031481	0.000274	2.737014	0.927325	-0.000110
1055	1.0487e+02	-1.9796	-6.136446	0.000264	2.635643	0.892980	-0.000105
1056	1.0497e+02	-2.0213	-6.273709	0.000345	3.446610	1.167743	-0.000138
1057	1.0507e+02	-2.0695	-6.366563	0.000233	2.331530	0.789944	-0.000093
1058	1.0517e+02	-2.1015	-6.483640	0.000294	2.939756	0.996016	-0.000118
1059	1.0527e+02	-2.1513	-6.568420	0.000213	2.128789	0.721253	-0.000085
1060	1.0537e+02	-2.1946	-6.697608	0.000324	3.243868	1.099052	-0.000130
1061	1.0547e+02	-2.2170	-6.810648	0.000284	2.838385	0.961671	-0.000114
1062	1.0557e+02	-2.2604	-6.895428	0.000213	2.128789	0.721253	-0.000085
1063	1.0567e+02	-2.3053	-6.992319	0.000243	2.432901	0.824289	-0.000097
1064	1.0577e+02	-2.3502	-7.089210	0.000243	2.432901	0.824289	-0.000097
1065	1.0587e+02	-2.3903	-7.169953	0.000203	2.027418	0.686908	-0.000081
1066	1.0597e+02	-2.4288	-7.315290	0.000365	3.649352	1.236434	-0.000146
1067	1.0607e+02	-2.4721	-7.396033	0.000203	2.027418	0.686908	-0.000081
1068	1.0617e+02	-2.5106	-7.496961	0.000253	2.534272	0.858635	-0.000101
1069	1.0627e+02	-2.5588	-7.610001	0.000284	2.838385	0.961671	-0.000114
1070	1.0637e+02	-2.5924	-7.702855	0.000233	2.331530	0.789944	-0.000093
1071	1.0647e+02	-2.6245	-7.836080	0.000335	3.345239	1.133398	-0.000134
1072	1.0656e+02	-2.6630	-7.957195	0.000304	3.041126	1.030362	-0.000122
1073	1.0666e+02	-2.6967	-8.094457	0.000345	3.446610	1.167743	-0.000138
1074	1.0676e+02	-2.7432	-8.199423	0.000264	2.635643	0.892980	-0.000105
1075	1.0686e+02	-2.7849	-8.312462	0.000284	2.838385	0.961671	-0.000114
1076	1.0696e+02	-2.8251	-8.461837	0.000375	3.750723	1.270779	-0.000150
1077	1.0706e+02	-2.8603	-8.498171	0.000091	0.912338	0.309108	-0.000037
1078	1.0716e+02	-2.9021	-8.647545	0.000375	3.750723	1.270779	-0.000150
1079	1.0726e+02	-2.9470	-8.780770	0.000335	3.345239	1.133398	-0.000134
1080	1.0736e+02	-2.9791	-8.853439	0.000182	1.824676	0.618217	-0.000073
1081	1.0746e+02	-3.0320	-8.950330	0.000243	2.432901	0.824289	-0.000097
1082	1.0756e+02	-3.0657	-9.039147	0.000223	2.230159	0.755598	-0.000089
1083	1.0766e+02	-3.1026	-9.156224	0.000294	2.939756	0.996016	-0.000118
1084	1.0776e+02	-3.1427	-9.232929	0.000193	1.926047	0.652562	-0.000077
1085	1.0786e+02	-3.1860	-9.354044	0.000304	3.041126	1.030362	-0.000122
1086	1.0796e+02	-3.2117	-9.479195	0.000314	3.142497	1.064707	-0.000126
1087	1.0806e+02	-3.2694	-9.596272	0.000294	2.939756	0.996016	-0.000118
1088	1.0816e+02	-3.3015	-9.668940	0.000182	1.824676	0.618217	-0.000073
1089	1.0826e+02	-3.3480	-9.790054	0.000304	3.041126	1.030362	-0.000122
1090	1.0836e+02	-3.3897	-9.915205	0.000314	3.142497	1.064707	-0.000126
1091	1.0845e+02	-3.4250	-10.004022	0.000223	2.230159	0.755598	-0.000089
1092	1.0855e+02	-3.4667	-10.149359	0.000365	3.649352	1.236434	-0.000146
1093	1.0865e+02	-3.5036	-10.266436	0.000294	2.939756	0.996016	-0.000118
1094	1.0875e+02	-3.5470	-10.379476	0.000284	2.838385	0.961671	-0.000114
1095	1.0885e+02	-3.5823	-10.484442	0.000264	2.635643	0.892980	-0.000105
1096	1.0895e+02	-3.6272	-10.621704	0.000345	3.446610	1.167743	-0.000138
1097	1.0905e+02	-3.6625	-10.694373	0.000182	1.824676	0.618217	-0.000073
1098	1.0915e+02	-3.7026	-10.742818	0.000122	1.216451	0.412145	-0.000049
1099	1.0925e+02	-3.7395	-10.888155	0.000365	3.649352	1.236434	-0.000146
1100	1.0935e+02	-3.7828	-10.944675	0.000142	1.419192	0.480835	-0.000057
1101	1.0945e+02	-3.8309	-11.045603	0.000253	2.534272	0.858635	-0.000101
1102	1.0955e+02	-3.8582	-11.166717	0.000304	3.041126	1.030362	-0.000122
1103	1.0965e+02	-3.9063	-11.259572	0.000233	2.331530	0.789944	-0.000093
1104	1.0975e+02	-3.9336	-11.384723	0.000314	3.142497	1.064707	-0.000126
1105	1.0985e+02	-3.9769	-11.461428	0.000193	1.926047	0.652562	-0.000077
1106	1.0995e+02	-4.0234	-11.582542	0.000304	3.041126	1.030362	-0.000122
1107	1.1005e+02	-4.0619	-11.667322	0.000213	2.128789	0.721253	-0.000085
1108	1.1015e+02	-4.0972	-11.780362	0.000284	2.838385	0.961671	-0.000114
1109	1.1025e+02	-4.1373	-11.901476	0.000304	3.041126	1.030362	-0.000122
1110	1.1035e+02	-4.1726	-12.054887	0.000385	3.852093	1.305125	-0.000154
1111	1.1044e+02	-4.2255	-12.143704	0.000223	2.230159	0.755598	-0.000089
1112	1.1054e+02	-4.2705	-12.268856	0.000314	3.142497	1.064707	-0.000126
1113	1.1064e+02	-4.2961	-12.337487	0.000172	1.723305	0.583872	-0.000069
1114	1.1074e+02	-4.3362	-12.426304	0.000223	2.230159	0.755598	-0.000089
1115	1.1084e+02	-4.3860	-12.547418	0.000304	3.041126	1.030362	-0.000122
1116	1.1094e+02	-4.4213	-12.652383	0.000264	2.635643	0.892980	-0.000105
1117	1.1104e+02	-4.4598	-12.761386	0.000274	2.737014	0.927325	-0.000110
1118	1.1114e+02	-4.5031	-12.805795	0.000112	1.115080	0.377799	-0.000045
1119	1.1124e+02	-4.5384	-12.910760	0.000264	2.635643	0.892980	-0.000105
1120	1.1134e+02	-4.5737	-13.007651	0.000243	2.432901	0.824289	-0.000097
1121	1.1144e+02	-4.6266	-13.112617	0.000264	2.635643	0.892980	-0.000105
1122	1.1154e+02	-4.6667	-13.189322	0.000193	1.926047	0.652562	-0.000077
1123	1.1164e+02	-4.7052	-13.346771	0.000395	3.953464	1.339470	-0.000158
1124	1.1174e+02	-4.7293	-13.395216	0.000122	1.216451	0.412145	-0.000049
1125	1.1184e+02	-4.7822	-13.471922	0.000193	1.926047	0.652562	-0.000077
1126	1.1194e+02	-4.8175	-13.601110	0.000324	3.243868	1.099052	-0.000130
1127	1.1204e+02	-4.8576	-13.718187	0.000294	2.939756	0.996016	-0.000118
1128	1.1214e+02	-4.8961	-13.811041	0.000233	2.331530	0.789944	-0.000093
1129	1.1224e+02	-4.9282	-13.988675	0.000446	4.460319	1.511197	-0.000179
1130	1.1234e+02	-4.9731	-14.069418	0.000203	2.027418	0.686908	-0.000081
1131	1.1244e+02	-5.0196	-14.174384	0.000264	2.635643	0.892980	-0.000105
1132	1.1253e+02	-5.0581	-14.303572	0.000324	3.243868	1.099052	-0.000130
1133	1.1263e+02	-5.0999	-14.372203	0.000172	1.723305	0.583872	-0.000069
1134	1.1273e+02	-5.1351	-14.432760	0.000152	1.520563	0.515181	-0.000061
1135	1.1283e+02	-5.1753	-14.598283	0.000416	4.156206	1.408161	-0.000166
1136	1.1293e+02	-5.2218	-14.626543	0.000071	0.709596	0.240418	-0.000028
1137	1.1303e+02	-5.2619	-14.735545	0.000274	2.737014	0.927325	-0.000110
1138	1.1313e+02	-5.2940	-14.848585	0.000284	2.838385	0.961671	-0.000114
1139	1.1323e+02	-5.3373	-14.945477	0.000243	2.432901	0.824289	-0.000097
1140	1.1333e+02	-5.3838	-15.038331	0.000233	2.331530	0.789944	-0.000093
1141	1.1343e+02	-5.4271	-15.115036	0.000193	1.926047	0.652562	-0.000077
1142	1.1353e+02	-5.4560	-15.220002	0.000264	2.635643	0.892980	-0.000105
1143	1.1363e+02	-5.5009	-15.381487	0.000405	4.054835	1.373815	-0.000162
1144	1.1373e+02	-5.5378	-15.454156	0.000182	1.824676	0.618217	-0.000073
1145	1.1383e+02	-5.5779	-15.547010	0.000233	2.331530	0.789944	-0.000093
1146	1.1393e+02	-5.6068	-15.651975	0.000264	2.635643	0.892980	-0.000105
1147	1.1403e+02	-5.6533	-15.813461	0.000405	4.054835	1.373815	-0.000162
1148	1.1413e+02	-5.6934	-15.890166	0.000193	1.926047	0.652562	-0.000077
1149	1.1423e+02	-5.7367	-16.003206	0.000284	2.838385	0.961671	-0.000114
1150	1.1433e+02	-5.7736	-16.059726	0.000142	1.419192	0.480835	-0.000057
1151	1.1442e+02	-5.8121	-16.176803	0.000294	2.939756	0.996016	-0.000118
1152	1.1452e+02	-5.8571	-16.273694	0.000243	2.432901	0.824289	-0.000097
1153	1.1462e+02	-5.8988	-16.394808	0.000304	3.041126	1.030362	-0.000122
1154	1.1472e+02	-5.9357	-16.467477	0.000182	1.824676	0.618217	-0.000073
1155	1.1482e+02	-5.9790	-16.511885	0.000112	1.115080	0.377799	-0.000045
1156	1.1492e+02	-6.0143	-16.572442	0.000152	1.520563	0.515181	-0.000061
1157	1.1502e+02	-6.0592	-16.705668	0.000335	3.345239	1.133398	-0.000134
1158	1.1512e+02	-6.0961	-16.818707	0.000284	2.838385	0.961671	-0.000114
1159	1.1522e+02	-6.1282	-16.903487	0.000213	2.128789	0.721253	-0.000085
1160	1.1532e+02	-6.1811	-17.012490	0.000274	2.737014	0.927325	-0.000110
1161	1.1542e+02	-6.2180	-17.109381	0.000243	2.432901	0.824289	-0.000097
1162	1.1552e+02	-6.2533	-17.214347	0.000264	2.635643	0.892980	-0.000105
1163	1.1562e+02	-6.3062	-17.315275	0.000253	2.534272	0.858635	-0.000101
1164	1.1572e+02	-6.3351	-17.400055	0.000213	2.128789	0.721253	-0.000085
1165	1.1582e+02	-6.3768	-17.505021	0.000264	2.635643	0.892980	-0.000105
1166	1.1592e+02	-6.4185	-17.605949	0.000253	2.534272	0.858635	-0.000101
1167	1.1602e+02	-6.4490	-17.710914	0.000264	2.635643	0.892980	-0.000105
1168	1.1612e+02	-6.4907	-17.811843	0.000253	2.534272	0.858635	-0.000101
1169	1.1622e+02	-6.5292	-17.904697	0.000233	2.331530	0.789944	-0.000093
1170	1.1632e+02	-6.5709	-18.013700	0.000274	2.737014	0.927325	-0.000110
1171	1.1642e+02	-6.6110	-18.122702	0.000274	2.737014	0.927325	-0.000110
1172	1.1651e+02	-6.6463	-18.187296	0.000162	1.621934	0.549526	-0.000065
1173	1.1661e+02	-6.6913	-18.255928	0.000172	1.723305	0.583872	-0.000069
1174	1.1671e+02	-6.7314	-18.360893	0.000264	2.635643	0.892980	-0.000105
1175	1.1681e+02	-6.7667	-18.405302	0.000112	1.115080	0.377799	-0.000045
1176	1.1691e+02	-6.8228	-18.550639	0.000365	3.649352	1.236434	-0.000146
1177	1.1701e+02	-6.8421	-18.631381	0.000203	2.027418	0.686908	-0.000081
1178	1.1711e+02	-6.8870	-18.744421	0.000284	2.838385	0.961671	-0.000114
1179	1.1721e+02	-6.9319	-18.849387	0.000264	2.635643	0.892980	-0.000105
1180	1.1731e+02	-6.9672	-18.938204	0.000223	2.230159	0.755598	-0.000089
1181	1.1741e+02	-7.0153	-19.031058	0.000233	2.331530	0.789944	-0.000093
1182	1.1751e+02	-7.0378	-19.119875	0.000223	2.230159	0.755598	-0.000089
1183	1.1761e+02	-7.0859	-19.305583	0.000466	4.663061	1.579888	-0.000187
1184	1.1771e+02	-7.1292	-19.382289	0.000193	1.926047	0.652562	-0.000077
1185	1.1781e+02	-7.1597	-19.511477	0.000324	3.243868	1.099052	-0.000130
1186	1.1791e+02	-7.2078	-19.563960	0.000132	1.317821	0.446490	-0.000053
1187	1.1801e+02	-7.2447	-19.677000	0.000284	2.838385	0.961671	-0.000114
1188	1.1811e+02	-7.2816	-19.761779	0.000213	2.128789	0.721253	-0.000085
1189	1.1821e+02	-7.3265	-19.862708	0.000253	2.534272	0.858635	-0.000101
1190	1.1831e+02	-7.3618	-19.947488	0.000213	2.128789	0.721253	-0.000085
1191	1.1841e+02	-7.4083	-20.056490	0.000274	2.737014	0.927325	-0.000110
1192	1.1850e+02	-7.4404	-20.080713	0.000061	0.608225	0.206072	-0.000024
1193	1.1860e+02	-7.4918	-20.222013	0.000355	3.547981	1.202088	-0.000142
1194	1.1870e+02	-7.5287	-20.318904	0.000243	2.432901	0.824289	-0.000097
1195	1.1880e+02	-7.5591	-20.407721	0.000223	2.230159	0.755598	-0.000089
1196	1.1890e+02	-7.6041	-20.516724	0.000274	2.737014	0.927325	-0.000110
1197	1.1900e+02	-7.6361	-20.577281	0.000152	1.520563	0.515181	-0.000061
1198	1.1910e+02	-7.6859	-20.698395	0.000304	3.041126	1.030362	-0.000122
1199	1.1920e+02	-7.7212	-20.827583	0.000324	3.243868	1.099052	-0.000130
1200	1.1930e+02	-7.7645	-20.964846	0.000345	3.446610	1.167743	-0.000138
1201	1.1940e+02	-7.8062	-21.085960	0.000304	3.041126	1.030362	-0.000122
1202	1.1950e+02	-7.8495	-21.170740	0.000213	2.128789	0.721253	-0.000085
1203	1.1960e+02	-7.8848	-21.275705	0.000264	2.635643	0.892980	-0.000105
1204	1.1970e+02	-7.9153	-21.376634	0.000253	2.534272	0.858635	-0.000101
1205	1.1980e+02	-7.9682	-21.469488	0.000233	2.331530	0.789944	-0.000093
1206	1.1990e+02	-7.9987	-21.554268	0.000213	2.128789	0.721253	-0.000085
1207	1.2000e+02	-8.0420	-21.651159	0.000243	2.432901	0.824289	-0.000097
1208	1.2010e+02	-8.0789	-21.752087	0.000253	2.534272	0.858635	-0.000101
1209	1.2020e+02	-8.1222	-21.836867	0.000213	2.128789	0.721253	-0.000085
1210	1.2030e+02	-8.1752	-21.945870	0.000274	2.737014	0.927325	-0.000110
1211	1.2039e+02	-8.2105	-21.994316	0.000122	1.216451	0.412145	-0.000049
1212	1.2049e+02	-8.2554	-22.103318	0.000274	2.737014	0.927325	-0.000110
1213	1.2059e+02	-8.2891	-22.184061	0.000203	2.027418	0.686908	-0.000081
1214	1.2069e+02	-8.3196	-22.317286	0.000335	3.345239	1.133398	-0.000134
1215	1.2079e+02	-8.3629	-22.418215	0.000253	2.534272	0.858635	-0.000101
1216	1.2089e+02	-8.4030	-22.531255	0.000284	2.838385	0.961671	-0.000114
1217	1.2099e+02	-8.4383	-22.616034	0.000213	2.128789	0.721253	-0.000085
1218	1.2109e+02	-8.4768	-22.729074	0.000284	2.838385	0.961671	-0.000114
1219	1.2119e+02	-8.5105	-22.854225	0.000314	3.142497	1.064707	-0.000126
1220	1.2129e+02	-8.5618	-22.943042	0.000223	2.230159	0.755598	-0.000089
1221	1.2139e+02	-8.6035	-23.060119	0.000294	2.939756	0.996016	-0.000118
1222	1.2149e+02	-8.6468	-23.177196	0.000294	2.939756	0.996016	-0.000118
1223	1.2159e+02	-8.6789	-23.282162	0.000264	2.635643	0.892980	-0.000105
1224	1.2169e+02	-8.7190	-23.342719	0.000152	1.520563	0.515181	-0.000061
1225	1.2179e+02	-8.7591	-23.447684	0.000264	2.635643	0.892980	-0.000105
1226	1.2189e+02	-8.8040	-23.540538	0.000233	2.331530	0.789944	-0.000093
1227	1.2199e+02	-8.8489	-23.629355	0.000223	2.230159	0.755598	-0.000089
1228	1.2209e+02	-8.8858	-23.726247	0.000243	2.432901	0.824289	-0.000097
1229	1.2219e+02	-8.9260	-23.766618	0.000101	1.013709	0.343454	-0.000041
1230	1.2229e+02	-8.9677	-23.924066	0.000395	3.953464	1.339470	-0.000158
1231	1.2239e+02	-8.9965	-23.976549	0.000132	1.317821	0.446490	-0.000053
1232	1.2248e+02	-9.0463	-24.113812	0.000345	3.446610	1.167743	-0.000138
1233	1.2258e+02	-9.0784	-24.182443	0.000172	1.723305	0.583872	-0.000069
1234	1.2268e+02	-9.1233	-24.291446	0.000274	2.737014	0.927325	-0.000110
1235	1.2278e+02	-9.1554	-24.408523	0.000294	2.939756	0.996016	-0.000118
1236	1.2288e+02	-9.1906	-24.513488	0.000264	2.635643	0.892980	-0.000105
1237	1.2298e+02	-9.2436	-24.598268	0.000213	2.128789	0.721253	-0.000085
1238	1.2308e+02	-9.2709	-24.739568	0.000355	3.547981	1.202088	-0.000142
1239	1.2318e+02	-9.3206	-24.832422	0.000233	2.331530	0.789944	-0.000093
1240	1.2328e+02	-9.3607	-24.933350	0.000253	2.534272	0.858635	-0.000101
1241	1.2338e+02	-9.3960	-25.030242	0.000243	2.432901	0.824289	-0.000097
1242	1.2348e+02	-9.4361	-25.139244	0.000274	2.737014	0.927325	-0.000110
1243	1.2358e+02	-9.4810	-25.195764	0.000142	1.419192	0.480835	-0.000057
1244	1.2368e+02	-9.5179	-25.320915	0.000314	3.142497	1.064707	-0.000126
1245	1.2378e+02	-9.5596	-25.401658	0.000203	2.027418	0.686908	-0.000081
1246	1.2388e+02	-9.6078	-25.474327	0.000182	1.824676	0.618217	-0.000073
1247	1.2398e+02	-9.6382	-25.551032	0.000193	1.926047	0.652562	-0.000077
1248	1.2408e+02	-9.6783	-25.680220	0.000324	3.243868	1.099052	-0.000130
1249	1.2418e+02	-9.7104	-25.752889	0.000182	1.824676	0.618217	-0.000073
1250	1.2428e+02	-9.7602	-25.894189	0.000355	3.547981	1.202088	-0.000142
1251	1.2438e+02	-9.8067	-25.987043	0.000233	2.331530	0.789944	-0.000093
1252	1.2447e+02	-9.8339	-26.051637	0.000162	1.621934	0.549526	-0.000065
1253	1.2457e+02	-9.8580	-26.184862	0.000335	3.345239	1.133398	-0.000134
1254	1.2467e+02	-9.9126	-26.261568	0.000193	1.926047	0.652562	-0.000077
1255	1.2477e+02	-9.9527	-26.390756	0.000324	3.243868	1.099052	-0.000130
1256	1.2487e+02	-10.0024	-26.507833	0.000294	2.939756	0.996016	-0.000118
1257	1.2497e+02	-10.0281	-26.616836	0.000274	2.737014	0.927325	-0.000110
1258	1.2507e+02	-10.0794	-26.713727	0.000243	2.432901	0.824289	-0.000097
1259	1.2517e+02	-10.1083	-26.842916	0.000324	3.243868	1.099052	-0.000130
1260	1.2527e+02	-10.1420	-26.992290	0.000375	3.750723	1.270779	-0.000150
1261	1.2537e+02	-10.1933	-27.064958	0.000182	1.824676	0.618217	-0.000073
1262	1.2547e+02	-10.2382	-27.137626	0.000182	1.824676	0.618217	-0.000073
1263	1.2557e+02	-10.2751	-27.210295	0.000182	1.824676	0.618217	-0.000073
1264	1.2567e+02	-10.3281	-27.214332	0.000010	0.101371	0.034345	-0.000004
1265	1.2577e+02	-10.3425	-27.363706	0.000375	3.750723	1.270779	-0.000150
1266	1.2587e+02	-10.3954	-27.460597	0.000243	2.432901	0.824289	-0.000097
1267	1.2597e+02	-10.4371	-27.537303	0.000193	1.926047	0.652562	-0.000077
1268	1.2607e+02	-10.4772	-27.646306	0.000274	2.737014	0.927325	-0.000110
1269	1.2617e+02	-10.5206	-27.739160	0.000233	2.331530	0.789944	-0.000093
1270	1.2627e+02	-10.5446	-27.807791	0.000172	1.723305	0.583872	-0.000069
1271	1.2636e+02	-10.5992	-27.912756	0.000264	2.635643	0.892980	-0.000105
1272	1.2646e+02	-10.6313	-28.029833	0.000294	2.939756	0.996016	-0.000118
1273	1.2656e+02	-10.6746	-28.219579	0.000476	4.764431	1.614233	-0.000191
1274	1.2666e+02	-10.7115	-28.324544	0.000264	2.635643	0.892980	-0.000105
1275	1.2676e+02	-10.7548	-28.401250	0.000193	1.926047	0.652562	-0.000077
1276	1.2686e+02	-10.7869	-28.498141	0.000243	2.432901	0.824289	-0.000097
1277	1.2696e+02	-10.8414	-28.546587	0.000122	1.216451	0.412145	-0.000049
1278	1.2706e+02	-10.8735	-28.675775	0.000324	3.243868	1.099052	-0.000130
1279	1.2716e+02	-10.9168	-28.732295	0.000142	1.419192	0.480835	-0.000057
1280	1.2726e+02	-10.9521	-28.821112	0.000223	2.230159	0.755598	-0.000089
1281	1.2736e+02	-10.9842	-28.893780	0.000182	1.824676	0.618217	-0.000073
1282	1.2746e+02	-11.0371	-28.938189	0.000112	1.115080	0.377799	-0.000045
1283	1.2756e+02	-11.0756	-29.047192	0.000274	2.737014	0.927325	-0.000110
1284	1.2766e+02	-11.1238	-29.164269	0.000294	2.939756	0.996016	-0.000118
1285	1.2776e+02	-11.1574	-29.216751	0.000132	1.317821	0.446490	-0.000053
1286	1.2786e+02	-11.1991	-29.317680	0.000253	2.534272	0.858635	-0.000101
1287	1.2796e+02	-11.2312	-29.438794	0.000304	3.041126	1.030362	-0.000122
1288	1.2806e+02	-11.2649	-29.467054	0.000071	0.709596	0.240418	-0.000028
1289	1.2816e+02	-11.3082	-29.632576	0.000416	4.156206	1.408161	-0.000166
1290	1.2826e+02	-11.3499	-29.717356	0.000213	2.128789	0.721253	-0.000085
1291	1.2835e+02	-11.3901	-29.818285	0.000253	2.534272	0.858635	-0.000101
1292	1.2845e+02	-11.4270	-29.935361	0.000294	2.939756	0.996016	-0.000118
1293	1.2855e+02	-11.4703	-30.020141	0.000213	2.128789	0.721253	-0.000085
1294	1.2865e+02	-11.5072	-30.121070	0.000253	2.534272	0.858635	-0.000101
1295	1.2875e+02	-11.5489	-30.181627	0.000152	1.520563	0.515181	-0.000061
1296	1.2885e+02	-11.5890	-30.314852	0.000335	3.345239	1.133398	-0.000134
1297	1.2895e+02	-11.6371	-30.435966	0.000304	3.041126	1.030362	-0.000122
1298	1.2905e+02	-11.6740	-30.484412	0.000122	1.216451	0.412145	-0.000049
1299	1.2915e+02	-11.7061	-30.581303	0.000243	2.432901	0.824289	-0.000097
1300	1.2925e+02	-11.7366	-30.637823	0.000142	1.419192	0.480835	-0.000057
1301	1.2935e+02	-11.7879	-30.698380	0.000152	1.520563	0.515181	-0.000061
1302	1.2945e+02	-11.8232	-30.754900	0.000142	1.419192	0.480835	-0.000057
1303	1.2955e+02	-11.8681	-30.859866	0.000264	2.635643	0.892980	-0.000105
1304	1.2965e+02	-11.9114	-30.936571	0.000193	1.926047	0.652562	-0.000077
1305	1.2975e+02	-11.9451	-31.073834	0.000345	3.446610	1.167743	-0.000138
1306	1.2985e+02	-11.9836	-31.162651	0.000223	2.230159	0.755598	-0.000089
1307	1.2995e+02	-12.0189	-31.251468	0.000223	2.230159	0.755598	-0.000089
1308	1.3005e+02	-12.0670	-31.376619	0.000314	3.142497	1.064707	-0.000126
1309	1.3015e+02	-12.1120	-31.469473	0.000233	2.331530	0.789944	-0.000093
1310	1.3025e+02	-12.1489	-31.602699	0.000335	3.345239	1.133398	-0.000134
1311	1.3034e+02	-12.1858	-31.655181	0.000132	1.317821	0.446490	-0.000053
1312	1.3044e+02	-12.2387	-31.760147	0.000264	2.635643	0.892980	-0.000105
1313	1.3054e+02	-12.2660	-31.857038	0.000243	2.432901	0.824289	-0.000097
1314	1.3064e+02	-12.3045	-31.957967	0.000253	2.534272	0.858635	-0.000101
1315	1.3074e+02	-12.3462	-31.998338	0.000101	1.013709	0.343454	-0.000041
1316	1.3084e+02	-12.3879	-32.127526	0.000324	3.243868	1.099052	-0.000130
1317	1.3094e+02	-12.4296	-32.208269	0.000203	2.027418	0.686908	-0.000081
1318	1.3104e+02	-12.4649	-32.284974	0.000193	1.926047	0.652562	-0.000077
1319	1.3114e+02	-12.5050	-32.377829	0.000233	2.331530	0.789944	-0.000093
1320	1.3124e+02	-12.5435	-32.430311	0.000132	1.317821	0.446490	-0.000053
1321	1.3134e+02	-12.5932	-32.531240	0.000253	2.534272	0.858635	-0.000101
1322	1.3144e+02	-12.6221	-32.599871	0.000172	1.723305	0.583872	-0.000069
1323	1.3154e+02	-12.6654	-32.725022	0.000314	3.142497	1.064707	-0.000126
1324	1.3164e+02	-12.7087	-32.793654	0.000172	1.723305	0.583872	-0.000069
1325	1.3174e+02	-12.7408	-32.882471	0.000223	2.230159	0.755598	-0.000089
1326	1.3184e+02	-12.7922	-33.003585	0.000304	3.041126	1.030362	-0.000122
1327	1.3194e+02	-12.8290	-33.112587	0.000274	2.737014	0.927325	-0.000110
1328	1.3204e+02	-12.8547	-33.165070	0.000132	1.317821	0.446490	-0.000053
1329	1.3214e+02	-12.8948	-33.306370	0.000355	3.547981	1.202088	-0.000142
1330	1.3224e+02	-12.9478	-33.375001	0.000172	1.723305	0.583872	-0.000069
1331	1.3234e+02	-12.9750	-33.431521	0.000142	1.419192	0.480835	-0.000057
1332	1.3243e+02	-13.0216	-33.500152	0.000172	1.723305	0.583872	-0.000069
1333	1.3253e+02	-13.0601	-33.593006	0.000233	2.331530	0.789944	-0.000093
1334	1.3263e+02	-13.1066	-33.706046	0.000284	2.838385	0.961671	-0.000114
1335	1.3273e+02	-13.1451	-33.806975	0.000253	2.534272	0.858635	-0.000101
1336	1.3283e+02	-13.1852	-33.871569	0.000162	1.621934	0.549526	-0.000065
1337	1.3293e+02	-13.2173	-33.956349	0.000213	2.128789	0.721253	-0.000085
1338	1.3303e+02	-13.2686	-34.012869	0.000142	1.419192	0.480835	-0.000057
1339	1.3313e+02	-13.3039	-34.077463	0.000162	1.621934	0.549526	-0.000065
1340	1.3323e+02	-13.3504	-34.190503	0.000284	2.838385	0.961671	-0.000114
1341	1.3333e+02	-13.3889	-34.247022	0.000142	1.419192	0.480835	-0.000057
1342	1.3343e+02	-13.4258	-34.388322	0.000355	3.547981	1.202088	-0.000142
1343	1.3353e+02	-13.4547	-34.473102	0.000213	2.128789	0.721253	-0.000085
1344	1.3363e+02	-13.4948	-34.586142	0.000284	2.838385	0.961671	-0.000114
1345	1.3373e+02	-13.5381	-34.646699	0.000152	1.520563	0.515181	-0.000061
1346	1.3383e+02	-13.5814	-34.767813	0.000304	3.041126	1.030362	-0.000122
1347	1.3393e+02	-13.6167	-34.832407	0.000162	1.621934	0.549526	-0.000065
1348	1.3403e+02	-13.6552	-34.925261	0.000233	2.331530	0.789944	-0.000093
1349	1.3413e+02	-13.7114	-35.054450	0.000324	3.243868	1.099052	-0.000130
1350	1.3423e+02	-13.7403	-35.151341	0.000243	2.432901	0.824289	-0.000097
1351	1.3432e+02	-13.7804	-35.211898	0.000152	1.520563	0.515181	-0.000061
1352	1.3442e+02	-13.8157	-35.316863	0.000264	2.635643	0.892980	-0.000105
1353	1.3452e+02	-13.8590	-35.413755	0.000243	2.432901	0.824289	-0.000097
1354	1.3462e+02	-13.9071	-35.437978	0.000061	0.608225	0.206072	-0.000024
1355	1.3472e+02	-13.9392	-35.522757	0.000213	2.128789	0.721253	-0.000085
1356	1.3482e+02	-13.9777	-35.615611	0.000233	2.331530	0.789944	-0.000093
1357	1.3492e+02	-14.0274	-35.692317	0.000193	1.926047	0.652562	-0.000077
1358	1.3502e+02	-14.0547	-35.797283	0.000264	2.635643	0.892980	-0.000105
1359	1.3512e+02	-14.0916	-35.837654	0.000101	1.013709	0.343454	-0.000041
1360	1.3522e+02	-14.1349	-35.978954	0.000355	3.547981	1.202088	-0.000142
1361	1.3532e+02	-14.1702	-36.071808	0.000233	2.331530	0.789944	-0.000093
1362	1.3542e+02	-14.2167	-36.205033	0.000335	3.345239	1.133398	-0.000134
1363	1.3552e+02	-14.2504	-36.305962	0.000253	2.534272	0.858635	-0.000101
1364	1.3562e+02	-14.2953	-36.406890	0.000253	2.534272	0.858635	-0.000101
1365	1.3572e+02	-14.3370	-36.483596	0.000193	1.926047	0.652562	-0.000077
1366	1.3582e+02	-14.3819	-36.588561	0.000264	2.635643	0.892980	-0.000105
1367	1.3592e+02	-14.4172	-36.653155	0.000162	1.621934	0.549526	-0.000065
1368	1.3602e+02	-14.4541	-36.758121	0.000264	2.635643	0.892980	-0.000105
1369	1.3612e+02	-14.4910	-36.838864	0.000203	2.027418	0.686908	-0.000081
1370	1.3622e+02	-14.5343	-36.943829	0.000264	2.635643	0.892980	-0.000105
1371	1.3631e+02	-14.5777	-37.020535	0.000193	1.926047	0.652562	-0.000077
1372	1.3641e+02	-14.6146	-37.125500	0.000264	2.635643	0.892980	-0.000105
1373	1.3651e+02	-14.6579	-37.105315	-0.000051	-0.506854	-0.171727	0.000020
1374	1.3661e+02	-14.7060	-37.242577	0.000345	3.446610	1.167743	-0.000138
1375	1.3671e+02	-14.7509	-37.303134	0.000152	1.520563	0.515181	-0.000061
1376	1.3681e+02	-14.7734	-37.408100	0.000264	2.635643	0.892980	-0.000105
1377	1.3691e+02	-14.8199	-37.517102	0.000274	2.737014	0.927325	-0.000110
1378	1.3701e+02	-14.8552	-37.605919	0.000223	2.230159	0.755598	-0.000089
1379	1.3711e+02	-14.8937	-37.710885	0.000264	2.635643	0.892980	-0.000105
1380	1.3721e+02	-14.9402	-37.795665	0.000213	2.128789	0.721253	-0.000085
1381	1.3731e+02	-14.9691	-37.936965	0.000355	3.547981	1.202088	-0.000142
1382	1.3741e+02	-15.0220	-37.985410	0.000122	1.216451	0.412145	-0.000049
1383	1.3751e+02	-15.0605	-38.098450	0.000284	2.838385	0.961671	-0.000114
1384	1.3761e+02	-15.0974	-38.199378	0.000253	2.534272	0.858635	-0.000101
1385	1.3771e+02	-15.1375	-38.263973	0.000162	1.621934	0.549526	-0.000065
1386	1.3781e+02	-15.1712	-38.372975	0.000274	2.737014	0.927325	-0.000110
1387	1.3791e+02	-15.2113	-38.502164	0.000324	3.243868	1.099052	-0.000130
1388	1.3801e+02	-15.2595	-38.542535	0.000101	1.013709	0.343454	-0.000041
1389	1.3811e+02	-15.2964	-38.667686	0.000314	3.142497	1.064707	-0.000126
1390	1.3821e+02	-15.3365	-38.699983	0.000081	0.810967	0.274763	-0.000032
1391	1.3831e+02	-15.3846	-38.784763	0.000213	2.128789	0.721253	-0.000085
1392	1.3840e+02	-15.4199	-38.877617	0.000233	2.331530	0.789944	-0.000093
1393	1.3850e+02	-15.4504	-38.970471	0.000233	2.331530	0.789944	-0.000093
1394	1.3860e+02	-15.4969	-39.018917	0.000122	1.216451	0.412145	-0.000049
1395	1.3870e+02	-15.5354	-39.127920	0.000274	2.737014	0.927325	-0.000110
1396	1.3880e+02	-15.5691	-39.257108	0.000324	3.243868	1.099052	-0.000130
1397	1.3890e+02	-15.6108	-39.422630	0.000416	4.156206	1.408161	-0.000166
1398	1.3900e+02	-15.6605	-39.454928	0.000081	0.810967	0.274763	-0.000032
1399	1.3910e+02	-15.6878	-39.535670	0.000203	2.027418	0.686908	-0.000081
1400	1.3920e+02	-15.7359	-39.644673	0.000274	2.737014	0.927325	-0.000110
1401	1.3930e+02	-15.7712	-39.749638	0.000264	2.635643	0.892980	-0.000105
1402	1.3940e+02	-15.8065	-39.802121	0.000132	1.317821	0.446490	-0.000053
1403	1.3950e+02	-15.8594	-39.943421	0.000355	3.547981	1.202088	-0.000142
1404	1.3960e+02	-15.8899	-40.003978	0.000152	1.520563	0.515181	-0.000061
1405	1.3970e+02	-15.9300	-40.100869	0.000243	2.432901	0.824289	-0.000097
1406	1.3980e+02	-15.9685	-40.209872	0.000274	2.737014	0.927325	-0.000110
1407	1.3990e+02	-16.0102	-40.246206	0.000091	0.912338	0.309108	-0.000037
1408	1.4000e+02	-16.0487	-40.379432	0.000335	3.345239	1.133398	-0.000134
1409	1.4010e+02	-16.0905	-40.415766	0.000091	0.912338	0.309108	-0.000037
1410	1.4020e+02	-16.1241	-40.573214	0.000395	3.953464	1.339470	-0.000158
1411	1.4029e+02	-16.1771	-40.569177	-0.000010	-0.101371	-0.034345	0.000004
1412	1.4039e+02	-16.2092	-40.702403	0.000335	3.345239	1.133398	-0.000134
1413	1.4049e+02	-16.2509	-40.815442	0.000284	2.838385	0.961671	-0.000114
1414	1.4059e+02	-16.2798	-40.896185	0.000203	2.027418	0.686908	-0.000081
1415	1.4069e+02	-16.3263	-41.013262	0.000294	2.939756	0.996016	-0.000118
1416	1.4079e+02	-16.3712	-41.077856	0.000162	1.621934	0.549526	-0.000065
1417	1.4089e+02	-16.4081	-41.190896	0.000284	2.838385	0.961671	-0.000114
1418	1.4099e+02	-16.4482	-41.295861	0.000264	2.635643	0.892980	-0.000105
1419	1.4109e+02	-16.4979	-41.380641	0.000213	2.128789	0.721253	-0.000085
1420	1.4119e+02	-16.5380	-41.509830	0.000324	3.243868	1.099052	-0.000130
1421	1.4129e+02	-16.5701	-41.542127	0.000081	0.810967	0.274763	-0.000032
1422	1.4139e+02	-16.6022	-41.667278	0.000314	3.142497	1.064707	-0.000126
1423	1.4149e+02	-16.6551	-41.752058	0.000213	2.128789	0.721253	-0.000085
1424	1.4159e+02	-16.6904	-41.812615	0.000152	1.520563	0.515181	-0.000061
1425	1.4169e+02	-16.7338	-41.913543	0.000253	2.534272	0.858635	-0.000101
1426	1.4179e+02	-16.7803	-41.986212	0.000182	1.824676	0.618217	-0.000073
1427	1.4189e+02	-16.8011	-42.058880	0.000182	1.824676	0.618217	-0.000073
1428	1.4199e+02	-16.8525	-42.143660	0.000213	2.128789	0.721253	-0.000085
1429	1.4209e+02	-16.8894	-42.240551	0.000243	2.432901	0.824289	-0.000097
1430	1.4219e+02	-16.9295	-42.313220	0.000182	1.824676	0.618217	-0.000073
1431	1.4228e+02	-16.9599	-42.462594	0.000375	3.750723	1.270779	-0.000150
1432	1.4238e+02	-17.0033	-42.571596	0.000274	2.737014	0.927325	-0.000110
1433	1.4248e+02	-17.0514	-42.636191	0.000162	1.621934	0.549526	-0.000065
1434	1.4258e+02	-17.0835	-42.729045	0.000233	2.331530	0.789944	-0.000093
1435	1.4268e+02	-17.1268	-42.842084	0.000284	2.838385	0.961671	-0.000114
1436	1.4278e+02	-17.1653	-42.914753	0.000182	1.824676	0.618217	-0.000073
1437	1.4288e+02	-17.2022	-43.019718	0.000264	2.635643	0.892980	-0.000105
1438	1.4298e+02	-17.2407	-43.108535	0.000223	2.230159	0.755598	-0.000089
1439	1.4308e+02	-17.2888	-43.213501	0.000264	2.635643	0.892980	-0.000105
1440	1.4318e+02	-17.3305	-43.261947	0.000122	1.216451	0.412145	-0.000049
1441	1.4328e+02	-17.3706	-43.374986	0.000284	2.838385	0.961671	-0.000114
1442	1.4338e+02	-17.4075	-43.451692	0.000193	1.926047	0.652562	-0.000077
1443	1.4348e+02	-17.4380	-43.544546	0.000233	2.331530	0.789944	-0.000093
1444	1.4358e+02	-17.4861	-43.633363	0.000223	2.230159	0.755598	-0.000089
1445	1.4368e+02	-17.5262	-43.645474	0.000030	0.304113	0.103036	-0.000012
1446	1.4378e+02	-17.5615	-43.754477	0.000274	2.737014	0.927325	-0.000110
1447	1.4388e+02	-17.6049	-43.851368	0.000243	2.432901	0.824289	-0.000097
1448	1.4398e+02	-17.6514	-43.976520	0.000314	3.142497	1.064707	-0.000126
1449	1.4408e+02	-17.6835	-44.000742	0.000061	0.608225	0.206072	-0.000024
1450	1.4418e+02	-17.7171	-44.142042	0.000355	3.547981	1.202088	-0.000142
1451	1.4428e+02	-17.7653	-44.226822	0.000213	2.128789	0.721253	-0.000085
1452	1.4437e+02	-17.8038	-44.315639	0.000223	2.230159	0.755598	-0.000089
1453	1.4447e+02	-17.8423	-44.396382	0.000203	2.027418	0.686908	-0.000081
1454	1.4457e+02	-17.8728	-44.489236	0.000233	2.331530	0.789944	-0.000093
1455	1.4467e+02	-17.9321	-44.598238	0.000274	2.737014	0.927325	-0.000110
1456	1.4477e+02	-17.9738	-44.695130	0.000243	2.432901	0.824289	-0.000097
1457	1.4487e+02	-17.9995	-44.751650	0.000142	1.419192	0.480835	-0.000057
1458	1.4497e+02	-18.0492	-44.840467	0.000223	2.230159	0.755598	-0.000089
1459	1.4507e+02	-18.0861	-44.905061	0.000162	1.621934	0.549526	-0.000065
1460	1.4517e+02	-18.1214	-45.014063	0.000274	2.737014	0.927325	-0.000110
1461	1.4527e+02	-18.1599	-45.082695	0.000172	1.723305	0.583872	-0.000069
1462	1.4537e+02	-18.1968	-45.187660	0.000264	2.635643	0.892980	-0.000105
1463	1.4547e+02	-18.2449	-45.219957	0.000081	0.810967	0.274763	-0.000032
1464	1.4557e+02	-18.2947	-45.316849	0.000243	2.432901	0.824289	-0.000097
1465	1.4567e+02	-18.3155	-45.425851	0.000274	2.737014	0.927325	-0.000110
1466	1.4577e+02	-18.3588	-45.522743	0.000243	2.432901	0.824289	-0.000097
1467	1.4587e+02	-18.3989	-45.647894	0.000314	3.142497	1.064707	-0.000126
1468	1.4597e+02	-18.4519	-45.688265	0.000101	1.013709	0.343454	-0.000041
1469	1.4607e+02	-18.4840	-45.805342	0.000294	2.939756	0.996016	-0.000118
1470	1.4617e+02	-18.5225	-45.890122	0.000213	2.128789	0.721253	-0.000085
1471	1.4626e+02	-18.5626	-46.023347	0.000335	3.345239	1.133398	-0.000134
1472	1.4636e+02	-18.6043	-46.087942	0.000162	1.621934	0.549526	-0.000065
1473	1.4646e+02	-18.6428	-46.132350	0.000112	1.115080	0.377799	-0.000045
1474	1.4656e+02	-18.6845	-46.265576	0.000335	3.345239	1.133398	-0.000134
1475	1.4666e+02	-18.7230	-46.366504	0.000253	2.534272	0.858635	-0.000101
1476	1.4676e+02	-18.7615	-46.459358	0.000233	2.331530	0.789944	-0.000093
1477	1.4686e+02	-18.7984	-46.507804	0.000122	1.216451	0.412145	-0.000049
1478	1.4696e+02	-18.8433	-46.600658	0.000233	2.331530	0.789944	-0.000093
1479	1.4706e+02	-18.8979	-46.657178	0.000142	1.419192	0.480835	-0.000057
1480	1.4716e+02	-18.9187	-46.794440	0.000345	3.446610	1.167743	-0.000138
1481	1.4726e+02	-18.9620	-46.830775	0.000091	0.912338	0.309108	-0.000037
1482	1.4736e+02	-18.9989	-46.911517	0.000203	2.027418	0.686908	-0.000081
1483	1.4746e+02	-19.0326	-47.020520	0.000274	2.737014	0.927325	-0.000110
1484	1.4756e+02	-19.0888	-47.129523	0.000274	2.737014	0.927325	-0.000110
1485	1.4766e+02	-19.1176	-47.206228	0.000193	1.926047	0.652562	-0.000077
1486	1.4776e+02	-19.1529	-47.303119	0.000243	2.432901	0.824289	-0.000097
1487	1.4786e+02	-19.1979	-47.424234	0.000304	3.041126	1.030362	-0.000122
1488	1.4796e+02	-19.2412	-47.480753	0.000142	1.419192	0.480835	-0.000057
1489	1.4806e+02	-19.2765	-47.561496	0.000203	2.027418	0.686908	-0.000081
1490	1.4816e+02	-19.3182	-47.650313	0.000223	2.230159	0.755598	-0.000089
1491	1.4825e+02	-19.3535	-47.751242	0.000253	2.534272	0.858635	-0.000101
1492	1.4835e+02	-19.4000	-47.852170	0.000253	2.534272	0.858635	-0.000101
1493	1.4845e+02	-19.4401	-47.957135	0.000264	2.635643	0.892980	-0.000105
1494	1.4855e+02	-19.4850	-48.029804	0.000182	1.824676	0.618217	-0.000073
1495	1.4865e+02	-19.5267	-48.098435	0.000172	1.723305	0.583872	-0.000069
1496	1.4875e+02	-19.5588	-48.219549	0.000304	3.041126	1.030362	-0.000122
1497	1.4885e+02	-19.6005	-48.292218	0.000182	1.824676	0.618217	-0.000073
1498	1.4895e+02	-19.6390	-48.389109	0.000243	2.432901	0.824289	-0.000097
1499	1.4905e+02	-19.6711	-48.425443	0.000091	0.912338	0.309108	-0.000037
1500	1.4915e+02	-19.7080	-48.550594	0.000314	3.142497	1.064707	-0.000126
1501	1.4925e+02	-19.7577	-48.643449	0.000233	2.331530	0.789944	-0.000093
1502	1.4935e+02	-19.7946	-48.760525	0.000294	2.939756	0.996016	-0.000118
1503	1.4945e+02	-19.8267	-48.821082	0.000152	1.520563	0.515181	-0.000061
1504	1.4955e+02	-19.8780	-48.897788	0.000193	1.926047	0.652562	-0.000077
1505	1.4965e+02	-19.9133	-49.026976	0.000324	3.243868	1.099052	-0.000130
1506	1.4975e+02	-19.9599	-49.119831	0.000233	2.331530	0.789944	-0.000093
1507	1.4985e+02	-19.9903	-49.236907	0.000294	2.939756	0.996016	-0.000118
1508	1.4995e+02	-19.9438	-49.123868	0.000284	2.838385	0.961671	0.000114
1509	1.5005e+02	-19.9069	-49.087533	0.000091	0.912338	0.309108	0.000037
1510	1.5015e+02	-19.8797	-49.039088	0.000122	1.216451	0.412145	0.000049
1511	1.5025e+02	-19.8395	-48.970457	0.000172	1.723305	0.583872	0.000069
1512	1.5034e+02	-19.7818	-48.913937	0.000142	1.419192	0.480835	0.000057
1513	1.5044e+02	-19.7625	-48.841268	0.000182	1.824676	0.618217	0.000073
1514	1.5054e+02	-19.7208	-48.804934	0.000091	0.912338	0.309108	0.000037
1515	1.5064e+02	-19.6791	-48.736303	0.000172	1.723305	0.583872	0.000069
1516	1.5074e+02	-19.6342	-48.671708	0.000162	1.621934	0.549526	0.000065
1517	1.5084e+02	-19.5989	-48.607114	0.000162	1.621934	0.549526	0.000065
1518	1.5094e+02	-19.5508	-48.574817	0.000081	0.810967	0.274763	0.000032
1519	1.5104e+02	-19.5251	-48.477926	0.000243	2.432901	0.824289	0.000097
1520	1.5114e+02	-19.4674	-48.405257	0.000182	1.824676	0.618217	0.000073
1521	1.5124e+02	-19.4353	-48.372960	0.000081	0.810967	0.274763	0.000032
1522	1.5134e+02	-19.3984	-48.255883	0.000294	2.939756	0.996016	0.000118
1523	1.5144e+02	-19.3535	-48.191289	0.000162	1.621934	0.549526	0.000065
1524	1.5154e+02	-19.3214	-48.154955	0.000091	0.912338	0.309108	0.000037
1525	1.5164e+02	-19.2765	-48.058064	0.000243	2.432901	0.824289	0.000097
1526	1.5174e+02	-19.2428	-48.005581	0.000132	1.317821	0.446490	0.000053
1527	1.5184e+02	-19.2027	-47.916764	0.000223	2.230159	0.755598	0.000089
1528	1.5194e+02	-19.1594	-47.892541	0.000061	0.608225	0.206072	0.000024
1529	1.5204e+02	-19.1225	-47.779501	0.000284	2.838385	0.961671	0.000114
1530	1.5214e+02	-19.0856	-47.718944	0.000152	1.520563	0.515181	0.000061
1531	1.5224e+02	-19.0374	-47.678573	0.000101	1.013709	0.343454	0.000041
1532	1.5233e+02	-19.0053	-47.577645	0.000253	2.534272	0.858635	0.000101
1533	1.5243e+02	-18.9668	-47.525162	0.000132	1.317821	0.446490	0.000053
1534	1.5253e+02	-18.9235	-47.448456	0.000193	1.926047	0.652562	0.000077
1535	1.5263e+02	-18.8850	-47.412122	0.000091	0.912338	0.309108	0.000037
1536	1.5273e+02	-18.8337	-47.303119	0.000274	2.737014	0.927325	0.000110
1537	1.5283e+02	-18.7968	-47.222377	0.000203	2.027418	0.686908	0.000081
1538	1.5293e+02	-18.7567	-47.177968	0.000112	1.115080	0.377799	0.000045
1539	1.5303e+02	-18.7278	-47.077040	0.000253	2.534272	0.858635	0.000101
1540	1.5313e+02	-18.6813	-47.032631	0.000112	1.115080	0.377799	0.000045
1541	1.5323e+02	-18.6380	-46.947851	0.000213	2.128789	0.721253	0.000085
1542	1.5333e+02	-18.6043	-46.854997	0.000233	2.331530	0.789944	0.000093
1543	1.5343e+02	-18.5674	-46.810589	0.000112	1.115080	0.377799	0.000045
1544	1.5353e+02	-18.5241	-46.737920	0.000182	1.824676	0.618217	0.000073
1545	1.5363e+02	-18.4759	-46.649103	0.000223	2.230159	0.755598	0.000089
1546	1.5373e+02	-18.4471	-46.612769	0.000091	0.912338	0.309108	0.000037
1547	1.5383e+02	-18.4070	-46.491655	0.000304	3.041126	1.030362	0.000122
1548	1.5393e+02	-18.3749	-46.423024	0.000172	1.723305	0.583872	0.000069
1549	1.5403e+02	-18.3268	-46.326133	0.000243	2.432901	0.824289	0.000097
1550	1.5413e+02	-18.2850	-46.297873	0.000071	0.709596	0.240418	0.000028
1551	1.5422e+02	-18.2433	-46.245390	0.000132	1.317821	0.446490	0.000053
1552	1.5432e+02	-18.2096	-46.164647	0.000203	2.027418	0.686908	0.000081
1553	1.5442e+02	-18.1647	-46.108127	0.000142	1.419192	0.480835	0.000057
1554	1.5452e+02	-18.1182	-46.031422	0.000193	1.926047	0.652562	0.000077
1555	1.5462e+02	-18.0829	-45.954716	0.000193	1.926047	0.652562	0.000077
1556	1.5472e+02	-18.0476	-45.878011	0.000193	1.926047	0.652562	0.000077
1557	1.5482e+02	-18.0059	-45.833602	0.000112	1.115080	0.377799	0.000045
1558	1.5492e+02	-17.9642	-45.712488	0.000304	3.041126	1.030362	0.000122
1559	1.5502e+02	-17.9209	-45.651931	0.000152	1.520563	0.515181	0.000061
1560	1.5512e+02	-17.8776	-45.546965	0.000264	2.635643	0.892980	0.000105
1561	1.5522e+02	-17.8471	-45.478334	0.000172	1.723305	0.583872	0.000069
1562	1.5532e+02	-17.8022	-45.401629	0.000193	1.926047	0.652562	0.000077
1563	1.5542e+02	-17.7701	-45.337034	0.000162	1.621934	0.549526	0.000065
1564	1.5552e+02	-17.7252	-45.316849	0.000051	0.506854	0.171727	0.000020
1565	1.5562e+02	-17.6867	-45.199772	0.000294	2.939756	0.996016	0.000118
1566	1.5572e+02	-17.6401	-45.102880	0.000243	2.432901	0.824289	0.000097
1567	1.5582e+02	-17.6065	-45.018101	0.000213	2.128789	0.721253	0.000085
1568	1.5592e+02	-17.5712	-44.957544	0.000152	1.520563	0.515181	0.000061
1569	1.5602e+02	-17.5214	-44.921209	0.000091	0.912338	0.309108	0.000037
1570	1.5612e+02	-17.4877	-44.864689	0.000142	1.419192	0.480835	0.000057
1571	1.5622e+02	-17.4492	-44.812207	0.000132	1.317821	0.446490	0.000053
1572	1.5631e+02	-17.4091	-44.703204	0.000274	2.737014	0.927325	0.000110
1573	1.5641e+02	-17.3690	-44.638610	0.000162	1.621934	0.549526	0.000065
1574	1.5651e+02	-17.3273	-44.529607	0.000274	2.737014	0.927325	0.000110
1575	1.5661e+02	-17.2856	-44.477124	0.000132	1.317821	0.446490	0.000053
1576	1.5671e+02	-17.2423	-44.356010	0.000304	3.041126	1.030362	0.000122
1577	1.5681e+02	-17.2022	-44.347936	0.000020	0.202742	0.068691	0.000008
1578	1.5691e+02	-17.1653	-44.202599	0.000365	3.649352	1.236434	0.000146
1579	1.5701e+02	-17.1220	-44.178376	0.000061	0.608225	0.206072	0.000024
1580	1.5711e+02	-17.0899	-44.061299	0.000294	2.939756	0.996016	0.000118
1581	1.5721e+02	-17.0530	-44.020928	0.000101	1.013709	0.343454	0.000041
1582	1.5731e+02	-17.0129	-43.928074	0.000233	2.331530	0.789944	0.000093
1583	1.5741e+02	-16.9664	-43.875591	0.000132	1.317821	0.446490	0.000053
1584	1.5751e+02	-16.9311	-43.835220	0.000101	1.013709	0.343454	0.000041
1585	1.5761e+02	-16.8942	-43.730254	0.000264	2.635643	0.892980	0.000105
1586	1.5771e+02	-16.8428	-43.657586	0.000182	1.824676	0.618217	0.000073
1587	1.5781e+02	-16.8043	-43.601066	0.000142	1.419192	0.480835	0.000057
1588	1.5791e+02	-16.7739	-43.528398	0.000182	1.824676	0.618217	0.000073
1589	1.5801e+02	-16.7289	-43.492063	0.000091	0.912338	0.309108	0.000037
1590	1.5811e+02	-16.6888	-43.374986	0.000294	2.939756	0.996016	0.000118
1591	1.5821e+02	-16.6439	-43.346726	0.000071	0.709596	0.240418	0.000028
1592	1.5830e+02	-16.6038	-43.233687	0.000284	2.838385	0.961671	0.000114
1593	1.5840e+02	-16.5749	-43.112573	0.000304	3.041126	1.030362	0.000122
1594	1.5850e+02	-16.5220	-43.068164	0.000112	1.115080	0.377799	0.000045
1595	1.5860e+02	-16.4979	-42.938976	0.000324	3.243868	1.099052	0.000130
1596	1.5870e+02	-16.4546	-42.906679	0.000081	0.810967	0.274763	0.000032
1597	1.5880e+02	-16.4097	-42.801713	0.000264	2.635643	0.892980	0.000105
1598	1.5890e+02	-16.3680	-42.692710	0.000274	2.737014	0.927325	0.000110
1599	1.5900e+02	-16.3263	-42.668488	0.000061	0.608225	0.206072	0.000024
1600	1.5910e+02	-16.3006	-42.587745	0.000203	2.027418	0.686908	0.000081
1601	1.5920e+02	-16.2525	-42.523151	0.000162	1.621934	0.549526	0.000065
1602	1.5930e+02	-16.2172	-42.402037	0.000304	3.041126	1.030362	0.000122
1603	1.5940e+02	-16.1610	-42.341480	0.000152	1.520563	0.515181	0.000061
1604	1.5950e+02	-16.1322	-42.280923	0.000152	1.520563	0.515181	0.000061
1605	1.5960e+02	-16.0889	-42.179994	0.000253	2.534272	0.858635	0.000101
1606	1.5970e+02	-16.0407	-42.143660	0.000091	0.912338	0.309108	0.000037
1607	1.5980e+02	-16.0070	-42.066954	0.000193	1.926047	0.652562	0.000077
1608	1.5990e+02	-15.9685	-41.970063	0.000243	2.432901	0.824289	0.000097
1609	1.6000e+02	-15.9332	-41.877209	0.000233	2.331530	0.789944	0.000093
1610	1.6010e+02	-15.8851	-41.776281	0.000253	2.534272	0.858635	0.000101
1611	1.6019e+02	-15.8562	-41.683426	0.000233	2.331530	0.789944	0.000093
1612	1.6029e+02	-15.8161	-41.570387	0.000284	2.838385	0.961671	0.000114
1613	1.6039e+02	-15.7744	-41.534052	0.000091	0.912338	0.309108	0.000037
1614	1.6049e+02	-15.7311	-41.412938	0.000304	3.041126	1.030362	0.000122
1615	1.6059e+02	-15.6926	-41.388716	0.000061	0.608225	0.206072	0.000024
1616	1.6069e+02	-15.6509	-41.303936	0.000213	2.128789	0.721253	0.000085
1617	1.6079e+02	-15.6156	-41.186859	0.000294	2.939756	0.996016	0.000118
1618	1.6089e+02	-15.5723	-41.134376	0.000132	1.317821	0.446490	0.000053
1619	1.6099e+02	-15.5354	-41.029411	0.000264	2.635643	0.892980	0.000105
1620	1.6109e+02	-15.4953	-40.960779	0.000172	1.723305	0.583872	0.000069
1621	1.6119e+02	-15.4552	-40.888111	0.000182	1.824676	0.618217	0.000073
1622	1.6129e+02	-15.4231	-40.783145	0.000264	2.635643	0.892980	0.000105
1623	1.6139e+02	-15.3702	-40.738737	0.000112	1.115080	0.377799	0.000045
1624	1.6149e+02	-15.3268	-40.670105	0.000172	1.723305	0.583872	0.000069
1625	1.6159e+02	-15.2980	-40.573214	0.000243	2.432901	0.824289	0.000097
1626	1.6169e+02	-15.2466	-40.508620	0.000162	1.621934	0.549526	0.000065
1627	1.6179e+02	-15.2113	-40.452100	0.000142	1.419192	0.480835	0.000057
1628	1.6189e+02	-15.1744	-40.339060	0.000284	2.838385	0.961671	0.000114
1629	1.6199e+02	-15.1391	-40.221983	0.000294	2.939756	0.996016	0.000118
1630	1.6209e+02	-15.0878	-40.161426	0.000152	1.520563	0.515181	0.000061
1631	1.6219e+02	-15.0621	-40.016089	0.000365	3.649352	1.236434	0.000146
1632	1.6228e+02	-15.0140	-39.959570	0.000142	1.419192	0.480835	0.000057
1633	1.6238e+02	-14.9755	-39.846530	0.000284	2.838385	0.961671	0.000114
1634	1.6248e+02	-14.9370	-39.773861	0.000182	1.824676	0.618217	0.000073
1635	1.6258e+02	-14.9001	-39.685044	0.000223	2.230159	0.755598	0.000089
1636	1.6268e+02	-14.8552	-39.640636	0.000112	1.115080	0.377799	0.000045
1637	1.6278e+02	-14.8135	-39.511447	0.000324	3.243868	1.099052	0.000130
1638	1.6288e+02	-14.7814	-39.442816	0.000172	1.723305	0.583872	0.000069
1639	1.6298e+02	-14.7285	-39.370148	0.000182	1.824676	0.618217	0.000073
1640	1.6308e+02	-14.7028	-39.261145	0.000274	2.737014	0.927325	0.000110
1641	1.6318e+02	-14.6482	-39.224811	0.000091	0.912338	0.309108	0.000037
1642	1.6328e+02	-14.6114	-39.152142	0.000182	1.824676	0.618217	0.000073
1643	1.6338e+02	-14.5616	-39.075437	0.000193	1.926047	0.652562	0.000077
1644	1.6348e+02	-14.5360	-38.958360	0.000294	2.939756	0.996016	0.000118
1645	1.6358e+02	-14.4958	-38.885691	0.000182	1.824676	0.618217	0.000073
1646	1.6368e+02	-14.4638	-38.780726	0.000264	2.635643	0.892980	0.000105
1647	1.6378e+02	-14.4237	-38.716132	0.000162	1.621934	0.549526	0.000065
1648	1.6388e+02	-14.3739	-38.619240	0.000243	2.432901	0.824289	0.000097
1649	1.6398e+02	-14.3450	-38.558683	0.000152	1.520563	0.515181	0.000061
1650	1.6408e+02	-14.3001	-38.449681	0.000274	2.737014	0.927325	0.000110
1651	1.6418e+02	-14.2616	-38.356827	0.000233	2.331530	0.789944	0.000093
1652	1.6427e+02	-14.2199	-38.247824	0.000274	2.737014	0.927325	0.000110
1653	1.6437e+02	-14.1846	-38.183230	0.000162	1.621934	0.549526	0.000065
1654	1.6447e+02	-14.1525	-38.094413	0.000223	2.230159	0.755598	0.000089
1655	1.6457e+02	-14.0980	-37.977336	0.000294	2.939756	0.996016	0.000118
1656	1.6467e+02	-14.0643	-37.920816	0.000142	1.419192	0.480835	0.000057
1657	1.6477e+02	-14.0210	-37.836036	0.000213	2.128789	0.721253	0.000085
1658	1.6487e+02	-13.9745	-37.771442	0.000162	1.621934	0.549526	0.000065
1659	1.6497e+02	-13.9408	-37.650328	0.000304	3.041126	1.030362	0.000122
1660	1.6507e+02	-13.8975	-37.618031	0.000081	0.810967	0.274763	0.000032
1661	1.6517e+02	-13.8493	-37.517102	0.000253	2.534272	0.858635	0.000101
1662	1.6527e+02	-13.8140	-37.468657	0.000122	1.216451	0.412145	0.000049
1663	1.6537e+02	-13.7772	-37.335431	0.000335	3.345239	1.133398	0.000134
1664	1.6547e+02	-13.7386	-37.226429	0.000274	2.737014	0.927325	0.000110
1665	1.6557e+02	-13.7001	-37.133575	0.000233	2.331530	0.789944	0.000093
1666	1.6567e+02	-13.6697	-37.085129	0.000122	1.216451	0.412145	0.000049
1667	1.6577e+02	-13.6247	-36.964015	0.000304	3.041126	1.030362	0.000122
1668	1.6587e+02	-13.5750	-36.830789	0.000335	3.345239	1.133398	0.000134
1669	1.6597e+02	-13.5445	-36.721787	0.000274	2.737014	0.927325	0.000110
1670	1.6607e+02	-13.4980	-36.665267	0.000142	1.419192	0.480835	0.000057
1671	1.6616e+02	-13.4659	-36.584524	0.000203	2.027418	0.686908	0.000081
1672	1.6626e+02	-13.4258	-36.479559	0.000264	2.635643	0.892980	0.000105
1673	1.6636e+02	-13.3841	-36.374593	0.000264	2.635643	0.892980	0.000105
1674	1.6646e+02	-13.3360	-36.330185	0.000112	1.115080	0.377799	0.000045
1675	1.6656e+02	-13.3023	-36.221182	0.000274	2.737014	0.927325	0.000110
1676	1.6666e+02	-13.2670	-36.124291	0.000243	2.432901	0.824289	0.000097
1677	1.6676e+02	-13.2237	-36.087956	0.000091	0.912338	0.309108	0.000037
1678	1.6686e+02	-13.1756	-36.035474	0.000132	1.317821	0.446490	0.000053
1679	1.6696e+02	-13.1435	-35.930508	0.000264	2.635643	0.892980	0.000105
1680	1.6706e+02	-13.1066	-35.861877	0.000172	1.723305	0.583872	0.000069
1681	1.6716e+02	-13.0633	-35.764986	0.000243	2.432901	0.824289	0.000097
1682	1.6726e+02	-13.0232	-35.631760	0.000335	3.345239	1.133398	0.000134
1683	1.6736e+02	-12.9847	-35.555054	0.000193	1.926047	0.652562	0.000077
1684	1.6746e+02	-12.9430	-35.429903	0.000314	3.142497	1.064707	0.000126
1685	1.6756e+02	-12.9109	-35.349161	0.000203	2.027418	0.686908	0.000081
1686	1.6766e+02	-12.8676	-35.280529	0.000172	1.723305	0.583872	0.000069
1687	1.6776e+02	-12.8307	-35.171527	0.000274	2.737014	0.927325	0.000110
1688	1.6786e+02	-12.7889	-35.086747	0.000213	2.128789	0.721253	0.000085
1689	1.6796e+02	-12.7440	-34.993893	0.000233	2.331530	0.789944	0.000093
1690	1.6806e+02	-12.7007	-34.897001	0.000243	2.432901	0.824289	0.000097
1691	1.6816e+02	-12.6686	-34.828370	0.000172	1.723305	0.583872	0.000069
1692	1.6825e+02	-12.6285	-34.808184	0.000051	0.506854	0.171727	0.000020
1693	1.6835e+02	-12.5788	-34.670922	0.000345	3.446610	1.167743	0.000138
1694	1.6845e+02	-12.5387	-34.598253	0.000182	1.824676	0.618217	0.000073
1695	1.6855e+02	-12.5050	-34.505399	0.000233	2.331530	0.789944	0.000093
1696	1.6865e+02	-12.4617	-34.444842	0.000152	1.520563	0.515181	0.000061
1697	1.6875e+02	-12.4264	-34.396396	0.000122	1.216451	0.412145	0.000049
1698	1.6885e+02	-12.3783	-34.299505	0.000243	2.432901	0.824289	0.000097
1699	1.6895e+02	-12.3462	-34.218763	0.000203	2.027418	0.686908	0.000081
1700	1.6905e+02	-12.3045	-34.113797	0.000264	2.635643	0.892980	0.000105
1701	1.6915e+02	-12.2660	-33.992683	0.000304	3.041126	1.030362	0.000122
1702	1.6925e+02	-12.2275	-33.899829	0.000233	2.331530	0.789944	0.000093
1703	1.6935e+02	-12.1906	-33.774678	0.000314	3.142497	1.064707	0.000126
1704	1.6945e+02	-12.1489	-33.734306	0.000101	1.013709	0.343454	0.000041
1705	1.6955e+02	-12.1152	-33.653564	0.000203	2.027418	0.686908	0.000081
1706	1.6965e+02	-12.0654	-33.540524	0.000284	2.838385	0.961671	0.000114
1707	1.6975e+02	-12.0317	-33.435558	0.000264	2.635643	0.892980	0.000105
1708	1.6985e+02	-11.9868	-33.330593	0.000264	2.635643	0.892980	0.000105
1709	1.6995e+02	-11.9467	-33.241776	0.000223	2.230159	0.755598	0.000089
1710	1.7005e+02	-11.9178	-33.205441	0.000091	0.912338	0.309108	0.000037
1711	1.7015e+02	-11.8649	-33.144884	0.000152	1.520563	0.515181	0.000061
1712	1.7024e+02	-11.8248	-33.027807	0.000294	2.939756	0.996016	0.000118
1713	1.7034e+02	-11.7927	-32.938990	0.000223	2.230159	0.755598	0.000089
1714	1.7044e+02	-11.7462	-32.862285	0.000193	1.926047	0.652562	0.000077
1715	1.7054e+02	-11.7125	-32.838062	0.000061	0.608225	0.206072	0.000024
1716	1.7064e+02	-11.6628	-32.720985	0.000294	2.939756	0.996016	0.000118
1717	1.7074e+02	-11.6243	-32.656391	0.000162	1.621934	0.549526	0.000065
1718	1.7084e+02	-11.5890	-32.559500	0.000243	2.432901	0.824289	0.000097
1719	1.7094e+02	-11.5457	-32.430311	0.000324	3.243868	1.099052	0.000130
1720	1.7104e+02	-11.5120	-32.345532	0.000213	2.128789	0.721253	0.000085
1721	1.7114e+02	-11.4751	-32.224417	0.000304	3.041126	1.030362	0.000122
1722	1.7124e+02	-11.4286	-32.180009	0.000112	1.115080	0.377799	0.000045
1723	1.7134e+02	-11.3933	-32.083118	0.000243	2.432901	0.824289	0.000097
1724	1.7144e+02	-11.3419	-32.002375	0.000203	2.027418	0.686908	0.000081
1725	1.7154e+02	-11.3130	-31.913558	0.000223	2.230159	0.755598	0.000089
1726	1.7164e+02	-11.2778	-31.808592	0.000264	2.635643	0.892980	0.000105
1727	1.7174e+02	-11.2393	-31.727850	0.000203	2.027418	0.686908	0.000081
1728	1.7184e+02	-11.1959	-31.659218	0.000172	1.723305	0.583872	0.000069
1729	1.7194e+02	-11.1590	-31.554253	0.000264	2.635643	0.892980	0.000105
1730	1.7204e+02	-11.1125	-31.473510	0.000203	2.027418	0.686908	0.000081
1731	1.7213e+02	-11.0692	-31.368545	0.000264	2.635643	0.892980	0.000105
1732	1.7223e+02	-11.0227	-31.307988	0.000152	1.520563	0.515181	0.000061
1733	1.7233e+02	-10.9890	-31.198985	0.000274	2.737014	0.927325	0.000110
1734	1.7243e+02	-10.9489	-31.150539	0.000122	1.216451	0.412145	0.000049
1735	1.7253e+02	-10.9184	-31.114205	0.000091	0.912338	0.309108	0.000037
1736	1.7263e+02	-10.8671	-30.972905	0.000355	3.547981	1.202088	0.000142
1737	1.7273e+02	-10.8382	-30.863903	0.000274	2.737014	0.927325	0.000110
1738	1.7283e+02	-10.7869	-30.754900	0.000274	2.737014	0.927325	0.000110
1739	1.7293e+02	-10.7500	-30.698380	0.000142	1.419192	0.480835	0.000057
1740	1.7303e+02	-10.7050	-30.585340	0.000284	2.838385	0.961671	0.000114
1741	1.7313e+02	-10.6810	-30.512672	0.000182	1.824676	0.618217	0.000073
1742	1.7323e+02	-10.6409	-30.415781	0.000243	2.432901	0.824289	0.000097
1743	1.7333e+02	-10.5911	-30.335038	0.000203	2.027418	0.686908	0.000081
1744	1.7343e+02	-10.5575	-30.226035	0.000274	2.737014	0.927325	0.000110
1745	1.7353e+02	-10.5093	-30.137218	0.000223	2.230159	0.755598	0.000089
1746	1.7363e+02	-10.4772	-30.104921	0.000081	0.810967	0.274763	0.000032
1747	1.7373e+02	-10.4323	-29.955547	0.000375	3.750723	1.270779	0.000150
1748	1.7383e+02	-10.3986	-29.890953	0.000162	1.621934	0.549526	0.000065
1749	1.7393e+02	-10.3489	-29.806173	0.000213	2.128789	0.721253	0.000085
1750	1.7403e+02	-10.3152	-29.757728	0.000122	1.216451	0.412145	0.000049
1751	1.7413e+02	-10.2703	-29.628539	0.000324	3.243868	1.099052	0.000130
1752	1.7422e+02	-10.2334	-29.612391	0.000041	0.405484	0.137382	0.000016
1753	1.7432e+02	-10.1917	-29.503388	0.000274	2.737014	0.927325	0.000110
1754	1.7442e+02	-10.1532	-29.410534	0.000233	2.331530	0.789944	0.000093
1755	1.7452e+02	-10.1147	-29.297494	0.000284	2.838385	0.961671	0.000114
1756	1.7462e+02	-10.0714	-29.220788	0.000193	1.926047	0.652562	0.000077
1757	1.7472e+02	-10.0377	-29.083526	0.000345	3.446610	1.167743	0.000138
1758	1.7482e+02	-9.9944	-28.990672	0.000233	2.331530	0.789944	0.000093
1759	1.7492e+02	-9.9527	-28.930115	0.000152	1.520563	0.515181	0.000061
1760	1.7502e+02	-9.9142	-28.869558	0.000152	1.520563	0.515181	0.000061
1761	1.7512e+02	-9.8837	-28.784778	0.000213	2.128789	0.721253	0.000085
1762	1.7522e+02	-9.8307	-28.667701	0.000294	2.939756	0.996016	0.000118
1763	1.7532e+02	-9.7954	-28.554661	0.000284	2.838385	0.961671	0.000114
1764	1.7542e+02	-9.7650	-28.494104	0.000152	1.520563	0.515181	0.000061
1765	1.7552e+02	-9.7120	-28.377027	0.000294	2.939756	0.996016	0.000118
1766	1.7562e+02	-9.6767	-28.300322	0.000193	1.926047	0.652562	0.000077
1767	1.7572e+02	-9.6446	-28.231690	0.000172	1.723305	0.583872	0.000069
1768	1.7582e+02	-9.5885	-28.146910	0.000213	2.128789	0.721253	0.000085
1769	1.7592e+02	-9.5612	-28.078279	0.000172	1.723305	0.583872	0.000069
1770	1.7602e+02	-9.5099	-28.009648	0.000172	1.723305	0.583872	0.000069
1771	1.7612e+02	-9.4762	-27.888534	0.000304	3.041126	1.030362	0.000122
1772	1.7621e+02	-9.4345	-27.823940	0.000162	1.621934	0.549526	0.000065
1773	1.7631e+02	-9.4024	-27.678603	0.000365	3.649352	1.236434	0.000146
1774	1.7641e+02	-9.3575	-27.589786	0.000223	2.230159	0.755598	0.000089
1775	1.7651e+02	-9.3190	-27.472709	0.000294	2.939756	0.996016	0.000118
1776	1.7661e+02	-9.2869	-27.375817	0.000243	2.432901	0.824289	0.000097
1777	1.7671e+02	-9.2420	-27.287000	0.000223	2.230159	0.755598	0.000089
1778	1.7681e+02	-9.2035	-27.182035	0.000264	2.635643	0.892980	0.000105
1779	1.7691e+02	-9.1554	-27.125515	0.000142	1.419192	0.480835	0.000057
1780	1.7701e+02	-9.1169	-27.024587	0.000253	2.534272	0.858635	0.000101
1781	1.7711e+02	-9.0880	-26.911547	0.000284	2.838385	0.961671	0.000114
1782	1.7721e+02	-9.0415	-26.838878	0.000182	1.824676	0.618217	0.000073
1783	1.7731e+02	-9.0094	-26.758136	0.000203	2.027418	0.686908	0.000081
1784	1.7741e+02	-8.9548	-26.649133	0.000274	2.737014	0.927325	0.000110
1785	1.7751e+02	-8.9179	-26.548205	0.000253	2.534272	0.858635	0.000101
1786	1.7761e+02	-8.8842	-26.463425	0.000213	2.128789	0.721253	0.000085
1787	1.7771e+02	-8.8329	-26.443239	0.000051	0.506854	0.171727	0.000020
1788	1.7781e+02	-8.7992	-26.301939	0.000355	3.547981	1.202088	0.000142
1789	1.7791e+02	-8.7623	-26.237345	0.000162	1.621934	0.549526	0.000065
1790	1.7801e+02	-8.7270	-26.112194	0.000314	3.142497	1.064707	0.000126
1791	1.7810e+02	-8.6821	-25.991080	0.000304	3.041126	1.030362	0.000122
1792	1.7820e+02	-8.6356	-25.874003	0.000294	2.939756	0.996016	0.000118
1793	1.7830e+02	-8.6035	-25.765000	0.000274	2.737014	0.927325	0.000110
1794	1.7840e+02	-8.5618	-25.688295	0.000193	1.926047	0.652562	0.000077
1795	1.7850e+02	-8.5249	-25.607552	0.000203	2.027418	0.686908	0.000081
1796	1.7860e+02	-8.4800	-25.518735	0.000223	2.230159	0.755598	0.000089
1797	1.7870e+02	-8.4447	-25.442029	0.000193	1.926047	0.652562	0.000077
1798	1.7880e+02	-8.3998	-25.349175	0.000233	2.331530	0.789944	0.000093
1799	1.7890e+02	-8.3629	-25.228061	0.000304	3.041126	1.030362	0.000122
1800	1.7900e+02	-8.3276	-25.119059	0.000274	2.737014	0.927325	0.000110
1801	1.7910e+02	-8.2891	-25.006019	0.000284	2.838385	0.961671	0.000114
1802	1.7920e+02	-8.2490	-24.913165	0.000233	2.331530	0.789944	0.000093
1803	1.7930e+02	-8.2024	-24.844533	0.000172	1.723305	0.583872	0.000069
1804	1.7940e+02	-8.1607	-24.759753	0.000213	2.128789	0.721253	0.000085
1805	1.7950e+02	-8.1254	-24.674974	0.000213	2.128789	0.721253	0.000085
1806	1.7960e+02	-8.0869	-24.561934	0.000284	2.838385	0.961671	0.000114
1807	1.7970e+02	-8.0549	-24.485228	0.000193	1.926047	0.652562	0.000077
1808	1.7980e+02	-7.9939	-24.396411	0.000223	2.230159	0.755598	0.000089
1809	1.7990e+02	-7.9682	-24.243000	0.000385	3.852093	1.305125	0.000154
1810	1.8000e+02	-7.9249	-24.162257	0.000203	2.027418	0.686908	0.000081
1811	1.8009e+02	-7.8848	-24.053255	0.000274	2.737014	0.927325	0.000110
1812	1.8019e+02	-7.8351	-23.932141	0.000304	3.041126	1.030362	0.000122
1813	1.8029e+02	-7.8078	-23.859472	0.000182	1.824676	0.618217	0.000073
1814	1.8039e+02	-7.7597	-23.782767	0.000193	1.926047	0.652562	0.000077
1815	1.8049e+02	-7.7164	-23.685875	0.000243	2.432901	0.824289	0.000097
1816	1.8059e+02	-7.6827	-23.560724	0.000314	3.142497	1.064707	0.000126
1817	1.8069e+02	-7.6506	-23.504204	0.000142	1.419192	0.480835	0.000057
1818	1.8079e+02	-7.6057	-23.350793	0.000385	3.852093	1.305125	0.000154
1819	1.8089e+02	-7.5688	-23.286199	0.000162	1.621934	0.549526	0.000065
1820	1.8099e+02	-7.5239	-23.169122	0.000294	2.939756	0.996016	0.000118
1821	1.8109e+02	-7.4805	-23.084342	0.000213	2.128789	0.721253	0.000085
1822	1.8119e+02	-7.4404	-23.048008	0.000091	0.912338	0.309108	0.000037
1823	1.8129e+02	-7.4067	-22.967265	0.000203	2.027418	0.686908	0.000081
1824	1.8139e+02	-7.3618	-22.854225	0.000284	2.838385	0.961671	0.000114
1825	1.8149e+02	-7.3265	-22.741186	0.000284	2.838385	0.961671	0.000114
1826	1.8159e+02	-7.2832	-22.672554	0.000172	1.723305	0.583872	0.000069
1827	1.8169e+02	-7.2399	-22.535292	0.000345	3.446610	1.167743	0.000138
1828	1.8179e+02	-7.2062	-22.389955	0.000365	3.649352	1.236434	0.000146
1829	1.8189e+02	-7.1709	-22.297101	0.000233	2.331530	0.789944	0.000093
1830	1.8199e+02	-7.1276	-22.196172	0.000253	2.534272	0.858635	0.000101
1831	1.8209e+02	-7.0987	-22.095244	0.000253	2.534272	0.858635	0.000101
1832	1.8218e+02	-7.0474	-21.990278	0.000264	2.635643	0.892980	0.000105
1833	1.8228e+02	-7.0121	-21.877239	0.000284	2.838385	0.961671	0.000114
1834	1.8238e+02	-6.9672	-21.760162	0.000294	2.939756	0.996016	0.000118
1835	1.8248e+02	-6.9271	-21.663270	0.000243	2.432901	0.824289	0.000097
1836	1.8258e+02	-6.8950	-21.558305	0.000264	2.635643	0.892980	0.000105
1837	1.8268e+02	-6.8437	-21.473525	0.000213	2.128789	0.721253	0.000085
1838	1.8278e+02	-6.8100	-21.388745	0.000213	2.128789	0.721253	0.000085
1839	1.8288e+02	-6.7650	-21.316077	0.000182	1.824676	0.618217	0.000073
1840	1.8298e+02	-6.7249	-21.271668	0.000112	1.115080	0.377799	0.000045
1841	1.8308e+02	-6.6945	-21.106146	0.000416	4.156206	1.408161	0.000166
1842	1.8318e+02	-6.6415	-21.029440	0.000193	1.926047	0.652562	0.000077
1843	1.8328e+02	-6.5998	-20.944660	0.000213	2.128789	0.721253	0.000085
1844	1.8338e+02	-6.5645	-20.819509	0.000314	3.142497	1.064707	0.000126
1845	1.8348e+02	-6.5276	-20.754915	0.000162	1.621934	0.549526	0.000065
1846	1.8358e+02	-6.4859	-20.609578	0.000365	3.649352	1.236434	0.000146
1847	1.8368e+02	-6.4506	-20.480390	0.000324	3.243868	1.099052	0.000130
1848	1.8378e+02	-6.4121	-20.399647	0.000203	2.027418	0.686908	0.000081
1849	1.8388e+02	-6.3608	-20.274496	0.000314	3.142497	1.064707	0.000126
1850	1.8398e+02	-6.3287	-20.169530	0.000264	2.635643	0.892980	0.000105
1851	1.8407e+02	-6.2918	-20.088787	0.000203	2.027418	0.686908	0.000081
1852	1.8417e+02	-6.2629	-20.032268	0.000142	1.419192	0.480835	0.000057
1853	1.8427e+02	-6.2164	-19.850596	0.000456	4.561690	1.545542	0.000183
1854	1.8437e+02	-6.1795	-19.790039	0.000152	1.520563	0.515181	0.000061
1855	1.8447e+02	-6.1266	-19.697185	0.000233	2.331530	0.789944	0.000093
1856	1.8457e+02	-6.0865	-19.624517	0.000182	1.824676	0.618217	0.000073
1857	1.8467e+02	-6.0576	-19.580108	0.000112	1.115080	0.377799	0.000045
1858	1.8477e+02	-6.0143	-19.442846	0.000345	3.446610	1.167743	0.000138
1859	1.8487e+02	-5.9694	-19.358066	0.000213	2.128789	0.721253	0.000085
1860	1.8497e+02	-5.9228	-19.257137	0.000253	2.534272	0.858635	0.000101
1861	1.8507e+02	-5.8988	-19.176395	0.000203	2.027418	0.686908	0.000081
1862	1.8517e+02	-5.8571	-19.043169	0.000335	3.345239	1.133398	0.000134
1863	1.8527e+02	-5.8137	-18.966464	0.000193	1.926047	0.652562	0.000077
1864	1.8537e+02	-5.7817	-18.841312	0.000314	3.142497	1.064707	0.000126
1865	1.8547e+02	-5.7367	-18.728273	0.000284	2.838385	0.961671	0.000114
1866	1.8557e+02	-5.6998	-18.627344	0.000253	2.534272	0.858635	0.000101
1867	1.8567e+02	-5.6549	-18.522379	0.000264	2.635643	0.892980	0.000105
1868	1.8577e+02	-5.6084	-18.425488	0.000243	2.432901	0.824289	0.000097
1869	1.8587e+02	-5.5683	-18.356856	0.000172	1.723305	0.583872	0.000069
1870	1.8597e+02	-5.5410	-18.203445	0.000385	3.852093	1.305125	0.000154
1871	1.8606e+02	-5.4849	-18.130777	0.000182	1.824676	0.618217	0.000073
1872	1.8616e+02	-5.4544	-18.054071	0.000193	1.926047	0.652562	0.000077
1873	1.8626e+02	-5.4095	-17.961217	0.000233	2.331530	0.789944	0.000093
1874	1.8636e+02	-5.3790	-17.848177	0.000284	2.838385	0.961671	0.000114
1875	1.8646e+02	-5.3341	-17.783583	0.000162	1.621934	0.549526	0.000065
1876	1.8656e+02	-5.2988	-17.646320	0.000345	3.446610	1.167743	0.000138
1877	1.8666e+02	-5.2571	-17.597875	0.000122	1.216451	0.412145	0.000049
1878	1.8676e+02	-5.2154	-17.436389	0.000405	4.054835	1.373815	0.000162
1879	1.8686e+02	-5.1865	-17.387944	0.000122	1.216451	0.412145	0.000049
1880	1.8696e+02	-5.1351	-17.287015	0.000253	2.534272	0.858635	0.000101
1881	1.8706e+02	-5.0870	-17.194161	0.000233	2.331530	0.789944	0.000093
1882	1.8716e+02	-5.0517	-17.040750	0.000385	3.852093	1.305125	0.000154
1883	1.8726e+02	-5.0116	-16.968082	0.000182	1.824676	0.618217	0.000073
1884	1.8736e+02	-4.9763	-16.851005	0.000294	2.939756	0.996016	0.000118
1885	1.8746e+02	-4.9362	-16.729890	0.000304	3.041126	1.030362	0.000122
1886	1.8756e+02	-4.8881	-16.620888	0.000274	2.737014	0.927325	0.000110
1887	1.8766e+02	-4.8544	-16.540145	0.000203	2.027418	0.686908	0.000081
1888	1.8776e+02	-4.8207	-16.419031	0.000304	3.041126	1.030362	0.000122
1889	1.8786e+02	-4.7710	-16.334251	0.000213	2.128789	0.721253	0.000085
1890	1.8796e+02	-4.7421	-16.281768	0.000132	1.317821	0.446490	0.000053
1891	1.8806e+02	-4.7036	-16.237360	0.000112	1.115080	0.377799	0.000045
1892	1.8815e+02	-4.6619	-16.124320	0.000284	2.838385	0.961671	0.000114
1893	1.8825e+02	-4.6170	-16.011280	0.000284	2.838385	0.961671	0.000114
1894	1.8835e+02	-4.5801	-15.906315	0.000264	2.635643	0.892980	0.000105
1895	1.8845e+02	-4.5416	-15.853832	0.000132	1.317821	0.446490	0.000053
1896	1.8855e+02	-4.4983	-15.684272	0.000426	4.257577	1.442506	0.000170
1897	1.8865e+02	-4.4678	-15.603530	0.000203	2.027418	0.686908	0.000081
1898	1.8875e+02	-4.4116	-15.470304	0.000335	3.345239	1.133398	0.000134
1899	1.8885e+02	-4.3763	-15.373413	0.000243	2.432901	0.824289	0.000097
1900	1.8895e+02	-4.3362	-15.296707	0.000193	1.926047	0.652562	0.000077
1901	1.8905e+02	-4.3106	-15.163482	0.000335	3.345239	1.133398	0.000134
1902	1.8915e+02	-4.2576	-15.050442	0.000284	2.838385	0.961671	0.000114
1903	1.8925e+02	-4.2255	-14.969699	0.000203	2.027418	0.686908	0.000081
1904	1.8935e+02	-4.1951	-14.860697	0.000274	2.737014	0.927325	0.000110
1905	1.8945e+02	-4.1437	-14.751694	0.000274	2.737014	0.927325	0.000110
1906	1.8955e+02	-4.1020	-14.650766	0.000253	2.534272	0.858635	0.000101
1907	1.8965e+02	-4.0555	-14.614431	0.000091	0.912338	0.309108	0.000037
1908	1.8975e+02	-4.0170	-14.521577	0.000233	2.331530	0.789944	0.000093
1909	1.8985e+02	-3.9785	-14.400463	0.000304	3.041126	1.030362	0.000122
1910	1.8995e+02	-3.9448	-14.327795	0.000182	1.824676	0.618217	0.000073
1911	1.9004e+02	-3.9015	-14.210718	0.000294	2.939756	0.996016	0.000118
1912	1.9014e+02	-3.8566	-14.142086	0.000172	1.723305	0.583872	0.000069
1913	1.9024e+02	-3.8261	-14.016935	0.000314	3.142497	1.064707	0.000126
1914	1.9034e+02	-3.7812	-13.928118	0.000223	2.230159	0.755598	0.000089
1915	1.9044e+02	-3.7443	-13.807004	0.000304	3.041126	1.030362	0.000122
1916	1.9054e+02	-3.6929	-13.742410	0.000162	1.621934	0.549526	0.000065
1917	1.9064e+02	-3.6657	-13.625333	0.000294	2.939756	0.996016	0.000118
1918	1.9074e+02	-3.6208	-13.556702	0.000172	1.723305	0.583872	0.000069
1919	1.9084e+02	-3.5855	-13.366956	0.000476	4.764431	1.614233	0.000191
1920	1.9094e+02	-3.5389	-13.282177	0.000213	2.128789	0.721253	0.000085
1921	1.9104e+02	-3.5117	-13.173174	0.000274	2.737014	0.927325	0.000110
1922	1.9114e+02	-3.4619	-13.068208	0.000264	2.635643	0.892980	0.000105
1923	1.9124e+02	-3.4122	-12.975354	0.000233	2.331530	0.789944	0.000093
1924	1.9134e+02	-3.3930	-12.858277	0.000294	2.939756	0.996016	0.000118
1925	1.9144e+02	-3.3448	-12.809832	0.000122	1.216451	0.412145	0.000049
1926	1.9154e+02	-3.3047	-12.700829	0.000274	2.737014	0.927325	0.000110
1927	1.9164e+02	-3.2614	-12.660458	0.000101	1.013709	0.343454	0.000041
1928	1.9174e+02	-3.2149	-12.579715	0.000203	2.027418	0.686908	0.000081
1929	1.9184e+02	-3.1972	-12.482824	0.000243	2.432901	0.824289	0.000097
1930	1.9194e+02	-3.1459	-12.357672	0.000314	3.142497	1.064707	0.000126
1931	1.9203e+02	-3.1042	-12.272893	0.000213	2.128789	0.721253	0.000085
1932	1.9213e+02	-3.0721	-12.167927	0.000264	2.635643	0.892980	0.000105
1933	1.9223e+02	-3.0336	-12.006442	0.000405	4.054835	1.373815	0.000162
1934	1.9233e+02	-2.9871	-11.941848	0.000162	1.621934	0.549526	0.000065
1935	1.9243e+02	-2.9486	-11.844956	0.000243	2.432901	0.824289	0.000097
1936	1.9253e+02	-2.8972	-11.699619	0.000365	3.649352	1.236434	0.000146
1937	1.9263e+02	-2.8668	-11.586580	0.000284	2.838385	0.961671	0.000114
1938	1.9273e+02	-2.8283	-11.477577	0.000274	2.737014	0.927325	0.000110
1939	1.9283e+02	-2.8058	-11.376649	0.000253	2.534272	0.858635	0.000101
1940	1.9293e+02	-2.7481	-11.243423	0.000335	3.345239	1.133398	0.000134
1941	1.9303e+02	-2.7079	-11.154606	0.000223	2.230159	0.755598	0.000089
1942	1.9313e+02	-2.6743	-11.041566	0.000284	2.838385	0.961671	0.000114
1943	1.9323e+02	-2.6261	-10.964861	0.000193	1.926047	0.652562	0.000077
1944	1.9333e+02	-2.5780	-10.892192	0.000182	1.824676	0.618217	0.000073
1945	1.9343e+02	-2.5411	-10.787227	0.000264	2.635643	0.892980	0.000105
1946	1.9353e+02	-2.5058	-10.714558	0.000182	1.824676	0.618217	0.000073
1947	1.9363e+02	-2.4577	-10.621704	0.000233	2.331530	0.789944	0.000093
1948	1.9373e+02	-2.4304	-10.500590	0.000304	3.041126	1.030362	0.000122
1949	1.9383e+02	-2.3807	-10.427922	0.000182	1.824676	0.618217	0.000073
1950	1.9393e+02	-2.3486	-10.278548	0.000375	3.750723	1.270779	0.000150
1951	1.9403e+02	-2.3149	-10.177619	0.000253	2.534272	0.858635	0.000101
1952	1.9412e+02	-2.2796	-10.100914	0.000193	1.926047	0.652562	0.000077
1953	1.9422e+02	-2.2283	-9.991911	0.000274	2.737014	0.927325	0.000110
1954	1.9432e+02	-2.1834	-9.874834	0.000294	2.939756	0.996016	0.000118
1955	1.9442e+02	-2.1513	-9.802166	0.000182	1.824676	0.618217	0.000073
1956	1.9452e+02	-2.1096	-9.616457	0.000466	4.663061	1.579888	0.000187
1957	1.9462e+02	-2.0663	-9.503418	0.000284	2.838385	0.961671	0.000114
1958	1.9472e+02	-2.0342	-9.406526	0.000243	2.432901	0.824289	0.000097
1959	1.9482e+02	-1.9892	-9.289449	0.000294	2.939756	0.996016	0.000118
1960	1.9492e+02	-1.9443	-9.148150	0.000355	3.547981	1.202088	0.000142
1961	1.9502e+02	-1.9155	-9.063370	0.000213	2.128789	0.721253	0.000085
1962	1.9512e+02	-1.8705	-9.018961	0.000112	1.115080	0.377799	0.000045
1963	1.9522e+02	-1.8256	-8.869587	0.000375	3.750723	1.270779	0.000150
1964	1.9532e+02	-1.7887	-8.809030	0.000152	1.520563	0.515181	0.000061
1965	1.9542e+02	-1.7502	-8.704065	0.000264	2.635643	0.892980	0.000105
1966	1.9552e+02	-1.7085	-8.603136	0.000253	2.534272	0.858635	0.000101
1967	1.9562e+02	-1.6732	-8.506245	0.000243	2.432901	0.824289	0.000097
1968	1.9572e+02	-1.6219	-8.389168	0.000294	2.939756	0.996016	0.000118
1969	1.9582e+02	-1.5962	-8.284203	0.000264	2.635643	0.892980	0.000105
1970	1.9592e+02	-1.5529	-8.171163	0.000284	2.838385	0.961671	0.000114
1971	1.9601e+02	-1.5112	-8.078309	0.000233	2.331530	0.789944	0.000093
1972	1.9611e+02	-1.4775	-7.932972	0.000365	3.649352	1.236434	0.000146
1973	1.9621e+02	-1.4310	-7.856266	0.000193	1.926047	0.652562	0.000077
1974	1.9631e+02	-1.3828	-7.719004	0.000345	3.446610	1.167743	0.000138
1975	1.9641e+02	-1.3604	-7.605964	0.000284	2.838385	0.961671	0.000114
1976	1.9651e+02	-1.3171	-7.488887	0.000294	2.939756	0.996016	0.000118
1977	1.9661e+02	-1.2802	-7.371810	0.000294	2.939756	0.996016	0.000118
1978	1.9671e+02	-1.2337	-7.262807	0.000274	2.737014	0.927325	0.000110
1979	1.9681e+02	-1.1984	-7.198213	0.000162	1.621934	0.549526	0.000065
1980	1.9691e+02	-1.1438	-7.093247	0.000264	2.635643	0.892980	0.000105
1981	1.9701e+02	-1.1182	-6.996356	0.000243	2.432901	0.824289	0.000097
1982	1.9711e+02	-1.0636	-6.903502	0.000233	2.331530	0.789944	0.000093
1983	1.9721e+02	-1.0299	-6.737980	0.000416	4.156206	1.408161	0.000166
1984	1.9731e+02	-0.9946	-6.669348	0.000172	1.723305	0.583872	0.000069
1985	1.9741e+02	-0.9513	-6.584568	0.000213	2.128789	0.721253	0.000085
1986	1.9751e+02	-0.9112	-6.455380	0.000324	3.243868	1.099052	0.000130
1987	1.9761e+02	-0.8599	-6.374637	0.000203	2.027418	0.686908	0.000081
1988	1.9771e+02	-0.8390	-6.249486	0.000314	3.142497	1.064707	0.000126
1989	1.9781e+02	-0.7973	-6.136446	0.000284	2.838385	0.961671	0.000114
1990	1.9791e+02	-0.7476	-6.023407	0.000284	2.838385	0.961671	0.000114
1991	1.9800e+02	-0.7123	-5.938627	0.000213	2.128789	0.721253	0.000085
1992	1.9810e+02	-0.6770	-5.817513	0.000304	3.041126	1.030362	0.000122
1993	1.9820e+02	-0.6401	-5.680250	0.000345	3.446610	1.167743	0.000138
1994	1.9830e+02	-0.5936	-5.542987	0.000345	3.446610	1.167743	0.000138
1995	1.9840e+02	-0.5535	-5.438022	0.000264	2.635643	0.892980	0.000105
1996	1.9850e+02	-0.5182	-5.324982	0.000284	2.838385	0.961671	0.000114
1997	1.9860e+02	-0.4829	-5.232128	0.000233	2.331530	0.789944	0.000093
1998	1.9870e+02	-0.4315	-5.123125	0.000274	2.737014	0.927325	0.000110
1999	1.9880e+02	-0.3930	-5.002011	0.000304	3.041126	1.030362	0.000122
2000	1.9890e+02	-0.3497	-4.937417	0.000162	1.621934	0.549526	0.000065
2001	1.9900e+02	-0.3128	-4.836489	0.000253	2.534272	0.858635	0.000101
2002	1.9910e+02	-0.2759	-4.715375	0.000304	3.041126	1.030362	0.000122
2003	1.9920e+02	-0.2342	-4.606372	0.000274	2.737014	0.927325	0.000110
2004	1.9930e+02	-0.1925	-4.501406	0.000264	2.635643	0.892980	0.000105
2005	1.9940e+02	-0.1572	-4.416626	0.000213	2.128789	0.721253	0.000085
2006	1.9950e+02	-0.1251	-4.303587	0.000284	2.838385	0.961671	0.000114
2007	1.9960e+02	-0.0834	-4.170361	0.000335	3.345239	1.133398	0.000134
2008	1.9970e+02	-0.0353	-4.041173	0.000324	3.243868	1.099052	0.000130
2009	1.9980e+02	0.0080	-3.952356	0.000324	3.243868	1.099052	0.000089

Center data before PMax,+/-Pr and +/-Vc Calc.

PMax (uC/cm2):	4.92e+01
Pr (uC/cm2):	-8.85e-01
-Pr (uC/cm2):	-3.95e+00
PLoss (uC/cm2):	-1.46e+00
Vc:	9.87e-01
-Vc:	3.22e-01
C (Max-Eff) (nF):	2.46e-01
K (Eff):	8.34e+02
Vert. (+/-Pr) Shift (uC/cm2):	-2.42e+00
Horiz. Shift (+/-Vc):	6.54e-01
Offset (uC/cm2):	2.47e+00

A (Loop Area - uC/cm2·Volts):	2.44e-02



Hysteresis Version: 5.48.1 - Radiant Technologies, Inc., 1999 - 9/12/24

