»»»»»»»»»»»»»»»»»»»»»»»»»»»»»»»»»»»» Hysteresis ««««««««««««««««««««««««««««««««««««
»»»  Executed Version:	5.48.1
»»»  Vision Version:	5.48.4 (R)
»»»  Vision Compiled:	9/18/24
»»»  Driver Version:	5.47.0
»»»  Windows Version:	Windows 8 or 8.1
»»»  Processor Information:	x86 (AMD or Intel) - 32 Processors
»»»  Tester Name:	PMF21124-494 (100V)
»»»  Tester S/N:	PMF21124-494
»»»  Internal Amp Type:	100V RevK 270k
»»»  Internal Amp S/N:	iAB2-596/K     
»»»  Execution Count:	1
»»»»»»»»»»»»»»»»»»»»»»»»»»»»»»»»»»»»»»»»»»««««««««««««««««««««««««««««««««««««««««««

Stored:	6/16/2025 - 16:52:44
Configured:	06/16/25 02:13:38 PM
Executed:	06/16/25 04:51:55 PM

»»»»»»»»»»»»»»»»»»»»»»»»»»»»»»»»»»» Sample Info ««««««««««««««««««««««««««««««««««««
Sample Name:	
Lot Name:	
Wafer Name:	
Die Row/Column:	0/0
Capacitor Number:	0
Sample Area (cm2):	1.00e-04
Sample Thickness (microns):	3.00e-01

Amplifier:	Internal

»»»»»»»»»»»»»»»»»»»»»»»»»»»»»»»»»»» Tester Info «««««««««««««««««««««««««««««««««««
Tester Name:	PMF21124-494 (100V)
Tester Serial Number:	PMF21124-494
Return Signal Amp. Level:	0.19 [Index: 3]

»»»»»»»»»»»»»»»»»»»»»»»»»»»»»»»» Hysteresis Info ««««««««««««««««««««««««««««««««««
Task Name:	Hyst-4
Volts:	20.00
Field:	666.67 (kV/cm)
DCBias:	0.00
DCField:	0.00 (kV/cm)
Hysteresis Period (ms):	2.00e+02
Preset:	Enabled
Preset Delay (ms):	1.00e+03
Profile:	Standard Bipolar

»»»»»»»»»»»»»»»»»»»»»»»»»»»»»»»»»»»»»» Data «««««««««««««««««««««««««««««««««««««««
Points:	2009

Valid Data

Point	Time (ms)	Drive Voltage	Measured Polarization (uC/cm2)	Capacitance (uF)	Normalized Capacitance (uF/cm2)	Dielectric Constant	Instantaneous Current (mA)
   1	0.0000e+00	0.0000	-2.335483	0.000182	1.823944	0.617969	0.000073
   2	9.9500e-02	0.0353	-2.262815	0.000182	1.823944	0.617969	0.000073
   3	1.9900e-01	0.0770	-2.178035	0.000213	2.127935	0.720964	0.000085
   4	2.9850e-01	0.1091	-2.081143	0.000243	2.431925	0.823959	0.000097
   5	3.9800e-01	0.1492	-1.972141	0.000274	2.735916	0.926953	0.000110
   6	4.9750e-01	0.2021	-1.907547	0.000162	1.621284	0.549306	0.000065
   7	5.9700e-01	0.2310	-1.798544	0.000274	2.735916	0.926953	0.000110
   8	6.9650e-01	0.2759	-1.673393	0.000314	3.141237	1.064280	0.000126
   9	7.9600e-01	0.3016	-1.596687	0.000193	1.925274	0.652301	0.000077
  10	8.9550e-01	0.3497	-1.487685	0.000274	2.735916	0.926953	0.000110
  11	9.9500e-01	0.3946	-1.370608	0.000294	2.938577	0.995617	0.000118
  12	1.0945e+00	0.4299	-1.253531	0.000294	2.938577	0.995617	0.000118
  13	1.1940e+00	0.4765	-1.112231	0.000355	3.546558	1.201606	0.000142
  14	1.2935e+00	0.5182	-0.970931	0.000355	3.546558	1.201606	0.000142
  15	1.3930e+00	0.5519	-0.874040	0.000243	2.431925	0.823959	0.000097
  16	1.4925e+00	0.5936	-0.797334	0.000193	1.925274	0.652301	0.000077
  17	1.5920e+00	0.6273	-0.692369	0.000263	2.634586	0.892622	0.000105
  18	1.6915e+00	0.6770	-0.571255	0.000304	3.039907	1.029948	0.000122
  19	1.7910e+00	0.7075	-0.494549	0.000193	1.925274	0.652301	0.000077
  20	1.8905e+00	0.7540	-0.353249	0.000355	3.546558	1.201606	0.000142
  21	1.9900e+00	0.7941	-0.260395	0.000233	2.330595	0.789627	0.000093
  22	2.0895e+00	0.8294	-0.115058	0.000365	3.647888	1.235938	0.000146
  23	2.1890e+00	0.8823	-0.030279	0.000213	2.127935	0.720964	0.000085
  24	2.2885e+00	0.9048	0.042390	0.000182	1.823944	0.617969	0.000073
  25	2.3880e+00	0.9529	0.119096	0.000193	1.925274	0.652301	0.000077
  26	2.4875e+00	0.9962	0.187727	0.000172	1.722614	0.583637	0.000069
  27	2.5870e+00	1.0331	0.316915	0.000324	3.242567	1.098612	0.000130
  28	2.6865e+00	1.0764	0.425918	0.000274	2.735916	0.926953	0.000110
  29	2.7860e+00	1.1149	0.567218	0.000355	3.546558	1.201606	0.000142
  30	2.8855e+00	1.1550	0.708517	0.000355	3.546558	1.201606	0.000142
  31	2.9850e+00	1.1952	0.841743	0.000334	3.343897	1.132943	0.000134
  32	3.0845e+00	1.2208	0.922486	0.000203	2.026605	0.686632	0.000081
  33	3.1840e+00	1.2657	1.019377	0.000243	2.431925	0.823959	0.000097
  34	3.2835e+00	1.3091	1.120305	0.000253	2.533256	0.858290	0.000101
  35	3.3830e+00	1.3572	1.269679	0.000375	3.749218	1.270270	0.000150
  36	3.4825e+00	1.3877	1.354459	0.000213	2.127935	0.720964	0.000085
  37	3.5820e+00	1.4310	1.487685	0.000334	3.343897	1.132943	0.000134
  38	3.6815e+00	1.4599	1.568427	0.000203	2.026605	0.686632	0.000081
  39	3.7810e+00	1.5096	1.697616	0.000324	3.242567	1.098612	0.000130
  40	3.8805e+00	1.5481	1.774321	0.000193	1.925274	0.652301	0.000077
  41	3.9800e+00	1.5946	1.911584	0.000345	3.445228	1.167275	0.000138
  42	4.0795e+00	1.6315	1.976178	0.000162	1.621284	0.549306	0.000065
  43	4.1790e+00	1.6700	2.060958	0.000213	2.127935	0.720964	0.000085
  44	4.2785e+00	1.7037	2.182072	0.000304	3.039907	1.029948	0.000122
  45	4.3780e+00	1.7438	2.287037	0.000263	2.634586	0.892622	0.000105
  46	4.4775e+00	1.7919	2.375854	0.000223	2.229265	0.755295	0.000089
  47	4.5770e+00	1.8272	2.496968	0.000304	3.039907	1.029948	0.000122
  48	4.6765e+00	1.8689	2.614045	0.000294	2.938577	0.995617	0.000118
  49	4.7760e+00	1.9090	2.759382	0.000365	3.647888	1.235938	0.000146
  50	4.8755e+00	1.9524	2.876459	0.000294	2.938577	0.995617	0.000118
  51	4.9750e+00	1.9796	2.945091	0.000172	1.722614	0.583637	0.000069
  52	5.0745e+00	2.0213	3.090427	0.000365	3.647888	1.235938	0.000146
  53	5.1740e+00	2.0663	3.199430	0.000274	2.735916	0.926953	0.000110
  54	5.2735e+00	2.1031	3.324581	0.000314	3.141237	1.064280	0.000126
  55	5.3730e+00	2.1465	3.425510	0.000253	2.533256	0.858290	0.000101
  56	5.4725e+00	2.1866	3.514327	0.000223	2.229265	0.755295	0.000089
  57	5.5720e+00	2.2347	3.659664	0.000365	3.647888	1.235938	0.000146
  58	5.6715e+00	2.2748	3.728295	0.000172	1.722614	0.583637	0.000069
  59	5.7710e+00	2.3101	3.833260	0.000263	2.634586	0.892622	0.000105
  60	5.8705e+00	2.3566	3.926115	0.000233	2.330595	0.789627	0.000093
  61	5.9700e+00	2.3823	3.994746	0.000172	1.722614	0.583637	0.000069
  62	6.0695e+00	2.4272	4.132008	0.000345	3.445228	1.167275	0.000138
  63	6.1690e+00	2.4641	4.228900	0.000243	2.431925	0.823959	0.000097
  64	6.2685e+00	2.5138	4.341939	0.000284	2.837246	0.961285	0.000114
  65	6.3680e+00	2.5523	4.471128	0.000324	3.242567	1.098612	0.000130
  66	6.4675e+00	2.5908	4.580130	0.000274	2.735916	0.926953	0.000110
  67	6.5670e+00	2.6261	4.729505	0.000375	3.749218	1.270270	0.000150
  68	6.6665e+00	2.6727	4.850619	0.000304	3.039907	1.029948	0.000122
  69	6.7660e+00	2.7128	4.979807	0.000324	3.242567	1.098612	0.000130
  70	6.8655e+00	2.7497	5.044401	0.000162	1.621284	0.549306	0.000065
  71	6.9650e+00	2.7898	5.185701	0.000355	3.546558	1.201606	0.000142
  72	7.0645e+00	2.8251	5.290666	0.000263	2.634586	0.892622	0.000105
  73	7.1640e+00	2.8668	5.387558	0.000243	2.431925	0.823959	0.000097
  74	7.2635e+00	2.9021	5.500597	0.000284	2.837246	0.961285	0.000114
  75	7.3630e+00	2.9406	5.585377	0.000213	2.127935	0.720964	0.000085
  76	7.4625e+00	2.9855	5.682269	0.000243	2.431925	0.823959	0.000097
  77	7.5620e+00	3.0192	5.799345	0.000294	2.938577	0.995617	0.000118
  78	7.6615e+00	3.0657	5.900274	0.000253	2.533256	0.858290	0.000101
  79	7.7610e+00	3.1010	6.005239	0.000263	2.634586	0.892622	0.000105
  80	7.8605e+00	3.1475	6.061759	0.000142	1.418623	0.480643	0.000057
  81	7.9600e+00	3.1876	6.190948	0.000324	3.242567	1.098612	0.000130
  82	8.0595e+00	3.2149	6.372619	0.000456	4.559860	1.544922	0.000183
  83	8.1590e+00	3.2662	6.453361	0.000203	2.026605	0.686632	0.000081
  84	8.2585e+00	3.3031	6.578513	0.000314	3.141237	1.064280	0.000126
  85	8.3580e+00	3.3416	6.671367	0.000233	2.330595	0.789627	0.000093
  86	8.4575e+00	3.3817	6.808629	0.000345	3.445228	1.167275	0.000138
  87	8.5570e+00	3.4186	6.881298	0.000182	1.823944	0.617969	0.000073
  88	8.6565e+00	3.4635	7.030672	0.000375	3.749218	1.270270	0.000150
  89	8.7560e+00	3.5052	7.135637	0.000263	2.634586	0.892622	0.000105
  90	8.8555e+00	3.5421	7.244640	0.000274	2.735916	0.926953	0.000110
  91	8.9550e+00	3.5823	7.389977	0.000365	3.647888	1.235938	0.000146
  92	9.0545e+00	3.6175	7.434385	0.000111	1.114632	0.377648	0.000045
  93	9.1540e+00	3.6577	7.547425	0.000284	2.837246	0.961285	0.000114
  94	9.2535e+00	3.7026	7.688725	0.000355	3.546558	1.201606	0.000142
  95	9.3530e+00	3.7443	7.749282	0.000152	1.519953	0.514974	0.000061
  96	9.4525e+00	3.7796	7.797728	0.000122	1.215963	0.411979	0.000049
  97	9.5520e+00	3.8213	7.902693	0.000263	2.634586	0.892622	0.000105
  98	9.6515e+00	3.8582	8.043993	0.000355	3.546558	1.201606	0.000142
  99	9.7510e+00	3.9047	8.152996	0.000274	2.735916	0.926953	0.000110
 100	9.8505e+00	3.9528	8.213553	0.000152	1.519953	0.514974	0.000061
 101	9.9500e+00	3.9833	8.371001	0.000395	3.951879	1.338933	0.000158
 102	1.0050e+01	4.0170	8.500189	0.000324	3.242567	1.098612	0.000130
 103	1.0149e+01	4.0683	8.621303	0.000304	3.039907	1.029948	0.000122
 104	1.0248e+01	4.1084	8.750492	0.000324	3.242567	1.098612	0.000130
 105	1.0348e+01	4.1437	8.859494	0.000274	2.735916	0.926953	0.000110
 106	1.0447e+01	4.1758	8.988683	0.000324	3.242567	1.098612	0.000130
 107	1.0547e+01	4.2159	9.077500	0.000223	2.229265	0.755295	0.000089
 108	1.0646e+01	4.2592	9.146131	0.000172	1.722614	0.583637	0.000069
 109	1.0746e+01	4.2945	9.307616	0.000405	4.053209	1.373264	0.000162
 110	1.0845e+01	4.3411	9.400471	0.000233	2.330595	0.789627	0.000093
 111	1.0945e+01	4.3812	9.501399	0.000253	2.533256	0.858290	0.000101
 112	1.1044e+01	4.4148	9.610402	0.000274	2.735916	0.926953	0.000110
 113	1.1144e+01	4.4550	9.683070	0.000182	1.823944	0.617969	0.000073
 114	1.1243e+01	4.4983	9.751701	0.000172	1.722614	0.583637	0.000069
 115	1.1343e+01	4.5368	9.897038	0.000365	3.647888	1.235938	0.000146
 116	1.1443e+01	4.5753	10.022189	0.000314	3.141237	1.064280	0.000126
 117	1.1542e+01	4.6138	10.102932	0.000203	2.026605	0.686632	0.000081
 118	1.1642e+01	4.6651	10.195786	0.000233	2.330595	0.789627	0.000093
 119	1.1741e+01	4.6908	10.361309	0.000415	4.154539	1.407596	0.000166
 120	1.1841e+01	4.7405	10.470312	0.000274	2.735916	0.926953	0.000110
 121	1.1940e+01	4.7742	10.631797	0.000405	4.053209	1.373264	0.000162
 122	1.2040e+01	4.8127	10.740800	0.000274	2.735916	0.926953	0.000110
 123	1.2139e+01	4.8640	10.805394	0.000162	1.621284	0.549306	0.000065
 124	1.2239e+01	4.8961	10.922471	0.000294	2.938577	0.995617	0.000118
 125	1.2338e+01	4.9394	11.079919	0.000395	3.951879	1.338933	0.000158
 126	1.2438e+01	4.9731	11.164699	0.000213	2.127935	0.720964	0.000085
 127	1.2537e+01	5.0196	11.233330	0.000172	1.722614	0.583637	0.000069
 128	1.2636e+01	5.0630	11.334259	0.000253	2.533256	0.858290	0.000101
 129	1.2736e+01	5.0838	11.487670	0.000385	3.850549	1.304601	0.000154
 130	1.2835e+01	5.1351	11.572450	0.000213	2.127935	0.720964	0.000085
 131	1.2935e+01	5.1720	11.677415	0.000263	2.634586	0.892622	0.000105
 132	1.3034e+01	5.2234	11.762195	0.000213	2.127935	0.720964	0.000085
 133	1.3134e+01	5.2458	11.875235	0.000284	2.837246	0.961285	0.000114
 134	1.3233e+01	5.2988	11.947903	0.000182	1.823944	0.617969	0.000073
 135	1.3333e+01	5.3389	12.032683	0.000213	2.127935	0.720964	0.000085
 136	1.3432e+01	5.3790	12.153797	0.000304	3.039907	1.029948	0.000122
 137	1.3532e+01	5.4175	12.307208	0.000385	3.850549	1.304601	0.000154
 138	1.3632e+01	5.4512	12.404100	0.000243	2.431925	0.823959	0.000097
 139	1.3731e+01	5.4945	12.565585	0.000405	4.053209	1.373264	0.000162
 140	1.3831e+01	5.5330	12.682662	0.000294	2.938577	0.995617	0.000118
 141	1.3930e+01	5.5763	12.783590	0.000253	2.533256	0.858290	0.000101
 142	1.4030e+01	5.6180	12.904704	0.000304	3.039907	1.029948	0.000122
 143	1.4129e+01	5.6645	13.005633	0.000253	2.533256	0.858290	0.000101
 144	1.4229e+01	5.6822	13.094450	0.000223	2.229265	0.755295	0.000089
 145	1.4328e+01	5.7287	13.211527	0.000294	2.938577	0.995617	0.000118
 146	1.4428e+01	5.7624	13.356864	0.000365	3.647888	1.235938	0.000146
 147	1.4527e+01	5.8137	13.433569	0.000193	1.925274	0.652301	0.000077
 148	1.4627e+01	5.8538	13.538535	0.000263	2.634586	0.892622	0.000105
 149	1.4726e+01	5.8923	13.675797	0.000345	3.445228	1.167275	0.000138
 150	1.4825e+01	5.9405	13.691946	0.000041	0.405321	0.137326	0.000016
 151	1.4925e+01	5.9774	13.788837	0.000243	2.431925	0.823959	0.000097
 152	1.5024e+01	6.0111	13.942248	0.000385	3.850549	1.304601	0.000154
 153	1.5124e+01	6.0544	14.022991	0.000203	2.026605	0.686632	0.000081
 154	1.5223e+01	6.0929	14.140068	0.000294	2.938577	0.995617	0.000118
 155	1.5323e+01	6.1346	14.228885	0.000223	2.229265	0.755295	0.000089
 156	1.5422e+01	6.1731	14.378259	0.000375	3.749218	1.270270	0.000150
 157	1.5522e+01	6.2148	14.483224	0.000263	2.634586	0.892622	0.000105
 158	1.5621e+01	6.2453	14.644710	0.000405	4.053209	1.373264	0.000162
 159	1.5721e+01	6.2822	14.745638	0.000253	2.533256	0.858290	0.000101
 160	1.5820e+01	6.3271	14.858678	0.000284	2.837246	0.961285	0.000114
 161	1.5920e+01	6.3656	14.955569	0.000243	2.431925	0.823959	0.000097
 162	1.6020e+01	6.4169	15.060535	0.000263	2.634586	0.892622	0.000105
 163	1.6119e+01	6.4570	15.145315	0.000213	2.127935	0.720964	0.000085
 164	1.6218e+01	6.4875	15.270466	0.000314	3.141237	1.064280	0.000126
 165	1.6318e+01	6.5260	15.322949	0.000132	1.317293	0.446311	0.000053
 166	1.6418e+01	6.5725	15.464248	0.000355	3.546558	1.201606	0.000142
 167	1.6517e+01	6.6062	15.585363	0.000304	3.039907	1.029948	0.000122
 168	1.6616e+01	6.6463	15.678217	0.000233	2.330595	0.789627	0.000093
 169	1.6716e+01	6.6880	15.742811	0.000162	1.621284	0.549306	0.000065
 170	1.6816e+01	6.7249	15.847776	0.000263	2.634586	0.892622	0.000105
 171	1.6915e+01	6.7683	16.017336	0.000426	4.255870	1.441928	0.000170
 172	1.7015e+01	6.8244	16.057707	0.000101	1.013302	0.343316	0.000041
 173	1.7114e+01	6.8421	16.182859	0.000314	3.141237	1.064280	0.000126
 174	1.7213e+01	6.8934	16.344344	0.000405	4.053209	1.373264	0.000162
 175	1.7313e+01	6.9255	16.445272	0.000253	2.533256	0.858290	0.000101
 176	1.7413e+01	6.9720	16.630981	0.000466	4.661190	1.579254	0.000187
 177	1.7512e+01	7.0073	16.687501	0.000142	1.418623	0.480643	0.000057
 178	1.7611e+01	7.0458	16.812652	0.000314	3.141237	1.064280	0.000126
 179	1.7711e+01	7.0843	16.933766	0.000304	3.039907	1.029948	0.000122
 180	1.7811e+01	7.1196	17.042769	0.000274	2.735916	0.926953	0.000110
 181	1.7910e+01	7.1517	17.147734	0.000263	2.634586	0.892622	0.000105
 182	1.8009e+01	7.2062	17.321331	0.000436	4.357200	1.476259	0.000174
 183	1.8109e+01	7.2431	17.373814	0.000132	1.317293	0.446311	0.000053
 184	1.8209e+01	7.2832	17.486853	0.000284	2.837246	0.961285	0.000114
 185	1.8308e+01	7.3249	17.599893	0.000284	2.837246	0.961285	0.000114
 186	1.8407e+01	7.3650	17.700822	0.000253	2.533256	0.858290	0.000101
 187	1.8507e+01	7.4035	17.830010	0.000324	3.242567	1.098612	0.000130
 188	1.8607e+01	7.4549	17.926901	0.000243	2.431925	0.823959	0.000097
 189	1.8706e+01	7.4950	17.983421	0.000142	1.418623	0.480643	0.000057
 190	1.8805e+01	7.5206	18.084350	0.000253	2.533256	0.858290	0.000101
 191	1.8905e+01	7.5688	18.201426	0.000294	2.938577	0.995617	0.000118
 192	1.9005e+01	7.6009	18.326578	0.000314	3.141237	1.064280	0.000126
 193	1.9104e+01	7.6490	18.395209	0.000172	1.722614	0.583637	0.000069
 194	1.9203e+01	7.6827	18.548620	0.000385	3.850549	1.304601	0.000154
 195	1.9303e+01	7.7276	18.702031	0.000385	3.850549	1.304601	0.000154
 196	1.9402e+01	7.7709	18.778737	0.000193	1.925274	0.652301	0.000077
 197	1.9502e+01	7.8030	18.895814	0.000294	2.938577	0.995617	0.000118
 198	1.9602e+01	7.8399	18.992705	0.000243	2.431925	0.823959	0.000097
 199	1.9701e+01	7.8912	19.097671	0.000263	2.634586	0.892622	0.000105
 200	1.9800e+01	7.9185	19.247045	0.000375	3.749218	1.270270	0.000150
 201	1.9900e+01	7.9554	19.360084	0.000284	2.837246	0.961285	0.000114
 202	2.0000e+01	8.0019	19.465050	0.000263	2.634586	0.892622	0.000105
 203	2.0099e+01	8.0468	19.553867	0.000223	2.229265	0.755295	0.000089
 204	2.0198e+01	8.0789	19.634610	0.000203	2.026605	0.686632	0.000081
 205	2.0298e+01	8.1319	19.751687	0.000294	2.938577	0.995617	0.000118
 206	2.0398e+01	8.1623	19.929321	0.000446	4.458530	1.510591	0.000179
 207	2.0497e+01	8.2073	19.989878	0.000152	1.519953	0.514974	0.000061
 208	2.0596e+01	8.2458	20.058509	0.000172	1.722614	0.583637	0.000069
 209	2.0696e+01	8.2794	20.163474	0.000263	2.634586	0.892622	0.000105
 210	2.0796e+01	8.3244	20.292663	0.000324	3.242567	1.098612	0.000130
 211	2.0895e+01	8.3597	20.373406	0.000203	2.026605	0.686632	0.000081
 212	2.0994e+01	8.4078	20.559114	0.000466	4.661190	1.579254	0.000187
 213	2.1094e+01	8.4479	20.607559	0.000122	1.215963	0.411979	0.000049
 214	2.1194e+01	8.4752	20.760971	0.000385	3.850549	1.304601	0.000154
 215	2.1293e+01	8.5217	20.829602	0.000172	1.722614	0.583637	0.000069
 216	2.1392e+01	8.5714	20.974939	0.000365	3.647888	1.235938	0.000146
 217	2.1492e+01	8.6003	21.108164	0.000334	3.343897	1.132943	0.000134
 218	2.1591e+01	8.6452	21.196981	0.000223	2.229265	0.755295	0.000089
 219	2.1691e+01	8.6853	21.334244	0.000345	3.445228	1.167275	0.000138
 220	2.1791e+01	8.7286	21.398838	0.000162	1.621284	0.549306	0.000065
 221	2.1890e+01	8.7639	21.540138	0.000355	3.546558	1.201606	0.000142
 222	2.1989e+01	8.7944	21.624918	0.000213	2.127935	0.720964	0.000085
 223	2.2089e+01	8.8457	21.705660	0.000203	2.026605	0.686632	0.000081
 224	2.2189e+01	8.8810	21.822737	0.000294	2.938577	0.995617	0.000118
 225	2.2288e+01	8.9243	21.863109	0.000101	1.013302	0.343316	0.000041
 226	2.2387e+01	8.9628	21.992297	0.000324	3.242567	1.098612	0.000130
 227	2.2487e+01	8.9965	22.105337	0.000284	2.837246	0.961285	0.000114
 228	2.2587e+01	9.0431	22.190117	0.000213	2.127935	0.720964	0.000085
 229	2.2686e+01	9.0880	22.339491	0.000375	3.749218	1.270270	0.000150
 230	2.2785e+01	9.1265	22.456568	0.000294	2.938577	0.995617	0.000118
 231	2.2885e+01	9.1634	22.573644	0.000294	2.938577	0.995617	0.000118
 232	2.2985e+01	9.2003	22.698796	0.000314	3.141237	1.064280	0.000126
 233	2.3084e+01	9.2275	22.807798	0.000274	2.735916	0.926953	0.000110
 234	2.3183e+01	9.2789	22.896615	0.000223	2.229265	0.755295	0.000089
 235	2.3283e+01	9.3206	23.021767	0.000314	3.141237	1.064280	0.000126
 236	2.3383e+01	9.3591	23.159029	0.000345	3.445228	1.167275	0.000138
 237	2.3482e+01	9.3992	23.288218	0.000324	3.242567	1.098612	0.000130
 238	2.3581e+01	9.4393	23.352812	0.000162	1.621284	0.549306	0.000065
 239	2.3681e+01	9.4842	23.482000	0.000324	3.242567	1.098612	0.000130
 240	2.3780e+01	9.5115	23.546594	0.000162	1.621284	0.549306	0.000065
 241	2.3880e+01	9.5612	23.708080	0.000405	4.053209	1.373264	0.000162
 242	2.3980e+01	9.6061	23.796897	0.000223	2.229265	0.755295	0.000089
 243	2.4079e+01	9.6366	23.913974	0.000294	2.938577	0.995617	0.000118
 244	2.4178e+01	9.6896	23.954345	0.000101	1.013302	0.343316	0.000041
 245	2.4278e+01	9.7281	24.043162	0.000223	2.229265	0.755295	0.000089
 246	2.4378e+01	9.7634	24.172350	0.000324	3.242567	1.098612	0.000130
 247	2.4477e+01	9.7970	24.257130	0.000213	2.127935	0.720964	0.000085
 248	2.4576e+01	9.8372	24.426690	0.000426	4.255870	1.441928	0.000170
 249	2.4676e+01	9.8869	24.543767	0.000294	2.938577	0.995617	0.000118
 250	2.4776e+01	9.9142	24.689104	0.000365	3.647888	1.235938	0.000146
 251	2.4875e+01	9.9527	24.785995	0.000243	2.431925	0.823959	0.000097
 252	2.4974e+01	10.0040	24.907109	0.000304	3.039907	1.029948	0.000122
 253	2.5074e+01	10.0393	24.987852	0.000203	2.026605	0.686632	0.000081
 254	2.5174e+01	10.0778	25.088780	0.000253	2.533256	0.858290	0.000101
 255	2.5273e+01	10.1259	25.193746	0.000263	2.634586	0.892622	0.000105
 256	2.5372e+01	10.1660	25.294674	0.000253	2.533256	0.858290	0.000101
 257	2.5472e+01	10.1949	25.415788	0.000304	3.039907	1.029948	0.000122
 258	2.5572e+01	10.2430	25.504605	0.000223	2.229265	0.755295	0.000089
 259	2.5671e+01	10.2751	25.613608	0.000274	2.735916	0.926953	0.000110
 260	2.5770e+01	10.3136	25.730685	0.000294	2.938577	0.995617	0.000118
 261	2.5870e+01	10.3569	25.771056	0.000101	1.013302	0.343316	0.000041
 262	2.5970e+01	10.4002	25.876022	0.000263	2.634586	0.892622	0.000105
 263	2.6069e+01	10.4323	25.968876	0.000233	2.330595	0.789627	0.000093
 264	2.6169e+01	10.4788	26.098064	0.000324	3.242567	1.098612	0.000130
 265	2.6268e+01	10.5157	26.219178	0.000304	3.039907	1.029948	0.000122
 266	2.6367e+01	10.5607	26.303958	0.000213	2.127935	0.720964	0.000085
 267	2.6467e+01	10.5879	26.465443	0.000405	4.053209	1.373264	0.000162
 268	2.6567e+01	10.6296	26.566372	0.000253	2.533256	0.858290	0.000101
 269	2.6666e+01	10.6730	26.667300	0.000253	2.533256	0.858290	0.000101
 270	2.6765e+01	10.7099	26.756117	0.000223	2.229265	0.755295	0.000089
 271	2.6865e+01	10.7532	26.885305	0.000324	3.242567	1.098612	0.000130
 272	2.6965e+01	10.7997	26.978160	0.000233	2.330595	0.789627	0.000093
 273	2.7064e+01	10.8302	27.087162	0.000274	2.735916	0.926953	0.000110
 274	2.7163e+01	10.8703	27.196165	0.000274	2.735916	0.926953	0.000110
 275	2.7263e+01	10.9072	27.293056	0.000243	2.431925	0.823959	0.000097
 276	2.7363e+01	10.9489	27.389947	0.000243	2.431925	0.823959	0.000097
 277	2.7462e+01	10.9826	27.523173	0.000334	3.343897	1.132943	0.000134
 278	2.7561e+01	11.0307	27.628138	0.000263	2.634586	0.892622	0.000105
 279	2.7661e+01	11.0788	27.680621	0.000132	1.317293	0.446311	0.000053
 280	2.7761e+01	11.1157	27.817884	0.000345	3.445228	1.167275	0.000138
 281	2.7860e+01	11.1558	27.854218	0.000091	0.911972	0.308984	0.000037
 282	2.7959e+01	11.1943	27.995518	0.000355	3.546558	1.201606	0.000142
 283	2.8059e+01	11.2328	28.112595	0.000294	2.938577	0.995617	0.000118
 284	2.8159e+01	11.2745	28.237746	0.000314	3.141237	1.064280	0.000126
 285	2.8258e+01	11.3114	28.366934	0.000324	3.242567	1.098612	0.000130
 286	2.8358e+01	11.3532	28.492085	0.000314	3.141237	1.064280	0.000126
 287	2.8457e+01	11.3933	28.588977	0.000243	2.431925	0.823959	0.000097
 288	2.8556e+01	11.4270	28.693942	0.000263	2.634586	0.892622	0.000105
 289	2.8656e+01	11.4751	28.806982	0.000284	2.837246	0.961285	0.000114
 290	2.8756e+01	11.5104	28.940208	0.000334	3.343897	1.132943	0.000134
 291	2.8855e+01	11.5537	29.020950	0.000203	2.026605	0.686632	0.000081
 292	2.8954e+01	11.5906	29.077470	0.000142	1.418623	0.480643	0.000057
 293	2.9054e+01	11.6371	29.218770	0.000355	3.546558	1.201606	0.000142
 294	2.9154e+01	11.6772	29.319698	0.000253	2.533256	0.858290	0.000101
 295	2.9253e+01	11.7189	29.408515	0.000223	2.229265	0.755295	0.000089
 296	2.9352e+01	11.7478	29.529629	0.000304	3.039907	1.029948	0.000122
 297	2.9452e+01	11.7847	29.658818	0.000324	3.242567	1.098612	0.000130
 298	2.9552e+01	11.8184	29.687078	0.000071	0.709312	0.240321	0.000028
 299	2.9651e+01	11.8809	29.796080	0.000274	2.735916	0.926953	0.000110
 300	2.9750e+01	11.9098	29.901046	0.000263	2.634586	0.892622	0.000105
 301	2.9850e+01	11.9435	30.010049	0.000274	2.735916	0.926953	0.000110
 302	2.9950e+01	11.9868	30.110977	0.000253	2.533256	0.858290	0.000101
 303	3.0049e+01	12.0205	30.272462	0.000405	4.053209	1.373264	0.000162
 304	3.0148e+01	12.0735	30.389539	0.000294	2.938577	0.995617	0.000118
 305	3.0248e+01	12.1039	30.470282	0.000203	2.026605	0.686632	0.000081
 306	3.0348e+01	12.1521	30.591396	0.000304	3.039907	1.029948	0.000122
 307	3.0447e+01	12.1777	30.664064	0.000182	1.823944	0.617969	0.000073
 308	3.0547e+01	12.2226	30.805364	0.000355	3.546558	1.201606	0.000142
 309	3.0646e+01	12.2628	30.914367	0.000274	2.735916	0.926953	0.000110
 310	3.0745e+01	12.2997	31.043555	0.000324	3.242567	1.098612	0.000130
 311	3.0845e+01	12.3510	31.152558	0.000274	2.735916	0.926953	0.000110
 312	3.0945e+01	12.3847	31.217152	0.000162	1.621284	0.549306	0.000065
 313	3.1044e+01	12.4216	31.318080	0.000253	2.533256	0.858290	0.000101
 314	3.1143e+01	12.4601	31.406897	0.000223	2.229265	0.755295	0.000089
 315	3.1243e+01	12.5034	31.515900	0.000274	2.735916	0.926953	0.000110
 316	3.1343e+01	12.5467	31.616829	0.000253	2.533256	0.858290	0.000101
 317	3.1442e+01	12.5852	31.741980	0.000314	3.141237	1.064280	0.000126
 318	3.1541e+01	12.6285	31.770240	0.000071	0.709312	0.240321	0.000028
 319	3.1641e+01	12.6702	31.899428	0.000324	3.242567	1.098612	0.000130
 320	3.1741e+01	12.7087	32.004394	0.000263	2.634586	0.892622	0.000105
 321	3.1840e+01	12.7488	32.149730	0.000365	3.647888	1.235938	0.000146
 322	3.1939e+01	12.7873	32.254696	0.000263	2.634586	0.892622	0.000105
 323	3.2039e+01	12.8258	32.383884	0.000324	3.242567	1.098612	0.000130
 324	3.2139e+01	12.8659	32.480776	0.000243	2.431925	0.823959	0.000097
 325	3.2238e+01	12.9028	32.581704	0.000253	2.533256	0.858290	0.000101
 326	3.2337e+01	12.9413	32.718967	0.000345	3.445228	1.167275	0.000138
 327	3.2437e+01	12.9750	32.791635	0.000182	1.823944	0.617969	0.000073
 328	3.2536e+01	13.0119	32.872378	0.000203	2.026605	0.686632	0.000081
 329	3.2636e+01	13.0601	32.965232	0.000233	2.330595	0.789627	0.000093
 330	3.2736e+01	13.1066	33.106532	0.000355	3.546558	1.201606	0.000142
 331	3.2835e+01	13.1419	33.207460	0.000253	2.533256	0.858290	0.000101
 332	3.2934e+01	13.1772	33.312426	0.000263	2.634586	0.892622	0.000105
 333	3.3034e+01	13.2221	33.437577	0.000314	3.141237	1.064280	0.000126
 334	3.3133e+01	13.2558	33.530431	0.000233	2.330595	0.789627	0.000093
 335	3.3233e+01	13.3119	33.582914	0.000132	1.317293	0.446311	0.000053
 336	3.3333e+01	13.3376	33.667693	0.000213	2.127935	0.720964	0.000085
 337	3.3432e+01	13.3761	33.784770	0.000294	2.938577	0.995617	0.000118
 338	3.3532e+01	13.4194	33.881662	0.000243	2.431925	0.823959	0.000097
 339	3.3631e+01	13.4627	34.022961	0.000355	3.546558	1.201606	0.000142
 340	3.3730e+01	13.5108	34.136001	0.000284	2.837246	0.961285	0.000114
 341	3.3830e+01	13.5365	34.236930	0.000253	2.533256	0.858290	0.000101
 342	3.3929e+01	13.5782	34.370155	0.000334	3.343897	1.132943	0.000134
 343	3.4029e+01	13.6199	34.463009	0.000233	2.330595	0.789627	0.000093
 344	3.4129e+01	13.6552	34.559900	0.000243	2.431925	0.823959	0.000097
 345	3.4228e+01	13.6953	34.664866	0.000263	2.634586	0.892622	0.000105
 346	3.4328e+01	13.7386	34.826351	0.000405	4.053209	1.373264	0.000162
 347	3.4427e+01	13.7772	34.878834	0.000132	1.317293	0.446311	0.000053
 348	3.4526e+01	13.8269	34.975725	0.000243	2.431925	0.823959	0.000097
 349	3.4626e+01	13.8558	35.096840	0.000304	3.039907	1.029948	0.000122
 350	3.4725e+01	13.8959	35.230065	0.000334	3.343897	1.132943	0.000134
 351	3.4825e+01	13.9424	35.330993	0.000253	2.533256	0.858290	0.000101
 352	3.4925e+01	13.9777	35.415773	0.000213	2.127935	0.720964	0.000085
 353	3.5024e+01	14.0242	35.508627	0.000233	2.330595	0.789627	0.000093
 354	3.5123e+01	14.0739	35.633779	0.000314	3.141237	1.064280	0.000126
 355	3.5223e+01	14.1028	35.670113	0.000091	0.911972	0.308984	0.000037
 356	3.5322e+01	14.1365	35.775078	0.000263	2.634586	0.892622	0.000105
 357	3.5422e+01	14.1782	35.900230	0.000314	3.141237	1.064280	0.000126
 358	3.5522e+01	14.2119	36.057678	0.000395	3.951879	1.338933	0.000158
 359	3.5621e+01	14.2536	36.130346	0.000182	1.823944	0.617969	0.000073
 360	3.5721e+01	14.2953	36.271646	0.000355	3.546558	1.201606	0.000142
 361	3.5820e+01	14.3402	36.356426	0.000213	2.127935	0.720964	0.000085
 362	3.5919e+01	14.3707	36.481577	0.000314	3.141237	1.064280	0.000126
 363	3.6019e+01	14.4204	36.586543	0.000263	2.634586	0.892622	0.000105
 364	3.6118e+01	14.4622	36.671322	0.000213	2.127935	0.720964	0.000085
 365	3.6218e+01	14.5023	36.768214	0.000243	2.431925	0.823959	0.000097
 366	3.6318e+01	14.5376	36.889328	0.000304	3.039907	1.029948	0.000122
 367	3.6417e+01	14.5745	36.978145	0.000223	2.229265	0.755295	0.000089
 368	3.6517e+01	14.6178	37.099259	0.000304	3.039907	1.029948	0.000122
 369	3.6616e+01	14.6515	37.192113	0.000233	2.330595	0.789627	0.000093
 370	3.6715e+01	14.7012	37.349561	0.000395	3.951879	1.338933	0.000158
 371	3.6815e+01	14.7285	37.414155	0.000162	1.621284	0.549306	0.000065
 372	3.6914e+01	14.7718	37.486824	0.000182	1.823944	0.617969	0.000073
 373	3.7014e+01	14.8167	37.575641	0.000223	2.229265	0.755295	0.000089
 374	3.7114e+01	14.8552	37.704829	0.000324	3.242567	1.098612	0.000130
 375	3.7213e+01	14.8921	37.789609	0.000213	2.127935	0.720964	0.000085
 376	3.7313e+01	14.9354	37.862278	0.000182	1.823944	0.617969	0.000073
 377	3.7412e+01	14.9707	38.007614	0.000365	3.647888	1.235938	0.000146
 378	3.7511e+01	15.0172	38.140840	0.000334	3.343897	1.132943	0.000134
 379	3.7611e+01	15.0589	38.241768	0.000253	2.533256	0.858290	0.000101
 380	3.7711e+01	15.0974	38.326548	0.000213	2.127935	0.720964	0.000085
 381	3.7810e+01	15.1343	38.447662	0.000304	3.039907	1.029948	0.000122
 382	3.7910e+01	15.1696	38.580888	0.000334	3.343897	1.132943	0.000134
 383	3.8009e+01	15.2161	38.677779	0.000243	2.431925	0.823959	0.000097
 384	3.8108e+01	15.2450	38.774670	0.000243	2.431925	0.823959	0.000097
 385	3.8208e+01	15.2932	38.851376	0.000193	1.925274	0.652301	0.000077
 386	3.8307e+01	15.3349	39.000750	0.000375	3.749218	1.270270	0.000150
 387	3.8407e+01	15.3686	39.057270	0.000142	1.418623	0.480643	0.000057
 388	3.8507e+01	15.4183	39.214718	0.000395	3.951879	1.338933	0.000158
 389	3.8606e+01	15.4488	39.307572	0.000233	2.330595	0.789627	0.000093
 390	3.8706e+01	15.4969	39.376203	0.000172	1.722614	0.583637	0.000069
 391	3.8805e+01	15.5402	39.497317	0.000304	3.039907	1.029948	0.000122
 392	3.8904e+01	15.5867	39.553837	0.000142	1.418623	0.480643	0.000057
 393	3.9004e+01	15.6124	39.626506	0.000182	1.823944	0.617969	0.000073
 394	3.9103e+01	15.6429	39.727434	0.000253	2.533256	0.858290	0.000101
 395	3.9203e+01	15.6926	39.844511	0.000294	2.938577	0.995617	0.000118
 396	3.9303e+01	15.7407	39.957551	0.000284	2.837246	0.961285	0.000114
 397	3.9402e+01	15.7664	40.066554	0.000274	2.735916	0.926953	0.000110
 398	3.9502e+01	15.8145	40.191705	0.000314	3.141237	1.064280	0.000126
 399	3.9601e+01	15.8578	40.296670	0.000263	2.634586	0.892622	0.000105
 400	3.9700e+01	15.8883	40.454119	0.000395	3.951879	1.338933	0.000158
 401	3.9800e+01	15.9316	40.502564	0.000122	1.215963	0.411979	0.000049
 402	3.9900e+01	15.9669	40.635790	0.000334	3.343897	1.132943	0.000134
 403	3.9999e+01	16.0054	40.716532	0.000203	2.026605	0.686632	0.000081
 404	4.0099e+01	16.0568	40.837647	0.000304	3.039907	1.029948	0.000122
 405	4.0198e+01	16.0889	40.938575	0.000253	2.533256	0.858290	0.000101
 406	4.0297e+01	16.1306	41.063726	0.000314	3.141237	1.064280	0.000126
 407	4.0397e+01	16.1675	41.164655	0.000253	2.533256	0.858290	0.000101
 408	4.0496e+01	16.2108	41.241360	0.000193	1.925274	0.652301	0.000077
 409	4.0596e+01	16.2541	41.301917	0.000152	1.519953	0.514974	0.000061
 410	4.0696e+01	16.2926	41.443217	0.000355	3.546558	1.201606	0.000142
 411	4.0795e+01	16.3279	41.519922	0.000193	1.925274	0.652301	0.000077
 412	4.0895e+01	16.3632	41.588554	0.000172	1.722614	0.583637	0.000069
 413	4.0994e+01	16.4177	41.729854	0.000355	3.546558	1.201606	0.000142
 414	4.1093e+01	16.4546	41.830782	0.000253	2.533256	0.858290	0.000101
 415	4.1193e+01	16.4915	41.939785	0.000274	2.735916	0.926953	0.000110
 416	4.1292e+01	16.5332	42.064936	0.000314	3.141237	1.064280	0.000126
 417	4.1392e+01	16.5749	42.190087	0.000314	3.141237	1.064280	0.000126
 418	4.1492e+01	16.6166	42.278904	0.000223	2.229265	0.755295	0.000089
 419	4.1591e+01	16.6519	42.412129	0.000334	3.343897	1.132943	0.000134
 420	4.1691e+01	16.6904	42.488835	0.000193	1.925274	0.652301	0.000077
 421	4.1790e+01	16.7225	42.589763	0.000253	2.533256	0.858290	0.000101
 422	4.1889e+01	16.7723	42.674543	0.000213	2.127935	0.720964	0.000085
 423	4.1989e+01	16.8156	42.815843	0.000355	3.546558	1.201606	0.000142
 424	4.2089e+01	16.8412	42.888512	0.000182	1.823944	0.617969	0.000073
 425	4.2188e+01	16.8878	43.021737	0.000334	3.343897	1.132943	0.000134
 426	4.2288e+01	16.9295	43.098443	0.000193	1.925274	0.652301	0.000077
 427	4.2387e+01	16.9696	43.191297	0.000233	2.330595	0.789627	0.000093
 428	4.2486e+01	17.0065	43.284151	0.000233	2.330595	0.789627	0.000093
 429	4.2586e+01	17.0578	43.372968	0.000223	2.229265	0.755295	0.000089
 430	4.2685e+01	17.0851	43.457748	0.000213	2.127935	0.720964	0.000085
 431	4.2785e+01	17.1236	43.538490	0.000203	2.026605	0.686632	0.000081
 432	4.2885e+01	17.1733	43.615196	0.000193	1.925274	0.652301	0.000077
 433	4.2984e+01	17.2006	43.724199	0.000274	2.735916	0.926953	0.000110
 434	4.3084e+01	17.2487	43.857424	0.000334	3.343897	1.132943	0.000134
 435	4.3183e+01	17.2792	43.950278	0.000233	2.330595	0.789627	0.000093
 436	4.3282e+01	17.3257	44.083504	0.000334	3.343897	1.132943	0.000134
 437	4.3382e+01	17.3706	44.176358	0.000233	2.330595	0.789627	0.000093
 438	4.3481e+01	17.4027	44.305546	0.000324	3.242567	1.098612	0.000130
 439	4.3581e+01	17.4460	44.402437	0.000243	2.431925	0.823959	0.000097
 440	4.3681e+01	17.4861	44.479143	0.000193	1.925274	0.652301	0.000077
 441	4.3780e+01	17.5214	44.567960	0.000223	2.229265	0.755295	0.000089
 442	4.3880e+01	17.5631	44.676963	0.000274	2.735916	0.926953	0.000110
 443	4.3979e+01	17.6016	44.806151	0.000324	3.242567	1.098612	0.000130
 444	4.4078e+01	17.6417	44.866708	0.000152	1.519953	0.514974	0.000061
 445	4.4178e+01	17.6802	44.979748	0.000284	2.837246	0.961285	0.000114
 446	4.4278e+01	17.7316	45.112973	0.000334	3.343897	1.132943	0.000134
 447	4.4377e+01	17.7637	45.242162	0.000324	3.242567	1.098612	0.000130
 448	4.4477e+01	17.8038	45.302719	0.000152	1.519953	0.514974	0.000061
 449	4.4576e+01	17.8519	45.387499	0.000213	2.127935	0.720964	0.000085
 450	4.4675e+01	17.8776	45.464204	0.000193	1.925274	0.652301	0.000077
 451	4.4775e+01	17.9337	45.565133	0.000253	2.533256	0.858290	0.000101
 452	4.4874e+01	17.9610	45.649912	0.000213	2.127935	0.720964	0.000085
 453	4.4974e+01	18.0059	45.787175	0.000345	3.445228	1.167275	0.000138
 454	4.5074e+01	18.0492	45.908289	0.000304	3.039907	1.029948	0.000122
 455	4.5173e+01	18.0877	46.001143	0.000233	2.330595	0.789627	0.000093
 456	4.5273e+01	18.1182	46.110146	0.000274	2.735916	0.926953	0.000110
 457	4.5372e+01	18.1551	46.255483	0.000365	3.647888	1.235938	0.000146
 458	4.5471e+01	18.2016	46.316040	0.000152	1.519953	0.514974	0.000061
 459	4.5571e+01	18.2417	46.437154	0.000304	3.039907	1.029948	0.000122
 460	4.5670e+01	18.2866	46.501748	0.000162	1.621284	0.549306	0.000065
 461	4.5770e+01	18.3252	46.651122	0.000375	3.749218	1.270270	0.000150
 462	4.5870e+01	18.3556	46.727828	0.000193	1.925274	0.652301	0.000077
 463	4.5969e+01	18.4038	46.848942	0.000304	3.039907	1.029948	0.000122
 464	4.6069e+01	18.4391	46.933722	0.000213	2.127935	0.720964	0.000085
 465	4.6168e+01	18.4727	47.038687	0.000263	2.634586	0.892622	0.000105
 466	4.6267e+01	18.5305	47.147690	0.000274	2.735916	0.926953	0.000110
 467	4.6367e+01	18.5674	47.212284	0.000162	1.621284	0.549306	0.000065
 468	4.6467e+01	18.6091	47.268804	0.000142	1.418623	0.480643	0.000057
 469	4.6566e+01	18.6316	47.385881	0.000294	2.938577	0.995617	0.000118
 470	4.6666e+01	18.6861	47.506995	0.000304	3.039907	1.029948	0.000122
 471	4.6765e+01	18.7246	47.624072	0.000294	2.938577	0.995617	0.000118
 472	4.6864e+01	18.7647	47.720963	0.000243	2.431925	0.823959	0.000097
 473	4.6964e+01	18.7952	47.834003	0.000284	2.837246	0.961285	0.000114
 474	4.7063e+01	18.8401	47.914746	0.000203	2.026605	0.686632	0.000081
 475	4.7163e+01	18.8802	48.043934	0.000324	3.242567	1.098612	0.000130
 476	4.7263e+01	18.9123	48.169085	0.000314	3.141237	1.064280	0.000126
 477	4.7362e+01	18.9652	48.237716	0.000172	1.722614	0.583637	0.000069
 478	4.7462e+01	19.0102	48.350756	0.000284	2.837246	0.961285	0.000114
 479	4.7561e+01	19.0358	48.471870	0.000304	3.039907	1.029948	0.000122
 480	4.7660e+01	19.0807	48.564724	0.000233	2.330595	0.789627	0.000093
 481	4.7760e+01	19.1225	48.657578	0.000233	2.330595	0.789627	0.000093
 482	4.7859e+01	19.1626	48.758507	0.000253	2.533256	0.858290	0.000101
 483	4.7959e+01	19.1995	48.831175	0.000182	1.823944	0.617969	0.000073
 484	4.8059e+01	19.2380	48.928067	0.000243	2.431925	0.823959	0.000097
 485	4.8158e+01	19.2797	49.033032	0.000263	2.634586	0.892622	0.000105
 486	4.8258e+01	19.3262	49.146072	0.000284	2.837246	0.961285	0.000114
 487	4.8357e+01	19.3567	49.166258	0.000051	0.506651	0.171658	0.000020
 488	4.8456e+01	19.3936	49.275260	0.000274	2.735916	0.926953	0.000110
 489	4.8556e+01	19.4337	49.380226	0.000263	2.634586	0.892622	0.000105
 490	4.8656e+01	19.4738	49.549785	0.000426	4.255870	1.441928	0.000170
 491	4.8755e+01	19.5155	49.618417	0.000172	1.722614	0.583637	0.000069
 492	4.8855e+01	19.5492	49.731457	0.000284	2.837246	0.961285	0.000114
 493	4.8954e+01	19.6005	49.824311	0.000233	2.330595	0.789627	0.000093
 494	4.9053e+01	19.6374	49.929276	0.000263	2.634586	0.892622	0.000105
 495	4.9153e+01	19.6727	50.062502	0.000334	3.343897	1.132943	0.000134
 496	4.9252e+01	19.7208	50.123059	0.000152	1.519953	0.514974	0.000061
 497	4.9352e+01	19.7513	50.260321	0.000345	3.445228	1.167275	0.000138
 498	4.9452e+01	19.8059	50.377398	0.000294	2.938577	0.995617	0.000118
 499	4.9551e+01	19.8331	50.454104	0.000193	1.925274	0.652301	0.000077
 500	4.9651e+01	19.8684	50.546958	0.000233	2.330595	0.789627	0.000093
 501	4.9750e+01	19.9133	50.664035	0.000294	2.938577	0.995617	0.000118
 502	4.9849e+01	19.9567	50.744778	0.000203	2.026605	0.686632	0.000081
 503	4.9949e+01	19.9952	50.797260	0.000132	1.317293	0.446311	0.000053
 504	5.0048e+01	19.9551	50.740741	0.000142	1.418623	0.480643	-0.000057
 505	5.0148e+01	19.9133	50.627701	0.000284	2.837246	0.961285	-0.000114
 506	5.0248e+01	19.8700	50.538884	0.000223	2.229265	0.755295	-0.000089
 507	5.0347e+01	19.8267	50.441992	0.000243	2.431925	0.823959	-0.000097
 508	5.0447e+01	19.7978	50.373361	0.000172	1.722614	0.583637	-0.000069
 509	5.0546e+01	19.7545	50.292618	0.000203	2.026605	0.686632	-0.000081
 510	5.0645e+01	19.7144	50.240136	0.000132	1.317293	0.446311	-0.000053
 511	5.0745e+01	19.6759	50.183616	0.000142	1.418623	0.480643	-0.000057
 512	5.0844e+01	19.6374	50.066539	0.000294	2.938577	0.995617	-0.000118
 513	5.0944e+01	19.5957	50.001945	0.000162	1.621284	0.549306	-0.000065
 514	5.1044e+01	19.5604	49.888905	0.000284	2.837246	0.961285	-0.000114
 515	5.1143e+01	19.5139	49.800088	0.000223	2.229265	0.755295	-0.000089
 516	5.1242e+01	19.4770	49.711271	0.000223	2.229265	0.755295	-0.000089
 517	5.1342e+01	19.4369	49.650714	0.000152	1.519953	0.514974	-0.000061
 518	5.1441e+01	19.3984	49.541711	0.000274	2.735916	0.926953	-0.000110
 519	5.1541e+01	19.3615	49.481154	0.000152	1.519953	0.514974	-0.000061
 520	5.1641e+01	19.3150	49.384263	0.000243	2.431925	0.823959	-0.000097
 521	5.1740e+01	19.2781	49.263149	0.000304	3.039907	1.029948	-0.000122
 522	5.1840e+01	19.2380	49.150109	0.000284	2.837246	0.961285	-0.000114
 523	5.1939e+01	19.2043	49.061292	0.000223	2.229265	0.755295	-0.000089
 524	5.2038e+01	19.1610	48.936141	0.000314	3.141237	1.064280	-0.000126
 525	5.2138e+01	19.1160	48.823101	0.000284	2.837246	0.961285	-0.000114
 526	5.2237e+01	19.0807	48.754470	0.000172	1.722614	0.583637	-0.000069
 527	5.2337e+01	19.0422	48.693913	0.000152	1.519953	0.514974	-0.000061
 528	5.2437e+01	19.0021	48.568761	0.000314	3.141237	1.064280	-0.000126
 529	5.2536e+01	18.9620	48.532427	0.000091	0.911972	0.308984	-0.000037
 530	5.2636e+01	18.9203	48.447647	0.000213	2.127935	0.720964	-0.000085
 531	5.2735e+01	18.8754	48.383053	0.000162	1.621284	0.549306	-0.000065
 532	5.2834e+01	18.8417	48.298273	0.000213	2.127935	0.720964	-0.000085
 533	5.2934e+01	18.7968	48.181196	0.000294	2.938577	0.995617	-0.000118
 534	5.3033e+01	18.7663	48.116602	0.000162	1.621284	0.549306	-0.000065
 535	5.3133e+01	18.7230	47.987414	0.000324	3.242567	1.098612	-0.000130
 536	5.3233e+01	18.6877	47.922820	0.000162	1.621284	0.549306	-0.000065
 537	5.3332e+01	18.6364	47.781520	0.000355	3.546558	1.201606	-0.000142
 538	5.3431e+01	18.6011	47.761334	0.000051	0.506651	0.171658	-0.000020
 539	5.3531e+01	18.5642	47.632146	0.000324	3.242567	1.098612	-0.000130
 540	5.3630e+01	18.5161	47.547366	0.000213	2.127935	0.720964	-0.000085
 541	5.3730e+01	18.4776	47.434326	0.000284	2.837246	0.961285	-0.000114
 542	5.3830e+01	18.4487	47.321287	0.000284	2.837246	0.961285	-0.000114
 543	5.3929e+01	18.4038	47.216321	0.000263	2.634586	0.892622	-0.000105
 544	5.4029e+01	18.3620	47.099244	0.000294	2.938577	0.995617	-0.000118
 545	5.4128e+01	18.3219	47.022539	0.000193	1.925274	0.652301	-0.000077
 546	5.4227e+01	18.2786	46.933722	0.000223	2.229265	0.755295	-0.000089
 547	5.4327e+01	18.2433	46.869127	0.000162	1.621284	0.549306	-0.000065
 548	5.4426e+01	18.2064	46.772236	0.000243	2.431925	0.823959	-0.000097
 549	5.4526e+01	18.1647	46.679382	0.000233	2.330595	0.789627	-0.000093
 550	5.4626e+01	18.1278	46.606714	0.000182	1.823944	0.617969	-0.000073
 551	5.4725e+01	18.0781	46.485599	0.000304	3.039907	1.029948	-0.000122
 552	5.4825e+01	18.0396	46.400820	0.000213	2.127935	0.720964	-0.000085
 553	5.4924e+01	17.9963	46.320077	0.000203	2.026605	0.686632	-0.000081
 554	5.5023e+01	17.9642	46.194926	0.000314	3.141237	1.064280	-0.000126
 555	5.5123e+01	17.9225	46.126294	0.000172	1.722614	0.583637	-0.000069
 556	5.5222e+01	17.8856	46.033440	0.000233	2.330595	0.789627	-0.000093
 557	5.5322e+01	17.8439	45.932512	0.000253	2.533256	0.858290	-0.000101
 558	5.5422e+01	17.8070	45.871955	0.000152	1.519953	0.514974	-0.000061
 559	5.5521e+01	17.7589	45.750841	0.000304	3.039907	1.029948	-0.000122
 560	5.5620e+01	17.7284	45.653949	0.000243	2.431925	0.823959	-0.000097
 561	5.5720e+01	17.7011	45.544947	0.000274	2.735916	0.926953	-0.000110
 562	5.5819e+01	17.6530	45.444018	0.000253	2.533256	0.858290	-0.000101
 563	5.5919e+01	17.6081	45.322904	0.000304	3.039907	1.029948	-0.000122
 564	5.6019e+01	17.5615	45.246199	0.000193	1.925274	0.652301	-0.000077
 565	5.6118e+01	17.5278	45.153345	0.000233	2.330595	0.789627	-0.000093
 566	5.6218e+01	17.4781	45.060491	0.000233	2.330595	0.789627	-0.000093
 567	5.6317e+01	17.4460	44.991859	0.000172	1.722614	0.583637	-0.000069
 568	5.6416e+01	17.4043	44.903042	0.000223	2.229265	0.755295	-0.000089
 569	5.6516e+01	17.3642	44.806151	0.000243	2.431925	0.823959	-0.000097
 570	5.6615e+01	17.3241	44.733483	0.000182	1.823944	0.617969	-0.000073
 571	5.6715e+01	17.2808	44.632554	0.000253	2.533256	0.858290	-0.000101
 572	5.6815e+01	17.2439	44.499329	0.000334	3.343897	1.132943	-0.000134
 573	5.6914e+01	17.2070	44.414549	0.000213	2.127935	0.720964	-0.000085
 574	5.7014e+01	17.1653	44.341880	0.000182	1.823944	0.617969	-0.000073
 575	5.7113e+01	17.1204	44.244989	0.000243	2.431925	0.823959	-0.000097
 576	5.7212e+01	17.0883	44.127912	0.000294	2.938577	0.995617	-0.000118
 577	5.7312e+01	17.0514	44.055244	0.000182	1.823944	0.617969	-0.000073
 578	5.7411e+01	17.0049	43.966427	0.000223	2.229265	0.755295	-0.000089
 579	5.7511e+01	16.9680	43.873573	0.000233	2.330595	0.789627	-0.000093
 580	5.7611e+01	16.9327	43.740347	0.000334	3.343897	1.132943	-0.000134
 581	5.7710e+01	16.8910	43.663642	0.000193	1.925274	0.652301	-0.000077
 582	5.7809e+01	16.8428	43.550602	0.000284	2.837246	0.961285	-0.000114
 583	5.7909e+01	16.8075	43.449673	0.000253	2.533256	0.858290	-0.000101
 584	5.8008e+01	16.7690	43.364894	0.000213	2.127935	0.720964	-0.000085
 585	5.8108e+01	16.7305	43.284151	0.000203	2.026605	0.686632	-0.000081
 586	5.8208e+01	16.6856	43.203408	0.000203	2.026605	0.686632	-0.000081
 587	5.8307e+01	16.6535	43.078257	0.000314	3.141237	1.064280	-0.000126
 588	5.8407e+01	16.6054	43.017700	0.000152	1.519953	0.514974	-0.000061
 589	5.8506e+01	16.5685	42.908697	0.000274	2.735916	0.926953	-0.000110
 590	5.8605e+01	16.5268	42.799695	0.000274	2.735916	0.926953	-0.000110
 591	5.8705e+01	16.4835	42.710878	0.000223	2.229265	0.755295	-0.000089
 592	5.8804e+01	16.4482	42.622061	0.000223	2.229265	0.755295	-0.000089
 593	5.8904e+01	16.4209	42.476724	0.000365	3.647888	1.235938	-0.000146
 594	5.9004e+01	16.3696	42.428278	0.000122	1.215963	0.411979	-0.000049
 595	5.9103e+01	16.3295	42.327350	0.000253	2.533256	0.858290	-0.000101
 596	5.9203e+01	16.2862	42.202198	0.000314	3.141237	1.064280	-0.000126
 597	5.9302e+01	16.2525	42.109344	0.000233	2.330595	0.789627	-0.000093
 598	5.9401e+01	16.2076	41.988230	0.000304	3.039907	1.029948	-0.000122
 599	5.9501e+01	16.1659	41.919599	0.000172	1.722614	0.583637	-0.000069
 600	5.9600e+01	16.1209	41.814633	0.000263	2.634586	0.892622	-0.000105
 601	5.9700e+01	16.0937	41.709668	0.000263	2.634586	0.892622	-0.000105
 602	5.9800e+01	16.0600	41.632962	0.000193	1.925274	0.652301	-0.000077
 603	5.9899e+01	16.0102	41.507811	0.000314	3.141237	1.064280	-0.000126
 604	5.9998e+01	15.9685	41.435143	0.000182	1.823944	0.617969	-0.000073
 605	6.0098e+01	15.9300	41.301917	0.000334	3.343897	1.132943	-0.000134
 606	6.0197e+01	15.8979	41.217137	0.000213	2.127935	0.720964	-0.000085
 607	6.0297e+01	15.8594	41.108135	0.000274	2.735916	0.926953	-0.000110
 608	6.0397e+01	15.8161	41.019318	0.000223	2.229265	0.755295	-0.000089
 609	6.0496e+01	15.7680	40.942612	0.000193	1.925274	0.652301	-0.000077
 610	6.0596e+01	15.7311	40.833609	0.000274	2.735916	0.926953	-0.000110
 611	6.0695e+01	15.6958	40.704421	0.000324	3.242567	1.098612	-0.000130
 612	6.0794e+01	15.6605	40.623678	0.000203	2.026605	0.686632	-0.000081
 613	6.0894e+01	15.6140	40.510639	0.000284	2.837246	0.961285	-0.000114
 614	6.0993e+01	15.5787	40.454119	0.000142	1.418623	0.480643	-0.000057
 615	6.1093e+01	15.5370	40.320893	0.000334	3.343897	1.132943	-0.000134
 616	6.1193e+01	15.4953	40.288596	0.000081	0.810642	0.274653	-0.000032
 617	6.1292e+01	15.4584	40.139222	0.000375	3.749218	1.270270	-0.000150
 618	6.1392e+01	15.4135	40.078665	0.000152	1.519953	0.514974	-0.000061
 619	6.1491e+01	15.3798	39.989848	0.000223	2.229265	0.755295	-0.000089
 620	6.1590e+01	15.3317	39.888920	0.000253	2.533256	0.858290	-0.000101
 621	6.1690e+01	15.2948	39.783954	0.000263	2.634586	0.892622	-0.000105
 622	6.1789e+01	15.2546	39.646692	0.000345	3.445228	1.167275	-0.000138
 623	6.1889e+01	15.2161	39.545763	0.000253	2.533256	0.858290	-0.000101
 624	6.1989e+01	15.1744	39.436760	0.000274	2.735916	0.926953	-0.000110
 625	6.2088e+01	15.1327	39.331795	0.000263	2.634586	0.892622	-0.000105
 626	6.2188e+01	15.0878	39.275275	0.000142	1.418623	0.480643	-0.000057
 627	6.2287e+01	15.0493	39.133975	0.000355	3.546558	1.201606	-0.000142
 628	6.2386e+01	15.0156	39.037084	0.000243	2.431925	0.823959	-0.000097
 629	6.2486e+01	14.9755	38.940193	0.000243	2.431925	0.823959	-0.000097
 630	6.2586e+01	14.9322	38.847339	0.000233	2.330595	0.789627	-0.000093
 631	6.2685e+01	14.9065	38.746410	0.000253	2.533256	0.858290	-0.000101
 632	6.2785e+01	14.8584	38.657593	0.000223	2.229265	0.755295	-0.000089
 633	6.2884e+01	14.8151	38.548591	0.000274	2.735916	0.926953	-0.000110
 634	6.2983e+01	14.7766	38.447662	0.000253	2.533256	0.858290	-0.000101
 635	6.3083e+01	14.7381	38.383068	0.000162	1.621284	0.549306	-0.000065
 636	6.3182e+01	14.6868	38.274065	0.000274	2.735916	0.926953	-0.000110
 637	6.3282e+01	14.6563	38.209471	0.000162	1.621284	0.549306	-0.000065
 638	6.3382e+01	14.6226	38.132766	0.000193	1.925274	0.652301	-0.000077
 639	6.3481e+01	14.5793	37.987429	0.000365	3.647888	1.235938	-0.000146
 640	6.3581e+01	14.5360	37.882463	0.000263	2.634586	0.892622	-0.000105
 641	6.3680e+01	14.4991	37.773461	0.000274	2.735916	0.926953	-0.000110
 642	6.3779e+01	14.4606	37.672532	0.000253	2.533256	0.858290	-0.000101
 643	6.3879e+01	14.4124	37.535270	0.000345	3.445228	1.167275	-0.000138
 644	6.3978e+01	14.3787	37.446453	0.000223	2.229265	0.755295	-0.000089
 645	6.4078e+01	14.3450	37.341487	0.000263	2.634586	0.892622	-0.000105
 646	6.4177e+01	14.2921	37.252670	0.000223	2.229265	0.755295	-0.000089
 647	6.4277e+01	14.2584	37.175964	0.000193	1.925274	0.652301	-0.000077
 648	6.4376e+01	14.2215	37.062925	0.000284	2.837246	0.961285	-0.000114
 649	6.4476e+01	14.1782	36.949885	0.000284	2.837246	0.961285	-0.000114
 650	6.4576e+01	14.1365	36.861068	0.000223	2.229265	0.755295	-0.000089
 651	6.4675e+01	14.0980	36.768214	0.000233	2.330595	0.789627	-0.000093
 652	6.4775e+01	14.0547	36.663248	0.000263	2.634586	0.892622	-0.000105
 653	6.4874e+01	14.0242	36.566357	0.000243	2.431925	0.823959	-0.000097
 654	6.4974e+01	13.9809	36.493689	0.000182	1.823944	0.617969	-0.000073
 655	6.5073e+01	13.9360	36.384686	0.000274	2.735916	0.926953	-0.000110
 656	6.5172e+01	13.8927	36.299906	0.000213	2.127935	0.720964	-0.000085
 657	6.5272e+01	13.8574	36.219163	0.000203	2.026605	0.686632	-0.000081
 658	6.5371e+01	13.8253	36.029418	0.000476	4.762521	1.613586	-0.000191
 659	6.5471e+01	13.7820	35.960787	0.000172	1.722614	0.583637	-0.000069
 660	6.5570e+01	13.7338	35.851784	0.000274	2.735916	0.926953	-0.000110
 661	6.5670e+01	13.7050	35.742781	0.000274	2.735916	0.926953	-0.000110
 662	6.5769e+01	13.6665	35.621667	0.000304	3.039907	1.029948	-0.000122
 663	6.5869e+01	13.6215	35.528813	0.000233	2.330595	0.789627	-0.000093
 664	6.5969e+01	13.5782	35.419810	0.000274	2.735916	0.926953	-0.000110
 665	6.6068e+01	13.5397	35.343105	0.000193	1.925274	0.652301	-0.000077
 666	6.6168e+01	13.5044	35.246214	0.000243	2.431925	0.823959	-0.000097
 667	6.6267e+01	13.4627	35.149322	0.000243	2.431925	0.823959	-0.000097
 668	6.6367e+01	13.4306	35.056468	0.000233	2.330595	0.789627	-0.000093
 669	6.6466e+01	13.3777	34.927280	0.000324	3.242567	1.098612	-0.000130
 670	6.6566e+01	13.3376	34.818277	0.000274	2.735916	0.926953	-0.000110
 671	6.6665e+01	13.2943	34.769832	0.000122	1.215963	0.411979	-0.000049
 672	6.6764e+01	13.2654	34.648717	0.000304	3.039907	1.029948	-0.000122
 673	6.6864e+01	13.2141	34.519529	0.000324	3.242567	1.098612	-0.000130
 674	6.6963e+01	13.1852	34.450898	0.000172	1.722614	0.583637	-0.000069
 675	6.7063e+01	13.1451	34.382267	0.000172	1.722614	0.583637	-0.000069
 676	6.7162e+01	13.1002	34.245004	0.000345	3.445228	1.167275	-0.000138
 677	6.7262e+01	13.0633	34.164261	0.000203	2.026605	0.686632	-0.000081
 678	6.7362e+01	13.0167	34.035073	0.000324	3.242567	1.098612	-0.000130
 679	6.7461e+01	12.9782	33.958367	0.000193	1.925274	0.652301	-0.000077
 680	6.7561e+01	12.9478	33.857439	0.000253	2.533256	0.858290	-0.000101
 681	6.7660e+01	12.9109	33.760548	0.000243	2.431925	0.823959	-0.000097
 682	6.7760e+01	12.8643	33.659619	0.000253	2.533256	0.858290	-0.000101
 683	6.7859e+01	12.8210	33.566765	0.000233	2.330595	0.789627	-0.000093
 684	6.7959e+01	12.7873	33.433540	0.000334	3.343897	1.132943	-0.000134
 685	6.8058e+01	12.7504	33.328574	0.000263	2.634586	0.892622	-0.000105
 686	6.8157e+01	12.7039	33.235720	0.000233	2.330595	0.789627	-0.000093
 687	6.8257e+01	12.6638	33.146903	0.000223	2.229265	0.755295	-0.000089
 688	6.8356e+01	12.6317	33.041937	0.000263	2.634586	0.892622	-0.000105
 689	6.8456e+01	12.5900	32.969269	0.000182	1.823944	0.617969	-0.000073
 690	6.8555e+01	12.5547	32.892563	0.000193	1.925274	0.652301	-0.000077
 691	6.8655e+01	12.5066	32.771449	0.000304	3.039907	1.029948	-0.000122
 692	6.8754e+01	12.4697	32.710892	0.000152	1.519953	0.514974	-0.000061
 693	6.8854e+01	12.4264	32.618038	0.000233	2.330595	0.789627	-0.000093
 694	6.8954e+01	12.3895	32.496924	0.000304	3.039907	1.029948	-0.000122
 695	6.9053e+01	12.3590	32.375810	0.000304	3.039907	1.029948	-0.000122
 696	6.9153e+01	12.3029	32.238547	0.000345	3.445228	1.167275	-0.000138
 697	6.9252e+01	12.2612	32.165879	0.000182	1.823944	0.617969	-0.000073
 698	6.9352e+01	12.2307	32.036691	0.000324	3.242567	1.098612	-0.000130
 699	6.9451e+01	12.1922	31.964022	0.000182	1.823944	0.617969	-0.000073
 700	6.9550e+01	12.1408	31.830797	0.000334	3.343897	1.132943	-0.000134
 701	6.9650e+01	12.1120	31.754091	0.000193	1.925274	0.652301	-0.000077
 702	6.9749e+01	12.0590	31.641051	0.000284	2.837246	0.961285	-0.000114
 703	6.9849e+01	12.0237	31.528012	0.000284	2.837246	0.961285	-0.000114
 704	6.9948e+01	11.9948	31.435157	0.000233	2.330595	0.789627	-0.000093
 705	7.0048e+01	11.9403	31.310006	0.000314	3.141237	1.064280	-0.000126
 706	7.0147e+01	11.9082	31.209078	0.000253	2.533256	0.858290	-0.000101
 707	7.0247e+01	11.8649	31.104112	0.000263	2.634586	0.892622	-0.000105
 708	7.0347e+01	11.8296	31.027407	0.000193	1.925274	0.652301	-0.000077
 709	7.0446e+01	11.7959	30.918404	0.000274	2.735916	0.926953	-0.000110
 710	7.0546e+01	11.7574	30.829587	0.000223	2.229265	0.755295	-0.000089
 711	7.0645e+01	11.7061	30.748844	0.000203	2.026605	0.686632	-0.000081
 712	7.0745e+01	11.6788	30.708473	0.000101	1.013302	0.343316	-0.000041
 713	7.0844e+01	11.6403	30.607545	0.000253	2.533256	0.858290	-0.000101
 714	7.0944e+01	11.5890	30.454133	0.000385	3.850549	1.304601	-0.000154
 715	7.1043e+01	11.5376	30.349168	0.000263	2.634586	0.892622	-0.000105
 716	7.1142e+01	11.5120	30.207868	0.000355	3.546558	1.201606	-0.000142
 717	7.1242e+01	11.4687	30.110977	0.000243	2.431925	0.823959	-0.000097
 718	7.1341e+01	11.4318	29.997937	0.000284	2.837246	0.961285	-0.000114
 719	7.1441e+01	11.3868	29.953529	0.000111	1.114632	0.377648	-0.000045
 720	7.1540e+01	11.3467	29.836452	0.000294	2.938577	0.995617	-0.000118
 721	7.1640e+01	11.3130	29.683041	0.000385	3.850549	1.304601	-0.000154
 722	7.1740e+01	11.2633	29.590186	0.000233	2.330595	0.789627	-0.000093
 723	7.1839e+01	11.2344	29.501369	0.000223	2.229265	0.755295	-0.000089
 724	7.1939e+01	11.1911	29.396404	0.000263	2.634586	0.892622	-0.000105
 725	7.2038e+01	11.1526	29.271253	0.000314	3.141237	1.064280	-0.000126
 726	7.2138e+01	11.1125	29.186473	0.000213	2.127935	0.720964	-0.000085
 727	7.2237e+01	11.0644	29.109767	0.000193	1.925274	0.652301	-0.000077
 728	7.2337e+01	11.0371	29.029025	0.000203	2.026605	0.686632	-0.000081
 729	7.2436e+01	10.9890	28.899836	0.000324	3.242567	1.098612	-0.000130
 730	7.2535e+01	10.9601	28.835242	0.000162	1.621284	0.549306	-0.000065
 731	7.2635e+01	10.9120	28.746425	0.000223	2.229265	0.755295	-0.000089
 732	7.2734e+01	10.8767	28.572828	0.000436	4.357200	1.476259	-0.000174
 733	7.2834e+01	10.8334	28.512271	0.000152	1.519953	0.514974	-0.000061
 734	7.2933e+01	10.7917	28.387120	0.000314	3.141237	1.064280	-0.000126
 735	7.3033e+01	10.7548	28.253894	0.000334	3.343897	1.132943	-0.000134
 736	7.3132e+01	10.7083	28.144892	0.000274	2.735916	0.926953	-0.000110
 737	7.3232e+01	10.6810	28.052038	0.000233	2.330595	0.789627	-0.000093
 738	7.3332e+01	10.6296	27.959184	0.000233	2.330595	0.789627	-0.000093
 739	7.3431e+01	10.5960	27.850181	0.000274	2.735916	0.926953	-0.000110
 740	7.3531e+01	10.5478	27.733104	0.000294	2.938577	0.995617	-0.000118
 741	7.3630e+01	10.5141	27.648324	0.000213	2.127935	0.720964	-0.000085
 742	7.3730e+01	10.4821	27.551433	0.000243	2.431925	0.823959	-0.000097
 743	7.3829e+01	10.4243	27.454542	0.000243	2.431925	0.823959	-0.000097
 744	7.3928e+01	10.3970	27.337465	0.000294	2.938577	0.995617	-0.000118
 745	7.4028e+01	10.3505	27.244611	0.000233	2.330595	0.789627	-0.000093
 746	7.4127e+01	10.3184	27.127534	0.000294	2.938577	0.995617	-0.000118
 747	7.4227e+01	10.2799	27.042754	0.000213	2.127935	0.720964	-0.000085
 748	7.4326e+01	10.2286	26.962011	0.000203	2.026605	0.686632	-0.000081
 749	7.4426e+01	10.1821	26.897417	0.000162	1.621284	0.549306	-0.000065
 750	7.4525e+01	10.1548	26.780340	0.000294	2.938577	0.995617	-0.000118
 751	7.4625e+01	10.1195	26.679412	0.000253	2.533256	0.858290	-0.000101
 752	7.4725e+01	10.0810	26.546186	0.000334	3.343897	1.132943	-0.000134
 753	7.4824e+01	10.0345	26.461406	0.000213	2.127935	0.720964	-0.000085
 754	7.4924e+01	9.9960	26.344329	0.000294	2.938577	0.995617	-0.000118
 755	7.5023e+01	9.9591	26.211104	0.000334	3.343897	1.132943	-0.000134
 756	7.5123e+01	9.9029	26.106138	0.000263	2.634586	0.892622	-0.000105
 757	7.5222e+01	9.8708	25.968876	0.000345	3.445228	1.167275	-0.000138
 758	7.5322e+01	9.8323	25.904281	0.000162	1.621284	0.549306	-0.000065
 759	7.5421e+01	9.8003	25.783167	0.000304	3.039907	1.029948	-0.000122
 760	7.5520e+01	9.7602	25.678202	0.000263	2.634586	0.892622	-0.000105
 761	7.5620e+01	9.7120	25.553051	0.000314	3.141237	1.064280	-0.000126
 762	7.5719e+01	9.6783	25.480382	0.000182	1.823944	0.617969	-0.000073
 763	7.5819e+01	9.6414	25.391565	0.000223	2.229265	0.755295	-0.000089
 764	7.5918e+01	9.6061	25.250265	0.000355	3.546558	1.201606	-0.000142
 765	7.6018e+01	9.5612	25.161448	0.000223	2.229265	0.755295	-0.000089
 766	7.6118e+01	9.5195	25.056483	0.000263	2.634586	0.892622	-0.000105
 767	7.6217e+01	9.4842	24.955555	0.000253	2.533256	0.858290	-0.000101
 768	7.6317e+01	9.4377	24.911146	0.000111	1.114632	0.377648	-0.000045
 769	7.6416e+01	9.4056	24.773883	0.000345	3.445228	1.167275	-0.000138
 770	7.6516e+01	9.3607	24.620472	0.000385	3.850549	1.304601	-0.000154
 771	7.6615e+01	9.3238	24.491284	0.000324	3.242567	1.098612	-0.000130
 772	7.6715e+01	9.2805	24.394393	0.000243	2.431925	0.823959	-0.000097
 773	7.6814e+01	9.2420	24.321724	0.000182	1.823944	0.617969	-0.000073
 774	7.6913e+01	9.2067	24.176387	0.000365	3.647888	1.235938	-0.000146
 775	7.7013e+01	9.1666	24.079496	0.000243	2.431925	0.823959	-0.000097
 776	7.7112e+01	9.1201	23.986642	0.000233	2.330595	0.789627	-0.000093
 777	7.7212e+01	9.0751	23.861491	0.000314	3.141237	1.064280	-0.000126
 778	7.7311e+01	9.0415	23.732302	0.000324	3.242567	1.098612	-0.000130
 779	7.7411e+01	8.9997	23.651560	0.000203	2.026605	0.686632	-0.000081
 780	7.7510e+01	8.9628	23.514297	0.000345	3.445228	1.167275	-0.000138
 781	7.7610e+01	8.9243	23.437592	0.000193	1.925274	0.652301	-0.000077
 782	7.7710e+01	8.8826	23.304366	0.000334	3.343897	1.132943	-0.000134
 783	7.7809e+01	8.8441	23.243809	0.000152	1.519953	0.514974	-0.000061
 784	7.7909e+01	8.8056	23.146918	0.000243	2.431925	0.823959	-0.000097
 785	7.8008e+01	8.7639	23.041952	0.000263	2.634586	0.892622	-0.000105
 786	7.8108e+01	8.7174	22.977358	0.000162	1.621284	0.549306	-0.000065
 787	7.8207e+01	8.6773	22.868355	0.000274	2.735916	0.926953	-0.000110
 788	7.8306e+01	8.6292	22.747241	0.000304	3.039907	1.029948	-0.000122
 789	7.8406e+01	8.5971	22.622090	0.000314	3.141237	1.064280	-0.000126
 790	7.8505e+01	8.5586	22.500976	0.000304	3.039907	1.029948	-0.000122
 791	7.8605e+01	8.5281	22.408122	0.000233	2.330595	0.789627	-0.000093
 792	7.8704e+01	8.4864	22.291045	0.000294	2.938577	0.995617	-0.000118
 793	7.8804e+01	8.4415	22.169931	0.000304	3.039907	1.029948	-0.000122
 794	7.8903e+01	8.4046	22.044780	0.000314	3.141237	1.064280	-0.000126
 795	7.9003e+01	8.3564	21.919628	0.000314	3.141237	1.064280	-0.000126
 796	7.9103e+01	8.3196	21.818700	0.000253	2.533256	0.858290	-0.000101
 797	7.9202e+01	8.2859	21.746032	0.000182	1.823944	0.617969	-0.000073
 798	7.9302e+01	8.2425	21.641066	0.000263	2.634586	0.892622	-0.000105
 799	7.9401e+01	8.2089	21.523989	0.000294	2.938577	0.995617	-0.000118
 800	7.9501e+01	8.1623	21.435172	0.000223	2.229265	0.755295	-0.000089
 801	7.9600e+01	8.1174	21.297910	0.000345	3.445228	1.167275	-0.000138
 802	7.9700e+01	8.0789	21.201018	0.000243	2.431925	0.823959	-0.000097
 803	7.9799e+01	8.0404	21.144498	0.000142	1.418623	0.480643	-0.000057
 804	7.9898e+01	7.9939	21.063756	0.000203	2.026605	0.686632	-0.000081
 805	7.9998e+01	7.9634	20.942642	0.000304	3.039907	1.029948	-0.000122
 806	8.0097e+01	7.9265	20.861899	0.000203	2.026605	0.686632	-0.000081
 807	8.0197e+01	7.8800	20.740785	0.000304	3.039907	1.029948	-0.000122
 808	8.0296e+01	7.8463	20.607559	0.000334	3.343897	1.132943	-0.000134
 809	8.0396e+01	7.8046	20.466260	0.000355	3.546558	1.201606	-0.000142
 810	8.0496e+01	7.7629	20.373406	0.000233	2.330595	0.789627	-0.000093
 811	8.0595e+01	7.7196	20.272477	0.000253	2.533256	0.858290	-0.000101
 812	8.0695e+01	7.6939	20.191734	0.000203	2.026605	0.686632	-0.000081
 813	8.0794e+01	7.6458	20.042360	0.000375	3.749218	1.270270	-0.000150
 814	8.0894e+01	7.6041	19.937395	0.000263	2.634586	0.892622	-0.000105
 815	8.0993e+01	7.5575	19.840504	0.000243	2.431925	0.823959	-0.000097
 816	8.1093e+01	7.5239	19.695167	0.000365	3.647888	1.235938	-0.000146
 817	8.1192e+01	7.4854	19.606350	0.000223	2.229265	0.755295	-0.000089
 818	8.1291e+01	7.4468	19.517533	0.000223	2.229265	0.755295	-0.000089
 819	8.1391e+01	7.3987	19.420641	0.000243	2.431925	0.823959	-0.000097
 820	8.1490e+01	7.3650	19.279342	0.000355	3.546558	1.201606	-0.000142
 821	8.1590e+01	7.3410	19.198599	0.000203	2.026605	0.686632	-0.000081
 822	8.1689e+01	7.2752	19.101708	0.000243	2.431925	0.823959	-0.000097
 823	8.1789e+01	7.2495	18.996742	0.000263	2.634586	0.892622	-0.000105
 824	8.1888e+01	7.1934	18.907925	0.000223	2.229265	0.755295	-0.000089
 825	8.1988e+01	7.1613	18.819108	0.000223	2.229265	0.755295	-0.000089
 826	8.2088e+01	7.1340	18.669734	0.000375	3.749218	1.270270	-0.000150
 827	8.2187e+01	7.0843	18.552657	0.000294	2.938577	0.995617	-0.000118
 828	8.2287e+01	7.0506	18.427506	0.000314	3.141237	1.064280	-0.000126
 829	8.2386e+01	7.0073	18.334652	0.000233	2.330595	0.789627	-0.000093
 830	8.2486e+01	6.9720	18.201426	0.000334	3.343897	1.132943	-0.000134
 831	8.2585e+01	6.9191	18.116647	0.000213	2.127935	0.720964	-0.000085
 832	8.2684e+01	6.8870	17.983421	0.000334	3.343897	1.132943	-0.000134
 833	8.2784e+01	6.8485	17.918827	0.000162	1.621284	0.549306	-0.000065
 834	8.2883e+01	6.8068	17.773490	0.000365	3.647888	1.235938	-0.000146
 835	8.2983e+01	6.7650	17.704859	0.000172	1.722614	0.583637	-0.000069
 836	8.3082e+01	6.7265	17.539336	0.000415	4.154539	1.407596	-0.000166
 837	8.3182e+01	6.6864	17.458593	0.000203	2.026605	0.686632	-0.000081
 838	8.3281e+01	6.6463	17.373814	0.000213	2.127935	0.720964	-0.000085
 839	8.3381e+01	6.6078	17.228477	0.000365	3.647888	1.235938	-0.000146
 840	8.3481e+01	6.5597	17.111400	0.000294	2.938577	0.995617	-0.000118
 841	8.3580e+01	6.5276	17.054880	0.000142	1.418623	0.480643	-0.000057
 842	8.3680e+01	6.4811	16.966063	0.000223	2.229265	0.755295	-0.000089
 843	8.3779e+01	6.4586	16.873209	0.000233	2.330595	0.789627	-0.000093
 844	8.3879e+01	6.4137	16.768243	0.000263	2.634586	0.892622	-0.000105
 845	8.3978e+01	6.3768	16.651166	0.000294	2.938577	0.995617	-0.000118
 846	8.4078e+01	6.3447	16.538127	0.000284	2.837246	0.961285	-0.000114
 847	8.4177e+01	6.2918	16.433161	0.000263	2.634586	0.892622	-0.000105
 848	8.4276e+01	6.2565	16.308010	0.000314	3.141237	1.064280	-0.000126
 849	8.4376e+01	6.2132	16.158636	0.000375	3.749218	1.270270	-0.000150
 850	8.4475e+01	6.1747	16.073856	0.000213	2.127935	0.720964	-0.000085
 851	8.4575e+01	6.1362	15.960816	0.000284	2.837246	0.961285	-0.000114
 852	8.4674e+01	6.0929	15.827591	0.000334	3.343897	1.132943	-0.000134
 853	8.4774e+01	6.0592	15.742811	0.000213	2.127935	0.720964	-0.000085
 854	8.4874e+01	6.0046	15.613622	0.000324	3.242567	1.098612	-0.000130
 855	8.4973e+01	5.9726	15.524805	0.000223	2.229265	0.755295	-0.000089
 856	8.5073e+01	5.9308	15.452137	0.000182	1.823944	0.617969	-0.000073
 857	8.5172e+01	5.8923	15.310837	0.000355	3.546558	1.201606	-0.000142
 858	8.5272e+01	5.8554	15.254317	0.000142	1.418623	0.480643	-0.000057
 859	8.5371e+01	5.8009	15.129166	0.000314	3.141237	1.064280	-0.000126
 860	8.5471e+01	5.7656	14.999978	0.000324	3.242567	1.098612	-0.000130
 861	8.5570e+01	5.7335	14.919235	0.000203	2.026605	0.686632	-0.000081
 862	8.5669e+01	5.6918	14.866752	0.000132	1.317293	0.446311	-0.000053
 863	8.5769e+01	5.6549	14.761787	0.000263	2.634586	0.892622	-0.000105
 864	8.5868e+01	5.6100	14.632598	0.000324	3.242567	1.098612	-0.000130
 865	8.5968e+01	5.5811	14.491299	0.000355	3.546558	1.201606	-0.000142
 866	8.6067e+01	5.5362	14.349999	0.000355	3.546558	1.201606	-0.000142
 867	8.6167e+01	5.4993	14.261182	0.000223	2.229265	0.755295	-0.000089
 868	8.6266e+01	5.4608	14.144105	0.000294	2.938577	0.995617	-0.000118
 869	8.6366e+01	5.4159	14.039140	0.000263	2.634586	0.892622	-0.000105
 870	8.6466e+01	5.3694	13.922063	0.000294	2.938577	0.995617	-0.000118
 871	8.6565e+01	5.3405	13.829208	0.000233	2.330595	0.789627	-0.000093
 872	8.6665e+01	5.2892	13.700020	0.000324	3.242567	1.098612	-0.000130
 873	8.6764e+01	5.2571	13.582943	0.000294	2.938577	0.995617	-0.000118
 874	8.6864e+01	5.2202	13.490089	0.000233	2.330595	0.789627	-0.000093
 875	8.6963e+01	5.1688	13.413383	0.000193	1.925274	0.652301	-0.000077
 876	8.7063e+01	5.1351	13.280158	0.000334	3.343897	1.132943	-0.000134
 877	8.7162e+01	5.0999	13.146933	0.000334	3.343897	1.132943	-0.000134
 878	8.7261e+01	5.0565	13.074264	0.000182	1.823944	0.617969	-0.000073
 879	8.7361e+01	5.0068	13.017744	0.000142	1.418623	0.480643	-0.000057
 880	8.7460e+01	4.9763	12.908742	0.000274	2.735916	0.926953	-0.000110
 881	8.7560e+01	4.9346	12.819925	0.000223	2.229265	0.755295	-0.000089
 882	8.7659e+01	4.9057	12.698810	0.000304	3.039907	1.029948	-0.000122
 883	8.7759e+01	4.8656	12.533288	0.000415	4.154539	1.407596	-0.000166
 884	8.7859e+01	4.8143	12.424285	0.000274	2.735916	0.926953	-0.000110
 885	8.7958e+01	4.7678	12.323357	0.000253	2.533256	0.858290	-0.000101
 886	8.8058e+01	4.7389	12.198206	0.000314	3.141237	1.064280	-0.000126
 887	8.8157e+01	4.7036	12.121500	0.000193	1.925274	0.652301	-0.000077
 888	8.8257e+01	4.6587	11.984237	0.000345	3.445228	1.167275	-0.000138
 889	8.8356e+01	4.6106	11.859086	0.000314	3.141237	1.064280	-0.000126
 890	8.8456e+01	4.5785	11.750084	0.000274	2.735916	0.926953	-0.000110
 891	8.8555e+01	4.5368	11.637044	0.000284	2.837246	0.961285	-0.000114
 892	8.8654e+01	4.5015	11.524004	0.000284	2.837246	0.961285	-0.000114
 893	8.8754e+01	4.4550	11.419038	0.000263	2.634586	0.892622	-0.000105
 894	8.8853e+01	4.4148	11.330221	0.000223	2.229265	0.755295	-0.000089
 895	8.8953e+01	4.3731	11.229293	0.000253	2.533256	0.858290	-0.000101
 896	8.9052e+01	4.3346	11.071845	0.000395	3.951879	1.338933	-0.000158
 897	8.9152e+01	4.2961	11.015325	0.000142	1.418623	0.480643	-0.000057
 898	8.9251e+01	4.2528	10.938619	0.000193	1.925274	0.652301	-0.000077
 899	8.9351e+01	4.2159	10.849802	0.000223	2.229265	0.755295	-0.000089
 900	8.9451e+01	4.1854	10.684280	0.000415	4.154539	1.407596	-0.000166
 901	8.9550e+01	4.1485	10.599500	0.000213	2.127935	0.720964	-0.000085
 902	8.9650e+01	4.1004	10.450126	0.000375	3.749218	1.270270	-0.000150
 903	8.9749e+01	4.0619	10.308826	0.000355	3.546558	1.201606	-0.000142
 904	8.9849e+01	4.0154	10.252306	0.000142	1.418623	0.480643	-0.000057
 905	8.9948e+01	3.9833	10.102932	0.000375	3.749218	1.270270	-0.000150
 906	9.0047e+01	3.9416	10.010078	0.000233	2.330595	0.789627	-0.000093
 907	9.0147e+01	3.8999	9.909150	0.000253	2.533256	0.858290	-0.000101
 908	9.0246e+01	3.8566	9.783998	0.000314	3.141237	1.064280	-0.000126
 909	9.0346e+01	3.8165	9.703256	0.000203	2.026605	0.686632	-0.000081
 910	9.0445e+01	3.7796	9.565993	0.000345	3.445228	1.167275	-0.000138
 911	9.0545e+01	3.7314	9.489288	0.000193	1.925274	0.652301	-0.000077
 912	9.0644e+01	3.6962	9.343951	0.000365	3.647888	1.235938	-0.000146
 913	9.0744e+01	3.6593	9.263208	0.000203	2.026605	0.686632	-0.000081
 914	9.0844e+01	3.6191	9.170354	0.000233	2.330595	0.789627	-0.000093
 915	9.0943e+01	3.5790	9.020980	0.000375	3.749218	1.270270	-0.000150
 916	9.1043e+01	3.5389	8.952348	0.000172	1.722614	0.583637	-0.000069
 917	9.1142e+01	3.4988	8.883717	0.000172	1.722614	0.583637	-0.000069
 918	9.1242e+01	3.4684	8.742417	0.000355	3.546558	1.201606	-0.000142
 919	9.1341e+01	3.4218	8.649563	0.000233	2.330595	0.789627	-0.000093
 920	9.1441e+01	3.3865	8.520375	0.000324	3.242567	1.098612	-0.000130
 921	9.1540e+01	3.3416	8.383112	0.000345	3.445228	1.167275	-0.000138
 922	9.1639e+01	3.3031	8.322555	0.000152	1.519953	0.514974	-0.000061
 923	9.1739e+01	3.2582	8.209516	0.000284	2.837246	0.961285	-0.000114
 924	9.1838e+01	3.2229	8.043993	0.000415	4.154539	1.407596	-0.000166
 925	9.1938e+01	3.1860	7.926916	0.000294	2.938577	0.995617	-0.000118
 926	9.2037e+01	3.1411	7.834062	0.000233	2.330595	0.789627	-0.000093
 927	9.2137e+01	3.0994	7.737171	0.000243	2.431925	0.823959	-0.000097
 928	9.2237e+01	3.0673	7.607982	0.000324	3.242567	1.098612	-0.000130
 929	9.2336e+01	3.0208	7.478794	0.000324	3.242567	1.098612	-0.000130
 930	9.2436e+01	2.9742	7.365754	0.000284	2.837246	0.961285	-0.000114
 931	9.2535e+01	2.9438	7.333457	0.000081	0.810642	0.274653	-0.000032
 932	9.2635e+01	2.8988	7.184083	0.000375	3.749218	1.270270	-0.000150
 933	9.2734e+01	2.8636	7.054895	0.000324	3.242567	1.098612	-0.000130
 934	9.2834e+01	2.8299	6.982226	0.000182	1.823944	0.617969	-0.000073
 935	9.2933e+01	2.7866	6.877261	0.000263	2.634586	0.892622	-0.000105
 936	9.3032e+01	2.7481	6.744035	0.000334	3.343897	1.132943	-0.000134
 937	9.3132e+01	2.7144	6.630995	0.000284	2.837246	0.961285	-0.000114
 938	9.3231e+01	2.6646	6.473547	0.000395	3.951879	1.338933	-0.000158
 939	9.3331e+01	2.6342	6.412990	0.000152	1.519953	0.514974	-0.000061
 940	9.3430e+01	2.5908	6.255542	0.000395	3.951879	1.338933	-0.000158
 941	9.3530e+01	2.5507	6.174799	0.000203	2.026605	0.686632	-0.000081
 942	9.3629e+01	2.5010	6.025425	0.000375	3.749218	1.270270	-0.000150
 943	9.3729e+01	2.4593	5.920460	0.000263	2.634586	0.892622	-0.000105
 944	9.3829e+01	2.4320	5.867977	0.000132	1.317293	0.446311	-0.000053
 945	9.3928e+01	2.3807	5.722640	0.000365	3.647888	1.235938	-0.000146
 946	9.4028e+01	2.3486	5.585377	0.000345	3.445228	1.167275	-0.000138
 947	9.4127e+01	2.3085	5.492523	0.000233	2.330595	0.789627	-0.000093
 948	9.4227e+01	2.2604	5.399669	0.000233	2.330595	0.789627	-0.000093
 949	9.4326e+01	2.2251	5.286629	0.000284	2.837246	0.961285	-0.000114
 950	9.4425e+01	2.1866	5.177627	0.000274	2.735916	0.926953	-0.000110
 951	9.4525e+01	2.1481	5.044401	0.000334	3.343897	1.132943	-0.000134
 952	9.4624e+01	2.1048	4.935398	0.000274	2.735916	0.926953	-0.000110
 953	9.4724e+01	2.0598	4.874841	0.000152	1.519953	0.514974	-0.000061
 954	9.4823e+01	2.0261	4.786024	0.000223	2.229265	0.755295	-0.000089
 955	9.4923e+01	1.9909	4.640688	0.000365	3.647888	1.235938	-0.000146
 956	9.5022e+01	1.9459	4.483239	0.000395	3.951879	1.338933	-0.000158
 957	9.5122e+01	1.9106	4.410571	0.000182	1.823944	0.617969	-0.000073
 958	9.5222e+01	1.8705	4.289457	0.000304	3.039907	1.029948	-0.000122
 959	9.5321e+01	1.8320	4.176417	0.000284	2.837246	0.961285	-0.000114
 960	9.5421e+01	1.7903	4.063377	0.000284	2.837246	0.961285	-0.000114
 961	9.5520e+01	1.7518	3.950337	0.000284	2.837246	0.961285	-0.000114
 962	9.5620e+01	1.7133	3.817112	0.000334	3.343897	1.132943	-0.000134
 963	9.5719e+01	1.6716	3.728295	0.000223	2.229265	0.755295	-0.000089
 964	9.5819e+01	1.6427	3.570847	0.000395	3.951879	1.338933	-0.000158
 965	9.5918e+01	1.5946	3.469918	0.000253	2.533256	0.858290	-0.000101
 966	9.6017e+01	1.5513	3.409361	0.000152	1.519953	0.514974	-0.000061
 967	9.6117e+01	1.5064	3.300358	0.000274	2.735916	0.926953	-0.000110
 968	9.6216e+01	1.4695	3.163096	0.000345	3.445228	1.167275	-0.000138
 969	9.6316e+01	1.4358	3.094465	0.000172	1.722614	0.583637	-0.000069
 970	9.6415e+01	1.3973	2.961239	0.000334	3.343897	1.132943	-0.000134
 971	9.6515e+01	1.3411	2.868385	0.000233	2.330595	0.789627	-0.000093
 972	9.6615e+01	1.3139	2.787642	0.000203	2.026605	0.686632	-0.000081
 973	9.6714e+01	1.2722	2.666528	0.000304	3.039907	1.029948	-0.000122
 974	9.6814e+01	1.2321	2.529266	0.000345	3.445228	1.167275	-0.000138
 975	9.6913e+01	1.2032	2.383929	0.000365	3.647888	1.235938	-0.000146
 976	9.7013e+01	1.1502	2.295112	0.000223	2.229265	0.755295	-0.000089
 977	9.7112e+01	1.1101	2.165923	0.000324	3.242567	1.098612	-0.000130
 978	9.7212e+01	1.0652	2.069032	0.000243	2.431925	0.823959	-0.000097
 979	9.7311e+01	1.0315	1.976178	0.000233	2.330595	0.789627	-0.000093
 980	9.7410e+01	0.9962	1.838915	0.000345	3.445228	1.167275	-0.000138
 981	9.7510e+01	0.9561	1.737987	0.000253	2.533256	0.858290	-0.000101
 982	9.7609e+01	0.9144	1.624947	0.000284	2.837246	0.961285	-0.000114
 983	9.7709e+01	0.8567	1.495759	0.000324	3.242567	1.098612	-0.000130
 984	9.7808e+01	0.8326	1.443276	0.000132	1.317293	0.446311	-0.000053
 985	9.7908e+01	0.7957	1.314088	0.000324	3.242567	1.098612	-0.000130
 986	9.8007e+01	0.7460	1.184899	0.000324	3.242567	1.098612	-0.000130
 987	9.8107e+01	0.7043	1.079934	0.000263	2.634586	0.892622	-0.000105
 988	9.8207e+01	0.6690	0.958820	0.000304	3.039907	1.029948	-0.000122
 989	9.8306e+01	0.6273	0.902300	0.000142	1.418623	0.480643	-0.000057
 990	9.8406e+01	0.5871	0.785223	0.000294	2.938577	0.995617	-0.000118
 991	9.8505e+01	0.5647	0.664109	0.000304	3.039907	1.029948	-0.000122
 992	9.8605e+01	0.5150	0.522809	0.000355	3.546558	1.201606	-0.000142
 993	9.8704e+01	0.4813	0.389584	0.000334	3.343897	1.132943	-0.000134
 994	9.8803e+01	0.4299	0.316915	0.000182	1.823944	0.617969	-0.000073
 995	9.8903e+01	0.3962	0.195801	0.000304	3.039907	1.029948	-0.000122
 996	9.9002e+01	0.3481	0.054501	0.000355	3.546558	1.201606	-0.000142
 997	9.9102e+01	0.3176	-0.066613	0.000304	3.039907	1.029948	-0.000122
 998	9.9201e+01	0.2791	-0.159467	0.000233	2.330595	0.789627	-0.000093
 999	9.9301e+01	0.2294	-0.260395	0.000253	2.533256	0.858290	-0.000101
1000	9.9400e+01	0.1941	-0.369398	0.000274	2.735916	0.926953	-0.000110
1001	9.9500e+01	0.1620	-0.462252	0.000233	2.330595	0.789627	-0.000093
1002	9.9600e+01	0.1155	-0.595478	0.000334	3.343897	1.132943	-0.000134
1003	9.9699e+01	0.0754	-0.696406	0.000253	2.533256	0.858290	-0.000101
1004	9.9799e+01	0.0289	-0.817520	0.000304	3.039907	1.029948	-0.000122
1005	9.9898e+01	-0.0016	-0.918448	0.000253	2.533256	0.858290	-0.000101
1006	9.9998e+01	-0.0433	-0.979005	0.000152	1.519953	0.514974	-0.000061
1007	1.0010e+02	-0.0738	-1.075897	0.000243	2.431925	0.823959	-0.000097
1008	1.0020e+02	-0.1139	-1.168751	0.000233	2.330595	0.789627	-0.000093
1009	1.0030e+02	-0.1572	-1.301976	0.000334	3.343897	1.132943	-0.000134
1010	1.0040e+02	-0.1909	-1.427127	0.000314	3.141237	1.064280	-0.000126
1011	1.0050e+02	-0.2342	-1.511907	0.000213	2.127935	0.720964	-0.000085
1012	1.0059e+02	-0.2743	-1.653207	0.000355	3.546558	1.201606	-0.000142
1013	1.0069e+02	-0.3160	-1.786433	0.000334	3.343897	1.132943	-0.000134
1014	1.0079e+02	-0.3513	-1.875250	0.000223	2.229265	0.755295	-0.000089
1015	1.0089e+02	-0.3978	-1.976178	0.000253	2.533256	0.858290	-0.000101
1016	1.0099e+02	-0.4364	-2.093255	0.000294	2.938577	0.995617	-0.000118
1017	1.0109e+02	-0.4781	-2.214369	0.000304	3.039907	1.029948	-0.000122
1018	1.0119e+02	-0.5118	-2.291075	0.000193	1.925274	0.652301	-0.000077
1019	1.0129e+02	-0.5615	-2.416226	0.000314	3.141237	1.064280	-0.000126
1020	1.0139e+02	-0.5936	-2.525228	0.000274	2.735916	0.926953	-0.000110
1021	1.0149e+02	-0.6353	-2.634231	0.000274	2.735916	0.926953	-0.000110
1022	1.0159e+02	-0.6802	-2.747271	0.000284	2.837246	0.961285	-0.000114
1023	1.0169e+02	-0.7075	-2.856274	0.000274	2.735916	0.926953	-0.000110
1024	1.0179e+02	-0.7540	-2.937016	0.000203	2.026605	0.686632	-0.000081
1025	1.0189e+02	-0.8005	-3.074279	0.000345	3.445228	1.167275	-0.000138
1026	1.0199e+02	-0.8374	-3.114650	0.000101	1.013302	0.343316	-0.000041
1027	1.0209e+02	-0.8727	-3.247876	0.000334	3.343897	1.132943	-0.000134
1028	1.0219e+02	-0.9032	-3.348804	0.000253	2.533256	0.858290	-0.000101
1029	1.0229e+02	-0.9513	-3.498178	0.000375	3.749218	1.270270	-0.000150
1030	1.0239e+02	-0.9946	-3.582958	0.000213	2.127935	0.720964	-0.000085
1031	1.0248e+02	-1.0315	-3.663701	0.000203	2.026605	0.686632	-0.000081
1032	1.0258e+02	-1.0716	-3.837298	0.000436	4.357200	1.476259	-0.000174
1033	1.0268e+02	-1.1165	-3.942263	0.000263	2.634586	0.892622	-0.000105
1034	1.0278e+02	-1.1550	-4.035117	0.000233	2.330595	0.789627	-0.000093
1035	1.0288e+02	-1.1968	-4.144120	0.000274	2.735916	0.926953	-0.000110
1036	1.0298e+02	-1.2337	-4.289457	0.000365	3.647888	1.235938	-0.000146
1037	1.0308e+02	-1.2722	-4.370199	0.000203	2.026605	0.686632	-0.000081
1038	1.0318e+02	-1.3187	-4.507462	0.000345	3.445228	1.167275	-0.000138
1039	1.0328e+02	-1.3556	-4.604353	0.000243	2.431925	0.823959	-0.000097
1040	1.0338e+02	-1.4005	-4.705282	0.000253	2.533256	0.858290	-0.000101
1041	1.0348e+02	-1.4358	-4.794099	0.000223	2.229265	0.755295	-0.000089
1042	1.0358e+02	-1.4631	-4.915213	0.000304	3.039907	1.029948	-0.000122
1043	1.0368e+02	-1.5160	-5.004030	0.000223	2.229265	0.755295	-0.000089
1044	1.0378e+02	-1.5417	-5.113032	0.000274	2.735916	0.926953	-0.000110
1045	1.0388e+02	-1.5914	-5.165515	0.000132	1.317293	0.446311	-0.000053
1046	1.0398e+02	-1.6299	-5.314889	0.000375	3.749218	1.270270	-0.000150
1047	1.0408e+02	-1.6636	-5.472337	0.000395	3.951879	1.338933	-0.000158
1048	1.0418e+02	-1.7053	-5.565192	0.000233	2.330595	0.789627	-0.000093
1049	1.0428e+02	-1.7534	-5.654009	0.000223	2.229265	0.755295	-0.000089
1050	1.0438e+02	-1.7807	-5.783197	0.000324	3.242567	1.098612	-0.000130
1051	1.0447e+02	-1.8272	-5.920460	0.000345	3.445228	1.167275	-0.000138
1052	1.0457e+02	-1.8753	-5.968905	0.000122	1.215963	0.411979	-0.000049
1053	1.0467e+02	-1.9155	-6.114242	0.000365	3.647888	1.235938	-0.000146
1054	1.0477e+02	-1.9588	-6.207096	0.000233	2.330595	0.789627	-0.000093
1055	1.0487e+02	-1.9941	-6.291876	0.000213	2.127935	0.720964	-0.000085
1056	1.0497e+02	-2.0278	-6.437213	0.000365	3.647888	1.235938	-0.000146
1057	1.0507e+02	-2.0679	-6.554290	0.000294	2.938577	0.995617	-0.000118
1058	1.0517e+02	-2.1080	-6.683478	0.000324	3.242567	1.098612	-0.000130
1059	1.0527e+02	-2.1497	-6.768258	0.000213	2.127935	0.720964	-0.000085
1060	1.0537e+02	-2.1930	-6.869186	0.000253	2.533256	0.858290	-0.000101
1061	1.0547e+02	-2.2283	-6.978189	0.000274	2.735916	0.926953	-0.000110
1062	1.0557e+02	-2.2732	-7.095266	0.000294	2.938577	0.995617	-0.000118
1063	1.0567e+02	-2.3053	-7.163897	0.000172	1.722614	0.583637	-0.000069
1064	1.0577e+02	-2.3406	-7.240603	0.000193	1.925274	0.652301	-0.000077
1065	1.0587e+02	-2.3823	-7.373828	0.000334	3.343897	1.132943	-0.000134
1066	1.0597e+02	-2.4288	-7.515128	0.000355	3.546558	1.201606	-0.000142
1067	1.0607e+02	-2.4657	-7.616057	0.000253	2.533256	0.858290	-0.000101
1068	1.0617e+02	-2.5074	-7.749282	0.000334	3.343897	1.132943	-0.000134
1069	1.0627e+02	-2.5443	-7.846173	0.000243	2.431925	0.823959	-0.000097
1070	1.0637e+02	-2.5844	-7.947102	0.000253	2.533256	0.858290	-0.000101
1071	1.0647e+02	-2.6197	-8.052067	0.000263	2.634586	0.892622	-0.000105
1072	1.0656e+02	-2.6775	-8.181256	0.000324	3.242567	1.098612	-0.000130
1073	1.0666e+02	-2.7095	-8.270073	0.000223	2.229265	0.755295	-0.000089
1074	1.0676e+02	-2.7416	-8.403298	0.000334	3.343897	1.132943	-0.000134
1075	1.0686e+02	-2.7866	-8.467892	0.000162	1.621284	0.549306	-0.000065
1076	1.0696e+02	-2.8315	-8.593043	0.000314	3.141237	1.064280	-0.000126
1077	1.0706e+02	-2.8732	-8.722232	0.000324	3.242567	1.098612	-0.000130
1078	1.0716e+02	-2.9101	-8.790863	0.000172	1.722614	0.583637	-0.000069
1079	1.0726e+02	-2.9486	-8.920051	0.000324	3.242567	1.098612	-0.000130
1080	1.0736e+02	-2.9791	-9.016943	0.000243	2.431925	0.823959	-0.000097
1081	1.0746e+02	-3.0336	-9.077500	0.000152	1.519953	0.514974	-0.000061
1082	1.0756e+02	-3.0625	-9.190540	0.000284	2.837246	0.961285	-0.000114
1083	1.0766e+02	-3.1138	-9.343951	0.000385	3.850549	1.304601	-0.000154
1084	1.0776e+02	-3.1395	-9.452953	0.000274	2.735916	0.926953	-0.000110
1085	1.0786e+02	-3.1796	-9.553882	0.000253	2.533256	0.858290	-0.000101
1086	1.0796e+02	-3.2213	-9.642699	0.000223	2.229265	0.755295	-0.000089
1087	1.0806e+02	-3.2534	-9.735553	0.000233	2.330595	0.789627	-0.000093
1088	1.0816e+02	-3.2919	-9.868778	0.000334	3.343897	1.132943	-0.000134
1089	1.0826e+02	-3.3496	-9.977781	0.000274	2.735916	0.926953	-0.000110
1090	1.0836e+02	-3.3897	-10.078709	0.000253	2.533256	0.858290	-0.000101
1091	1.0845e+02	-3.4250	-10.183675	0.000263	2.634586	0.892622	-0.000105
1092	1.0855e+02	-3.4619	-10.272492	0.000223	2.229265	0.755295	-0.000089
1093	1.0865e+02	-3.4972	-10.397643	0.000314	3.141237	1.064280	-0.000126
1094	1.0875e+02	-3.5518	-10.526831	0.000324	3.242567	1.098612	-0.000130
1095	1.0885e+02	-3.5871	-10.643908	0.000294	2.938577	0.995617	-0.000118
1096	1.0895e+02	-3.6272	-10.724651	0.000203	2.026605	0.686632	-0.000081
1097	1.0905e+02	-3.6705	-10.821542	0.000243	2.431925	0.823959	-0.000097
1098	1.0915e+02	-3.7170	-10.938619	0.000294	2.938577	0.995617	-0.000118
1099	1.0925e+02	-3.7475	-11.043585	0.000263	2.634586	0.892622	-0.000105
1100	1.0935e+02	-3.7940	-11.120290	0.000193	1.925274	0.652301	-0.000077
1101	1.0945e+02	-3.8197	-11.205070	0.000213	2.127935	0.720964	-0.000085
1102	1.0955e+02	-3.8534	-11.386741	0.000456	4.559860	1.544922	-0.000183
1103	1.0965e+02	-3.8983	-11.479595	0.000233	2.330595	0.789627	-0.000093
1104	1.0975e+02	-3.9448	-11.612821	0.000334	3.343897	1.132943	-0.000134
1105	1.0985e+02	-3.9737	-11.713749	0.000253	2.533256	0.858290	-0.000101
1106	1.0995e+02	-4.0266	-11.798529	0.000213	2.127935	0.720964	-0.000085
1107	1.1005e+02	-4.0667	-11.931755	0.000334	3.343897	1.132943	-0.000134
1108	1.1015e+02	-4.1020	-12.016535	0.000213	2.127935	0.720964	-0.000085
1109	1.1025e+02	-4.1469	-12.117463	0.000253	2.533256	0.858290	-0.000101
1110	1.1035e+02	-4.1790	-12.234540	0.000294	2.938577	0.995617	-0.000118
1111	1.1044e+02	-4.2191	-12.387951	0.000385	3.850549	1.304601	-0.000154
1112	1.1054e+02	-4.2608	-12.476768	0.000223	2.229265	0.755295	-0.000089
1113	1.1064e+02	-4.2993	-12.565585	0.000223	2.229265	0.755295	-0.000089
1114	1.1074e+02	-4.3411	-12.698810	0.000334	3.343897	1.132943	-0.000134
1115	1.1084e+02	-4.3828	-12.779553	0.000203	2.026605	0.686632	-0.000081
1116	1.1094e+02	-4.4165	-12.896630	0.000294	2.938577	0.995617	-0.000118
1117	1.1104e+02	-4.4758	-13.017744	0.000304	3.039907	1.029948	-0.000122
1118	1.1114e+02	-4.5031	-13.094450	0.000193	1.925274	0.652301	-0.000077
1119	1.1124e+02	-4.5448	-13.175192	0.000203	2.026605	0.686632	-0.000081
1120	1.1134e+02	-4.5849	-13.280158	0.000263	2.634586	0.892622	-0.000105
1121	1.1144e+02	-4.6122	-13.417421	0.000345	3.445228	1.167275	-0.000138
1122	1.1154e+02	-4.6587	-13.530460	0.000284	2.837246	0.961285	-0.000114
1123	1.1164e+02	-4.7052	-13.643500	0.000284	2.837246	0.961285	-0.000114
1124	1.1174e+02	-4.7309	-13.712132	0.000172	1.722614	0.583637	-0.000069
1125	1.1184e+02	-4.7710	-13.817097	0.000263	2.634586	0.892622	-0.000105
1126	1.1194e+02	-4.8191	-13.958397	0.000355	3.546558	1.201606	-0.000142
1127	1.1204e+02	-4.8592	-14.043177	0.000213	2.127935	0.720964	-0.000085
1128	1.1214e+02	-4.9025	-14.176402	0.000334	3.343897	1.132943	-0.000134
1129	1.1224e+02	-4.9346	-14.261182	0.000213	2.127935	0.720964	-0.000085
1130	1.1234e+02	-4.9747	-14.370185	0.000274	2.735916	0.926953	-0.000110
1131	1.1244e+02	-5.0196	-14.503410	0.000334	3.343897	1.132943	-0.000134
1132	1.1253e+02	-5.0662	-14.612413	0.000274	2.735916	0.926953	-0.000110
1133	1.1263e+02	-5.0886	-14.668933	0.000142	1.418623	0.480643	-0.000057
1134	1.1273e+02	-5.1384	-14.826381	0.000395	3.951879	1.338933	-0.000158
1135	1.1283e+02	-5.1801	-14.886938	0.000152	1.519953	0.514974	-0.000061
1136	1.1293e+02	-5.2138	-15.008052	0.000304	3.039907	1.029948	-0.000122
1137	1.1303e+02	-5.2587	-15.100906	0.000233	2.330595	0.789627	-0.000093
1138	1.1313e+02	-5.2924	-15.153389	0.000132	1.317293	0.446311	-0.000053
1139	1.1323e+02	-5.3421	-15.347172	0.000486	4.863851	1.647917	-0.000195
1140	1.1333e+02	-5.3790	-15.444063	0.000243	2.431925	0.823959	-0.000097
1141	1.1343e+02	-5.4287	-15.512694	0.000172	1.722614	0.583637	-0.000069
1142	1.1353e+02	-5.4624	-15.613622	0.000253	2.533256	0.858290	-0.000101
1143	1.1363e+02	-5.4929	-15.815479	0.000507	5.066511	1.716581	-0.000203
1144	1.1373e+02	-5.5362	-15.839702	0.000061	0.607981	0.205990	-0.000024
1145	1.1383e+02	-5.5827	-15.952742	0.000284	2.837246	0.961285	-0.000114
1146	1.1393e+02	-5.6148	-16.077893	0.000314	3.141237	1.064280	-0.000126
1147	1.1403e+02	-5.6645	-16.154599	0.000193	1.925274	0.652301	-0.000077
1148	1.1413e+02	-5.6982	-16.243416	0.000223	2.229265	0.755295	-0.000089
1149	1.1423e+02	-5.7399	-16.380678	0.000345	3.445228	1.167275	-0.000138
1150	1.1433e+02	-5.7736	-16.477570	0.000243	2.431925	0.823959	-0.000097
1151	1.1442e+02	-5.8202	-16.570424	0.000233	2.330595	0.789627	-0.000093
1152	1.1452e+02	-5.8538	-16.679426	0.000274	2.735916	0.926953	-0.000110
1153	1.1462e+02	-5.8923	-16.808615	0.000324	3.242567	1.098612	-0.000130
1154	1.1472e+02	-5.9373	-16.857060	0.000122	1.215963	0.411979	-0.000049
1155	1.1482e+02	-5.9742	-17.006434	0.000375	3.749218	1.270270	-0.000150
1156	1.1492e+02	-6.0175	-17.115437	0.000274	2.735916	0.926953	-0.000110
1157	1.1502e+02	-6.0528	-17.212328	0.000243	2.431925	0.823959	-0.000097
1158	1.1512e+02	-6.0961	-17.329405	0.000294	2.938577	0.995617	-0.000118
1159	1.1522e+02	-6.1330	-17.450519	0.000304	3.039907	1.029948	-0.000122
1160	1.1532e+02	-6.1699	-17.527225	0.000193	1.925274	0.652301	-0.000077
1161	1.1542e+02	-6.2100	-17.612005	0.000213	2.127935	0.720964	-0.000085
1162	1.1552e+02	-6.2533	-17.733119	0.000304	3.039907	1.029948	-0.000122
1163	1.1562e+02	-6.2966	-17.878456	0.000365	3.647888	1.235938	-0.000146
1164	1.1572e+02	-6.3271	-17.955161	0.000193	1.925274	0.652301	-0.000077
1165	1.1582e+02	-6.3704	-18.039941	0.000213	2.127935	0.720964	-0.000085
1166	1.1592e+02	-6.4121	-18.161055	0.000304	3.039907	1.029948	-0.000122
1167	1.1602e+02	-6.4490	-18.245835	0.000213	2.127935	0.720964	-0.000085
1168	1.1612e+02	-6.4891	-18.354838	0.000274	2.735916	0.926953	-0.000110
1169	1.1622e+02	-6.5244	-18.439617	0.000213	2.127935	0.720964	-0.000085
1170	1.1632e+02	-6.5693	-18.564769	0.000314	3.141237	1.064280	-0.000126
1171	1.1642e+02	-6.6078	-18.681846	0.000294	2.938577	0.995617	-0.000118
1172	1.1651e+02	-6.6479	-18.786811	0.000263	2.634586	0.892622	-0.000105
1173	1.1661e+02	-6.6897	-18.863517	0.000193	1.925274	0.652301	-0.000077
1174	1.1671e+02	-6.7201	-18.992705	0.000324	3.242567	1.098612	-0.000130
1175	1.1681e+02	-6.7715	-19.093633	0.000253	2.533256	0.858290	-0.000101
1176	1.1691e+02	-6.8100	-19.202636	0.000274	2.735916	0.926953	-0.000110
1177	1.1701e+02	-6.8533	-19.303565	0.000253	2.533256	0.858290	-0.000101
1178	1.1711e+02	-6.8838	-19.416604	0.000284	2.837246	0.961285	-0.000114
1179	1.1721e+02	-6.9223	-19.489273	0.000182	1.823944	0.617969	-0.000073
1180	1.1731e+02	-6.9688	-19.626535	0.000345	3.445228	1.167275	-0.000138
1181	1.1741e+02	-7.0073	-19.719390	0.000233	2.330595	0.789627	-0.000093
1182	1.1751e+02	-7.0426	-19.792058	0.000182	1.823944	0.617969	-0.000073
1183	1.1761e+02	-7.0811	-19.929321	0.000345	3.445228	1.167275	-0.000138
1184	1.1771e+02	-7.1324	-19.997952	0.000172	1.722614	0.583637	-0.000069
1185	1.1781e+02	-7.1709	-20.110992	0.000284	2.837246	0.961285	-0.000114
1186	1.1791e+02	-7.2078	-20.179623	0.000172	1.722614	0.583637	-0.000069
1187	1.1801e+02	-7.2479	-20.296700	0.000294	2.938577	0.995617	-0.000118
1188	1.1811e+02	-7.2912	-20.381480	0.000213	2.127935	0.720964	-0.000085
1189	1.1821e+02	-7.3346	-20.490482	0.000274	2.735916	0.926953	-0.000110
1190	1.1831e+02	-7.3602	-20.579299	0.000223	2.229265	0.755295	-0.000089
1191	1.1841e+02	-7.4067	-20.656005	0.000193	1.925274	0.652301	-0.000077
1192	1.1850e+02	-7.4404	-20.829602	0.000436	4.357200	1.476259	-0.000174
1193	1.1860e+02	-7.4837	-20.886122	0.000142	1.418623	0.480643	-0.000057
1194	1.1870e+02	-7.5158	-20.999162	0.000284	2.837246	0.961285	-0.000114
1195	1.1880e+02	-7.5720	-21.075867	0.000193	1.925274	0.652301	-0.000077
1196	1.1890e+02	-7.6009	-21.196981	0.000304	3.039907	1.029948	-0.000122
1197	1.1900e+02	-7.6345	-21.330207	0.000334	3.343897	1.132943	-0.000134
1198	1.1910e+02	-7.6827	-21.406912	0.000193	1.925274	0.652301	-0.000077
1199	1.1920e+02	-7.7180	-21.491692	0.000213	2.127935	0.720964	-0.000085
1200	1.1930e+02	-7.7565	-21.649140	0.000395	3.951879	1.338933	-0.000158
1201	1.1940e+02	-7.8110	-21.713735	0.000162	1.621284	0.549306	-0.000065
1202	1.1950e+02	-7.8463	-21.794477	0.000203	2.026605	0.686632	-0.000081
1203	1.1960e+02	-7.8880	-21.911554	0.000294	2.938577	0.995617	-0.000118
1204	1.1970e+02	-7.9281	-21.980186	0.000172	1.722614	0.583637	-0.000069
1205	1.1980e+02	-7.9586	-22.153782	0.000436	4.357200	1.476259	-0.000174
1206	1.1990e+02	-8.0067	-22.202228	0.000122	1.215963	0.411979	-0.000049
1207	1.2000e+02	-8.0532	-22.355639	0.000385	3.850549	1.304601	-0.000154
1208	1.2010e+02	-8.0885	-22.412159	0.000142	1.418623	0.480643	-0.000057
1209	1.2020e+02	-8.1254	-22.496939	0.000213	2.127935	0.720964	-0.000085
1210	1.2030e+02	-8.1511	-22.634202	0.000345	3.445228	1.167275	-0.000138
1211	1.2039e+02	-8.2040	-22.702833	0.000172	1.722614	0.583637	-0.000069
1212	1.2049e+02	-8.2425	-22.836058	0.000334	3.343897	1.132943	-0.000134
1213	1.2059e+02	-8.2923	-22.880467	0.000111	1.114632	0.377648	-0.000045
1214	1.2069e+02	-8.3212	-22.989469	0.000274	2.735916	0.926953	-0.000110
1215	1.2079e+02	-8.3597	-23.122695	0.000334	3.343897	1.132943	-0.000134
1216	1.2089e+02	-8.4110	-23.215549	0.000233	2.330595	0.789627	-0.000093
1217	1.2099e+02	-8.4495	-23.292255	0.000193	1.925274	0.652301	-0.000077
1218	1.2109e+02	-8.4896	-23.425480	0.000334	3.343897	1.132943	-0.000134
1219	1.2119e+02	-8.5201	-23.486037	0.000152	1.519953	0.514974	-0.000061
1220	1.2129e+02	-8.5650	-23.603114	0.000294	2.938577	0.995617	-0.000118
1221	1.2139e+02	-8.5987	-23.728265	0.000314	3.141237	1.064280	-0.000126
1222	1.2149e+02	-8.6420	-23.817082	0.000223	2.229265	0.755295	-0.000089
1223	1.2159e+02	-8.6805	-23.913974	0.000243	2.431925	0.823959	-0.000097
1224	1.2169e+02	-8.7222	-24.031050	0.000294	2.938577	0.995617	-0.000118
1225	1.2179e+02	-8.7559	-24.095645	0.000162	1.621284	0.549306	-0.000065
1226	1.2189e+02	-8.7944	-24.220796	0.000314	3.141237	1.064280	-0.000126
1227	1.2199e+02	-8.8441	-24.317687	0.000243	2.431925	0.823959	-0.000097
1228	1.2209e+02	-8.8762	-24.454950	0.000345	3.445228	1.167275	-0.000138
1229	1.2219e+02	-8.9099	-24.539730	0.000213	2.127935	0.720964	-0.000085
1230	1.2229e+02	-8.9532	-24.567990	0.000071	0.709312	0.240321	-0.000028
1231	1.2239e+02	-8.9869	-24.701215	0.000334	3.343897	1.132943	-0.000134
1232	1.2248e+02	-9.0366	-24.850589	0.000375	3.749218	1.270270	-0.000150
1233	1.2258e+02	-9.0848	-24.903072	0.000132	1.317293	0.446311	-0.000053
1234	1.2268e+02	-9.1201	-24.967666	0.000162	1.621284	0.549306	-0.000065
1235	1.2278e+02	-9.1698	-25.133189	0.000415	4.154539	1.407596	-0.000166
1236	1.2288e+02	-9.2003	-25.213931	0.000203	2.026605	0.686632	-0.000081
1237	1.2298e+02	-9.2388	-25.306785	0.000233	2.330595	0.789627	-0.000093
1238	1.2308e+02	-9.2805	-25.375417	0.000172	1.722614	0.583637	-0.000069
1239	1.2318e+02	-9.3110	-25.472308	0.000243	2.431925	0.823959	-0.000097
1240	1.2328e+02	-9.3527	-25.585348	0.000284	2.837246	0.961285	-0.000114
1241	1.2338e+02	-9.3992	-25.690313	0.000263	2.634586	0.892622	-0.000105
1242	1.2348e+02	-9.4425	-25.799316	0.000274	2.735916	0.926953	-0.000110
1243	1.2358e+02	-9.4746	-25.896207	0.000243	2.431925	0.823959	-0.000097
1244	1.2368e+02	-9.5147	-26.025396	0.000324	3.242567	1.098612	-0.000130
1245	1.2378e+02	-9.5596	-26.126324	0.000253	2.533256	0.858290	-0.000101
1246	1.2388e+02	-9.5981	-26.251475	0.000314	3.141237	1.064280	-0.000126
1247	1.2398e+02	-9.6318	-26.320106	0.000172	1.722614	0.583637	-0.000069
1248	1.2408e+02	-9.6735	-26.364515	0.000111	1.114632	0.377648	-0.000045
1249	1.2418e+02	-9.7200	-26.465443	0.000253	2.533256	0.858290	-0.000101
1250	1.2428e+02	-9.7521	-26.550223	0.000213	2.127935	0.720964	-0.000085
1251	1.2438e+02	-9.7987	-26.671337	0.000304	3.039907	1.029948	-0.000122
1252	1.2447e+02	-9.8291	-26.760154	0.000223	2.229265	0.755295	-0.000089
1253	1.2457e+02	-9.8805	-26.844934	0.000213	2.127935	0.720964	-0.000085
1254	1.2467e+02	-9.9254	-26.978160	0.000334	3.343897	1.132943	-0.000134
1255	1.2477e+02	-9.9591	-27.026605	0.000122	1.215963	0.411979	-0.000049
1256	1.2487e+02	-10.0008	-27.139645	0.000284	2.837246	0.961285	-0.000114
1257	1.2497e+02	-10.0361	-27.224425	0.000213	2.127935	0.720964	-0.000085
1258	1.2507e+02	-10.0714	-27.349576	0.000314	3.141237	1.064280	-0.000126
1259	1.2517e+02	-10.1211	-27.462616	0.000284	2.837246	0.961285	-0.000114
1260	1.2527e+02	-10.1564	-27.519136	0.000142	1.418623	0.480643	-0.000057
1261	1.2537e+02	-10.1965	-27.640250	0.000304	3.039907	1.029948	-0.000122
1262	1.2547e+02	-10.2318	-27.773475	0.000334	3.343897	1.132943	-0.000134
1263	1.2557e+02	-10.2719	-27.882478	0.000274	2.735916	0.926953	-0.000110
1264	1.2567e+02	-10.3136	-28.011666	0.000324	3.242567	1.098612	-0.000130
1265	1.2577e+02	-10.3457	-28.096446	0.000213	2.127935	0.720964	-0.000085
1266	1.2587e+02	-10.3970	-28.193337	0.000243	2.431925	0.823959	-0.000097
1267	1.2597e+02	-10.4355	-28.257932	0.000162	1.621284	0.549306	-0.000065
1268	1.2607e+02	-10.4756	-28.334637	0.000193	1.925274	0.652301	-0.000077
1269	1.2617e+02	-10.5109	-28.455751	0.000304	3.039907	1.029948	-0.000122
1270	1.2627e+02	-10.5542	-28.532457	0.000193	1.925274	0.652301	-0.000077
1271	1.2636e+02	-10.5879	-28.609162	0.000193	1.925274	0.652301	-0.000077
1272	1.2646e+02	-10.6377	-28.786796	0.000446	4.458530	1.510591	-0.000179
1273	1.2656e+02	-10.6746	-28.831205	0.000111	1.114632	0.377648	-0.000045
1274	1.2666e+02	-10.7131	-28.928096	0.000243	2.431925	0.823959	-0.000097
1275	1.2676e+02	-10.7516	-29.004802	0.000193	1.925274	0.652301	-0.000077
1276	1.2686e+02	-10.7965	-29.109767	0.000263	2.634586	0.892622	-0.000105
1277	1.2696e+02	-10.8350	-29.202621	0.000233	2.330595	0.789627	-0.000093
1278	1.2706e+02	-10.8703	-29.331810	0.000324	3.242567	1.098612	-0.000130
1279	1.2716e+02	-10.9088	-29.432738	0.000253	2.533256	0.858290	-0.000101
1280	1.2726e+02	-10.9585	-29.549815	0.000294	2.938577	0.995617	-0.000118
1281	1.2736e+02	-10.9874	-29.674966	0.000314	3.141237	1.064280	-0.000126
1282	1.2746e+02	-11.0339	-29.759746	0.000213	2.127935	0.720964	-0.000085
1283	1.2756e+02	-11.0804	-29.852600	0.000233	2.330595	0.789627	-0.000093
1284	1.2766e+02	-11.1125	-29.937380	0.000213	2.127935	0.720964	-0.000085
1285	1.2776e+02	-11.1574	-29.989863	0.000132	1.317293	0.446311	-0.000053
1286	1.2786e+02	-11.1911	-30.098865	0.000274	2.735916	0.926953	-0.000110
1287	1.2796e+02	-11.2280	-30.163460	0.000162	1.621284	0.549306	-0.000065
1288	1.2806e+02	-11.2826	-30.276499	0.000284	2.837246	0.961285	-0.000114
1289	1.2816e+02	-11.3066	-30.409725	0.000334	3.343897	1.132943	-0.000134
1290	1.2826e+02	-11.3532	-30.486431	0.000193	1.925274	0.652301	-0.000077
1291	1.2835e+02	-11.3933	-30.583322	0.000243	2.431925	0.823959	-0.000097
1292	1.2845e+02	-11.4366	-30.708473	0.000314	3.141237	1.064280	-0.000126
1293	1.2855e+02	-11.4719	-30.805364	0.000243	2.431925	0.823959	-0.000097
1294	1.2865e+02	-11.5152	-30.865921	0.000152	1.519953	0.514974	-0.000061
1295	1.2875e+02	-11.5569	-30.978961	0.000284	2.837246	0.961285	-0.000114
1296	1.2885e+02	-11.5906	-31.059704	0.000203	2.026605	0.686632	-0.000081
1297	1.2895e+02	-11.6355	-31.132372	0.000182	1.823944	0.617969	-0.000073
1298	1.2905e+02	-11.6676	-31.305969	0.000436	4.357200	1.476259	-0.000174
1299	1.2915e+02	-11.7013	-31.362489	0.000142	1.418623	0.480643	-0.000057
1300	1.2925e+02	-11.7382	-31.491677	0.000324	3.242567	1.098612	-0.000130
1301	1.2935e+02	-11.7879	-31.572420	0.000203	2.026605	0.686632	-0.000081
1302	1.2945e+02	-11.8280	-31.661237	0.000223	2.229265	0.755295	-0.000089
1303	1.2955e+02	-11.8777	-31.746017	0.000213	2.127935	0.720964	-0.000085
1304	1.2965e+02	-11.9114	-31.830797	0.000213	2.127935	0.720964	-0.000085
1305	1.2975e+02	-11.9499	-31.923651	0.000233	2.330595	0.789627	-0.000093
1306	1.2985e+02	-11.9820	-32.048802	0.000314	3.141237	1.064280	-0.000126
1307	1.2995e+02	-12.0253	-32.137619	0.000223	2.229265	0.755295	-0.000089
1308	1.3005e+02	-12.0686	-32.206250	0.000172	1.722614	0.583637	-0.000069
1309	1.3015e+02	-12.1104	-32.339476	0.000334	3.343897	1.132943	-0.000134
1310	1.3025e+02	-12.1505	-32.408107	0.000172	1.722614	0.583637	-0.000069
1311	1.3034e+02	-12.1922	-32.480776	0.000182	1.823944	0.617969	-0.000073
1312	1.3044e+02	-12.2291	-32.622075	0.000355	3.546558	1.201606	-0.000142
1313	1.3054e+02	-12.2692	-32.714929	0.000233	2.330595	0.789627	-0.000093
1314	1.3064e+02	-12.3077	-32.783561	0.000172	1.722614	0.583637	-0.000069
1315	1.3074e+02	-12.3398	-32.872378	0.000223	2.229265	0.755295	-0.000089
1316	1.3084e+02	-12.3863	-33.013677	0.000355	3.546558	1.201606	-0.000142
1317	1.3094e+02	-12.4296	-33.114606	0.000253	2.533256	0.858290	-0.000101
1318	1.3104e+02	-12.4665	-33.227646	0.000284	2.837246	0.961285	-0.000114
1319	1.3114e+02	-12.5034	-33.316463	0.000223	2.229265	0.755295	-0.000089
1320	1.3124e+02	-12.5435	-33.348760	0.000081	0.810642	0.274653	-0.000032
1321	1.3134e+02	-12.5836	-33.457762	0.000274	2.735916	0.926953	-0.000110
1322	1.3144e+02	-12.6301	-33.522357	0.000162	1.621284	0.549306	-0.000065
1323	1.3154e+02	-12.6654	-33.675768	0.000385	3.850549	1.304601	-0.000154
1324	1.3164e+02	-12.7119	-33.720176	0.000111	1.114632	0.377648	-0.000045
1325	1.3174e+02	-12.7488	-33.788808	0.000172	1.722614	0.583637	-0.000069
1326	1.3184e+02	-12.7857	-33.950293	0.000405	4.053209	1.373264	-0.000162
1327	1.3194e+02	-12.8274	-33.982590	0.000081	0.810642	0.274653	-0.000032
1328	1.3204e+02	-12.8708	-34.099667	0.000294	2.938577	0.995617	-0.000118
1329	1.3214e+02	-12.9077	-34.208670	0.000274	2.735916	0.926953	-0.000110
1330	1.3224e+02	-12.9381	-34.289412	0.000203	2.026605	0.686632	-0.000081
1331	1.3234e+02	-12.9863	-34.382267	0.000233	2.330595	0.789627	-0.000093
1332	1.3243e+02	-13.0167	-34.458972	0.000193	1.925274	0.652301	-0.000077
1333	1.3253e+02	-13.0569	-34.632569	0.000436	4.357200	1.476259	-0.000174
1334	1.3263e+02	-13.0970	-34.676977	0.000111	1.114632	0.377648	-0.000045
1335	1.3273e+02	-13.1339	-34.834426	0.000395	3.951879	1.338933	-0.000158
1336	1.3283e+02	-13.1836	-34.947466	0.000284	2.837246	0.961285	-0.000114
1337	1.3293e+02	-13.2237	-34.995911	0.000122	1.215963	0.411979	-0.000049
1338	1.3303e+02	-13.2574	-35.129137	0.000334	3.343897	1.132943	-0.000134
1339	1.3313e+02	-13.2927	-35.189694	0.000152	1.519953	0.514974	-0.000061
1340	1.3323e+02	-13.3472	-35.274474	0.000213	2.127935	0.720964	-0.000085
1341	1.3333e+02	-13.3761	-35.326956	0.000132	1.317293	0.446311	-0.000053
1342	1.3343e+02	-13.4210	-35.411736	0.000213	2.127935	0.720964	-0.000085
1343	1.3353e+02	-13.4691	-35.500553	0.000223	2.229265	0.755295	-0.000089
1344	1.3363e+02	-13.5076	-35.609556	0.000274	2.735916	0.926953	-0.000110
1345	1.3373e+02	-13.5558	-35.694336	0.000213	2.127935	0.720964	-0.000085
1346	1.3383e+02	-13.5766	-35.791227	0.000243	2.431925	0.823959	-0.000097
1347	1.3393e+02	-13.6328	-35.916378	0.000314	3.141237	1.064280	-0.000126
1348	1.3403e+02	-13.6665	-35.928490	0.000030	0.303991	0.102995	-0.000012
1349	1.3413e+02	-13.7034	-36.069789	0.000355	3.546558	1.201606	-0.000142
1350	1.3423e+02	-13.7467	-36.162643	0.000233	2.330595	0.789627	-0.000093
1351	1.3432e+02	-13.7739	-36.259535	0.000243	2.431925	0.823959	-0.000097
1352	1.3442e+02	-13.8140	-36.376612	0.000294	2.938577	0.995617	-0.000118
1353	1.3452e+02	-13.8654	-36.481577	0.000263	2.634586	0.892622	-0.000105
1354	1.3462e+02	-13.9007	-36.574431	0.000233	2.330595	0.789627	-0.000093
1355	1.3472e+02	-13.9376	-36.667285	0.000233	2.330595	0.789627	-0.000093
1356	1.3482e+02	-13.9777	-36.764177	0.000243	2.431925	0.823959	-0.000097
1357	1.3492e+02	-14.0130	-36.836845	0.000182	1.823944	0.617969	-0.000073
1358	1.3502e+02	-14.0579	-36.869142	0.000081	0.810642	0.274653	-0.000032
1359	1.3512e+02	-14.0916	-36.982182	0.000284	2.837246	0.961285	-0.000114
1360	1.3522e+02	-14.1461	-37.091185	0.000274	2.735916	0.926953	-0.000110
1361	1.3532e+02	-14.1943	-37.167890	0.000193	1.925274	0.652301	-0.000077
1362	1.3542e+02	-14.2119	-37.236521	0.000172	1.722614	0.583637	-0.000069
1363	1.3552e+02	-14.2680	-37.337450	0.000253	2.533256	0.858290	-0.000101
1364	1.3562e+02	-14.2953	-37.414155	0.000193	1.925274	0.652301	-0.000077
1365	1.3572e+02	-14.3418	-37.527195	0.000284	2.837246	0.961285	-0.000114
1366	1.3582e+02	-14.3836	-37.616012	0.000223	2.229265	0.755295	-0.000089
1367	1.3592e+02	-14.4188	-37.733089	0.000294	2.938577	0.995617	-0.000118
1368	1.3602e+02	-14.4606	-37.817869	0.000213	2.127935	0.720964	-0.000085
1369	1.3612e+02	-14.4975	-37.951095	0.000334	3.343897	1.132943	-0.000134
1370	1.3622e+02	-14.5279	-38.039911	0.000223	2.229265	0.755295	-0.000089
1371	1.3631e+02	-14.5680	-38.092394	0.000132	1.317293	0.446311	-0.000053
1372	1.3641e+02	-14.6162	-38.217545	0.000314	3.141237	1.064280	-0.000126
1373	1.3651e+02	-14.6466	-38.322511	0.000263	2.634586	0.892622	-0.000105
1374	1.3661e+02	-14.6916	-38.411328	0.000223	2.229265	0.755295	-0.000089
1375	1.3671e+02	-14.7285	-38.443625	0.000081	0.810642	0.274653	-0.000032
1376	1.3681e+02	-14.7782	-38.556665	0.000284	2.837246	0.961285	-0.000114
1377	1.3691e+02	-14.8231	-38.592999	0.000091	0.911972	0.308984	-0.000037
1378	1.3701e+02	-14.8632	-38.693927	0.000253	2.533256	0.858290	-0.000101
1379	1.3711e+02	-14.9081	-38.819079	0.000314	3.141237	1.064280	-0.000126
1380	1.3721e+02	-14.9338	-38.907896	0.000223	2.229265	0.755295	-0.000089
1381	1.3731e+02	-14.9707	-38.972490	0.000162	1.621284	0.549306	-0.000065
1382	1.3741e+02	-15.0204	-39.073418	0.000253	2.533256	0.858290	-0.000101
1383	1.3751e+02	-15.0621	-39.138012	0.000162	1.621284	0.549306	-0.000065
1384	1.3761e+02	-15.0958	-39.242978	0.000263	2.634586	0.892622	-0.000105
1385	1.3771e+02	-15.1359	-39.388315	0.000365	3.647888	1.235938	-0.000146
1386	1.3781e+02	-15.1680	-39.396389	0.000020	0.202660	0.068663	-0.000008
1387	1.3791e+02	-15.2210	-39.561912	0.000415	4.154539	1.407596	-0.000166
1388	1.3801e+02	-15.2466	-39.630543	0.000172	1.722614	0.583637	-0.000069
1389	1.3811e+02	-15.2932	-39.739546	0.000274	2.735916	0.926953	-0.000110
1390	1.3821e+02	-15.3349	-39.848548	0.000274	2.735916	0.926953	-0.000110
1391	1.3831e+02	-15.3766	-39.985811	0.000345	3.445228	1.167275	-0.000138
1392	1.3840e+02	-15.4103	-40.014071	0.000071	0.709312	0.240321	-0.000028
1393	1.3850e+02	-15.4616	-40.155371	0.000355	3.546558	1.201606	-0.000142
1394	1.3860e+02	-15.5001	-40.159408	0.000010	0.101330	0.034332	-0.000004
1395	1.3870e+02	-15.5386	-40.248225	0.000223	2.229265	0.755295	-0.000089
1396	1.3880e+02	-15.5675	-40.316856	0.000172	1.722614	0.583637	-0.000069
1397	1.3890e+02	-15.6092	-40.437970	0.000304	3.039907	1.029948	-0.000122
1398	1.3900e+02	-15.6573	-40.522750	0.000213	2.127935	0.720964	-0.000085
1399	1.3910e+02	-15.7006	-40.599456	0.000193	1.925274	0.652301	-0.000077
1400	1.3920e+02	-15.7407	-40.700384	0.000253	2.533256	0.858290	-0.000101
1401	1.3930e+02	-15.7744	-40.781127	0.000203	2.026605	0.686632	-0.000081
1402	1.3940e+02	-15.8209	-40.918389	0.000345	3.445228	1.167275	-0.000138
1403	1.3950e+02	-15.8562	-40.999132	0.000203	2.026605	0.686632	-0.000081
1404	1.3960e+02	-15.8947	-41.128320	0.000324	3.242567	1.098612	-0.000130
1405	1.3970e+02	-15.9348	-41.168692	0.000101	1.013302	0.343316	-0.000041
1406	1.3980e+02	-15.9653	-41.297880	0.000324	3.242567	1.098612	-0.000130
1407	1.3990e+02	-16.0118	-41.423031	0.000314	3.141237	1.064280	-0.000126
1408	1.4000e+02	-16.0520	-41.503774	0.000203	2.026605	0.686632	-0.000081
1409	1.4010e+02	-16.0937	-41.548182	0.000111	1.114632	0.377648	-0.000045
1410	1.4020e+02	-16.1257	-41.649111	0.000253	2.533256	0.858290	-0.000101
1411	1.4029e+02	-16.1659	-41.709668	0.000152	1.519953	0.514974	-0.000061
1412	1.4039e+02	-16.2172	-41.818671	0.000274	2.735916	0.926953	-0.000110
1413	1.4049e+02	-16.2541	-41.879228	0.000152	1.519953	0.514974	-0.000061
1414	1.4059e+02	-16.2926	-41.980156	0.000253	2.533256	0.858290	-0.000101
1415	1.4069e+02	-16.3327	-42.068973	0.000223	2.229265	0.755295	-0.000089
1416	1.4079e+02	-16.3664	-42.145679	0.000193	1.925274	0.652301	-0.000077
1417	1.4089e+02	-16.4081	-42.226421	0.000203	2.026605	0.686632	-0.000081
1418	1.4099e+02	-16.4482	-42.323313	0.000243	2.431925	0.823959	-0.000097
1419	1.4109e+02	-16.4947	-42.387907	0.000162	1.621284	0.549306	-0.000065
1420	1.4119e+02	-16.5300	-42.517095	0.000324	3.242567	1.098612	-0.000130
1421	1.4129e+02	-16.5749	-42.593801	0.000193	1.925274	0.652301	-0.000077
1422	1.4139e+02	-16.6166	-42.674543	0.000203	2.026605	0.686632	-0.000081
1423	1.4149e+02	-16.6503	-42.791620	0.000294	2.938577	0.995617	-0.000118
1424	1.4159e+02	-16.6936	-42.888512	0.000243	2.431925	0.823959	-0.000097
1425	1.4169e+02	-16.7209	-43.025774	0.000345	3.445228	1.167275	-0.000138
1426	1.4179e+02	-16.7674	-43.126703	0.000253	2.533256	0.858290	-0.000101
1427	1.4189e+02	-16.8092	-43.215520	0.000223	2.229265	0.755295	-0.000089
1428	1.4199e+02	-16.8460	-43.263965	0.000122	1.215963	0.411979	-0.000049
1429	1.4209e+02	-16.8829	-43.360856	0.000243	2.431925	0.823959	-0.000097
1430	1.4219e+02	-16.9279	-43.433525	0.000182	1.823944	0.617969	-0.000073
1431	1.4228e+02	-16.9712	-43.510230	0.000193	1.925274	0.652301	-0.000077
1432	1.4238e+02	-17.0113	-43.586936	0.000193	1.925274	0.652301	-0.000077
1433	1.4248e+02	-17.0514	-43.655567	0.000172	1.722614	0.583637	-0.000069
1434	1.4258e+02	-17.0899	-43.780719	0.000314	3.141237	1.064280	-0.000126
1435	1.4268e+02	-17.1332	-43.877610	0.000243	2.431925	0.823959	-0.000097
1436	1.4278e+02	-17.1653	-43.970464	0.000233	2.330595	0.789627	-0.000093
1437	1.4288e+02	-17.2070	-44.071392	0.000253	2.533256	0.858290	-0.000101
1438	1.4298e+02	-17.2535	-44.168284	0.000243	2.431925	0.823959	-0.000097
1439	1.4308e+02	-17.2920	-44.232878	0.000162	1.621284	0.549306	-0.000065
1440	1.4318e+02	-17.3241	-44.313620	0.000203	2.026605	0.686632	-0.000081
1441	1.4328e+02	-17.3706	-44.422623	0.000274	2.735916	0.926953	-0.000110
1442	1.4338e+02	-17.3931	-44.543737	0.000304	3.039907	1.029948	-0.000122
1443	1.4348e+02	-17.4524	-44.676963	0.000334	3.343897	1.132943	-0.000134
1444	1.4358e+02	-17.4813	-44.761742	0.000213	2.127935	0.720964	-0.000085
1445	1.4368e+02	-17.5214	-44.826337	0.000162	1.621284	0.549306	-0.000065
1446	1.4378e+02	-17.5663	-44.963599	0.000345	3.445228	1.167275	-0.000138
1447	1.4388e+02	-17.6049	-45.016082	0.000132	1.317293	0.446311	-0.000053
1448	1.4398e+02	-17.6353	-45.117010	0.000253	2.533256	0.858290	-0.000101
1449	1.4408e+02	-17.6947	-45.185642	0.000172	1.722614	0.583637	-0.000069
1450	1.4418e+02	-17.7252	-45.246199	0.000152	1.519953	0.514974	-0.000061
1451	1.4428e+02	-17.7605	-45.322904	0.000193	1.925274	0.652301	-0.000077
1452	1.4437e+02	-17.7974	-45.427870	0.000263	2.634586	0.892622	-0.000105
1453	1.4447e+02	-17.8423	-45.496501	0.000172	1.722614	0.583637	-0.000069
1454	1.4457e+02	-17.8824	-45.593392	0.000243	2.431925	0.823959	-0.000097
1455	1.4467e+02	-17.9273	-45.698358	0.000263	2.634586	0.892622	-0.000105
1456	1.4477e+02	-17.9754	-45.795249	0.000243	2.431925	0.823959	-0.000097
1457	1.4487e+02	-18.0139	-45.851769	0.000142	1.418623	0.480643	-0.000057
1458	1.4497e+02	-18.0492	-45.989032	0.000345	3.445228	1.167275	-0.000138
1459	1.4507e+02	-18.0829	-46.106109	0.000294	2.938577	0.995617	-0.000118
1460	1.4517e+02	-18.1198	-46.170703	0.000162	1.621284	0.549306	-0.000065
1461	1.4527e+02	-18.1695	-46.307965	0.000345	3.445228	1.167275	-0.000138
1462	1.4537e+02	-18.2048	-46.437154	0.000324	3.242567	1.098612	-0.000130
1463	1.4547e+02	-18.2353	-46.505785	0.000172	1.722614	0.583637	-0.000069
1464	1.4557e+02	-18.2866	-46.570379	0.000162	1.621284	0.549306	-0.000065
1465	1.4567e+02	-18.3316	-46.687456	0.000294	2.938577	0.995617	-0.000118
1466	1.4577e+02	-18.3588	-46.796459	0.000274	2.735916	0.926953	-0.000110
1467	1.4587e+02	-18.4054	-46.840867	0.000111	1.114632	0.377648	-0.000045
1468	1.4597e+02	-18.4407	-46.909499	0.000172	1.722614	0.583637	-0.000069
1469	1.4607e+02	-18.4840	-47.026576	0.000294	2.938577	0.995617	-0.000118
1470	1.4617e+02	-18.5289	-47.095207	0.000172	1.722614	0.583637	-0.000069
1471	1.4626e+02	-18.5690	-47.200172	0.000263	2.634586	0.892622	-0.000105
1472	1.4636e+02	-18.6091	-47.272841	0.000182	1.823944	0.617969	-0.000073
1473	1.4646e+02	-18.6476	-47.381844	0.000274	2.735916	0.926953	-0.000110
1474	1.4656e+02	-18.6861	-47.470661	0.000223	2.229265	0.755295	-0.000089
1475	1.4666e+02	-18.7182	-47.563515	0.000233	2.330595	0.789627	-0.000093
1476	1.4676e+02	-18.7663	-47.599849	0.000091	0.911972	0.308984	-0.000037
1477	1.4686e+02	-18.8064	-47.773446	0.000436	4.357200	1.476259	-0.000174
1478	1.4696e+02	-18.8513	-47.862263	0.000223	2.229265	0.755295	-0.000089
1479	1.4706e+02	-18.8770	-47.963191	0.000253	2.533256	0.858290	-0.000101
1480	1.4716e+02	-18.9203	-48.076231	0.000284	2.837246	0.961285	-0.000114
1481	1.4726e+02	-18.9588	-48.245791	0.000426	4.255870	1.441928	-0.000170
1482	1.4736e+02	-18.9957	-48.330570	0.000213	2.127935	0.720964	-0.000085
1483	1.4746e+02	-19.0390	-48.383053	0.000132	1.317293	0.446311	-0.000053
1484	1.4756e+02	-19.0759	-48.467833	0.000213	2.127935	0.720964	-0.000085
1485	1.4766e+02	-19.1128	-48.597021	0.000324	3.242567	1.098612	-0.000130
1486	1.4776e+02	-19.1626	-48.641430	0.000111	1.114632	0.377648	-0.000045
1487	1.4786e+02	-19.1962	-48.689876	0.000122	1.215963	0.411979	-0.000049
1488	1.4796e+02	-19.2348	-48.831175	0.000355	3.546558	1.201606	-0.000142
1489	1.4806e+02	-19.2829	-48.903844	0.000182	1.823944	0.617969	-0.000073
1490	1.4816e+02	-19.3150	-49.024958	0.000304	3.039907	1.029948	-0.000122
1491	1.4825e+02	-19.3615	-49.113775	0.000223	2.229265	0.755295	-0.000089
1492	1.4835e+02	-19.4032	-49.230852	0.000294	2.938577	0.995617	-0.000118
1493	1.4845e+02	-19.4305	-49.307557	0.000193	1.925274	0.652301	-0.000077
1494	1.4855e+02	-19.4738	-49.444820	0.000345	3.445228	1.167275	-0.000138
1495	1.4865e+02	-19.5139	-49.541711	0.000243	2.431925	0.823959	-0.000097
1496	1.4875e+02	-19.5604	-49.674937	0.000334	3.343897	1.132943	-0.000134
1497	1.4885e+02	-19.5925	-49.767791	0.000233	2.330595	0.789627	-0.000093
1498	1.4895e+02	-19.6310	-49.884868	0.000294	2.938577	0.995617	-0.000118
1499	1.4905e+02	-19.6727	-50.018093	0.000334	3.343897	1.132943	-0.000134
1500	1.4915e+02	-19.7144	-50.098836	0.000203	2.026605	0.686632	-0.000081
1501	1.4925e+02	-19.7577	-50.211876	0.000284	2.837246	0.961285	-0.000114
1502	1.4935e+02	-19.7978	-50.332990	0.000304	3.039907	1.029948	-0.000122
1503	1.4945e+02	-19.8315	-50.425844	0.000233	2.330595	0.789627	-0.000093
1504	1.4955e+02	-19.8764	-50.502550	0.000193	1.925274	0.652301	-0.000077
1505	1.4965e+02	-19.9198	-50.571181	0.000172	1.722614	0.583637	-0.000069
1506	1.4975e+02	-19.9567	-50.696332	0.000314	3.141237	1.064280	-0.000126
1507	1.4985e+02	-20.0048	-50.797260	0.000253	2.533256	0.858290	-0.000101
1508	1.4995e+02	-19.9534	-50.744778	0.000132	1.317293	0.446311	0.000053
1509	1.5005e+02	-19.9117	-50.704406	0.000101	1.013302	0.343316	0.000041
1510	1.5015e+02	-19.8748	-50.639812	0.000162	1.621284	0.549306	0.000065
1511	1.5025e+02	-19.8363	-50.579255	0.000152	1.519953	0.514974	0.000061
1512	1.5034e+02	-19.8026	-50.534847	0.000111	1.114632	0.377648	0.000045
1513	1.5044e+02	-19.7593	-50.474290	0.000152	1.519953	0.514974	0.000061
1514	1.5054e+02	-19.7176	-50.425844	0.000122	1.215963	0.411979	0.000049
1515	1.5064e+02	-19.6663	-50.409695	0.000041	0.405321	0.137326	0.000016
1516	1.5074e+02	-19.6390	-50.312804	0.000243	2.431925	0.823959	0.000097
1517	1.5084e+02	-19.5941	-50.280507	0.000081	0.810642	0.274653	0.000032
1518	1.5094e+02	-19.5524	-50.228024	0.000132	1.317293	0.446311	0.000053
1519	1.5104e+02	-19.5267	-50.171504	0.000142	1.418623	0.480643	0.000057
1520	1.5114e+02	-19.4802	-50.062502	0.000274	2.735916	0.926953	0.000110
1521	1.5124e+02	-19.4321	-50.005982	0.000142	1.418623	0.480643	0.000057
1522	1.5134e+02	-19.3952	-49.941388	0.000162	1.621284	0.549306	0.000065
1523	1.5144e+02	-19.3679	-49.840459	0.000253	2.533256	0.858290	0.000101
1524	1.5154e+02	-19.3150	-49.711271	0.000324	3.242567	1.098612	0.000130
1525	1.5164e+02	-19.2893	-49.662825	0.000122	1.215963	0.411979	0.000049
1526	1.5174e+02	-19.2444	-49.586120	0.000193	1.925274	0.652301	0.000077
1527	1.5184e+02	-19.2043	-49.529600	0.000142	1.418623	0.480643	0.000057
1528	1.5194e+02	-19.1545	-49.473080	0.000142	1.418623	0.480643	0.000057
1529	1.5204e+02	-19.1209	-49.368114	0.000263	2.634586	0.892622	0.000105
1530	1.5214e+02	-19.0840	-49.315632	0.000132	1.317293	0.446311	0.000053
1531	1.5224e+02	-19.0374	-49.279297	0.000091	0.911972	0.308984	0.000037
1532	1.5233e+02	-18.9989	-49.206629	0.000182	1.823944	0.617969	0.000073
1533	1.5243e+02	-18.9652	-49.133960	0.000182	1.823944	0.617969	0.000073
1534	1.5253e+02	-18.9235	-49.045144	0.000223	2.229265	0.755295	0.000089
1535	1.5263e+02	-18.8770	-49.008809	0.000091	0.911972	0.308984	0.000037
1536	1.5273e+02	-18.8369	-48.911918	0.000243	2.431925	0.823959	0.000097
1537	1.5283e+02	-18.8064	-48.855398	0.000142	1.418623	0.480643	0.000057
1538	1.5293e+02	-18.7679	-48.774655	0.000203	2.026605	0.686632	0.000081
1539	1.5303e+02	-18.7198	-48.718136	0.000142	1.418623	0.480643	0.000057
1540	1.5313e+02	-18.6797	-48.649504	0.000172	1.722614	0.583637	0.000069
1541	1.5323e+02	-18.6476	-48.532427	0.000294	2.938577	0.995617	0.000118
1542	1.5333e+02	-18.6011	-48.419387	0.000284	2.837246	0.961285	0.000114
1543	1.5343e+02	-18.5610	-48.354793	0.000162	1.621284	0.549306	0.000065
1544	1.5353e+02	-18.5305	-48.286162	0.000172	1.722614	0.583637	0.000069
1545	1.5363e+02	-18.4840	-48.201382	0.000213	2.127935	0.720964	0.000085
1546	1.5373e+02	-18.4439	-48.124677	0.000193	1.925274	0.652301	0.000077
1547	1.5383e+02	-18.4006	-48.047971	0.000193	1.925274	0.652301	0.000077
1548	1.5393e+02	-18.3685	-47.999525	0.000122	1.215963	0.411979	0.000049
1549	1.5403e+02	-18.3219	-47.902634	0.000243	2.431925	0.823959	0.000097
1550	1.5413e+02	-18.2770	-47.862263	0.000101	1.013302	0.343316	0.000041
1551	1.5422e+02	-18.2385	-47.749223	0.000284	2.837246	0.961285	0.000114
1552	1.5432e+02	-18.2129	-47.725000	0.000061	0.607981	0.205990	0.000024
1553	1.5442e+02	-18.1615	-47.636183	0.000223	2.229265	0.755295	0.000089
1554	1.5452e+02	-18.1214	-47.579663	0.000142	1.418623	0.480643	0.000057
1555	1.5462e+02	-18.0845	-47.490846	0.000223	2.229265	0.755295	0.000089
1556	1.5472e+02	-18.0380	-47.389918	0.000253	2.533256	0.858290	0.000101
1557	1.5482e+02	-18.0075	-47.321287	0.000172	1.722614	0.583637	0.000069
1558	1.5492e+02	-17.9658	-47.240544	0.000203	2.026605	0.686632	0.000081
1559	1.5502e+02	-17.9225	-47.163838	0.000193	1.925274	0.652301	0.000077
1560	1.5512e+02	-17.8792	-47.091170	0.000182	1.823944	0.617969	0.000073
1561	1.5522e+02	-17.8471	-46.925647	0.000415	4.154539	1.407596	0.000166
1562	1.5532e+02	-17.8006	-46.897387	0.000071	0.709312	0.240321	0.000028
1563	1.5542e+02	-17.7653	-46.816645	0.000203	2.026605	0.686632	0.000081
1564	1.5552e+02	-17.7284	-46.731865	0.000213	2.127935	0.720964	0.000085
1565	1.5562e+02	-17.6899	-46.610751	0.000304	3.039907	1.029948	0.000122
1566	1.5572e+02	-17.6401	-46.566342	0.000111	1.114632	0.377648	0.000045
1567	1.5582e+02	-17.6049	-46.530008	0.000091	0.911972	0.308984	0.000037
1568	1.5592e+02	-17.5615	-46.493674	0.000091	0.911972	0.308984	0.000037
1569	1.5602e+02	-17.5311	-46.412931	0.000203	2.026605	0.686632	0.000081
1570	1.5612e+02	-17.4861	-46.332188	0.000203	2.026605	0.686632	0.000081
1571	1.5622e+02	-17.4460	-46.259520	0.000182	1.823944	0.617969	0.000073
1572	1.5631e+02	-17.4027	-46.158591	0.000253	2.533256	0.858290	0.000101
1573	1.5641e+02	-17.3658	-46.065737	0.000233	2.330595	0.789627	0.000093
1574	1.5651e+02	-17.3257	-46.021329	0.000111	1.114632	0.377648	0.000045
1575	1.5661e+02	-17.3017	-45.928475	0.000233	2.330595	0.789627	0.000093
1576	1.5671e+02	-17.2471	-45.847732	0.000203	2.026605	0.686632	0.000081
1577	1.5681e+02	-17.2134	-45.742766	0.000263	2.634586	0.892622	0.000105
1578	1.5691e+02	-17.1733	-45.633764	0.000274	2.735916	0.926953	0.000110
1579	1.5701e+02	-17.1252	-45.520724	0.000284	2.837246	0.961285	0.000114
1580	1.5711e+02	-17.0931	-45.439981	0.000203	2.026605	0.686632	0.000081
1581	1.5721e+02	-17.0530	-45.363276	0.000193	1.925274	0.652301	0.000077
1582	1.5731e+02	-17.0017	-45.298682	0.000162	1.621284	0.549306	0.000065
1583	1.5741e+02	-16.9760	-45.226013	0.000182	1.823944	0.617969	0.000073
1584	1.5751e+02	-16.9263	-45.092788	0.000334	3.343897	1.132943	0.000134
1585	1.5761e+02	-16.8862	-45.068565	0.000061	0.607981	0.205990	0.000024
1586	1.5771e+02	-16.8428	-45.020119	0.000122	1.215963	0.411979	0.000049
1587	1.5781e+02	-16.8059	-44.947451	0.000182	1.823944	0.617969	0.000073
1588	1.5791e+02	-16.7690	-44.870745	0.000193	1.925274	0.652301	0.000077
1589	1.5801e+02	-16.7161	-44.773854	0.000243	2.431925	0.823959	0.000097
1590	1.5811e+02	-16.6936	-44.689074	0.000213	2.127935	0.720964	0.000085
1591	1.5821e+02	-16.6487	-44.640628	0.000122	1.215963	0.411979	0.000049
1592	1.5830e+02	-16.6070	-44.515477	0.000314	3.141237	1.064280	0.000126
1593	1.5840e+02	-16.5733	-44.446846	0.000172	1.722614	0.583637	0.000069
1594	1.5850e+02	-16.5220	-44.353992	0.000233	2.330595	0.789627	0.000093
1595	1.5860e+02	-16.5011	-44.269212	0.000213	2.127935	0.720964	0.000085
1596	1.5870e+02	-16.4546	-44.184432	0.000213	2.127935	0.720964	0.000085
1597	1.5880e+02	-16.4113	-44.043132	0.000355	3.546558	1.201606	0.000142
1598	1.5890e+02	-16.3728	-44.002761	0.000101	1.013302	0.343316	0.000041
1599	1.5900e+02	-16.3311	-43.885684	0.000294	2.938577	0.995617	0.000118
1600	1.5910e+02	-16.2942	-43.804941	0.000203	2.026605	0.686632	0.000081
1601	1.5920e+02	-16.2557	-43.732273	0.000182	1.823944	0.617969	0.000073
1602	1.5930e+02	-16.2124	-43.663642	0.000172	1.722614	0.583637	0.000069
1603	1.5940e+02	-16.1659	-43.615196	0.000122	1.215963	0.411979	0.000049
1604	1.5950e+02	-16.1322	-43.550602	0.000162	1.621284	0.549306	0.000065
1605	1.5960e+02	-16.0856	-43.490045	0.000152	1.519953	0.514974	0.000061
1606	1.5970e+02	-16.0536	-43.381042	0.000274	2.735916	0.926953	0.000110
1607	1.5980e+02	-16.0135	-43.344708	0.000091	0.911972	0.308984	0.000037
1608	1.5990e+02	-15.9637	-43.263965	0.000203	2.026605	0.686632	0.000081
1609	1.6000e+02	-15.9348	-43.187260	0.000193	1.925274	0.652301	0.000077
1610	1.6010e+02	-15.8947	-43.082294	0.000263	2.634586	0.892622	0.000105
1611	1.6019e+02	-15.8498	-43.025774	0.000142	1.418623	0.480643	0.000057
1612	1.6029e+02	-15.8097	-42.928883	0.000243	2.431925	0.823959	0.000097
1613	1.6039e+02	-15.7712	-42.848140	0.000203	2.026605	0.686632	0.000081
1614	1.6049e+02	-15.7359	-42.702803	0.000365	3.647888	1.235938	0.000146
1615	1.6059e+02	-15.6958	-42.609949	0.000233	2.330595	0.789627	0.000093
1616	1.6069e+02	-15.6525	-42.509021	0.000253	2.533256	0.858290	0.000101
1617	1.6079e+02	-15.6108	-42.464612	0.000111	1.114632	0.377648	0.000045
1618	1.6089e+02	-15.5707	-42.355610	0.000274	2.735916	0.926953	0.000110
1619	1.6099e+02	-15.5354	-42.266793	0.000223	2.229265	0.755295	0.000089
1620	1.6109e+02	-15.5001	-42.226421	0.000101	1.013302	0.343316	0.000041
1621	1.6119e+02	-15.4600	-42.161827	0.000162	1.621284	0.549306	0.000065
1622	1.6129e+02	-15.4215	-42.073010	0.000223	2.229265	0.755295	0.000089
1623	1.6139e+02	-15.3702	-42.036676	0.000091	0.911972	0.308984	0.000037
1624	1.6149e+02	-15.3300	-41.939785	0.000243	2.431925	0.823959	0.000097
1625	1.6159e+02	-15.2980	-41.859042	0.000203	2.026605	0.686632	0.000081
1626	1.6169e+02	-15.2498	-41.778299	0.000203	2.026605	0.686632	0.000081
1627	1.6179e+02	-15.2194	-41.681408	0.000243	2.431925	0.823959	0.000097
1628	1.6189e+02	-15.1744	-41.600665	0.000203	2.026605	0.686632	0.000081
1629	1.6199e+02	-15.1375	-41.479551	0.000304	3.039907	1.029948	0.000122
1630	1.6209e+02	-15.0942	-41.435143	0.000111	1.114632	0.377648	0.000045
1631	1.6219e+02	-15.0525	-41.277694	0.000395	3.951879	1.338933	0.000158
1632	1.6228e+02	-15.0156	-41.225212	0.000132	1.317293	0.446311	0.000053
1633	1.6238e+02	-14.9803	-41.067763	0.000395	3.951879	1.338933	0.000158
1634	1.6248e+02	-14.9418	-41.055652	0.000030	0.303991	0.102995	0.000012
1635	1.6258e+02	-14.9065	-40.922426	0.000334	3.343897	1.132943	0.000134
1636	1.6268e+02	-14.8520	-40.918389	0.000010	0.101330	0.034332	0.000004
1637	1.6278e+02	-14.8151	-40.801312	0.000294	2.938577	0.995617	0.000118
1638	1.6288e+02	-14.7718	-40.728644	0.000182	1.823944	0.617969	0.000073
1639	1.6298e+02	-14.7301	-40.647901	0.000203	2.026605	0.686632	0.000081
1640	1.6308e+02	-14.6980	-40.571196	0.000193	1.925274	0.652301	0.000077
1641	1.6318e+02	-14.6611	-40.506601	0.000162	1.621284	0.549306	0.000065
1642	1.6328e+02	-14.6210	-40.421822	0.000213	2.127935	0.720964	0.000085
1643	1.6338e+02	-14.5761	-40.288596	0.000334	3.343897	1.132943	0.000134
1644	1.6348e+02	-14.5456	-40.215928	0.000182	1.823944	0.617969	0.000073
1645	1.6358e+02	-14.5007	-40.143259	0.000182	1.823944	0.617969	0.000073
1646	1.6368e+02	-14.4606	-40.054442	0.000223	2.229265	0.755295	0.000089
1647	1.6378e+02	-14.4092	-39.961588	0.000233	2.330595	0.789627	0.000093
1648	1.6388e+02	-14.3803	-39.876808	0.000213	2.127935	0.720964	0.000085
1649	1.6398e+02	-14.3434	-39.755694	0.000304	3.039907	1.029948	0.000122
1650	1.6408e+02	-14.2985	-39.674951	0.000203	2.026605	0.686632	0.000081
1651	1.6418e+02	-14.2552	-39.553837	0.000304	3.039907	1.029948	0.000122
1652	1.6427e+02	-14.2215	-39.452909	0.000253	2.533256	0.858290	0.000101
1653	1.6437e+02	-14.1814	-39.460983	-0.000020	-0.202660	-0.068663	-0.000008
1654	1.6447e+02	-14.1397	-39.343906	0.000294	2.938577	0.995617	0.000118
1655	1.6457e+02	-14.0980	-39.238941	0.000263	2.634586	0.892622	0.000105
1656	1.6467e+02	-14.0579	-39.166272	0.000182	1.823944	0.617969	0.000073
1657	1.6477e+02	-14.0226	-39.101678	0.000162	1.621284	0.549306	0.000065
1658	1.6487e+02	-13.9841	-39.020935	0.000203	2.026605	0.686632	0.000081
1659	1.6497e+02	-13.9440	-38.928081	0.000233	2.330595	0.789627	0.000093
1660	1.6507e+02	-13.9007	-38.827153	0.000253	2.533256	0.858290	0.000101
1661	1.6517e+02	-13.8558	-38.786782	0.000101	1.013302	0.343316	0.000041
1662	1.6527e+02	-13.8205	-38.685853	0.000253	2.533256	0.858290	0.000101
1663	1.6537e+02	-13.7868	-38.580888	0.000263	2.634586	0.892622	0.000105
1664	1.6547e+02	-13.7419	-38.508219	0.000182	1.823944	0.617969	0.000073
1665	1.6557e+02	-13.7050	-38.431514	0.000193	1.925274	0.652301	0.000077
1666	1.6567e+02	-13.6649	-38.322511	0.000274	2.735916	0.926953	0.000110
1667	1.6577e+02	-13.6296	-38.201397	0.000304	3.039907	1.029948	0.000122
1668	1.6587e+02	-13.5895	-38.104506	0.000243	2.431925	0.823959	0.000097
1669	1.6597e+02	-13.5413	-38.047986	0.000142	1.418623	0.480643	0.000057
1670	1.6607e+02	-13.5012	-37.959169	0.000223	2.229265	0.755295	0.000089
1671	1.6616e+02	-13.4499	-37.834018	0.000314	3.141237	1.064280	0.000126
1672	1.6626e+02	-13.4114	-37.761349	0.000182	1.823944	0.617969	0.000073
1673	1.6636e+02	-13.3729	-37.725015	0.000091	0.911972	0.308984	0.000037
1674	1.6646e+02	-13.3440	-37.660421	0.000162	1.621284	0.549306	0.000065
1675	1.6656e+02	-13.2975	-37.511047	0.000375	3.749218	1.270270	0.000150
1676	1.6666e+02	-13.2590	-37.462601	0.000122	1.215963	0.411979	0.000049
1677	1.6676e+02	-13.2269	-37.361673	0.000253	2.533256	0.858290	0.000101
1678	1.6686e+02	-13.1836	-37.309190	0.000132	1.317293	0.446311	0.000053
1679	1.6696e+02	-13.1371	-37.216336	0.000233	2.330595	0.789627	0.000093
1680	1.6706e+02	-13.1002	-37.143667	0.000182	1.823944	0.617969	0.000073
1681	1.6716e+02	-13.0665	-37.014479	0.000324	3.242567	1.098612	0.000130
1682	1.6726e+02	-13.0280	-36.929699	0.000213	2.127935	0.720964	0.000085
1683	1.6736e+02	-12.9847	-36.812622	0.000294	2.938577	0.995617	0.000118
1684	1.6746e+02	-12.9381	-36.695545	0.000294	2.938577	0.995617	0.000118
1685	1.6756e+02	-12.9012	-36.574431	0.000304	3.039907	1.029948	0.000122
1686	1.6766e+02	-12.8708	-36.538097	0.000091	0.911972	0.308984	0.000037
1687	1.6776e+02	-12.8339	-36.384686	0.000385	3.850549	1.304601	0.000154
1688	1.6786e+02	-12.8018	-36.340277	0.000111	1.114632	0.377648	0.000045
1689	1.6796e+02	-12.7553	-36.275683	0.000162	1.621284	0.549306	0.000065
1690	1.6806e+02	-12.7007	-36.158606	0.000294	2.938577	0.995617	0.000118
1691	1.6816e+02	-12.6734	-36.118235	0.000101	1.013302	0.343316	0.000041
1692	1.6825e+02	-12.6333	-36.021344	0.000243	2.431925	0.823959	0.000097
1693	1.6835e+02	-12.5836	-35.932527	0.000223	2.229265	0.755295	0.000089
1694	1.6845e+02	-12.5419	-35.839673	0.000233	2.330595	0.789627	0.000093
1695	1.6855e+02	-12.5018	-35.758930	0.000203	2.026605	0.686632	0.000081
1696	1.6865e+02	-12.4649	-35.653964	0.000263	2.634586	0.892622	0.000105
1697	1.6875e+02	-12.4248	-35.565147	0.000223	2.229265	0.755295	0.000089
1698	1.6885e+02	-12.3799	-35.488442	0.000193	1.925274	0.652301	0.000077
1699	1.6895e+02	-12.3558	-35.363290	0.000314	3.141237	1.064280	0.000126
1700	1.6905e+02	-12.3061	-35.270436	0.000233	2.330595	0.789627	0.000093
1701	1.6915e+02	-12.2660	-35.189694	0.000203	2.026605	0.686632	0.000081
1702	1.6925e+02	-12.2307	-35.112988	0.000193	1.925274	0.652301	0.000077
1703	1.6935e+02	-12.1841	-34.995911	0.000294	2.938577	0.995617	0.000118
1704	1.6945e+02	-12.1440	-34.866723	0.000324	3.242567	1.098612	0.000130
1705	1.6955e+02	-12.1168	-34.806166	0.000152	1.519953	0.514974	0.000061
1706	1.6965e+02	-12.0702	-34.693126	0.000284	2.837246	0.961285	0.000114
1707	1.6975e+02	-12.0398	-34.588160	0.000263	2.634586	0.892622	0.000105
1708	1.6985e+02	-11.9836	-34.519529	0.000172	1.722614	0.583637	0.000069
1709	1.6995e+02	-11.9435	-34.450898	0.000172	1.722614	0.583637	0.000069
1710	1.7005e+02	-11.9082	-34.394378	0.000142	1.418623	0.480643	0.000057
1711	1.7015e+02	-11.8665	-34.297487	0.000243	2.431925	0.823959	0.000097
1712	1.7024e+02	-11.8376	-34.180410	0.000294	2.938577	0.995617	0.000118
1713	1.7034e+02	-11.7847	-34.148113	0.000081	0.810642	0.274653	0.000032
1714	1.7044e+02	-11.7414	-34.039110	0.000274	2.735916	0.926953	0.000110
1715	1.7054e+02	-11.7077	-33.946256	0.000233	2.330595	0.789627	0.000093
1716	1.7064e+02	-11.6676	-33.833216	0.000284	2.837246	0.961285	0.000114
1717	1.7074e+02	-11.6291	-33.744399	0.000223	2.229265	0.755295	0.000089
1718	1.7084e+02	-11.6002	-33.643471	0.000253	2.533256	0.858290	0.000101
1719	1.7094e+02	-11.5553	-33.554654	0.000223	2.229265	0.755295	0.000089
1720	1.7104e+02	-11.5168	-33.437577	0.000294	2.938577	0.995617	0.000118
1721	1.7114e+02	-11.4815	-33.352797	0.000213	2.127935	0.720964	0.000085
1722	1.7124e+02	-11.4366	-33.203423	0.000375	3.749218	1.270270	0.000150
1723	1.7134e+02	-11.3965	-33.150940	0.000132	1.317293	0.446311	0.000053
1724	1.7144e+02	-11.3596	-33.050012	0.000253	2.533256	0.858290	0.000101
1725	1.7154e+02	-11.3130	-32.977343	0.000182	1.823944	0.617969	0.000073
1726	1.7164e+02	-11.2665	-32.892563	0.000213	2.127935	0.720964	0.000085
1727	1.7174e+02	-11.2328	-32.852192	0.000101	1.013302	0.343316	0.000041
1728	1.7184e+02	-11.1911	-32.739152	0.000284	2.837246	0.961285	0.000114
1729	1.7194e+02	-11.1462	-32.670521	0.000172	1.722614	0.583637	0.000069
1730	1.7204e+02	-11.1077	-32.577667	0.000233	2.330595	0.789627	0.000093
1731	1.7213e+02	-11.0708	-32.456553	0.000304	3.039907	1.029948	0.000122
1732	1.7223e+02	-11.0323	-32.420219	0.000091	0.911972	0.308984	0.000037
1733	1.7233e+02	-10.9890	-32.274882	0.000365	3.647888	1.235938	0.000146
1734	1.7243e+02	-10.9585	-32.222399	0.000132	1.317293	0.446311	0.000053
1735	1.7253e+02	-10.9136	-32.093211	0.000324	3.242567	1.098612	0.000130
1736	1.7263e+02	-10.8719	-32.004394	0.000223	2.229265	0.755295	0.000089
1737	1.7273e+02	-10.8318	-31.911539	0.000233	2.330595	0.789627	0.000093
1738	1.7283e+02	-10.7965	-31.798500	0.000284	2.837246	0.961285	0.000114
1739	1.7293e+02	-10.7532	-31.645088	0.000385	3.850549	1.304601	0.000154
1740	1.7303e+02	-10.7179	-31.536086	0.000274	2.735916	0.926953	0.000110
1741	1.7313e+02	-10.6762	-31.471492	0.000162	1.621284	0.549306	0.000065
1742	1.7323e+02	-10.6425	-31.342303	0.000324	3.242567	1.098612	0.000130
1743	1.7333e+02	-10.5895	-31.301932	0.000101	1.013302	0.343316	0.000041
1744	1.7343e+02	-10.5575	-31.233301	0.000172	1.722614	0.583637	0.000069
1745	1.7353e+02	-10.5157	-31.083927	0.000375	3.749218	1.270270	0.000150
1746	1.7363e+02	-10.4724	-31.071815	0.000030	0.303991	0.102995	0.000012
1747	1.7373e+02	-10.4387	-30.974924	0.000243	2.431925	0.823959	0.000097
1748	1.7383e+02	-10.3778	-30.918404	0.000142	1.418623	0.480643	0.000057
1749	1.7393e+02	-10.3505	-30.817476	0.000253	2.533256	0.858290	0.000101
1750	1.7403e+02	-10.3152	-30.720584	0.000243	2.431925	0.823959	0.000097
1751	1.7413e+02	-10.2783	-30.595433	0.000314	3.141237	1.064280	0.000126
1752	1.7422e+02	-10.2366	-30.494505	0.000253	2.533256	0.858290	0.000101
1753	1.7432e+02	-10.1981	-30.401651	0.000233	2.330595	0.789627	0.000093
1754	1.7442e+02	-10.1548	-30.280537	0.000304	3.039907	1.029948	0.000122
1755	1.7452e+02	-10.1211	-30.211905	0.000172	1.722614	0.583637	0.000069
1756	1.7462e+02	-10.0730	-30.106940	0.000263	2.634586	0.892622	0.000105
1757	1.7472e+02	-10.0345	-30.018123	0.000223	2.229265	0.755295	0.000089
1758	1.7482e+02	-10.0024	-29.856637	0.000405	4.053209	1.373264	0.000162
1759	1.7492e+02	-9.9623	-29.771858	0.000213	2.127935	0.720964	0.000085
1760	1.7502e+02	-9.9126	-29.662855	0.000274	2.735916	0.926953	0.000110
1761	1.7512e+02	-9.8757	-29.610372	0.000132	1.317293	0.446311	0.000053
1762	1.7522e+02	-9.8291	-29.545778	0.000162	1.621284	0.549306	0.000065
1763	1.7532e+02	-9.7938	-29.469072	0.000193	1.925274	0.652301	0.000077
1764	1.7542e+02	-9.7602	-29.368144	0.000253	2.533256	0.858290	0.000101
1765	1.7552e+02	-9.7136	-29.222807	0.000365	3.647888	1.235938	0.000146
1766	1.7562e+02	-9.6783	-29.166287	0.000142	1.418623	0.480643	0.000057
1767	1.7572e+02	-9.6382	-29.049210	0.000294	2.938577	0.995617	0.000118
1768	1.7582e+02	-9.6126	-29.008839	0.000101	1.013302	0.343316	0.000041
1769	1.7592e+02	-9.5580	-28.891762	0.000294	2.938577	0.995617	0.000118
1770	1.7602e+02	-9.5227	-28.778722	0.000284	2.837246	0.961285	0.000114
1771	1.7612e+02	-9.4778	-28.706054	0.000182	1.823944	0.617969	0.000073
1772	1.7621e+02	-9.4361	-28.609162	0.000243	2.431925	0.823959	0.000097
1773	1.7631e+02	-9.4008	-28.512271	0.000243	2.431925	0.823959	0.000097
1774	1.7641e+02	-9.3559	-28.431528	0.000203	2.026605	0.686632	0.000081
1775	1.7651e+02	-9.3174	-28.290229	0.000355	3.546558	1.201606	0.000142
1776	1.7661e+02	-9.2805	-28.165077	0.000314	3.141237	1.064280	0.000126
1777	1.7671e+02	-9.2436	-28.080298	0.000213	2.127935	0.720964	0.000085
1778	1.7681e+02	-9.2003	-27.995518	0.000213	2.127935	0.720964	0.000085
1779	1.7691e+02	-9.1586	-27.938998	0.000142	1.418623	0.480643	0.000057
1780	1.7701e+02	-9.1169	-27.817884	0.000304	3.039907	1.029948	0.000122
1781	1.7711e+02	-9.0848	-27.765401	0.000132	1.317293	0.446311	0.000053
1782	1.7721e+02	-9.0399	-27.664473	0.000253	2.533256	0.858290	0.000101
1783	1.7731e+02	-8.9965	-27.563544	0.000253	2.533256	0.858290	0.000101
1784	1.7741e+02	-8.9596	-27.450504	0.000284	2.837246	0.961285	0.000114
1785	1.7751e+02	-8.9179	-27.381873	0.000172	1.722614	0.583637	0.000069
1786	1.7761e+02	-8.8874	-27.276908	0.000263	2.634586	0.892622	0.000105
1787	1.7771e+02	-8.8441	-27.175979	0.000253	2.533256	0.858290	0.000101
1788	1.7781e+02	-8.7992	-27.066977	0.000274	2.735916	0.926953	0.000110
1789	1.7791e+02	-8.7623	-26.998345	0.000172	1.722614	0.583637	0.000069
1790	1.7801e+02	-8.7254	-26.877231	0.000304	3.039907	1.029948	0.000122
1791	1.7810e+02	-8.6805	-26.796488	0.000203	2.026605	0.686632	0.000081
1792	1.7820e+02	-8.6484	-26.731894	0.000162	1.621284	0.549306	0.000065
1793	1.7830e+02	-8.6099	-26.582520	0.000375	3.749218	1.270270	0.000150
1794	1.7840e+02	-8.5682	-26.453332	0.000324	3.242567	1.098612	0.000130
1795	1.7850e+02	-8.5313	-26.356441	0.000243	2.431925	0.823959	0.000097
1796	1.7860e+02	-8.4864	-26.275698	0.000203	2.026605	0.686632	0.000081
1797	1.7870e+02	-8.4335	-26.186881	0.000223	2.229265	0.755295	0.000089
1798	1.7880e+02	-8.3950	-26.102101	0.000213	2.127935	0.720964	0.000085
1799	1.7890e+02	-8.3564	-26.017321	0.000213	2.127935	0.720964	0.000085
1800	1.7900e+02	-8.3228	-25.928504	0.000223	2.229265	0.755295	0.000089
1801	1.7910e+02	-8.2827	-25.847762	0.000203	2.026605	0.686632	0.000081
1802	1.7920e+02	-8.2474	-25.742796	0.000263	2.634586	0.892622	0.000105
1803	1.7930e+02	-8.1976	-25.653979	0.000223	2.229265	0.755295	0.000089
1804	1.7940e+02	-8.1655	-25.500568	0.000385	3.850549	1.304601	0.000154
1805	1.7950e+02	-8.1190	-25.444048	0.000142	1.418623	0.480643	0.000057
1806	1.7960e+02	-8.0725	-25.339082	0.000263	2.634586	0.892622	0.000105
1807	1.7970e+02	-8.0484	-25.238154	0.000253	2.533256	0.858290	0.000101
1808	1.7980e+02	-8.0019	-25.161448	0.000193	1.925274	0.652301	0.000077
1809	1.7990e+02	-7.9666	-25.036297	0.000314	3.141237	1.064280	0.000126
1810	1.8000e+02	-7.9281	-24.991889	0.000111	1.114632	0.377648	0.000045
1811	1.8009e+02	-7.8896	-24.882886	0.000274	2.735916	0.926953	0.000110
1812	1.8019e+02	-7.8431	-24.733512	0.000375	3.749218	1.270270	0.000150
1813	1.8029e+02	-7.8110	-24.664881	0.000172	1.722614	0.583637	0.000069
1814	1.8039e+02	-7.7645	-24.523581	0.000355	3.546558	1.201606	0.000142
1815	1.8049e+02	-7.7228	-24.406504	0.000294	2.938577	0.995617	0.000118
1816	1.8059e+02	-7.6811	-24.366133	0.000101	1.013302	0.343316	0.000041
1817	1.8069e+02	-7.6490	-24.265204	0.000253	2.533256	0.858290	0.000101
1818	1.8079e+02	-7.6169	-24.160239	0.000263	2.634586	0.892622	0.000105
1819	1.8089e+02	-7.5752	-24.071422	0.000223	2.229265	0.755295	0.000089
1820	1.8099e+02	-7.5174	-23.978568	0.000233	2.330595	0.789627	0.000093
1821	1.8109e+02	-7.4821	-23.869565	0.000274	2.735916	0.926953	0.000110
1822	1.8119e+02	-7.4549	-23.800934	0.000172	1.722614	0.583637	0.000069
1823	1.8129e+02	-7.4067	-23.695968	0.000263	2.634586	0.892622	0.000105
1824	1.8139e+02	-7.3634	-23.558706	0.000345	3.445228	1.167275	0.000138
1825	1.8149e+02	-7.3281	-23.534483	0.000061	0.607981	0.205990	0.000024
1826	1.8159e+02	-7.2832	-23.401257	0.000334	3.343897	1.132943	0.000134
1827	1.8169e+02	-7.2415	-23.300329	0.000253	2.533256	0.858290	0.000101
1828	1.8179e+02	-7.2014	-23.175178	0.000314	3.141237	1.064280	0.000126
1829	1.8189e+02	-7.1741	-23.150955	0.000061	0.607981	0.205990	0.000024
1830	1.8199e+02	-7.1308	-22.997544	0.000385	3.850549	1.304601	0.000154
1831	1.8209e+02	-7.0907	-22.884504	0.000284	2.837246	0.961285	0.000114
1832	1.8218e+02	-7.0426	-22.747241	0.000345	3.445228	1.167275	0.000138
1833	1.8228e+02	-7.0073	-22.622090	0.000314	3.141237	1.064280	0.000126
1834	1.8238e+02	-6.9704	-22.557496	0.000162	1.621284	0.549306	0.000065
1835	1.8248e+02	-6.9239	-22.452530	0.000263	2.634586	0.892622	0.000105
1836	1.8258e+02	-6.8870	-22.404085	0.000122	1.215963	0.411979	0.000049
1837	1.8268e+02	-6.8404	-22.291045	0.000284	2.837246	0.961285	0.000114
1838	1.8278e+02	-6.7987	-22.206265	0.000213	2.127935	0.720964	0.000085
1839	1.8288e+02	-6.7699	-22.089188	0.000294	2.938577	0.995617	0.000118
1840	1.8298e+02	-6.7346	-22.004408	0.000213	2.127935	0.720964	0.000085
1841	1.8308e+02	-6.6880	-21.903480	0.000253	2.533256	0.858290	0.000101
1842	1.8318e+02	-6.6560	-21.806589	0.000243	2.431925	0.823959	0.000097
1843	1.8328e+02	-6.6094	-21.705660	0.000253	2.533256	0.858290	0.000101
1844	1.8338e+02	-6.5709	-21.616843	0.000223	2.229265	0.755295	0.000089
1845	1.8348e+02	-6.5308	-21.503804	0.000284	2.837246	0.961285	0.000114
1846	1.8358e+02	-6.4891	-21.398838	0.000263	2.634586	0.892622	0.000105
1847	1.8368e+02	-6.4651	-21.301947	0.000243	2.431925	0.823959	0.000097
1848	1.8378e+02	-6.4105	-21.192944	0.000274	2.735916	0.926953	0.000110
1849	1.8388e+02	-6.3608	-21.079904	0.000284	2.837246	0.961285	0.000114
1850	1.8398e+02	-6.3255	-20.983013	0.000243	2.431925	0.823959	0.000097
1851	1.8407e+02	-6.2870	-20.861899	0.000304	3.039907	1.029948	0.000122
1852	1.8417e+02	-6.2533	-20.785193	0.000193	1.925274	0.652301	0.000077
1853	1.8427e+02	-6.2180	-20.660042	0.000314	3.141237	1.064280	0.000126
1854	1.8437e+02	-6.1747	-20.595448	0.000162	1.621284	0.549306	0.000065
1855	1.8447e+02	-6.1362	-20.478371	0.000294	2.938577	0.995617	0.000118
1856	1.8457e+02	-6.0945	-20.389554	0.000223	2.229265	0.755295	0.000089
1857	1.8467e+02	-6.0512	-20.280551	0.000274	2.735916	0.926953	0.000110
1858	1.8477e+02	-6.0095	-20.163474	0.000294	2.938577	0.995617	0.000118
1859	1.8487e+02	-5.9726	-20.086769	0.000193	1.925274	0.652301	0.000077
1860	1.8497e+02	-5.9421	-19.957581	0.000324	3.242567	1.098612	0.000130
1861	1.8507e+02	-5.8907	-19.884912	0.000182	1.823944	0.617969	0.000073
1862	1.8517e+02	-5.8619	-19.779947	0.000263	2.634586	0.892622	0.000105
1863	1.8527e+02	-5.8202	-19.695167	0.000213	2.127935	0.720964	0.000085
1864	1.8537e+02	-5.7736	-19.537718	0.000395	3.951879	1.338933	0.000158
1865	1.8547e+02	-5.7399	-19.469087	0.000172	1.722614	0.583637	0.000069
1866	1.8557e+02	-5.7030	-19.339899	0.000324	3.242567	1.098612	0.000130
1867	1.8567e+02	-5.6517	-19.267230	0.000182	1.823944	0.617969	0.000073
1868	1.8577e+02	-5.6180	-19.146116	0.000304	3.039907	1.029948	0.000122
1869	1.8587e+02	-5.5635	-19.000779	0.000365	3.647888	1.235938	0.000146
1870	1.8597e+02	-5.5330	-18.956371	0.000111	1.114632	0.377648	0.000045
1871	1.8606e+02	-5.5057	-18.847368	0.000274	2.735916	0.926953	0.000110
1872	1.8616e+02	-5.4592	-18.734328	0.000284	2.837246	0.961285	0.000114
1873	1.8626e+02	-5.4143	-18.657623	0.000193	1.925274	0.652301	0.000077
1874	1.8636e+02	-5.3710	-18.528434	0.000324	3.242567	1.098612	0.000130
1875	1.8646e+02	-5.3373	-18.403283	0.000314	3.141237	1.064280	0.000126
1876	1.8656e+02	-5.2940	-18.326578	0.000193	1.925274	0.652301	0.000077
1877	1.8666e+02	-5.2587	-18.213538	0.000284	2.837246	0.961285	0.000114
1878	1.8676e+02	-5.2089	-18.173167	0.000101	1.013302	0.343316	0.000041
1879	1.8686e+02	-5.1865	-18.031867	0.000355	3.546558	1.201606	0.000142
1880	1.8696e+02	-5.1384	-17.930938	0.000253	2.533256	0.858290	0.000101
1881	1.8706e+02	-5.1063	-17.781564	0.000375	3.749218	1.270270	0.000150
1882	1.8716e+02	-5.0598	-17.725044	0.000142	1.418623	0.480643	0.000057
1883	1.8726e+02	-5.0180	-17.567596	0.000395	3.951879	1.338933	0.000158
1884	1.8736e+02	-4.9827	-17.498965	0.000172	1.722614	0.583637	0.000069
1885	1.8746e+02	-4.9475	-17.365739	0.000334	3.343897	1.132943	0.000134
1886	1.8756e+02	-4.8977	-17.284997	0.000203	2.026605	0.686632	0.000081
1887	1.8766e+02	-4.8560	-17.115437	0.000426	4.255870	1.441928	0.000170
1888	1.8776e+02	-4.8239	-17.075066	0.000101	1.013302	0.343316	0.000041
1889	1.8786e+02	-4.7918	-16.957989	0.000294	2.938577	0.995617	0.000118
1890	1.8796e+02	-4.7405	-16.913580	0.000111	1.114632	0.377648	0.000045
1891	1.8806e+02	-4.6988	-16.800540	0.000284	2.837246	0.961285	0.000114
1892	1.8815e+02	-4.6587	-16.671352	0.000324	3.242567	1.098612	0.000130
1893	1.8825e+02	-4.6234	-16.542164	0.000324	3.242567	1.098612	0.000130
1894	1.8835e+02	-4.5785	-16.461421	0.000203	2.026605	0.686632	0.000081
1895	1.8845e+02	-4.5464	-16.376641	0.000213	2.127935	0.720964	0.000085
1896	1.8855e+02	-4.4951	-16.295898	0.000203	2.026605	0.686632	0.000081
1897	1.8865e+02	-4.4614	-16.170747	0.000314	3.141237	1.064280	0.000126
1898	1.8875e+02	-4.4197	-16.077893	0.000233	2.330595	0.789627	0.000093
1899	1.8885e+02	-4.3796	-15.920445	0.000395	3.951879	1.338933	0.000158
1900	1.8895e+02	-4.3378	-15.855851	0.000162	1.621284	0.549306	0.000065
1901	1.8905e+02	-4.3074	-15.758959	0.000243	2.431925	0.823959	0.000097
1902	1.8915e+02	-4.2512	-15.569214	0.000476	4.762521	1.613586	0.000191
1903	1.8925e+02	-4.2272	-15.524805	0.000111	1.114632	0.377648	0.000045
1904	1.8935e+02	-4.1903	-15.387543	0.000345	3.445228	1.167275	0.000138
1905	1.8945e+02	-4.1502	-15.302763	0.000213	2.127935	0.720964	0.000085
1906	1.8955e+02	-4.1020	-15.153389	0.000375	3.749218	1.270270	0.000150
1907	1.8965e+02	-4.0635	-15.072646	0.000203	2.026605	0.686632	0.000081
1908	1.8975e+02	-4.0138	-14.995941	0.000193	1.925274	0.652301	0.000077
1909	1.8985e+02	-3.9849	-14.899049	0.000243	2.431925	0.823959	0.000097
1910	1.8995e+02	-3.9400	-14.786010	0.000284	2.837246	0.961285	0.000114
1911	1.9004e+02	-3.8999	-14.725453	0.000152	1.519953	0.514974	0.000061
1912	1.9014e+02	-3.8502	-14.572041	0.000385	3.850549	1.304601	0.000154
1913	1.9024e+02	-3.8181	-14.442853	0.000324	3.242567	1.098612	0.000130
1914	1.9034e+02	-3.7748	-14.378259	0.000162	1.621284	0.549306	0.000065
1915	1.9044e+02	-3.7459	-14.249071	0.000324	3.242567	1.098612	0.000130
1916	1.9054e+02	-3.6994	-14.144105	0.000263	2.634586	0.892622	0.000105
1917	1.9064e+02	-3.6689	-14.051251	0.000233	2.330595	0.789627	0.000093
1918	1.9074e+02	-3.6208	-13.930137	0.000304	3.039907	1.029948	0.000122
1919	1.9084e+02	-3.5823	-13.865543	0.000162	1.621284	0.549306	0.000065
1920	1.9094e+02	-3.5454	-13.724243	0.000355	3.546558	1.201606	0.000142
1921	1.9104e+02	-3.5036	-13.603129	0.000304	3.039907	1.029948	0.000122
1922	1.9114e+02	-3.4539	-13.449718	0.000385	3.850549	1.304601	0.000154
1923	1.9124e+02	-3.4250	-13.364938	0.000213	2.127935	0.720964	0.000085
1924	1.9134e+02	-3.3817	-13.259972	0.000263	2.634586	0.892622	0.000105
1925	1.9144e+02	-3.3416	-13.122710	0.000345	3.445228	1.167275	0.000138
1926	1.9154e+02	-3.3079	-13.082338	0.000101	1.013302	0.343316	0.000041
1927	1.9164e+02	-3.2646	-12.961224	0.000304	3.039907	1.029948	0.000122
1928	1.9174e+02	-3.2245	-12.852222	0.000274	2.735916	0.926953	0.000110
1929	1.9184e+02	-3.1860	-12.783590	0.000172	1.722614	0.583637	0.000069
1930	1.9194e+02	-3.1459	-12.674588	0.000274	2.735916	0.926953	0.000110
1931	1.9203e+02	-3.1106	-12.545399	0.000324	3.242567	1.098612	0.000130
1932	1.9213e+02	-3.0561	-12.456582	0.000223	2.229265	0.755295	0.000089
1933	1.9223e+02	-3.0224	-12.355654	0.000253	2.533256	0.858290	0.000101
1934	1.9233e+02	-2.9807	-12.242614	0.000284	2.837246	0.961285	0.000114
1935	1.9243e+02	-2.9470	-12.121500	0.000304	3.039907	1.029948	0.000122
1936	1.9253e+02	-2.9053	-12.032683	0.000223	2.229265	0.755295	0.000089
1937	1.9263e+02	-2.8780	-11.911569	0.000304	3.039907	1.029948	0.000122
1938	1.9273e+02	-2.8283	-11.806603	0.000263	2.634586	0.892622	0.000105
1939	1.9283e+02	-2.7946	-11.713749	0.000233	2.330595	0.789627	0.000093
1940	1.9293e+02	-2.7545	-11.588598	0.000314	3.141237	1.064280	0.000126
1941	1.9303e+02	-2.7144	-11.483633	0.000263	2.634586	0.892622	0.000105
1942	1.9313e+02	-2.6710	-11.350407	0.000334	3.343897	1.132943	0.000134
1943	1.9323e+02	-2.6261	-11.249479	0.000253	2.533256	0.858290	0.000101
1944	1.9333e+02	-2.5844	-11.209107	0.000101	1.013302	0.343316	0.000041
1945	1.9343e+02	-2.5459	-11.051659	0.000395	3.951879	1.338933	0.000158
1946	1.9353e+02	-2.5042	-10.966879	0.000213	2.127935	0.720964	0.000085
1947	1.9363e+02	-2.4609	-10.886137	0.000203	2.026605	0.686632	0.000081
1948	1.9373e+02	-2.4288	-10.769060	0.000294	2.938577	0.995617	0.000118
1949	1.9383e+02	-2.3935	-10.647946	0.000304	3.039907	1.029948	0.000122
1950	1.9393e+02	-2.3486	-10.567203	0.000203	2.026605	0.686632	0.000081
1951	1.9403e+02	-2.3133	-10.409755	0.000395	3.951879	1.338933	0.000158
1952	1.9412e+02	-2.2716	-10.329012	0.000203	2.026605	0.686632	0.000081
1953	1.9422e+02	-2.2299	-10.187712	0.000355	3.546558	1.201606	0.000142
1954	1.9432e+02	-2.1850	-10.086784	0.000253	2.533256	0.858290	0.000101
1955	1.9442e+02	-2.1497	-10.014115	0.000182	1.823944	0.617969	0.000073
1956	1.9452e+02	-2.1112	-9.888964	0.000314	3.141237	1.064280	0.000126
1957	1.9462e+02	-2.0759	-9.808221	0.000203	2.026605	0.686632	0.000081
1958	1.9472e+02	-2.0358	-9.719404	0.000223	2.229265	0.755295	0.000089
1959	1.9482e+02	-1.9844	-9.541770	0.000446	4.458530	1.510591	0.000179
1960	1.9492e+02	-1.9507	-9.456990	0.000213	2.127935	0.720964	0.000085
1961	1.9502e+02	-1.9106	-9.339914	0.000294	2.938577	0.995617	0.000118
1962	1.9512e+02	-1.8625	-9.247059	0.000233	2.330595	0.789627	0.000093
1963	1.9522e+02	-1.8336	-9.170354	0.000193	1.925274	0.652301	0.000077
1964	1.9532e+02	-1.7855	-9.045203	0.000314	3.141237	1.064280	0.000126
1965	1.9542e+02	-1.7422	-8.883717	0.000405	4.053209	1.373264	0.000162
1966	1.9552e+02	-1.7149	-8.851420	0.000081	0.810642	0.274653	0.000032
1967	1.9562e+02	-1.6732	-8.734343	0.000294	2.938577	0.995617	0.000118
1968	1.9572e+02	-1.6267	-8.629378	0.000263	2.634586	0.892622	0.000105
1969	1.9582e+02	-1.5930	-8.528449	0.000253	2.533256	0.858290	0.000101
1970	1.9592e+02	-1.5513	-8.403298	0.000314	3.141237	1.064280	0.000126
1971	1.9601e+02	-1.5176	-8.302370	0.000253	2.533256	0.858290	0.000101
1972	1.9611e+02	-1.4711	-8.181256	0.000304	3.039907	1.029948	0.000122
1973	1.9621e+02	-1.4294	-8.108587	0.000182	1.823944	0.617969	0.000073
1974	1.9631e+02	-1.3941	-7.967287	0.000355	3.546558	1.201606	0.000142
1975	1.9641e+02	-1.3476	-7.890582	0.000193	1.925274	0.652301	0.000077
1976	1.9651e+02	-1.3155	-7.741208	0.000375	3.749218	1.270270	0.000150
1977	1.9661e+02	-1.2641	-7.660465	0.000203	2.026605	0.686632	0.000081
1978	1.9671e+02	-1.2304	-7.547425	0.000284	2.837246	0.961285	0.000114
1979	1.9681e+02	-1.1871	-7.394014	0.000385	3.850549	1.304601	0.000154
1980	1.9691e+02	-1.1502	-7.321346	0.000182	1.823944	0.617969	0.000073
1981	1.9701e+02	-1.1101	-7.180046	0.000355	3.546558	1.201606	0.000142
1982	1.9711e+02	-1.0684	-7.091229	0.000223	2.229265	0.755295	0.000089
1983	1.9721e+02	-1.0315	-6.974152	0.000294	2.938577	0.995617	0.000118
1984	1.9731e+02	-0.9898	-6.885335	0.000223	2.229265	0.755295	0.000089
1985	1.9741e+02	-0.9593	-6.776332	0.000274	2.735916	0.926953	0.000110
1986	1.9751e+02	-0.9176	-6.622921	0.000385	3.850549	1.304601	0.000154
1987	1.9761e+02	-0.8759	-6.546216	0.000193	1.925274	0.652301	0.000077
1988	1.9771e+02	-0.8342	-6.421064	0.000314	3.141237	1.064280	0.000126
1989	1.9781e+02	-0.8005	-6.352433	0.000172	1.722614	0.583637	0.000069
1990	1.9791e+02	-0.7588	-6.239393	0.000284	2.837246	0.961285	0.000114
1991	1.9800e+02	-0.7139	-6.122316	0.000294	2.938577	0.995617	0.000118
1992	1.9810e+02	-0.6690	-6.025425	0.000243	2.431925	0.823959	0.000097
1993	1.9820e+02	-0.6289	-5.904311	0.000304	3.039907	1.029948	0.000122
1994	1.9830e+02	-0.5952	-5.803383	0.000253	2.533256	0.858290	0.000101
1995	1.9840e+02	-0.5551	-5.690343	0.000284	2.837246	0.961285	0.000114
1996	1.9850e+02	-0.5182	-5.589414	0.000253	2.533256	0.858290	0.000101
1997	1.9860e+02	-0.4861	-5.427929	0.000405	4.053209	1.373264	0.000162
1998	1.9870e+02	-0.4315	-5.403706	0.000061	0.607981	0.205990	0.000024
1999	1.9880e+02	-0.3898	-5.262406	0.000355	3.546558	1.201606	0.000142
2000	1.9890e+02	-0.3658	-5.121107	0.000355	3.546558	1.201606	0.000142
2001	1.9900e+02	-0.3128	-4.991918	0.000324	3.242567	1.098612	0.000130
2002	1.9910e+02	-0.2823	-4.907138	0.000213	2.127935	0.720964	0.000085
2003	1.9920e+02	-0.2358	-4.818322	0.000223	2.229265	0.755295	0.000089
2004	1.9930e+02	-0.1989	-4.729505	0.000223	2.229265	0.755295	0.000089
2005	1.9940e+02	-0.1556	-4.592242	0.000345	3.445228	1.167275	0.000138
2006	1.9950e+02	-0.1219	-4.511499	0.000203	2.026605	0.686632	0.000081
2007	1.9960e+02	-0.0706	-4.418645	0.000233	2.330595	0.789627	0.000093
2008	1.9970e+02	-0.0369	-4.232937	0.000466	4.661190	1.579254	0.000187
2009	1.9980e+02	0.0016	-4.156231	0.000466	4.661190	1.579254	0.000077

PMax (uC/cm2):	5.32e+01
Pr (uC/cm2):	1.48e+00
-Pr (uC/cm2):	-1.76e+00
PLoss (uC/cm2):	-1.82e+00
-Vc:	-5.53e-01
C (Max-Eff) (nF):	2.66e-01
K (Eff):	9.01e+02
Vert. (+/-Pr) Shift (uC/cm2):	-1.39e-01
Offset (uC/cm2):	2.40e+00

A (Loop Area - uC/cm2·Volts):	1.66e-02



Hysteresis Version: 5.48.1 - Radiant Technologies, Inc., 1999 - 9/12/24

