»»»»»»»»»»»»»»»»»»»»»»»»»»»»»»»»»»»» Hysteresis ««««««««««««««««««««««««««««««««««««
»»»  Executed Version:	5.48.1
»»»  Vision Version:	5.48.4 (R)
»»»  Vision Compiled:	9/18/24
»»»  Driver Version:	5.47.0
»»»  Windows Version:	Windows 8 or 8.1
»»»  Processor Information:	x86 (AMD or Intel) - 32 Processors
»»»  Tester Name:	PMF21124-494 (100V)
»»»  Tester S/N:	PMF21124-494
»»»  Internal Amp Type:	100V RevK 270k
»»»  Internal Amp S/N:	iAB2-596/K     
»»»  Execution Count:	1
»»»»»»»»»»»»»»»»»»»»»»»»»»»»»»»»»»»»»»»»»»««««««««««««««««««««««««««««««««««««««««««

Stored:	6/17/2025 - 11:55:17
Configured:	06/17/25 10:39:14 AM
Executed:	06/17/25 11:54:31 AM

»»»»»»»»»»»»»»»»»»»»»»»»»»»»»»»»»»» Sample Info ««««««««««««««««««««««««««««««««««««
Sample Name:	
Lot Name:	
Wafer Name:	
Die Row/Column:	0/0
Capacitor Number:	0
Sample Area (cm2):	1.00e-04
Sample Thickness (microns):	3.00e-01

Amplifier:	Internal

»»»»»»»»»»»»»»»»»»»»»»»»»»»»»»»»»»» Tester Info «««««««««««««««««««««««««««««««««««
Tester Name:	PMF21124-494 (100V)
Tester Serial Number:	PMF21124-494
Return Signal Amp. Level:	0.19 [Index: 3]

»»»»»»»»»»»»»»»»»»»»»»»»»»»»»»»» Hysteresis Info ««««««««««««««««««««««««««««««««««
Task Name:	Hyst-180
Volts:	20.00
Field:	666.67 (kV/cm)
DCBias:	0.00
DCField:	0.00 (kV/cm)
Hysteresis Period (ms):	2.00e+02
Preset:	Enabled
Preset Delay (ms):	1.00e+03
Profile:	Standard Bipolar

»»»»»»»»»»»»»»»»»»»»»»»»»»»»»»»»»»»»»» Data «««««««««««««««««««««««««««««««««««««««
Points:	2009

Valid Data

Point	Time (ms)	Drive Voltage	Measured Polarization (uC/cm2)	Capacitance (uF)	Normalized Capacitance (uF/cm2)	Dielectric Constant	Instantaneous Current (mA)
   1	0.0000e+00	0.0032	-3.126762	0.000233	2.330595	0.789627	0.000093
   2	9.9500e-02	0.0305	-3.033908	0.000233	2.330595	0.789627	0.000093
   3	1.9900e-01	0.0722	-2.961239	0.000182	1.823944	0.617969	0.000073
   4	2.9850e-01	0.1187	-2.815902	0.000365	3.647888	1.235938	0.000146
   5	3.9800e-01	0.1524	-2.719011	0.000243	2.431925	0.823959	0.000097
   6	4.9750e-01	0.1941	-2.573674	0.000365	3.647888	1.235938	0.000146
   7	5.9700e-01	0.2246	-2.476783	0.000243	2.431925	0.823959	0.000097
   8	6.9650e-01	0.2711	-2.400077	0.000193	1.925274	0.652301	0.000077
   9	7.9600e-01	0.3064	-2.283000	0.000294	2.938577	0.995617	0.000118
  10	8.9550e-01	0.3610	-2.129589	0.000385	3.850549	1.304601	0.000154
  11	9.9500e-01	0.3882	-2.016549	0.000284	2.837246	0.961285	0.000114
  12	1.0945e+00	0.4380	-1.927732	0.000223	2.229265	0.755295	0.000089
  13	1.1940e+00	0.4652	-1.855064	0.000182	1.823944	0.617969	0.000073
  14	1.2935e+00	0.5150	-1.705690	0.000375	3.749218	1.270270	0.000150
  15	1.3930e+00	0.5422	-1.584576	0.000304	3.039907	1.029948	0.000122
  16	1.4925e+00	0.5936	-1.479610	0.000263	2.634586	0.892622	0.000105
  17	1.5920e+00	0.6337	-1.342348	0.000345	3.445228	1.167275	0.000138
  18	1.6915e+00	0.6770	-1.257568	0.000213	2.127935	0.720964	0.000085
  19	1.7910e+00	0.7059	-1.144528	0.000284	2.837246	0.961285	0.000114
  20	1.8905e+00	0.7636	-1.035525	0.000274	2.735916	0.926953	0.000110
  21	1.9900e+00	0.7941	-0.934597	0.000253	2.533256	0.858290	0.000101
  22	2.0895e+00	0.8374	-0.785223	0.000375	3.749218	1.270270	0.000150
  23	2.1890e+00	0.8663	-0.692369	0.000233	2.330595	0.789627	0.000093
  24	2.2885e+00	0.9096	-0.603552	0.000223	2.229265	0.755295	0.000089
  25	2.3880e+00	0.9433	-0.462252	0.000355	3.546558	1.201606	0.000142
  26	2.4875e+00	0.9930	-0.349212	0.000284	2.837246	0.961285	0.000114
  27	2.5870e+00	1.0267	-0.224061	0.000314	3.141237	1.064280	0.000126
  28	2.6865e+00	1.0652	-0.143318	0.000203	2.026605	0.686632	0.000081
  29	2.7860e+00	1.1069	-0.002019	0.000355	3.546558	1.201606	0.000142
  30	2.8855e+00	1.1422	0.094873	0.000243	2.431925	0.823959	0.000097
  31	2.9850e+00	1.1823	0.207912	0.000284	2.837246	0.961285	0.000114
  32	3.0845e+00	1.2256	0.312878	0.000263	2.634586	0.892622	0.000105
  33	3.1840e+00	1.2706	0.413806	0.000253	2.533256	0.858290	0.000101
  34	3.2835e+00	1.3139	0.538958	0.000314	3.141237	1.064280	0.000126
  35	3.3830e+00	1.3395	0.639886	0.000253	2.533256	0.858290	0.000101
  36	3.4825e+00	1.3925	0.761000	0.000304	3.039907	1.029948	0.000122
  37	3.5820e+00	1.4278	0.918448	0.000395	3.951879	1.338933	0.000158
  38	3.6815e+00	1.4631	0.962857	0.000111	1.114632	0.377648	0.000045
  39	3.7810e+00	1.5080	1.112231	0.000375	3.749218	1.270270	0.000150
  40	3.8805e+00	1.5497	1.241419	0.000324	3.242567	1.098612	0.000130
  41	3.9800e+00	1.5866	1.314088	0.000182	1.823944	0.617969	0.000073
  42	4.0795e+00	1.6283	1.447313	0.000334	3.343897	1.132943	0.000134
  43	4.1790e+00	1.6700	1.592650	0.000365	3.647888	1.235938	0.000146
  44	4.2785e+00	1.7037	1.689541	0.000243	2.431925	0.823959	0.000097
  45	4.3780e+00	1.7438	1.774321	0.000213	2.127935	0.720964	0.000085
  46	4.4775e+00	1.7839	1.927732	0.000385	3.850549	1.304601	0.000154
  47	4.5770e+00	1.8256	2.048846	0.000304	3.039907	1.029948	0.000122
  48	4.6765e+00	1.8641	2.097292	0.000122	1.215963	0.411979	0.000049
  49	4.7760e+00	1.9058	2.254740	0.000395	3.951879	1.338933	0.000158
  50	4.8755e+00	1.9315	2.363743	0.000274	2.735916	0.926953	0.000110
  51	4.9750e+00	1.9828	2.452560	0.000223	2.229265	0.755295	0.000089
  52	5.0745e+00	2.0326	2.585785	0.000334	3.343897	1.132943	0.000134
  53	5.1740e+00	2.0646	2.702862	0.000294	2.938577	0.995617	0.000118
  54	5.2735e+00	2.1112	2.832051	0.000324	3.242567	1.098612	0.000130
  55	5.3730e+00	2.1352	2.941053	0.000274	2.735916	0.926953	0.000110
  56	5.4725e+00	2.1866	3.041982	0.000253	2.533256	0.858290	0.000101
  57	5.5720e+00	2.2251	3.191356	0.000375	3.749218	1.270270	0.000150
  58	5.6715e+00	2.2652	3.292284	0.000253	2.533256	0.858290	0.000101
  59	5.7710e+00	2.3037	3.381101	0.000223	2.229265	0.755295	0.000089
  60	5.8705e+00	2.3502	3.526438	0.000365	3.647888	1.235938	0.000146
  61	5.9700e+00	2.3839	3.623329	0.000243	2.431925	0.823959	0.000097
  62	6.0695e+00	2.4272	3.708109	0.000213	2.127935	0.720964	0.000085
  63	6.1690e+00	2.4641	3.849409	0.000355	3.546558	1.201606	0.000142
  64	6.2685e+00	2.4962	3.978597	0.000324	3.242567	1.098612	0.000130
  65	6.3680e+00	2.5459	4.119897	0.000355	3.546558	1.201606	0.000142
  66	6.4675e+00	2.5956	4.180454	0.000152	1.519953	0.514974	0.000061
  67	6.5670e+00	2.6261	4.293494	0.000284	2.837246	0.961285	0.000114
  68	6.6665e+00	2.6775	4.406534	0.000284	2.837246	0.961285	0.000114
  69	6.7660e+00	2.7031	4.515536	0.000274	2.735916	0.926953	0.000110
  70	6.8655e+00	2.7481	4.672985	0.000395	3.951879	1.338933	0.000158
  71	6.9650e+00	2.7801	4.798136	0.000314	3.141237	1.064280	0.000126
  72	7.0645e+00	2.8218	4.899064	0.000253	2.533256	0.858290	0.000101
  73	7.1640e+00	2.8652	5.040364	0.000355	3.546558	1.201606	0.000142
  74	7.2635e+00	2.9069	5.141292	0.000253	2.533256	0.858290	0.000101
  75	7.3630e+00	2.9470	5.238184	0.000243	2.431925	0.823959	0.000097
  76	7.4625e+00	2.9855	5.379483	0.000355	3.546558	1.201606	0.000142
  77	7.5620e+00	3.0192	5.504635	0.000314	3.141237	1.064280	0.000126
  78	7.6615e+00	3.0705	5.617674	0.000284	2.837246	0.961285	0.000114
  79	7.7610e+00	3.0978	5.698417	0.000203	2.026605	0.686632	0.000081
  80	7.8605e+00	3.1539	5.855865	0.000395	3.951879	1.338933	0.000158
  81	7.9600e+00	3.1860	5.985054	0.000324	3.242567	1.098612	0.000130
  82	8.0595e+00	3.2229	6.090019	0.000263	2.634586	0.892622	0.000105
  83	8.1590e+00	3.2614	6.231319	0.000355	3.546558	1.201606	0.000142
  84	8.2585e+00	3.3079	6.308025	0.000193	1.925274	0.652301	0.000077
  85	8.3580e+00	3.3352	6.437213	0.000324	3.242567	1.098612	0.000130
  86	8.4575e+00	3.3833	6.546216	0.000274	2.735916	0.926953	0.000110
  87	8.5570e+00	3.4266	6.667330	0.000304	3.039907	1.029948	0.000122
  88	8.6565e+00	3.4587	6.780369	0.000284	2.837246	0.961285	0.000114
  89	8.7560e+00	3.4972	6.885335	0.000263	2.634586	0.892622	0.000105
  90	8.8555e+00	3.5341	7.018560	0.000334	3.343897	1.132943	0.000134
  91	8.9550e+00	3.5919	7.151786	0.000334	3.343897	1.132943	0.000134
  92	9.0545e+00	3.6256	7.305197	0.000385	3.850549	1.304601	0.000154
  93	9.1540e+00	3.6593	7.373828	0.000172	1.722614	0.583637	0.000069
  94	9.2535e+00	3.7026	7.503017	0.000324	3.242567	1.098612	0.000130
  95	9.3530e+00	3.7427	7.607982	0.000263	2.634586	0.892622	0.000105
  96	9.4525e+00	3.7892	7.704874	0.000243	2.431925	0.823959	0.000097
  97	9.5520e+00	3.8277	7.838099	0.000334	3.343897	1.132943	0.000134
  98	9.6515e+00	3.8502	7.967287	0.000324	3.242567	1.098612	0.000130
  99	9.7510e+00	3.9095	8.092439	0.000314	3.141237	1.064280	0.000126
 100	9.8505e+00	3.9384	8.189330	0.000243	2.431925	0.823959	0.000097
 101	9.9500e+00	3.9753	8.290258	0.000253	2.533256	0.858290	0.000101
 102	1.0050e+01	4.0154	8.439632	0.000375	3.749218	1.270270	0.000150
 103	1.0149e+01	4.0555	8.544598	0.000263	2.634586	0.892622	0.000105
 104	1.0248e+01	4.0988	8.669749	0.000314	3.141237	1.064280	0.000126
 105	1.0348e+01	4.1437	8.770677	0.000253	2.533256	0.858290	0.000101
 106	1.0447e+01	4.1758	8.907940	0.000345	3.445228	1.167275	0.000138
 107	1.0547e+01	4.2111	9.049240	0.000355	3.546558	1.201606	0.000142
 108	1.0646e+01	4.2528	9.142094	0.000233	2.330595	0.789627	0.000093
 109	1.0746e+01	4.2977	9.222837	0.000203	2.026605	0.686632	0.000081
 110	1.0845e+01	4.3394	9.380285	0.000395	3.951879	1.338933	0.000158
 111	1.0945e+01	4.3763	9.493325	0.000284	2.837246	0.961285	0.000114
 112	1.1044e+01	4.4261	9.626550	0.000334	3.343897	1.132943	0.000134
 113	1.1144e+01	4.4598	9.735553	0.000274	2.735916	0.926953	0.000110
 114	1.1243e+01	4.5031	9.876853	0.000355	3.546558	1.201606	0.000142
 115	1.1343e+01	4.5352	9.929335	0.000132	1.317293	0.446311	0.000053
 116	1.1443e+01	4.5897	10.111006	0.000456	4.559860	1.544922	0.000183
 117	1.1542e+01	4.6266	10.187712	0.000193	1.925274	0.652301	0.000077
 118	1.1642e+01	4.6555	10.329012	0.000355	3.546558	1.201606	0.000142
 119	1.1741e+01	4.6940	10.425903	0.000243	2.431925	0.823959	0.000097
 120	1.1841e+01	4.7437	10.555091	0.000324	3.242567	1.098612	0.000130
 121	1.1940e+01	4.7774	10.656020	0.000253	2.533256	0.858290	0.000101
 122	1.2040e+01	4.8175	10.769060	0.000284	2.837246	0.961285	0.000114
 123	1.2139e+01	4.8544	10.882099	0.000284	2.837246	0.961285	0.000114
 124	1.2239e+01	4.9041	11.031473	0.000375	3.749218	1.270270	0.000150
 125	1.2338e+01	4.9298	11.148550	0.000294	2.938577	0.995617	0.000118
 126	1.2438e+01	4.9763	11.265627	0.000294	2.938577	0.995617	0.000118
 127	1.2537e+01	5.0084	11.382704	0.000294	2.938577	0.995617	0.000118
 128	1.2636e+01	5.0646	11.483633	0.000253	2.533256	0.858290	0.000101
 129	1.2736e+01	5.0886	11.616858	0.000334	3.343897	1.132943	0.000134
 130	1.2835e+01	5.1416	11.746046	0.000324	3.242567	1.098612	0.000130
 131	1.2935e+01	5.1785	11.859086	0.000284	2.837246	0.961285	0.000114
 132	1.3034e+01	5.2025	11.939829	0.000203	2.026605	0.686632	0.000081
 133	1.3134e+01	5.2555	12.085166	0.000365	3.647888	1.235938	0.000146
 134	1.3233e+01	5.2956	12.206280	0.000304	3.039907	1.029948	0.000122
 135	1.3333e+01	5.3277	12.315283	0.000274	2.735916	0.926953	0.000110
 136	1.3432e+01	5.3742	12.456582	0.000355	3.546558	1.201606	0.000142
 137	1.3532e+01	5.4175	12.573659	0.000294	2.938577	0.995617	0.000118
 138	1.3632e+01	5.4512	12.626142	0.000132	1.317293	0.446311	0.000053
 139	1.3731e+01	5.4929	12.803776	0.000446	4.458530	1.510591	0.000179
 140	1.3831e+01	5.5346	12.912779	0.000274	2.735916	0.926953	0.000110
 141	1.3930e+01	5.5731	13.009670	0.000243	2.431925	0.823959	0.000097
 142	1.4030e+01	5.6164	13.122710	0.000284	2.837246	0.961285	0.000114
 143	1.4129e+01	5.6533	13.268047	0.000365	3.647888	1.235938	0.000146
 144	1.4229e+01	5.6854	13.364938	0.000243	2.431925	0.823959	0.000097
 145	1.4328e+01	5.7303	13.477978	0.000284	2.837246	0.961285	0.000114
 146	1.4428e+01	5.7672	13.595055	0.000294	2.938577	0.995617	0.000118
 147	1.4527e+01	5.7993	13.736354	0.000355	3.546558	1.201606	0.000142
 148	1.4627e+01	5.8458	13.853431	0.000294	2.938577	0.995617	0.000118
 149	1.4726e+01	5.8843	13.966471	0.000284	2.837246	0.961285	0.000114
 150	1.4825e+01	5.9308	14.107771	0.000355	3.546558	1.201606	0.000142
 151	1.4925e+01	5.9742	14.152179	0.000111	1.114632	0.377648	0.000045
 152	1.5024e+01	6.0111	14.333850	0.000456	4.559860	1.544922	0.000183
 153	1.5124e+01	6.0576	14.406519	0.000182	1.823944	0.617969	0.000073
 154	1.5223e+01	6.0897	14.539744	0.000334	3.343897	1.132943	0.000134
 155	1.5323e+01	6.1266	14.672970	0.000334	3.343897	1.132943	0.000134
 156	1.5422e+01	6.1699	14.802158	0.000324	3.242567	1.098612	0.000130
 157	1.5522e+01	6.2068	14.907124	0.000263	2.634586	0.892622	0.000105
 158	1.5621e+01	6.2533	15.036312	0.000324	3.242567	1.098612	0.000130
 159	1.5721e+01	6.2886	15.149352	0.000284	2.837246	0.961285	0.000114
 160	1.5820e+01	6.3303	15.246243	0.000243	2.431925	0.823959	0.000097
 161	1.5920e+01	6.3736	15.359283	0.000284	2.837246	0.961285	0.000114
 162	1.6020e+01	6.4105	15.472323	0.000284	2.837246	0.961285	0.000114
 163	1.6119e+01	6.4442	15.585363	0.000284	2.837246	0.961285	0.000114
 164	1.6218e+01	6.4843	15.714551	0.000324	3.242567	1.098612	0.000130
 165	1.6318e+01	6.5244	15.827591	0.000284	2.837246	0.961285	0.000114
 166	1.6418e+01	6.5725	15.920445	0.000233	2.330595	0.789627	0.000093
 167	1.6517e+01	6.6078	16.029447	0.000274	2.735916	0.926953	0.000110
 168	1.6616e+01	6.6544	16.134413	0.000263	2.634586	0.892622	0.000105
 169	1.6716e+01	6.6864	16.287824	0.000385	3.850549	1.304601	0.000154
 170	1.6816e+01	6.7298	16.396827	0.000274	2.735916	0.926953	0.000110
 171	1.6915e+01	6.7650	16.513904	0.000294	2.938577	0.995617	0.000118
 172	1.7015e+01	6.8084	16.635018	0.000304	3.039907	1.029948	0.000122
 173	1.7114e+01	6.8324	16.727872	0.000233	2.330595	0.789627	0.000093
 174	1.7213e+01	6.8886	16.857060	0.000324	3.242567	1.098612	0.000130
 175	1.7313e+01	6.9223	16.982211	0.000314	3.141237	1.064280	0.000126
 176	1.7413e+01	6.9704	17.095251	0.000284	2.837246	0.961285	0.000114
 177	1.7512e+01	6.9993	17.188105	0.000233	2.330595	0.789627	0.000093
 178	1.7611e+01	7.0442	17.333442	0.000365	3.647888	1.235938	0.000146
 179	1.7711e+01	7.1035	17.466668	0.000334	3.343897	1.132943	0.000134
 180	1.7811e+01	7.1244	17.551448	0.000213	2.127935	0.720964	0.000085
 181	1.7910e+01	7.1693	17.688710	0.000345	3.445228	1.167275	0.000138
 182	1.8009e+01	7.2142	17.769453	0.000203	2.026605	0.686632	0.000081
 183	1.8109e+01	7.2431	17.930938	0.000405	4.053209	1.373264	0.000162
 184	1.8209e+01	7.2800	18.027830	0.000243	2.431925	0.823959	0.000097
 185	1.8308e+01	7.3233	18.112609	0.000213	2.127935	0.720964	0.000085
 186	1.8407e+01	7.3618	18.237761	0.000314	3.141237	1.064280	0.000126
 187	1.8507e+01	7.3987	18.334652	0.000243	2.431925	0.823959	0.000097
 188	1.8607e+01	7.4404	18.447692	0.000284	2.837246	0.961285	0.000114
 189	1.8706e+01	7.4902	18.621289	0.000436	4.357200	1.476259	0.000174
 190	1.8805e+01	7.5271	18.714143	0.000233	2.330595	0.789627	0.000093
 191	1.8905e+01	7.5591	18.815071	0.000253	2.533256	0.858290	0.000101
 192	1.9005e+01	7.6057	18.948297	0.000334	3.343897	1.132943	0.000134
 193	1.9104e+01	7.6458	19.061336	0.000284	2.837246	0.961285	0.000114
 194	1.9203e+01	7.6859	19.138042	0.000193	1.925274	0.652301	0.000077
 195	1.9303e+01	7.7164	19.303565	0.000415	4.154539	1.407596	0.000166
 196	1.9402e+01	7.7645	19.380270	0.000193	1.925274	0.652301	0.000077
 197	1.9502e+01	7.8030	19.509458	0.000324	3.242567	1.098612	0.000130
 198	1.9602e+01	7.8415	19.630573	0.000304	3.039907	1.029948	0.000122
 199	1.9701e+01	7.8832	19.759761	0.000324	3.242567	1.098612	0.000130
 200	1.9800e+01	7.9313	19.852615	0.000233	2.330595	0.789627	0.000093
 201	1.9900e+01	7.9570	20.026212	0.000436	4.357200	1.476259	0.000174
 202	2.0000e+01	7.9987	20.074657	0.000122	1.215963	0.411979	0.000049
 203	2.0099e+01	8.0404	20.215957	0.000355	3.546558	1.201606	0.000142
 204	2.0198e+01	8.0821	20.324960	0.000274	2.735916	0.926953	0.000110
 205	2.0298e+01	8.1174	20.446074	0.000304	3.039907	1.029948	0.000122
 206	2.0398e+01	8.1623	20.571225	0.000314	3.141237	1.064280	0.000126
 207	2.0497e+01	8.1944	20.664079	0.000233	2.330595	0.789627	0.000093
 208	2.0596e+01	8.2393	20.773082	0.000274	2.735916	0.926953	0.000110
 209	2.0696e+01	8.2794	20.922456	0.000375	3.749218	1.270270	0.000150
 210	2.0796e+01	8.3179	21.039533	0.000294	2.938577	0.995617	0.000118
 211	2.0895e+01	8.3613	21.144498	0.000263	2.634586	0.892622	0.000105
 212	2.0994e+01	8.4110	21.249464	0.000263	2.634586	0.892622	0.000105
 213	2.1094e+01	8.4399	21.370578	0.000304	3.039907	1.029948	0.000122
 214	2.1194e+01	8.4816	21.475544	0.000263	2.634586	0.892622	0.000105
 215	2.1293e+01	8.5137	21.612806	0.000345	3.445228	1.167275	0.000138
 216	2.1392e+01	8.5682	21.713735	0.000253	2.533256	0.858290	0.000101
 217	2.1492e+01	8.6003	21.826774	0.000284	2.837246	0.961285	0.000114
 218	2.1591e+01	8.6436	21.955963	0.000324	3.242567	1.098612	0.000130
 219	2.1691e+01	8.6869	22.048817	0.000233	2.330595	0.789627	0.000093
 220	2.1791e+01	8.7302	22.186079	0.000345	3.445228	1.167275	0.000138
 221	2.1890e+01	8.7591	22.270859	0.000213	2.127935	0.720964	0.000085
 222	2.1989e+01	8.7976	22.428308	0.000395	3.951879	1.338933	0.000158
 223	2.2089e+01	8.8297	22.496939	0.000172	1.722614	0.583637	0.000069
 224	2.2189e+01	8.8842	22.622090	0.000314	3.141237	1.064280	0.000126
 225	2.2288e+01	8.9179	22.723019	0.000253	2.533256	0.858290	0.000101
 226	2.2387e+01	8.9677	22.880467	0.000395	3.951879	1.338933	0.000158
 227	2.2487e+01	8.9949	22.977358	0.000243	2.431925	0.823959	0.000097
 228	2.2587e+01	9.0479	23.074249	0.000243	2.431925	0.823959	0.000097
 229	2.2686e+01	9.0880	23.211512	0.000345	3.445228	1.167275	0.000138
 230	2.2785e+01	9.1120	23.328589	0.000294	2.938577	0.995617	0.000118
 231	2.2885e+01	9.1538	23.449703	0.000304	3.039907	1.029948	0.000122
 232	2.2985e+01	9.2019	23.538520	0.000223	2.229265	0.755295	0.000089
 233	2.3084e+01	9.2259	23.655597	0.000294	2.938577	0.995617	0.000118
 234	2.3183e+01	9.2805	23.764600	0.000274	2.735916	0.926953	0.000110
 235	2.3283e+01	9.3206	23.881676	0.000294	2.938577	0.995617	0.000118
 236	2.3383e+01	9.3607	23.974531	0.000233	2.330595	0.789627	0.000093
 237	2.3482e+01	9.4024	24.107756	0.000334	3.343897	1.132943	0.000134
 238	2.3581e+01	9.4313	24.249056	0.000355	3.546558	1.201606	0.000142
 239	2.3681e+01	9.4794	24.378244	0.000324	3.242567	1.098612	0.000130
 240	2.3780e+01	9.5227	24.426690	0.000122	1.215963	0.411979	0.000049
 241	2.3880e+01	9.5580	24.600287	0.000436	4.357200	1.476259	0.000174
 242	2.3980e+01	9.5997	24.701215	0.000253	2.533256	0.858290	0.000101
 243	2.4079e+01	9.6414	24.806181	0.000263	2.634586	0.892622	0.000105
 244	2.4178e+01	9.6767	24.935369	0.000324	3.242567	1.098612	0.000130
 245	2.4278e+01	9.7168	25.060520	0.000314	3.141237	1.064280	0.000126
 246	2.4378e+01	9.7553	25.157411	0.000243	2.431925	0.823959	0.000097
 247	2.4477e+01	9.8003	25.282563	0.000314	3.141237	1.064280	0.000126
 248	2.4576e+01	9.8388	25.391565	0.000274	2.735916	0.926953	0.000110
 249	2.4676e+01	9.8676	25.536902	0.000365	3.647888	1.235938	0.000146
 250	2.4776e+01	9.9126	25.601496	0.000162	1.621284	0.549306	0.000065
 251	2.4875e+01	9.9462	25.762982	0.000405	4.053209	1.373264	0.000162
 252	2.4974e+01	9.9912	25.892170	0.000324	3.242567	1.098612	0.000130
 253	2.5074e+01	10.0377	26.017321	0.000314	3.141237	1.064280	0.000126
 254	2.5174e+01	10.0714	26.102101	0.000213	2.127935	0.720964	0.000085
 255	2.5273e+01	10.1115	26.223215	0.000304	3.039907	1.029948	0.000122
 256	2.5372e+01	10.1580	26.332218	0.000274	2.735916	0.926953	0.000110
 257	2.5472e+01	10.1981	26.445258	0.000284	2.837246	0.961285	0.000114
 258	2.5572e+01	10.2350	26.542149	0.000243	2.431925	0.823959	0.000097
 259	2.5671e+01	10.2767	26.691523	0.000375	3.749218	1.270270	0.000150
 260	2.5770e+01	10.3168	26.788414	0.000243	2.431925	0.823959	0.000097
 261	2.5870e+01	10.3505	26.873194	0.000213	2.127935	0.720964	0.000085
 262	2.5970e+01	10.3874	27.014494	0.000355	3.546558	1.201606	0.000142
 263	2.6069e+01	10.4339	27.167905	0.000385	3.850549	1.304601	0.000154
 264	2.6169e+01	10.4724	27.280945	0.000284	2.837246	0.961285	0.000114
 265	2.6268e+01	10.5109	27.361687	0.000203	2.026605	0.686632	0.000081
 266	2.6367e+01	10.5526	27.482802	0.000304	3.039907	1.029948	0.000122
 267	2.6467e+01	10.5976	27.575656	0.000233	2.330595	0.789627	0.000093
 268	2.6567e+01	10.6280	27.696770	0.000304	3.039907	1.029948	0.000122
 269	2.6666e+01	10.6698	27.854218	0.000395	3.951879	1.338933	0.000158
 270	2.6765e+01	10.7163	27.938998	0.000213	2.127935	0.720964	0.000085
 271	2.6865e+01	10.7548	28.088372	0.000375	3.749218	1.270270	0.000150
 272	2.6965e+01	10.7853	28.181226	0.000233	2.330595	0.789627	0.000093
 273	2.7064e+01	10.8318	28.310414	0.000324	3.242567	1.098612	0.000130
 274	2.7163e+01	10.8639	28.391157	0.000203	2.026605	0.686632	0.000081
 275	2.7263e+01	10.9120	28.504197	0.000284	2.837246	0.961285	0.000114
 276	2.7363e+01	10.9457	28.649534	0.000365	3.647888	1.235938	0.000146
 277	2.7462e+01	11.0050	28.738351	0.000223	2.229265	0.755295	0.000089
 278	2.7561e+01	11.0307	28.851391	0.000284	2.837246	0.961285	0.000114
 279	2.7661e+01	11.0692	28.988653	0.000345	3.445228	1.167275	0.000138
 280	2.7761e+01	11.1205	29.117842	0.000324	3.242567	1.098612	0.000130
 281	2.7860e+01	11.1526	29.194547	0.000193	1.925274	0.652301	0.000077
 282	2.7959e+01	11.1927	29.339884	0.000365	3.647888	1.235938	0.000146
 283	2.8059e+01	11.2264	29.396404	0.000142	1.418623	0.480643	0.000057
 284	2.8159e+01	11.2681	29.553852	0.000395	3.951879	1.338933	0.000158
 285	2.8258e+01	11.3082	29.658818	0.000263	2.634586	0.892622	0.000105
 286	2.8358e+01	11.3516	29.779932	0.000304	3.039907	1.029948	0.000122
 287	2.8457e+01	11.3884	29.880860	0.000253	2.533256	0.858290	0.000101
 288	2.8556e+01	11.4286	30.001974	0.000304	3.039907	1.029948	0.000122
 289	2.8656e+01	11.4719	30.102903	0.000253	2.533256	0.858290	0.000101
 290	2.8756e+01	11.5072	30.211905	0.000274	2.735916	0.926953	0.000110
 291	2.8855e+01	11.5473	30.341094	0.000324	3.242567	1.098612	0.000130
 292	2.8954e+01	11.5874	30.450096	0.000274	2.735916	0.926953	0.000110
 293	2.9054e+01	11.6291	30.559099	0.000274	2.735916	0.926953	0.000110
 294	2.9154e+01	11.6660	30.692324	0.000334	3.343897	1.132943	0.000134
 295	2.9253e+01	11.7173	30.785179	0.000233	2.330595	0.789627	0.000093
 296	2.9352e+01	11.7446	30.918404	0.000334	3.343897	1.132943	0.000134
 297	2.9452e+01	11.7943	30.999147	0.000203	2.026605	0.686632	0.000081
 298	2.9552e+01	11.8216	31.136409	0.000345	3.445228	1.167275	0.000138
 299	2.9651e+01	11.8745	31.229264	0.000233	2.330595	0.789627	0.000093
 300	2.9750e+01	11.9146	31.366526	0.000345	3.445228	1.167275	0.000138
 301	2.9850e+01	11.9483	31.479566	0.000284	2.837246	0.961285	0.000114
 302	2.9950e+01	11.9900	31.568383	0.000223	2.229265	0.755295	0.000089
 303	3.0049e+01	12.0317	31.717757	0.000375	3.749218	1.270270	0.000150
 304	3.0148e+01	12.0590	31.850982	0.000334	3.343897	1.132943	0.000134
 305	3.0248e+01	12.1039	31.955948	0.000263	2.634586	0.892622	0.000105
 306	3.0348e+01	12.1424	32.056876	0.000253	2.533256	0.858290	0.000101
 307	3.0447e+01	12.1922	32.169916	0.000284	2.837246	0.961285	0.000114
 308	3.0547e+01	12.2323	32.262770	0.000233	2.330595	0.789627	0.000093
 309	3.0646e+01	12.2708	32.400033	0.000345	3.445228	1.167275	0.000138
 310	3.0745e+01	12.3093	32.504998	0.000263	2.634586	0.892622	0.000105
 311	3.0845e+01	12.3446	32.642261	0.000345	3.445228	1.167275	0.000138
 312	3.0945e+01	12.3911	32.731078	0.000223	2.229265	0.755295	0.000089
 313	3.1044e+01	12.4264	32.811821	0.000203	2.026605	0.686632	0.000081
 314	3.1143e+01	12.4633	32.928898	0.000294	2.938577	0.995617	0.000118
 315	3.1243e+01	12.5002	33.082309	0.000385	3.850549	1.304601	0.000154
 316	3.1343e+01	12.5579	33.191311	0.000274	2.735916	0.926953	0.000110
 317	3.1442e+01	12.5868	33.308388	0.000294	2.938577	0.995617	0.000118
 318	3.1541e+01	12.6317	33.401243	0.000233	2.330595	0.789627	0.000093
 319	3.1641e+01	12.6638	33.506208	0.000263	2.634586	0.892622	0.000105
 320	3.1741e+01	12.7135	33.659619	0.000385	3.850549	1.304601	0.000154
 321	3.1840e+01	12.7392	33.768622	0.000274	2.735916	0.926953	0.000110
 322	3.1939e+01	12.7809	33.853402	0.000213	2.127935	0.720964	0.000085
 323	3.2039e+01	12.8178	33.938182	0.000213	2.127935	0.720964	0.000085
 324	3.2139e+01	12.8724	34.083518	0.000365	3.647888	1.235938	0.000146
 325	3.2238e+01	12.9061	34.200595	0.000294	2.938577	0.995617	0.000118
 326	3.2337e+01	12.9462	34.273264	0.000182	1.823944	0.617969	0.000073
 327	3.2437e+01	12.9750	34.354007	0.000203	2.026605	0.686632	0.000081
 328	3.2536e+01	13.0264	34.519529	0.000415	4.154539	1.407596	0.000166
 329	3.2636e+01	13.0569	34.644680	0.000314	3.141237	1.064280	0.000126
 330	3.2736e+01	13.0905	34.733497	0.000223	2.229265	0.755295	0.000089
 331	3.2835e+01	13.1419	34.850574	0.000294	2.938577	0.995617	0.000118
 332	3.2934e+01	13.1820	34.959577	0.000274	2.735916	0.926953	0.000110
 333	3.3034e+01	13.2060	35.068580	0.000274	2.735916	0.926953	0.000110
 334	3.3133e+01	13.2702	35.165471	0.000243	2.431925	0.823959	0.000097
 335	3.3233e+01	13.3007	35.258325	0.000233	2.330595	0.789627	0.000093
 336	3.3333e+01	13.3360	35.375402	0.000294	2.938577	0.995617	0.000118
 337	3.3432e+01	13.3825	35.508627	0.000334	3.343897	1.132943	0.000134
 338	3.3532e+01	13.4194	35.629741	0.000304	3.039907	1.029948	0.000122
 339	3.3631e+01	13.4659	35.738744	0.000274	2.735916	0.926953	0.000110
 340	3.3730e+01	13.4980	35.791227	0.000132	1.317293	0.446311	0.000053
 341	3.3830e+01	13.5477	35.932527	0.000355	3.546558	1.201606	0.000142
 342	3.3929e+01	13.5814	36.073826	0.000355	3.546558	1.201606	0.000142
 343	3.4029e+01	13.6328	36.150532	0.000193	1.925274	0.652301	0.000077
 344	3.4129e+01	13.6536	36.243386	0.000233	2.330595	0.789627	0.000093
 345	3.4228e+01	13.7050	36.356426	0.000284	2.837246	0.961285	0.000114
 346	3.4328e+01	13.7451	36.489651	0.000334	3.343897	1.132943	0.000134
 347	3.4427e+01	13.7836	36.586543	0.000243	2.431925	0.823959	0.000097
 348	3.4526e+01	13.8301	36.715731	0.000324	3.242567	1.098612	0.000130
 349	3.4626e+01	13.8558	36.820696	0.000263	2.634586	0.892622	0.000105
 350	3.4725e+01	13.8894	36.957959	0.000345	3.445228	1.167275	0.000138
 351	3.4825e+01	13.9296	37.038702	0.000203	2.026605	0.686632	0.000081
 352	3.4925e+01	13.9697	37.135593	0.000243	2.431925	0.823959	0.000097
 353	3.5024e+01	14.0194	37.293041	0.000395	3.951879	1.338933	0.000158
 354	3.5123e+01	14.0563	37.373784	0.000203	2.026605	0.686632	0.000081
 355	3.5223e+01	14.0980	37.486824	0.000284	2.837246	0.961285	0.000114
 356	3.5322e+01	14.1397	37.575641	0.000223	2.229265	0.755295	0.000089
 357	3.5422e+01	14.1814	37.668495	0.000233	2.330595	0.789627	0.000093
 358	3.5522e+01	14.2135	37.797683	0.000324	3.242567	1.098612	0.000130
 359	3.5621e+01	14.2520	37.918797	0.000304	3.039907	1.029948	0.000122
 360	3.5721e+01	14.2985	38.035874	0.000294	2.938577	0.995617	0.000118
 361	3.5820e+01	14.3370	38.128728	0.000233	2.330595	0.789627	0.000093
 362	3.5919e+01	14.3739	38.261954	0.000334	3.343897	1.132943	0.000134
 363	3.6019e+01	14.4156	38.411328	0.000375	3.749218	1.270270	0.000150
 364	3.6118e+01	14.4606	38.479959	0.000172	1.722614	0.583637	0.000069
 365	3.6218e+01	14.4910	38.584925	0.000263	2.634586	0.892622	0.000105
 366	3.6318e+01	14.5343	38.714113	0.000324	3.242567	1.098612	0.000130
 367	3.6417e+01	14.5712	38.806967	0.000233	2.330595	0.789627	0.000093
 368	3.6517e+01	14.6162	38.887710	0.000203	2.026605	0.686632	0.000081
 369	3.6616e+01	14.6579	39.045158	0.000395	3.951879	1.338933	0.000158
 370	3.6715e+01	14.7012	39.150124	0.000263	2.634586	0.892622	0.000105
 371	3.6815e+01	14.7317	39.218755	0.000172	1.722614	0.583637	0.000069
 372	3.6914e+01	14.7766	39.327758	0.000274	2.735916	0.926953	0.000110
 373	3.7014e+01	14.8119	39.452909	0.000314	3.141237	1.064280	0.000126
 374	3.7114e+01	14.8472	39.582097	0.000324	3.242567	1.098612	0.000130
 375	3.7213e+01	14.9033	39.703211	0.000304	3.039907	1.029948	0.000122
 376	3.7313e+01	14.9306	39.800103	0.000243	2.431925	0.823959	0.000097
 377	3.7412e+01	14.9819	39.876808	0.000193	1.925274	0.652301	0.000077
 378	3.7511e+01	15.0060	40.014071	0.000345	3.445228	1.167275	0.000138
 379	3.7611e+01	15.0573	40.094814	0.000203	2.026605	0.686632	0.000081
 380	3.7711e+01	15.1006	40.244188	0.000375	3.749218	1.270270	0.000150
 381	3.7810e+01	15.1327	40.357227	0.000284	2.837246	0.961285	0.000114
 382	3.7910e+01	15.1776	40.425859	0.000172	1.722614	0.583637	0.000069
 383	3.8009e+01	15.2145	40.542936	0.000294	2.938577	0.995617	0.000118
 384	3.8108e+01	15.2482	40.664050	0.000304	3.039907	1.029948	0.000122
 385	3.8208e+01	15.2964	40.773052	0.000274	2.735916	0.926953	0.000110
 386	3.8307e+01	15.3349	40.886092	0.000284	2.837246	0.961285	0.000114
 387	3.8407e+01	15.3782	41.003169	0.000294	2.938577	0.995617	0.000118
 388	3.8507e+01	15.4135	41.075838	0.000182	1.823944	0.617969	0.000073
 389	3.8606e+01	15.4616	41.241360	0.000415	4.154539	1.407596	0.000166
 390	3.8706e+01	15.5033	41.330177	0.000223	2.229265	0.755295	0.000089
 391	3.8805e+01	15.5402	41.414957	0.000213	2.127935	0.720964	0.000085
 392	3.8904e+01	15.5691	41.564331	0.000375	3.749218	1.270270	0.000150
 393	3.9004e+01	15.6140	41.641037	0.000193	1.925274	0.652301	0.000077
 394	3.9103e+01	15.6573	41.758114	0.000294	2.938577	0.995617	0.000118
 395	3.9203e+01	15.6862	41.871153	0.000284	2.837246	0.961285	0.000114
 396	3.9303e+01	15.7375	42.020527	0.000375	3.749218	1.270270	0.000150
 397	3.9402e+01	15.7696	42.077047	0.000142	1.418623	0.480643	0.000057
 398	3.9502e+01	15.8113	42.194124	0.000294	2.938577	0.995617	0.000118
 399	3.9601e+01	15.8594	42.286978	0.000233	2.330595	0.789627	0.000093
 400	3.9700e+01	15.8835	42.383870	0.000243	2.431925	0.823959	0.000097
 401	3.9800e+01	15.9316	42.517095	0.000334	3.343897	1.132943	0.000134
 402	3.9900e+01	15.9717	42.613986	0.000243	2.431925	0.823959	0.000097
 403	3.9999e+01	16.0086	42.743175	0.000324	3.242567	1.098612	0.000130
 404	4.0099e+01	16.0536	42.860252	0.000294	2.938577	0.995617	0.000118
 405	4.0198e+01	16.0937	42.969254	0.000274	2.735916	0.926953	0.000110
 406	4.0297e+01	16.1322	43.058071	0.000223	2.229265	0.755295	0.000089
 407	4.0397e+01	16.1659	43.195334	0.000345	3.445228	1.167275	0.000138
 408	4.0496e+01	16.2060	43.284151	0.000223	2.229265	0.755295	0.000089
 409	4.0596e+01	16.2525	43.457748	0.000436	4.357200	1.476259	0.000174
 410	4.0696e+01	16.2862	43.506193	0.000122	1.215963	0.411979	0.000049
 411	4.0795e+01	16.3311	43.627307	0.000304	3.039907	1.029948	0.000122
 412	4.0895e+01	16.3584	43.752459	0.000314	3.141237	1.064280	0.000126
 413	4.0994e+01	16.4161	43.877610	0.000314	3.141237	1.064280	0.000126
 414	4.1093e+01	16.4498	43.954315	0.000193	1.925274	0.652301	0.000077
 415	4.1193e+01	16.4899	44.079467	0.000314	3.141237	1.064280	0.000126
 416	4.1292e+01	16.5300	44.200581	0.000304	3.039907	1.029948	0.000122
 417	4.1392e+01	16.5637	44.353992	0.000385	3.850549	1.304601	0.000154
 418	4.1492e+01	16.6006	44.418586	0.000162	1.621284	0.549306	0.000065
 419	4.1591e+01	16.6535	44.551811	0.000334	3.343897	1.132943	0.000134
 420	4.1691e+01	16.6920	44.656777	0.000263	2.634586	0.892622	0.000105
 421	4.1790e+01	16.7354	44.749631	0.000233	2.330595	0.789627	0.000093
 422	4.1889e+01	16.7674	44.899005	0.000375	3.749218	1.270270	0.000150
 423	4.1989e+01	16.8027	44.959562	0.000152	1.519953	0.514974	0.000061
 424	4.2089e+01	16.8573	45.080676	0.000304	3.039907	1.029948	0.000122
 425	4.2188e+01	16.8846	45.193716	0.000284	2.837246	0.961285	0.000114
 426	4.2288e+01	16.9247	45.318867	0.000314	3.141237	1.064280	0.000126
 427	4.2387e+01	16.9664	45.448056	0.000324	3.242567	1.098612	0.000130
 428	4.2486e+01	17.0081	45.540910	0.000233	2.330595	0.789627	0.000093
 429	4.2586e+01	17.0370	45.641838	0.000253	2.533256	0.858290	0.000101
 430	4.2685e+01	17.0835	45.742766	0.000253	2.533256	0.858290	0.000101
 431	4.2785e+01	17.1236	45.888103	0.000365	3.647888	1.235938	0.000146
 432	4.2885e+01	17.1637	45.968846	0.000203	2.026605	0.686632	0.000081
 433	4.2984e+01	17.1974	46.098034	0.000324	3.242567	1.098612	0.000130
 434	4.3084e+01	17.2423	46.190889	0.000233	2.330595	0.789627	0.000093
 435	4.3183e+01	17.2888	46.283743	0.000233	2.330595	0.789627	0.000093
 436	4.3282e+01	17.3305	46.425042	0.000355	3.546558	1.201606	0.000142
 437	4.3382e+01	17.3642	46.550194	0.000314	3.141237	1.064280	0.000126
 438	4.3481e+01	17.4107	46.602676	0.000132	1.317293	0.446311	0.000053
 439	4.3581e+01	17.4428	46.784348	0.000456	4.559860	1.544922	0.000183
 440	4.3681e+01	17.4797	46.848942	0.000162	1.621284	0.549306	0.000065
 441	4.3780e+01	17.5230	46.978130	0.000324	3.242567	1.098612	0.000130
 442	4.3880e+01	17.5535	47.075021	0.000243	2.431925	0.823959	0.000097
 443	4.3979e+01	17.6049	47.236507	0.000405	4.053209	1.373264	0.000162
 444	4.4078e+01	17.6434	47.321287	0.000213	2.127935	0.720964	0.000085
 445	4.4178e+01	17.6899	47.414141	0.000233	2.330595	0.789627	0.000093
 446	4.4278e+01	17.7204	47.486809	0.000182	1.823944	0.617969	0.000073
 447	4.4377e+01	17.7637	47.652332	0.000415	4.154539	1.407596	0.000166
 448	4.4477e+01	17.8006	47.749223	0.000243	2.431925	0.823959	0.000097
 449	4.4576e+01	17.8503	47.854188	0.000263	2.634586	0.892622	0.000105
 450	4.4675e+01	17.8840	48.011637	0.000395	3.951879	1.338933	0.000158
 451	4.4775e+01	17.9257	48.100454	0.000223	2.229265	0.755295	0.000089
 452	4.4874e+01	17.9546	48.181196	0.000203	2.026605	0.686632	0.000081
 453	4.4974e+01	18.0027	48.290199	0.000274	2.735916	0.926953	0.000110
 454	4.5074e+01	18.0492	48.427462	0.000345	3.445228	1.167275	0.000138
 455	4.5173e+01	18.0893	48.544539	0.000294	2.938577	0.995617	0.000118
 456	4.5273e+01	18.1166	48.621244	0.000193	1.925274	0.652301	0.000077
 457	4.5372e+01	18.1663	48.774655	0.000385	3.850549	1.304601	0.000154
 458	4.5471e+01	18.2000	48.859435	0.000213	2.127935	0.720964	0.000085
 459	4.5571e+01	18.2337	48.976512	0.000294	2.938577	0.995617	0.000118
 460	4.5670e+01	18.2738	49.073403	0.000243	2.431925	0.823959	0.000097
 461	4.5770e+01	18.3203	49.222777	0.000375	3.749218	1.270270	0.000150
 462	4.5870e+01	18.3572	49.356003	0.000334	3.343897	1.132943	0.000134
 463	4.5969e+01	18.3973	49.412523	0.000142	1.418623	0.480643	0.000057
 464	4.6069e+01	18.4358	49.561897	0.000375	3.749218	1.270270	0.000150
 465	4.6168e+01	18.4824	49.614380	0.000132	1.317293	0.446311	0.000053
 466	4.6267e+01	18.5337	49.739531	0.000314	3.141237	1.064280	0.000126
 467	4.6367e+01	18.5578	49.860645	0.000304	3.039907	1.029948	0.000122
 468	4.6467e+01	18.6011	49.969648	0.000274	2.735916	0.926953	0.000110
 469	4.6566e+01	18.6412	50.094799	0.000314	3.141237	1.064280	0.000126
 470	4.6666e+01	18.6797	50.207839	0.000284	2.837246	0.961285	0.000114
 471	4.6765e+01	18.7230	50.357213	0.000375	3.749218	1.270270	0.000150
 472	4.6864e+01	18.7631	50.433918	0.000193	1.925274	0.652301	0.000077
 473	4.6964e+01	18.7936	50.534847	0.000253	2.533256	0.858290	0.000101
 474	4.7063e+01	18.8369	50.692295	0.000395	3.951879	1.338933	0.000158
 475	4.7163e+01	18.8786	50.781112	0.000223	2.229265	0.755295	0.000089
 476	4.7263e+01	18.9171	50.857817	0.000193	1.925274	0.652301	0.000077
 477	4.7362e+01	18.9588	50.987006	0.000324	3.242567	1.098612	0.000130
 478	4.7462e+01	19.0037	51.120231	0.000334	3.343897	1.132943	0.000134
 479	4.7561e+01	19.0422	51.229234	0.000274	2.735916	0.926953	0.000110
 480	4.7660e+01	19.0823	51.338237	0.000274	2.735916	0.926953	0.000110
 481	4.7760e+01	19.1225	51.439165	0.000253	2.533256	0.858290	0.000101
 482	4.7859e+01	19.1577	51.588539	0.000375	3.749218	1.270270	0.000150
 483	4.7959e+01	19.2075	51.665245	0.000193	1.925274	0.652301	0.000077
 484	4.8059e+01	19.2412	51.814619	0.000375	3.749218	1.270270	0.000150
 485	4.8158e+01	19.2781	51.883250	0.000172	1.722614	0.583637	0.000069
 486	4.8258e+01	19.3246	52.000327	0.000294	2.938577	0.995617	0.000118
 487	4.8357e+01	19.3567	52.101255	0.000253	2.533256	0.858290	0.000101
 488	4.8456e+01	19.4080	52.278889	0.000446	4.458530	1.510591	0.000179
 489	4.8556e+01	19.4449	52.307149	0.000071	0.709312	0.240321	0.000028
 490	4.8656e+01	19.4802	52.444412	0.000345	3.445228	1.167275	0.000138
 491	4.8755e+01	19.5139	52.537266	0.000233	2.330595	0.789627	0.000093
 492	4.8855e+01	19.5492	52.662417	0.000314	3.141237	1.064280	0.000126
 493	4.8954e+01	19.5861	52.743160	0.000203	2.026605	0.686632	0.000081
 494	4.9053e+01	19.6294	52.868311	0.000314	3.141237	1.064280	0.000126
 495	4.9153e+01	19.6727	52.969239	0.000253	2.533256	0.858290	0.000101
 496	4.9252e+01	19.7256	53.098428	0.000324	3.242567	1.098612	0.000130
 497	4.9352e+01	19.7561	53.203393	0.000263	2.634586	0.892622	0.000105
 498	4.9452e+01	19.7930	53.316433	0.000284	2.837246	0.961285	0.000114
 499	4.9551e+01	19.8395	53.421399	0.000263	2.634586	0.892622	0.000105
 500	4.9651e+01	19.8829	53.514253	0.000233	2.330595	0.789627	0.000093
 501	4.9750e+01	19.9085	53.623255	0.000274	2.735916	0.926953	0.000110
 502	4.9849e+01	19.9599	53.744370	0.000304	3.039907	1.029948	0.000122
 503	4.9949e+01	20.0000	53.837224	0.000233	2.330595	0.789627	0.000093
 504	5.0048e+01	19.9518	53.736295	0.000253	2.533256	0.858290	-0.000101
 505	5.0148e+01	19.9149	53.671701	0.000162	1.621284	0.549306	-0.000065
 506	5.0248e+01	19.8668	53.586921	0.000213	2.127935	0.720964	-0.000085
 507	5.0347e+01	19.8428	53.453696	0.000334	3.343897	1.132943	-0.000134
 508	5.0447e+01	19.7946	53.393139	0.000152	1.519953	0.514974	-0.000061
 509	5.0546e+01	19.7513	53.344693	0.000122	1.215963	0.411979	-0.000049
 510	5.0645e+01	19.7192	53.211468	0.000334	3.343897	1.132943	-0.000134
 511	5.0745e+01	19.6743	53.102465	0.000274	2.735916	0.926953	-0.000110
 512	5.0844e+01	19.6358	52.993462	0.000274	2.735916	0.926953	-0.000110
 513	5.0944e+01	19.5941	52.969239	0.000061	0.607981	0.205990	-0.000024
 514	5.1044e+01	19.5460	52.892534	0.000193	1.925274	0.652301	-0.000077
 515	5.1143e+01	19.5251	52.783531	0.000274	2.735916	0.926953	-0.000110
 516	5.1242e+01	19.4802	52.682603	0.000253	2.533256	0.858290	-0.000101
 517	5.1342e+01	19.4417	52.589749	0.000233	2.330595	0.789627	-0.000093
 518	5.1441e+01	19.3984	52.484783	0.000263	2.634586	0.892622	-0.000105
 519	5.1541e+01	19.3503	52.395966	0.000223	2.229265	0.755295	-0.000089
 520	5.1641e+01	19.3102	52.286964	0.000274	2.735916	0.926953	-0.000110
 521	5.1740e+01	19.2765	52.234481	0.000132	1.317293	0.446311	-0.000053
 522	5.1840e+01	19.2331	52.129515	0.000263	2.634586	0.892622	-0.000105
 523	5.1939e+01	19.1962	52.032624	0.000243	2.431925	0.823959	-0.000097
 524	5.2038e+01	19.1610	51.923621	0.000274	2.735916	0.926953	-0.000110
 525	5.2138e+01	19.1273	51.867101	0.000142	1.418623	0.480643	-0.000057
 526	5.2237e+01	19.0759	51.766173	0.000253	2.533256	0.858290	-0.000101
 527	5.2337e+01	19.0455	51.649096	0.000294	2.938577	0.995617	-0.000118
 528	5.2437e+01	19.0005	51.560279	0.000223	2.229265	0.755295	-0.000089
 529	5.2536e+01	18.9556	51.491648	0.000172	1.722614	0.583637	-0.000069
 530	5.2636e+01	18.9059	51.358422	0.000334	3.343897	1.132943	-0.000134
 531	5.2735e+01	18.8770	51.269605	0.000223	2.229265	0.755295	-0.000089
 532	5.2834e+01	18.8417	51.209048	0.000152	1.519953	0.514974	-0.000061
 533	5.2934e+01	18.8032	51.083897	0.000314	3.141237	1.064280	-0.000126
 534	5.3033e+01	18.7567	50.982969	0.000253	2.533256	0.858290	-0.000101
 535	5.3133e+01	18.7134	50.898189	0.000213	2.127935	0.720964	-0.000085
 536	5.3233e+01	18.6861	50.829558	0.000172	1.722614	0.583637	-0.000069
 537	5.3332e+01	18.6380	50.704406	0.000314	3.141237	1.064280	-0.000126
 538	5.3431e+01	18.5915	50.603478	0.000253	2.533256	0.858290	-0.000101
 539	5.3531e+01	18.5626	50.534847	0.000172	1.722614	0.583637	-0.000069
 540	5.3630e+01	18.5225	50.417770	0.000294	2.938577	0.995617	-0.000118
 541	5.3730e+01	18.4792	50.320878	0.000243	2.431925	0.823959	-0.000097
 542	5.3830e+01	18.4439	50.219950	0.000253	2.533256	0.858290	-0.000101
 543	5.3929e+01	18.4086	50.123059	0.000243	2.431925	0.823959	-0.000097
 544	5.4029e+01	18.3604	50.018093	0.000263	2.634586	0.892622	-0.000105
 545	5.4128e+01	18.3268	49.941388	0.000193	1.925274	0.652301	-0.000077
 546	5.4227e+01	18.2850	49.872756	0.000172	1.722614	0.583637	-0.000069
 547	5.4327e+01	18.2353	49.755679	0.000294	2.938577	0.995617	-0.000118
 548	5.4426e+01	18.2048	49.626491	0.000324	3.242567	1.098612	-0.000130
 549	5.4526e+01	18.1551	49.545748	0.000203	2.026605	0.686632	-0.000081
 550	5.4626e+01	18.1198	49.444820	0.000253	2.533256	0.858290	-0.000101
 551	5.4725e+01	18.0829	49.339854	0.000263	2.634586	0.892622	-0.000105
 552	5.4825e+01	18.0460	49.255075	0.000213	2.127935	0.720964	-0.000085
 553	5.4924e+01	18.0027	49.142035	0.000284	2.837246	0.961285	-0.000114
 554	5.5023e+01	17.9610	49.061292	0.000203	2.026605	0.686632	-0.000081
 555	5.5123e+01	17.9193	48.972475	0.000223	2.229265	0.755295	-0.000089
 556	5.5222e+01	17.8808	48.851361	0.000304	3.039907	1.029948	-0.000122
 557	5.5322e+01	17.8423	48.774655	0.000193	1.925274	0.652301	-0.000077
 558	5.5422e+01	17.8086	48.673727	0.000253	2.533256	0.858290	-0.000101
 559	5.5521e+01	17.7653	48.572799	0.000253	2.533256	0.858290	-0.000101
 560	5.5620e+01	17.7155	48.463796	0.000274	2.735916	0.926953	-0.000110
 561	5.5720e+01	17.6931	48.358830	0.000263	2.634586	0.892622	-0.000105
 562	5.5819e+01	17.6482	48.257902	0.000253	2.533256	0.858290	-0.000101
 563	5.5919e+01	17.6000	48.161011	0.000243	2.431925	0.823959	-0.000097
 564	5.6019e+01	17.5647	48.068157	0.000233	2.330595	0.789627	-0.000093
 565	5.6118e+01	17.5230	47.987414	0.000203	2.026605	0.686632	-0.000081
 566	5.6218e+01	17.4813	47.870337	0.000294	2.938577	0.995617	-0.000118
 567	5.6317e+01	17.4460	47.769409	0.000253	2.533256	0.858290	-0.000101
 568	5.6416e+01	17.4091	47.700777	0.000172	1.722614	0.583637	-0.000069
 569	5.6516e+01	17.3642	47.559478	0.000355	3.546558	1.201606	-0.000142
 570	5.6615e+01	17.3241	47.450475	0.000274	2.735916	0.926953	-0.000110
 571	5.6715e+01	17.2904	47.369732	0.000203	2.026605	0.686632	-0.000081
 572	5.6815e+01	17.2407	47.272841	0.000243	2.431925	0.823959	-0.000097
 573	5.6914e+01	17.2070	47.171913	0.000253	2.533256	0.858290	-0.000101
 574	5.7014e+01	17.1621	47.058873	0.000284	2.837246	0.961285	-0.000114
 575	5.7113e+01	17.1284	46.974093	0.000213	2.127935	0.720964	-0.000085
 576	5.7212e+01	17.0931	46.897387	0.000193	1.925274	0.652301	-0.000077
 577	5.7312e+01	17.0418	46.808570	0.000223	2.229265	0.755295	-0.000089
 578	5.7411e+01	17.0033	46.691493	0.000294	2.938577	0.995617	-0.000118
 579	5.7511e+01	16.9664	46.602676	0.000223	2.229265	0.755295	-0.000089
 580	5.7611e+01	16.9247	46.469451	0.000334	3.343897	1.132943	-0.000134
 581	5.7710e+01	16.8829	46.412931	0.000142	1.418623	0.480643	-0.000057
 582	5.7809e+01	16.8396	46.279706	0.000334	3.343897	1.132943	-0.000134
 583	5.7909e+01	16.8043	46.198963	0.000203	2.026605	0.686632	-0.000081
 584	5.8008e+01	16.7674	46.098034	0.000253	2.533256	0.858290	-0.000101
 585	5.8108e+01	16.7305	46.013255	0.000213	2.127935	0.720964	-0.000085
 586	5.8208e+01	16.6856	45.916363	0.000243	2.431925	0.823959	-0.000097
 587	5.8307e+01	16.6455	45.779101	0.000345	3.445228	1.167275	-0.000138
 588	5.8407e+01	16.6086	45.714507	0.000162	1.621284	0.549306	-0.000065
 589	5.8506e+01	16.5621	45.641838	0.000182	1.823944	0.617969	-0.000073
 590	5.8605e+01	16.5156	45.508613	0.000334	3.343897	1.132943	-0.000134
 591	5.8705e+01	16.4835	45.427870	0.000203	2.026605	0.686632	-0.000081
 592	5.8804e+01	16.4498	45.330979	0.000243	2.431925	0.823959	-0.000097
 593	5.8904e+01	16.4065	45.234087	0.000243	2.431925	0.823959	-0.000097
 594	5.9004e+01	16.3696	45.100862	0.000334	3.343897	1.132943	-0.000134
 595	5.9103e+01	16.3439	45.012045	0.000223	2.229265	0.755295	-0.000089
 596	5.9203e+01	16.2782	44.927265	0.000213	2.127935	0.720964	-0.000085
 597	5.9302e+01	16.2413	44.846522	0.000203	2.026605	0.686632	-0.000081
 598	5.9401e+01	16.2044	44.729445	0.000294	2.938577	0.995617	-0.000118
 599	5.9501e+01	16.1707	44.644666	0.000213	2.127935	0.720964	-0.000085
 600	5.9600e+01	16.1322	44.515477	0.000324	3.242567	1.098612	-0.000130
 601	5.9700e+01	16.0889	44.414549	0.000253	2.533256	0.858290	-0.000101
 602	5.9800e+01	16.0520	44.329769	0.000213	2.127935	0.720964	-0.000085
 603	5.9899e+01	16.0086	44.204618	0.000314	3.141237	1.064280	-0.000126
 604	5.9998e+01	15.9717	44.115801	0.000223	2.229265	0.755295	-0.000089
 605	6.0098e+01	15.9348	44.002761	0.000284	2.837246	0.961285	-0.000114
 606	6.0197e+01	15.8947	43.905870	0.000243	2.431925	0.823959	-0.000097
 607	6.0297e+01	15.8466	43.853387	0.000132	1.317293	0.446311	-0.000053
 608	6.0397e+01	15.8242	43.732273	0.000304	3.039907	1.029948	-0.000122
 609	6.0496e+01	15.7680	43.611159	0.000304	3.039907	1.029948	-0.000122
 610	6.0596e+01	15.7311	43.510230	0.000253	2.533256	0.858290	-0.000101
 611	6.0695e+01	15.6910	43.417376	0.000233	2.330595	0.789627	-0.000093
 612	6.0794e+01	15.6525	43.259928	0.000395	3.951879	1.338933	-0.000158
 613	6.0894e+01	15.6188	43.239742	0.000051	0.506651	0.171658	-0.000020
 614	6.0993e+01	15.5723	43.110554	0.000324	3.242567	1.098612	-0.000130
 615	6.1093e+01	15.5274	43.033848	0.000193	1.925274	0.652301	-0.000077
 616	6.1193e+01	15.4937	42.912734	0.000304	3.039907	1.029948	-0.000122
 617	6.1292e+01	15.4391	42.791620	0.000304	3.039907	1.029948	-0.000122
 618	6.1392e+01	15.4087	42.710878	0.000203	2.026605	0.686632	-0.000081
 619	6.1491e+01	15.3653	42.613986	0.000243	2.431925	0.823959	-0.000097
 620	6.1590e+01	15.3349	42.509021	0.000263	2.634586	0.892622	-0.000105
 621	6.1690e+01	15.2932	42.400018	0.000274	2.735916	0.926953	-0.000110
 622	6.1789e+01	15.2482	42.299090	0.000253	2.533256	0.858290	-0.000101
 623	6.1889e+01	15.2097	42.198161	0.000253	2.533256	0.858290	-0.000101
 624	6.1989e+01	15.1664	42.093196	0.000263	2.634586	0.892622	-0.000105
 625	6.2088e+01	15.1295	41.988230	0.000263	2.634586	0.892622	-0.000105
 626	6.2188e+01	15.0910	41.879228	0.000274	2.735916	0.926953	-0.000110
 627	6.2287e+01	15.0541	41.818671	0.000152	1.519953	0.514974	-0.000061
 628	6.2386e+01	15.0156	41.661222	0.000395	3.951879	1.338933	-0.000158
 629	6.2486e+01	14.9723	41.632962	0.000071	0.709312	0.240321	-0.000028
 630	6.2586e+01	14.9370	41.475514	0.000395	3.951879	1.338933	-0.000158
 631	6.2685e+01	14.8905	41.390734	0.000213	2.127935	0.720964	-0.000085
 632	6.2785e+01	14.8568	41.301917	0.000223	2.229265	0.755295	-0.000089
 633	6.2884e+01	14.8135	41.176766	0.000314	3.141237	1.064280	-0.000126
 634	6.2983e+01	14.7798	41.100060	0.000193	1.925274	0.652301	-0.000077
 635	6.3083e+01	14.7397	40.950686	0.000375	3.749218	1.270270	-0.000150
 636	6.3182e+01	14.6980	40.922426	0.000071	0.709312	0.240321	-0.000028
 637	6.3282e+01	14.6547	40.793238	0.000324	3.242567	1.098612	-0.000130
 638	6.3382e+01	14.6178	40.688273	0.000263	2.634586	0.892622	-0.000105
 639	6.3481e+01	14.5680	40.530824	0.000395	3.951879	1.338933	-0.000158
 640	6.3581e+01	14.5327	40.498527	0.000081	0.810642	0.274653	-0.000032
 641	6.3680e+01	14.4991	40.381450	0.000294	2.938577	0.995617	-0.000118
 642	6.3779e+01	14.4557	40.244188	0.000345	3.445228	1.167275	-0.000138
 643	6.3879e+01	14.4172	40.171519	0.000182	1.823944	0.617969	-0.000073
 644	6.3978e+01	14.3739	40.042331	0.000324	3.242567	1.098612	-0.000130
 645	6.4078e+01	14.3322	39.969662	0.000182	1.823944	0.617969	-0.000073
 646	6.4177e+01	14.3033	39.872771	0.000243	2.431925	0.823959	-0.000097
 647	6.4277e+01	14.2568	39.787991	0.000213	2.127935	0.720964	-0.000085
 648	6.4376e+01	14.2167	39.650729	0.000345	3.445228	1.167275	-0.000138
 649	6.4476e+01	14.1702	39.549800	0.000253	2.533256	0.858290	-0.000101
 650	6.4576e+01	14.1397	39.489243	0.000152	1.519953	0.514974	-0.000061
 651	6.4675e+01	14.1012	39.347943	0.000355	3.546558	1.201606	-0.000142
 652	6.4775e+01	14.0595	39.251052	0.000243	2.431925	0.823959	-0.000097
 653	6.4874e+01	14.0226	39.162235	0.000223	2.229265	0.755295	-0.000089
 654	6.4974e+01	13.9905	38.996713	0.000415	4.154539	1.407596	-0.000166
 655	6.5073e+01	13.9392	38.911933	0.000213	2.127935	0.720964	-0.000085
 656	6.5172e+01	13.8911	38.827153	0.000213	2.127935	0.720964	-0.000085
 657	6.5272e+01	13.8590	38.726225	0.000253	2.533256	0.858290	-0.000101
 658	6.5371e+01	13.8237	38.613185	0.000284	2.837246	0.961285	-0.000114
 659	6.5471e+01	13.7820	38.508219	0.000263	2.634586	0.892622	-0.000105
 660	6.5570e+01	13.7338	38.415365	0.000233	2.330595	0.789627	-0.000093
 661	6.5670e+01	13.7034	38.306362	0.000274	2.735916	0.926953	-0.000110
 662	6.5769e+01	13.6600	38.169100	0.000345	3.445228	1.167275	-0.000138
 663	6.5869e+01	13.6199	38.088357	0.000203	2.026605	0.686632	-0.000081
 664	6.5969e+01	13.5879	37.983392	0.000263	2.634586	0.892622	-0.000105
 665	6.6068e+01	13.5397	37.894575	0.000223	2.229265	0.755295	-0.000089
 666	6.6168e+01	13.4932	37.769423	0.000314	3.141237	1.064280	-0.000126
 667	6.6267e+01	13.4627	37.696755	0.000182	1.823944	0.617969	-0.000073
 668	6.6367e+01	13.4082	37.555455	0.000355	3.546558	1.201606	-0.000142
 669	6.6466e+01	13.3793	37.446453	0.000274	2.735916	0.926953	-0.000110
 670	6.6566e+01	13.3440	37.301116	0.000365	3.647888	1.235938	-0.000146
 671	6.6665e+01	13.3007	37.224410	0.000193	1.925274	0.652301	-0.000077
 672	6.6764e+01	13.2622	37.123482	0.000253	2.533256	0.858290	-0.000101
 673	6.6864e+01	13.2205	37.034665	0.000223	2.229265	0.755295	-0.000089
 674	6.6963e+01	13.1804	36.917588	0.000294	2.938577	0.995617	-0.000118
 675	6.7063e+01	13.1419	36.816659	0.000253	2.533256	0.858290	-0.000101
 676	6.7162e+01	13.1034	36.703620	0.000284	2.837246	0.961285	-0.000114
 677	6.7262e+01	13.0633	36.586543	0.000294	2.938577	0.995617	-0.000118
 678	6.7362e+01	13.0296	36.530023	0.000142	1.418623	0.480643	-0.000057
 679	6.7461e+01	12.9847	36.376612	0.000385	3.850549	1.304601	-0.000154
 680	6.7561e+01	12.9510	36.267609	0.000274	2.735916	0.926953	-0.000110
 681	6.7660e+01	12.9093	36.227238	0.000101	1.013302	0.343316	-0.000041
 682	6.7760e+01	12.8579	36.114198	0.000284	2.837246	0.961285	-0.000114
 683	6.7859e+01	12.8323	35.985009	0.000324	3.242567	1.098612	-0.000130
 684	6.7959e+01	12.7777	35.855821	0.000324	3.242567	1.098612	-0.000130
 685	6.8058e+01	12.7472	35.787190	0.000172	1.722614	0.583637	-0.000069
 686	6.8157e+01	12.7103	35.674150	0.000284	2.837246	0.961285	-0.000114
 687	6.8257e+01	12.6686	35.569184	0.000263	2.634586	0.892622	-0.000105
 688	6.8356e+01	12.6221	35.480367	0.000223	2.229265	0.755295	-0.000089
 689	6.8456e+01	12.5772	35.339068	0.000355	3.546558	1.201606	-0.000142
 690	6.8555e+01	12.5483	35.266399	0.000182	1.823944	0.617969	-0.000073
 691	6.8655e+01	12.5130	35.133174	0.000334	3.343897	1.132943	-0.000134
 692	6.8754e+01	12.4697	35.003985	0.000324	3.242567	1.098612	-0.000130
 693	6.8854e+01	12.4136	34.923243	0.000203	2.026605	0.686632	-0.000081
 694	6.8954e+01	12.3863	34.842500	0.000203	2.026605	0.686632	-0.000081
 695	6.9053e+01	12.3494	34.705237	0.000345	3.445228	1.167275	-0.000138
 696	6.9153e+01	12.3141	34.604309	0.000253	2.533256	0.858290	-0.000101
 697	6.9252e+01	12.2644	34.511455	0.000233	2.330595	0.789627	-0.000093
 698	6.9352e+01	12.2210	34.398415	0.000284	2.837246	0.961285	-0.000114
 699	6.9451e+01	12.1986	34.301524	0.000243	2.431925	0.823959	-0.000097
 700	6.9550e+01	12.1489	34.196558	0.000263	2.634586	0.892622	-0.000105
 701	6.9650e+01	12.1023	34.099667	0.000243	2.431925	0.823959	-0.000097
 702	6.9749e+01	12.0702	33.982590	0.000294	2.938577	0.995617	-0.000118
 703	6.9849e+01	12.0334	33.861476	0.000304	3.039907	1.029948	-0.000122
 704	6.9948e+01	11.9836	33.772659	0.000223	2.229265	0.755295	-0.000089
 705	7.0048e+01	11.9483	33.675768	0.000243	2.431925	0.823959	-0.000097
 706	7.0147e+01	11.9034	33.526394	0.000375	3.749218	1.270270	-0.000150
 707	7.0247e+01	11.8665	33.409317	0.000294	2.938577	0.995617	-0.000118
 708	7.0347e+01	11.8376	33.332611	0.000193	1.925274	0.652301	-0.000077
 709	7.0446e+01	11.7911	33.259943	0.000182	1.823944	0.617969	-0.000073
 710	7.0546e+01	11.7430	33.114606	0.000365	3.647888	1.235938	-0.000146
 711	7.0645e+01	11.7077	33.013677	0.000253	2.533256	0.858290	-0.000101
 712	7.0745e+01	11.6692	32.892563	0.000304	3.039907	1.029948	-0.000122
 713	7.0844e+01	11.6227	32.791635	0.000253	2.533256	0.858290	-0.000101
 714	7.0944e+01	11.5826	32.666484	0.000314	3.141237	1.064280	-0.000126
 715	7.1043e+01	11.5489	32.561518	0.000263	2.634586	0.892622	-0.000105
 716	7.1142e+01	11.5104	32.492887	0.000172	1.722614	0.583637	-0.000069
 717	7.1242e+01	11.4735	32.371773	0.000304	3.039907	1.029948	-0.000122
 718	7.1341e+01	11.4318	32.254696	0.000294	2.938577	0.995617	-0.000118
 719	7.1441e+01	11.3820	32.113396	0.000355	3.546558	1.201606	-0.000142
 720	7.1540e+01	11.3516	32.044765	0.000172	1.722614	0.583637	-0.000069
 721	7.1640e+01	11.3002	31.939799	0.000263	2.634586	0.892622	-0.000105
 722	7.1740e+01	11.2762	31.822722	0.000294	2.938577	0.995617	-0.000118
 723	7.1839e+01	11.2296	31.713720	0.000274	2.735916	0.926953	-0.000110
 724	7.1939e+01	11.1911	31.580494	0.000334	3.343897	1.132943	-0.000134
 725	7.2038e+01	11.1478	31.487640	0.000233	2.330595	0.789627	-0.000093
 726	7.2138e+01	11.1093	31.402860	0.000213	2.127935	0.720964	-0.000085
 727	7.2237e+01	11.0756	31.269635	0.000334	3.343897	1.132943	-0.000134
 728	7.2337e+01	11.0339	31.172744	0.000243	2.431925	0.823959	-0.000097
 729	7.2436e+01	10.9986	31.071815	0.000253	2.533256	0.858290	-0.000101
 730	7.2535e+01	10.9617	30.958775	0.000284	2.837246	0.961285	-0.000114
 731	7.2635e+01	10.9216	30.886107	0.000182	1.823944	0.617969	-0.000073
 732	7.2734e+01	10.8703	30.704436	0.000456	4.559860	1.544922	-0.000183
 733	7.2834e+01	10.8350	30.603507	0.000253	2.533256	0.858290	-0.000101
 734	7.2933e+01	10.7981	30.490468	0.000284	2.837246	0.961285	-0.000114
 735	7.3033e+01	10.7468	30.389539	0.000253	2.533256	0.858290	-0.000101
 736	7.3132e+01	10.7099	30.280537	0.000274	2.735916	0.926953	-0.000110
 737	7.3232e+01	10.6714	30.171534	0.000274	2.735916	0.926953	-0.000110
 738	7.3332e+01	10.6329	30.070606	0.000253	2.533256	0.858290	-0.000101
 739	7.3431e+01	10.5895	29.961603	0.000274	2.735916	0.926953	-0.000110
 740	7.3531e+01	10.5494	29.880860	0.000203	2.026605	0.686632	-0.000081
 741	7.3630e+01	10.5222	29.783969	0.000243	2.431925	0.823959	-0.000097
 742	7.3730e+01	10.4724	29.622483	0.000405	4.053209	1.373264	-0.000162
 743	7.3829e+01	10.4259	29.541741	0.000203	2.026605	0.686632	-0.000081
 744	7.3928e+01	10.3954	29.416590	0.000314	3.141237	1.064280	-0.000126
 745	7.4028e+01	10.3521	29.323735	0.000233	2.330595	0.789627	-0.000093
 746	7.4127e+01	10.3120	29.218770	0.000263	2.634586	0.892622	-0.000105
 747	7.4227e+01	10.2687	29.125916	0.000233	2.330595	0.789627	-0.000093
 748	7.4326e+01	10.2334	28.984616	0.000355	3.546558	1.201606	-0.000142
 749	7.4426e+01	10.1885	28.867539	0.000294	2.938577	0.995617	-0.000118
 750	7.4525e+01	10.1500	28.786796	0.000203	2.026605	0.686632	-0.000081
 751	7.4625e+01	10.1195	28.645497	0.000355	3.546558	1.201606	-0.000142
 752	7.4725e+01	10.0778	28.560717	0.000213	2.127935	0.720964	-0.000085
 753	7.4824e+01	10.0361	28.467863	0.000233	2.330595	0.789627	-0.000093
 754	7.4924e+01	9.9880	28.346749	0.000304	3.039907	1.029948	-0.000122
 755	7.5023e+01	9.9527	28.257932	0.000223	2.229265	0.755295	-0.000089
 756	7.5123e+01	9.9142	28.132780	0.000314	3.141237	1.064280	-0.000126
 757	7.5222e+01	9.8676	28.035889	0.000243	2.431925	0.823959	-0.000097
 758	7.5322e+01	9.8388	27.914775	0.000304	3.039907	1.029948	-0.000122
 759	7.5421e+01	9.7938	27.813847	0.000253	2.533256	0.858290	-0.000101
 760	7.5520e+01	9.7569	27.704844	0.000274	2.735916	0.926953	-0.000110
 761	7.5620e+01	9.7217	27.607953	0.000243	2.431925	0.823959	-0.000097
 762	7.5719e+01	9.6735	27.511061	0.000243	2.431925	0.823959	-0.000097
 763	7.5819e+01	9.6398	27.357650	0.000385	3.850549	1.304601	-0.000154
 764	7.5918e+01	9.5965	27.268833	0.000223	2.229265	0.755295	-0.000089
 765	7.6018e+01	9.5580	27.159831	0.000274	2.735916	0.926953	-0.000110
 766	7.6118e+01	9.5179	27.042754	0.000294	2.938577	0.995617	-0.000118
 767	7.6217e+01	9.4682	26.921640	0.000304	3.039907	1.029948	-0.000122
 768	7.6317e+01	9.4345	26.836860	0.000213	2.127935	0.720964	-0.000085
 769	7.6416e+01	9.4008	26.739969	0.000243	2.431925	0.823959	-0.000097
 770	7.6516e+01	9.3527	26.651152	0.000223	2.229265	0.755295	-0.000089
 771	7.6615e+01	9.3126	26.489666	0.000405	4.053209	1.373264	-0.000162
 772	7.6715e+01	9.2869	26.392775	0.000243	2.431925	0.823959	-0.000097
 773	7.6814e+01	9.2388	26.303958	0.000223	2.229265	0.755295	-0.000089
 774	7.6913e+01	9.2035	26.174770	0.000324	3.242567	1.098612	-0.000130
 775	7.7013e+01	9.1425	26.041544	0.000334	3.343897	1.132943	-0.000134
 776	7.7112e+01	9.1169	25.964838	0.000193	1.925274	0.652301	-0.000077
 777	7.7212e+01	9.0880	25.843724	0.000304	3.039907	1.029948	-0.000122
 778	7.7311e+01	9.0447	25.702425	0.000355	3.546558	1.201606	-0.000142
 779	7.7411e+01	8.9933	25.593422	0.000274	2.735916	0.926953	-0.000110
 780	7.7510e+01	8.9645	25.488456	0.000263	2.634586	0.892622	-0.000105
 781	7.7610e+01	8.9179	25.371380	0.000294	2.938577	0.995617	-0.000118
 782	7.7710e+01	8.8858	25.270451	0.000253	2.533256	0.858290	-0.000101
 783	7.7809e+01	8.8377	25.161448	0.000274	2.735916	0.926953	-0.000110
 784	7.7909e+01	8.7992	25.032260	0.000324	3.242567	1.098612	-0.000130
 785	7.8008e+01	8.7623	24.963629	0.000172	1.722614	0.583637	-0.000069
 786	7.8108e+01	8.7238	24.850589	0.000284	2.837246	0.961285	-0.000114
 787	7.8207e+01	8.6821	24.721401	0.000324	3.242567	1.098612	-0.000130
 788	7.8306e+01	8.6372	24.628547	0.000233	2.330595	0.789627	-0.000093
 789	7.8406e+01	8.6019	24.511470	0.000294	2.938577	0.995617	-0.000118
 790	7.8505e+01	8.5538	24.410541	0.000253	2.533256	0.858290	-0.000101
 791	7.8605e+01	8.5121	24.253093	0.000395	3.951879	1.338933	-0.000158
 792	7.8704e+01	8.4832	24.176387	0.000193	1.925274	0.652301	-0.000077
 793	7.8804e+01	8.4463	24.071422	0.000263	2.634586	0.892622	-0.000105
 794	7.8903e+01	8.3998	23.938196	0.000334	3.343897	1.132943	-0.000134
 795	7.9003e+01	8.3597	23.804971	0.000334	3.343897	1.132943	-0.000134
 796	7.9103e+01	8.3276	23.704042	0.000253	2.533256	0.858290	-0.000101
 797	7.9202e+01	8.2907	23.607151	0.000243	2.431925	0.823959	-0.000097
 798	7.9302e+01	8.2361	23.494111	0.000284	2.837246	0.961285	-0.000114
 799	7.9401e+01	8.1960	23.409332	0.000213	2.127935	0.720964	-0.000085
 800	7.9501e+01	8.1671	23.227660	0.000456	4.559860	1.544922	-0.000183
 801	7.9600e+01	8.1190	23.167103	0.000152	1.519953	0.514974	-0.000061
 802	7.9700e+01	8.0821	23.058101	0.000274	2.735916	0.926953	-0.000110
 803	7.9799e+01	8.0516	22.949098	0.000274	2.735916	0.926953	-0.000110
 804	7.9898e+01	8.0035	22.844133	0.000263	2.634586	0.892622	-0.000105
 805	7.9998e+01	7.9586	22.731093	0.000284	2.837246	0.961285	-0.000114
 806	8.0097e+01	7.9297	22.634202	0.000243	2.431925	0.823959	-0.000097
 807	8.0197e+01	7.8896	22.480790	0.000385	3.850549	1.304601	-0.000154
 808	8.0296e+01	7.8415	22.371788	0.000274	2.735916	0.926953	-0.000110
 809	8.0396e+01	7.7998	22.287008	0.000213	2.127935	0.720964	-0.000085
 810	8.0496e+01	7.7533	22.182042	0.000263	2.634586	0.892622	-0.000105
 811	8.0595e+01	7.7180	22.048817	0.000334	3.343897	1.132943	-0.000134
 812	8.0695e+01	7.6907	21.939814	0.000274	2.735916	0.926953	-0.000110
 813	8.0794e+01	7.6394	21.838886	0.000253	2.533256	0.858290	-0.000101
 814	8.0894e+01	7.6041	21.697586	0.000355	3.546558	1.201606	-0.000142
 815	8.0993e+01	7.5607	21.596658	0.000253	2.533256	0.858290	-0.000101
 816	8.1093e+01	7.5239	21.548212	0.000122	1.215963	0.411979	-0.000049
 817	8.1192e+01	7.4821	21.378652	0.000426	4.255870	1.441928	-0.000170
 818	8.1291e+01	7.4372	21.269650	0.000274	2.735916	0.926953	-0.000110
 819	8.1391e+01	7.4051	21.156610	0.000284	2.837246	0.961285	-0.000114
 820	8.1490e+01	7.3634	21.043570	0.000284	2.837246	0.961285	-0.000114
 821	8.1590e+01	7.3169	20.922456	0.000304	3.039907	1.029948	-0.000122
 822	8.1689e+01	7.2864	20.813453	0.000274	2.735916	0.926953	-0.000110
 823	8.1789e+01	7.2495	20.732711	0.000203	2.026605	0.686632	-0.000081
 824	8.1888e+01	7.2062	20.591411	0.000355	3.546558	1.201606	-0.000142
 825	8.1988e+01	7.1613	20.446074	0.000365	3.647888	1.235938	-0.000146
 826	8.2088e+01	7.1196	20.377443	0.000172	1.722614	0.583637	-0.000069
 827	8.2187e+01	7.0923	20.215957	0.000405	4.053209	1.373264	-0.000162
 828	8.2287e+01	7.0474	20.151363	0.000162	1.621284	0.549306	-0.000065
 829	8.2386e+01	6.9993	19.993915	0.000395	3.951879	1.338933	-0.000158
 830	8.2486e+01	6.9672	19.913172	0.000203	2.026605	0.686632	-0.000081
 831	8.2585e+01	6.9255	19.779947	0.000334	3.343897	1.132943	-0.000134
 832	8.2684e+01	6.8886	19.666907	0.000284	2.837246	0.961285	-0.000114
 833	8.2784e+01	6.8549	19.525607	0.000355	3.546558	1.201606	-0.000142
 834	8.2883e+01	6.8019	19.420641	0.000263	2.634586	0.892622	-0.000105
 835	8.2983e+01	6.7683	19.323750	0.000243	2.431925	0.823959	-0.000097
 836	8.3082e+01	6.7169	19.198599	0.000314	3.141237	1.064280	-0.000126
 837	8.3182e+01	6.6897	19.085559	0.000284	2.837246	0.961285	-0.000114
 838	8.3281e+01	6.6511	18.960408	0.000314	3.141237	1.064280	-0.000126
 839	8.3381e+01	6.5950	18.847368	0.000284	2.837246	0.961285	-0.000114
 840	8.3481e+01	6.5629	18.742403	0.000263	2.634586	0.892622	-0.000105
 841	8.3580e+01	6.5324	18.576880	0.000415	4.154539	1.407596	-0.000166
 842	8.3680e+01	6.4875	18.528434	0.000122	1.215963	0.411979	-0.000049
 843	8.3779e+01	6.4506	18.423469	0.000263	2.634586	0.892622	-0.000105
 844	8.3879e+01	6.4137	18.290243	0.000334	3.343897	1.132943	-0.000134
 845	8.3978e+01	6.3768	18.169129	0.000304	3.039907	1.029948	-0.000122
 846	8.4078e+01	6.3319	18.068201	0.000253	2.533256	0.858290	-0.000101
 847	8.4177e+01	6.2870	17.930938	0.000345	3.445228	1.167275	-0.000138
 848	8.4276e+01	6.2533	17.834047	0.000243	2.431925	0.823959	-0.000097
 849	8.4376e+01	6.2148	17.712933	0.000304	3.039907	1.029948	-0.000122
 850	8.4475e+01	6.1811	17.599893	0.000284	2.837246	0.961285	-0.000114
 851	8.4575e+01	6.1250	17.486853	0.000284	2.837246	0.961285	-0.000114
 852	8.4674e+01	6.0881	17.365739	0.000304	3.039907	1.029948	-0.000122
 853	8.4774e+01	6.0560	17.240588	0.000314	3.141237	1.064280	-0.000126
 854	8.4874e+01	6.0079	17.143697	0.000243	2.431925	0.823959	-0.000097
 855	8.4973e+01	5.9742	16.982211	0.000405	4.053209	1.373264	-0.000162
 856	8.5073e+01	5.9260	16.937803	0.000111	1.114632	0.377648	-0.000045
 857	8.5172e+01	5.8923	16.804578	0.000334	3.343897	1.132943	-0.000134
 858	8.5272e+01	5.8394	16.687501	0.000294	2.938577	0.995617	-0.000118
 859	8.5371e+01	5.8218	16.562349	0.000314	3.141237	1.064280	-0.000126
 860	8.5471e+01	5.7752	16.453347	0.000274	2.735916	0.926953	-0.000110
 861	8.5570e+01	5.7255	16.336270	0.000294	2.938577	0.995617	-0.000118
 862	8.5669e+01	5.6902	16.211119	0.000314	3.141237	1.064280	-0.000126
 863	8.5769e+01	5.6565	16.085967	0.000314	3.141237	1.064280	-0.000126
 864	8.5868e+01	5.6132	15.956779	0.000324	3.242567	1.098612	-0.000130
 865	8.5968e+01	5.5747	15.884111	0.000182	1.823944	0.617969	-0.000073
 866	8.6067e+01	5.5378	15.730699	0.000385	3.850549	1.304601	-0.000154
 867	8.6167e+01	5.4945	15.637845	0.000233	2.330595	0.789627	-0.000093
 868	8.6266e+01	5.4544	15.496546	0.000355	3.546558	1.201606	-0.000142
 869	8.6366e+01	5.4191	15.419840	0.000193	1.925274	0.652301	-0.000077
 870	8.6466e+01	5.3806	15.246243	0.000436	4.357200	1.476259	-0.000174
 871	8.6565e+01	5.3309	15.193760	0.000132	1.317293	0.446311	-0.000053
 872	8.6665e+01	5.2924	15.052461	0.000355	3.546558	1.201606	-0.000142
 873	8.6764e+01	5.2507	14.947495	0.000263	2.634586	0.892622	-0.000105
 874	8.6864e+01	5.2105	14.826381	0.000304	3.039907	1.029948	-0.000122
 875	8.6963e+01	5.1720	14.697193	0.000324	3.242567	1.098612	-0.000130
 876	8.7063e+01	5.1368	14.568004	0.000324	3.242567	1.098612	-0.000130
 877	8.7162e+01	5.0966	14.459002	0.000274	2.735916	0.926953	-0.000110
 878	8.7261e+01	5.0549	14.362110	0.000243	2.431925	0.823959	-0.000097
 879	8.7361e+01	5.0196	14.216774	0.000365	3.647888	1.235938	-0.000146
 880	8.7460e+01	4.9763	14.136031	0.000203	2.026605	0.686632	-0.000081
 881	8.7560e+01	4.9362	14.014917	0.000304	3.039907	1.029948	-0.000122
 882	8.7659e+01	4.8945	13.909951	0.000263	2.634586	0.892622	-0.000105
 883	8.7759e+01	4.8576	13.776726	0.000334	3.343897	1.132943	-0.000134
 884	8.7859e+01	4.8159	13.667723	0.000274	2.735916	0.926953	-0.000110
 885	8.7958e+01	4.7710	13.522386	0.000365	3.647888	1.235938	-0.000146
 886	8.8058e+01	4.7277	13.425495	0.000243	2.431925	0.823959	-0.000097
 887	8.8157e+01	4.7036	13.276121	0.000375	3.749218	1.270270	-0.000150
 888	8.8257e+01	4.6571	13.219601	0.000142	1.418623	0.480643	-0.000057
 889	8.8356e+01	4.6122	13.082338	0.000345	3.445228	1.167275	-0.000138
 890	8.8456e+01	4.5737	12.961224	0.000304	3.039907	1.029948	-0.000122
 891	8.8555e+01	4.5400	12.836073	0.000314	3.141237	1.064280	-0.000126
 892	8.8654e+01	4.4935	12.702848	0.000334	3.343897	1.132943	-0.000134
 893	8.8754e+01	4.4469	12.601919	0.000253	2.533256	0.858290	-0.000101
 894	8.8853e+01	4.4165	12.464657	0.000345	3.445228	1.167275	-0.000138
 895	8.8953e+01	4.3683	12.379877	0.000213	2.127935	0.720964	-0.000085
 896	8.9052e+01	4.3378	12.278948	0.000253	2.533256	0.858290	-0.000101
 897	8.9152e+01	4.2945	12.113426	0.000415	4.154539	1.407596	-0.000166
 898	8.9251e+01	4.2512	12.028646	0.000213	2.127935	0.720964	-0.000085
 899	8.9351e+01	4.2191	11.875235	0.000385	3.850549	1.304601	-0.000154
 900	8.9451e+01	4.1806	11.754121	0.000304	3.039907	1.029948	-0.000122
 901	8.9550e+01	4.1389	11.645118	0.000274	2.735916	0.926953	-0.000110
 902	8.9650e+01	4.1004	11.532078	0.000284	2.837246	0.961285	-0.000114
 903	8.9749e+01	4.0603	11.423076	0.000274	2.735916	0.926953	-0.000110
 904	8.9849e+01	4.0202	11.310036	0.000284	2.837246	0.961285	-0.000114
 905	8.9948e+01	3.9801	11.201033	0.000274	2.735916	0.926953	-0.000110
 906	9.0047e+01	3.9352	11.092030	0.000274	2.735916	0.926953	-0.000110
 907	9.0147e+01	3.9047	10.978991	0.000284	2.837246	0.961285	-0.000114
 908	9.0246e+01	3.8582	10.878062	0.000253	2.533256	0.858290	-0.000101
 909	9.0346e+01	3.8117	10.765022	0.000284	2.837246	0.961285	-0.000114
 910	9.0445e+01	3.7780	10.615648	0.000375	3.749218	1.270270	-0.000150
 911	9.0545e+01	3.7379	10.478386	0.000345	3.445228	1.167275	-0.000138
 912	9.0644e+01	3.7010	10.397643	0.000203	2.026605	0.686632	-0.000081
 913	9.0744e+01	3.6689	10.292678	0.000263	2.634586	0.892622	-0.000105
 914	9.0844e+01	3.6191	10.199823	0.000233	2.330595	0.789627	-0.000093
 915	9.0943e+01	3.5871	10.058524	0.000355	3.546558	1.201606	-0.000142
 916	9.1043e+01	3.5470	9.957595	0.000253	2.533256	0.858290	-0.000101
 917	9.1142e+01	3.5036	9.844555	0.000284	2.837246	0.961285	-0.000114
 918	9.1242e+01	3.4571	9.670959	0.000436	4.357200	1.476259	-0.000174
 919	9.1341e+01	3.4202	9.618476	0.000132	1.317293	0.446311	-0.000053
 920	9.1441e+01	3.3849	9.509473	0.000274	2.735916	0.926953	-0.000110
 921	9.1540e+01	3.3432	9.372211	0.000345	3.445228	1.167275	-0.000138
 922	9.1639e+01	3.3095	9.243022	0.000324	3.242567	1.098612	-0.000130
 923	9.1739e+01	3.2646	9.146131	0.000243	2.431925	0.823959	-0.000097
 924	9.1838e+01	3.2277	8.984646	0.000405	4.053209	1.373264	-0.000162
 925	9.1938e+01	3.1764	8.932163	0.000132	1.317293	0.446311	-0.000053
 926	9.2037e+01	3.1507	8.798937	0.000334	3.343897	1.132943	-0.000134
 927	9.2137e+01	3.0962	8.698009	0.000253	2.533256	0.858290	-0.000101
 928	9.2237e+01	3.0657	8.560746	0.000345	3.445228	1.167275	-0.000138
 929	9.2336e+01	3.0224	8.475966	0.000213	2.127935	0.720964	-0.000085
 930	9.2436e+01	2.9823	8.338704	0.000345	3.445228	1.167275	-0.000138
 931	9.2535e+01	2.9406	8.237775	0.000253	2.533256	0.858290	-0.000101
 932	9.2635e+01	2.9133	8.124736	0.000284	2.837246	0.961285	-0.000114
 933	9.2734e+01	2.8668	7.963250	0.000405	4.053209	1.373264	-0.000162
 934	9.2834e+01	2.8154	7.858285	0.000263	2.634586	0.892622	-0.000105
 935	9.2933e+01	2.7785	7.773505	0.000213	2.127935	0.720964	-0.000085
 936	9.3032e+01	2.7448	7.656428	0.000294	2.938577	0.995617	-0.000118
 937	9.3132e+01	2.6983	7.498980	0.000395	3.951879	1.338933	-0.000158
 938	9.3231e+01	2.6743	7.398051	0.000253	2.533256	0.858290	-0.000101
 939	9.3331e+01	2.6133	7.285011	0.000284	2.837246	0.961285	-0.000114
 940	9.3430e+01	2.5844	7.159860	0.000314	3.141237	1.064280	-0.000126
 941	9.3530e+01	2.5379	7.058932	0.000253	2.533256	0.858290	-0.000101
 942	9.3629e+01	2.5026	6.958003	0.000253	2.533256	0.858290	-0.000101
 943	9.3729e+01	2.4561	6.800555	0.000395	3.951879	1.338933	-0.000158
 944	9.3829e+01	2.4272	6.715775	0.000213	2.127935	0.720964	-0.000085
 945	9.3928e+01	2.3855	6.590624	0.000314	3.141237	1.064280	-0.000126
 946	9.4028e+01	2.3422	6.465473	0.000314	3.141237	1.064280	-0.000126
 947	9.4127e+01	2.2941	6.356470	0.000274	2.735916	0.926953	-0.000110
 948	9.4227e+01	2.2684	6.231319	0.000314	3.141237	1.064280	-0.000126
 949	9.4326e+01	2.2235	6.154613	0.000193	1.925274	0.652301	-0.000077
 950	9.4425e+01	2.1978	6.009277	0.000365	3.647888	1.235938	-0.000146
 951	9.4525e+01	2.1417	5.888162	0.000304	3.039907	1.029948	-0.000122
 952	9.4624e+01	2.1112	5.771086	0.000294	2.938577	0.995617	-0.000118
 953	9.4724e+01	2.0614	5.601526	0.000426	4.255870	1.441928	-0.000170
 954	9.4823e+01	2.0213	5.532895	0.000172	1.722614	0.583637	-0.000069
 955	9.4923e+01	1.9732	5.403706	0.000324	3.242567	1.098612	-0.000130
 956	9.5022e+01	1.9459	5.294704	0.000274	2.735916	0.926953	-0.000110
 957	9.5122e+01	1.9090	5.189738	0.000263	2.634586	0.892622	-0.000105
 958	9.5222e+01	1.8673	5.068624	0.000304	3.039907	1.029948	-0.000122
 959	9.5321e+01	1.8320	4.951547	0.000294	2.938577	0.995617	-0.000118
 960	9.5421e+01	1.7807	4.826396	0.000314	3.141237	1.064280	-0.000126
 961	9.5520e+01	1.7550	4.753727	0.000182	1.823944	0.617969	-0.000073
 962	9.5620e+01	1.7021	4.568019	0.000466	4.661190	1.579254	-0.000187
 963	9.5719e+01	1.6604	4.463054	0.000263	2.634586	0.892622	-0.000105
 964	9.5819e+01	1.6283	4.350014	0.000284	2.837246	0.961285	-0.000114
 965	9.5918e+01	1.5898	4.281382	0.000172	1.722614	0.583637	-0.000069
 966	9.6017e+01	1.5545	4.111823	0.000426	4.255870	1.441928	-0.000170
 967	9.6117e+01	1.5096	4.006857	0.000263	2.634586	0.892622	-0.000105
 968	9.6216e+01	1.4663	3.901892	0.000263	2.634586	0.892622	-0.000105
 969	9.6316e+01	1.4326	3.792889	0.000274	2.735916	0.926953	-0.000110
 970	9.6415e+01	1.3877	3.679849	0.000284	2.837246	0.961285	-0.000114
 971	9.6515e+01	1.3427	3.550661	0.000324	3.242567	1.098612	-0.000130
 972	9.6615e+01	1.3042	3.441658	0.000274	2.735916	0.926953	-0.000110
 973	9.6714e+01	1.2722	3.316507	0.000314	3.141237	1.064280	-0.000126
 974	9.6814e+01	1.2304	3.223653	0.000233	2.330595	0.789627	-0.000093
 975	9.6913e+01	1.1903	3.033908	0.000476	4.762521	1.613586	-0.000191
 976	9.7013e+01	1.1534	2.973350	0.000152	1.519953	0.514974	-0.000061
 977	9.7112e+01	1.1117	2.876459	0.000243	2.431925	0.823959	-0.000097
 978	9.7212e+01	1.0652	2.735159	0.000355	3.546558	1.201606	-0.000142
 979	9.7311e+01	1.0283	2.577711	0.000395	3.951879	1.338933	-0.000158
 980	9.7410e+01	0.9834	2.488894	0.000223	2.229265	0.755295	-0.000089
 981	9.7510e+01	0.9449	2.387966	0.000253	2.533256	0.858290	-0.000101
 982	9.7609e+01	0.9080	2.274926	0.000284	2.837246	0.961285	-0.000114
 983	9.7709e+01	0.8695	2.161886	0.000284	2.837246	0.961285	-0.000114
 984	9.7808e+01	0.8358	2.048846	0.000284	2.837246	0.961285	-0.000114
 985	9.7908e+01	0.7781	1.919658	0.000324	3.242567	1.098612	-0.000130
 986	9.8007e+01	0.7556	1.818730	0.000253	2.533256	0.858290	-0.000101
 987	9.8107e+01	0.7139	1.693578	0.000314	3.141237	1.064280	-0.000126
 988	9.8207e+01	0.6754	1.568427	0.000314	3.141237	1.064280	-0.000126
 989	9.8306e+01	0.6353	1.455387	0.000284	2.837246	0.961285	-0.000114
 990	9.8406e+01	0.5904	1.322162	0.000334	3.343897	1.132943	-0.000134
 991	9.8505e+01	0.5551	1.192974	0.000324	3.242567	1.098612	-0.000130
 992	9.8605e+01	0.5166	1.100119	0.000233	2.330595	0.789627	-0.000093
 993	9.8704e+01	0.4732	0.966894	0.000334	3.343897	1.132943	-0.000134
 994	9.8803e+01	0.4219	0.845780	0.000304	3.039907	1.029948	-0.000122
 995	9.8903e+01	0.3914	0.700443	0.000365	3.647888	1.235938	-0.000146
 996	9.9002e+01	0.3513	0.611626	0.000223	2.229265	0.755295	-0.000089
 997	9.9102e+01	0.3032	0.494549	0.000294	2.938577	0.995617	-0.000118
 998	9.9201e+01	0.2743	0.357287	0.000345	3.445228	1.167275	-0.000138
 999	9.9301e+01	0.2310	0.236172	0.000304	3.039907	1.029948	-0.000122
1000	9.9400e+01	0.1909	0.159467	0.000193	1.925274	0.652301	-0.000077
1001	9.9500e+01	0.1572	0.018167	0.000355	3.546558	1.201606	-0.000142
1002	9.9600e+01	0.1155	-0.106984	0.000314	3.141237	1.064280	-0.000126
1003	9.9699e+01	0.0754	-0.232135	0.000314	3.141237	1.064280	-0.000126
1004	9.9799e+01	0.0385	-0.357287	0.000314	3.141237	1.064280	-0.000126
1005	9.9898e+01	-0.0016	-0.454178	0.000243	2.431925	0.823959	-0.000097
1006	9.9998e+01	-0.0417	-0.579329	0.000314	3.141237	1.064280	-0.000126
1007	1.0010e+02	-0.0786	-0.668146	0.000223	2.229265	0.755295	-0.000089
1008	1.0020e+02	-0.1235	-0.801371	0.000334	3.343897	1.132943	-0.000134
1009	1.0030e+02	-0.1620	-0.918448	0.000294	2.938577	0.995617	-0.000118
1010	1.0040e+02	-0.2005	-1.043600	0.000314	3.141237	1.064280	-0.000126
1011	1.0050e+02	-0.2374	-1.132417	0.000223	2.229265	0.755295	-0.000089
1012	1.0059e+02	-0.2775	-1.265642	0.000334	3.343897	1.132943	-0.000134
1013	1.0069e+02	-0.3289	-1.386756	0.000304	3.039907	1.029948	-0.000122
1014	1.0079e+02	-0.3561	-1.491722	0.000263	2.634586	0.892622	-0.000105
1015	1.0089e+02	-0.3946	-1.628984	0.000345	3.445228	1.167275	-0.000138
1016	1.0099e+02	-0.4331	-1.729913	0.000253	2.533256	0.858290	-0.000101
1017	1.0109e+02	-0.4765	-1.855064	0.000314	3.141237	1.064280	-0.000126
1018	1.0119e+02	-0.5182	-1.947918	0.000233	2.330595	0.789627	-0.000093
1019	1.0129e+02	-0.5599	-2.077106	0.000324	3.242567	1.098612	-0.000130
1020	1.0139e+02	-0.6000	-2.214369	0.000345	3.445228	1.167275	-0.000138
1021	1.0149e+02	-0.6289	-2.319334	0.000263	2.634586	0.892622	-0.000105
1022	1.0159e+02	-0.6786	-2.420263	0.000253	2.533256	0.858290	-0.000101
1023	1.0169e+02	-0.7219	-2.549451	0.000324	3.242567	1.098612	-0.000130
1024	1.0179e+02	-0.7508	-2.698825	0.000375	3.749218	1.270270	-0.000150
1025	1.0189e+02	-0.7989	-2.783605	0.000213	2.127935	0.720964	-0.000085
1026	1.0199e+02	-0.8374	-2.908756	0.000314	3.141237	1.064280	-0.000126
1027	1.0209e+02	-0.8695	-3.050056	0.000355	3.546558	1.201606	-0.000142
1028	1.0219e+02	-0.9176	-3.138873	0.000223	2.229265	0.755295	-0.000089
1029	1.0229e+02	-0.9561	-3.272099	0.000334	3.343897	1.132943	-0.000134
1030	1.0239e+02	-0.9946	-3.389175	0.000294	2.938577	0.995617	-0.000118
1031	1.0248e+02	-1.0379	-3.518364	0.000324	3.242567	1.098612	-0.000130
1032	1.0258e+02	-1.0748	-3.623329	0.000263	2.634586	0.892622	-0.000105
1033	1.0268e+02	-1.1117	-3.728295	0.000263	2.634586	0.892622	-0.000105
1034	1.0278e+02	-1.1502	-3.829223	0.000253	2.533256	0.858290	-0.000101
1035	1.0288e+02	-1.2016	-3.954374	0.000314	3.141237	1.064280	-0.000126
1036	1.0298e+02	-1.2337	-4.071451	0.000294	2.938577	0.995617	-0.000118
1037	1.0308e+02	-1.2738	-4.208714	0.000345	3.445228	1.167275	-0.000138
1038	1.0318e+02	-1.3155	-4.329828	0.000304	3.039907	1.029948	-0.000122
1039	1.0328e+02	-1.3588	-4.454979	0.000314	3.141237	1.064280	-0.000126
1040	1.0338e+02	-1.3957	-4.568019	0.000284	2.837246	0.961285	-0.000114
1041	1.0348e+02	-1.4326	-4.685096	0.000294	2.938577	0.995617	-0.000118
1042	1.0358e+02	-1.4775	-4.777950	0.000233	2.330595	0.789627	-0.000093
1043	1.0368e+02	-1.5192	-4.923287	0.000365	3.647888	1.235938	-0.000146
1044	1.0378e+02	-1.5529	-5.020178	0.000243	2.431925	0.823959	-0.000097
1045	1.0388e+02	-1.5930	-5.137255	0.000294	2.938577	0.995617	-0.000118
1046	1.0398e+02	-1.6267	-5.278555	0.000355	3.546558	1.201606	-0.000142
1047	1.0408e+02	-1.6700	-5.379483	0.000253	2.533256	0.858290	-0.000101
1048	1.0418e+02	-1.7085	-5.496560	0.000294	2.938577	0.995617	-0.000118
1049	1.0428e+02	-1.7470	-5.601526	0.000263	2.634586	0.892622	-0.000105
1050	1.0438e+02	-1.7967	-5.706491	0.000263	2.634586	0.892622	-0.000105
1051	1.0447e+02	-1.8385	-5.839717	0.000334	3.343897	1.132943	-0.000134
1052	1.0457e+02	-1.8818	-5.968905	0.000324	3.242567	1.098612	-0.000130
1053	1.0467e+02	-1.9171	-6.057722	0.000223	2.229265	0.755295	-0.000089
1054	1.0477e+02	-1.9491	-6.178836	0.000304	3.039907	1.029948	-0.000122
1055	1.0487e+02	-1.9892	-6.303987	0.000314	3.141237	1.064280	-0.000126
1056	1.0497e+02	-2.0245	-6.388767	0.000213	2.127935	0.720964	-0.000085
1057	1.0507e+02	-2.0775	-6.538141	0.000375	3.749218	1.270270	-0.000150
1058	1.0517e+02	-2.1128	-6.659255	0.000304	3.039907	1.029948	-0.000122
1059	1.0527e+02	-2.1513	-6.784407	0.000314	3.141237	1.064280	-0.000126
1060	1.0537e+02	-2.1962	-6.865149	0.000203	2.026605	0.686632	-0.000081
1061	1.0547e+02	-2.2363	-6.998375	0.000334	3.343897	1.132943	-0.000134
1062	1.0557e+02	-2.2716	-7.123526	0.000314	3.141237	1.064280	-0.000126
1063	1.0567e+02	-2.3213	-7.260789	0.000345	3.445228	1.167275	-0.000138
1064	1.0577e+02	-2.3454	-7.341531	0.000203	2.026605	0.686632	-0.000081
1065	1.0587e+02	-2.3855	-7.462645	0.000304	3.039907	1.029948	-0.000122
1066	1.0597e+02	-2.4304	-7.624131	0.000405	4.053209	1.373264	-0.000162
1067	1.0607e+02	-2.4769	-7.672576	0.000122	1.215963	0.411979	-0.000049
1068	1.0617e+02	-2.5122	-7.805802	0.000334	3.343897	1.132943	-0.000134
1069	1.0627e+02	-2.5491	-7.906730	0.000253	2.533256	0.858290	-0.000101
1070	1.0637e+02	-2.5860	-8.064179	0.000395	3.951879	1.338933	-0.000158
1071	1.0647e+02	-2.6245	-8.144921	0.000203	2.026605	0.686632	-0.000081
1072	1.0656e+02	-2.6710	-8.282184	0.000345	3.445228	1.167275	-0.000138
1073	1.0666e+02	-2.7015	-8.439632	0.000395	3.951879	1.338933	-0.000158
1074	1.0676e+02	-2.7464	-8.520375	0.000203	2.026605	0.686632	-0.000081
1075	1.0686e+02	-2.7930	-8.645526	0.000314	3.141237	1.064280	-0.000126
1076	1.0696e+02	-2.8218	-8.738380	0.000233	2.330595	0.789627	-0.000093
1077	1.0706e+02	-2.8620	-8.851420	0.000284	2.837246	0.961285	-0.000114
1078	1.0716e+02	-2.9069	-8.956386	0.000263	2.634586	0.892622	-0.000105
1079	1.0726e+02	-2.9502	-9.117871	0.000405	4.053209	1.373264	-0.000162
1080	1.0736e+02	-2.9951	-9.170354	0.000132	1.317293	0.446311	-0.000053
1081	1.0746e+02	-3.0288	-9.295505	0.000314	3.141237	1.064280	-0.000126
1082	1.0756e+02	-3.0673	-9.408545	0.000284	2.837246	0.961285	-0.000114
1083	1.0766e+02	-3.1138	-9.557919	0.000375	3.749218	1.270270	-0.000150
1084	1.0776e+02	-3.1395	-9.670959	0.000284	2.837246	0.961285	-0.000114
1085	1.0786e+02	-3.1892	-9.779961	0.000274	2.735916	0.926953	-0.000110
1086	1.0796e+02	-3.2133	-9.880890	0.000253	2.533256	0.858290	-0.000101
1087	1.0806e+02	-3.2694	-9.993930	0.000284	2.837246	0.961285	-0.000114
1088	1.0816e+02	-3.3063	-10.082747	0.000223	2.229265	0.755295	-0.000089
1089	1.0826e+02	-3.3464	-10.199823	0.000294	2.938577	0.995617	-0.000118
1090	1.0836e+02	-3.3962	-10.333049	0.000334	3.343897	1.132943	-0.000134
1091	1.0845e+02	-3.4347	-10.446089	0.000284	2.837246	0.961285	-0.000114
1092	1.0855e+02	-3.4635	-10.542980	0.000243	2.431925	0.823959	-0.000097
1093	1.0865e+02	-3.5036	-10.688317	0.000365	3.647888	1.235938	-0.000146
1094	1.0875e+02	-3.5454	-10.756948	0.000172	1.722614	0.583637	-0.000069
1095	1.0885e+02	-3.5903	-10.898248	0.000355	3.546558	1.201606	-0.000142
1096	1.0895e+02	-3.6336	-11.035511	0.000345	3.445228	1.167275	-0.000138
1097	1.0905e+02	-3.6721	-11.116253	0.000203	2.026605	0.686632	-0.000081
1098	1.0915e+02	-3.7058	-11.249479	0.000334	3.343897	1.132943	-0.000134
1099	1.0925e+02	-3.7475	-11.293887	0.000111	1.114632	0.377648	-0.000045
1100	1.0935e+02	-3.7796	-11.439224	0.000365	3.647888	1.235938	-0.000146
1101	1.0945e+02	-3.8277	-11.568412	0.000324	3.242567	1.098612	-0.000130
1102	1.0955e+02	-3.8710	-11.661267	0.000233	2.330595	0.789627	-0.000093
1103	1.0965e+02	-3.9031	-11.810641	0.000375	3.749218	1.270270	-0.000150
1104	1.0975e+02	-3.9448	-11.915606	0.000263	2.634586	0.892622	-0.000105
1105	1.0985e+02	-3.9801	-12.028646	0.000284	2.837246	0.961285	-0.000114
1106	1.0995e+02	-4.0218	-12.101314	0.000182	1.823944	0.617969	-0.000073
1107	1.1005e+02	-4.0635	-12.250688	0.000375	3.749218	1.270270	-0.000150
1108	1.1015e+02	-4.0956	-12.343543	0.000233	2.330595	0.789627	-0.000093
1109	1.1025e+02	-4.1485	-12.496954	0.000385	3.850549	1.304601	-0.000154
1110	1.1035e+02	-4.1822	-12.614031	0.000294	2.938577	0.995617	-0.000118
1111	1.1044e+02	-4.2239	-12.678625	0.000162	1.621284	0.549306	-0.000065
1112	1.1054e+02	-4.2560	-12.819925	0.000355	3.546558	1.201606	-0.000142
1113	1.1064e+02	-4.3058	-12.916816	0.000243	2.431925	0.823959	-0.000097
1114	1.1074e+02	-4.3427	-13.005633	0.000223	2.229265	0.755295	-0.000089
1115	1.1084e+02	-4.3844	-13.155007	0.000375	3.749218	1.270270	-0.000150
1116	1.1094e+02	-4.4277	-13.243824	0.000223	2.229265	0.755295	-0.000089
1117	1.1104e+02	-4.4758	-13.381086	0.000345	3.445228	1.167275	-0.000138
1118	1.1114e+02	-4.5031	-13.498163	0.000294	2.938577	0.995617	-0.000118
1119	1.1124e+02	-4.5416	-13.603129	0.000263	2.634586	0.892622	-0.000105
1120	1.1134e+02	-4.5785	-13.716169	0.000284	2.837246	0.961285	-0.000114
1121	1.1144e+02	-4.6250	-13.821134	0.000263	2.634586	0.892622	-0.000105
1122	1.1154e+02	-4.6619	-13.958397	0.000345	3.445228	1.167275	-0.000138
1123	1.1164e+02	-4.7004	-14.047214	0.000223	2.229265	0.755295	-0.000089
1124	1.1174e+02	-4.7357	-14.156216	0.000274	2.735916	0.926953	-0.000110
1125	1.1184e+02	-4.7822	-14.277331	0.000304	3.039907	1.029948	-0.000122
1126	1.1194e+02	-4.8159	-14.410556	0.000334	3.343897	1.132943	-0.000134
1127	1.1204e+02	-4.8656	-14.495336	0.000213	2.127935	0.720964	-0.000085
1128	1.1214e+02	-4.9090	-14.616450	0.000304	3.039907	1.029948	-0.000122
1129	1.1224e+02	-4.9458	-14.725453	0.000274	2.735916	0.926953	-0.000110
1130	1.1234e+02	-4.9811	-14.834455	0.000274	2.735916	0.926953	-0.000110
1131	1.1244e+02	-5.0196	-14.947495	0.000284	2.837246	0.961285	-0.000114
1132	1.1253e+02	-5.0662	-15.056498	0.000274	2.735916	0.926953	-0.000110
1133	1.1263e+02	-5.0999	-15.181649	0.000314	3.141237	1.064280	-0.000126
1134	1.1273e+02	-5.1448	-15.294689	0.000284	2.837246	0.961285	-0.000114
1135	1.1283e+02	-5.1897	-15.423877	0.000324	3.242567	1.098612	-0.000130
1136	1.1293e+02	-5.2122	-15.500583	0.000193	1.925274	0.652301	-0.000077
1137	1.1303e+02	-5.2683	-15.641882	0.000355	3.546558	1.201606	-0.000142
1138	1.1313e+02	-5.2940	-15.702439	0.000152	1.519953	0.514974	-0.000061
1139	1.1323e+02	-5.3341	-15.900259	0.000497	4.965181	1.682249	-0.000199
1140	1.1333e+02	-5.3710	-15.936593	0.000091	0.911972	0.308984	-0.000037
1141	1.1343e+02	-5.4239	-16.077893	0.000355	3.546558	1.201606	-0.000142
1142	1.1353e+02	-5.4576	-16.186896	0.000274	2.735916	0.926953	-0.000110
1143	1.1363e+02	-5.4913	-16.308010	0.000304	3.039907	1.029948	-0.000122
1144	1.1373e+02	-5.5378	-16.429124	0.000304	3.039907	1.029948	-0.000122
1145	1.1383e+02	-5.5811	-16.521978	0.000233	2.330595	0.789627	-0.000093
1146	1.1393e+02	-5.6116	-16.635018	0.000284	2.837246	0.961285	-0.000114
1147	1.1403e+02	-5.6565	-16.735946	0.000253	2.533256	0.858290	-0.000101
1148	1.1413e+02	-5.6982	-16.861097	0.000314	3.141237	1.064280	-0.000126
1149	1.1423e+02	-5.7399	-16.885320	0.000061	0.607981	0.205990	-0.000024
1150	1.1433e+02	-5.7752	-17.066991	0.000456	4.559860	1.544922	-0.000183
1151	1.1442e+02	-5.8169	-17.192143	0.000314	3.141237	1.064280	-0.000126
1152	1.1452e+02	-5.8571	-17.272885	0.000203	2.026605	0.686632	-0.000081
1153	1.1462e+02	-5.8988	-17.385925	0.000284	2.837246	0.961285	-0.000114
1154	1.1472e+02	-5.9373	-17.515113	0.000324	3.242567	1.098612	-0.000130
1155	1.1482e+02	-5.9790	-17.587782	0.000182	1.823944	0.617969	-0.000073
1156	1.1492e+02	-6.0046	-17.725044	0.000345	3.445228	1.167275	-0.000138
1157	1.1502e+02	-6.0544	-17.834047	0.000274	2.735916	0.926953	-0.000110
1158	1.1512e+02	-6.0929	-17.999570	0.000415	4.154539	1.407596	-0.000166
1159	1.1522e+02	-6.1298	-18.060127	0.000152	1.519953	0.514974	-0.000061
1160	1.1532e+02	-6.1827	-18.177204	0.000294	2.938577	0.995617	-0.000118
1161	1.1542e+02	-6.2180	-18.314466	0.000345	3.445228	1.167275	-0.000138
1162	1.1552e+02	-6.2565	-18.395209	0.000203	2.026605	0.686632	-0.000081
1163	1.1562e+02	-6.2918	-18.532472	0.000345	3.445228	1.167275	-0.000138
1164	1.1572e+02	-6.3367	-18.625326	0.000233	2.330595	0.789627	-0.000093
1165	1.1582e+02	-6.3816	-18.774700	0.000375	3.749218	1.270270	-0.000150
1166	1.1592e+02	-6.4217	-18.855442	0.000203	2.026605	0.686632	-0.000081
1167	1.1602e+02	-6.4474	-18.952334	0.000243	2.431925	0.823959	-0.000097
1168	1.1612e+02	-6.4843	-19.045188	0.000233	2.330595	0.789627	-0.000093
1169	1.1622e+02	-6.5212	-19.174376	0.000324	3.242567	1.098612	-0.000130
1170	1.1632e+02	-6.5758	-19.271267	0.000243	2.431925	0.823959	-0.000097
1171	1.1642e+02	-6.6126	-19.412567	0.000355	3.546558	1.201606	-0.000142
1172	1.1651e+02	-6.6511	-19.525607	0.000284	2.837246	0.961285	-0.000114
1173	1.1661e+02	-6.6961	-19.614424	0.000223	2.229265	0.755295	-0.000089
1174	1.1671e+02	-6.7378	-19.715352	0.000253	2.533256	0.858290	-0.000101
1175	1.1681e+02	-6.7634	-19.836466	0.000304	3.039907	1.029948	-0.000122
1176	1.1691e+02	-6.8164	-19.997952	0.000405	4.053209	1.373264	-0.000162
1177	1.1701e+02	-6.8437	-20.062546	0.000162	1.621284	0.549306	-0.000065
1178	1.1711e+02	-6.8838	-20.143289	0.000203	2.026605	0.686632	-0.000081
1179	1.1721e+02	-6.9351	-20.256329	0.000284	2.837246	0.961285	-0.000114
1180	1.1731e+02	-6.9672	-20.409740	0.000385	3.850549	1.304601	-0.000154
1181	1.1741e+02	-7.0057	-20.534891	0.000314	3.141237	1.064280	-0.000126
1182	1.1751e+02	-7.0618	-20.619671	0.000213	2.127935	0.720964	-0.000085
1183	1.1761e+02	-7.0923	-20.760971	0.000355	3.546558	1.201606	-0.000142
1184	1.1771e+02	-7.1276	-20.865936	0.000263	2.634586	0.892622	-0.000105
1185	1.1781e+02	-7.1661	-20.954753	0.000223	2.229265	0.755295	-0.000089
1186	1.1791e+02	-7.2062	-21.043570	0.000223	2.229265	0.755295	-0.000089
1187	1.1801e+02	-7.2447	-21.164684	0.000304	3.039907	1.029948	-0.000122
1188	1.1811e+02	-7.2896	-21.305984	0.000355	3.546558	1.201606	-0.000142
1189	1.1821e+02	-7.3329	-21.443246	0.000345	3.445228	1.167275	-0.000138
1190	1.1831e+02	-7.3747	-21.483618	0.000101	1.013302	0.343316	-0.000041
1191	1.1841e+02	-7.4083	-21.641066	0.000395	3.951879	1.338933	-0.000158
1192	1.1850e+02	-7.4468	-21.754106	0.000284	2.837246	0.961285	-0.000114
1193	1.1860e+02	-7.4966	-21.863109	0.000274	2.735916	0.926953	-0.000110
1194	1.1870e+02	-7.5303	-21.968074	0.000263	2.634586	0.892622	-0.000105
1195	1.1880e+02	-7.5640	-22.036705	0.000172	1.722614	0.583637	-0.000069
1196	1.1890e+02	-7.6121	-22.157819	0.000304	3.039907	1.029948	-0.000122
1197	1.1900e+02	-7.6458	-22.270859	0.000284	2.837246	0.961285	-0.000114
1198	1.1910e+02	-7.6923	-22.408122	0.000345	3.445228	1.167275	-0.000138
1199	1.1920e+02	-7.7276	-22.521162	0.000284	2.837246	0.961285	-0.000114
1200	1.1930e+02	-7.7629	-22.593830	0.000182	1.823944	0.617969	-0.000073
1201	1.1940e+02	-7.8062	-22.747241	0.000385	3.850549	1.304601	-0.000154
1202	1.1950e+02	-7.8415	-22.783576	0.000091	0.911972	0.308984	-0.000037
1203	1.1960e+02	-7.8832	-22.949098	0.000415	4.154539	1.407596	-0.000166
1204	1.1970e+02	-7.9265	-23.013692	0.000162	1.621284	0.549306	-0.000065
1205	1.1980e+02	-7.9650	-23.134806	0.000304	3.039907	1.029948	-0.000122
1206	1.1990e+02	-8.0099	-23.259958	0.000314	3.141237	1.064280	-0.000126
1207	1.2000e+02	-8.0500	-23.372997	0.000284	2.837246	0.961285	-0.000114
1208	1.2010e+02	-8.0934	-23.482000	0.000274	2.735916	0.926953	-0.000110
1209	1.2020e+02	-8.1206	-23.554668	0.000182	1.823944	0.617969	-0.000073
1210	1.2030e+02	-8.1671	-23.659634	0.000263	2.634586	0.892622	-0.000105
1211	1.2039e+02	-8.2089	-23.764600	0.000263	2.634586	0.892622	-0.000105
1212	1.2049e+02	-8.2409	-23.869565	0.000263	2.634586	0.892622	-0.000105
1213	1.2059e+02	-8.2859	-24.002791	0.000334	3.343897	1.132943	-0.000134
1214	1.2069e+02	-8.3324	-24.091608	0.000223	2.229265	0.755295	-0.000089
1215	1.2079e+02	-8.3661	-24.220796	0.000324	3.242567	1.098612	-0.000130
1216	1.2089e+02	-8.4014	-24.325761	0.000263	2.634586	0.892622	-0.000105
1217	1.2099e+02	-8.4415	-24.386318	0.000152	1.519953	0.514974	-0.000061
1218	1.2109e+02	-8.4832	-24.555878	0.000426	4.255870	1.441928	-0.000170
1219	1.2119e+02	-8.5297	-24.660844	0.000263	2.634586	0.892622	-0.000105
1220	1.2129e+02	-8.5650	-24.777921	0.000294	2.938577	0.995617	-0.000118
1221	1.2139e+02	-8.6099	-24.862700	0.000213	2.127935	0.720964	-0.000085
1222	1.2149e+02	-8.6356	-24.927295	0.000162	1.621284	0.549306	-0.000065
1223	1.2159e+02	-8.6853	-25.100891	0.000436	4.357200	1.476259	-0.000174
1224	1.2169e+02	-8.7222	-25.181634	0.000203	2.026605	0.686632	-0.000081
1225	1.2179e+02	-8.7623	-25.318897	0.000345	3.445228	1.167275	-0.000138
1226	1.2189e+02	-8.7960	-25.411751	0.000233	2.330595	0.789627	-0.000093
1227	1.2199e+02	-8.8441	-25.488456	0.000193	1.925274	0.652301	-0.000077
1228	1.2209e+02	-8.8842	-25.658016	0.000426	4.255870	1.441928	-0.000170
1229	1.2219e+02	-8.9292	-25.754907	0.000243	2.431925	0.823959	-0.000097
1230	1.2229e+02	-8.9661	-25.819502	0.000162	1.621284	0.549306	-0.000065
1231	1.2239e+02	-8.9901	-25.936579	0.000294	2.938577	0.995617	-0.000118
1232	1.2248e+02	-9.0415	-26.029433	0.000233	2.330595	0.789627	-0.000093
1233	1.2258e+02	-9.0864	-26.170732	0.000355	3.546558	1.201606	-0.000142
1234	1.2268e+02	-9.1169	-26.271661	0.000253	2.533256	0.858290	-0.000101
1235	1.2278e+02	-9.1618	-26.356441	0.000213	2.127935	0.720964	-0.000085
1236	1.2288e+02	-9.2083	-26.497740	0.000355	3.546558	1.201606	-0.000142
1237	1.2298e+02	-9.2452	-26.622892	0.000314	3.141237	1.064280	-0.000126
1238	1.2308e+02	-9.2821	-26.691523	0.000172	1.722614	0.583637	-0.000069
1239	1.2318e+02	-9.3302	-26.808600	0.000294	2.938577	0.995617	-0.000118
1240	1.2328e+02	-9.3607	-26.893380	0.000213	2.127935	0.720964	-0.000085
1241	1.2338e+02	-9.4040	-27.034679	0.000355	3.546558	1.201606	-0.000142
1242	1.2348e+02	-9.4457	-27.155794	0.000304	3.039907	1.029948	-0.000122
1243	1.2358e+02	-9.4730	-27.204239	0.000122	1.215963	0.411979	-0.000049
1244	1.2368e+02	-9.5163	-27.305168	0.000253	2.533256	0.858290	-0.000101
1245	1.2378e+02	-9.5532	-27.450504	0.000365	3.647888	1.235938	-0.000146
1246	1.2388e+02	-9.5933	-27.519136	0.000172	1.722614	0.583637	-0.000069
1247	1.2398e+02	-9.6446	-27.652361	0.000334	3.343897	1.132943	-0.000134
1248	1.2408e+02	-9.6896	-27.741178	0.000223	2.229265	0.755295	-0.000089
1249	1.2418e+02	-9.7233	-27.854218	0.000284	2.837246	0.961285	-0.000114
1250	1.2428e+02	-9.7602	-27.926886	0.000182	1.823944	0.617969	-0.000073
1251	1.2438e+02	-9.8035	-28.015703	0.000223	2.229265	0.755295	-0.000089
1252	1.2447e+02	-9.8356	-28.116632	0.000253	2.533256	0.858290	-0.000101
1253	1.2457e+02	-9.8837	-28.257932	0.000355	3.546558	1.201606	-0.000142
1254	1.2467e+02	-9.9126	-28.342711	0.000213	2.127935	0.720964	-0.000085
1255	1.2477e+02	-9.9559	-28.479974	0.000345	3.445228	1.167275	-0.000138
1256	1.2487e+02	-10.0056	-28.520345	0.000101	1.013302	0.343316	-0.000041
1257	1.2497e+02	-10.0409	-28.681831	0.000405	4.053209	1.373264	-0.000162
1258	1.2507e+02	-10.0794	-28.726239	0.000111	1.114632	0.377648	-0.000045
1259	1.2517e+02	-10.1083	-28.835242	0.000274	2.735916	0.926953	-0.000110
1260	1.2527e+02	-10.1484	-28.928096	0.000233	2.330595	0.789627	-0.000093
1261	1.2537e+02	-10.1965	-29.093619	0.000415	4.154539	1.407596	-0.000166
1262	1.2547e+02	-10.2366	-29.178399	0.000213	2.127935	0.720964	-0.000085
1263	1.2557e+02	-10.2831	-29.275290	0.000243	2.431925	0.823959	-0.000097
1264	1.2567e+02	-10.3216	-29.392367	0.000294	2.938577	0.995617	-0.000118
1265	1.2577e+02	-10.3569	-29.469072	0.000193	1.925274	0.652301	-0.000077
1266	1.2587e+02	-10.3938	-29.565964	0.000243	2.431925	0.823959	-0.000097
1267	1.2597e+02	-10.4403	-29.674966	0.000274	2.735916	0.926953	-0.000110
1268	1.2607e+02	-10.4821	-29.816266	0.000355	3.546558	1.201606	-0.000142
1269	1.2617e+02	-10.5174	-29.921232	0.000263	2.634586	0.892622	-0.000105
1270	1.2627e+02	-10.5526	-29.993900	0.000182	1.823944	0.617969	-0.000073
1271	1.2636e+02	-10.5927	-30.123088	0.000324	3.242567	1.098612	-0.000130
1272	1.2646e+02	-10.6409	-30.211905	0.000223	2.229265	0.755295	-0.000089
1273	1.2656e+02	-10.6730	-30.280537	0.000172	1.722614	0.583637	-0.000069
1274	1.2666e+02	-10.7083	-30.409725	0.000324	3.242567	1.098612	-0.000130
1275	1.2676e+02	-10.7484	-30.522765	0.000284	2.837246	0.961285	-0.000114
1276	1.2686e+02	-10.7885	-30.619656	0.000243	2.431925	0.823959	-0.000097
1277	1.2696e+02	-10.8302	-30.700399	0.000203	2.026605	0.686632	-0.000081
1278	1.2706e+02	-10.8719	-30.801327	0.000253	2.533256	0.858290	-0.000101
1279	1.2716e+02	-10.9168	-30.918404	0.000294	2.938577	0.995617	-0.000118
1280	1.2726e+02	-10.9521	-31.007221	0.000223	2.229265	0.755295	-0.000089
1281	1.2736e+02	-10.9922	-31.148521	0.000355	3.546558	1.201606	-0.000142
1282	1.2746e+02	-11.0371	-31.233301	0.000213	2.127935	0.720964	-0.000085
1283	1.2756e+02	-11.0772	-31.322118	0.000223	2.229265	0.755295	-0.000089
1284	1.2766e+02	-11.1141	-31.427083	0.000263	2.634586	0.892622	-0.000105
1285	1.2776e+02	-11.1623	-31.511863	0.000213	2.127935	0.720964	-0.000085
1286	1.2786e+02	-11.2056	-31.612791	0.000253	2.533256	0.858290	-0.000101
1287	1.2796e+02	-11.2296	-31.729868	0.000294	2.938577	0.995617	-0.000118
1288	1.2806e+02	-11.2745	-31.871168	0.000355	3.546558	1.201606	-0.000142
1289	1.2816e+02	-11.3147	-31.915577	0.000111	1.114632	0.377648	-0.000045
1290	1.2826e+02	-11.3612	-32.052839	0.000345	3.445228	1.167275	-0.000138
1291	1.2835e+02	-11.3949	-32.157805	0.000263	2.634586	0.892622	-0.000105
1292	1.2845e+02	-11.4414	-32.262770	0.000263	2.634586	0.892622	-0.000105
1293	1.2855e+02	-11.4783	-32.347550	0.000213	2.127935	0.720964	-0.000085
1294	1.2865e+02	-11.5152	-32.456553	0.000274	2.735916	0.926953	-0.000110
1295	1.2875e+02	-11.5537	-32.569593	0.000284	2.837246	0.961285	-0.000114
1296	1.2885e+02	-11.5986	-32.670521	0.000253	2.533256	0.858290	-0.000101
1297	1.2895e+02	-11.6435	-32.743189	0.000182	1.823944	0.617969	-0.000073
1298	1.2905e+02	-11.6676	-32.864303	0.000304	3.039907	1.029948	-0.000122
1299	1.2915e+02	-11.7205	-32.977343	0.000284	2.837246	0.961285	-0.000114
1300	1.2925e+02	-11.7478	-33.078272	0.000253	2.533256	0.858290	-0.000101
1301	1.2935e+02	-11.7927	-33.163052	0.000213	2.127935	0.720964	-0.000085
1302	1.2945e+02	-11.8344	-33.284166	0.000304	3.039907	1.029948	-0.000122
1303	1.2955e+02	-11.8649	-33.372983	0.000223	2.229265	0.755295	-0.000089
1304	1.2965e+02	-11.9098	-33.498134	0.000314	3.141237	1.064280	-0.000126
1305	1.2975e+02	-11.9499	-33.586951	0.000223	2.229265	0.755295	-0.000089
1306	1.2985e+02	-11.9820	-33.655582	0.000172	1.722614	0.583637	-0.000069
1307	1.2995e+02	-12.0317	-33.780733	0.000314	3.141237	1.064280	-0.000126
1308	1.3005e+02	-12.0654	-33.833216	0.000132	1.317293	0.446311	-0.000053
1309	1.3015e+02	-12.1071	-33.946256	0.000284	2.837246	0.961285	-0.000114
1310	1.3025e+02	-12.1521	-34.059296	0.000284	2.837246	0.961285	-0.000114
1311	1.3034e+02	-12.2066	-34.164261	0.000263	2.634586	0.892622	-0.000105
1312	1.3044e+02	-12.2226	-34.236930	0.000182	1.823944	0.617969	-0.000073
1313	1.3054e+02	-12.2628	-34.354007	0.000294	2.938577	0.995617	-0.000118
1314	1.3064e+02	-12.3125	-34.454935	0.000253	2.533256	0.858290	-0.000101
1315	1.3074e+02	-12.3526	-34.584123	0.000324	3.242567	1.098612	-0.000130
1316	1.3084e+02	-12.3911	-34.672940	0.000223	2.229265	0.755295	-0.000089
1317	1.3094e+02	-12.4248	-34.737534	0.000162	1.621284	0.549306	-0.000065
1318	1.3104e+02	-12.4697	-34.870760	0.000334	3.343897	1.132943	-0.000134
1319	1.3114e+02	-12.5178	-35.003985	0.000334	3.343897	1.132943	-0.000134
1320	1.3124e+02	-12.5451	-35.048394	0.000111	1.114632	0.377648	-0.000045
1321	1.3134e+02	-12.5836	-35.209879	0.000405	4.053209	1.373264	-0.000162
1322	1.3144e+02	-12.6301	-35.262362	0.000132	1.317293	0.446311	-0.000053
1323	1.3154e+02	-12.6766	-35.355216	0.000233	2.330595	0.789627	-0.000093
1324	1.3164e+02	-12.7135	-35.468256	0.000284	2.837246	0.961285	-0.000114
1325	1.3174e+02	-12.7504	-35.557073	0.000223	2.229265	0.755295	-0.000089
1326	1.3184e+02	-12.7793	-35.670113	0.000284	2.837246	0.961285	-0.000114
1327	1.3194e+02	-12.8339	-35.783153	0.000284	2.837246	0.961285	-0.000114
1328	1.3204e+02	-12.8676	-35.884081	0.000253	2.533256	0.858290	-0.000101
1329	1.3214e+02	-12.9061	-35.944638	0.000152	1.519953	0.514974	-0.000061
1330	1.3224e+02	-12.9542	-36.110161	0.000415	4.154539	1.407596	-0.000166
1331	1.3234e+02	-12.9782	-36.194940	0.000213	2.127935	0.720964	-0.000085
1332	1.3243e+02	-13.0167	-36.299906	0.000263	2.634586	0.892622	-0.000105
1333	1.3253e+02	-13.0617	-36.408909	0.000274	2.735916	0.926953	-0.000110
1334	1.3263e+02	-13.1114	-36.485614	0.000193	1.925274	0.652301	-0.000077
1335	1.3273e+02	-13.1467	-36.602691	0.000294	2.938577	0.995617	-0.000118
1336	1.3283e+02	-13.1820	-36.663248	0.000152	1.519953	0.514974	-0.000061
1337	1.3293e+02	-13.2237	-36.820696	0.000395	3.951879	1.338933	-0.000158
1338	1.3303e+02	-13.2654	-36.941811	0.000304	3.039907	1.029948	-0.000122
1339	1.3313e+02	-13.3055	-37.014479	0.000182	1.823944	0.617969	-0.000073
1340	1.3323e+02	-13.3408	-37.095222	0.000203	2.026605	0.686632	-0.000081
1341	1.3333e+02	-13.3857	-37.204224	0.000274	2.735916	0.926953	-0.000110
1342	1.3343e+02	-13.4306	-37.272856	0.000172	1.722614	0.583637	-0.000069
1343	1.3353e+02	-13.4691	-37.389933	0.000294	2.938577	0.995617	-0.000118
1344	1.3363e+02	-13.4996	-37.482787	0.000233	2.330595	0.789627	-0.000093
1345	1.3373e+02	-13.5445	-37.595827	0.000284	2.837246	0.961285	-0.000114
1346	1.3383e+02	-13.5895	-37.684644	0.000223	2.229265	0.755295	-0.000089
1347	1.3393e+02	-13.6296	-37.809795	0.000314	3.141237	1.064280	-0.000126
1348	1.3403e+02	-13.6697	-37.910723	0.000253	2.533256	0.858290	-0.000101
1349	1.3413e+02	-13.7034	-37.979354	0.000172	1.722614	0.583637	-0.000069
1350	1.3423e+02	-13.7354	-38.128728	0.000375	3.749218	1.270270	-0.000150
1351	1.3432e+02	-13.7788	-38.201397	0.000182	1.823944	0.617969	-0.000073
1352	1.3442e+02	-13.8173	-38.310400	0.000274	2.735916	0.926953	-0.000110
1353	1.3452e+02	-13.8702	-38.387105	0.000193	1.925274	0.652301	-0.000077
1354	1.3462e+02	-13.8959	-38.483996	0.000243	2.431925	0.823959	-0.000097
1355	1.3472e+02	-13.9408	-38.637408	0.000385	3.850549	1.304601	-0.000154
1356	1.3482e+02	-13.9793	-38.685853	0.000122	1.215963	0.411979	-0.000049
1357	1.3492e+02	-14.0290	-38.778707	0.000233	2.330595	0.789627	-0.000093
1358	1.3502e+02	-14.0579	-38.907896	0.000324	3.242567	1.098612	-0.000130
1359	1.3512e+02	-14.0964	-39.000750	0.000233	2.330595	0.789627	-0.000093
1360	1.3522e+02	-14.1365	-39.093604	0.000233	2.330595	0.789627	-0.000093
1361	1.3532e+02	-14.1894	-39.150124	0.000142	1.418623	0.480643	-0.000057
1362	1.3542e+02	-14.2071	-39.319684	0.000426	4.255870	1.441928	-0.000170
1363	1.3552e+02	-14.2664	-39.400426	0.000203	2.026605	0.686632	-0.000081
1364	1.3562e+02	-14.2969	-39.497317	0.000243	2.431925	0.823959	-0.000097
1365	1.3572e+02	-14.3370	-39.598246	0.000253	2.533256	0.858290	-0.000101
1366	1.3582e+02	-14.3836	-39.691100	0.000233	2.330595	0.789627	-0.000093
1367	1.3592e+02	-14.4108	-39.787991	0.000243	2.431925	0.823959	-0.000097
1368	1.3602e+02	-14.4702	-39.909105	0.000304	3.039907	1.029948	-0.000122
1369	1.3612e+02	-14.5039	-39.973700	0.000162	1.621284	0.549306	-0.000065
1370	1.3622e+02	-14.5440	-40.123074	0.000375	3.749218	1.270270	-0.000150
1371	1.3631e+02	-14.5745	-40.203816	0.000203	2.026605	0.686632	-0.000081
1372	1.3641e+02	-14.6258	-40.268410	0.000162	1.621284	0.549306	-0.000065
1373	1.3651e+02	-14.6499	-40.357227	0.000223	2.229265	0.755295	-0.000089
1374	1.3661e+02	-14.7028	-40.474304	0.000294	2.938577	0.995617	-0.000118
1375	1.3671e+02	-14.7253	-40.599456	0.000314	3.141237	1.064280	-0.000126
1376	1.3681e+02	-14.7814	-40.660013	0.000152	1.519953	0.514974	-0.000061
1377	1.3691e+02	-14.8215	-40.764978	0.000263	2.634586	0.892622	-0.000105
1378	1.3701e+02	-14.8520	-40.869944	0.000263	2.634586	0.892622	-0.000105
1379	1.3711e+02	-14.9017	-40.914352	0.000111	1.114632	0.377648	-0.000045
1380	1.3721e+02	-14.9418	-41.079875	0.000415	4.154539	1.407596	-0.000166
1381	1.3731e+02	-14.9755	-41.132357	0.000132	1.317293	0.446311	-0.000053
1382	1.3741e+02	-15.0268	-41.257509	0.000314	3.141237	1.064280	-0.000126
1383	1.3751e+02	-15.0557	-41.374586	0.000294	2.938577	0.995617	-0.000118
1384	1.3761e+02	-15.0974	-41.451291	0.000193	1.925274	0.652301	-0.000077
1385	1.3771e+02	-15.1407	-41.540108	0.000223	2.229265	0.755295	-0.000089
1386	1.3781e+02	-15.1776	-41.628925	0.000223	2.229265	0.755295	-0.000089
1387	1.3791e+02	-15.2161	-41.705631	0.000193	1.925274	0.652301	-0.000077
1388	1.3801e+02	-15.2514	-41.875190	0.000426	4.255870	1.441928	-0.000170
1389	1.3811e+02	-15.2996	-41.951896	0.000193	1.925274	0.652301	-0.000077
1390	1.3821e+02	-15.3349	-42.028602	0.000193	1.925274	0.652301	-0.000077
1391	1.3831e+02	-15.3782	-42.161827	0.000334	3.343897	1.132943	-0.000134
1392	1.3840e+02	-15.4215	-42.246607	0.000213	2.127935	0.720964	-0.000085
1393	1.3850e+02	-15.4568	-42.331387	0.000213	2.127935	0.720964	-0.000085
1394	1.3860e+02	-15.4889	-42.444427	0.000284	2.837246	0.961285	-0.000114
1395	1.3870e+02	-15.5338	-42.537281	0.000233	2.330595	0.789627	-0.000093
1396	1.3880e+02	-15.5755	-42.626098	0.000223	2.229265	0.755295	-0.000089
1397	1.3890e+02	-15.6204	-42.698766	0.000182	1.823944	0.617969	-0.000073
1398	1.3900e+02	-15.6525	-42.795657	0.000243	2.431925	0.823959	-0.000097
1399	1.3910e+02	-15.6990	-42.912734	0.000294	2.938577	0.995617	-0.000118
1400	1.3920e+02	-15.7391	-43.009626	0.000243	2.431925	0.823959	-0.000097
1401	1.3930e+02	-15.7792	-43.106517	0.000243	2.431925	0.823959	-0.000097
1402	1.3940e+02	-15.8145	-43.215520	0.000274	2.735916	0.926953	-0.000110
1403	1.3950e+02	-15.8498	-43.296262	0.000203	2.026605	0.686632	-0.000081
1404	1.3960e+02	-15.8931	-43.421413	0.000314	3.141237	1.064280	-0.000126
1405	1.3970e+02	-15.9397	-43.490045	0.000172	1.722614	0.583637	-0.000069
1406	1.3980e+02	-15.9621	-43.635382	0.000365	3.647888	1.235938	-0.000146
1407	1.3990e+02	-16.0135	-43.699976	0.000162	1.621284	0.549306	-0.000065
1408	1.4000e+02	-16.0520	-43.756496	0.000142	1.418623	0.480643	-0.000057
1409	1.4010e+02	-16.0889	-43.913944	0.000395	3.951879	1.338933	-0.000158
1410	1.4020e+02	-16.1402	-43.990650	0.000193	1.925274	0.652301	-0.000077
1411	1.4029e+02	-16.1755	-44.051207	0.000152	1.519953	0.514974	-0.000061
1412	1.4039e+02	-16.2188	-44.184432	0.000334	3.343897	1.132943	-0.000134
1413	1.4049e+02	-16.2573	-44.273249	0.000223	2.229265	0.755295	-0.000089
1414	1.4059e+02	-16.2990	-44.341880	0.000172	1.722614	0.583637	-0.000069
1415	1.4069e+02	-16.3311	-44.414549	0.000182	1.823944	0.617969	-0.000073
1416	1.4079e+02	-16.3760	-44.555849	0.000355	3.546558	1.201606	-0.000142
1417	1.4089e+02	-16.4161	-44.620443	0.000162	1.621284	0.549306	-0.000065
1418	1.4099e+02	-16.4546	-44.737520	0.000294	2.938577	0.995617	-0.000118
1419	1.4109e+02	-16.4915	-44.826337	0.000223	2.229265	0.755295	-0.000089
1420	1.4119e+02	-16.5412	-44.935339	0.000274	2.735916	0.926953	-0.000110
1421	1.4129e+02	-16.5765	-45.032231	0.000243	2.431925	0.823959	-0.000097
1422	1.4139e+02	-16.6086	-45.117010	0.000213	2.127935	0.720964	-0.000085
1423	1.4149e+02	-16.6535	-45.193716	0.000193	1.925274	0.652301	-0.000077
1424	1.4159e+02	-16.6888	-45.298682	0.000263	2.634586	0.892622	-0.000105
1425	1.4169e+02	-16.7305	-45.383461	0.000213	2.127935	0.720964	-0.000085
1426	1.4179e+02	-16.7755	-45.500538	0.000294	2.938577	0.995617	-0.000118
1427	1.4189e+02	-16.8188	-45.561095	0.000152	1.519953	0.514974	-0.000061
1428	1.4199e+02	-16.8525	-45.629727	0.000172	1.722614	0.583637	-0.000069
1429	1.4209e+02	-16.8910	-45.742766	0.000284	2.837246	0.961285	-0.000114
1430	1.4219e+02	-16.9327	-45.843695	0.000253	2.533256	0.858290	-0.000101
1431	1.4228e+02	-16.9712	-45.948660	0.000263	2.634586	0.892622	-0.000105
1432	1.4238e+02	-17.0097	-46.041515	0.000233	2.330595	0.789627	-0.000093
1433	1.4248e+02	-17.0610	-46.138406	0.000243	2.431925	0.823959	-0.000097
1434	1.4258e+02	-17.1027	-46.259520	0.000304	3.039907	1.029948	-0.000122
1435	1.4268e+02	-17.1284	-46.348337	0.000223	2.229265	0.755295	-0.000089
1436	1.4278e+02	-17.1733	-46.465414	0.000294	2.938577	0.995617	-0.000118
1437	1.4288e+02	-17.2102	-46.546156	0.000203	2.026605	0.686632	-0.000081
1438	1.4298e+02	-17.2455	-46.634973	0.000223	2.229265	0.755295	-0.000089
1439	1.4308e+02	-17.2904	-46.739939	0.000263	2.634586	0.892622	-0.000105
1440	1.4318e+02	-17.3257	-46.812607	0.000182	1.823944	0.617969	-0.000073
1441	1.4328e+02	-17.3738	-46.909499	0.000243	2.431925	0.823959	-0.000097
1442	1.4338e+02	-17.4059	-47.006390	0.000243	2.431925	0.823959	-0.000097
1443	1.4348e+02	-17.4460	-47.107318	0.000253	2.533256	0.858290	-0.000101
1444	1.4358e+02	-17.4990	-47.179987	0.000182	1.823944	0.617969	-0.000073
1445	1.4368e+02	-17.5246	-47.321287	0.000355	3.546558	1.201606	-0.000142
1446	1.4378e+02	-17.5647	-47.377806	0.000142	1.418623	0.480643	-0.000057
1447	1.4388e+02	-17.6097	-47.490846	0.000284	2.837246	0.961285	-0.000114
1448	1.4398e+02	-17.6434	-47.599849	0.000274	2.735916	0.926953	-0.000110
1449	1.4408e+02	-17.6883	-47.684629	0.000213	2.127935	0.720964	-0.000085
1450	1.4418e+02	-17.7220	-47.761334	0.000193	1.925274	0.652301	-0.000077
1451	1.4428e+02	-17.7701	-47.878411	0.000294	2.938577	0.995617	-0.000118
1452	1.4437e+02	-17.8054	-48.003562	0.000314	3.141237	1.064280	-0.000126
1453	1.4447e+02	-17.8567	-48.060082	0.000142	1.418623	0.480643	-0.000057
1454	1.4457e+02	-17.8872	-48.161011	0.000253	2.533256	0.858290	-0.000101
1455	1.4467e+02	-17.9225	-48.278088	0.000294	2.938577	0.995617	-0.000118
1456	1.4477e+02	-17.9706	-48.379016	0.000253	2.533256	0.858290	-0.000101
1457	1.4487e+02	-18.0043	-48.504167	0.000314	3.141237	1.064280	-0.000126
1458	1.4497e+02	-18.0524	-48.588947	0.000213	2.127935	0.720964	-0.000085
1459	1.4507e+02	-18.0861	-48.621244	0.000081	0.810642	0.274653	-0.000032
1460	1.4517e+02	-18.1278	-48.778693	0.000395	3.951879	1.338933	-0.000158
1461	1.4527e+02	-18.1663	-48.847324	0.000172	1.722614	0.583637	-0.000069
1462	1.4537e+02	-18.2032	-48.972475	0.000314	3.141237	1.064280	-0.000126
1463	1.4547e+02	-18.2481	-49.069366	0.000243	2.431925	0.823959	-0.000097
1464	1.4557e+02	-18.2931	-49.214703	0.000365	3.647888	1.235938	-0.000146
1465	1.4567e+02	-18.3316	-49.287372	0.000182	1.823944	0.617969	-0.000073
1466	1.4577e+02	-18.3797	-49.351966	0.000162	1.621284	0.549306	-0.000065
1467	1.4587e+02	-18.4006	-49.456931	0.000263	2.634586	0.892622	-0.000105
1468	1.4597e+02	-18.4471	-49.565934	0.000274	2.735916	0.926953	-0.000110
1469	1.4607e+02	-18.4840	-49.683011	0.000294	2.938577	0.995617	-0.000118
1470	1.4617e+02	-18.5289	-49.792014	0.000274	2.735916	0.926953	-0.000110
1471	1.4626e+02	-18.5706	-49.860645	0.000172	1.722614	0.583637	-0.000069
1472	1.4636e+02	-18.6059	-49.961573	0.000253	2.533256	0.858290	-0.000101
1473	1.4646e+02	-18.6476	-50.094799	0.000334	3.343897	1.132943	-0.000134
1474	1.4656e+02	-18.6829	-50.183616	0.000223	2.229265	0.755295	-0.000089
1475	1.4666e+02	-18.7310	-50.256284	0.000182	1.823944	0.617969	-0.000073
1476	1.4676e+02	-18.7663	-50.361250	0.000263	2.634586	0.892622	-0.000105
1477	1.4686e+02	-18.8048	-50.490438	0.000324	3.242567	1.098612	-0.000130
1478	1.4696e+02	-18.8481	-50.575218	0.000213	2.127935	0.720964	-0.000085
1479	1.4706e+02	-18.8882	-50.676146	0.000253	2.533256	0.858290	-0.000101
1480	1.4716e+02	-18.9283	-50.813409	0.000345	3.445228	1.167275	-0.000138
1481	1.4726e+02	-18.9652	-50.910300	0.000243	2.431925	0.823959	-0.000097
1482	1.4736e+02	-19.0053	-51.007191	0.000243	2.431925	0.823959	-0.000097
1483	1.4746e+02	-19.0455	-51.120231	0.000284	2.837246	0.961285	-0.000114
1484	1.4756e+02	-19.0823	-51.192900	0.000182	1.823944	0.617969	-0.000073
1485	1.4766e+02	-19.1160	-51.330162	0.000345	3.445228	1.167275	-0.000138
1486	1.4776e+02	-19.1610	-51.431091	0.000253	2.533256	0.858290	-0.000101
1487	1.4786e+02	-19.1979	-51.548168	0.000294	2.938577	0.995617	-0.000118
1488	1.4796e+02	-19.2396	-51.608725	0.000152	1.519953	0.514974	-0.000061
1489	1.4806e+02	-19.2829	-51.754062	0.000365	3.647888	1.235938	-0.000146
1490	1.4816e+02	-19.3230	-51.846916	0.000233	2.330595	0.789627	-0.000093
1491	1.4825e+02	-19.3615	-51.980141	0.000334	3.343897	1.132943	-0.000134
1492	1.4835e+02	-19.4016	-52.101255	0.000304	3.039907	1.029948	-0.000122
1493	1.4845e+02	-19.4481	-52.181998	0.000203	2.026605	0.686632	-0.000081
1494	1.4855e+02	-19.4866	-52.282926	0.000253	2.533256	0.858290	-0.000101
1495	1.4865e+02	-19.5235	-52.428263	0.000365	3.647888	1.235938	-0.000146
1496	1.4875e+02	-19.5588	-52.533229	0.000263	2.634586	0.892622	-0.000105
1497	1.4885e+02	-19.5925	-52.638194	0.000263	2.634586	0.892622	-0.000105
1498	1.4895e+02	-19.6358	-52.763346	0.000314	3.141237	1.064280	-0.000126
1499	1.4905e+02	-19.6775	-52.892534	0.000324	3.242567	1.098612	-0.000130
1500	1.4915e+02	-19.7032	-52.981351	0.000223	2.229265	0.755295	-0.000089
1501	1.4925e+02	-19.7658	-53.110539	0.000324	3.242567	1.098612	-0.000130
1502	1.4935e+02	-19.7946	-53.223579	0.000284	2.837246	0.961285	-0.000114
1503	1.4945e+02	-19.8331	-53.364879	0.000355	3.546558	1.201606	-0.000142
1504	1.4955e+02	-19.8748	-53.469844	0.000263	2.634586	0.892622	-0.000105
1505	1.4965e+02	-19.9198	-53.574810	0.000263	2.634586	0.892622	-0.000105
1506	1.4975e+02	-19.9551	-53.728221	0.000385	3.850549	1.304601	-0.000154
1507	1.4985e+02	-19.9984	-53.837224	0.000274	2.735916	0.926953	-0.000110
1508	1.4995e+02	-19.9502	-53.804927	0.000081	0.810642	0.274653	0.000032
1509	1.5005e+02	-19.9230	-53.732258	0.000182	1.823944	0.617969	0.000073
1510	1.5015e+02	-19.8797	-53.712072	0.000051	0.506651	0.171658	0.000020
1511	1.5025e+02	-19.8428	-53.647478	0.000162	1.621284	0.549306	0.000065
1512	1.5034e+02	-19.7914	-53.574810	0.000182	1.823944	0.617969	0.000073
1513	1.5044e+02	-19.7577	-53.578847	-0.000010	-0.101330	-0.034332	-0.000004
1514	1.5054e+02	-19.7192	-53.437547	0.000355	3.546558	1.201606	0.000142
1515	1.5064e+02	-19.6791	-53.421399	0.000041	0.405321	0.137326	0.000016
1516	1.5074e+02	-19.6310	-53.389102	0.000081	0.810642	0.274653	0.000032
1517	1.5084e+02	-19.6005	-53.280099	0.000274	2.735916	0.926953	0.000110
1518	1.5094e+02	-19.5604	-53.263950	0.000041	0.405321	0.137326	0.000016
1519	1.5104e+02	-19.5171	-53.154948	0.000274	2.735916	0.926953	0.000110
1520	1.5114e+02	-19.4738	-53.134762	0.000051	0.506651	0.171658	0.000020
1521	1.5124e+02	-19.4369	-53.041908	0.000233	2.330595	0.789627	0.000093
1522	1.5134e+02	-19.4016	-52.953091	0.000223	2.229265	0.755295	0.000089
1523	1.5144e+02	-19.3647	-52.912720	0.000101	1.013302	0.343316	0.000041
1524	1.5154e+02	-19.3150	-52.848125	0.000162	1.621284	0.549306	0.000065
1525	1.5164e+02	-19.2925	-52.795643	0.000132	1.317293	0.446311	0.000053
1526	1.5174e+02	-19.2460	-52.710863	0.000213	2.127935	0.720964	0.000085
1527	1.5184e+02	-19.2155	-52.666454	0.000111	1.114632	0.377648	0.000045
1528	1.5194e+02	-19.1658	-52.565526	0.000253	2.533256	0.858290	0.000101
1529	1.5204e+02	-19.1176	-52.492857	0.000182	1.823944	0.617969	0.000073
1530	1.5214e+02	-19.0823	-52.444412	0.000122	1.215963	0.411979	0.000049
1531	1.5224e+02	-19.0422	-52.367706	0.000193	1.925274	0.652301	0.000077
1532	1.5233e+02	-19.0053	-52.291001	0.000193	1.925274	0.652301	0.000077
1533	1.5243e+02	-18.9636	-52.230444	0.000152	1.519953	0.514974	0.000061
1534	1.5253e+02	-18.9299	-52.161812	0.000172	1.722614	0.583637	0.000069
1535	1.5263e+02	-18.8722	-52.081070	0.000203	2.026605	0.686632	0.000081
1536	1.5273e+02	-18.8449	-52.020513	0.000152	1.519953	0.514974	0.000061
1537	1.5283e+02	-18.7968	-51.959956	0.000152	1.519953	0.514974	0.000061
1538	1.5293e+02	-18.7695	-51.850953	0.000274	2.735916	0.926953	0.000110
1539	1.5303e+02	-18.7166	-51.802507	0.000122	1.215963	0.411979	0.000049
1540	1.5313e+02	-18.6845	-51.713690	0.000223	2.229265	0.755295	0.000089
1541	1.5323e+02	-18.6428	-51.657170	0.000142	1.418623	0.480643	0.000057
1542	1.5333e+02	-18.5947	-51.544131	0.000284	2.837246	0.961285	0.000114
1543	1.5343e+02	-18.5738	-51.471462	0.000182	1.823944	0.617969	0.000073
1544	1.5353e+02	-18.5257	-51.406868	0.000162	1.621284	0.549306	0.000065
1545	1.5363e+02	-18.4808	-51.314014	0.000233	2.330595	0.789627	0.000093
1546	1.5373e+02	-18.4471	-51.273642	0.000101	1.013302	0.343316	0.000041
1547	1.5383e+02	-18.4118	-51.160603	0.000284	2.837246	0.961285	0.000114
1548	1.5393e+02	-18.3669	-51.116194	0.000111	1.114632	0.377648	0.000045
1549	1.5403e+02	-18.3284	-51.031414	0.000213	2.127935	0.720964	0.000085
1550	1.5413e+02	-18.2802	-50.938560	0.000233	2.330595	0.789627	0.000093
1551	1.5422e+02	-18.2449	-50.873966	0.000162	1.621284	0.549306	0.000065
1552	1.5432e+02	-18.2032	-50.764963	0.000274	2.735916	0.926953	0.000110
1553	1.5442e+02	-18.1711	-50.712481	0.000132	1.317293	0.446311	0.000053
1554	1.5452e+02	-18.1230	-50.623664	0.000223	2.229265	0.755295	0.000089
1555	1.5462e+02	-18.0893	-50.526772	0.000243	2.431925	0.823959	0.000097
1556	1.5472e+02	-18.0508	-50.466215	0.000152	1.519953	0.514974	0.000061
1557	1.5482e+02	-18.0075	-50.409695	0.000142	1.418623	0.480643	0.000057
1558	1.5492e+02	-17.9802	-50.320878	0.000223	2.229265	0.755295	0.000089
1559	1.5502e+02	-17.9321	-50.252247	0.000172	1.722614	0.583637	0.000069
1560	1.5512e+02	-17.8840	-50.163430	0.000223	2.229265	0.755295	0.000089
1561	1.5522e+02	-17.8519	-50.086725	0.000193	1.925274	0.652301	0.000077
1562	1.5532e+02	-17.8022	-49.981759	0.000263	2.634586	0.892622	0.000105
1563	1.5542e+02	-17.7669	-49.925239	0.000142	1.418623	0.480643	0.000057
1564	1.5552e+02	-17.7268	-49.840459	0.000213	2.127935	0.720964	0.000085
1565	1.5562e+02	-17.6867	-49.779902	0.000152	1.519953	0.514974	0.000061
1566	1.5572e+02	-17.6482	-49.678974	0.000253	2.533256	0.858290	0.000101
1567	1.5582e+02	-17.6081	-49.630528	0.000122	1.215963	0.411979	0.000049
1568	1.5592e+02	-17.5712	-49.533637	0.000243	2.431925	0.823959	0.000097
1569	1.5602e+02	-17.5246	-49.452894	0.000203	2.026605	0.686632	0.000081
1570	1.5612e+02	-17.4829	-49.364077	0.000223	2.229265	0.755295	0.000089
1571	1.5622e+02	-17.4476	-49.255075	0.000274	2.735916	0.926953	0.000110
1572	1.5631e+02	-17.4139	-49.206629	0.000122	1.215963	0.411979	0.000049
1573	1.5641e+02	-17.3626	-49.109738	0.000243	2.431925	0.823959	0.000097
1574	1.5651e+02	-17.3353	-49.065329	0.000111	1.114632	0.377648	0.000045
1575	1.5661e+02	-17.2904	-48.960364	0.000263	2.634586	0.892622	0.000105
1576	1.5671e+02	-17.2599	-48.855398	0.000263	2.634586	0.892622	0.000105
1577	1.5681e+02	-17.2150	-48.790804	0.000162	1.621284	0.549306	0.000065
1578	1.5691e+02	-17.1653	-48.701987	0.000223	2.229265	0.755295	0.000089
1579	1.5701e+02	-17.1284	-48.601059	0.000253	2.533256	0.858290	0.000101
1580	1.5711e+02	-17.0947	-48.496093	0.000263	2.634586	0.892622	0.000105
1581	1.5721e+02	-17.0450	-48.475907	0.000051	0.506651	0.171658	0.000020
1582	1.5731e+02	-17.0113	-48.354793	0.000304	3.039907	1.029948	0.000122
1583	1.5741e+02	-16.9744	-48.286162	0.000172	1.722614	0.583637	0.000069
1584	1.5751e+02	-16.9295	-48.197345	0.000223	2.229265	0.755295	0.000089
1585	1.5761e+02	-16.8942	-48.128714	0.000172	1.722614	0.583637	0.000069
1586	1.5771e+02	-16.8428	-48.027785	0.000253	2.533256	0.858290	0.000101
1587	1.5781e+02	-16.8043	-47.963191	0.000162	1.621284	0.549306	0.000065
1588	1.5791e+02	-16.7739	-47.834003	0.000324	3.242567	1.098612	0.000130
1589	1.5801e+02	-16.7370	-47.769409	0.000162	1.621284	0.549306	0.000065
1590	1.5811e+02	-16.6856	-47.688666	0.000203	2.026605	0.686632	0.000081
1591	1.5821e+02	-16.6535	-47.579663	0.000274	2.735916	0.926953	0.000110
1592	1.5830e+02	-16.6118	-47.486809	0.000233	2.330595	0.789627	0.000093
1593	1.5840e+02	-16.5765	-47.462586	0.000061	0.607981	0.205990	0.000024
1594	1.5850e+02	-16.5332	-47.333398	0.000324	3.242567	1.098612	0.000130
1595	1.5860e+02	-16.4835	-47.280915	0.000132	1.317293	0.446311	0.000053
1596	1.5870e+02	-16.4482	-47.163838	0.000294	2.938577	0.995617	0.000118
1597	1.5880e+02	-16.4129	-47.034650	0.000324	3.242567	1.098612	0.000130
1598	1.5890e+02	-16.3760	-46.937759	0.000243	2.431925	0.823959	0.000097
1599	1.5900e+02	-16.3423	-46.909499	0.000071	0.709312	0.240321	0.000028
1600	1.5910e+02	-16.2878	-46.808570	0.000253	2.533256	0.858290	0.000101
1601	1.5920e+02	-16.2445	-46.691493	0.000294	2.938577	0.995617	0.000118
1602	1.5930e+02	-16.2140	-46.675345	0.000041	0.405321	0.137326	0.000016
1603	1.5940e+02	-16.1707	-46.562305	0.000284	2.837246	0.961285	0.000114
1604	1.5950e+02	-16.1338	-46.481562	0.000203	2.026605	0.686632	0.000081
1605	1.5960e+02	-16.0953	-46.364485	0.000294	2.938577	0.995617	0.000118
1606	1.5970e+02	-16.0487	-46.352374	0.000030	0.303991	0.102995	0.000012
1607	1.5980e+02	-16.0102	-46.231260	0.000304	3.039907	1.029948	0.000122
1608	1.5990e+02	-15.9782	-46.126294	0.000263	2.634586	0.892622	0.000105
1609	1.6000e+02	-15.9397	-46.077849	0.000122	1.215963	0.411979	0.000049
1610	1.6010e+02	-15.9028	-45.980957	0.000243	2.431925	0.823959	0.000097
1611	1.6019e+02	-15.8482	-45.855806	0.000314	3.141237	1.064280	0.000126
1612	1.6029e+02	-15.8129	-45.766989	0.000223	2.229265	0.755295	0.000089
1613	1.6039e+02	-15.7808	-45.698358	0.000172	1.722614	0.583637	0.000069
1614	1.6049e+02	-15.7343	-45.625690	0.000182	1.823944	0.617969	0.000073
1615	1.6059e+02	-15.6894	-45.504575	0.000304	3.039907	1.029948	0.000122
1616	1.6069e+02	-15.6541	-45.399610	0.000263	2.634586	0.892622	0.000105
1617	1.6079e+02	-15.6172	-45.359239	0.000101	1.013302	0.343316	0.000041
1618	1.6089e+02	-15.5739	-45.250236	0.000274	2.735916	0.926953	0.000110
1619	1.6099e+02	-15.5498	-45.177567	0.000182	1.823944	0.617969	0.000073
1620	1.6109e+02	-15.4905	-45.048379	0.000324	3.242567	1.098612	0.000130
1621	1.6119e+02	-15.4632	-45.016082	0.000081	0.810642	0.274653	0.000032
1622	1.6129e+02	-15.4231	-44.899005	0.000294	2.938577	0.995617	0.000118
1623	1.6139e+02	-15.3718	-44.814225	0.000213	2.127935	0.720964	0.000085
1624	1.6149e+02	-15.3381	-44.701185	0.000284	2.837246	0.961285	0.000114
1625	1.6159e+02	-15.2996	-44.644666	0.000142	1.418623	0.480643	0.000057
1626	1.6169e+02	-15.2546	-44.588146	0.000142	1.418623	0.480643	0.000057
1627	1.6179e+02	-15.2145	-44.499329	0.000223	2.229265	0.755295	0.000089
1628	1.6189e+02	-15.1728	-44.366103	0.000334	3.343897	1.132943	0.000134
1629	1.6199e+02	-15.1504	-44.317658	0.000122	1.215963	0.411979	0.000049
1630	1.6209e+02	-15.1039	-44.220766	0.000243	2.431925	0.823959	0.000097
1631	1.6219e+02	-15.0573	-44.123875	0.000243	2.431925	0.823959	0.000097
1632	1.6228e+02	-15.0236	-44.047169	0.000193	1.925274	0.652301	0.000077
1633	1.6238e+02	-14.9787	-43.938167	0.000274	2.735916	0.926953	0.000110
1634	1.6248e+02	-14.9402	-43.865498	0.000182	1.823944	0.617969	0.000073
1635	1.6258e+02	-14.9049	-43.772644	0.000233	2.330595	0.789627	0.000093
1636	1.6268e+02	-14.8536	-43.679790	0.000233	2.330595	0.789627	0.000093
1637	1.6278e+02	-14.8215	-43.578862	0.000253	2.533256	0.858290	0.000101
1638	1.6288e+02	-14.7798	-43.506193	0.000182	1.823944	0.617969	0.000073
1639	1.6298e+02	-14.7397	-43.393153	0.000284	2.837246	0.961285	0.000114
1640	1.6308e+02	-14.7044	-43.324522	0.000172	1.722614	0.583637	0.000069
1641	1.6318e+02	-14.6611	-43.247817	0.000193	1.925274	0.652301	0.000077
1642	1.6328e+02	-14.6194	-43.126703	0.000304	3.039907	1.029948	0.000122
1643	1.6338e+02	-14.5712	-43.049997	0.000193	1.925274	0.652301	0.000077
1644	1.6348e+02	-14.5263	-42.977328	0.000182	1.823944	0.617969	0.000073
1645	1.6358e+02	-14.5071	-42.856214	0.000304	3.039907	1.029948	0.000122
1646	1.6368e+02	-14.4590	-42.787583	0.000172	1.722614	0.583637	0.000069
1647	1.6378e+02	-14.4221	-42.698766	0.000223	2.229265	0.755295	0.000089
1648	1.6388e+02	-14.3836	-42.561504	0.000345	3.445228	1.167275	0.000138
1649	1.6398e+02	-14.3434	-42.480761	0.000203	2.026605	0.686632	0.000081
1650	1.6408e+02	-14.3033	-42.432315	0.000122	1.215963	0.411979	0.000049
1651	1.6418e+02	-14.2568	-42.347535	0.000213	2.127935	0.720964	0.000085
1652	1.6427e+02	-14.2263	-42.202198	0.000365	3.647888	1.235938	0.000146
1653	1.6437e+02	-14.1830	-42.133567	0.000172	1.722614	0.583637	0.000069
1654	1.6447e+02	-14.1413	-42.048787	0.000213	2.127935	0.720964	0.000085
1655	1.6457e+02	-14.0916	-41.931710	0.000294	2.938577	0.995617	0.000118
1656	1.6467e+02	-14.0595	-41.887302	0.000111	1.114632	0.377648	0.000045
1657	1.6477e+02	-14.0194	-41.741965	0.000365	3.647888	1.235938	0.000146
1658	1.6487e+02	-13.9841	-41.669297	0.000182	1.823944	0.617969	0.000073
1659	1.6497e+02	-13.9424	-41.612777	0.000142	1.418623	0.480643	0.000057
1660	1.6507e+02	-13.8927	-41.495700	0.000294	2.938577	0.995617	0.000118
1661	1.6517e+02	-13.8670	-41.390734	0.000263	2.634586	0.892622	0.000105
1662	1.6527e+02	-13.8269	-41.281731	0.000274	2.735916	0.926953	0.000110
1663	1.6537e+02	-13.7755	-41.209063	0.000182	1.823944	0.617969	0.000073
1664	1.6547e+02	-13.7419	-41.120246	0.000223	2.229265	0.755295	0.000089
1665	1.6557e+02	-13.7082	-41.019318	0.000253	2.533256	0.858290	0.000101
1666	1.6567e+02	-13.6649	-40.970872	0.000122	1.215963	0.411979	0.000049
1667	1.6577e+02	-13.6231	-40.849758	0.000304	3.039907	1.029948	0.000122
1668	1.6587e+02	-13.5830	-40.769015	0.000203	2.026605	0.686632	0.000081
1669	1.6597e+02	-13.5429	-40.704421	0.000162	1.621284	0.549306	0.000065
1670	1.6607e+02	-13.5092	-40.611567	0.000233	2.330595	0.789627	0.000093
1671	1.6616e+02	-13.4611	-40.498527	0.000284	2.837246	0.961285	0.000114
1672	1.6626e+02	-13.4146	-40.417784	0.000203	2.026605	0.686632	0.000081
1673	1.6636e+02	-13.3873	-40.333005	0.000213	2.127935	0.720964	0.000085
1674	1.6646e+02	-13.3440	-40.236113	0.000243	2.431925	0.823959	0.000097
1675	1.6656e+02	-13.3039	-40.147296	0.000223	2.229265	0.755295	0.000089
1676	1.6666e+02	-13.2654	-40.026182	0.000304	3.039907	1.029948	0.000122
1677	1.6676e+02	-13.2333	-39.961588	0.000162	1.621284	0.549306	0.000065
1678	1.6686e+02	-13.1916	-39.836437	0.000314	3.141237	1.064280	0.000126
1679	1.6696e+02	-13.1435	-39.779917	0.000142	1.418623	0.480643	0.000057
1680	1.6706e+02	-13.1066	-39.703211	0.000193	1.925274	0.652301	0.000077
1681	1.6716e+02	-13.0729	-39.582097	0.000304	3.039907	1.029948	0.000122
1682	1.6726e+02	-13.0248	-39.497317	0.000213	2.127935	0.720964	0.000085
1683	1.6736e+02	-12.9831	-39.428686	0.000172	1.722614	0.583637	0.000069
1684	1.6746e+02	-12.9397	-39.315646	0.000284	2.837246	0.961285	0.000114
1685	1.6756e+02	-12.9093	-39.242978	0.000182	1.823944	0.617969	0.000073
1686	1.6766e+02	-12.8627	-39.138012	0.000263	2.634586	0.892622	0.000105
1687	1.6776e+02	-12.8194	-39.029010	0.000274	2.735916	0.926953	0.000110
1688	1.6786e+02	-12.7857	-38.984601	0.000111	1.114632	0.377648	0.000045
1689	1.6796e+02	-12.7504	-38.847339	0.000345	3.445228	1.167275	0.000138
1690	1.6806e+02	-12.7103	-38.778707	0.000172	1.722614	0.583637	0.000069
1691	1.6816e+02	-12.6750	-38.673742	0.000263	2.634586	0.892622	0.000105
1692	1.6825e+02	-12.6317	-38.568776	0.000263	2.634586	0.892622	0.000105
1693	1.6835e+02	-12.5900	-38.508219	0.000152	1.519953	0.514974	0.000061
1694	1.6845e+02	-12.5499	-38.435551	0.000182	1.823944	0.617969	0.000073
1695	1.6855e+02	-12.5178	-38.306362	0.000324	3.242567	1.098612	0.000130
1696	1.6865e+02	-12.4713	-38.265991	0.000101	1.013302	0.343316	0.000041
1697	1.6875e+02	-12.4280	-38.072209	0.000486	4.863851	1.647917	0.000195
1698	1.6885e+02	-12.3959	-38.035874	0.000091	0.911972	0.308984	0.000037
1699	1.6895e+02	-12.3510	-37.910723	0.000314	3.141237	1.064280	0.000126
1700	1.6905e+02	-12.3125	-37.846129	0.000162	1.621284	0.549306	0.000065
1701	1.6915e+02	-12.2676	-37.769423	0.000193	1.925274	0.652301	0.000077
1702	1.6925e+02	-12.2339	-37.656384	0.000284	2.837246	0.961285	0.000114
1703	1.6935e+02	-12.1938	-37.547381	0.000274	2.735916	0.926953	0.000110
1704	1.6945e+02	-12.1553	-37.458564	0.000223	2.229265	0.755295	0.000089
1705	1.6955e+02	-12.1104	-37.357636	0.000253	2.533256	0.858290	0.000101
1706	1.6965e+02	-12.0702	-37.284967	0.000182	1.823944	0.617969	0.000073
1707	1.6975e+02	-12.0334	-37.184039	0.000253	2.533256	0.858290	0.000101
1708	1.6985e+02	-11.9836	-37.091185	0.000233	2.330595	0.789627	0.000093
1709	1.6995e+02	-11.9547	-36.998330	0.000233	2.330595	0.789627	0.000093
1710	1.7005e+02	-11.9162	-36.873179	0.000314	3.141237	1.064280	0.000126
1711	1.7015e+02	-11.8729	-36.776288	0.000243	2.431925	0.823959	0.000097
1712	1.7024e+02	-11.8248	-36.703620	0.000182	1.823944	0.617969	0.000073
1713	1.7034e+02	-11.7863	-36.578468	0.000314	3.141237	1.064280	0.000126
1714	1.7044e+02	-11.7542	-36.473503	0.000263	2.634586	0.892622	0.000105
1715	1.7054e+02	-11.7189	-36.400834	0.000182	1.823944	0.617969	0.000073
1716	1.7064e+02	-11.6740	-36.336240	0.000162	1.621284	0.549306	0.000065
1717	1.7074e+02	-11.6339	-36.203015	0.000334	3.343897	1.132943	0.000134
1718	1.7084e+02	-11.5922	-36.106123	0.000243	2.431925	0.823959	0.000097
1719	1.7094e+02	-11.5569	-36.057678	0.000122	1.215963	0.411979	0.000049
1720	1.7104e+02	-11.5152	-35.916378	0.000355	3.546558	1.201606	0.000142
1721	1.7114e+02	-11.4783	-35.835635	0.000203	2.026605	0.686632	0.000081
1722	1.7124e+02	-11.4398	-35.783153	0.000132	1.317293	0.446311	0.000053
1723	1.7134e+02	-11.3917	-35.645890	0.000345	3.445228	1.167275	0.000138
1724	1.7144e+02	-11.3564	-35.544962	0.000253	2.533256	0.858290	0.000101
1725	1.7154e+02	-11.3147	-35.431922	0.000284	2.837246	0.961285	0.000114
1726	1.7164e+02	-11.2745	-35.391550	0.000101	1.013302	0.343316	0.000041
1727	1.7174e+02	-11.2377	-35.290622	0.000253	2.533256	0.858290	0.000101
1728	1.7184e+02	-11.1911	-35.189694	0.000253	2.533256	0.858290	0.000101
1729	1.7194e+02	-11.1574	-35.112988	0.000193	1.925274	0.652301	0.000077
1730	1.7204e+02	-11.1125	-34.999948	0.000284	2.837246	0.961285	0.000114
1731	1.7213e+02	-11.0772	-34.862686	0.000345	3.445228	1.167275	0.000138
1732	1.7223e+02	-11.0323	-34.810203	0.000132	1.317293	0.446311	0.000053
1733	1.7233e+02	-10.9954	-34.713312	0.000243	2.431925	0.823959	0.000097
1734	1.7243e+02	-10.9537	-34.608346	0.000263	2.634586	0.892622	0.000105
1735	1.7253e+02	-10.9104	-34.515492	0.000233	2.330595	0.789627	0.000093
1736	1.7263e+02	-10.8815	-34.398415	0.000294	2.938577	0.995617	0.000118
1737	1.7273e+02	-10.8414	-34.317672	0.000203	2.026605	0.686632	0.000081
1738	1.7283e+02	-10.7933	-34.249041	0.000172	1.722614	0.583637	0.000069
1739	1.7293e+02	-10.7500	-34.119853	0.000324	3.242567	1.098612	0.000130
1740	1.7303e+02	-10.7131	-34.035073	0.000213	2.127935	0.720964	0.000085
1741	1.7313e+02	-10.6842	-33.962404	0.000182	1.823944	0.617969	0.000073
1742	1.7323e+02	-10.6313	-33.845327	0.000294	2.938577	0.995617	0.000118
1743	1.7333e+02	-10.5960	-33.736325	0.000274	2.735916	0.926953	0.000110
1744	1.7343e+02	-10.5526	-33.599062	0.000345	3.445228	1.167275	0.000138
1745	1.7353e+02	-10.5174	-33.514282	0.000213	2.127935	0.720964	0.000085
1746	1.7363e+02	-10.4772	-33.417391	0.000243	2.431925	0.823959	0.000097
1747	1.7373e+02	-10.4387	-33.320500	0.000243	2.431925	0.823959	0.000097
1748	1.7383e+02	-10.3970	-33.215534	0.000263	2.634586	0.892622	0.000105
1749	1.7393e+02	-10.3521	-33.159014	0.000142	1.418623	0.480643	0.000057
1750	1.7403e+02	-10.3281	-33.037900	0.000304	3.039907	1.029948	0.000122
1751	1.7413e+02	-10.2751	-32.936972	0.000253	2.533256	0.858290	0.000101
1752	1.7422e+02	-10.2382	-32.827969	0.000274	2.735916	0.926953	0.000110
1753	1.7432e+02	-10.2013	-32.714929	0.000284	2.837246	0.961285	0.000114
1754	1.7442e+02	-10.1660	-32.642261	0.000182	1.823944	0.617969	0.000073
1755	1.7452e+02	-10.1163	-32.513073	0.000324	3.242567	1.098612	0.000130
1756	1.7462e+02	-10.0730	-32.432330	0.000203	2.026605	0.686632	0.000081
1757	1.7472e+02	-10.0489	-32.286993	0.000365	3.647888	1.235938	0.000146
1758	1.7482e+02	-9.9992	-32.230473	0.000142	1.418623	0.480643	0.000057
1759	1.7492e+02	-9.9559	-32.121470	0.000274	2.735916	0.926953	0.000110
1760	1.7502e+02	-9.9270	-32.008431	0.000284	2.837246	0.961285	0.000114
1761	1.7512e+02	-9.8789	-31.899428	0.000274	2.735916	0.926953	0.000110
1762	1.7522e+02	-9.8404	-31.818685	0.000203	2.026605	0.686632	0.000081
1763	1.7532e+02	-9.8083	-31.750054	0.000172	1.722614	0.583637	0.000069
1764	1.7542e+02	-9.7585	-31.584531	0.000415	4.154539	1.407596	0.000166
1765	1.7552e+02	-9.7249	-31.491677	0.000233	2.330595	0.789627	0.000093
1766	1.7562e+02	-9.6815	-31.398823	0.000233	2.330595	0.789627	0.000093
1767	1.7572e+02	-9.6334	-31.330192	0.000172	1.722614	0.583637	0.000069
1768	1.7582e+02	-9.5981	-31.249449	0.000203	2.026605	0.686632	0.000081
1769	1.7592e+02	-9.5612	-31.087964	0.000405	4.053209	1.373264	0.000162
1770	1.7602e+02	-9.5195	-31.011258	0.000193	1.925274	0.652301	0.000077
1771	1.7612e+02	-9.4826	-30.954738	0.000142	1.418623	0.480643	0.000057
1772	1.7621e+02	-9.4393	-30.841698	0.000284	2.837246	0.961285	0.000114
1773	1.7631e+02	-9.4040	-30.704436	0.000345	3.445228	1.167275	0.000138
1774	1.7641e+02	-9.3607	-30.615619	0.000223	2.229265	0.755295	0.000089
1775	1.7651e+02	-9.3158	-30.522765	0.000233	2.330595	0.789627	0.000093
1776	1.7661e+02	-9.2837	-30.409725	0.000284	2.837246	0.961285	0.000114
1777	1.7671e+02	-9.2500	-30.260351	0.000375	3.749218	1.270270	0.000150
1778	1.7681e+02	-9.2115	-30.195757	0.000162	1.621284	0.549306	0.000065
1779	1.7691e+02	-9.1521	-30.119051	0.000193	1.925274	0.652301	0.000077
1780	1.7701e+02	-9.1265	-30.001974	0.000294	2.938577	0.995617	0.000118
1781	1.7711e+02	-9.0880	-29.884897	0.000294	2.938577	0.995617	0.000118
1782	1.7721e+02	-9.0463	-29.779932	0.000263	2.634586	0.892622	0.000105
1783	1.7731e+02	-8.9997	-29.687078	0.000233	2.330595	0.789627	0.000093
1784	1.7741e+02	-8.9612	-29.590186	0.000243	2.431925	0.823959	0.000097
1785	1.7751e+02	-8.9276	-29.473109	0.000294	2.938577	0.995617	0.000118
1786	1.7761e+02	-8.8810	-29.384292	0.000223	2.229265	0.755295	0.000089
1787	1.7771e+02	-8.8409	-29.287401	0.000243	2.431925	0.823959	0.000097
1788	1.7781e+02	-8.7992	-29.158213	0.000324	3.242567	1.098612	0.000130
1789	1.7791e+02	-8.7591	-29.049210	0.000274	2.735916	0.926953	0.000110
1790	1.7801e+02	-8.7222	-28.972505	0.000193	1.925274	0.652301	0.000077
1791	1.7810e+02	-8.6837	-28.867539	0.000263	2.634586	0.892622	0.000105
1792	1.7820e+02	-8.6372	-28.774685	0.000233	2.330595	0.789627	0.000093
1793	1.7830e+02	-8.6035	-28.657608	0.000294	2.938577	0.995617	0.000118
1794	1.7840e+02	-8.5602	-28.564754	0.000233	2.330595	0.789627	0.000093
1795	1.7850e+02	-8.5137	-28.455751	0.000274	2.735916	0.926953	0.000110
1796	1.7860e+02	-8.4848	-28.358860	0.000243	2.431925	0.823959	0.000097
1797	1.7870e+02	-8.4527	-28.249857	0.000274	2.735916	0.926953	0.000110
1798	1.7880e+02	-8.4094	-28.157003	0.000233	2.330595	0.789627	0.000093
1799	1.7890e+02	-8.3629	-28.060112	0.000243	2.431925	0.823959	0.000097
1800	1.7900e+02	-8.3292	-27.995518	0.000162	1.621284	0.549306	0.000065
1801	1.7910e+02	-8.2843	-27.842107	0.000385	3.850549	1.304601	0.000154
1802	1.7920e+02	-8.2442	-27.720993	0.000304	3.039907	1.029948	0.000122
1803	1.7930e+02	-8.2057	-27.644287	0.000193	1.925274	0.652301	0.000077
1804	1.7940e+02	-8.1671	-27.531247	0.000284	2.837246	0.961285	0.000114
1805	1.7950e+02	-8.1238	-27.434356	0.000243	2.431925	0.823959	0.000097
1806	1.7960e+02	-8.0805	-27.345539	0.000223	2.229265	0.755295	0.000089
1807	1.7970e+02	-8.0468	-27.236536	0.000274	2.735916	0.926953	0.000110
1808	1.7980e+02	-8.0067	-27.107348	0.000324	3.242567	1.098612	0.000130
1809	1.7990e+02	-7.9586	-26.998345	0.000274	2.735916	0.926953	0.000110
1810	1.8000e+02	-7.9233	-26.905491	0.000233	2.330595	0.789627	0.000093
1811	1.8009e+02	-7.8848	-26.820711	0.000213	2.127935	0.720964	0.000085
1812	1.8019e+02	-7.8495	-26.699597	0.000304	3.039907	1.029948	0.000122
1813	1.8029e+02	-7.8190	-26.570409	0.000324	3.242567	1.098612	0.000130
1814	1.8039e+02	-7.7677	-26.517926	0.000132	1.317293	0.446311	0.000053
1815	1.8049e+02	-7.7276	-26.384701	0.000334	3.343897	1.132943	0.000134
1816	1.8059e+02	-7.6875	-26.267624	0.000294	2.938577	0.995617	0.000118
1817	1.8069e+02	-7.6458	-26.194955	0.000182	1.823944	0.617969	0.000073
1818	1.8079e+02	-7.6025	-26.049618	0.000365	3.647888	1.235938	0.000146
1819	1.8089e+02	-7.5688	-25.956764	0.000233	2.330595	0.789627	0.000093
1820	1.8099e+02	-7.5271	-25.871984	0.000213	2.127935	0.720964	0.000085
1821	1.8109e+02	-7.4870	-25.722610	0.000375	3.749218	1.270270	0.000150
1822	1.8119e+02	-7.4468	-25.637831	0.000213	2.127935	0.720964	0.000085
1823	1.8129e+02	-7.4035	-25.524791	0.000284	2.837246	0.961285	0.000114
1824	1.8139e+02	-7.3682	-25.383491	0.000355	3.546558	1.201606	0.000142
1825	1.8149e+02	-7.3329	-25.286600	0.000243	2.431925	0.823959	0.000097
1826	1.8159e+02	-7.2880	-25.234117	0.000132	1.317293	0.446311	0.000053
1827	1.8169e+02	-7.2511	-25.088780	0.000365	3.647888	1.235938	0.000146
1828	1.8179e+02	-7.2014	-25.024186	0.000162	1.621284	0.549306	0.000065
1829	1.8189e+02	-7.1741	-24.927295	0.000243	2.431925	0.823959	0.000097
1830	1.8199e+02	-7.1244	-24.810218	0.000294	2.938577	0.995617	0.000118
1831	1.8209e+02	-7.0859	-24.721401	0.000223	2.229265	0.755295	0.000089
1832	1.8218e+02	-7.0426	-24.604324	0.000294	2.938577	0.995617	0.000118
1833	1.8228e+02	-7.0009	-24.499358	0.000263	2.634586	0.892622	0.000105
1834	1.8238e+02	-6.9704	-24.366133	0.000334	3.343897	1.132943	0.000134
1835	1.8248e+02	-6.9239	-24.285390	0.000203	2.026605	0.686632	0.000081
1836	1.8258e+02	-6.8854	-24.160239	0.000314	3.141237	1.064280	0.000126
1837	1.8268e+02	-6.8469	-24.071422	0.000223	2.229265	0.755295	0.000089
1838	1.8278e+02	-6.8036	-23.982605	0.000223	2.229265	0.755295	0.000089
1839	1.8288e+02	-6.7586	-23.857454	0.000314	3.141237	1.064280	0.000126
1840	1.8298e+02	-6.7298	-23.756525	0.000253	2.533256	0.858290	0.000101
1841	1.8308e+02	-6.6864	-23.651560	0.000263	2.634586	0.892622	0.000105
1842	1.8318e+02	-6.6608	-23.550631	0.000253	2.533256	0.858290	0.000101
1843	1.8328e+02	-6.6094	-23.457777	0.000233	2.330595	0.789627	0.000093
1844	1.8338e+02	-6.5677	-23.328589	0.000324	3.242567	1.098612	0.000130
1845	1.8348e+02	-6.5308	-23.235735	0.000233	2.330595	0.789627	0.000093
1846	1.8358e+02	-6.4891	-23.126732	0.000274	2.735916	0.926953	0.000110
1847	1.8368e+02	-6.4490	-23.021767	0.000263	2.634586	0.892622	0.000105
1848	1.8378e+02	-6.4185	-22.949098	0.000182	1.823944	0.617969	0.000073
1849	1.8388e+02	-6.3720	-22.823947	0.000314	3.141237	1.064280	0.000126
1850	1.8398e+02	-6.3303	-22.739167	0.000213	2.127935	0.720964	0.000085
1851	1.8407e+02	-6.2950	-22.601904	0.000345	3.445228	1.167275	0.000138
1852	1.8417e+02	-6.2613	-22.549422	0.000132	1.317293	0.446311	0.000053
1853	1.8427e+02	-6.2212	-22.396011	0.000385	3.850549	1.304601	0.000154
1854	1.8437e+02	-6.1779	-22.303156	0.000233	2.330595	0.789627	0.000093
1855	1.8447e+02	-6.1298	-22.186079	0.000294	2.938577	0.995617	0.000118
1856	1.8457e+02	-6.0977	-22.060928	0.000314	3.141237	1.064280	0.000126
1857	1.8467e+02	-6.0560	-21.964037	0.000243	2.431925	0.823959	0.000097
1858	1.8477e+02	-6.0223	-21.899443	0.000162	1.621284	0.549306	0.000065
1859	1.8487e+02	-5.9774	-21.790440	0.000274	2.735916	0.926953	0.000110
1860	1.8497e+02	-5.9357	-21.669326	0.000304	3.039907	1.029948	0.000122
1861	1.8507e+02	-5.8940	-21.560323	0.000274	2.735916	0.926953	0.000110
1862	1.8517e+02	-5.8635	-21.423061	0.000345	3.445228	1.167275	0.000138
1863	1.8527e+02	-5.8089	-21.346355	0.000193	1.925274	0.652301	0.000077
1864	1.8537e+02	-5.7768	-21.257538	0.000223	2.229265	0.755295	0.000089
1865	1.8547e+02	-5.7319	-21.100090	0.000395	3.951879	1.338933	0.000158
1866	1.8557e+02	-5.6982	-21.011273	0.000223	2.229265	0.755295	0.000089
1867	1.8567e+02	-5.6501	-20.910345	0.000253	2.533256	0.858290	0.000101
1868	1.8577e+02	-5.6100	-20.793268	0.000294	2.938577	0.995617	0.000118
1869	1.8587e+02	-5.5731	-20.700413	0.000233	2.330595	0.789627	0.000093
1870	1.8597e+02	-5.5362	-20.563151	0.000345	3.445228	1.167275	0.000138
1871	1.8606e+02	-5.4993	-20.486445	0.000193	1.925274	0.652301	0.000077
1872	1.8616e+02	-5.4544	-20.357257	0.000324	3.242567	1.098612	0.000130
1873	1.8626e+02	-5.4255	-20.240180	0.000294	2.938577	0.995617	0.000118
1874	1.8636e+02	-5.3806	-20.139252	0.000253	2.533256	0.858290	0.000101
1875	1.8646e+02	-5.3373	-20.054472	0.000213	2.127935	0.720964	0.000085
1876	1.8656e+02	-5.3004	-19.941432	0.000284	2.837246	0.961285	0.000114
1877	1.8666e+02	-5.2683	-19.836466	0.000263	2.634586	0.892622	0.000105
1878	1.8676e+02	-5.2218	-19.695167	0.000355	3.546558	1.201606	0.000142
1879	1.8686e+02	-5.1769	-19.606350	0.000223	2.229265	0.755295	0.000089
1880	1.8696e+02	-5.1368	-19.509458	0.000243	2.431925	0.823959	0.000097
1881	1.8706e+02	-5.1015	-19.396419	0.000284	2.837246	0.961285	0.000114
1882	1.8716e+02	-5.0662	-19.291453	0.000263	2.634586	0.892622	0.000105
1883	1.8726e+02	-5.0229	-19.146116	0.000365	3.647888	1.235938	0.000146
1884	1.8736e+02	-4.9811	-19.065374	0.000203	2.026605	0.686632	0.000081
1885	1.8746e+02	-4.9394	-18.940222	0.000314	3.141237	1.064280	0.000126
1886	1.8756e+02	-4.8993	-18.811034	0.000324	3.242567	1.098612	0.000130
1887	1.8766e+02	-4.8656	-18.730291	0.000203	2.026605	0.686632	0.000081
1888	1.8776e+02	-4.8287	-18.609177	0.000304	3.039907	1.029948	0.000122
1889	1.8786e+02	-4.7806	-18.528434	0.000203	2.026605	0.686632	0.000081
1890	1.8796e+02	-4.7437	-18.411358	0.000294	2.938577	0.995617	0.000118
1891	1.8806e+02	-4.6956	-18.278132	0.000334	3.343897	1.132943	0.000134
1892	1.8815e+02	-4.6571	-18.185278	0.000233	2.330595	0.789627	0.000093
1893	1.8825e+02	-4.6218	-18.068201	0.000294	2.938577	0.995617	0.000118
1894	1.8835e+02	-4.5897	-17.926901	0.000355	3.546558	1.201606	0.000142
1895	1.8845e+02	-4.5432	-17.838084	0.000223	2.229265	0.755295	0.000089
1896	1.8855e+02	-4.5047	-17.781564	0.000142	1.418623	0.480643	0.000057
1897	1.8865e+02	-4.4534	-17.632190	0.000375	3.749218	1.270270	0.000150
1898	1.8875e+02	-4.4293	-17.515113	0.000294	2.938577	0.995617	0.000118
1899	1.8885e+02	-4.3715	-17.406111	0.000274	2.735916	0.926953	0.000110
1900	1.8895e+02	-4.3427	-17.325368	0.000203	2.026605	0.686632	0.000081
1901	1.8905e+02	-4.3090	-17.167920	0.000395	3.951879	1.338933	0.000158
1902	1.8915e+02	-4.2641	-17.079103	0.000223	2.229265	0.755295	0.000089
1903	1.8925e+02	-4.2239	-16.966063	0.000284	2.837246	0.961285	0.000114
1904	1.8935e+02	-4.1710	-16.881283	0.000213	2.127935	0.720964	0.000085
1905	1.8945e+02	-4.1502	-16.772280	0.000274	2.735916	0.926953	0.000110
1906	1.8955e+02	-4.1004	-16.630981	0.000355	3.546558	1.201606	0.000142
1907	1.8965e+02	-4.0699	-16.513904	0.000294	2.938577	0.995617	0.000118
1908	1.8975e+02	-4.0250	-16.421050	0.000233	2.330595	0.789627	0.000093
1909	1.8985e+02	-3.9833	-16.344344	0.000193	1.925274	0.652301	0.000077
1910	1.8995e+02	-3.9480	-16.203044	0.000355	3.546558	1.201606	0.000142
1911	1.9004e+02	-3.9047	-16.098079	0.000263	2.634586	0.892622	0.000105
1912	1.9014e+02	-3.8630	-15.972928	0.000314	3.141237	1.064280	0.000126
1913	1.9024e+02	-3.8293	-15.867962	0.000263	2.634586	0.892622	0.000105
1914	1.9034e+02	-3.7860	-15.718588	0.000375	3.749218	1.270270	0.000150
1915	1.9044e+02	-3.7427	-15.617660	0.000253	2.533256	0.858290	0.000101
1916	1.9054e+02	-3.6978	-15.496546	0.000304	3.039907	1.029948	0.000122
1917	1.9064e+02	-3.6609	-15.391580	0.000263	2.634586	0.892622	0.000105
1918	1.9074e+02	-3.6304	-15.286614	0.000263	2.634586	0.892622	0.000105
1919	1.9084e+02	-3.5823	-15.181649	0.000263	2.634586	0.892622	0.000105
1920	1.9094e+02	-3.5438	-15.056498	0.000314	3.141237	1.064280	0.000126
1921	1.9104e+02	-3.4940	-14.947495	0.000274	2.735916	0.926953	0.000110
1922	1.9114e+02	-3.4700	-14.834455	0.000284	2.837246	0.961285	0.000114
1923	1.9124e+02	-3.4250	-14.713341	0.000304	3.039907	1.029948	0.000122
1924	1.9134e+02	-3.3833	-14.600301	0.000284	2.837246	0.961285	0.000114
1925	1.9144e+02	-3.3480	-14.446890	0.000385	3.850549	1.304601	0.000154
1926	1.9154e+02	-3.3047	-14.349999	0.000243	2.431925	0.823959	0.000097
1927	1.9164e+02	-3.2678	-14.228885	0.000304	3.039907	1.029948	0.000122
1928	1.9174e+02	-3.2293	-14.131994	0.000243	2.431925	0.823959	0.000097
1929	1.9184e+02	-3.1796	-14.018954	0.000284	2.837246	0.961285	0.000114
1930	1.9194e+02	-3.1539	-13.909951	0.000274	2.735916	0.926953	0.000110
1931	1.9203e+02	-3.1090	-13.760577	0.000375	3.749218	1.270270	0.000150
1932	1.9213e+02	-3.0721	-13.695983	0.000162	1.621284	0.549306	0.000065
1933	1.9223e+02	-3.0320	-13.603129	0.000233	2.330595	0.789627	0.000093
1934	1.9233e+02	-2.9807	-13.457792	0.000365	3.647888	1.235938	0.000146
1935	1.9243e+02	-2.9486	-13.340715	0.000294	2.938577	0.995617	0.000118
1936	1.9253e+02	-2.9069	-13.215564	0.000314	3.141237	1.064280	0.000126
1937	1.9263e+02	-2.8571	-13.090413	0.000314	3.141237	1.064280	0.000126
1938	1.9273e+02	-2.8331	-13.009670	0.000203	2.026605	0.686632	0.000081
1939	1.9283e+02	-2.7882	-12.896630	0.000284	2.837246	0.961285	0.000114
1940	1.9293e+02	-2.7432	-12.718996	0.000446	4.458530	1.510591	0.000179
1941	1.9303e+02	-2.7176	-12.670551	0.000122	1.215963	0.411979	0.000049
1942	1.9313e+02	-2.6662	-12.537325	0.000334	3.343897	1.132943	0.000134
1943	1.9323e+02	-2.6325	-12.408137	0.000324	3.242567	1.098612	0.000130
1944	1.9333e+02	-2.5860	-12.363728	0.000111	1.114632	0.377648	0.000045
1945	1.9343e+02	-2.5588	-12.190131	0.000436	4.357200	1.476259	0.000174
1946	1.9353e+02	-2.5154	-12.048832	0.000355	3.546558	1.201606	0.000142
1947	1.9363e+02	-2.4657	-11.939829	0.000274	2.735916	0.926953	0.000110
1948	1.9373e+02	-2.4272	-11.806603	0.000334	3.343897	1.132943	0.000134
1949	1.9383e+02	-2.3887	-11.746046	0.000152	1.519953	0.514974	0.000061
1950	1.9393e+02	-2.3486	-11.600710	0.000365	3.647888	1.235938	0.000146
1951	1.9403e+02	-2.3149	-11.479595	0.000304	3.039907	1.029948	0.000122
1952	1.9412e+02	-2.2668	-11.378667	0.000253	2.533256	0.858290	0.000101
1953	1.9422e+02	-2.2347	-11.265627	0.000284	2.837246	0.961285	0.000114
1954	1.9432e+02	-2.1994	-11.168736	0.000243	2.431925	0.823959	0.000097
1955	1.9442e+02	-2.1513	-11.043585	0.000314	3.141237	1.064280	0.000126
1956	1.9452e+02	-2.1064	-10.890174	0.000385	3.850549	1.304601	0.000154
1957	1.9462e+02	-2.0646	-10.809431	0.000203	2.026605	0.686632	0.000081
1958	1.9472e+02	-2.0358	-10.684280	0.000314	3.141237	1.064280	0.000126
1959	1.9482e+02	-1.9909	-10.567203	0.000294	2.938577	0.995617	0.000118
1960	1.9492e+02	-1.9475	-10.486460	0.000203	2.026605	0.686632	0.000081
1961	1.9502e+02	-1.9058	-10.333049	0.000385	3.850549	1.304601	0.000154
1962	1.9512e+02	-1.8737	-10.211935	0.000304	3.039907	1.029948	0.000122
1963	1.9522e+02	-1.8320	-10.123118	0.000223	2.229265	0.755295	0.000089
1964	1.9532e+02	-1.7967	-9.981818	0.000355	3.546558	1.201606	0.000142
1965	1.9542e+02	-1.7566	-9.897038	0.000213	2.127935	0.720964	0.000085
1966	1.9552e+02	-1.7197	-9.759776	0.000345	3.445228	1.167275	0.000138
1967	1.9562e+02	-1.6764	-9.634624	0.000314	3.141237	1.064280	0.000126
1968	1.9572e+02	-1.6235	-9.553882	0.000203	2.026605	0.686632	0.000081
1969	1.9582e+02	-1.5946	-9.461028	0.000233	2.330595	0.789627	0.000093
1970	1.9592e+02	-1.5545	-9.287431	0.000436	4.357200	1.476259	0.000174
1971	1.9601e+02	-1.5112	-9.178428	0.000274	2.735916	0.926953	0.000110
1972	1.9611e+02	-1.4663	-9.085574	0.000233	2.330595	0.789627	0.000093
1973	1.9621e+02	-1.4310	-8.932163	0.000385	3.850549	1.304601	0.000154
1974	1.9631e+02	-1.3877	-8.819123	0.000284	2.837246	0.961285	0.000114
1975	1.9641e+02	-1.3492	-8.685898	0.000334	3.343897	1.132943	0.000134
1976	1.9651e+02	-1.3187	-8.605155	0.000203	2.026605	0.686632	0.000081
1977	1.9661e+02	-1.2770	-8.451744	0.000385	3.850549	1.304601	0.000154
1978	1.9671e+02	-1.2385	-8.375038	0.000193	1.925274	0.652301	0.000077
1979	1.9681e+02	-1.1871	-8.233738	0.000355	3.546558	1.201606	0.000142
1980	1.9691e+02	-1.1534	-8.128773	0.000263	2.634586	0.892622	0.000105
1981	1.9701e+02	-1.1182	-8.011696	0.000294	2.938577	0.995617	0.000118
1982	1.9711e+02	-1.0732	-7.894619	0.000294	2.938577	0.995617	0.000118
1983	1.9721e+02	-1.0395	-7.773505	0.000304	3.039907	1.029948	0.000122
1984	1.9731e+02	-0.9930	-7.688725	0.000213	2.127935	0.720964	0.000085
1985	1.9741e+02	-0.9593	-7.563574	0.000314	3.141237	1.064280	0.000126
1986	1.9751e+02	-0.9128	-7.422274	0.000355	3.546558	1.201606	0.000142
1987	1.9761e+02	-0.8759	-7.321346	0.000253	2.533256	0.858290	0.000101
1988	1.9771e+02	-0.8406	-7.159860	0.000405	4.053209	1.373264	0.000162
1989	1.9781e+02	-0.7893	-7.067006	0.000233	2.330595	0.789627	0.000093
1990	1.9791e+02	-0.7492	-6.933781	0.000334	3.343897	1.132943	0.000134
1991	1.9800e+02	-0.7091	-6.853038	0.000203	2.026605	0.686632	0.000081
1992	1.9810e+02	-0.6754	-6.675404	0.000446	4.458530	1.510591	0.000179
1993	1.9820e+02	-0.6337	-6.610810	0.000162	1.621284	0.549306	0.000065
1994	1.9830e+02	-0.5952	-6.493733	0.000294	2.938577	0.995617	0.000118
1995	1.9840e+02	-0.5519	-6.364544	0.000324	3.242567	1.098612	0.000130
1996	1.9850e+02	-0.5182	-6.275728	0.000223	2.229265	0.755295	0.000089
1997	1.9860e+02	-0.4765	-6.199022	0.000193	1.925274	0.652301	0.000077
1998	1.9870e+02	-0.4428	-6.041574	0.000395	3.951879	1.338933	0.000158
1999	1.9880e+02	-0.3930	-5.920460	0.000304	3.039907	1.029948	0.000122
2000	1.9890e+02	-0.3593	-5.783197	0.000345	3.445228	1.167275	0.000138
2001	1.9900e+02	-0.3144	-5.666120	0.000294	2.938577	0.995617	0.000118
2002	1.9910e+02	-0.2759	-5.569229	0.000243	2.431925	0.823959	0.000097
2003	1.9920e+02	-0.2358	-5.431966	0.000345	3.445228	1.167275	0.000138
2004	1.9930e+02	-0.2069	-5.347186	0.000213	2.127935	0.720964	0.000085
2005	1.9940e+02	-0.1620	-5.201849	0.000365	3.647888	1.235938	0.000146
2006	1.9950e+02	-0.1267	-5.080735	0.000304	3.039907	1.029948	0.000122
2007	1.9960e+02	-0.0738	-4.991918	0.000223	2.229265	0.755295	0.000089
2008	1.9970e+02	-0.0465	-4.882916	0.000274	2.735916	0.926953	0.000110
2009	1.9980e+02	0.0080	-4.781987	0.000274	2.735916	0.926953	0.000101

PMax (uC/cm2):	5.69e+01
Pr (uC/cm2):	2.64e+00
-Pr (uC/cm2):	-1.69e+00
PLoss (uC/cm2):	-1.66e+00
-Vc:	-8.94e-01
C (Max-Eff) (nF):	2.85e-01
K (Eff):	9.64e+02
Vert. (+/-Pr) Shift (uC/cm2):	4.78e-01
Offset (uC/cm2):	3.09e+00

A (Loop Area - uC/cm2·Volts):	2.19e-02



Hysteresis Version: 5.48.1 - Radiant Technologies, Inc., 1999 - 9/12/24

