»»»»»»»»»»»»»»»»»»»»»»»»»»»»»»»»»»»» Hysteresis ««««««««««««««««««««««««««««««««««««
»»»  Executed Version:	5.48.1
»»»  Vision Version:	5.48.4 (R)
»»»  Vision Compiled:	9/18/24
»»»  Driver Version:	5.47.0
»»»  Windows Version:	Windows 8 or 8.1
»»»  Processor Information:	x86 (AMD or Intel) - 32 Processors
»»»  Tester Name:	PMF21124-494 (100V)
»»»  Tester S/N:	PMF21124-494
»»»  Internal Amp Type:	100V RevK 270k
»»»  Internal Amp S/N:	iAB2-596/K     
»»»  Execution Count:	1
»»»»»»»»»»»»»»»»»»»»»»»»»»»»»»»»»»»»»»»»»»««««««««««««««««««««««««««««««««««««««««««

Stored:	6/17/2025 - 11:23:10
Configured:	06/17/25 10:39:14 AM
Executed:	06/17/25 11:21:49 AM

»»»»»»»»»»»»»»»»»»»»»»»»»»»»»»»»»»» Sample Info ««««««««««««««««««««««««««««««««««««
Sample Name:	
Lot Name:	
Wafer Name:	
Die Row/Column:	0/0
Capacitor Number:	0
Sample Area (cm2):	1.00e-04
Sample Thickness (microns):	3.00e-01

Amplifier:	Internal

»»»»»»»»»»»»»»»»»»»»»»»»»»»»»»»»»»» Tester Info «««««««««««««««««««««««««««««««««««
Tester Name:	PMF21124-494 (100V)
Tester Serial Number:	PMF21124-494
Return Signal Amp. Level:	0.2 [Index: 1]

»»»»»»»»»»»»»»»»»»»»»»»»»»»»»»»» Hysteresis Info ««««««««««««««««««««««««««««««««««
Task Name:	Hyst-180
Volts:	20.00
Field:	666.67 (kV/cm)
DCBias:	0.00
DCField:	0.00 (kV/cm)
Hysteresis Period (ms):	1.00e-02
Preset:	Enabled
Preset Delay (ms):	1.00e+03
Profile:	Standard Bipolar

»»»»»»»»»»»»»»»»»»»»»»»»»»»»»»»»»»»»»» Data «««««««««««««««««««««««««««««««««««««««
Points:	101

Valid Data

Point	Time (ms)	Drive Voltage	Measured Polarization (uC/cm2)	Capacitance (uF)	Normalized Capacitance (uF/cm2)	Dielectric Constant	Instantaneous Current (mA)
   1	0.0000e+00	0.0898	-2.321047	0.000000	0.004610	0.001562	0.003641
   2	1.0000e-04	0.6385	-2.317406	0.000000	0.004610	0.001562	0.003641
   3	2.0000e-04	1.7149	-2.135363	0.000023	0.230480	0.078089	0.182043
   4	3.0000e-04	2.2475	2.481245	0.000584	5.844961	1.980326	4.616608
   5	4.0000e-04	3.0673	4.349005	0.000236	2.364720	0.801189	1.867760
   6	5.0000e-04	3.8566	6.380603	0.000257	2.572152	0.871469	2.031599
   7	6.0000e-04	4.6394	7.807819	0.000181	1.806960	0.612214	1.427216
   8	7.0000e-04	5.4544	10.425596	0.000331	3.314296	1.122914	2.617777
   9	8.0000e-04	6.3030	12.133158	0.000216	2.161898	0.732471	1.707562
  10	9.0000e-04	7.0699	14.372286	0.000283	2.834898	0.960490	2.239127
  11	1.0000e-03	7.8575	16.272813	0.000241	2.406206	0.815245	1.900528
  12	1.1000e-03	8.6324	17.638135	0.000173	1.728597	0.585664	1.365322
  13	1.2000e-03	9.4666	20.390624	0.000348	3.484851	1.180699	2.752488
  14	1.3000e-03	10.2655	22.021728	0.000207	2.065097	0.699674	1.631104
  15	1.4000e-03	11.0596	24.275419	0.000285	2.853337	0.966737	2.253691
  16	1.5000e-03	11.8441	25.986622	0.000217	2.166508	0.734033	1.711203
  17	1.6000e-03	12.6590	27.566754	0.000200	2.000562	0.677809	1.580132
  18	1.7000e-03	13.4836	30.308320	0.000347	3.471022	1.176014	2.741566
  19	1.8000e-03	14.2376	31.906656	0.000202	2.023610	0.685618	1.598337
  20	1.9000e-03	15.0621	33.992868	0.000264	2.641296	0.894895	2.086211
  21	2.0000e-03	15.8675	35.856987	0.000236	2.360110	0.799627	1.864119
  22	2.1000e-03	16.6407	37.280562	0.000180	1.802350	0.610653	1.423575
  23	2.2000e-03	17.4364	39.814599	0.000321	3.208275	1.086993	2.534037
  24	2.3000e-03	18.2546	41.332837	0.000192	1.922199	0.651259	1.518238
  25	2.4000e-03	19.0888	43.546478	0.000280	2.802631	0.949557	2.213641
  26	2.5000e-03	19.8187	45.243118	0.000215	2.148069	0.727786	1.696640
  27	2.6000e-03	19.5925	45.974931	-0.000093	-0.926528	-0.313916	0.731812
  28	2.7000e-03	18.3669	43.513711	0.000312	3.116083	1.055758	-2.461220
  29	2.8000e-03	17.7813	41.398372	0.000268	2.678172	0.907389	-2.115338
  30	2.9000e-03	17.0193	40.510003	0.000112	1.124740	0.381072	-0.888369
  31	3.0000e-03	16.1723	38.420151	0.000265	2.645905	0.896457	-2.089852
  32	3.1000e-03	15.4087	36.840019	0.000200	2.000562	0.677809	-1.580132
  33	3.2000e-03	14.5921	34.498947	0.000296	2.963967	1.004219	-2.341071
  34	3.3000e-03	13.8012	33.224647	0.000161	1.613357	0.546620	-1.274300
  35	3.4000e-03	12.9718	31.265865	0.000248	2.479960	0.840233	-1.958781
  36	3.5000e-03	12.2307	29.001252	0.000287	2.867165	0.971422	-2.264613
  37	3.6000e-03	11.4462	27.752438	0.000158	1.581090	0.535688	-1.248814
  38	3.7000e-03	10.5976	25.083689	0.000338	3.378830	1.144779	-2.668749
  39	3.8000e-03	9.7954	23.722008	0.000172	1.723987	0.584103	-1.361681
  40	3.9000e-03	9.0334	21.814199	0.000242	2.415426	0.818368	-1.907809
  41	4.0000e-03	8.2409	19.600557	0.000280	2.802631	0.949557	-2.213641
  42	4.1000e-03	7.4180	17.973094	0.000206	2.060487	0.698112	-1.627463
  43	4.2000e-03	6.5709	15.275218	0.000342	3.415707	1.157273	-2.697876
  44	4.3000e-03	5.8057	13.884411	0.000176	1.760864	0.596597	-1.390808
  45	4.4000e-03	5.0389	11.991165	0.000240	2.396987	0.812121	-1.893246
  46	4.5000e-03	4.2368	9.544508	0.000310	3.097645	1.049511	-2.446656
  47	4.6000e-03	3.3962	8.040834	0.000190	1.903761	0.645012	-1.503674
  48	4.7000e-03	2.6037	5.346600	0.000341	3.411097	1.155711	-2.694235
  49	4.8000e-03	1.8032	3.879334	0.000186	1.857665	0.629394	-1.467266
  50	4.9000e-03	0.9898	1.822249	0.000260	2.604419	0.882401	-2.057085
  51	5.0000e-03	0.1861	-0.547949	0.000300	3.000844	1.016713	-2.370198
  52	5.1000e-03	-0.5470	-2.022496	0.000187	1.866884	0.632518	-1.474547
  53	5.2000e-03	-1.3748	-4.534688	0.000318	3.180618	1.077622	-2.512192
  54	5.3000e-03	-2.2042	-6.125743	0.000201	2.014391	0.682494	-1.591055
  55	5.4000e-03	-2.9807	-8.171905	0.000259	2.590590	0.877716	-2.046162
  56	5.5000e-03	-3.8197	-10.487491	0.000293	2.931700	0.993287	-2.315585
  57	5.6000e-03	-4.5817	-11.896503	0.000178	1.783912	0.604406	-1.409012
  58	5.7000e-03	-5.3902	-14.459666	0.000325	3.245152	1.099487	-2.563164
  59	5.8000e-03	-6.1955	-15.883242	0.000180	1.802350	0.610653	-1.423575
  60	5.9000e-03	-7.0169	-17.791051	0.000242	2.415426	0.818368	-1.907809
  61	6.0000e-03	-7.7966	-20.062946	0.000288	2.876385	0.974546	-2.271895
  62	6.1000e-03	-8.5490	-21.333606	0.000161	1.608747	0.545058	-1.270659
  63	6.2000e-03	-9.4008	-23.820311	0.000315	3.148351	1.066690	-2.486706
  64	6.3000e-03	-10.1965	-25.218401	0.000177	1.770083	0.599720	-1.398089
  65	6.4000e-03	-11.0098	-27.067957	0.000234	2.341672	0.793380	-1.849556
  66	6.5000e-03	-11.7783	-29.103196	0.000258	2.576761	0.873030	-2.035239
  67	6.6000e-03	-12.5820	-30.406623	0.000165	1.650234	0.559114	-1.303427
  68	6.7000e-03	-13.4403	-32.638469	0.000283	2.825679	0.957366	-2.231846
  69	6.8000e-03	-14.1975	-33.941896	0.000165	1.650234	0.559114	-1.303427
  70	6.9000e-03	-15.0140	-35.431007	0.000189	1.885323	0.638765	-1.489111
  71	7.0000e-03	-15.8065	-37.535422	0.000266	2.664343	0.902704	-2.104416
  72	7.1000e-03	-16.5990	-38.729624	0.000151	1.511946	0.512261	-1.194201
  73	7.2000e-03	-17.4043	-40.750300	0.000256	2.558323	0.866783	-2.020676
  74	7.3000e-03	-18.2193	-41.955424	0.000153	1.525775	0.516946	-1.205124
  75	7.4000e-03	-19.0086	-43.590169	0.000207	2.069706	0.701235	-1.634745
  76	7.5000e-03	-19.7994	-45.392393	0.000228	2.281747	0.773077	-1.802225
  77	7.6000e-03	-19.4834	-45.974931	-0.000074	-0.737535	-0.249883	-0.582537
  78	7.7000e-03	-18.3284	-43.277055	0.000342	3.415707	1.157273	2.697876
  79	7.8000e-03	-17.7300	-41.576774	0.000215	2.152679	0.729347	1.700281
  80	7.9000e-03	-16.8846	-40.906857	0.000085	0.848165	0.287366	0.669918
  81	8.0000e-03	-16.0953	-39.253907	0.000209	2.092754	0.709044	1.652949
  82	8.1000e-03	-15.3252	-37.968684	0.000163	1.627186	0.551305	1.285223
  83	8.2000e-03	-14.5167	-36.017185	0.000247	2.470741	0.837110	1.951500
  84	8.3000e-03	-13.7306	-34.513511	0.000190	1.903761	0.645012	1.503674
  85	8.4000e-03	-12.9044	-32.762258	0.000222	2.217213	0.751212	1.751253
  86	8.5000e-03	-12.1505	-31.367809	0.000177	1.765473	0.598159	1.394448
  87	8.6000e-03	-11.3548	-30.104432	0.000160	1.599528	0.541935	1.263378
  88	8.7000e-03	-10.5125	-27.839818	0.000287	2.867165	0.971422	2.264613
  89	8.8000e-03	-9.7329	-26.088566	0.000222	2.217213	0.751212	1.751253
  90	8.9000e-03	-8.9388	-24.344595	0.000221	2.207994	0.748089	1.743971
  91	9.0000e-03	-8.1367	-22.779026	0.000198	1.982124	0.671562	1.565569
  92	9.1000e-03	-7.3233	-21.453754	0.000168	1.677891	0.568485	1.325272
  93	9.2000e-03	-6.5148	-19.065351	0.000302	3.023892	1.024522	2.388403
  94	9.3000e-03	-5.7496	-17.274049	0.000227	2.267919	0.768392	1.791302
  95	9.4000e-03	-4.9154	-15.409930	0.000236	2.360110	0.799627	1.864119
  96	9.5000e-03	-4.1373	-13.716931	0.000214	2.143460	0.726224	1.692999
  97	9.6000e-03	-3.3240	-12.235102	0.000188	1.876103	0.635641	1.481829
  98	9.7000e-03	-2.5427	-9.719270	0.000319	3.185227	1.079184	2.515833
  99	9.8000e-03	-1.7310	-7.753206	0.000249	2.489179	0.843357	1.966063
 100	9.9000e-03	-0.9401	-5.761657	0.000252	2.521446	0.854289	1.991549
 101	1.0000e-02	-0.1620	-4.050454	0.000252	2.521446	0.854289	1.711203

PMax (uC/cm2):	4.76e+01
Pr (uC/cm2):	1.41e+00
-Pr (uC/cm2):	-1.72e+00
PLoss (uC/cm2):	-1.73e+00
-Vc:	-6.49e-01
C (Max-Eff) (nF):	2.40e-01
K (Eff):	8.13e+02
Vert. (+/-Pr) Shift (uC/cm2):	-1.54e-01
Offset (uC/cm2):	2.33e+00

A (Loop Area - uC/cm2·Volts):	1.52e+00



Hysteresis Version: 5.48.1 - Radiant Technologies, Inc., 1999 - 9/12/24

