»»»»»»»»»»»»»»»»»»»»»»»»»»»»»»»»»»»» Hysteresis ««««««««««««««««««««««««««««««««««««
»»»  Executed Version:	5.48.1
»»»  Vision Version:	5.48.4 (R)
»»»  Vision Compiled:	9/18/24
»»»  Driver Version:	5.47.0
»»»  Windows Version:	Windows 8 or 8.1
»»»  Processor Information:	x86 (AMD or Intel) - 32 Processors
»»»  Tester Name:	PMF21124-494 (100V)
»»»  Tester S/N:	PMF21124-494
»»»  Internal Amp Type:	100V RevK 270k
»»»  Internal Amp S/N:	iAB2-596/K     
»»»  Execution Count:	1
»»»»»»»»»»»»»»»»»»»»»»»»»»»»»»»»»»»»»»»»»»««««««««««««««««««««««««««««««««««««««««««

Stored:	6/17/2025 - 11:59:32
Configured:	06/17/25 10:39:14 AM
Executed:	06/17/25 11:58:58 AM

»»»»»»»»»»»»»»»»»»»»»»»»»»»»»»»»»»» Sample Info ««««««««««««««««««««««««««««««««««««
Sample Name:	
Lot Name:	
Wafer Name:	
Die Row/Column:	0/0
Capacitor Number:	0
Sample Area (cm2):	1.00e-04
Sample Thickness (microns):	3.00e-01

Amplifier:	Internal

»»»»»»»»»»»»»»»»»»»»»»»»»»»»»»»»»»» Tester Info «««««««««««««««««««««««««««««««««««
Tester Name:	PMF21124-494 (100V)
Tester Serial Number:	PMF21124-494
Return Signal Amp. Level:	0.19 [Index: 3]

»»»»»»»»»»»»»»»»»»»»»»»»»»»»»»»» Hysteresis Info ««««««««««««««««««««««««««««««««««
Task Name:	Hyst-180
Volts:	20.00
Field:	666.67 (kV/cm)
DCBias:	0.00
DCField:	0.00 (kV/cm)
Hysteresis Period (ms):	2.00e+02
Preset:	Enabled
Preset Delay (ms):	1.00e+03
Profile:	Standard Bipolar

»»»»»»»»»»»»»»»»»»»»»»»»»»»»»»»»»»»»»» Data «««««««««««««««««««««««««««««««««««««««
Points:	2009

Valid Data

Point	Time (ms)	Drive Voltage	Measured Polarization (uC/cm2)	Capacitance (uF)	Normalized Capacitance (uF/cm2)	Dielectric Constant	Instantaneous Current (mA)
   1	0.0000e+00	0.0032	-3.185300	0.000162	1.621674	0.549438	0.000065
   2	9.9500e-02	0.0305	-3.120706	0.000162	1.621674	0.549438	0.000065
   3	1.9900e-01	0.0738	-2.967295	0.000385	3.851475	1.304915	0.000154
   4	2.9850e-01	0.1043	-2.874441	0.000233	2.331156	0.789817	0.000093
   5	3.9800e-01	0.1524	-2.749289	0.000314	3.141993	1.064536	0.000126
   6	4.9750e-01	0.2005	-2.664510	0.000213	2.128447	0.721137	0.000085
   7	5.9700e-01	0.2342	-2.519173	0.000365	3.648766	1.236235	0.000146
   8	6.9650e-01	0.2743	-2.406133	0.000284	2.837929	0.961516	0.000114
   9	7.9600e-01	0.3112	-2.256759	0.000375	3.750121	1.270575	0.000150
  10	8.9550e-01	0.3577	-2.163905	0.000233	2.331156	0.789817	0.000093
  11	9.9500e-01	0.3930	-2.046828	0.000294	2.939284	0.995856	0.000118
  12	1.0945e+00	0.4267	-1.933788	0.000284	2.837929	0.961516	0.000114
  13	1.1940e+00	0.4668	-1.796525	0.000345	3.446057	1.167556	0.000138
  14	1.2935e+00	0.5118	-1.679448	0.000294	2.939284	0.995856	0.000118
  15	1.3930e+00	0.5535	-1.566409	0.000284	2.837929	0.961516	0.000114
  16	1.4925e+00	0.5952	-1.429146	0.000345	3.446057	1.167556	0.000138
  17	1.5920e+00	0.6353	-1.287846	0.000355	3.547412	1.201896	0.000142
  18	1.6915e+00	0.6674	-1.178844	0.000274	2.736575	0.927177	0.000110
  19	1.7910e+00	0.7171	-1.090027	0.000223	2.229802	0.755477	0.000089
  20	1.8905e+00	0.7556	-0.944690	0.000365	3.648766	1.236235	0.000146
  21	1.9900e+00	0.7925	-0.823576	0.000304	3.040638	1.030196	0.000122
  22	2.0895e+00	0.8310	-0.674202	0.000375	3.750121	1.270575	0.000150
  23	2.1890e+00	0.8791	-0.532902	0.000355	3.547412	1.201896	0.000142
  24	2.2885e+00	0.9144	-0.440048	0.000233	2.331156	0.789817	0.000093
  25	2.3880e+00	0.9449	-0.298748	0.000355	3.547412	1.201896	0.000142
  26	2.4875e+00	0.9882	-0.173597	0.000314	3.141993	1.064536	0.000126
  27	2.5870e+00	1.0283	-0.048446	0.000314	3.141993	1.064536	0.000126
  28	2.6865e+00	1.0716	0.048446	0.000243	2.432511	0.824157	0.000097
  29	2.7860e+00	1.1069	0.189745	0.000355	3.547412	1.201896	0.000142
  30	2.8855e+00	1.1518	0.310859	0.000304	3.040638	1.030196	0.000122
  31	2.9850e+00	1.1952	0.436011	0.000314	3.141993	1.064536	0.000126
  32	3.0845e+00	1.2272	0.561162	0.000314	3.141993	1.064536	0.000126
  33	3.1840e+00	1.2722	0.686313	0.000314	3.141993	1.064536	0.000126
  34	3.2835e+00	1.3074	0.787241	0.000253	2.533865	0.858497	0.000101
  35	3.3830e+00	1.3508	0.908356	0.000304	3.040638	1.030196	0.000122
  36	3.4825e+00	1.3941	1.077915	0.000426	4.256894	1.442275	0.000170
  37	3.5820e+00	1.4310	1.207104	0.000324	3.243348	1.098876	0.000130
  38	3.6815e+00	1.4695	1.312069	0.000264	2.635220	0.892837	0.000105
  39	3.7810e+00	1.5064	1.433183	0.000304	3.040638	1.030196	0.000122
  40	3.8805e+00	1.5545	1.542186	0.000274	2.736575	0.927177	0.000110
  41	3.9800e+00	1.5866	1.667337	0.000314	3.141993	1.064536	0.000126
  42	4.0795e+00	1.6267	1.788451	0.000304	3.040638	1.030196	0.000122
  43	4.1790e+00	1.6636	1.933788	0.000365	3.648766	1.236235	0.000146
  44	4.2785e+00	1.7037	2.046828	0.000284	2.837929	0.961516	0.000114
  45	4.3780e+00	1.7454	2.204276	0.000395	3.952830	1.339255	0.000158
  46	4.4775e+00	1.7791	2.289056	0.000213	2.128447	0.721137	0.000085
  47	4.5770e+00	1.8240	2.426319	0.000345	3.446057	1.167556	0.000138
  48	4.6765e+00	1.8657	2.591841	0.000416	4.155539	1.407935	0.000166
  49	4.7760e+00	1.9155	2.668547	0.000193	1.925738	0.652458	0.000077
  50	4.8755e+00	1.9363	2.809846	0.000355	3.547412	1.201896	0.000142
  51	4.9750e+00	1.9876	2.947109	0.000345	3.446057	1.167556	0.000138
  52	5.0745e+00	2.0294	3.084372	0.000345	3.446057	1.167556	0.000138
  53	5.1740e+00	2.0598	3.181263	0.000243	2.432511	0.824157	0.000097
  54	5.2735e+00	2.1080	3.302377	0.000304	3.040638	1.030196	0.000122
  55	5.3730e+00	2.1529	3.455788	0.000385	3.851475	1.304915	0.000154
  56	5.4725e+00	2.1866	3.576902	0.000304	3.040638	1.030196	0.000122
  57	5.5720e+00	2.2235	3.730313	0.000385	3.851475	1.304915	0.000154
  58	5.6715e+00	2.2716	3.827205	0.000243	2.432511	0.824157	0.000097
  59	5.7710e+00	2.3069	3.964467	0.000345	3.446057	1.167556	0.000138
  60	5.8705e+00	2.3454	4.101730	0.000345	3.446057	1.167556	0.000138
  61	5.9700e+00	2.3743	4.234955	0.000334	3.344702	1.133216	0.000134
  62	6.0695e+00	2.4208	4.352032	0.000294	2.939284	0.995856	0.000118
  63	6.1690e+00	2.4593	4.465072	0.000284	2.837929	0.961516	0.000114
  64	6.2685e+00	2.5058	4.606372	0.000355	3.547412	1.201896	0.000142
  65	6.3680e+00	2.5411	4.739597	0.000334	3.344702	1.133216	0.000134
  66	6.4675e+00	2.5828	4.888971	0.000375	3.750121	1.270575	0.000150
  67	6.5670e+00	2.6229	4.997974	0.000274	2.736575	0.927177	0.000110
  68	6.6665e+00	2.6759	5.119088	0.000304	3.040638	1.030196	0.000122
  69	6.7660e+00	2.6999	5.203868	0.000213	2.128447	0.721137	0.000085
  70	6.8655e+00	2.7497	5.401688	0.000497	4.966376	1.682654	0.000199
  71	6.9650e+00	2.7801	5.470319	0.000172	1.723028	0.583778	0.000069
  72	7.0645e+00	2.8283	5.631804	0.000405	4.054185	1.373595	0.000162
  73	7.1640e+00	2.8620	5.752918	0.000304	3.040638	1.030196	0.000122
  74	7.2635e+00	2.9037	5.902292	0.000375	3.750121	1.270575	0.000150
  75	7.3630e+00	2.9438	6.019369	0.000294	2.939284	0.995856	0.000118
  76	7.4625e+00	2.9823	6.152595	0.000334	3.344702	1.133216	0.000134
  77	7.5620e+00	3.0240	6.293895	0.000355	3.547412	1.201896	0.000142
  78	7.6615e+00	3.0625	6.374637	0.000203	2.027092	0.686797	0.000081
  79	7.7610e+00	3.1074	6.532086	0.000395	3.952830	1.339255	0.000158
  80	7.8605e+00	3.1411	6.645125	0.000284	2.837929	0.961516	0.000114
  81	7.9600e+00	3.1876	6.774314	0.000324	3.243348	1.098876	0.000130
  82	8.0595e+00	3.2165	6.895428	0.000304	3.040638	1.030196	0.000122
  83	8.1590e+00	3.2726	7.032690	0.000345	3.446057	1.167556	0.000138
  84	8.2585e+00	3.2999	7.190139	0.000395	3.952830	1.339255	0.000158
  85	8.3580e+00	3.3400	7.278956	0.000223	2.229802	0.755477	0.000089
  86	8.4575e+00	3.3785	7.448515	0.000426	4.256894	1.442275	0.000170
  87	8.5570e+00	3.4266	7.549444	0.000253	2.533865	0.858497	0.000101
  88	8.6565e+00	3.4651	7.670558	0.000304	3.040638	1.030196	0.000122
  89	8.7560e+00	3.4972	7.787635	0.000294	2.939284	0.995856	0.000118
  90	8.8555e+00	3.5325	7.924897	0.000345	3.446057	1.167556	0.000138
  91	8.9550e+00	3.5790	8.050049	0.000314	3.141993	1.064536	0.000126
  92	9.0545e+00	3.6304	8.199423	0.000375	3.750121	1.270575	0.000150
  93	9.1540e+00	3.6673	8.328611	0.000324	3.243348	1.098876	0.000130
  94	9.2535e+00	3.6994	8.437614	0.000274	2.736575	0.927177	0.000110
  95	9.3530e+00	3.7427	8.578913	0.000355	3.547412	1.201896	0.000142
  96	9.4525e+00	3.7732	8.716176	0.000345	3.446057	1.167556	0.000138
  97	9.5520e+00	3.8229	8.841327	0.000314	3.141993	1.064536	0.000126
  98	9.6515e+00	3.8534	8.958404	0.000294	2.939284	0.995856	0.000118
  99	9.7510e+00	3.9079	9.115852	0.000395	3.952830	1.339255	0.000158
 100	9.8505e+00	3.9336	9.204669	0.000223	2.229802	0.755477	0.000089
 101	9.9500e+00	3.9737	9.386341	0.000456	4.560958	1.545294	0.000183
 102	1.0050e+01	4.0218	9.438823	0.000132	1.317610	0.446418	0.000053
 103	1.0149e+01	4.0603	9.632606	0.000487	4.865022	1.648314	0.000195
 104	1.0248e+01	4.1020	9.721423	0.000223	2.229802	0.755477	0.000089
 105	1.0348e+01	4.1405	9.818314	0.000243	2.432511	0.824157	0.000097
 106	1.0447e+01	4.1806	9.955577	0.000345	3.446057	1.167556	0.000138
 107	1.0547e+01	4.2191	10.084765	0.000324	3.243348	1.098876	0.000130
 108	1.0646e+01	4.2641	10.242213	0.000395	3.952830	1.339255	0.000158
 109	1.0746e+01	4.2945	10.367365	0.000314	3.141993	1.064536	0.000126
 110	1.0845e+01	4.3459	10.480404	0.000284	2.837929	0.961516	0.000114
 111	1.0945e+01	4.3876	10.605556	0.000314	3.141993	1.064536	0.000126
 112	1.1044e+01	4.4245	10.694373	0.000223	2.229802	0.755477	0.000089
 113	1.1144e+01	4.4678	10.819524	0.000314	3.141993	1.064536	0.000126
 114	1.1243e+01	4.4967	10.956786	0.000345	3.446057	1.167556	0.000138
 115	1.1343e+01	4.5320	11.106160	0.000375	3.750121	1.270575	0.000150
 116	1.1443e+01	4.5673	11.207089	0.000253	2.533865	0.858497	0.000101
 117	1.1542e+01	4.6186	11.328203	0.000304	3.040638	1.030196	0.000122
 118	1.1642e+01	4.6635	11.461428	0.000334	3.344702	1.133216	0.000134
 119	1.1741e+01	4.6924	11.614840	0.000385	3.851475	1.304915	0.000154
 120	1.1841e+01	4.7293	11.731916	0.000294	2.939284	0.995856	0.000118
 121	1.1940e+01	4.7758	11.832845	0.000253	2.533865	0.858497	0.000101
 122	1.2040e+01	4.8175	11.949922	0.000294	2.939284	0.995856	0.000118
 123	1.2139e+01	4.8624	12.099296	0.000375	3.750121	1.270575	0.000150
 124	1.2239e+01	4.9009	12.260781	0.000405	4.054185	1.373595	0.000162
 125	1.2338e+01	4.9346	12.361710	0.000253	2.533865	0.858497	0.000101
 126	1.2438e+01	4.9731	12.486861	0.000314	3.141993	1.064536	0.000126
 127	1.2537e+01	5.0245	12.555492	0.000172	1.723028	0.583778	0.000069
 128	1.2636e+01	5.0549	12.721015	0.000416	4.155539	1.407935	0.000166
 129	1.2736e+01	5.0902	12.842129	0.000304	3.040638	1.030196	0.000122
 130	1.2835e+01	5.1351	12.975354	0.000334	3.344702	1.133216	0.000134
 131	1.2935e+01	5.1801	13.092431	0.000294	2.939284	0.995856	0.000118
 132	1.3034e+01	5.2154	13.233731	0.000355	3.547412	1.201896	0.000142
 133	1.3134e+01	5.2635	13.370994	0.000345	3.446057	1.167556	0.000138
 134	1.3233e+01	5.2908	13.467885	0.000243	2.432511	0.824157	0.000097
 135	1.3333e+01	5.3341	13.580925	0.000284	2.837929	0.961516	0.000114
 136	1.3432e+01	5.3790	13.702039	0.000304	3.040638	1.030196	0.000122
 137	1.3532e+01	5.4111	13.827190	0.000314	3.141993	1.064536	0.000126
 138	1.3632e+01	5.4544	13.964453	0.000345	3.446057	1.167556	0.000138
 139	1.3731e+01	5.4881	14.081529	0.000294	2.939284	0.995856	0.000118
 140	1.3831e+01	5.5330	14.202644	0.000304	3.040638	1.030196	0.000122
 141	1.3930e+01	5.5731	14.347980	0.000365	3.648766	1.236235	0.000146
 142	1.4030e+01	5.6084	14.448909	0.000253	2.533865	0.858497	0.000101
 143	1.4129e+01	5.6549	14.561949	0.000284	2.837929	0.961516	0.000114
 144	1.4229e+01	5.6998	14.731508	0.000426	4.256894	1.442275	0.000170
 145	1.4328e+01	5.7303	14.816288	0.000213	2.128447	0.721137	0.000085
 146	1.4428e+01	5.7752	14.977774	0.000405	4.054185	1.373595	0.000162
 147	1.4527e+01	5.8169	15.066591	0.000223	2.229802	0.755477	0.000089
 148	1.4627e+01	5.8490	15.191742	0.000314	3.141993	1.064536	0.000126
 149	1.4726e+01	5.8923	15.312856	0.000304	3.040638	1.030196	0.000122
 150	1.4825e+01	5.9292	15.466267	0.000385	3.851475	1.304915	0.000154
 151	1.4925e+01	5.9742	15.559121	0.000233	2.331156	0.789817	0.000093
 152	1.5024e+01	6.0127	15.680235	0.000304	3.040638	1.030196	0.000122
 153	1.5124e+01	6.0431	15.829609	0.000375	3.750121	1.270575	0.000150
 154	1.5223e+01	6.0881	15.926500	0.000243	2.432511	0.824157	0.000097
 155	1.5323e+01	6.1394	16.055689	0.000324	3.243348	1.098876	0.000130
 156	1.5422e+01	6.1827	16.184877	0.000324	3.243348	1.098876	0.000130
 157	1.5522e+01	6.2132	16.305991	0.000304	3.040638	1.030196	0.000122
 158	1.5621e+01	6.2485	16.435180	0.000324	3.243348	1.098876	0.000130
 159	1.5721e+01	6.2902	16.536108	0.000253	2.533865	0.858497	0.000101
 160	1.5820e+01	6.3255	16.693556	0.000395	3.952830	1.339255	0.000158
 161	1.5920e+01	6.3704	16.794485	0.000253	2.533865	0.858497	0.000101
 162	1.6020e+01	6.4201	16.919636	0.000314	3.141993	1.064536	0.000126
 163	1.6119e+01	6.4474	17.000379	0.000203	2.027092	0.686797	0.000081
 164	1.6218e+01	6.4827	17.133604	0.000334	3.344702	1.133216	0.000134
 165	1.6318e+01	6.5196	17.266830	0.000334	3.344702	1.133216	0.000134
 166	1.6418e+01	6.5693	17.404092	0.000345	3.446057	1.167556	0.000138
 167	1.6517e+01	6.6078	17.529243	0.000314	3.141993	1.064536	0.000126
 168	1.6616e+01	6.6511	17.658432	0.000324	3.243348	1.098876	0.000130
 169	1.6716e+01	6.6864	17.779546	0.000304	3.040638	1.030196	0.000122
 170	1.6816e+01	6.7265	17.892586	0.000284	2.837929	0.961516	0.000114
 171	1.6915e+01	6.7586	17.985440	0.000233	2.331156	0.789817	0.000093
 172	1.7015e+01	6.8019	18.163074	0.000446	4.459603	1.510954	0.000179
 173	1.7114e+01	6.8469	18.259965	0.000243	2.432511	0.824157	0.000097
 174	1.7213e+01	6.8838	18.389153	0.000324	3.243348	1.098876	0.000130
 175	1.7313e+01	6.9255	18.502193	0.000284	2.837929	0.961516	0.000114
 176	1.7413e+01	6.9752	18.643493	0.000355	3.547412	1.201896	0.000142
 177	1.7512e+01	7.0137	18.736347	0.000233	2.331156	0.789817	0.000093
 178	1.7611e+01	7.0410	18.861498	0.000314	3.141993	1.064536	0.000126
 179	1.7711e+01	7.0843	19.006835	0.000365	3.648766	1.236235	0.000146
 180	1.7811e+01	7.1196	19.136023	0.000324	3.243348	1.098876	0.000130
 181	1.7910e+01	7.1661	19.273286	0.000345	3.446057	1.167556	0.000138
 182	1.8009e+01	7.2078	19.402474	0.000324	3.243348	1.098876	0.000130
 183	1.8109e+01	7.2447	19.503403	0.000253	2.533865	0.858497	0.000101
 184	1.8209e+01	7.2864	19.620480	0.000294	2.939284	0.995856	0.000118
 185	1.8308e+01	7.3185	19.737557	0.000294	2.939284	0.995856	0.000118
 186	1.8407e+01	7.3747	19.866745	0.000324	3.243348	1.098876	0.000130
 187	1.8507e+01	7.4019	20.008045	0.000355	3.547412	1.201896	0.000142
 188	1.8607e+01	7.4485	20.117047	0.000274	2.736575	0.927177	0.000110
 189	1.8706e+01	7.4886	20.226050	0.000274	2.736575	0.927177	0.000110
 190	1.8805e+01	7.5206	20.371387	0.000365	3.648766	1.236235	0.000146
 191	1.8905e+01	7.5656	20.512687	0.000355	3.547412	1.201896	0.000142
 192	1.9005e+01	7.6073	20.653986	0.000355	3.547412	1.201896	0.000142
 193	1.9104e+01	7.6442	20.762989	0.000274	2.736575	0.927177	0.000110
 194	1.9203e+01	7.6891	20.855843	0.000233	2.331156	0.789817	0.000093
 195	1.9303e+01	7.7244	20.989069	0.000334	3.344702	1.133216	0.000134
 196	1.9402e+01	7.7645	21.126331	0.000345	3.446057	1.167556	0.000138
 197	1.9502e+01	7.7998	21.259557	0.000334	3.344702	1.133216	0.000134
 198	1.9602e+01	7.8495	21.425079	0.000416	4.155539	1.407935	0.000166
 199	1.9701e+01	7.8832	21.509859	0.000213	2.128447	0.721137	0.000085
 200	1.9800e+01	7.9169	21.667308	0.000395	3.952830	1.339255	0.000158
 201	1.9900e+01	7.9570	21.768236	0.000253	2.533865	0.858497	0.000101
 202	2.0000e+01	8.0003	21.901461	0.000334	3.344702	1.133216	0.000134
 203	2.0099e+01	8.0436	22.014501	0.000284	2.837929	0.961516	0.000114
 204	2.0198e+01	8.0853	22.163875	0.000375	3.750121	1.270575	0.000150
 205	2.0298e+01	8.1286	22.260766	0.000243	2.432511	0.824157	0.000097
 206	2.0398e+01	8.1623	22.393992	0.000334	3.344702	1.133216	0.000134
 207	2.0497e+01	8.2121	22.482809	0.000223	2.229802	0.755477	0.000089
 208	2.0596e+01	8.2393	22.628146	0.000365	3.648766	1.236235	0.000146
 209	2.0696e+01	8.2891	22.789631	0.000405	4.054185	1.373595	0.000162
 210	2.0796e+01	8.3179	22.910745	0.000304	3.040638	1.030196	0.000122
 211	2.0895e+01	8.3645	23.023785	0.000284	2.837929	0.961516	0.000114
 212	2.0994e+01	8.3950	23.128751	0.000264	2.635220	0.892837	0.000105
 213	2.1094e+01	8.4447	23.290236	0.000405	4.054185	1.373595	0.000162
 214	2.1194e+01	8.4816	23.370979	0.000203	2.027092	0.686797	0.000081
 215	2.1293e+01	8.5185	23.508241	0.000345	3.446057	1.167556	0.000138
 216	2.1392e+01	8.5618	23.649541	0.000355	3.547412	1.201896	0.000142
 217	2.1492e+01	8.5955	23.754507	0.000264	2.635220	0.892837	0.000105
 218	2.1591e+01	8.6436	23.928104	0.000436	4.358248	1.476615	0.000174
 219	2.1691e+01	8.6949	24.008846	0.000203	2.027092	0.686797	0.000081
 220	2.1791e+01	8.7206	24.158220	0.000375	3.750121	1.270575	0.000150
 221	2.1890e+01	8.7639	24.291446	0.000334	3.344702	1.133216	0.000134
 222	2.1989e+01	8.7976	24.396411	0.000264	2.635220	0.892837	0.000105
 223	2.2089e+01	8.8377	24.489265	0.000233	2.331156	0.789817	0.000093
 224	2.2189e+01	8.8762	24.662862	0.000436	4.358248	1.476615	0.000174
 225	2.2288e+01	8.9308	24.808199	0.000365	3.648766	1.236235	0.000146
 226	2.2387e+01	8.9645	24.925276	0.000294	2.939284	0.995856	0.000118
 227	2.2487e+01	8.9997	25.026204	0.000253	2.533865	0.858497	0.000101
 228	2.2587e+01	9.0302	25.191727	0.000416	4.155539	1.407935	0.000166
 229	2.2686e+01	9.0800	25.288618	0.000243	2.432511	0.824157	0.000097
 230	2.2785e+01	9.1169	25.417807	0.000324	3.243348	1.098876	0.000130
 231	2.2885e+01	9.1570	25.538921	0.000304	3.040638	1.030196	0.000122
 232	2.2985e+01	9.1939	25.668109	0.000324	3.243348	1.098876	0.000130
 233	2.3084e+01	9.2324	25.801335	0.000334	3.344702	1.133216	0.000134
 234	2.3183e+01	9.2869	25.894189	0.000233	2.331156	0.789817	0.000093
 235	2.3283e+01	9.3190	26.067785	0.000436	4.358248	1.476615	0.000174
 236	2.3383e+01	9.3479	26.176788	0.000274	2.736575	0.927177	0.000110
 237	2.3482e+01	9.4056	26.297902	0.000304	3.040638	1.030196	0.000122
 238	2.3581e+01	9.4361	26.423053	0.000314	3.141993	1.064536	0.000126
 239	2.3681e+01	9.4762	26.564353	0.000355	3.547412	1.201896	0.000142
 240	2.3780e+01	9.5131	26.657207	0.000233	2.331156	0.789817	0.000093
 241	2.3880e+01	9.5532	26.786396	0.000324	3.243348	1.098876	0.000130
 242	2.3980e+01	9.5981	26.923658	0.000345	3.446057	1.167556	0.000138
 243	2.4079e+01	9.6414	27.044772	0.000304	3.040638	1.030196	0.000122
 244	2.4178e+01	9.6735	27.133589	0.000223	2.229802	0.755477	0.000089
 245	2.4278e+01	9.7200	27.307186	0.000436	4.358248	1.476615	0.000174
 246	2.4378e+01	9.7602	27.367743	0.000152	1.520319	0.515098	0.000061
 247	2.4477e+01	9.7970	27.513080	0.000365	3.648766	1.236235	0.000146
 248	2.4576e+01	9.8323	27.642268	0.000324	3.243348	1.098876	0.000130
 249	2.4676e+01	9.8757	27.803754	0.000405	4.054185	1.373595	0.000162
 250	2.4776e+01	9.9142	27.864311	0.000152	1.520319	0.515098	0.000061
 251	2.4875e+01	9.9591	28.041945	0.000446	4.459603	1.510954	0.000179
 252	2.4974e+01	9.9992	28.146910	0.000264	2.635220	0.892837	0.000105
 253	2.5074e+01	10.0409	28.268024	0.000304	3.040638	1.030196	0.000122
 254	2.5174e+01	10.0730	28.413361	0.000365	3.648766	1.236235	0.000146
 255	2.5273e+01	10.1195	28.534475	0.000304	3.040638	1.030196	0.000122
 256	2.5372e+01	10.1532	28.667701	0.000334	3.344702	1.133216	0.000134
 257	2.5472e+01	10.1949	28.784778	0.000294	2.939284	0.995856	0.000118
 258	2.5572e+01	10.2414	28.930115	0.000365	3.648766	1.236235	0.000146
 259	2.5671e+01	10.2767	29.022969	0.000233	2.331156	0.789817	0.000093
 260	2.5770e+01	10.3168	29.164269	0.000355	3.547412	1.201896	0.000142
 261	2.5870e+01	10.3537	29.265197	0.000253	2.533865	0.858497	0.000101
 262	2.5970e+01	10.3986	29.414571	0.000375	3.750121	1.270575	0.000150
 263	2.6069e+01	10.4323	29.511462	0.000243	2.432511	0.824157	0.000097
 264	2.6169e+01	10.4740	29.660836	0.000375	3.750121	1.270575	0.000150
 265	2.6268e+01	10.5093	29.765802	0.000264	2.635220	0.892837	0.000105
 266	2.6367e+01	10.5526	29.858656	0.000233	2.331156	0.789817	0.000093
 267	2.6467e+01	10.5879	29.999956	0.000355	3.547412	1.201896	0.000142
 268	2.6567e+01	10.6377	30.100884	0.000253	2.533865	0.858497	0.000101
 269	2.6666e+01	10.6698	30.250258	0.000375	3.750121	1.270575	0.000150
 270	2.6765e+01	10.7195	30.419818	0.000426	4.256894	1.442275	0.000170
 271	2.6865e+01	10.7532	30.504598	0.000213	2.128447	0.721137	0.000085
 272	2.6965e+01	10.7981	30.617637	0.000284	2.837929	0.961516	0.000114
 273	2.7064e+01	10.8382	30.738752	0.000304	3.040638	1.030196	0.000122
 274	2.7163e+01	10.8751	30.823531	0.000213	2.128447	0.721137	0.000085
 275	2.7263e+01	10.9184	30.976943	0.000385	3.851475	1.304915	0.000154
 276	2.7363e+01	10.9505	31.089982	0.000284	2.837929	0.961516	0.000114
 277	2.7462e+01	10.9922	31.211096	0.000304	3.040638	1.030196	0.000122
 278	2.7561e+01	11.0339	31.348359	0.000345	3.446057	1.167556	0.000138
 279	2.7661e+01	11.0708	31.445250	0.000243	2.432511	0.824157	0.000097
 280	2.7761e+01	11.1125	31.562327	0.000294	2.939284	0.995856	0.000118
 281	2.7860e+01	11.1542	31.715738	0.000385	3.851475	1.304915	0.000154
 282	2.7959e+01	11.1863	31.792444	0.000193	1.925738	0.652458	0.000077
 283	2.8059e+01	11.2360	31.953929	0.000405	4.054185	1.373595	0.000162
 284	2.8159e+01	11.2649	32.054858	0.000253	2.533865	0.858497	0.000101
 285	2.8258e+01	11.3147	32.196158	0.000355	3.547412	1.201896	0.000142
 286	2.8358e+01	11.3532	32.293049	0.000243	2.432511	0.824157	0.000097
 287	2.8457e+01	11.3917	32.414163	0.000304	3.040638	1.030196	0.000122
 288	2.8556e+01	11.4318	32.559500	0.000365	3.648766	1.236235	0.000146
 289	2.8656e+01	11.4687	32.648317	0.000223	2.229802	0.755477	0.000089
 290	2.8756e+01	11.5136	32.769431	0.000304	3.040638	1.030196	0.000122
 291	2.8855e+01	11.5425	32.902656	0.000334	3.344702	1.133216	0.000134
 292	2.8954e+01	11.5922	32.999548	0.000243	2.432511	0.824157	0.000097
 293	2.9054e+01	11.6195	33.128736	0.000324	3.243348	1.098876	0.000130
 294	2.9154e+01	11.6676	33.257924	0.000324	3.243348	1.098876	0.000130
 295	2.9253e+01	11.7109	33.350778	0.000233	2.331156	0.789817	0.000093
 296	2.9352e+01	11.7462	33.467855	0.000294	2.939284	0.995856	0.000118
 297	2.9452e+01	11.7895	33.629341	0.000405	4.054185	1.373595	0.000162
 298	2.9552e+01	11.8328	33.697972	0.000172	1.723028	0.583778	0.000069
 299	2.9651e+01	11.8665	33.835235	0.000345	3.446057	1.167556	0.000138
 300	2.9750e+01	11.9050	33.976534	0.000355	3.547412	1.201896	0.000142
 301	2.9850e+01	11.9483	34.093611	0.000294	2.939284	0.995856	0.000118
 302	2.9950e+01	11.9804	34.182428	0.000223	2.229802	0.755477	0.000089
 303	3.0049e+01	12.0237	34.331802	0.000375	3.750121	1.270575	0.000150
 304	3.0148e+01	12.0670	34.416582	0.000213	2.128447	0.721137	0.000085
 305	3.0248e+01	12.1120	34.549808	0.000334	3.344702	1.133216	0.000134
 306	3.0348e+01	12.1473	34.666885	0.000294	2.939284	0.995856	0.000118
 307	3.0447e+01	12.1922	34.775887	0.000274	2.736575	0.927177	0.000110
 308	3.0547e+01	12.2226	34.909113	0.000334	3.344702	1.133216	0.000134
 309	3.0646e+01	12.2644	35.010041	0.000253	2.533865	0.858497	0.000101
 310	3.0745e+01	12.3093	35.127118	0.000294	2.939284	0.995856	0.000118
 311	3.0845e+01	12.3430	35.256306	0.000324	3.243348	1.098876	0.000130
 312	3.0945e+01	12.3879	35.353198	0.000243	2.432511	0.824157	0.000097
 313	3.1044e+01	12.4232	35.462200	0.000274	2.736575	0.927177	0.000110
 314	3.1143e+01	12.4697	35.623686	0.000405	4.054185	1.373595	0.000162
 315	3.1243e+01	12.5018	35.716540	0.000233	2.331156	0.789817	0.000093
 316	3.1343e+01	12.5435	35.841691	0.000314	3.141993	1.064536	0.000126
 317	3.1442e+01	12.5900	35.902248	0.000152	1.520319	0.515098	0.000061
 318	3.1541e+01	12.6253	36.091993	0.000476	4.763667	1.613974	0.000191
 319	3.1641e+01	12.6670	36.205033	0.000284	2.837929	0.961516	0.000114
 320	3.1741e+01	12.7087	36.281739	0.000193	1.925738	0.652458	0.000077
 321	3.1840e+01	12.7488	36.394779	0.000284	2.837929	0.961516	0.000114
 322	3.1939e+01	12.7809	36.556264	0.000405	4.054185	1.373595	0.000162
 323	3.2039e+01	12.8194	36.657193	0.000253	2.533865	0.858497	0.000101
 324	3.2139e+01	12.8740	36.774269	0.000294	2.939284	0.995856	0.000118
 325	3.2238e+01	12.9028	36.867124	0.000233	2.331156	0.789817	0.000093
 326	3.2337e+01	12.9462	36.976126	0.000274	2.736575	0.927177	0.000110
 327	3.2437e+01	12.9863	37.101277	0.000314	3.141993	1.064536	0.000126
 328	3.2536e+01	13.0087	37.226429	0.000314	3.141993	1.064536	0.000126
 329	3.2636e+01	13.0601	37.311208	0.000213	2.128447	0.721137	0.000085
 330	3.2736e+01	13.1098	37.432323	0.000304	3.040638	1.030196	0.000122
 331	3.2835e+01	13.1483	37.569585	0.000345	3.446057	1.167556	0.000138
 332	3.2934e+01	13.1756	37.682625	0.000284	2.837929	0.961516	0.000114
 333	3.3034e+01	13.2269	37.803739	0.000304	3.040638	1.030196	0.000122
 334	3.3133e+01	13.2686	37.916779	0.000284	2.837929	0.961516	0.000114
 335	3.3233e+01	13.2959	38.029819	0.000284	2.837929	0.961516	0.000114
 336	3.3333e+01	13.3360	38.154970	0.000314	3.141993	1.064536	0.000126
 337	3.3432e+01	13.3681	38.272047	0.000294	2.939284	0.995856	0.000118
 338	3.3532e+01	13.4210	38.417384	0.000365	3.648766	1.236235	0.000146
 339	3.3631e+01	13.4579	38.481978	0.000162	1.621674	0.549438	0.000065
 340	3.3730e+01	13.4996	38.599055	0.000294	2.939284	0.995856	0.000118
 341	3.3830e+01	13.5445	38.708057	0.000274	2.736575	0.927177	0.000110
 342	3.3929e+01	13.5782	38.837246	0.000324	3.243348	1.098876	0.000130
 343	3.4029e+01	13.6167	38.950286	0.000284	2.837929	0.961516	0.000114
 344	3.4129e+01	13.6584	39.087548	0.000345	3.446057	1.167556	0.000138
 345	3.4228e+01	13.7034	39.224811	0.000345	3.446057	1.167556	0.000138
 346	3.4328e+01	13.7403	39.297479	0.000182	1.824383	0.618118	0.000073
 347	3.4427e+01	13.7755	39.434742	0.000345	3.446057	1.167556	0.000138
 348	3.4526e+01	13.8189	39.539707	0.000264	2.635220	0.892837	0.000105
 349	3.4626e+01	13.8590	39.685044	0.000365	3.648766	1.236235	0.000146
 350	3.4725e+01	13.9007	39.798084	0.000284	2.837929	0.961516	0.000114
 351	3.4825e+01	13.9376	39.911124	0.000284	2.837929	0.961516	0.000114
 352	3.4925e+01	13.9825	39.995904	0.000213	2.128447	0.721137	0.000085
 353	3.5024e+01	14.0162	40.153352	0.000395	3.952830	1.339255	0.000158
 354	3.5123e+01	14.0563	40.246206	0.000233	2.331156	0.789817	0.000093
 355	3.5223e+01	14.1076	40.359246	0.000284	2.837929	0.961516	0.000114
 356	3.5322e+01	14.1269	40.492471	0.000334	3.344702	1.133216	0.000134
 357	3.5422e+01	14.1782	40.633771	0.000355	3.547412	1.201896	0.000142
 358	3.5522e+01	14.2183	40.730662	0.000243	2.432511	0.824157	0.000097
 359	3.5621e+01	14.2584	40.843702	0.000284	2.837929	0.961516	0.000114
 360	3.5721e+01	14.3001	40.940594	0.000243	2.432511	0.824157	0.000097
 361	3.5820e+01	14.3306	41.069782	0.000324	3.243348	1.098876	0.000130
 362	3.5919e+01	14.3771	41.211082	0.000355	3.547412	1.201896	0.000142
 363	3.6019e+01	14.4124	41.307973	0.000243	2.432511	0.824157	0.000097
 364	3.6118e+01	14.4541	41.421013	0.000284	2.837929	0.961516	0.000114
 365	3.6218e+01	14.5007	41.538090	0.000294	2.939284	0.995856	0.000118
 366	3.6318e+01	14.5408	41.683426	0.000365	3.648766	1.236235	0.000146
 367	3.6417e+01	14.5745	41.784355	0.000253	2.533865	0.858497	0.000101
 368	3.6517e+01	14.6097	41.921618	0.000345	3.446057	1.167556	0.000138
 369	3.6616e+01	14.6563	42.034657	0.000284	2.837929	0.961516	0.000114
 370	3.6715e+01	14.6948	42.155771	0.000304	3.040638	1.030196	0.000122
 371	3.6815e+01	14.7333	42.272848	0.000294	2.939284	0.995856	0.000118
 372	3.6914e+01	14.7718	42.389925	0.000294	2.939284	0.995856	0.000118
 373	3.7014e+01	14.8231	42.490854	0.000253	2.533865	0.858497	0.000101
 374	3.7114e+01	14.8616	42.603893	0.000284	2.837929	0.961516	0.000114
 375	3.7213e+01	14.8985	42.720970	0.000294	2.939284	0.995856	0.000118
 376	3.7313e+01	14.9402	42.858233	0.000345	3.446057	1.167556	0.000138
 377	3.7412e+01	14.9755	42.959161	0.000253	2.533865	0.858497	0.000101
 378	3.7511e+01	15.0220	43.088350	0.000324	3.243348	1.098876	0.000130
 379	3.7611e+01	15.0525	43.241761	0.000385	3.851475	1.304915	0.000154
 380	3.7711e+01	15.1022	43.318466	0.000193	1.925738	0.652458	0.000077
 381	3.7810e+01	15.1327	43.471878	0.000385	3.851475	1.304915	0.000154
 382	3.7910e+01	15.1744	43.568769	0.000243	2.432511	0.824157	0.000097
 383	3.8009e+01	15.2161	43.689883	0.000304	3.040638	1.030196	0.000122
 384	3.8108e+01	15.2546	43.806960	0.000294	2.939284	0.995856	0.000118
 385	3.8208e+01	15.2915	43.915963	0.000274	2.736575	0.927177	0.000110
 386	3.8307e+01	15.3252	44.077448	0.000405	4.054185	1.373595	0.000162
 387	3.8407e+01	15.3734	44.166265	0.000223	2.229802	0.755477	0.000089
 388	3.8507e+01	15.4199	44.283342	0.000294	2.939284	0.995856	0.000118
 389	3.8606e+01	15.4568	44.424642	0.000355	3.547412	1.201896	0.000142
 390	3.8706e+01	15.4969	44.501347	0.000193	1.925738	0.652458	0.000077
 391	3.8805e+01	15.5418	44.618424	0.000294	2.939284	0.995856	0.000118
 392	3.8904e+01	15.5803	44.755687	0.000345	3.446057	1.167556	0.000138
 393	3.9004e+01	15.6204	44.872764	0.000294	2.939284	0.995856	0.000118
 394	3.9103e+01	15.6525	45.010026	0.000345	3.446057	1.167556	0.000138
 395	3.9203e+01	15.7022	45.139215	0.000324	3.243348	1.098876	0.000130
 396	3.9303e+01	15.7327	45.223995	0.000213	2.128447	0.721137	0.000085
 397	3.9402e+01	15.7776	45.349146	0.000314	3.141993	1.064536	0.000126
 398	3.9502e+01	15.8049	45.470260	0.000304	3.040638	1.030196	0.000122
 399	3.9601e+01	15.8546	45.611560	0.000355	3.547412	1.201896	0.000142
 400	3.9700e+01	15.8883	45.655968	0.000111	1.114901	0.377739	0.000045
 401	3.9800e+01	15.9348	45.813416	0.000395	3.952830	1.339255	0.000158
 402	3.9900e+01	15.9685	45.934530	0.000304	3.040638	1.030196	0.000122
 403	3.9999e+01	16.0167	46.108127	0.000436	4.358248	1.476615	0.000174
 404	4.0099e+01	16.0423	46.209056	0.000253	2.533865	0.858497	0.000101
 405	4.0198e+01	16.0889	46.314021	0.000264	2.635220	0.892837	0.000105
 406	4.0297e+01	16.1418	46.435135	0.000304	3.040638	1.030196	0.000122
 407	4.0397e+01	16.1610	46.548175	0.000284	2.837929	0.961516	0.000114
 408	4.0496e+01	16.2108	46.653141	0.000264	2.635220	0.892837	0.000105
 409	4.0596e+01	16.2525	46.774255	0.000304	3.040638	1.030196	0.000122
 410	4.0696e+01	16.2894	46.891332	0.000294	2.939284	0.995856	0.000118
 411	4.0795e+01	16.3231	47.020520	0.000324	3.243348	1.098876	0.000130
 412	4.0895e+01	16.3664	47.113374	0.000233	2.331156	0.789817	0.000093
 413	4.0994e+01	16.4193	47.258711	0.000365	3.648766	1.236235	0.000146
 414	4.1093e+01	16.4498	47.351565	0.000233	2.331156	0.789817	0.000093
 415	4.1193e+01	16.4867	47.488828	0.000345	3.446057	1.167556	0.000138
 416	4.1292e+01	16.5332	47.597830	0.000274	2.736575	0.927177	0.000110
 417	4.1392e+01	16.5685	47.755279	0.000395	3.952830	1.339255	0.000158
 418	4.1492e+01	16.6166	47.852170	0.000243	2.432511	0.824157	0.000097
 419	4.1591e+01	16.6551	47.936950	0.000213	2.128447	0.721137	0.000085
 420	4.1691e+01	16.6920	48.054027	0.000294	2.939284	0.995856	0.000118
 421	4.1790e+01	16.7338	48.203401	0.000375	3.750121	1.270575	0.000150
 422	4.1889e+01	16.7626	48.328552	0.000314	3.141993	1.064536	0.000126
 423	4.1989e+01	16.8092	48.417369	0.000223	2.229802	0.755477	0.000089
 424	4.2089e+01	16.8493	48.534446	0.000294	2.939284	0.995856	0.000118
 425	4.2188e+01	16.8829	48.643449	0.000274	2.736575	0.927177	0.000110
 426	4.2288e+01	16.9295	48.788785	0.000365	3.648766	1.236235	0.000146
 427	4.2387e+01	16.9712	48.897788	0.000274	2.736575	0.927177	0.000110
 428	4.2486e+01	17.0161	49.006791	0.000274	2.736575	0.927177	0.000110
 429	4.2586e+01	17.0546	49.111756	0.000264	2.635220	0.892837	0.000105
 430	4.2685e+01	17.0835	49.244982	0.000334	3.344702	1.133216	0.000134
 431	4.2785e+01	17.1220	49.362059	0.000294	2.939284	0.995856	0.000118
 432	4.2885e+01	17.1621	49.467024	0.000264	2.635220	0.892837	0.000105
 433	4.2984e+01	17.2038	49.616398	0.000375	3.750121	1.270575	0.000150
 434	4.3084e+01	17.2487	49.717327	0.000253	2.533865	0.858497	0.000101
 435	4.3183e+01	17.2824	49.818255	0.000253	2.533865	0.858497	0.000101
 436	4.3282e+01	17.3305	49.951480	0.000334	3.344702	1.133216	0.000134
 437	4.3382e+01	17.3674	50.064520	0.000284	2.837929	0.961516	0.000114
 438	4.3481e+01	17.4059	50.141226	0.000193	1.925738	0.652458	0.000077
 439	4.3581e+01	17.4476	50.302711	0.000405	4.054185	1.373595	0.000162
 440	4.3681e+01	17.4861	50.391528	0.000223	2.229802	0.755477	0.000089
 441	4.3780e+01	17.5214	50.500531	0.000274	2.736575	0.927177	0.000110
 442	4.3880e+01	17.5647	50.617608	0.000294	2.939284	0.995856	0.000118
 443	4.3979e+01	17.6000	50.706425	0.000223	2.229802	0.755477	0.000089
 444	4.4078e+01	17.6466	50.871947	0.000416	4.155539	1.407935	0.000166
 445	4.4178e+01	17.6786	51.009210	0.000345	3.446057	1.167556	0.000138
 446	4.4278e+01	17.7284	51.045544	0.000091	0.912192	0.309059	0.000037
 447	4.4377e+01	17.7573	51.190881	0.000365	3.648766	1.236235	0.000146
 448	4.4477e+01	17.8022	51.291810	0.000253	2.533865	0.858497	0.000101
 449	4.4576e+01	17.8423	51.425035	0.000334	3.344702	1.133216	0.000134
 450	4.4675e+01	17.8824	51.497703	0.000182	1.824383	0.618118	0.000073
 451	4.4775e+01	17.9161	51.651115	0.000385	3.851475	1.304915	0.000154
 452	4.4874e+01	17.9578	51.752043	0.000253	2.533865	0.858497	0.000101
 453	4.4974e+01	17.9963	51.869120	0.000294	2.939284	0.995856	0.000118
 454	4.5074e+01	18.0396	51.978123	0.000274	2.736575	0.927177	0.000110
 455	4.5173e+01	18.0877	52.099237	0.000304	3.040638	1.030196	0.000122
 456	4.5273e+01	18.1214	52.192091	0.000233	2.331156	0.789817	0.000093
 457	4.5372e+01	18.1631	52.321279	0.000324	3.243348	1.098876	0.000130
 458	4.5471e+01	18.1952	52.430282	0.000274	2.736575	0.927177	0.000110
 459	4.5571e+01	18.2465	52.531210	0.000253	2.533865	0.858497	0.000101
 460	4.5670e+01	18.2786	52.660399	0.000324	3.243348	1.098876	0.000130
 461	4.5770e+01	18.3300	52.765364	0.000264	2.635220	0.892837	0.000105
 462	4.5870e+01	18.3572	52.898590	0.000334	3.344702	1.133216	0.000134
 463	4.5969e+01	18.4150	53.027778	0.000324	3.243348	1.098876	0.000130
 464	4.6069e+01	18.4391	53.100446	0.000182	1.824383	0.618118	0.000073
 465	4.6168e+01	18.4792	53.213486	0.000284	2.837929	0.961516	0.000114
 466	4.6267e+01	18.5225	53.338637	0.000314	3.141993	1.064536	0.000126
 467	4.6367e+01	18.5642	53.463789	0.000314	3.141993	1.064536	0.000126
 468	4.6467e+01	18.5979	53.560680	0.000243	2.432511	0.824157	0.000097
 469	4.6566e+01	18.6444	53.657571	0.000243	2.432511	0.824157	0.000097
 470	4.6666e+01	18.6877	53.790797	0.000334	3.344702	1.133216	0.000134
 471	4.6765e+01	18.7182	53.887688	0.000243	2.432511	0.824157	0.000097
 472	4.6864e+01	18.7599	54.033025	0.000365	3.648766	1.236235	0.000146
 473	4.6964e+01	18.7920	54.150102	0.000294	2.939284	0.995856	0.000118
 474	4.7063e+01	18.8433	54.226807	0.000193	1.925738	0.652458	0.000077
 475	4.7163e+01	18.8738	54.307550	0.000203	2.027092	0.686797	0.000081
 476	4.7263e+01	18.9267	54.448850	0.000355	3.547412	1.201896	0.000142
 477	4.7362e+01	18.9572	54.557852	0.000274	2.736575	0.927177	0.000110
 478	4.7462e+01	18.9957	54.670892	0.000284	2.837929	0.961516	0.000114
 479	4.7561e+01	19.0422	54.800081	0.000324	3.243348	1.098876	0.000130
 480	4.7660e+01	19.0872	54.901009	0.000253	2.533865	0.858497	0.000101
 481	4.7760e+01	19.1225	54.989826	0.000223	2.229802	0.755477	0.000089
 482	4.7859e+01	19.1642	55.114977	0.000314	3.141993	1.064536	0.000126
 483	4.7959e+01	19.1962	55.203794	0.000223	2.229802	0.755477	0.000089
 484	4.8059e+01	19.2428	55.341057	0.000345	3.446057	1.167556	0.000138
 485	4.8158e+01	19.2716	55.454096	0.000284	2.837929	0.961516	0.000114
 486	4.8258e+01	19.3150	55.567136	0.000284	2.837929	0.961516	0.000114
 487	4.8357e+01	19.3454	55.643842	0.000193	1.925738	0.652458	0.000077
 488	4.8456e+01	19.3936	55.760919	0.000294	2.939284	0.995856	0.000118
 489	4.8556e+01	19.4321	55.906256	0.000365	3.648766	1.236235	0.000146
 490	4.8656e+01	19.4706	55.995073	0.000223	2.229802	0.755477	0.000089
 491	4.8755e+01	19.5139	56.112150	0.000294	2.939284	0.995856	0.000118
 492	4.8855e+01	19.5508	56.221152	0.000274	2.736575	0.927177	0.000110
 493	4.8954e+01	19.5941	56.330155	0.000274	2.736575	0.927177	0.000110
 494	4.9053e+01	19.6438	56.406861	0.000193	1.925738	0.652458	0.000077
 495	4.9153e+01	19.6695	56.519900	0.000284	2.837929	0.961516	0.000114
 496	4.9252e+01	19.7192	56.632940	0.000284	2.837929	0.961516	0.000114
 497	4.9352e+01	19.7529	56.750017	0.000294	2.939284	0.995856	0.000118
 498	4.9452e+01	19.7962	56.850945	0.000253	2.533865	0.858497	0.000101
 499	4.9551e+01	19.8395	56.996282	0.000365	3.648766	1.236235	0.000146
 500	4.9651e+01	19.8748	57.105285	0.000274	2.736575	0.927177	0.000110
 501	4.9750e+01	19.9133	57.234473	0.000324	3.243348	1.098876	0.000130
 502	4.9849e+01	19.9567	57.323290	0.000223	2.229802	0.755477	0.000089
 503	4.9949e+01	19.9936	57.391922	0.000172	1.723028	0.583778	0.000069
 504	5.0048e+01	19.9567	57.355587	0.000091	0.912192	0.309059	-0.000037
 505	5.0148e+01	19.9182	57.238510	0.000294	2.939284	0.995856	-0.000118
 506	5.0248e+01	19.8684	57.117396	0.000304	3.040638	1.030196	-0.000122
 507	5.0347e+01	19.8331	57.052802	0.000162	1.621674	0.549438	-0.000065
 508	5.0447e+01	19.8010	56.968022	0.000213	2.128447	0.721137	-0.000085
 509	5.0546e+01	19.7529	56.842871	0.000314	3.141993	1.064536	-0.000126
 510	5.0645e+01	19.7176	56.733869	0.000274	2.736575	0.927177	-0.000110
 511	5.0745e+01	19.6807	56.697534	0.000091	0.912192	0.309059	-0.000037
 512	5.0844e+01	19.6358	56.552197	0.000365	3.648766	1.236235	-0.000146
 513	5.0944e+01	19.6005	56.443195	0.000274	2.736575	0.927177	-0.000110
 514	5.1044e+01	19.5572	56.406861	0.000091	0.912192	0.309059	-0.000037
 515	5.1143e+01	19.5139	56.330155	0.000193	1.925738	0.652458	-0.000077
 516	5.1242e+01	19.4818	56.176744	0.000385	3.851475	1.304915	-0.000154
 517	5.1342e+01	19.4401	56.059667	0.000294	2.939284	0.995856	-0.000118
 518	5.1441e+01	19.4048	55.946627	0.000284	2.837929	0.961516	-0.000114
 519	5.1541e+01	19.3567	55.869921	0.000193	1.925738	0.652458	-0.000077
 520	5.1641e+01	19.3246	55.789179	0.000203	2.027092	0.686797	-0.000081
 521	5.1740e+01	19.2716	55.700362	0.000223	2.229802	0.755477	-0.000089
 522	5.1840e+01	19.2444	55.599433	0.000253	2.533865	0.858497	-0.000101
 523	5.1939e+01	19.1979	55.474282	0.000314	3.141993	1.064536	-0.000126
 524	5.2038e+01	19.1674	55.385465	0.000223	2.229802	0.755477	-0.000089
 525	5.2138e+01	19.1160	55.264351	0.000304	3.040638	1.030196	-0.000122
 526	5.2237e+01	19.0807	55.199757	0.000162	1.621674	0.549438	-0.000065
 527	5.2337e+01	19.0422	55.062494	0.000345	3.446057	1.167556	-0.000138
 528	5.2437e+01	18.9925	54.981752	0.000203	2.027092	0.686797	-0.000081
 529	5.2536e+01	18.9540	54.892935	0.000223	2.229802	0.755477	-0.000089
 530	5.2636e+01	18.9203	54.824303	0.000172	1.723028	0.583778	-0.000069
 531	5.2735e+01	18.8786	54.711264	0.000284	2.837929	0.961516	-0.000114
 532	5.2834e+01	18.8401	54.606298	0.000264	2.635220	0.892837	-0.000105
 533	5.2934e+01	18.8016	54.485184	0.000304	3.040638	1.030196	-0.000122
 534	5.3033e+01	18.7695	54.412515	0.000182	1.824383	0.618118	-0.000073
 535	5.3133e+01	18.7198	54.242956	0.000426	4.256894	1.442275	-0.000170
 536	5.3233e+01	18.6893	54.190473	0.000132	1.317610	0.446418	-0.000053
 537	5.3332e+01	18.6396	54.097619	0.000233	2.331156	0.789817	-0.000093
 538	5.3431e+01	18.6027	53.980542	0.000294	2.939284	0.995856	-0.000118
 539	5.3531e+01	18.5626	53.903836	0.000193	1.925738	0.652458	-0.000077
 540	5.3630e+01	18.5241	53.766574	0.000345	3.446057	1.167556	-0.000138
 541	5.3730e+01	18.4872	53.669683	0.000243	2.432511	0.824157	-0.000097
 542	5.3830e+01	18.4455	53.588940	0.000203	2.027092	0.686797	-0.000081
 543	5.3929e+01	18.4038	53.479937	0.000274	2.736575	0.927177	-0.000110
 544	5.4029e+01	18.3620	53.350749	0.000324	3.243348	1.098876	-0.000130
 545	5.4128e+01	18.3235	53.229635	0.000304	3.040638	1.030196	-0.000122
 546	5.4227e+01	18.2770	53.177152	0.000132	1.317610	0.446418	-0.000053
 547	5.4327e+01	18.2353	53.039889	0.000345	3.446057	1.167556	-0.000138
 548	5.4426e+01	18.2096	52.947035	0.000233	2.331156	0.789817	-0.000093
 549	5.4526e+01	18.1679	52.870330	0.000193	1.925738	0.652458	-0.000077
 550	5.4626e+01	18.1198	52.765364	0.000264	2.635220	0.892837	-0.000105
 551	5.4725e+01	18.0829	52.676547	0.000223	2.229802	0.755477	-0.000089
 552	5.4825e+01	18.0380	52.571582	0.000264	2.635220	0.892837	-0.000105
 553	5.4924e+01	18.0027	52.486802	0.000213	2.128447	0.721137	-0.000085
 554	5.5023e+01	17.9578	52.369725	0.000294	2.939284	0.995856	-0.000118
 555	5.5123e+01	17.9225	52.276871	0.000233	2.331156	0.789817	-0.000093
 556	5.5222e+01	17.8856	52.135571	0.000355	3.547412	1.201896	-0.000142
 557	5.5322e+01	17.8439	52.083088	0.000132	1.317610	0.446418	-0.000053
 558	5.5422e+01	17.8006	51.957937	0.000314	3.141993	1.064536	-0.000126
 559	5.5521e+01	17.7669	51.865083	0.000233	2.331156	0.789817	-0.000093
 560	5.5620e+01	17.7236	51.719746	0.000365	3.648766	1.236235	-0.000146
 561	5.5720e+01	17.6931	51.671300	0.000122	1.216255	0.412078	-0.000049
 562	5.5819e+01	17.6530	51.558261	0.000284	2.837929	0.961516	-0.000114
 563	5.5919e+01	17.6032	51.445221	0.000284	2.837929	0.961516	-0.000114
 564	5.6019e+01	17.5567	51.352367	0.000233	2.331156	0.789817	-0.000093
 565	5.6118e+01	17.5214	51.251438	0.000253	2.533865	0.858497	-0.000101
 566	5.6218e+01	17.4861	51.170695	0.000203	2.027092	0.686797	-0.000081
 567	5.6317e+01	17.4541	51.033433	0.000345	3.446057	1.167556	-0.000138
 568	5.6416e+01	17.4011	50.964802	0.000172	1.723028	0.583778	-0.000069
 569	5.6516e+01	17.3642	50.843687	0.000304	3.040638	1.030196	-0.000122
 570	5.6615e+01	17.3257	50.746796	0.000243	2.432511	0.824157	-0.000097
 571	5.6715e+01	17.2824	50.617608	0.000324	3.243348	1.098876	-0.000130
 572	5.6815e+01	17.2503	50.536865	0.000203	2.027092	0.686797	-0.000081
 573	5.6914e+01	17.2022	50.427863	0.000274	2.736575	0.927177	-0.000110
 574	5.7014e+01	17.1637	50.294637	0.000334	3.344702	1.133216	-0.000134
 575	5.7113e+01	17.1284	50.226006	0.000172	1.723028	0.583778	-0.000069
 576	5.7212e+01	17.0947	50.125077	0.000253	2.533865	0.858497	-0.000101
 577	5.7312e+01	17.0402	50.016075	0.000274	2.736575	0.927177	-0.000110
 578	5.7411e+01	17.0001	49.927258	0.000223	2.229802	0.755477	-0.000089
 579	5.7511e+01	16.9616	49.806144	0.000304	3.040638	1.030196	-0.000122
 580	5.7611e+01	16.9263	49.713289	0.000233	2.331156	0.789817	-0.000093
 581	5.7710e+01	16.8862	49.588138	0.000314	3.141993	1.064536	-0.000126
 582	5.7809e+01	16.8509	49.475098	0.000284	2.837929	0.961516	-0.000114
 583	5.7909e+01	16.8059	49.406467	0.000172	1.723028	0.583778	-0.000069
 584	5.8008e+01	16.7674	49.269205	0.000345	3.446057	1.167556	-0.000138
 585	5.8108e+01	16.7289	49.188462	0.000203	2.027092	0.686797	-0.000081
 586	5.8208e+01	16.6872	49.063311	0.000314	3.141993	1.064536	-0.000126
 587	5.8307e+01	16.6503	48.930085	0.000334	3.344702	1.133216	-0.000134
 588	5.8407e+01	16.6166	48.897788	0.000081	0.810837	0.274719	-0.000032
 589	5.8506e+01	16.5830	48.776674	0.000304	3.040638	1.030196	-0.000122
 590	5.8605e+01	16.5204	48.679783	0.000243	2.432511	0.824157	-0.000097
 591	5.8705e+01	16.4835	48.542520	0.000345	3.446057	1.167556	-0.000138
 592	5.8804e+01	16.4530	48.469852	0.000182	1.824383	0.618118	-0.000073
 593	5.8904e+01	16.4017	48.352775	0.000294	2.939284	0.995856	-0.000118
 594	5.9004e+01	16.3728	48.251846	0.000253	2.533865	0.858497	-0.000101
 595	5.9103e+01	16.3263	48.154955	0.000243	2.432511	0.824157	-0.000097
 596	5.9203e+01	16.2926	48.058064	0.000243	2.432511	0.824157	-0.000097
 597	5.9302e+01	16.2605	47.904653	0.000385	3.851475	1.304915	-0.000154
 598	5.9401e+01	16.1979	47.811799	0.000233	2.331156	0.789817	-0.000093
 599	5.9501e+01	16.1707	47.710870	0.000253	2.533865	0.858497	-0.000101
 600	5.9600e+01	16.1290	47.609942	0.000253	2.533865	0.858497	-0.000101
 601	5.9700e+01	16.0937	47.525162	0.000213	2.128447	0.721137	-0.000085
 602	5.9800e+01	16.0584	47.412122	0.000284	2.837929	0.961516	-0.000114
 603	5.9899e+01	16.0086	47.286971	0.000314	3.141993	1.064536	-0.000126
 604	5.9998e+01	15.9685	47.157783	0.000324	3.243348	1.098876	-0.000130
 605	6.0098e+01	15.9300	47.077040	0.000203	2.027092	0.686797	-0.000081
 606	6.0197e+01	15.8931	46.988223	0.000223	2.229802	0.755477	-0.000089
 607	6.0297e+01	15.8514	46.875183	0.000284	2.837929	0.961516	-0.000114
 608	6.0397e+01	15.8097	46.758106	0.000294	2.939284	0.995856	-0.000118
 609	6.0496e+01	15.7760	46.649103	0.000274	2.736575	0.927177	-0.000110
 610	6.0596e+01	15.7327	46.544138	0.000264	2.635220	0.892837	-0.000105
 611	6.0695e+01	15.6894	46.443210	0.000253	2.533865	0.858497	-0.000101
 612	6.0794e+01	15.6477	46.305947	0.000345	3.446057	1.167556	-0.000138
 613	6.0894e+01	15.6156	46.209056	0.000243	2.432511	0.824157	-0.000097
 614	6.0993e+01	15.5723	46.116202	0.000233	2.331156	0.789817	-0.000093
 615	6.1093e+01	15.5354	45.999125	0.000294	2.939284	0.995856	-0.000118
 616	6.1193e+01	15.4953	45.906270	0.000233	2.331156	0.789817	-0.000093
 617	6.1292e+01	15.4520	45.781119	0.000314	3.141993	1.064536	-0.000126
 618	6.1392e+01	15.4103	45.655968	0.000314	3.141993	1.064536	-0.000126
 619	6.1491e+01	15.3718	45.538891	0.000294	2.939284	0.995856	-0.000118
 620	6.1590e+01	15.3317	45.450074	0.000223	2.229802	0.755477	-0.000089
 621	6.1690e+01	15.2964	45.312812	0.000345	3.446057	1.167556	-0.000138
 622	6.1789e+01	15.2482	45.228032	0.000213	2.128447	0.721137	-0.000085
 623	6.1889e+01	15.2178	45.131140	0.000243	2.432511	0.824157	-0.000097
 624	6.1989e+01	15.1664	44.977729	0.000385	3.851475	1.304915	-0.000154
 625	6.2088e+01	15.1424	44.884875	0.000233	2.331156	0.789817	-0.000093
 626	6.2188e+01	15.0958	44.771835	0.000284	2.837929	0.961516	-0.000114
 627	6.2287e+01	15.0493	44.683018	0.000223	2.229802	0.755477	-0.000089
 628	6.2386e+01	15.0092	44.549793	0.000334	3.344702	1.133216	-0.000134
 629	6.2486e+01	14.9707	44.497310	0.000132	1.317610	0.446418	-0.000053
 630	6.2586e+01	14.9274	44.327750	0.000426	4.256894	1.442275	-0.000170
 631	6.2685e+01	14.8921	44.218748	0.000274	2.736575	0.927177	-0.000110
 632	6.2785e+01	14.8488	44.133968	0.000213	2.128447	0.721137	-0.000085
 633	6.2884e+01	14.8119	43.992668	0.000355	3.547412	1.201896	-0.000142
 634	6.2983e+01	14.7782	43.871554	0.000304	3.040638	1.030196	-0.000122
 635	6.3083e+01	14.7317	43.758514	0.000284	2.837929	0.961516	-0.000114
 636	6.3182e+01	14.7060	43.681809	0.000193	1.925738	0.652458	-0.000077
 637	6.3282e+01	14.6595	43.520323	0.000405	4.054185	1.373595	-0.000162
 638	6.3382e+01	14.6194	43.459766	0.000152	1.520319	0.515098	-0.000061
 639	6.3481e+01	14.5793	43.326541	0.000334	3.344702	1.133216	-0.000134
 640	6.3581e+01	14.5424	43.217538	0.000274	2.736575	0.927177	-0.000110
 641	6.3680e+01	14.4958	43.092387	0.000314	3.141993	1.064536	-0.000126
 642	6.3779e+01	14.4525	43.011644	0.000203	2.027092	0.686797	-0.000081
 643	6.3879e+01	14.4092	42.866307	0.000365	3.648766	1.236235	-0.000146
 644	6.3978e+01	14.3707	42.785565	0.000203	2.027092	0.686797	-0.000081
 645	6.4078e+01	14.3370	42.676562	0.000274	2.736575	0.927177	-0.000110
 646	6.4177e+01	14.2953	42.523151	0.000385	3.851475	1.304915	-0.000154
 647	6.4277e+01	14.2616	42.406074	0.000294	2.939284	0.995856	-0.000118
 648	6.4376e+01	14.2167	42.309183	0.000243	2.432511	0.824157	-0.000097
 649	6.4476e+01	14.1814	42.188068	0.000304	3.040638	1.030196	-0.000122
 650	6.4576e+01	14.1365	42.135586	0.000132	1.317610	0.446418	-0.000053
 651	6.4675e+01	14.0980	41.974100	0.000405	4.054185	1.373595	-0.000162
 652	6.4775e+01	14.0579	41.877209	0.000243	2.432511	0.824157	-0.000097
 653	6.4874e+01	14.0194	41.748021	0.000324	3.243348	1.098876	-0.000130
 654	6.4974e+01	13.9809	41.622869	0.000314	3.141993	1.064536	-0.000126
 655	6.5073e+01	13.9376	41.566350	0.000142	1.418965	0.480758	-0.000057
 656	6.5172e+01	13.8959	41.404864	0.000405	4.054185	1.373595	-0.000162
 657	6.5272e+01	13.8574	41.291824	0.000284	2.837929	0.961516	-0.000114
 658	6.5371e+01	13.8173	41.190896	0.000253	2.533865	0.858497	-0.000101
 659	6.5471e+01	13.7772	41.077856	0.000284	2.837929	0.961516	-0.000114
 660	6.5570e+01	13.7435	40.944631	0.000334	3.344702	1.133216	-0.000134
 661	6.5670e+01	13.6969	40.791219	0.000385	3.851475	1.304915	-0.000154
 662	6.5769e+01	13.6649	40.750848	0.000101	1.013546	0.343399	-0.000041
 663	6.5869e+01	13.6119	40.666068	0.000213	2.128447	0.721137	-0.000085
 664	6.5969e+01	13.5734	40.508620	0.000395	3.952830	1.339255	-0.000158
 665	6.6068e+01	13.5397	40.407692	0.000253	2.533865	0.858497	-0.000101
 666	6.6168e+01	13.4980	40.258318	0.000375	3.750121	1.270575	-0.000150
 667	6.6267e+01	13.4611	40.153352	0.000264	2.635220	0.892837	-0.000105
 668	6.6367e+01	13.4178	40.080684	0.000182	1.824383	0.618118	-0.000073
 669	6.6466e+01	13.3905	39.951495	0.000324	3.243348	1.098876	-0.000130
 670	6.6566e+01	13.3424	39.794047	0.000395	3.952830	1.339255	-0.000158
 671	6.6665e+01	13.3039	39.729453	0.000162	1.621674	0.549438	-0.000065
 672	6.6764e+01	13.2606	39.596227	0.000334	3.344702	1.133216	-0.000134
 673	6.6864e+01	13.2237	39.463002	0.000334	3.344702	1.133216	-0.000134
 674	6.6963e+01	13.1772	39.370148	0.000233	2.331156	0.789817	-0.000093
 675	6.7063e+01	13.1467	39.224811	0.000365	3.648766	1.236235	-0.000146
 676	6.7162e+01	13.1066	39.176365	0.000122	1.216255	0.412078	-0.000049
 677	6.7262e+01	13.0552	38.994694	0.000456	4.560958	1.545294	-0.000183
 678	6.7362e+01	13.0167	38.926063	0.000172	1.723028	0.583778	-0.000069
 679	6.7461e+01	12.9831	38.796874	0.000324	3.243348	1.098876	-0.000130
 680	6.7561e+01	12.9446	38.659612	0.000345	3.446057	1.167556	-0.000138
 681	6.7660e+01	12.9093	38.550609	0.000274	2.736575	0.927177	-0.000110
 682	6.7760e+01	12.8724	38.453718	0.000243	2.432511	0.824157	-0.000097
 683	6.7859e+01	12.8274	38.336641	0.000294	2.939284	0.995856	-0.000118
 684	6.7959e+01	12.7793	38.251861	0.000213	2.128447	0.721137	-0.000085
 685	6.8058e+01	12.7504	38.134784	0.000294	2.939284	0.995856	-0.000118
 686	6.8157e+01	12.7039	37.993484	0.000355	3.547412	1.201896	-0.000142
 687	6.8257e+01	12.6606	37.892556	0.000253	2.533865	0.858497	-0.000101
 688	6.8356e+01	12.6349	37.775479	0.000294	2.939284	0.995856	-0.000118
 689	6.8456e+01	12.5820	37.678588	0.000243	2.432511	0.824157	-0.000097
 690	6.8555e+01	12.5579	37.553437	0.000314	3.141993	1.064536	-0.000126
 691	6.8655e+01	12.5018	37.468657	0.000213	2.128447	0.721137	-0.000085
 692	6.8754e+01	12.4649	37.335431	0.000334	3.344702	1.133216	-0.000134
 693	6.8854e+01	12.4328	37.230466	0.000264	2.635220	0.892837	-0.000105
 694	6.8954e+01	12.3847	37.105315	0.000314	3.141993	1.064536	-0.000126
 695	6.9053e+01	12.3558	36.976126	0.000324	3.243348	1.098876	-0.000130
 696	6.9153e+01	12.3061	36.875198	0.000253	2.533865	0.858497	-0.000101
 697	6.9252e+01	12.2756	36.774269	0.000253	2.533865	0.858497	-0.000101
 698	6.9352e+01	12.2243	36.673341	0.000253	2.533865	0.858497	-0.000101
 699	6.9451e+01	12.1825	36.568376	0.000264	2.635220	0.892837	-0.000105
 700	6.9550e+01	12.1440	36.435150	0.000334	3.344702	1.133216	-0.000134
 701	6.9650e+01	12.1152	36.326147	0.000274	2.736575	0.927177	-0.000110
 702	6.9749e+01	12.0606	36.188885	0.000345	3.446057	1.167556	-0.000138
 703	6.9849e+01	12.0301	36.083919	0.000264	2.635220	0.892837	-0.000105
 704	6.9948e+01	11.9900	36.011251	0.000182	1.824383	0.618118	-0.000073
 705	7.0048e+01	11.9435	35.886100	0.000314	3.141993	1.064536	-0.000126
 706	7.0147e+01	11.9082	35.773060	0.000284	2.837929	0.961516	-0.000114
 707	7.0247e+01	11.8713	35.668094	0.000264	2.635220	0.892837	-0.000105
 708	7.0347e+01	11.8232	35.538906	0.000324	3.243348	1.098876	-0.000130
 709	7.0446e+01	11.7895	35.421829	0.000294	2.939284	0.995856	-0.000118
 710	7.0546e+01	11.7494	35.292641	0.000324	3.243348	1.098876	-0.000130
 711	7.0645e+01	11.7093	35.175564	0.000294	2.939284	0.995856	-0.000118
 712	7.0745e+01	11.6580	35.082710	0.000233	2.331156	0.789817	-0.000093
 713	7.0844e+01	11.6323	34.965633	0.000294	2.939284	0.995856	-0.000118
 714	7.0944e+01	11.5906	34.840481	0.000314	3.141993	1.064536	-0.000126
 715	7.1043e+01	11.5537	34.727442	0.000284	2.837929	0.961516	-0.000114
 716	7.1142e+01	11.5152	34.630550	0.000243	2.432511	0.824157	-0.000097
 717	7.1242e+01	11.4703	34.517511	0.000284	2.837929	0.961516	-0.000114
 718	7.1341e+01	11.4318	34.351988	0.000416	4.155539	1.407935	-0.000166
 719	7.1441e+01	11.4013	34.259134	0.000233	2.331156	0.789817	-0.000093
 720	7.1540e+01	11.3580	34.174354	0.000213	2.128447	0.721137	-0.000085
 721	7.1640e+01	11.3114	34.089574	0.000213	2.128447	0.721137	-0.000085
 722	7.1740e+01	11.2762	33.956349	0.000334	3.344702	1.133216	-0.000134
 723	7.1839e+01	11.2280	33.875606	0.000203	2.027092	0.686797	-0.000081
 724	7.1939e+01	11.1927	33.730269	0.000365	3.648766	1.236235	-0.000146
 725	7.2038e+01	11.1510	33.617229	0.000284	2.837929	0.961516	-0.000114
 726	7.2138e+01	11.1045	33.496115	0.000304	3.040638	1.030196	-0.000122
 727	7.2237e+01	11.0676	33.362890	0.000334	3.344702	1.133216	-0.000134
 728	7.2337e+01	11.0243	33.270036	0.000233	2.331156	0.789817	-0.000093
 729	7.2436e+01	10.9938	33.148922	0.000304	3.040638	1.030196	-0.000122
 730	7.2535e+01	10.9585	33.035882	0.000284	2.837929	0.961516	-0.000114
 731	7.2635e+01	10.9168	32.967250	0.000172	1.723028	0.583778	-0.000069
 732	7.2734e+01	10.8703	32.821914	0.000365	3.648766	1.236235	-0.000146
 733	7.2834e+01	10.8318	32.729059	0.000233	2.331156	0.789817	-0.000093
 734	7.2933e+01	10.7965	32.632168	0.000243	2.432511	0.824157	-0.000097
 735	7.3033e+01	10.7500	32.511054	0.000304	3.040638	1.030196	-0.000122
 736	7.3132e+01	10.7050	32.365717	0.000365	3.648766	1.236235	-0.000146
 737	7.3232e+01	10.6698	32.297086	0.000172	1.723028	0.583778	-0.000069
 738	7.3332e+01	10.6345	32.151749	0.000365	3.648766	1.236235	-0.000146
 739	7.3431e+01	10.6040	32.046783	0.000264	2.635220	0.892837	-0.000105
 740	7.3531e+01	10.5559	31.913558	0.000334	3.344702	1.133216	-0.000134
 741	7.3630e+01	10.5125	31.820704	0.000233	2.331156	0.789817	-0.000093
 742	7.3730e+01	10.4692	31.687478	0.000334	3.344702	1.133216	-0.000134
 743	7.3829e+01	10.4387	31.602699	0.000213	2.128447	0.721137	-0.000085
 744	7.3928e+01	10.3858	31.473510	0.000324	3.243348	1.098876	-0.000130
 745	7.4028e+01	10.3521	31.376619	0.000243	2.432511	0.824157	-0.000097
 746	7.4127e+01	10.3248	31.259542	0.000294	2.939284	0.995856	-0.000118
 747	7.4227e+01	10.2751	31.089982	0.000426	4.256894	1.442275	-0.000170
 748	7.4326e+01	10.2302	31.009240	0.000203	2.027092	0.686797	-0.000081
 749	7.4426e+01	10.1901	30.880051	0.000324	3.243348	1.098876	-0.000130
 750	7.4525e+01	10.1500	30.799309	0.000203	2.027092	0.686797	-0.000081
 751	7.4625e+01	10.1227	30.698380	0.000253	2.533865	0.858497	-0.000101
 752	7.4725e+01	10.0762	30.544969	0.000385	3.851475	1.304915	-0.000154
 753	7.4824e+01	10.0297	30.435966	0.000274	2.736575	0.927177	-0.000110
 754	7.4924e+01	9.9928	30.294667	0.000355	3.547412	1.201896	-0.000142
 755	7.5023e+01	9.9607	30.185664	0.000274	2.736575	0.927177	-0.000110
 756	7.5123e+01	9.9190	30.108958	0.000193	1.925738	0.652458	-0.000077
 757	7.5222e+01	9.8773	29.979770	0.000324	3.243348	1.098876	-0.000130
 758	7.5322e+01	9.8452	29.886916	0.000233	2.331156	0.789817	-0.000093
 759	7.5421e+01	9.7987	29.713319	0.000436	4.358248	1.476615	-0.000174
 760	7.5520e+01	9.7618	29.644688	0.000172	1.723028	0.583778	-0.000069
 761	7.5620e+01	9.7152	29.531648	0.000284	2.837929	0.961516	-0.000114
 762	7.5719e+01	9.6815	29.414571	0.000294	2.939284	0.995856	-0.000118
 763	7.5819e+01	9.6350	29.273271	0.000355	3.547412	1.201896	-0.000142
 764	7.5918e+01	9.5949	29.180417	0.000233	2.331156	0.789817	-0.000093
 765	7.6018e+01	9.5532	29.031043	0.000375	3.750121	1.270575	-0.000150
 766	7.6118e+01	9.5179	28.970486	0.000152	1.520319	0.515098	-0.000061
 767	7.6217e+01	9.4842	28.809001	0.000405	4.054185	1.373595	-0.000162
 768	7.6317e+01	9.4393	28.724221	0.000213	2.128447	0.721137	-0.000085
 769	7.6416e+01	9.3976	28.623292	0.000253	2.533865	0.858497	-0.000101
 770	7.6516e+01	9.3639	28.486030	0.000345	3.446057	1.167556	-0.000138
 771	7.6615e+01	9.3174	28.300322	0.000466	4.662312	1.579634	-0.000187
 772	7.6715e+01	9.2757	28.211505	0.000223	2.229802	0.755477	-0.000089
 773	7.6814e+01	9.2372	28.070205	0.000355	3.547412	1.201896	-0.000142
 774	7.6913e+01	9.2019	27.997536	0.000182	1.824383	0.618118	-0.000073
 775	7.7013e+01	9.1489	27.852199	0.000365	3.648766	1.236235	-0.000146
 776	7.7112e+01	9.1233	27.767420	0.000213	2.128447	0.721137	-0.000085
 777	7.7212e+01	9.0816	27.642268	0.000314	3.141993	1.064536	-0.000126
 778	7.7311e+01	9.0382	27.529229	0.000284	2.837929	0.961516	-0.000114
 779	7.7411e+01	8.9965	27.383892	0.000365	3.648766	1.236235	-0.000146
 780	7.7510e+01	8.9596	27.287000	0.000243	2.432511	0.824157	-0.000097
 781	7.7610e+01	8.9163	27.173961	0.000284	2.837929	0.961516	-0.000114
 782	7.7710e+01	8.8810	27.044772	0.000324	3.243348	1.098876	-0.000130
 783	7.7809e+01	8.8281	26.919621	0.000314	3.141993	1.064536	-0.000126
 784	7.7909e+01	8.8024	26.786396	0.000334	3.344702	1.133216	-0.000134
 785	7.8008e+01	8.7591	26.701616	0.000213	2.128447	0.721137	-0.000085
 786	7.8108e+01	8.7110	26.568390	0.000334	3.344702	1.133216	-0.000134
 787	7.8207e+01	8.6853	26.463425	0.000264	2.635220	0.892837	-0.000105
 788	7.8306e+01	8.6372	26.285791	0.000446	4.459603	1.510954	-0.000179
 789	7.8406e+01	8.5987	26.205048	0.000203	2.027092	0.686797	-0.000081
 790	7.8505e+01	8.5586	26.063748	0.000355	3.547412	1.201896	-0.000142
 791	7.8605e+01	8.5265	25.962820	0.000253	2.533865	0.858497	-0.000101
 792	7.8704e+01	8.4816	25.833632	0.000324	3.243348	1.098876	-0.000130
 793	7.8804e+01	8.4511	25.712518	0.000304	3.040638	1.030196	-0.000122
 794	7.8903e+01	8.3933	25.603515	0.000274	2.736575	0.927177	-0.000110
 795	7.9003e+01	8.3693	25.482401	0.000304	3.040638	1.030196	-0.000122
 796	7.9103e+01	8.3228	25.361287	0.000304	3.040638	1.030196	-0.000122
 797	7.9202e+01	8.2794	25.248247	0.000284	2.837929	0.961516	-0.000114
 798	7.9302e+01	8.2474	25.106947	0.000355	3.547412	1.201896	-0.000142
 799	7.9401e+01	8.1976	24.997944	0.000274	2.736575	0.927177	-0.000110
 800	7.9501e+01	8.1623	24.860682	0.000345	3.446057	1.167556	-0.000138
 801	7.9600e+01	8.1238	24.763791	0.000243	2.432511	0.824157	-0.000097
 802	7.9700e+01	8.0741	24.614417	0.000375	3.750121	1.270575	-0.000150
 803	7.9799e+01	8.0532	24.493303	0.000304	3.040638	1.030196	-0.000122
 804	7.9898e+01	8.0019	24.392374	0.000253	2.533865	0.858497	-0.000101
 805	7.9998e+01	7.9634	24.267223	0.000314	3.141993	1.064536	-0.000126
 806	8.0097e+01	7.9217	24.158220	0.000274	2.736575	0.927177	-0.000110
 807	8.0197e+01	7.8832	23.996735	0.000405	4.054185	1.373595	-0.000162
 808	8.0296e+01	7.8415	23.903881	0.000233	2.331156	0.789817	-0.000093
 809	8.0396e+01	7.8030	23.782767	0.000304	3.040638	1.030196	-0.000122
 810	8.0496e+01	7.7597	23.661653	0.000304	3.040638	1.030196	-0.000122
 811	8.0595e+01	7.7148	23.508241	0.000385	3.851475	1.304915	-0.000154
 812	8.0695e+01	7.6859	23.391164	0.000294	2.939284	0.995856	-0.000118
 813	8.0794e+01	7.6442	23.270050	0.000304	3.040638	1.030196	-0.000122
 814	8.0894e+01	7.5960	23.193345	0.000193	1.925738	0.652458	-0.000077
 815	8.0993e+01	7.5720	23.043971	0.000375	3.750121	1.270575	-0.000150
 816	8.1093e+01	7.5255	22.926894	0.000294	2.939284	0.995856	-0.000118
 817	8.1192e+01	7.4934	22.821928	0.000264	2.635220	0.892837	-0.000105
 818	8.1291e+01	7.4324	22.672554	0.000375	3.750121	1.270575	-0.000150
 819	8.1391e+01	7.4051	22.543366	0.000324	3.243348	1.098876	-0.000130
 820	8.1490e+01	7.3747	22.418215	0.000314	3.141993	1.064536	-0.000126
 821	8.1590e+01	7.3362	22.325361	0.000233	2.331156	0.789817	-0.000093
 822	8.1689e+01	7.2864	22.184061	0.000355	3.547412	1.201896	-0.000142
 823	8.1789e+01	7.2447	22.054873	0.000324	3.243348	1.098876	-0.000130
 824	8.1888e+01	7.2062	21.925684	0.000324	3.243348	1.098876	-0.000130
 825	8.1988e+01	7.1741	21.800533	0.000314	3.141993	1.064536	-0.000126
 826	8.2088e+01	7.1260	21.683456	0.000294	2.939284	0.995856	-0.000118
 827	8.2187e+01	7.0923	21.542156	0.000355	3.547412	1.201896	-0.000142
 828	8.2287e+01	7.0506	21.421042	0.000304	3.040638	1.030196	-0.000122
 829	8.2386e+01	7.0057	21.328188	0.000233	2.331156	0.789817	-0.000093
 830	8.2486e+01	6.9640	21.194963	0.000334	3.344702	1.133216	-0.000134
 831	8.2585e+01	6.9207	21.045589	0.000375	3.750121	1.270575	-0.000150
 832	8.2684e+01	6.8918	20.932549	0.000284	2.837929	0.961516	-0.000114
 833	8.2784e+01	6.8372	20.811435	0.000304	3.040638	1.030196	-0.000122
 834	8.2883e+01	6.8036	20.710506	0.000253	2.533865	0.858497	-0.000101
 835	8.2983e+01	6.7683	20.549021	0.000405	4.054185	1.373595	-0.000162
 836	8.3082e+01	6.7201	20.468278	0.000203	2.027092	0.686797	-0.000081
 837	8.3182e+01	6.6913	20.318904	0.000375	3.750121	1.270575	-0.000150
 838	8.3281e+01	6.6415	20.201827	0.000294	2.939284	0.995856	-0.000118
 839	8.3381e+01	6.6094	20.064565	0.000345	3.446057	1.167556	-0.000138
 840	8.3481e+01	6.5774	19.943451	0.000304	3.040638	1.030196	-0.000122
 841	8.3580e+01	6.5212	19.838485	0.000264	2.635220	0.892837	-0.000105
 842	8.3680e+01	6.4875	19.741594	0.000243	2.432511	0.824157	-0.000097
 843	8.3779e+01	6.4474	19.596257	0.000365	3.648766	1.236235	-0.000146
 844	8.3879e+01	6.4169	19.450920	0.000365	3.648766	1.236235	-0.000146
 845	8.3978e+01	6.3768	19.354029	0.000243	2.432511	0.824157	-0.000097
 846	8.4078e+01	6.3351	19.220803	0.000334	3.344702	1.133216	-0.000134
 847	8.4177e+01	6.2886	19.087578	0.000334	3.344702	1.133216	-0.000134
 848	8.4276e+01	6.2501	18.966464	0.000304	3.040638	1.030196	-0.000122
 849	8.4376e+01	6.2068	18.877647	0.000223	2.229802	0.755477	-0.000089
 850	8.4475e+01	6.1715	18.712124	0.000416	4.155539	1.407935	-0.000166
 851	8.4575e+01	6.1266	18.635419	0.000193	1.925738	0.652458	-0.000077
 852	8.4674e+01	6.0929	18.498156	0.000345	3.446057	1.167556	-0.000138
 853	8.4774e+01	6.0560	18.332633	0.000416	4.155539	1.407935	-0.000166
 854	8.4874e+01	6.0111	18.219594	0.000284	2.837929	0.961516	-0.000114
 855	8.4973e+01	5.9694	18.126739	0.000233	2.331156	0.789817	-0.000093
 856	8.5073e+01	5.9308	17.985440	0.000355	3.547412	1.201896	-0.000142
 857	8.5172e+01	5.8956	17.860289	0.000314	3.141993	1.064536	-0.000126
 858	8.5272e+01	5.8442	17.751286	0.000274	2.736575	0.927177	-0.000110
 859	8.5371e+01	5.8089	17.618060	0.000334	3.344702	1.133216	-0.000134
 860	8.5471e+01	5.7784	17.496946	0.000304	3.040638	1.030196	-0.000122
 861	8.5570e+01	5.7383	17.404092	0.000233	2.331156	0.789817	-0.000093
 862	8.5669e+01	5.6966	17.250681	0.000385	3.851475	1.304915	-0.000154
 863	8.5769e+01	5.6549	17.153790	0.000243	2.432511	0.824157	-0.000097
 864	8.5868e+01	5.6084	16.992304	0.000405	4.054185	1.373595	-0.000162
 865	8.5968e+01	5.5731	16.879265	0.000284	2.837929	0.961516	-0.000114
 866	8.6067e+01	5.5346	16.758150	0.000304	3.040638	1.030196	-0.000122
 867	8.6167e+01	5.4833	16.632999	0.000314	3.141993	1.064536	-0.000126
 868	8.6266e+01	5.4592	16.511885	0.000304	3.040638	1.030196	-0.000122
 869	8.6366e+01	5.4175	16.390771	0.000304	3.040638	1.030196	-0.000122
 870	8.6466e+01	5.3758	16.269657	0.000304	3.040638	1.030196	-0.000122
 871	8.6565e+01	5.3277	16.152580	0.000294	2.939284	0.995856	-0.000118
 872	8.6665e+01	5.2988	16.035503	0.000294	2.939284	0.995856	-0.000118
 873	8.6764e+01	5.2587	15.894203	0.000355	3.547412	1.201896	-0.000142
 874	8.6864e+01	5.2170	15.793275	0.000253	2.533865	0.858497	-0.000101
 875	8.6963e+01	5.1785	15.688309	0.000264	2.635220	0.892837	-0.000105
 876	8.7063e+01	5.1271	15.538935	0.000375	3.750121	1.270575	-0.000150
 877	8.7162e+01	5.0966	15.409747	0.000324	3.243348	1.098876	-0.000130
 878	8.7261e+01	5.0517	15.320930	0.000223	2.229802	0.755477	-0.000089
 879	8.7361e+01	5.0180	15.163482	0.000395	3.952830	1.339255	-0.000158
 880	8.7460e+01	4.9860	15.046405	0.000294	2.939284	0.995856	-0.000118
 881	8.7560e+01	4.9378	14.925291	0.000304	3.040638	1.030196	-0.000122
 882	8.7659e+01	4.8945	14.836474	0.000223	2.229802	0.755477	-0.000089
 883	8.7759e+01	4.8448	14.699211	0.000345	3.446057	1.167556	-0.000138
 884	8.7859e+01	4.8159	14.582134	0.000294	2.939284	0.995856	-0.000118
 885	8.7958e+01	4.7742	14.428723	0.000385	3.851475	1.304915	-0.000154
 886	8.8058e+01	4.7421	14.323758	0.000264	2.635220	0.892837	-0.000105
 887	8.8157e+01	4.7020	14.190532	0.000334	3.344702	1.133216	-0.000134
 888	8.8257e+01	4.6635	14.101715	0.000223	2.229802	0.755477	-0.000089
 889	8.8356e+01	4.6202	13.960415	0.000355	3.547412	1.201896	-0.000142
 890	8.8456e+01	4.5753	13.851413	0.000274	2.736575	0.927177	-0.000110
 891	8.8555e+01	4.5368	13.734336	0.000294	2.939284	0.995856	-0.000118
 892	8.8654e+01	4.4999	13.609185	0.000314	3.141993	1.064536	-0.000126
 893	8.8754e+01	4.4582	13.475959	0.000334	3.344702	1.133216	-0.000134
 894	8.8853e+01	4.4197	13.358882	0.000294	2.939284	0.995856	-0.000118
 895	8.8953e+01	4.3763	13.221620	0.000345	3.446057	1.167556	-0.000138
 896	8.9052e+01	4.3346	13.120691	0.000253	2.533865	0.858497	-0.000101
 897	8.9152e+01	4.2993	12.975354	0.000365	3.648766	1.236235	-0.000146
 898	8.9251e+01	4.2544	12.870389	0.000264	2.635220	0.892837	-0.000105
 899	8.9351e+01	4.2159	12.712940	0.000395	3.952830	1.339255	-0.000158
 900	8.9451e+01	4.1758	12.620086	0.000233	2.331156	0.789817	-0.000093
 901	8.9550e+01	4.1373	12.474749	0.000365	3.648766	1.236235	-0.000146
 902	8.9650e+01	4.0988	12.398044	0.000193	1.925738	0.652458	-0.000077
 903	8.9749e+01	4.0603	12.256744	0.000355	3.547412	1.201896	-0.000142
 904	8.9849e+01	4.0234	12.131593	0.000314	3.141993	1.064536	-0.000126
 905	8.9948e+01	3.9817	12.022590	0.000274	2.736575	0.927177	-0.000110
 906	9.0047e+01	3.9352	11.889365	0.000334	3.344702	1.133216	-0.000134
 907	9.0147e+01	3.8903	11.764214	0.000314	3.141993	1.064536	-0.000126
 908	9.0246e+01	3.8630	11.618877	0.000365	3.648766	1.236235	-0.000146
 909	9.0346e+01	3.8229	11.509874	0.000274	2.736575	0.927177	-0.000110
 910	9.0445e+01	3.7780	11.408946	0.000253	2.533865	0.858497	-0.000101
 911	9.0545e+01	3.7363	11.267646	0.000355	3.547412	1.201896	-0.000142
 912	9.0644e+01	3.6978	11.134420	0.000334	3.344702	1.133216	-0.000134
 913	9.0744e+01	3.6673	11.049641	0.000213	2.128447	0.721137	-0.000085
 914	9.0844e+01	3.6256	10.920452	0.000324	3.243348	1.098876	-0.000130
 915	9.0943e+01	3.5806	10.811450	0.000274	2.736575	0.927177	-0.000110
 916	9.1043e+01	3.5438	10.666113	0.000365	3.648766	1.236235	-0.000146
 917	9.1142e+01	3.5101	10.536924	0.000324	3.243348	1.098876	-0.000130
 918	9.1242e+01	3.4587	10.444070	0.000233	2.331156	0.789817	-0.000093
 919	9.1341e+01	3.4234	10.294696	0.000375	3.750121	1.270575	-0.000150
 920	9.1441e+01	3.3833	10.185693	0.000274	2.736575	0.927177	-0.000110
 921	9.1540e+01	3.3400	10.060542	0.000314	3.141993	1.064536	-0.000126
 922	9.1639e+01	3.3015	9.979800	0.000203	2.027092	0.686797	-0.000081
 923	9.1739e+01	3.2678	9.826388	0.000385	3.851475	1.304915	-0.000154
 924	9.1838e+01	3.2181	9.685089	0.000355	3.547412	1.201896	-0.000142
 925	9.1938e+01	3.1748	9.576086	0.000274	2.736575	0.927177	-0.000110
 926	9.2037e+01	3.1475	9.434786	0.000355	3.547412	1.201896	-0.000142
 927	9.2137e+01	3.1090	9.329821	0.000264	2.635220	0.892837	-0.000105
 928	9.2237e+01	3.0641	9.204669	0.000314	3.141993	1.064536	-0.000126
 929	9.2336e+01	3.0240	9.063370	0.000355	3.547412	1.201896	-0.000142
 930	9.2436e+01	2.9855	8.958404	0.000264	2.635220	0.892837	-0.000105
 931	9.2535e+01	2.9357	8.841327	0.000294	2.939284	0.995856	-0.000118
 932	9.2635e+01	2.9037	8.716176	0.000314	3.141993	1.064536	-0.000126
 933	9.2734e+01	2.8603	8.566802	0.000375	3.750121	1.270575	-0.000150
 934	9.2834e+01	2.8154	8.453762	0.000284	2.837929	0.961516	-0.000114
 935	9.2933e+01	2.7833	8.304388	0.000375	3.750121	1.270575	-0.000150
 936	9.3032e+01	2.7448	8.175200	0.000324	3.243348	1.098876	-0.000130
 937	9.3132e+01	2.7079	8.078309	0.000243	2.432511	0.824157	-0.000097
 938	9.3231e+01	2.6759	7.965269	0.000284	2.837929	0.961516	-0.000114
 939	9.3331e+01	2.6293	7.823969	0.000355	3.547412	1.201896	-0.000142
 940	9.3430e+01	2.5828	7.698818	0.000314	3.141993	1.064536	-0.000126
 941	9.3530e+01	2.5363	7.573667	0.000314	3.141993	1.064536	-0.000126
 942	9.3629e+01	2.5010	7.464664	0.000274	2.736575	0.927177	-0.000110
 943	9.3729e+01	2.4577	7.315290	0.000375	3.750121	1.270575	-0.000150
 944	9.3829e+01	2.4352	7.182064	0.000334	3.344702	1.133216	-0.000134
 945	9.3928e+01	2.3839	7.089210	0.000233	2.331156	0.789817	-0.000093
 946	9.4028e+01	2.3534	6.911576	0.000446	4.459603	1.510954	-0.000179
 947	9.4127e+01	2.3117	6.830834	0.000203	2.027092	0.686797	-0.000081
 948	9.4227e+01	2.2652	6.689534	0.000355	3.547412	1.201896	-0.000142
 949	9.4326e+01	2.2363	6.572457	0.000294	2.939284	0.995856	-0.000118
 950	9.4425e+01	2.1898	6.423083	0.000375	3.750121	1.270575	-0.000150
 951	9.4525e+01	2.1497	6.301969	0.000304	3.040638	1.030196	-0.000122
 952	9.4624e+01	2.1031	6.160669	0.000355	3.547412	1.201896	-0.000142
 953	9.4724e+01	2.0711	6.047629	0.000284	2.837929	0.961516	-0.000114
 954	9.4823e+01	2.0278	5.914404	0.000334	3.344702	1.133216	-0.000134
 955	9.4923e+01	1.9892	5.809438	0.000264	2.635220	0.892837	-0.000105
 956	9.5022e+01	1.9379	5.688324	0.000304	3.040638	1.030196	-0.000122
 957	9.5122e+01	1.9026	5.559136	0.000324	3.243348	1.098876	-0.000130
 958	9.5222e+01	1.8721	5.401688	0.000395	3.952830	1.339255	-0.000158
 959	9.5321e+01	1.8288	5.280574	0.000304	3.040638	1.030196	-0.000122
 960	9.5421e+01	1.7903	5.151385	0.000324	3.243348	1.098876	-0.000130
 961	9.5520e+01	1.7518	5.054494	0.000243	2.432511	0.824157	-0.000097
 962	9.5620e+01	1.7005	4.893009	0.000405	4.054185	1.373595	-0.000162
 963	9.5719e+01	1.6652	4.779969	0.000284	2.837929	0.961516	-0.000114
 964	9.5819e+01	1.6187	4.654818	0.000314	3.141993	1.064536	-0.000126
 965	9.5918e+01	1.5882	4.525629	0.000324	3.243348	1.098876	-0.000130
 966	9.6017e+01	1.5545	4.392404	0.000334	3.344702	1.133216	-0.000134
 967	9.6117e+01	1.5096	4.251104	0.000355	3.547412	1.201896	-0.000142
 968	9.6216e+01	1.4679	4.170361	0.000203	2.027092	0.686797	-0.000081
 969	9.6316e+01	1.4230	4.037136	0.000334	3.344702	1.133216	-0.000134
 970	9.6415e+01	1.3845	3.903910	0.000334	3.344702	1.133216	-0.000134
 971	9.6515e+01	1.3524	3.770685	0.000334	3.344702	1.133216	-0.000134
 972	9.6615e+01	1.3074	3.645534	0.000314	3.141993	1.064536	-0.000126
 973	9.6714e+01	1.2689	3.480011	0.000416	4.155539	1.407935	-0.000166
 974	9.6814e+01	1.2240	3.391194	0.000223	2.229802	0.755477	-0.000089
 975	9.6913e+01	1.1887	3.205486	0.000466	4.662312	1.579634	-0.000187
 976	9.7013e+01	1.1550	3.104557	0.000253	2.533865	0.858497	-0.000101
 977	9.7112e+01	1.1101	2.971332	0.000334	3.344702	1.133216	-0.000134
 978	9.7212e+01	1.0716	2.870404	0.000253	2.533865	0.858497	-0.000101
 979	9.7311e+01	1.0251	2.725067	0.000365	3.648766	1.236235	-0.000146
 980	9.7410e+01	0.9946	2.620101	0.000264	2.635220	0.892837	-0.000105
 981	9.7510e+01	0.9497	2.490913	0.000324	3.243348	1.098876	-0.000130
 982	9.7609e+01	0.9048	2.353650	0.000345	3.446057	1.167556	-0.000138
 983	9.7709e+01	0.8663	2.240610	0.000284	2.837929	0.961516	-0.000114
 984	9.7808e+01	0.8294	2.071051	0.000426	4.256894	1.442275	-0.000170
 985	9.7908e+01	0.7893	1.949937	0.000304	3.040638	1.030196	-0.000122
 986	9.8007e+01	0.7604	1.836897	0.000284	2.837929	0.961516	-0.000114
 987	9.8107e+01	0.7059	1.735968	0.000253	2.533865	0.858497	-0.000101
 988	9.8207e+01	0.6738	1.542186	0.000487	4.865022	1.648314	-0.000195
 989	9.8306e+01	0.6337	1.437220	0.000264	2.635220	0.892837	-0.000105
 990	9.8406e+01	0.5952	1.328218	0.000274	2.736575	0.927177	-0.000110
 991	9.8505e+01	0.5486	1.199029	0.000324	3.243348	1.098876	-0.000130
 992	9.8605e+01	0.5085	1.094064	0.000264	2.635220	0.892837	-0.000105
 993	9.8704e+01	0.4732	0.908356	0.000466	4.662312	1.579634	-0.000187
 994	9.8803e+01	0.4347	0.819539	0.000223	2.229802	0.755477	-0.000089
 995	9.8903e+01	0.3914	0.662090	0.000395	3.952830	1.339255	-0.000158
 996	9.9002e+01	0.3529	0.569236	0.000233	2.331156	0.789817	-0.000093
 997	9.9102e+01	0.3241	0.448122	0.000304	3.040638	1.030196	-0.000122
 998	9.9201e+01	0.2679	0.290674	0.000395	3.952830	1.339255	-0.000158
 999	9.9301e+01	0.2390	0.177634	0.000284	2.837929	0.961516	-0.000114
1000	9.9400e+01	0.1973	0.012111	0.000416	4.155539	1.407935	-0.000166
1001	9.9500e+01	0.1540	-0.137263	0.000375	3.750121	1.270575	-0.000150
1002	9.9600e+01	0.1155	-0.218005	0.000203	2.027092	0.686797	-0.000081
1003	9.9699e+01	0.0706	-0.343157	0.000314	3.141993	1.064536	-0.000126
1004	9.9799e+01	0.0305	-0.472345	0.000324	3.243348	1.098876	-0.000130
1005	9.9898e+01	0.0032	-0.581348	0.000274	2.736575	0.927177	-0.000110
1006	9.9998e+01	-0.0321	-0.686313	0.000264	2.635220	0.892837	-0.000105
1007	1.0010e+02	-0.0786	-0.872021	0.000466	4.662312	1.579634	-0.000187
1008	1.0020e+02	-0.1155	-0.985061	0.000284	2.837929	0.961516	-0.000114
1009	1.0030e+02	-0.1540	-1.090027	0.000264	2.635220	0.892837	-0.000105
1010	1.0040e+02	-0.2005	-1.211141	0.000304	3.040638	1.030196	-0.000122
1011	1.0050e+02	-0.2471	-1.368589	0.000395	3.952830	1.339255	-0.000158
1012	1.0059e+02	-0.2695	-1.465480	0.000243	2.432511	0.824157	-0.000097
1013	1.0069e+02	-0.3208	-1.594669	0.000324	3.243348	1.098876	-0.000130
1014	1.0079e+02	-0.3674	-1.719820	0.000314	3.141993	1.064536	-0.000126
1015	1.0089e+02	-0.4027	-1.861120	0.000355	3.547412	1.201896	-0.000142
1016	1.0099e+02	-0.4347	-1.978197	0.000294	2.939284	0.995856	-0.000118
1017	1.0109e+02	-0.4732	-2.163905	0.000466	4.662312	1.579634	-0.000187
1018	1.0119e+02	-0.5118	-2.256759	0.000233	2.331156	0.789817	-0.000093
1019	1.0129e+02	-0.5567	-2.369799	0.000284	2.837929	0.961516	-0.000114
1020	1.0139e+02	-0.5968	-2.490913	0.000304	3.040638	1.030196	-0.000122
1021	1.0149e+02	-0.6337	-2.660472	0.000426	4.256894	1.442275	-0.000170
1022	1.0159e+02	-0.6834	-2.753327	0.000233	2.331156	0.789817	-0.000093
1023	1.0169e+02	-0.7139	-2.858292	0.000264	2.635220	0.892837	-0.000105
1024	1.0179e+02	-0.7572	-2.983443	0.000314	3.141993	1.064536	-0.000126
1025	1.0189e+02	-0.7909	-3.100520	0.000294	2.939284	0.995856	-0.000118
1026	1.0199e+02	-0.8406	-3.225671	0.000314	3.141993	1.064536	-0.000126
1027	1.0209e+02	-0.8727	-3.354860	0.000324	3.243348	1.098876	-0.000130
1028	1.0219e+02	-0.9160	-3.484048	0.000324	3.243348	1.098876	-0.000130
1029	1.0229e+02	-0.9561	-3.637459	0.000385	3.851475	1.304915	-0.000154
1030	1.0239e+02	-0.9898	-3.722239	0.000213	2.128447	0.721137	-0.000085
1031	1.0248e+02	-1.0428	-3.875650	0.000385	3.851475	1.304915	-0.000154
1032	1.0258e+02	-1.0684	-4.012913	0.000345	3.446057	1.167556	-0.000138
1033	1.0268e+02	-1.1101	-4.146138	0.000334	3.344702	1.133216	-0.000134
1034	1.0278e+02	-1.1502	-4.230918	0.000213	2.128447	0.721137	-0.000085
1035	1.0288e+02	-1.1984	-4.376255	0.000365	3.648766	1.236235	-0.000146
1036	1.0298e+02	-1.2369	-4.501406	0.000314	3.141993	1.064536	-0.000126
1037	1.0308e+02	-1.2786	-4.634632	0.000334	3.344702	1.133216	-0.000134
1038	1.0318e+02	-1.3187	-4.767857	0.000334	3.344702	1.133216	-0.000134
1039	1.0328e+02	-1.3476	-4.872823	0.000264	2.635220	0.892837	-0.000105
1040	1.0338e+02	-1.3989	-4.981826	0.000274	2.736575	0.927177	-0.000110
1041	1.0348e+02	-1.4326	-5.106977	0.000314	3.141993	1.064536	-0.000126
1042	1.0358e+02	-1.4743	-5.211942	0.000264	2.635220	0.892837	-0.000105
1043	1.0368e+02	-1.5144	-5.329019	0.000294	2.939284	0.995856	-0.000118
1044	1.0378e+02	-1.5497	-5.494542	0.000416	4.155539	1.407935	-0.000166
1045	1.0388e+02	-1.5914	-5.611619	0.000294	2.939284	0.995856	-0.000118
1046	1.0398e+02	-1.6283	-5.728696	0.000294	2.939284	0.995856	-0.000118
1047	1.0408e+02	-1.6684	-5.853847	0.000314	3.141993	1.064536	-0.000126
1048	1.0418e+02	-1.7133	-5.978998	0.000314	3.141993	1.064536	-0.000126
1049	1.0428e+02	-1.7534	-6.136446	0.000395	3.952830	1.339255	-0.000158
1050	1.0438e+02	-1.7871	-6.209115	0.000182	1.824383	0.618118	-0.000073
1051	1.0447e+02	-1.8401	-6.346377	0.000345	3.446057	1.167556	-0.000138
1052	1.0457e+02	-1.8737	-6.467491	0.000304	3.040638	1.030196	-0.000122
1053	1.0467e+02	-1.9042	-6.584568	0.000294	2.939284	0.995856	-0.000118
1054	1.0477e+02	-1.9540	-6.713757	0.000324	3.243348	1.098876	-0.000130
1055	1.0487e+02	-1.9909	-6.826797	0.000284	2.837929	0.961516	-0.000114
1056	1.0497e+02	-2.0294	-6.960022	0.000334	3.344702	1.133216	-0.000134
1057	1.0507e+02	-2.0663	-7.069025	0.000274	2.736575	0.927177	-0.000110
1058	1.0517e+02	-2.1080	-7.198213	0.000324	3.243348	1.098876	-0.000130
1059	1.0527e+02	-2.1577	-7.323364	0.000314	3.141993	1.064536	-0.000126
1060	1.0537e+02	-2.1978	-7.448515	0.000314	3.141993	1.064536	-0.000126
1061	1.0547e+02	-2.2251	-7.573667	0.000314	3.141993	1.064536	-0.000126
1062	1.0557e+02	-2.2700	-7.674595	0.000253	2.533865	0.858497	-0.000101
1063	1.0567e+02	-2.3165	-7.795709	0.000304	3.040638	1.030196	-0.000122
1064	1.0577e+02	-2.3486	-7.937009	0.000355	3.547412	1.201896	-0.000142
1065	1.0587e+02	-2.3903	-8.054086	0.000294	2.939284	0.995856	-0.000118
1066	1.0597e+02	-2.4288	-8.163088	0.000274	2.736575	0.927177	-0.000110
1067	1.0607e+02	-2.4577	-8.300351	0.000345	3.446057	1.167556	-0.000138
1068	1.0617e+02	-2.5090	-8.461837	0.000405	4.054185	1.373595	-0.000162
1069	1.0627e+02	-2.5523	-8.554691	0.000233	2.331156	0.789817	-0.000093
1070	1.0637e+02	-2.5908	-8.647545	0.000233	2.331156	0.789817	-0.000093
1071	1.0647e+02	-2.6181	-8.821142	0.000436	4.358248	1.476615	-0.000174
1072	1.0656e+02	-2.6727	-8.946293	0.000314	3.141993	1.064536	-0.000126
1073	1.0666e+02	-2.7128	-9.018961	0.000182	1.824383	0.618118	-0.000073
1074	1.0676e+02	-2.7529	-9.164298	0.000365	3.648766	1.236235	-0.000146
1075	1.0686e+02	-2.7882	-9.257152	0.000233	2.331156	0.789817	-0.000093
1076	1.0696e+02	-2.8186	-9.414601	0.000395	3.952830	1.339255	-0.000158
1077	1.0706e+02	-2.8684	-9.479195	0.000162	1.621674	0.549438	-0.000065
1078	1.0716e+02	-2.9037	-9.620494	0.000355	3.547412	1.201896	-0.000142
1079	1.0726e+02	-2.9598	-9.790054	0.000426	4.256894	1.442275	-0.000170
1080	1.0736e+02	-2.9919	-9.834463	0.000111	1.114901	0.377739	-0.000045
1081	1.0746e+02	-3.0320	-9.967688	0.000334	3.344702	1.133216	-0.000134
1082	1.0756e+02	-3.0673	-10.100914	0.000334	3.344702	1.133216	-0.000134
1083	1.0766e+02	-3.1122	-10.278548	0.000446	4.459603	1.510954	-0.000179
1084	1.0776e+02	-3.1443	-10.411773	0.000334	3.344702	1.133216	-0.000134
1085	1.0786e+02	-3.1780	-10.500590	0.000223	2.229802	0.755477	-0.000089
1086	1.0796e+02	-3.2293	-10.573258	0.000182	1.824383	0.618118	-0.000073
1087	1.0806e+02	-3.2614	-10.714558	0.000355	3.547412	1.201896	-0.000142
1088	1.0816e+02	-3.3079	-10.872007	0.000395	3.952830	1.339255	-0.000158
1089	1.0826e+02	-3.3528	-10.952749	0.000203	2.027092	0.686797	-0.000081
1090	1.0836e+02	-3.3865	-11.069826	0.000294	2.939284	0.995856	-0.000118
1091	1.0845e+02	-3.4282	-11.194977	0.000314	3.141993	1.064536	-0.000126
1092	1.0855e+02	-3.4667	-11.324166	0.000324	3.243348	1.098876	-0.000130
1093	1.0865e+02	-3.5085	-11.461428	0.000345	3.446057	1.167556	-0.000138
1094	1.0875e+02	-3.5470	-11.566394	0.000264	2.635220	0.892837	-0.000105
1095	1.0885e+02	-3.5887	-11.691545	0.000314	3.141993	1.064536	-0.000126
1096	1.0895e+02	-3.6304	-11.792473	0.000253	2.533865	0.858497	-0.000101
1097	1.0905e+02	-3.6593	-11.937810	0.000365	3.648766	1.236235	-0.000146
1098	1.0915e+02	-3.7042	-12.030664	0.000233	2.331156	0.789817	-0.000093
1099	1.0925e+02	-3.7507	-12.163890	0.000334	3.344702	1.133216	-0.000134
1100	1.0935e+02	-3.7956	-12.301153	0.000345	3.446057	1.167556	-0.000138
1101	1.0945e+02	-3.8197	-12.369784	0.000172	1.723028	0.583778	-0.000069
1102	1.0955e+02	-3.8694	-12.551455	0.000456	4.560958	1.545294	-0.000183
1103	1.0965e+02	-3.9143	-12.632198	0.000203	2.027092	0.686797	-0.000081
1104	1.0975e+02	-3.9448	-12.781572	0.000375	3.750121	1.270575	-0.000150
1105	1.0985e+02	-3.9881	-12.894612	0.000284	2.837929	0.961516	-0.000114
1106	1.0995e+02	-4.0346	-13.039948	0.000365	3.648766	1.236235	-0.000146
1107	1.1005e+02	-4.0683	-13.132803	0.000233	2.331156	0.789817	-0.000093
1108	1.1015e+02	-4.1100	-13.245842	0.000284	2.837929	0.961516	-0.000114
1109	1.1025e+02	-4.1453	-13.399254	0.000385	3.851475	1.304915	-0.000154
1110	1.1035e+02	-4.1887	-13.496145	0.000243	2.432511	0.824157	-0.000097
1111	1.1044e+02	-4.2304	-13.621296	0.000314	3.141993	1.064536	-0.000126
1112	1.1054e+02	-4.2608	-13.734336	0.000284	2.837929	0.961516	-0.000114
1113	1.1064e+02	-4.3090	-13.883710	0.000375	3.750121	1.270575	-0.000150
1114	1.1074e+02	-4.3459	-13.988675	0.000264	2.635220	0.892837	-0.000105
1115	1.1084e+02	-4.3715	-14.109789	0.000304	3.040638	1.030196	-0.000122
1116	1.1094e+02	-4.4245	-14.230903	0.000304	3.040638	1.030196	-0.000122
1117	1.1104e+02	-4.4694	-14.380277	0.000375	3.750121	1.270575	-0.000150
1118	1.1114e+02	-4.4999	-14.477169	0.000243	2.432511	0.824157	-0.000097
1119	1.1124e+02	-4.5384	-14.622506	0.000365	3.648766	1.236235	-0.000146
1120	1.1134e+02	-4.5833	-14.739583	0.000294	2.939284	0.995856	-0.000118
1121	1.1144e+02	-4.6186	-14.848585	0.000274	2.736575	0.927177	-0.000110
1122	1.1154e+02	-4.6587	-15.010071	0.000405	4.054185	1.373595	-0.000162
1123	1.1164e+02	-4.6988	-15.066591	0.000142	1.418965	0.480758	-0.000057
1124	1.1174e+02	-4.7421	-15.195779	0.000324	3.243348	1.098876	-0.000130
1125	1.1184e+02	-4.7806	-15.361301	0.000416	4.155539	1.407935	-0.000166
1126	1.1194e+02	-4.8175	-15.438007	0.000193	1.925738	0.652458	-0.000077
1127	1.1204e+02	-4.8592	-15.591418	0.000385	3.851475	1.304915	-0.000154
1128	1.1214e+02	-4.8977	-15.716569	0.000314	3.141993	1.064536	-0.000126
1129	1.1224e+02	-4.9378	-15.829609	0.000284	2.837929	0.961516	-0.000114
1130	1.1234e+02	-4.9715	-15.978983	0.000375	3.750121	1.270575	-0.000150
1131	1.1244e+02	-5.0229	-16.079912	0.000253	2.533865	0.858497	-0.000101
1132	1.1253e+02	-5.0565	-16.221211	0.000355	3.547412	1.201896	-0.000142
1133	1.1263e+02	-5.1015	-16.293880	0.000182	1.824383	0.618118	-0.000073
1134	1.1273e+02	-5.1384	-16.398845	0.000264	2.635220	0.892837	-0.000105
1135	1.1283e+02	-5.1785	-16.552257	0.000385	3.851475	1.304915	-0.000154
1136	1.1293e+02	-5.2154	-16.681445	0.000324	3.243348	1.098876	-0.000130
1137	1.1303e+02	-5.2699	-16.814670	0.000334	3.344702	1.133216	-0.000134
1138	1.1313e+02	-5.3020	-16.947896	0.000334	3.344702	1.133216	-0.000134
1139	1.1323e+02	-5.3325	-17.052861	0.000264	2.635220	0.892837	-0.000105
1140	1.1333e+02	-5.3758	-17.190124	0.000345	3.446057	1.167556	-0.000138
1141	1.1343e+02	-5.4127	-17.319312	0.000324	3.243348	1.098876	-0.000130
1142	1.1353e+02	-5.4624	-17.400055	0.000203	2.027092	0.686797	-0.000081
1143	1.1363e+02	-5.5089	-17.521169	0.000304	3.040638	1.030196	-0.000122
1144	1.1373e+02	-5.5298	-17.658432	0.000345	3.446057	1.167556	-0.000138
1145	1.1383e+02	-5.5699	-17.783583	0.000314	3.141993	1.064536	-0.000126
1146	1.1393e+02	-5.6180	-17.924883	0.000355	3.547412	1.201896	-0.000142
1147	1.1403e+02	-5.6549	-18.041960	0.000294	2.939284	0.995856	-0.000118
1148	1.1413e+02	-5.6918	-18.154999	0.000284	2.837929	0.961516	-0.000114
1149	1.1423e+02	-5.7367	-18.264002	0.000274	2.736575	0.927177	-0.000110
1150	1.1433e+02	-5.7833	-18.433562	0.000426	4.256894	1.442275	-0.000170
1151	1.1442e+02	-5.8186	-18.530453	0.000243	2.432511	0.824157	-0.000097
1152	1.1452e+02	-5.8587	-18.623307	0.000233	2.331156	0.789817	-0.000093
1153	1.1462e+02	-5.8940	-18.800941	0.000446	4.459603	1.510954	-0.000179
1154	1.1472e+02	-5.9373	-18.857461	0.000142	1.418965	0.480758	-0.000057
1155	1.1482e+02	-5.9774	-18.970501	0.000284	2.837929	0.961516	-0.000114
1156	1.1492e+02	-6.0191	-19.156209	0.000466	4.662312	1.579634	-0.000187
1157	1.1502e+02	-6.0608	-19.269249	0.000284	2.837929	0.961516	-0.000114
1158	1.1512e+02	-6.0897	-19.374214	0.000264	2.635220	0.892837	-0.000105
1159	1.1522e+02	-6.1314	-19.503403	0.000324	3.243348	1.098876	-0.000130
1160	1.1532e+02	-6.1779	-19.596257	0.000233	2.331156	0.789817	-0.000093
1161	1.1542e+02	-6.2084	-19.745631	0.000375	3.750121	1.270575	-0.000150
1162	1.1552e+02	-6.2549	-19.886931	0.000355	3.547412	1.201896	-0.000142
1163	1.1562e+02	-6.2982	-19.967673	0.000203	2.027092	0.686797	-0.000081
1164	1.1572e+02	-6.3367	-20.113010	0.000365	3.648766	1.236235	-0.000146
1165	1.1582e+02	-6.3768	-20.238161	0.000314	3.141993	1.064536	-0.000126
1166	1.1592e+02	-6.4169	-20.363313	0.000314	3.141993	1.064536	-0.000126
1167	1.1602e+02	-6.4554	-20.460204	0.000243	2.432511	0.824157	-0.000097
1168	1.1612e+02	-6.4955	-20.593429	0.000334	3.344702	1.133216	-0.000134
1169	1.1622e+02	-6.5260	-20.658024	0.000162	1.621674	0.549438	-0.000065
1170	1.1632e+02	-6.5725	-20.839695	0.000456	4.560958	1.545294	-0.000183
1171	1.1642e+02	-6.6175	-20.968883	0.000324	3.243348	1.098876	-0.000130
1172	1.1651e+02	-6.6560	-21.045589	0.000193	1.925738	0.652458	-0.000077
1173	1.1661e+02	-6.6864	-21.174777	0.000324	3.243348	1.098876	-0.000130
1174	1.1671e+02	-6.7265	-21.303965	0.000324	3.243348	1.098876	-0.000130
1175	1.1681e+02	-6.7650	-21.449302	0.000365	3.648766	1.236235	-0.000146
1176	1.1691e+02	-6.7987	-21.546193	0.000243	2.432511	0.824157	-0.000097
1177	1.1701e+02	-6.8485	-21.699605	0.000385	3.851475	1.304915	-0.000154
1178	1.1711e+02	-6.8902	-21.760162	0.000152	1.520319	0.515098	-0.000061
1179	1.1721e+02	-6.9335	-21.877239	0.000294	2.939284	0.995856	-0.000118
1180	1.1731e+02	-6.9704	-22.026613	0.000375	3.750121	1.270575	-0.000150
1181	1.1741e+02	-7.0089	-22.123504	0.000243	2.432511	0.824157	-0.000097
1182	1.1751e+02	-7.0506	-22.252692	0.000324	3.243348	1.098876	-0.000130
1183	1.1761e+02	-7.0875	-22.369769	0.000294	2.939284	0.995856	-0.000118
1184	1.1771e+02	-7.1292	-22.454549	0.000213	2.128447	0.721137	-0.000085
1185	1.1781e+02	-7.1757	-22.624109	0.000426	4.256894	1.442275	-0.000170
1186	1.1791e+02	-7.2046	-22.725037	0.000253	2.533865	0.858497	-0.000101
1187	1.1801e+02	-7.2463	-22.825965	0.000253	2.533865	0.858497	-0.000101
1188	1.1811e+02	-7.2880	-22.934968	0.000274	2.736575	0.927177	-0.000110
1189	1.1821e+02	-7.3297	-23.088379	0.000385	3.851475	1.304915	-0.000154
1190	1.1831e+02	-7.3666	-23.193345	0.000264	2.635220	0.892837	-0.000105
1191	1.1841e+02	-7.4067	-23.302347	0.000274	2.736575	0.927177	-0.000110
1192	1.1850e+02	-7.4533	-23.419424	0.000294	2.939284	0.995856	-0.000118
1193	1.1860e+02	-7.4918	-23.520353	0.000253	2.533865	0.858497	-0.000101
1194	1.1870e+02	-7.5255	-23.645504	0.000314	3.141993	1.064536	-0.000126
1195	1.1880e+02	-7.5704	-23.758544	0.000284	2.837929	0.961516	-0.000114
1196	1.1890e+02	-7.5976	-23.879658	0.000304	3.040638	1.030196	-0.000122
1197	1.1900e+02	-7.6474	-23.996735	0.000294	2.939284	0.995856	-0.000118
1198	1.1910e+02	-7.6923	-24.069403	0.000182	1.824383	0.618118	-0.000073
1199	1.1920e+02	-7.7212	-24.214740	0.000365	3.648766	1.236235	-0.000146
1200	1.1930e+02	-7.7661	-24.315669	0.000253	2.533865	0.858497	-0.000101
1201	1.1940e+02	-7.8142	-24.448894	0.000334	3.344702	1.133216	-0.000134
1202	1.1950e+02	-7.8527	-24.565971	0.000294	2.939284	0.995856	-0.000118
1203	1.1960e+02	-7.8944	-24.626528	0.000152	1.520319	0.515098	-0.000061
1204	1.1970e+02	-7.9281	-24.783976	0.000395	3.952830	1.339255	-0.000158
1205	1.1980e+02	-7.9778	-24.901053	0.000294	2.939284	0.995856	-0.000118
1206	1.1990e+02	-8.0067	-25.050427	0.000375	3.750121	1.270575	-0.000150
1207	1.2000e+02	-8.0532	-25.123096	0.000182	1.824383	0.618118	-0.000073
1208	1.2010e+02	-8.0853	-25.256321	0.000334	3.344702	1.133216	-0.000134
1209	1.2020e+02	-8.1206	-25.337064	0.000203	2.027092	0.686797	-0.000081
1210	1.2030e+02	-8.1688	-25.502586	0.000416	4.155539	1.407935	-0.000166
1211	1.2039e+02	-8.2057	-25.603515	0.000253	2.533865	0.858497	-0.000101
1212	1.2049e+02	-8.2474	-25.688295	0.000213	2.128447	0.721137	-0.000085
1213	1.2059e+02	-8.2843	-25.821520	0.000334	3.344702	1.133216	-0.000134
1214	1.2069e+02	-8.3196	-25.970894	0.000375	3.750121	1.270575	-0.000150
1215	1.2079e+02	-8.3645	-26.035488	0.000162	1.621674	0.549438	-0.000065
1216	1.2089e+02	-8.3998	-26.160640	0.000314	3.141993	1.064536	-0.000126
1217	1.2099e+02	-8.4383	-26.273679	0.000284	2.837929	0.961516	-0.000114
1218	1.2109e+02	-8.4832	-26.378645	0.000264	2.635220	0.892837	-0.000105
1219	1.2119e+02	-8.5217	-26.503796	0.000314	3.141993	1.064536	-0.000126
1220	1.2129e+02	-8.5602	-26.637022	0.000334	3.344702	1.133216	-0.000134
1221	1.2139e+02	-8.6003	-26.681430	0.000111	1.114901	0.377739	-0.000045
1222	1.2149e+02	-8.6468	-26.834841	0.000385	3.851475	1.304915	-0.000154
1223	1.2159e+02	-8.6757	-26.943844	0.000274	2.736575	0.927177	-0.000110
1224	1.2169e+02	-8.7238	-27.008438	0.000162	1.621674	0.549438	-0.000065
1225	1.2179e+02	-8.7607	-27.161849	0.000385	3.851475	1.304915	-0.000154
1226	1.2189e+02	-8.7928	-27.258741	0.000243	2.432511	0.824157	-0.000097
1227	1.2199e+02	-8.8377	-27.379855	0.000304	3.040638	1.030196	-0.000122
1228	1.2209e+02	-8.8762	-27.476746	0.000243	2.432511	0.824157	-0.000097
1229	1.2219e+02	-8.9131	-27.626120	0.000375	3.750121	1.270575	-0.000150
1230	1.2229e+02	-8.9564	-27.710900	0.000213	2.128447	0.721137	-0.000085
1231	1.2239e+02	-9.0062	-27.827977	0.000294	2.939284	0.995856	-0.000118
1232	1.2248e+02	-9.0527	-27.920831	0.000233	2.331156	0.789817	-0.000093
1233	1.2258e+02	-9.0880	-28.054056	0.000334	3.344702	1.133216	-0.000134
1234	1.2268e+02	-9.1201	-28.175170	0.000304	3.040638	1.030196	-0.000122
1235	1.2278e+02	-9.1634	-28.239764	0.000162	1.621674	0.549438	-0.000065
1236	1.2288e+02	-9.2051	-28.389139	0.000375	3.750121	1.270575	-0.000150
1237	1.2298e+02	-9.2420	-28.514290	0.000314	3.141993	1.064536	-0.000126
1238	1.2308e+02	-9.2773	-28.578884	0.000162	1.621674	0.549438	-0.000065
1239	1.2318e+02	-9.3318	-28.704035	0.000314	3.141993	1.064536	-0.000126
1240	1.2328e+02	-9.3527	-28.817075	0.000284	2.837929	0.961516	-0.000114
1241	1.2338e+02	-9.3928	-28.950300	0.000334	3.344702	1.133216	-0.000134
1242	1.2348e+02	-9.4425	-28.986635	0.000091	0.912192	0.309059	-0.000037
1243	1.2358e+02	-9.4858	-29.131971	0.000365	3.648766	1.236235	-0.000146
1244	1.2368e+02	-9.5307	-29.277308	0.000365	3.648766	1.236235	-0.000146
1245	1.2378e+02	-9.5580	-29.386311	0.000274	2.736575	0.927177	-0.000110
1246	1.2388e+02	-9.6013	-29.487239	0.000253	2.533865	0.858497	-0.000101
1247	1.2398e+02	-9.6446	-29.576056	0.000223	2.229802	0.755477	-0.000089
1248	1.2408e+02	-9.6783	-29.701208	0.000314	3.141993	1.064536	-0.000126
1249	1.2418e+02	-9.7088	-29.814247	0.000284	2.837929	0.961516	-0.000114
1250	1.2428e+02	-9.7505	-29.923250	0.000274	2.736575	0.927177	-0.000110
1251	1.2438e+02	-9.8115	-30.052438	0.000324	3.243348	1.098876	-0.000130
1252	1.2447e+02	-9.8356	-30.100884	0.000122	1.216255	0.412078	-0.000049
1253	1.2457e+02	-9.8757	-30.209887	0.000274	2.736575	0.927177	-0.000110
1254	1.2467e+02	-9.9254	-30.326964	0.000294	2.939284	0.995856	-0.000118
1255	1.2477e+02	-9.9559	-30.435966	0.000274	2.736575	0.927177	-0.000110
1256	1.2487e+02	-9.9944	-30.561118	0.000314	3.141993	1.064536	-0.000126
1257	1.2497e+02	-10.0377	-30.706454	0.000365	3.648766	1.236235	-0.000146
1258	1.2507e+02	-10.0794	-30.811420	0.000264	2.635220	0.892837	-0.000105
1259	1.2517e+02	-10.1275	-30.896200	0.000213	2.128447	0.721137	-0.000085
1260	1.2527e+02	-10.1564	-31.025388	0.000324	3.243348	1.098876	-0.000130
1261	1.2537e+02	-10.1901	-31.089982	0.000162	1.621674	0.549438	-0.000065
1262	1.2547e+02	-10.2414	-31.235319	0.000365	3.648766	1.236235	-0.000146
1263	1.2557e+02	-10.2703	-31.340285	0.000264	2.635220	0.892837	-0.000105
1264	1.2567e+02	-10.3136	-31.412953	0.000182	1.824383	0.618118	-0.000073
1265	1.2577e+02	-10.3537	-31.538104	0.000314	3.141993	1.064536	-0.000126
1266	1.2587e+02	-10.3986	-31.651144	0.000284	2.837929	0.961516	-0.000114
1267	1.2597e+02	-10.4387	-31.731887	0.000203	2.027092	0.686797	-0.000081
1268	1.2607e+02	-10.4805	-31.848964	0.000294	2.939284	0.995856	-0.000118
1269	1.2617e+02	-10.5141	-32.002375	0.000385	3.851475	1.304915	-0.000154
1270	1.2627e+02	-10.5462	-32.103303	0.000253	2.533865	0.858497	-0.000101
1271	1.2636e+02	-10.6008	-32.220380	0.000294	2.939284	0.995856	-0.000118
1272	1.2646e+02	-10.6441	-32.321309	0.000253	2.533865	0.858497	-0.000101
1273	1.2656e+02	-10.6665	-32.430311	0.000274	2.736575	0.927177	-0.000110
1274	1.2666e+02	-10.7131	-32.527203	0.000243	2.432511	0.824157	-0.000097
1275	1.2676e+02	-10.7564	-32.636205	0.000274	2.736575	0.927177	-0.000110
1276	1.2686e+02	-10.7965	-32.797691	0.000405	4.054185	1.373595	-0.000162
1277	1.2696e+02	-10.8334	-32.838062	0.000101	1.013546	0.343399	-0.000041
1278	1.2706e+02	-10.8687	-32.963213	0.000314	3.141993	1.064536	-0.000126
1279	1.2716e+02	-10.9104	-33.047993	0.000213	2.128447	0.721137	-0.000085
1280	1.2726e+02	-10.9521	-33.201404	0.000385	3.851475	1.304915	-0.000154
1281	1.2736e+02	-10.9906	-33.290221	0.000223	2.229802	0.755477	-0.000089
1282	1.2746e+02	-11.0243	-33.354815	0.000162	1.621674	0.549438	-0.000065
1283	1.2756e+02	-11.0772	-33.548598	0.000487	4.865022	1.648314	-0.000195
1284	1.2766e+02	-11.1125	-33.645489	0.000243	2.432511	0.824157	-0.000097
1285	1.2776e+02	-11.1558	-33.766603	0.000304	3.040638	1.030196	-0.000122
1286	1.2786e+02	-11.1959	-33.903866	0.000345	3.446057	1.167556	-0.000138
1287	1.2796e+02	-11.2344	-33.944237	0.000101	1.013546	0.343399	-0.000041
1288	1.2806e+02	-11.2778	-34.053240	0.000274	2.736575	0.927177	-0.000110
1289	1.2816e+02	-11.3098	-34.178391	0.000314	3.141993	1.064536	-0.000126
1290	1.2826e+02	-11.3483	-34.303542	0.000314	3.141993	1.064536	-0.000126
1291	1.2835e+02	-11.3933	-34.392359	0.000223	2.229802	0.755477	-0.000089
1292	1.2845e+02	-11.4286	-34.517511	0.000314	3.141993	1.064536	-0.000126
1293	1.2855e+02	-11.4703	-34.630550	0.000284	2.837929	0.961516	-0.000114
1294	1.2865e+02	-11.5136	-34.735516	0.000264	2.635220	0.892837	-0.000105
1295	1.2875e+02	-11.5553	-34.856630	0.000304	3.040638	1.030196	-0.000122
1296	1.2885e+02	-11.5826	-34.953521	0.000243	2.432511	0.824157	-0.000097
1297	1.2895e+02	-11.6355	-35.018115	0.000162	1.621674	0.549438	-0.000065
1298	1.2905e+02	-11.6660	-35.151341	0.000334	3.344702	1.133216	-0.000134
1299	1.2915e+02	-11.7141	-35.252269	0.000253	2.533865	0.858497	-0.000101
1300	1.2925e+02	-11.7542	-35.393569	0.000355	3.547412	1.201896	-0.000142
1301	1.2935e+02	-11.8023	-35.466237	0.000182	1.824383	0.618118	-0.000073
1302	1.2945e+02	-11.8296	-35.583314	0.000294	2.939284	0.995856	-0.000118
1303	1.2955e+02	-11.8713	-35.720577	0.000345	3.446057	1.167556	-0.000138
1304	1.2965e+02	-11.9194	-35.837654	0.000294	2.939284	0.995856	-0.000118
1305	1.2975e+02	-11.9467	-35.906285	0.000172	1.723028	0.583778	-0.000069
1306	1.2985e+02	-11.9868	-36.047585	0.000355	3.547412	1.201896	-0.000142
1307	1.2995e+02	-12.0317	-36.140439	0.000233	2.331156	0.789817	-0.000093
1308	1.3005e+02	-12.0719	-36.285776	0.000365	3.648766	1.236235	-0.000146
1309	1.3015e+02	-12.1104	-36.334222	0.000122	1.216255	0.412078	-0.000049
1310	1.3025e+02	-12.1553	-36.483596	0.000375	3.750121	1.270575	-0.000150
1311	1.3034e+02	-12.1922	-36.608747	0.000314	3.141993	1.064536	-0.000126
1312	1.3044e+02	-12.2339	-36.693527	0.000213	2.128447	0.721137	-0.000085
1313	1.3054e+02	-12.2612	-36.826752	0.000334	3.344702	1.133216	-0.000134
1314	1.3064e+02	-12.3093	-36.923643	0.000243	2.432511	0.824157	-0.000097
1315	1.3074e+02	-12.3526	-37.020535	0.000243	2.432511	0.824157	-0.000097
1316	1.3084e+02	-12.3911	-37.145686	0.000314	3.141993	1.064536	-0.000126
1317	1.3094e+02	-12.4312	-37.258726	0.000284	2.837929	0.961516	-0.000114
1318	1.3104e+02	-12.4665	-37.335431	0.000193	1.925738	0.652458	-0.000077
1319	1.3114e+02	-12.5162	-37.472694	0.000345	3.446057	1.167556	-0.000138
1320	1.3124e+02	-12.5515	-37.545362	0.000182	1.824383	0.618118	-0.000073
1321	1.3134e+02	-12.5916	-37.690699	0.000365	3.648766	1.236235	-0.000146
1322	1.3144e+02	-12.6237	-37.779516	0.000223	2.229802	0.755477	-0.000089
1323	1.3154e+02	-12.6654	-37.876407	0.000243	2.432511	0.824157	-0.000097
1324	1.3164e+02	-12.7039	-38.009633	0.000334	3.344702	1.133216	-0.000134
1325	1.3174e+02	-12.7472	-38.122673	0.000284	2.837929	0.961516	-0.000114
1326	1.3184e+02	-12.7841	-38.263973	0.000355	3.547412	1.201896	-0.000142
1327	1.3194e+02	-12.8162	-38.328567	0.000162	1.621674	0.549438	-0.000065
1328	1.3204e+02	-12.8676	-38.457755	0.000324	3.243348	1.098876	-0.000130
1329	1.3214e+02	-12.9061	-38.570795	0.000284	2.837929	0.961516	-0.000114
1330	1.3224e+02	-12.9365	-38.671723	0.000253	2.533865	0.858497	-0.000101
1331	1.3234e+02	-12.9895	-38.788800	0.000294	2.939284	0.995856	-0.000118
1332	1.3243e+02	-13.0264	-38.881654	0.000233	2.331156	0.789817	-0.000093
1333	1.3253e+02	-13.0601	-39.026991	0.000365	3.648766	1.236235	-0.000146
1334	1.3263e+02	-13.1114	-39.111771	0.000213	2.128447	0.721137	-0.000085
1335	1.3273e+02	-13.1403	-39.196551	0.000213	2.128447	0.721137	-0.000085
1336	1.3283e+02	-13.1948	-39.309591	0.000284	2.837929	0.961516	-0.000114
1337	1.3293e+02	-13.2365	-39.422630	0.000284	2.837929	0.961516	-0.000114
1338	1.3303e+02	-13.2654	-39.547782	0.000314	3.141993	1.064536	-0.000126
1339	1.3313e+02	-13.3087	-39.652747	0.000264	2.635220	0.892837	-0.000105
1340	1.3323e+02	-13.3424	-39.749638	0.000243	2.432511	0.824157	-0.000097
1341	1.3333e+02	-13.3793	-39.866715	0.000294	2.939284	0.995856	-0.000118
1342	1.3343e+02	-13.4290	-39.951495	0.000213	2.128447	0.721137	-0.000085
1343	1.3353e+02	-13.4675	-40.080684	0.000324	3.243348	1.098876	-0.000130
1344	1.3363e+02	-13.4900	-40.165463	0.000213	2.128447	0.721137	-0.000085
1345	1.3373e+02	-13.5510	-40.314837	0.000375	3.750121	1.270575	-0.000150
1346	1.3383e+02	-13.5830	-40.391543	0.000193	1.925738	0.652458	-0.000077
1347	1.3393e+02	-13.6280	-40.508620	0.000294	2.939284	0.995856	-0.000118
1348	1.3403e+02	-13.6681	-40.625697	0.000294	2.939284	0.995856	-0.000118
1349	1.3413e+02	-13.7050	-40.734700	0.000274	2.736575	0.927177	-0.000110
1350	1.3423e+02	-13.7451	-40.827554	0.000233	2.331156	0.789817	-0.000093
1351	1.3432e+02	-13.7868	-40.916371	0.000223	2.229802	0.755477	-0.000089
1352	1.3442e+02	-13.8173	-41.029411	0.000284	2.837929	0.961516	-0.000114
1353	1.3452e+02	-13.8638	-41.122265	0.000233	2.331156	0.789817	-0.000093
1354	1.3462e+02	-13.8959	-41.211082	0.000223	2.229802	0.755477	-0.000089
1355	1.3472e+02	-13.9424	-41.320084	0.000274	2.736575	0.927177	-0.000110
1356	1.3482e+02	-13.9841	-41.461384	0.000355	3.547412	1.201896	-0.000142
1357	1.3492e+02	-14.0226	-41.550201	0.000223	2.229802	0.755477	-0.000089
1358	1.3502e+02	-14.0595	-41.643055	0.000233	2.331156	0.789817	-0.000093
1359	1.3512e+02	-14.1044	-41.760132	0.000294	2.939284	0.995856	-0.000118
1360	1.3522e+02	-14.1461	-41.848949	0.000223	2.229802	0.755477	-0.000089
1361	1.3532e+02	-14.1878	-41.953915	0.000264	2.635220	0.892837	-0.000105
1362	1.3542e+02	-14.2247	-42.058880	0.000264	2.635220	0.892837	-0.000105
1363	1.3552e+02	-14.2584	-42.192106	0.000334	3.344702	1.133216	-0.000134
1364	1.3562e+02	-14.2985	-42.244588	0.000132	1.317610	0.446418	-0.000053
1365	1.3572e+02	-14.3418	-42.389925	0.000365	3.648766	1.236235	-0.000146
1366	1.3582e+02	-14.3771	-42.442408	0.000132	1.317610	0.446418	-0.000053
1367	1.3592e+02	-14.4269	-42.575633	0.000334	3.344702	1.133216	-0.000134
1368	1.3602e+02	-14.4590	-42.676562	0.000253	2.533865	0.858497	-0.000101
1369	1.3612e+02	-14.5119	-42.809787	0.000334	3.344702	1.133216	-0.000134
1370	1.3622e+02	-14.5408	-42.934939	0.000314	3.141993	1.064536	-0.000126
1371	1.3631e+02	-14.5745	-42.955124	0.000051	0.506773	0.171699	-0.000020
1372	1.3641e+02	-14.6290	-43.096424	0.000355	3.547412	1.201896	-0.000142
1373	1.3651e+02	-14.6579	-43.193315	0.000243	2.432511	0.824157	-0.000097
1374	1.3661e+02	-14.7044	-43.294244	0.000253	2.533865	0.858497	-0.000101
1375	1.3671e+02	-14.7477	-43.411321	0.000294	2.939284	0.995856	-0.000118
1376	1.3681e+02	-14.7830	-43.492063	0.000203	2.027092	0.686797	-0.000081
1377	1.3691e+02	-14.8135	-43.605103	0.000284	2.837929	0.961516	-0.000114
1378	1.3701e+02	-14.8568	-43.770626	0.000416	4.155539	1.407935	-0.000166
1379	1.3711e+02	-14.8921	-43.827146	0.000142	1.418965	0.480758	-0.000057
1380	1.3721e+02	-14.9402	-43.932111	0.000264	2.635220	0.892837	-0.000105
1381	1.3731e+02	-14.9787	-44.016891	0.000213	2.128447	0.721137	-0.000085
1382	1.3741e+02	-15.0156	-44.097634	0.000203	2.027092	0.686797	-0.000081
1383	1.3751e+02	-15.0541	-44.202599	0.000264	2.635220	0.892837	-0.000105
1384	1.3761e+02	-15.0942	-44.315639	0.000284	2.837929	0.961516	-0.000114
1385	1.3771e+02	-15.1327	-44.388307	0.000182	1.824383	0.618118	-0.000073
1386	1.3781e+02	-15.1776	-44.537681	0.000375	3.750121	1.270575	-0.000150
1387	1.3791e+02	-15.2178	-44.658796	0.000304	3.040638	1.030196	-0.000122
1388	1.3801e+02	-15.2595	-44.731464	0.000182	1.824383	0.618118	-0.000073
1389	1.3811e+02	-15.2980	-44.836430	0.000264	2.635220	0.892837	-0.000105
1390	1.3821e+02	-15.3381	-44.905061	0.000172	1.723028	0.583778	-0.000069
1391	1.3831e+02	-15.3653	-45.054435	0.000375	3.750121	1.270575	-0.000150
1392	1.3840e+02	-15.4231	-45.127103	0.000182	1.824383	0.618118	-0.000073
1393	1.3850e+02	-15.4584	-45.248217	0.000304	3.040638	1.030196	-0.000122
1394	1.3860e+02	-15.4985	-45.328960	0.000203	2.027092	0.686797	-0.000081
1395	1.3870e+02	-15.5370	-45.425851	0.000243	2.432511	0.824157	-0.000097
1396	1.3880e+02	-15.5787	-45.542928	0.000294	2.939284	0.995856	-0.000118
1397	1.3890e+02	-15.6060	-45.599448	0.000142	1.418965	0.480758	-0.000057
1398	1.3900e+02	-15.6493	-45.720562	0.000304	3.040638	1.030196	-0.000122
1399	1.3910e+02	-15.6974	-45.805342	0.000213	2.128447	0.721137	-0.000085
1400	1.3920e+02	-15.7407	-45.930493	0.000314	3.141993	1.064536	-0.000126
1401	1.3930e+02	-15.7824	-46.023347	0.000233	2.331156	0.789817	-0.000093
1402	1.3940e+02	-15.8081	-46.140424	0.000294	2.939284	0.995856	-0.000118
1403	1.3950e+02	-15.8643	-46.213093	0.000182	1.824383	0.618118	-0.000073
1404	1.3960e+02	-15.8899	-46.301910	0.000223	2.229802	0.755477	-0.000089
1405	1.3970e+02	-15.9429	-46.398801	0.000243	2.432511	0.824157	-0.000097
1406	1.3980e+02	-15.9685	-46.503767	0.000264	2.635220	0.892837	-0.000105
1407	1.3990e+02	-16.0151	-46.604695	0.000253	2.533865	0.858497	-0.000101
1408	1.4000e+02	-16.0487	-46.681401	0.000193	1.925738	0.652458	-0.000077
1409	1.4010e+02	-16.0905	-46.814626	0.000334	3.344702	1.133216	-0.000134
1410	1.4020e+02	-16.1338	-46.887294	0.000182	1.824383	0.618118	-0.000073
1411	1.4029e+02	-16.1755	-46.996297	0.000274	2.736575	0.927177	-0.000110
1412	1.4039e+02	-16.2156	-47.109337	0.000284	2.837929	0.961516	-0.000114
1413	1.4049e+02	-16.2541	-47.177968	0.000172	1.723028	0.583778	-0.000069
1414	1.4059e+02	-16.2846	-47.307157	0.000324	3.243348	1.098876	-0.000130
1415	1.4069e+02	-16.3407	-47.387899	0.000203	2.027092	0.686797	-0.000081
1416	1.4079e+02	-16.3776	-47.504976	0.000294	2.939284	0.995856	-0.000118
1417	1.4089e+02	-16.4113	-47.601867	0.000243	2.432511	0.824157	-0.000097
1418	1.4099e+02	-16.4530	-47.682610	0.000203	2.027092	0.686797	-0.000081
1419	1.4109e+02	-16.4931	-47.767390	0.000213	2.128447	0.721137	-0.000085
1420	1.4119e+02	-16.5380	-47.888504	0.000304	3.040638	1.030196	-0.000122
1421	1.4129e+02	-16.5733	-48.009618	0.000304	3.040638	1.030196	-0.000122
1422	1.4139e+02	-16.6166	-48.090361	0.000203	2.027092	0.686797	-0.000081
1423	1.4149e+02	-16.6455	-48.219549	0.000324	3.243348	1.098876	-0.000130
1424	1.4159e+02	-16.6856	-48.288181	0.000172	1.723028	0.583778	-0.000069
1425	1.4169e+02	-16.7241	-48.397183	0.000274	2.736575	0.927177	-0.000110
1426	1.4179e+02	-16.7706	-48.498112	0.000253	2.533865	0.858497	-0.000101
1427	1.4189e+02	-16.8140	-48.570780	0.000182	1.824383	0.618118	-0.000073
1428	1.4199e+02	-16.8525	-48.671708	0.000253	2.533865	0.858497	-0.000101
1429	1.4209e+02	-16.8878	-48.748414	0.000193	1.925738	0.652458	-0.000077
1430	1.4219e+02	-16.9231	-48.909899	0.000405	4.054185	1.373595	-0.000162
1431	1.4228e+02	-16.9664	-48.966419	0.000142	1.418965	0.480758	-0.000057
1432	1.4238e+02	-17.0129	-49.091571	0.000314	3.141993	1.064536	-0.000126
1433	1.4248e+02	-17.0578	-49.176350	0.000213	2.128447	0.721137	-0.000085
1434	1.4258e+02	-17.0899	-49.289390	0.000284	2.837929	0.961516	-0.000114
1435	1.4268e+02	-17.1332	-49.362059	0.000182	1.824383	0.618118	-0.000073
1436	1.4278e+02	-17.1781	-49.467024	0.000264	2.635220	0.892837	-0.000105
1437	1.4288e+02	-17.2118	-49.604287	0.000345	3.446057	1.167556	-0.000138
1438	1.4298e+02	-17.2535	-49.697141	0.000233	2.331156	0.789817	-0.000093
1439	1.4308e+02	-17.2904	-49.781921	0.000213	2.128447	0.721137	-0.000085
1440	1.4318e+02	-17.3289	-49.911109	0.000324	3.243348	1.098876	-0.000130
1441	1.4328e+02	-17.3642	-49.983778	0.000182	1.824383	0.618118	-0.000073
1442	1.4338e+02	-17.3979	-50.080669	0.000243	2.432511	0.824157	-0.000097
1443	1.4348e+02	-17.4492	-50.193709	0.000284	2.837929	0.961516	-0.000114
1444	1.4358e+02	-17.4845	-50.314823	0.000304	3.040638	1.030196	-0.000122
1445	1.4368e+02	-17.5311	-50.403640	0.000223	2.229802	0.755477	-0.000089
1446	1.4378e+02	-17.5647	-50.496494	0.000233	2.331156	0.789817	-0.000093
1447	1.4388e+02	-17.6065	-50.593385	0.000243	2.432511	0.824157	-0.000097
1448	1.4398e+02	-17.6450	-50.746796	0.000385	3.851475	1.304915	-0.000154
1449	1.4408e+02	-17.6947	-50.771019	0.000061	0.608128	0.206039	-0.000024
1450	1.4418e+02	-17.7316	-50.908282	0.000345	3.446057	1.167556	-0.000138
1451	1.4428e+02	-17.7701	-50.993062	0.000213	2.128447	0.721137	-0.000085
1452	1.4437e+02	-17.8070	-51.142436	0.000375	3.750121	1.270575	-0.000150
1453	1.4447e+02	-17.8631	-51.211067	0.000172	1.723028	0.583778	-0.000069
1454	1.4457e+02	-17.8840	-51.352367	0.000355	3.547412	1.201896	-0.000142
1455	1.4467e+02	-17.9305	-51.449258	0.000243	2.432511	0.824157	-0.000097
1456	1.4477e+02	-17.9770	-51.517889	0.000172	1.723028	0.583778	-0.000069
1457	1.4487e+02	-18.0171	-51.687449	0.000426	4.256894	1.442275	-0.000170
1458	1.4497e+02	-18.0524	-51.780303	0.000233	2.331156	0.789817	-0.000093
1459	1.4507e+02	-18.0813	-51.848934	0.000172	1.723028	0.583778	-0.000069
1460	1.4517e+02	-18.1326	-51.929677	0.000203	2.027092	0.686797	-0.000081
1461	1.4527e+02	-18.1744	-52.062902	0.000334	3.344702	1.133216	-0.000134
1462	1.4537e+02	-18.2048	-52.200165	0.000345	3.446057	1.167556	-0.000138
1463	1.4547e+02	-18.2417	-52.317242	0.000294	2.939284	0.995856	-0.000118
1464	1.4557e+02	-18.2915	-52.422208	0.000264	2.635220	0.892837	-0.000105
1465	1.4567e+02	-18.3268	-52.535247	0.000284	2.837929	0.961516	-0.000114
1466	1.4577e+02	-18.3637	-52.628101	0.000233	2.331156	0.789817	-0.000093
1467	1.4587e+02	-18.4086	-52.684621	0.000142	1.418965	0.480758	-0.000057
1468	1.4597e+02	-18.4407	-52.793624	0.000274	2.736575	0.927177	-0.000110
1469	1.4607e+02	-18.4808	-52.918775	0.000314	3.141993	1.064536	-0.000126
1470	1.4617e+02	-18.5273	-53.015667	0.000243	2.432511	0.824157	-0.000097
1471	1.4626e+02	-18.5674	-53.152929	0.000345	3.446057	1.167556	-0.000138
1472	1.4636e+02	-18.6011	-53.294229	0.000355	3.547412	1.201896	-0.000142
1473	1.4646e+02	-18.6524	-53.358823	0.000162	1.621674	0.549438	-0.000065
1474	1.4656e+02	-18.6813	-53.475900	0.000294	2.939284	0.995856	-0.000118
1475	1.4666e+02	-18.7198	-53.564717	0.000223	2.229802	0.755477	-0.000089
1476	1.4676e+02	-18.7615	-53.714091	0.000375	3.750121	1.270575	-0.000150
1477	1.4686e+02	-18.8048	-53.855391	0.000355	3.547412	1.201896	-0.000142
1478	1.4696e+02	-18.8433	-53.944208	0.000223	2.229802	0.755477	-0.000089
1479	1.4706e+02	-18.8850	-54.020913	0.000193	1.925738	0.652458	-0.000077
1480	1.4716e+02	-18.9171	-54.158176	0.000345	3.446057	1.167556	-0.000138
1481	1.4726e+02	-18.9701	-54.283327	0.000314	3.141993	1.064536	-0.000126
1482	1.4736e+02	-19.0021	-54.372144	0.000223	2.229802	0.755477	-0.000089
1483	1.4746e+02	-19.0294	-54.533630	0.000405	4.054185	1.373595	-0.000162
1484	1.4756e+02	-19.0920	-54.618409	0.000213	2.128447	0.721137	-0.000085
1485	1.4766e+02	-19.1192	-54.691078	0.000182	1.824383	0.618118	-0.000073
1486	1.4776e+02	-19.1610	-54.880823	0.000476	4.763667	1.613974	-0.000191
1487	1.4786e+02	-19.1995	-55.014049	0.000334	3.344702	1.133216	-0.000134
1488	1.4796e+02	-19.2396	-55.062494	0.000122	1.216255	0.412078	-0.000049
1489	1.4806e+02	-19.2909	-55.219943	0.000395	3.952830	1.339255	-0.000158
1490	1.4816e+02	-19.3262	-55.320871	0.000253	2.533865	0.858497	-0.000101
1491	1.4825e+02	-19.3599	-55.397577	0.000193	1.925738	0.652458	-0.000077
1492	1.4835e+02	-19.3984	-55.563099	0.000416	4.155539	1.407935	-0.000166
1493	1.4845e+02	-19.4465	-55.655953	0.000233	2.331156	0.789817	-0.000093
1494	1.4855e+02	-19.4754	-55.777067	0.000304	3.040638	1.030196	-0.000122
1495	1.4865e+02	-19.5203	-55.898181	0.000304	3.040638	1.030196	-0.000122
1496	1.4875e+02	-19.5636	-56.039481	0.000355	3.547412	1.201896	-0.000142
1497	1.4885e+02	-19.6021	-56.160595	0.000304	3.040638	1.030196	-0.000122
1498	1.4895e+02	-19.6390	-56.261524	0.000253	2.533865	0.858497	-0.000101
1499	1.4905e+02	-19.6759	-56.410898	0.000375	3.750121	1.270575	-0.000150
1500	1.4915e+02	-19.7096	-56.544123	0.000334	3.344702	1.133216	-0.000134
1501	1.4925e+02	-19.7577	-56.596606	0.000132	1.317610	0.446418	-0.000053
1502	1.4935e+02	-19.7978	-56.766166	0.000426	4.256894	1.442275	-0.000170
1503	1.4945e+02	-19.8315	-56.899391	0.000334	3.344702	1.133216	-0.000134
1504	1.4955e+02	-19.8764	-57.016468	0.000294	2.939284	0.995856	-0.000118
1505	1.4965e+02	-19.9198	-57.137582	0.000304	3.040638	1.030196	-0.000122
1506	1.4975e+02	-19.9551	-57.270808	0.000334	3.344702	1.133216	-0.000134
1507	1.4985e+02	-19.9968	-57.391922	0.000304	3.040638	1.030196	-0.000122
1508	1.4995e+02	-19.9551	-57.323290	0.000172	1.723028	0.583778	0.000069
1509	1.5005e+02	-19.9133	-57.282919	0.000101	1.013546	0.343399	0.000041
1510	1.5015e+02	-19.8716	-57.278882	0.000010	0.101355	0.034340	0.000004
1511	1.5025e+02	-19.8315	-57.157768	0.000304	3.040638	1.030196	0.000122
1512	1.5034e+02	-19.8091	-57.141619	0.000041	0.405418	0.137359	0.000016
1513	1.5044e+02	-19.7641	-57.105285	0.000091	0.912192	0.309059	0.000037
1514	1.5054e+02	-19.7208	-57.028579	0.000193	1.925738	0.652458	0.000077
1515	1.5064e+02	-19.6823	-56.959948	0.000172	1.723028	0.583778	0.000069
1516	1.5074e+02	-19.6342	-56.911502	0.000122	1.216255	0.412078	0.000049
1517	1.5084e+02	-19.6053	-56.883243	0.000071	0.709482	0.240379	0.000028
1518	1.5094e+02	-19.5572	-56.794426	0.000223	2.229802	0.755477	0.000089
1519	1.5104e+02	-19.5283	-56.725794	0.000172	1.723028	0.583778	0.000069
1520	1.5114e+02	-19.4770	-56.649089	0.000193	1.925738	0.652458	0.000077
1521	1.5124e+02	-19.4433	-56.616792	0.000081	0.810837	0.274719	0.000032
1522	1.5134e+02	-19.3968	-56.483566	0.000334	3.344702	1.133216	0.000134
1523	1.5144e+02	-19.3679	-56.467418	0.000041	0.405418	0.137359	0.000016
1524	1.5154e+02	-19.3214	-56.406861	0.000152	1.520319	0.515098	0.000061
1525	1.5164e+02	-19.2813	-56.338229	0.000172	1.723028	0.583778	0.000069
1526	1.5174e+02	-19.2396	-56.249412	0.000223	2.229802	0.755477	0.000089
1527	1.5184e+02	-19.2123	-56.184818	0.000162	1.621674	0.549438	0.000065
1528	1.5194e+02	-19.1545	-56.096001	0.000223	2.229802	0.755477	0.000089
1529	1.5204e+02	-19.1209	-56.043518	0.000132	1.317610	0.446418	0.000053
1530	1.5214e+02	-19.0759	-55.946627	0.000243	2.432511	0.824157	0.000097
1531	1.5224e+02	-19.0455	-55.886070	0.000152	1.520319	0.515098	0.000061
1532	1.5233e+02	-19.0053	-55.768993	0.000294	2.939284	0.995856	0.000118
1533	1.5243e+02	-18.9636	-55.720547	0.000122	1.216255	0.412078	0.000049
1534	1.5253e+02	-18.9251	-55.647879	0.000182	1.824383	0.618118	0.000073
1535	1.5263e+02	-18.8802	-55.603471	0.000111	1.114901	0.377739	0.000045
1536	1.5273e+02	-18.8465	-55.502542	0.000253	2.533865	0.858497	0.000101
1537	1.5283e+02	-18.8016	-55.437948	0.000162	1.621674	0.549438	0.000065
1538	1.5293e+02	-18.7663	-55.345094	0.000233	2.331156	0.789817	0.000093
1539	1.5303e+02	-18.7246	-55.260314	0.000213	2.128447	0.721137	0.000085
1540	1.5313e+02	-18.6861	-55.199757	0.000152	1.520319	0.515098	0.000061
1541	1.5323e+02	-18.6460	-55.110940	0.000223	2.229802	0.755477	0.000089
1542	1.5333e+02	-18.6059	-55.038272	0.000182	1.824383	0.618118	0.000073
1543	1.5343e+02	-18.5626	-54.933306	0.000264	2.635220	0.892837	0.000105
1544	1.5353e+02	-18.5161	-54.832378	0.000253	2.533865	0.858497	0.000101
1545	1.5363e+02	-18.4888	-54.779895	0.000132	1.317610	0.446418	0.000053
1546	1.5373e+02	-18.4374	-54.739523	0.000101	1.013546	0.343399	0.000041
1547	1.5383e+02	-18.4070	-54.610335	0.000324	3.243348	1.098876	0.000130
1548	1.5393e+02	-18.3749	-54.537667	0.000182	1.824383	0.618118	0.000073
1549	1.5403e+02	-18.3252	-54.460961	0.000193	1.925738	0.652458	0.000077
1550	1.5413e+02	-18.2834	-54.355996	0.000264	2.635220	0.892837	0.000105
1551	1.5422e+02	-18.2449	-54.238919	0.000294	2.939284	0.995856	0.000118
1552	1.5432e+02	-18.2080	-54.218733	0.000051	0.506773	0.171699	0.000020
1553	1.5442e+02	-18.1695	-54.101656	0.000294	2.939284	0.995856	0.000118
1554	1.5452e+02	-18.1214	-54.057248	0.000111	1.114901	0.377739	0.000045
1555	1.5462e+02	-18.0925	-53.972468	0.000213	2.128447	0.721137	0.000085
1556	1.5472e+02	-18.0492	-53.835205	0.000345	3.446057	1.167556	0.000138
1557	1.5482e+02	-18.0027	-53.786759	0.000122	1.216255	0.412078	0.000049
1558	1.5492e+02	-17.9594	-53.689868	0.000243	2.432511	0.824157	0.000097
1559	1.5502e+02	-17.9257	-53.592977	0.000243	2.432511	0.824157	0.000097
1560	1.5512e+02	-17.8920	-53.528383	0.000162	1.621674	0.549438	0.000065
1561	1.5522e+02	-17.8503	-53.431491	0.000243	2.432511	0.824157	0.000097
1562	1.5532e+02	-17.8022	-53.362860	0.000172	1.723028	0.583778	0.000069
1563	1.5542e+02	-17.7669	-53.257895	0.000264	2.635220	0.892837	0.000105
1564	1.5552e+02	-17.7284	-53.165041	0.000233	2.331156	0.789817	0.000093
1565	1.5562e+02	-17.6931	-53.100446	0.000162	1.621674	0.549438	0.000065
1566	1.5572e+02	-17.6434	-53.011629	0.000223	2.229802	0.755477	0.000089
1567	1.5582e+02	-17.6065	-52.918775	0.000233	2.331156	0.789817	0.000093
1568	1.5592e+02	-17.5760	-52.846107	0.000182	1.824383	0.618118	0.000073
1569	1.5602e+02	-17.5246	-52.745178	0.000253	2.533865	0.858497	0.000101
1570	1.5612e+02	-17.4910	-52.607916	0.000345	3.446057	1.167556	0.000138
1571	1.5622e+02	-17.4476	-52.547359	0.000152	1.520319	0.515098	0.000061
1572	1.5631e+02	-17.4043	-52.474690	0.000182	1.824383	0.618118	0.000073
1573	1.5641e+02	-17.3738	-52.385873	0.000223	2.229802	0.755477	0.000089
1574	1.5651e+02	-17.3209	-52.313205	0.000182	1.824383	0.618118	0.000073
1575	1.5661e+02	-17.2856	-52.184017	0.000324	3.243348	1.098876	0.000130
1576	1.5671e+02	-17.2471	-52.123460	0.000152	1.520319	0.515098	0.000061
1577	1.5681e+02	-17.2102	-52.038680	0.000213	2.128447	0.721137	0.000085
1578	1.5691e+02	-17.1653	-51.885269	0.000385	3.851475	1.304915	0.000154
1579	1.5701e+02	-17.1220	-51.828749	0.000142	1.418965	0.480758	0.000057
1580	1.5711e+02	-17.0899	-51.784340	0.000111	1.114901	0.377739	0.000045
1581	1.5721e+02	-17.0482	-51.691486	0.000233	2.331156	0.789817	0.000093
1582	1.5731e+02	-17.0049	-51.566335	0.000314	3.141993	1.064536	0.000126
1583	1.5741e+02	-16.9680	-51.509815	0.000142	1.418965	0.480758	0.000057
1584	1.5751e+02	-16.9279	-51.433109	0.000193	1.925738	0.652458	0.000077
1585	1.5761e+02	-16.8846	-51.364478	0.000172	1.723028	0.583778	0.000069
1586	1.5771e+02	-16.8412	-51.239327	0.000314	3.141993	1.064536	0.000126
1587	1.5781e+02	-16.8011	-51.142436	0.000243	2.432511	0.824157	0.000097
1588	1.5791e+02	-16.7723	-51.041507	0.000253	2.533865	0.858497	0.000101
1589	1.5801e+02	-16.7402	-50.952690	0.000223	2.229802	0.755477	0.000089
1590	1.5811e+02	-16.6904	-50.871947	0.000203	2.027092	0.686797	0.000081
1591	1.5821e+02	-16.6487	-50.783130	0.000223	2.229802	0.755477	0.000089
1592	1.5830e+02	-16.6102	-50.666054	0.000294	2.939284	0.995856	0.000118
1593	1.5840e+02	-16.5669	-50.609534	0.000142	1.418965	0.480758	0.000057
1594	1.5850e+02	-16.5316	-50.512642	0.000243	2.432511	0.824157	0.000097
1595	1.5860e+02	-16.4931	-50.375380	0.000345	3.446057	1.167556	0.000138
1596	1.5870e+02	-16.4482	-50.322897	0.000132	1.317610	0.446418	0.000053
1597	1.5880e+02	-16.4145	-50.213894	0.000274	2.736575	0.927177	0.000110
1598	1.5890e+02	-16.3760	-50.161412	0.000132	1.317610	0.446418	0.000053
1599	1.5900e+02	-16.3375	-49.991852	0.000426	4.256894	1.442275	0.000170
1600	1.5910e+02	-16.2958	-49.955518	0.000091	0.912192	0.309059	0.000037
1601	1.5920e+02	-16.2557	-49.866701	0.000223	2.229802	0.755477	0.000089
1602	1.5930e+02	-16.2124	-49.765772	0.000253	2.533865	0.858497	0.000101
1603	1.5940e+02	-16.1691	-49.713289	0.000132	1.317610	0.446418	0.000053
1604	1.5950e+02	-16.1370	-49.604287	0.000274	2.736575	0.927177	0.000110
1605	1.5960e+02	-16.0872	-49.479136	0.000314	3.141993	1.064536	0.000126
1606	1.5970e+02	-16.0503	-49.386281	0.000233	2.331156	0.789817	0.000093
1607	1.5980e+02	-16.0102	-49.325724	0.000152	1.520319	0.515098	0.000061
1608	1.5990e+02	-15.9750	-49.216722	0.000274	2.736575	0.927177	0.000110
1609	1.6000e+02	-15.9397	-49.168276	0.000122	1.216255	0.412078	0.000049
1610	1.6010e+02	-15.8931	-49.059273	0.000274	2.736575	0.927177	0.000110
1611	1.6019e+02	-15.8562	-48.990642	0.000172	1.723028	0.583778	0.000069
1612	1.6029e+02	-15.8145	-48.853380	0.000345	3.446057	1.167556	0.000138
1613	1.6039e+02	-15.7760	-48.817045	0.000091	0.912192	0.309059	0.000037
1614	1.6049e+02	-15.7295	-48.708043	0.000274	2.736575	0.927177	0.000110
1615	1.6059e+02	-15.6974	-48.550594	0.000395	3.952830	1.339255	0.000158
1616	1.6069e+02	-15.6541	-48.542520	0.000020	0.202709	0.068680	0.000008
1617	1.6079e+02	-15.6188	-48.421406	0.000304	3.040638	1.030196	0.000122
1618	1.6089e+02	-15.5739	-48.320478	0.000253	2.533865	0.858497	0.000101
1619	1.6099e+02	-15.5370	-48.251846	0.000172	1.723028	0.583778	0.000069
1620	1.6109e+02	-15.4889	-48.134769	0.000294	2.939284	0.995856	0.000118
1621	1.6119e+02	-15.4552	-48.070175	0.000162	1.621674	0.549438	0.000065
1622	1.6129e+02	-15.4071	-47.985395	0.000213	2.128447	0.721137	0.000085
1623	1.6139e+02	-15.3718	-47.852170	0.000334	3.344702	1.133216	0.000134
1624	1.6149e+02	-15.3300	-47.783539	0.000172	1.723028	0.583778	0.000069
1625	1.6159e+02	-15.2948	-47.690684	0.000233	2.331156	0.789817	0.000093
1626	1.6169e+02	-15.2611	-47.605905	0.000213	2.128447	0.721137	0.000085
1627	1.6179e+02	-15.2258	-47.504976	0.000253	2.533865	0.858497	0.000101
1628	1.6189e+02	-15.1841	-47.416159	0.000223	2.229802	0.755477	0.000089
1629	1.6199e+02	-15.1375	-47.327342	0.000223	2.229802	0.755477	0.000089
1630	1.6209e+02	-15.0878	-47.210265	0.000294	2.939284	0.995856	0.000118
1631	1.6219e+02	-15.0605	-47.161820	0.000122	1.216255	0.412078	0.000049
1632	1.6228e+02	-15.0268	-47.040706	0.000304	3.040638	1.030196	0.000122
1633	1.6238e+02	-14.9771	-46.980149	0.000152	1.520319	0.515098	0.000061
1634	1.6248e+02	-14.9322	-46.875183	0.000264	2.635220	0.892837	0.000105
1635	1.6258e+02	-14.9017	-46.770218	0.000264	2.635220	0.892837	0.000105
1636	1.6268e+02	-14.8536	-46.697549	0.000182	1.824383	0.618118	0.000073
1637	1.6278e+02	-14.8215	-46.608732	0.000223	2.229802	0.755477	0.000089
1638	1.6288e+02	-14.7862	-46.495692	0.000284	2.837929	0.961516	0.000114
1639	1.6298e+02	-14.7317	-46.447247	0.000122	1.216255	0.412078	0.000049
1640	1.6308e+02	-14.6996	-46.281724	0.000416	4.155539	1.407935	0.000166
1641	1.6318e+02	-14.6595	-46.213093	0.000172	1.723028	0.583778	0.000069
1642	1.6328e+02	-14.6162	-46.132350	0.000203	2.027092	0.686797	0.000081
1643	1.6338e+02	-14.5809	-46.043533	0.000223	2.229802	0.755477	0.000089
1644	1.6348e+02	-14.5408	-45.978939	0.000162	1.621674	0.549438	0.000065
1645	1.6358e+02	-14.5039	-45.869936	0.000274	2.736575	0.927177	0.000110
1646	1.6368e+02	-14.4525	-45.785156	0.000213	2.128447	0.721137	0.000085
1647	1.6378e+02	-14.4204	-45.676154	0.000274	2.736575	0.927177	0.000110
1648	1.6388e+02	-14.3771	-45.607522	0.000172	1.723028	0.583778	0.000069
1649	1.6398e+02	-14.3418	-45.530817	0.000193	1.925738	0.652458	0.000077
1650	1.6408e+02	-14.2937	-45.409703	0.000304	3.040638	1.030196	0.000122
1651	1.6418e+02	-14.2600	-45.316849	0.000233	2.331156	0.789817	0.000093
1652	1.6427e+02	-14.2263	-45.179586	0.000345	3.446057	1.167556	0.000138
1653	1.6437e+02	-14.1766	-45.131140	0.000122	1.216255	0.412078	0.000049
1654	1.6447e+02	-14.1461	-45.062509	0.000172	1.723028	0.583778	0.000069
1655	1.6457e+02	-14.1092	-44.957544	0.000264	2.635220	0.892837	0.000105
1656	1.6467e+02	-14.0659	-44.828355	0.000324	3.243348	1.098876	0.000130
1657	1.6477e+02	-14.0178	-44.787984	0.000101	1.013546	0.343399	0.000041
1658	1.6487e+02	-13.9809	-44.622461	0.000416	4.155539	1.407935	0.000166
1659	1.6497e+02	-13.9376	-44.565941	0.000142	1.418965	0.480758	0.000057
1660	1.6507e+02	-13.9039	-44.489236	0.000193	1.925738	0.652458	0.000077
1661	1.6517e+02	-13.8622	-44.376196	0.000284	2.837929	0.961516	0.000114
1662	1.6527e+02	-13.8189	-44.287379	0.000223	2.229802	0.755477	0.000089
1663	1.6537e+02	-13.7836	-44.214711	0.000182	1.824383	0.618118	0.000073
1664	1.6547e+02	-13.7499	-44.081485	0.000334	3.344702	1.133216	0.000134
1665	1.6557e+02	-13.7034	-44.000742	0.000203	2.027092	0.686797	0.000081
1666	1.6567e+02	-13.6600	-43.915963	0.000213	2.128447	0.721137	0.000085
1667	1.6577e+02	-13.6199	-43.827146	0.000223	2.229802	0.755477	0.000089
1668	1.6587e+02	-13.5782	-43.718143	0.000274	2.736575	0.927177	0.000110
1669	1.6597e+02	-13.5429	-43.629326	0.000223	2.229802	0.755477	0.000089
1670	1.6607e+02	-13.5060	-43.556657	0.000182	1.824383	0.618118	0.000073
1671	1.6616e+02	-13.4611	-43.459766	0.000243	2.432511	0.824157	0.000097
1672	1.6626e+02	-13.4354	-43.346726	0.000284	2.837929	0.961516	0.000114
1673	1.6636e+02	-13.3809	-43.241761	0.000264	2.635220	0.892837	0.000105
1674	1.6646e+02	-13.3488	-43.193315	0.000122	1.216255	0.412078	0.000049
1675	1.6656e+02	-13.3023	-43.084313	0.000274	2.736575	0.927177	0.000110
1676	1.6666e+02	-13.2702	-42.979347	0.000264	2.635220	0.892837	0.000105
1677	1.6676e+02	-13.2301	-42.878419	0.000253	2.533865	0.858497	0.000101
1678	1.6686e+02	-13.1836	-42.785565	0.000233	2.331156	0.789817	0.000093
1679	1.6696e+02	-13.1563	-42.725008	0.000152	1.520319	0.515098	0.000061
1680	1.6706e+02	-13.1002	-42.599856	0.000314	3.141993	1.064536	0.000126
1681	1.6716e+02	-13.0697	-42.519114	0.000203	2.027092	0.686797	0.000081
1682	1.6726e+02	-13.0167	-42.414148	0.000264	2.635220	0.892837	0.000105
1683	1.6736e+02	-12.9782	-42.276885	0.000345	3.446057	1.167556	0.000138
1684	1.6746e+02	-12.9462	-42.216328	0.000152	1.520319	0.515098	0.000061
1685	1.6756e+02	-12.9012	-42.139623	0.000193	1.925738	0.652458	0.000077
1686	1.6766e+02	-12.8627	-42.026583	0.000284	2.837929	0.961516	0.000114
1687	1.6776e+02	-12.8290	-41.921618	0.000264	2.635220	0.892837	0.000105
1688	1.6786e+02	-12.7841	-41.840875	0.000203	2.027092	0.686797	0.000081
1689	1.6796e+02	-12.7456	-41.735909	0.000264	2.635220	0.892837	0.000105
1690	1.6806e+02	-12.7135	-41.647092	0.000223	2.229802	0.755477	0.000089
1691	1.6816e+02	-12.6622	-41.530015	0.000294	2.939284	0.995856	0.000118
1692	1.6825e+02	-12.6301	-41.433124	0.000243	2.432511	0.824157	0.000097
1693	1.6835e+02	-12.5948	-41.348344	0.000213	2.128447	0.721137	0.000085
1694	1.6845e+02	-12.5499	-41.227230	0.000304	3.040638	1.030196	0.000122
1695	1.6855e+02	-12.5066	-41.126302	0.000253	2.533865	0.858497	0.000101
1696	1.6865e+02	-12.4601	-41.041522	0.000213	2.128447	0.721137	0.000085
1697	1.6875e+02	-12.4408	-40.989039	0.000132	1.317610	0.446418	0.000053
1698	1.6885e+02	-12.3863	-40.823517	0.000416	4.155539	1.407935	0.000166
1699	1.6895e+02	-12.3462	-40.694328	0.000324	3.243348	1.098876	0.000130
1700	1.6905e+02	-12.3077	-40.613586	0.000203	2.027092	0.686797	0.000081
1701	1.6915e+02	-12.2676	-40.512657	0.000253	2.533865	0.858497	0.000101
1702	1.6925e+02	-12.2355	-40.435952	0.000193	1.925738	0.652458	0.000077
1703	1.6935e+02	-12.1890	-40.298689	0.000345	3.446057	1.167556	0.000138
1704	1.6945e+02	-12.1521	-40.258318	0.000101	1.013546	0.343399	0.000041
1705	1.6955e+02	-12.1104	-40.141241	0.000294	2.939284	0.995856	0.000118
1706	1.6965e+02	-12.0831	-40.048387	0.000233	2.331156	0.789817	0.000093
1707	1.6975e+02	-12.0317	-39.927272	0.000304	3.040638	1.030196	0.000122
1708	1.6985e+02	-11.9916	-39.781936	0.000365	3.648766	1.236235	0.000146
1709	1.6995e+02	-11.9580	-39.713304	0.000172	1.723028	0.583778	0.000069
1710	1.7005e+02	-11.9082	-39.636599	0.000193	1.925738	0.652458	0.000077
1711	1.7015e+02	-11.8633	-39.515485	0.000304	3.040638	1.030196	0.000122
1712	1.7024e+02	-11.8296	-39.434742	0.000203	2.027092	0.686797	0.000081
1713	1.7034e+02	-11.7847	-39.289405	0.000365	3.648766	1.236235	0.000146
1714	1.7044e+02	-11.7590	-39.208662	0.000203	2.027092	0.686797	0.000081
1715	1.7054e+02	-11.7205	-39.144068	0.000162	1.621674	0.549438	0.000065
1716	1.7064e+02	-11.6692	-39.002768	0.000355	3.547412	1.201896	0.000142
1717	1.7074e+02	-11.6339	-38.873580	0.000324	3.243348	1.098876	0.000130
1718	1.7084e+02	-11.5922	-38.808986	0.000162	1.621674	0.549438	0.000065
1719	1.7094e+02	-11.5537	-38.708057	0.000253	2.533865	0.858497	0.000101
1720	1.7104e+02	-11.5136	-38.526386	0.000456	4.560958	1.545294	0.000183
1721	1.7114e+02	-11.4719	-38.490052	0.000091	0.912192	0.309059	0.000037
1722	1.7124e+02	-11.4302	-38.348752	0.000355	3.547412	1.201896	0.000142
1723	1.7134e+02	-11.4013	-38.292232	0.000142	1.418965	0.480758	0.000057
1724	1.7144e+02	-11.3499	-38.183230	0.000274	2.736575	0.927177	0.000110
1725	1.7154e+02	-11.3179	-38.082301	0.000253	2.533865	0.858497	0.000101
1726	1.7164e+02	-11.2745	-38.005596	0.000193	1.925738	0.652458	0.000077
1727	1.7174e+02	-11.2377	-37.860259	0.000365	3.648766	1.236235	0.000146
1728	1.7184e+02	-11.1991	-37.787591	0.000182	1.824383	0.618118	0.000073
1729	1.7194e+02	-11.1526	-37.674551	0.000284	2.837929	0.961516	0.000114
1730	1.7204e+02	-11.1173	-37.553437	0.000304	3.040638	1.030196	0.000122
1731	1.7213e+02	-11.0724	-37.452508	0.000253	2.533865	0.858497	0.000101
1732	1.7223e+02	-11.0355	-37.367728	0.000213	2.128447	0.721137	0.000085
1733	1.7233e+02	-10.9938	-37.238540	0.000324	3.243348	1.098876	0.000130
1734	1.7243e+02	-10.9521	-37.149723	0.000223	2.229802	0.755477	0.000089
1735	1.7253e+02	-10.9200	-37.020535	0.000324	3.243348	1.098876	0.000130
1736	1.7263e+02	-10.8719	-36.903458	0.000294	2.939284	0.995856	0.000118
1737	1.7273e+02	-10.8302	-36.814641	0.000223	2.229802	0.755477	0.000089
1738	1.7283e+02	-10.7949	-36.689490	0.000314	3.141993	1.064536	0.000126
1739	1.7293e+02	-10.7500	-36.592598	0.000243	2.432511	0.824157	0.000097
1740	1.7303e+02	-10.7275	-36.503781	0.000223	2.229802	0.755477	0.000089
1741	1.7313e+02	-10.6778	-36.374593	0.000324	3.243348	1.098876	0.000130
1742	1.7323e+02	-10.6377	-36.257516	0.000294	2.939284	0.995856	0.000118
1743	1.7333e+02	-10.5992	-36.164662	0.000233	2.331156	0.789817	0.000093
1744	1.7343e+02	-10.5591	-36.059696	0.000264	2.635220	0.892837	0.000105
1745	1.7353e+02	-10.5174	-35.991065	0.000172	1.723028	0.583778	0.000069
1746	1.7363e+02	-10.4756	-35.857840	0.000334	3.344702	1.133216	0.000134
1747	1.7373e+02	-10.4355	-35.760948	0.000243	2.432511	0.824157	0.000097
1748	1.7383e+02	-10.4002	-35.655983	0.000264	2.635220	0.892837	0.000105
1749	1.7393e+02	-10.3601	-35.518720	0.000345	3.446057	1.167556	0.000138
1750	1.7403e+02	-10.3120	-35.425866	0.000233	2.331156	0.789817	0.000093
1751	1.7413e+02	-10.2783	-35.324938	0.000253	2.533865	0.858497	0.000101
1752	1.7422e+02	-10.2382	-35.183638	0.000355	3.547412	1.201896	0.000142
1753	1.7432e+02	-10.2045	-35.131155	0.000132	1.317610	0.446418	0.000053
1754	1.7442e+02	-10.1612	-34.985818	0.000365	3.648766	1.236235	0.000146
1755	1.7452e+02	-10.1179	-34.913150	0.000182	1.824383	0.618118	0.000073
1756	1.7462e+02	-10.0794	-34.775887	0.000345	3.446057	1.167556	0.000138
1757	1.7472e+02	-10.0281	-34.687070	0.000223	2.229802	0.755477	0.000089
1758	1.7482e+02	-9.9992	-34.561919	0.000314	3.141993	1.064536	0.000126
1759	1.7492e+02	-9.9575	-34.428694	0.000334	3.344702	1.133216	0.000134
1760	1.7502e+02	-9.9206	-34.384285	0.000111	1.114901	0.377739	0.000045
1761	1.7512e+02	-9.8741	-34.210688	0.000436	4.358248	1.476615	0.000174
1762	1.7522e+02	-9.8339	-34.162243	0.000122	1.216255	0.412078	0.000049
1763	1.7532e+02	-9.7987	-34.041129	0.000304	3.040638	1.030196	0.000122
1764	1.7542e+02	-9.7553	-33.883680	0.000395	3.952830	1.339255	0.000158
1765	1.7552e+02	-9.7184	-33.831197	0.000132	1.317610	0.446418	0.000053
1766	1.7562e+02	-9.6767	-33.710083	0.000304	3.040638	1.030196	0.000122
1767	1.7572e+02	-9.6446	-33.601081	0.000274	2.736575	0.927177	0.000110
1768	1.7582e+02	-9.5997	-33.488041	0.000284	2.837929	0.961516	0.000114
1769	1.7592e+02	-9.5548	-33.375001	0.000284	2.837929	0.961516	0.000114
1770	1.7602e+02	-9.5179	-33.261961	0.000284	2.837929	0.961516	0.000114
1771	1.7612e+02	-9.4730	-33.165070	0.000243	2.432511	0.824157	0.000097
1772	1.7621e+02	-9.4505	-33.104513	0.000152	1.520319	0.515098	0.000061
1773	1.7631e+02	-9.4120	-32.930916	0.000436	4.358248	1.476615	0.000174
1774	1.7641e+02	-9.3527	-32.842099	0.000223	2.229802	0.755477	0.000089
1775	1.7651e+02	-9.3222	-32.749245	0.000233	2.331156	0.789817	0.000093
1776	1.7661e+02	-9.2885	-32.620057	0.000324	3.243348	1.098876	0.000130
1777	1.7671e+02	-9.2404	-32.559500	0.000152	1.520319	0.515098	0.000061
1778	1.7681e+02	-9.2003	-32.450497	0.000274	2.736575	0.927177	0.000110
1779	1.7691e+02	-9.1650	-32.353606	0.000243	2.432511	0.824157	0.000097
1780	1.7701e+02	-9.1201	-32.196158	0.000395	3.952830	1.339255	0.000158
1781	1.7711e+02	-9.0751	-32.131563	0.000162	1.621674	0.549438	0.000065
1782	1.7721e+02	-9.0382	-32.018524	0.000284	2.837929	0.961516	0.000114
1783	1.7731e+02	-9.0046	-31.905484	0.000284	2.837929	0.961516	0.000114
1784	1.7741e+02	-8.9645	-31.748035	0.000395	3.952830	1.339255	0.000158
1785	1.7751e+02	-8.9227	-31.651144	0.000243	2.432511	0.824157	0.000097
1786	1.7761e+02	-8.8891	-31.558290	0.000233	2.331156	0.789817	0.000093
1787	1.7771e+02	-8.8329	-31.469473	0.000223	2.229802	0.755477	0.000089
1788	1.7781e+02	-8.8056	-31.356433	0.000284	2.837929	0.961516	0.000114
1789	1.7791e+02	-8.7591	-31.243393	0.000284	2.837929	0.961516	0.000114
1790	1.7801e+02	-8.7094	-31.126317	0.000294	2.939284	0.995856	0.000118
1791	1.7810e+02	-8.6821	-31.005202	0.000304	3.040638	1.030196	0.000122
1792	1.7820e+02	-8.6484	-30.908311	0.000243	2.432511	0.824157	0.000097
1793	1.7830e+02	-8.5955	-30.803346	0.000264	2.635220	0.892837	0.000105
1794	1.7840e+02	-8.5570	-30.718566	0.000213	2.128447	0.721137	0.000085
1795	1.7850e+02	-8.5185	-30.605526	0.000284	2.837929	0.961516	0.000114
1796	1.7860e+02	-8.4800	-30.496523	0.000274	2.736575	0.927177	0.000110
1797	1.7870e+02	-8.4511	-30.363298	0.000334	3.344702	1.133216	0.000134
1798	1.7880e+02	-8.4014	-30.290629	0.000182	1.824383	0.618118	0.000073
1799	1.7890e+02	-8.3629	-30.169515	0.000304	3.040638	1.030196	0.000122
1800	1.7900e+02	-8.3308	-30.060513	0.000274	2.736575	0.927177	0.000110
1801	1.7910e+02	-8.2843	-29.935361	0.000314	3.141993	1.064536	0.000126
1802	1.7920e+02	-8.2506	-29.838470	0.000243	2.432511	0.824157	0.000097
1803	1.7930e+02	-8.2040	-29.721393	0.000294	2.939284	0.995856	0.000118
1804	1.7940e+02	-8.1623	-29.580094	0.000355	3.547412	1.201896	0.000142
1805	1.7950e+02	-8.1270	-29.515499	0.000162	1.621674	0.549438	0.000065
1806	1.7960e+02	-8.0885	-29.406497	0.000274	2.736575	0.927177	0.000110
1807	1.7970e+02	-8.0388	-29.313643	0.000233	2.331156	0.789817	0.000093
1808	1.7980e+02	-8.0019	-29.172343	0.000355	3.547412	1.201896	0.000142
1809	1.7990e+02	-7.9618	-29.111786	0.000152	1.520319	0.515098	0.000061
1810	1.8000e+02	-7.9201	-28.978560	0.000334	3.344702	1.133216	0.000134
1811	1.8009e+02	-7.8832	-28.861483	0.000294	2.939284	0.995856	0.000118
1812	1.8019e+02	-7.8431	-28.748444	0.000284	2.837929	0.961516	0.000114
1813	1.8029e+02	-7.8078	-28.651552	0.000243	2.432511	0.824157	0.000097
1814	1.8039e+02	-7.7597	-28.530438	0.000304	3.040638	1.030196	0.000122
1815	1.8049e+02	-7.7276	-28.425473	0.000264	2.635220	0.892837	0.000105
1816	1.8059e+02	-7.6795	-28.332619	0.000233	2.331156	0.789817	0.000093
1817	1.8069e+02	-7.6506	-28.251876	0.000203	2.027092	0.686797	0.000081
1818	1.8079e+02	-7.6025	-28.134799	0.000294	2.939284	0.995856	0.000118
1819	1.8089e+02	-7.5736	-27.977351	0.000395	3.952830	1.339255	0.000158
1820	1.8099e+02	-7.5367	-27.932942	0.000111	1.114901	0.377739	0.000045
1821	1.8109e+02	-7.4886	-27.755308	0.000446	4.459603	1.510954	0.000179
1822	1.8119e+02	-7.4420	-27.678603	0.000193	1.925738	0.652458	0.000077
1823	1.8129e+02	-7.4100	-27.561526	0.000294	2.939284	0.995856	0.000118
1824	1.8139e+02	-7.3650	-27.436374	0.000314	3.141993	1.064536	0.000126
1825	1.8149e+02	-7.3265	-27.359669	0.000193	1.925738	0.652458	0.000077
1826	1.8159e+02	-7.2864	-27.262778	0.000243	2.432511	0.824157	0.000097
1827	1.8169e+02	-7.2479	-27.133589	0.000324	3.243348	1.098876	0.000130
1828	1.8179e+02	-7.2078	-27.020549	0.000284	2.837929	0.961516	0.000114
1829	1.8189e+02	-7.1629	-26.887324	0.000334	3.344702	1.133216	0.000134
1830	1.8199e+02	-7.1308	-26.810618	0.000193	1.925738	0.652458	0.000077
1831	1.8209e+02	-7.0859	-26.689504	0.000304	3.040638	1.030196	0.000122
1832	1.8218e+02	-7.0458	-26.592613	0.000243	2.432511	0.824157	0.000097
1833	1.8228e+02	-7.0073	-26.491685	0.000253	2.533865	0.858497	0.000101
1834	1.8238e+02	-6.9672	-26.370571	0.000304	3.040638	1.030196	0.000122
1835	1.8248e+02	-6.9303	-26.265605	0.000264	2.635220	0.892837	0.000105
1836	1.8258e+02	-6.8902	-26.140454	0.000314	3.141993	1.064536	0.000126
1837	1.8268e+02	-6.8421	-26.019340	0.000304	3.040638	1.030196	0.000122
1838	1.8278e+02	-6.8036	-25.970894	0.000122	1.216255	0.412078	0.000049
1839	1.8288e+02	-6.7779	-25.765000	0.000517	5.169085	1.751334	0.000207
1840	1.8298e+02	-6.7314	-25.708480	0.000142	1.418965	0.480758	0.000057
1841	1.8308e+02	-6.6929	-25.571218	0.000345	3.446057	1.167556	0.000138
1842	1.8318e+02	-6.6463	-25.458178	0.000284	2.837929	0.961516	0.000114
1843	1.8328e+02	-6.6175	-25.333027	0.000314	3.141993	1.064536	0.000126
1844	1.8338e+02	-6.5725	-25.272470	0.000152	1.520319	0.515098	0.000061
1845	1.8348e+02	-6.5324	-25.155393	0.000294	2.939284	0.995856	0.000118
1846	1.8358e+02	-6.4923	-25.038316	0.000294	2.939284	0.995856	0.000118
1847	1.8368e+02	-6.4522	-24.909128	0.000324	3.243348	1.098876	0.000130
1848	1.8378e+02	-6.4282	-24.792051	0.000294	2.939284	0.995856	0.000118
1849	1.8388e+02	-6.3656	-24.674974	0.000294	2.939284	0.995856	0.000118
1850	1.8398e+02	-6.3303	-24.594231	0.000203	2.027092	0.686797	0.000081
1851	1.8407e+02	-6.2982	-24.493303	0.000253	2.533865	0.858497	0.000101
1852	1.8417e+02	-6.2581	-24.372188	0.000304	3.040638	1.030196	0.000122
1853	1.8427e+02	-6.2148	-24.243000	0.000324	3.243348	1.098876	0.000130
1854	1.8437e+02	-6.1779	-24.101700	0.000355	3.547412	1.201896	0.000142
1855	1.8447e+02	-6.1378	-24.016921	0.000213	2.128447	0.721137	0.000085
1856	1.8457e+02	-6.0993	-23.895806	0.000304	3.040638	1.030196	0.000122
1857	1.8467e+02	-6.0512	-23.831212	0.000162	1.621674	0.549438	0.000065
1858	1.8477e+02	-6.0207	-23.706061	0.000314	3.141993	1.064536	0.000126
1859	1.8487e+02	-5.9742	-23.556687	0.000375	3.750121	1.270575	0.000150
1860	1.8497e+02	-5.9389	-23.451722	0.000264	2.635220	0.892837	0.000105
1861	1.8507e+02	-5.9020	-23.362905	0.000223	2.229802	0.755477	0.000089
1862	1.8517e+02	-5.8603	-23.217568	0.000365	3.648766	1.236235	0.000146
1863	1.8527e+02	-5.8169	-23.080305	0.000345	3.446057	1.167556	0.000138
1864	1.8537e+02	-5.7752	-22.983414	0.000243	2.432511	0.824157	0.000097
1865	1.8547e+02	-5.7383	-22.878448	0.000264	2.635220	0.892837	0.000105
1866	1.8557e+02	-5.6918	-22.761371	0.000294	2.939284	0.995856	0.000118
1867	1.8567e+02	-5.6501	-22.640257	0.000304	3.040638	1.030196	0.000122
1868	1.8577e+02	-5.6148	-22.498957	0.000355	3.547412	1.201896	0.000142
1869	1.8587e+02	-5.5811	-22.410140	0.000223	2.229802	0.755477	0.000089
1870	1.8597e+02	-5.5330	-22.264804	0.000365	3.648766	1.236235	0.000146
1871	1.8606e+02	-5.4977	-22.204247	0.000152	1.520319	0.515098	0.000061
1872	1.8616e+02	-5.4608	-22.054873	0.000375	3.750121	1.270575	0.000150
1873	1.8626e+02	-5.4239	-21.941833	0.000284	2.837929	0.961516	0.000114
1874	1.8636e+02	-5.3822	-21.788422	0.000385	3.851475	1.304915	0.000154
1875	1.8646e+02	-5.3389	-21.679419	0.000274	2.736575	0.927177	0.000110
1876	1.8656e+02	-5.2940	-21.590602	0.000223	2.229802	0.755477	0.000089
1877	1.8666e+02	-5.2603	-21.477562	0.000284	2.837929	0.961516	0.000114
1878	1.8676e+02	-5.2234	-21.336262	0.000355	3.547412	1.201896	0.000142
1879	1.8686e+02	-5.1801	-21.219185	0.000294	2.939284	0.995856	0.000118
1880	1.8696e+02	-5.1384	-21.077886	0.000355	3.547412	1.201896	0.000142
1881	1.8706e+02	-5.1063	-20.985032	0.000233	2.331156	0.789817	0.000093
1882	1.8716e+02	-5.0517	-20.888140	0.000243	2.432511	0.824157	0.000097
1883	1.8726e+02	-5.0180	-20.787212	0.000253	2.533865	0.858497	0.000101
1884	1.8736e+02	-4.9811	-20.629764	0.000395	3.952830	1.339255	0.000158
1885	1.8746e+02	-4.9426	-20.528835	0.000253	2.533865	0.858497	0.000101
1886	1.8756e+02	-4.9057	-20.379461	0.000375	3.750121	1.270575	0.000150
1887	1.8766e+02	-4.8608	-20.254310	0.000314	3.141993	1.064536	0.000126
1888	1.8776e+02	-4.8143	-20.165493	0.000223	2.229802	0.755477	0.000089
1889	1.8786e+02	-4.7918	-20.048416	0.000294	2.939284	0.995856	0.000118
1890	1.8796e+02	-4.7309	-19.927302	0.000304	3.040638	1.030196	0.000122
1891	1.8806e+02	-4.7004	-19.806188	0.000304	3.040638	1.030196	0.000122
1892	1.8815e+02	-4.6619	-19.672962	0.000334	3.344702	1.133216	0.000134
1893	1.8825e+02	-4.6234	-19.551848	0.000304	3.040638	1.030196	0.000122
1894	1.8835e+02	-4.5817	-19.450920	0.000253	2.533865	0.858497	0.000101
1895	1.8845e+02	-4.5368	-19.317695	0.000334	3.344702	1.133216	0.000134
1896	1.8855e+02	-4.4999	-19.184469	0.000334	3.344702	1.133216	0.000134
1897	1.8865e+02	-4.4630	-19.075466	0.000274	2.736575	0.927177	0.000110
1898	1.8875e+02	-4.4293	-18.994724	0.000203	2.027092	0.686797	0.000081
1899	1.8885e+02	-4.3828	-18.833238	0.000405	4.054185	1.373595	0.000162
1900	1.8895e+02	-4.3362	-18.744421	0.000223	2.229802	0.755477	0.000089
1901	1.8905e+02	-4.3058	-18.623307	0.000304	3.040638	1.030196	0.000122
1902	1.8915e+02	-4.2576	-18.465859	0.000395	3.952830	1.339255	0.000158
1903	1.8925e+02	-4.2223	-18.352819	0.000284	2.837929	0.961516	0.000114
1904	1.8935e+02	-4.1870	-18.255928	0.000243	2.432511	0.824157	0.000097
1905	1.8945e+02	-4.1453	-18.142888	0.000284	2.837929	0.961516	0.000114
1906	1.8955e+02	-4.1036	-18.013700	0.000324	3.243348	1.098876	0.000130
1907	1.8965e+02	-4.0699	-17.864326	0.000375	3.750121	1.270575	0.000150
1908	1.8975e+02	-4.0298	-17.755323	0.000274	2.736575	0.927177	0.000110
1909	1.8985e+02	-3.9849	-17.569615	0.000466	4.662312	1.579634	0.000187
1910	1.8995e+02	-3.9368	-17.496946	0.000182	1.824383	0.618118	0.000073
1911	1.9004e+02	-3.9031	-17.347572	0.000375	3.750121	1.270575	0.000150
1912	1.9014e+02	-3.8582	-17.230495	0.000294	2.939284	0.995856	0.000118
1913	1.9024e+02	-3.8325	-17.113418	0.000294	2.939284	0.995856	0.000118
1914	1.9034e+02	-3.7796	-16.976156	0.000345	3.446057	1.167556	0.000138
1915	1.9044e+02	-3.7395	-16.875227	0.000253	2.533865	0.858497	0.000101
1916	1.9054e+02	-3.6978	-16.733928	0.000355	3.547412	1.201896	0.000142
1917	1.9064e+02	-3.6705	-16.673371	0.000152	1.520319	0.515098	0.000061
1918	1.9074e+02	-3.6159	-16.491699	0.000456	4.560958	1.545294	0.000183
1919	1.9084e+02	-3.5790	-16.386734	0.000264	2.635220	0.892837	0.000105
1920	1.9094e+02	-3.5421	-16.285806	0.000253	2.533865	0.858497	0.000101
1921	1.9104e+02	-3.4972	-16.152580	0.000334	3.344702	1.133216	0.000134
1922	1.9114e+02	-3.4651	-16.019355	0.000334	3.344702	1.133216	0.000134
1923	1.9124e+02	-3.4282	-15.894203	0.000314	3.141993	1.064536	0.000126
1924	1.9134e+02	-3.3785	-15.765015	0.000324	3.243348	1.098876	0.000130
1925	1.9144e+02	-3.3480	-15.635827	0.000324	3.243348	1.098876	0.000130
1926	1.9154e+02	-3.3063	-15.502601	0.000334	3.344702	1.133216	0.000134
1927	1.9164e+02	-3.2758	-15.458193	0.000111	1.114901	0.377739	0.000045
1928	1.9174e+02	-3.2213	-15.264410	0.000487	4.865022	1.648314	0.000195
1929	1.9184e+02	-3.1876	-15.183668	0.000203	2.027092	0.686797	0.000081
1930	1.9194e+02	-3.1411	-15.046405	0.000345	3.446057	1.167556	0.000138
1931	1.9203e+02	-3.1074	-14.897031	0.000375	3.750121	1.270575	0.000150
1932	1.9213e+02	-3.0737	-14.796102	0.000253	2.533865	0.858497	0.000101
1933	1.9223e+02	-3.0304	-14.638654	0.000395	3.952830	1.339255	0.000158
1934	1.9233e+02	-2.9855	-14.529652	0.000274	2.736575	0.927177	0.000110
1935	1.9243e+02	-2.9470	-14.412575	0.000294	2.939284	0.995856	0.000118
1936	1.9253e+02	-2.9037	-14.279349	0.000334	3.344702	1.133216	0.000134
1937	1.9263e+02	-2.8652	-14.142086	0.000345	3.446057	1.167556	0.000138
1938	1.9273e+02	-2.8234	-14.037121	0.000264	2.635220	0.892837	0.000105
1939	1.9283e+02	-2.7930	-13.932155	0.000264	2.635220	0.892837	0.000105
1940	1.9293e+02	-2.7513	-13.790856	0.000355	3.547412	1.201896	0.000142
1941	1.9303e+02	-2.7144	-13.681853	0.000274	2.736575	0.927177	0.000110
1942	1.9313e+02	-2.6582	-13.544590	0.000345	3.446057	1.167556	0.000138
1943	1.9323e+02	-2.6342	-13.387142	0.000395	3.952830	1.339255	0.000158
1944	1.9333e+02	-2.5956	-13.298325	0.000223	2.229802	0.755477	0.000089
1945	1.9343e+02	-2.5475	-13.177211	0.000304	3.040638	1.030196	0.000122
1946	1.9353e+02	-2.5042	-13.072246	0.000264	2.635220	0.892837	0.000105
1947	1.9363e+02	-2.4609	-12.922871	0.000375	3.750121	1.270575	0.000150
1948	1.9373e+02	-2.4256	-12.830017	0.000233	2.331156	0.789817	0.000093
1949	1.9383e+02	-2.3983	-12.672569	0.000395	3.952830	1.339255	0.000158
1950	1.9393e+02	-2.3486	-12.583752	0.000223	2.229802	0.755477	0.000089
1951	1.9403e+02	-2.3005	-12.454564	0.000324	3.243348	1.098876	0.000130
1952	1.9412e+02	-2.2716	-12.357672	0.000243	2.432511	0.824157	0.000097
1953	1.9422e+02	-2.2235	-12.236558	0.000304	3.040638	1.030196	0.000122
1954	1.9432e+02	-2.1898	-12.103333	0.000334	3.344702	1.133216	0.000134
1955	1.9442e+02	-2.1449	-11.974145	0.000324	3.243348	1.098876	0.000130
1956	1.9452e+02	-2.1048	-11.800548	0.000436	4.358248	1.476615	0.000174
1957	1.9462e+02	-2.0727	-11.748065	0.000132	1.317610	0.446418	0.000053
1958	1.9472e+02	-2.0245	-11.618877	0.000324	3.243348	1.098876	0.000130
1959	1.9482e+02	-1.9892	-11.489688	0.000324	3.243348	1.098876	0.000130
1960	1.9492e+02	-1.9524	-11.344351	0.000365	3.648766	1.236235	0.000146
1961	1.9502e+02	-1.9171	-11.219200	0.000314	3.141993	1.064536	0.000126
1962	1.9512e+02	-1.8770	-11.138458	0.000203	2.027092	0.686797	0.000081
1963	1.9522e+02	-1.8256	-10.976972	0.000405	4.054185	1.373595	0.000162
1964	1.9532e+02	-1.7855	-10.847784	0.000324	3.243348	1.098876	0.000130
1965	1.9542e+02	-1.7422	-10.722633	0.000314	3.141993	1.064536	0.000126
1966	1.9552e+02	-1.7149	-10.601518	0.000304	3.040638	1.030196	0.000122
1967	1.9562e+02	-1.6732	-10.480404	0.000304	3.040638	1.030196	0.000122
1968	1.9572e+02	-1.6267	-10.387550	0.000233	2.331156	0.789817	0.000093
1969	1.9582e+02	-1.5898	-10.213953	0.000436	4.358248	1.476615	0.000174
1970	1.9592e+02	-1.5497	-10.108988	0.000264	2.635220	0.892837	0.000105
1971	1.9601e+02	-1.5096	-9.991911	0.000294	2.939284	0.995856	0.000118
1972	1.9611e+02	-1.4775	-9.846574	0.000365	3.648766	1.236235	0.000146
1973	1.9621e+02	-1.4358	-9.777943	0.000172	1.723028	0.583778	0.000069
1974	1.9631e+02	-1.3925	-9.632606	0.000365	3.648766	1.236235	0.000146
1975	1.9641e+02	-1.3540	-9.511492	0.000304	3.040638	1.030196	0.000122
1976	1.9651e+02	-1.3139	-9.394415	0.000294	2.939284	0.995856	0.000118
1977	1.9661e+02	-1.2706	-9.293486	0.000253	2.533865	0.858497	0.000101
1978	1.9671e+02	-1.2385	-9.119890	0.000436	4.358248	1.476615	0.000174
1979	1.9681e+02	-1.1984	-9.027036	0.000233	2.331156	0.789817	0.000093
1980	1.9691e+02	-1.1502	-8.877661	0.000375	3.750121	1.270575	0.000150
1981	1.9701e+02	-1.1133	-8.752510	0.000314	3.141993	1.064536	0.000126
1982	1.9711e+02	-1.0748	-8.647545	0.000264	2.635220	0.892837	0.000105
1983	1.9721e+02	-1.0283	-8.546616	0.000253	2.533865	0.858497	0.000101
1984	1.9731e+02	-0.9898	-8.449725	0.000243	2.432511	0.824157	0.000097
1985	1.9741e+02	-0.9609	-8.280165	0.000426	4.256894	1.442275	0.000170
1986	1.9751e+02	-0.9128	-8.167126	0.000284	2.837929	0.961516	0.000114
1987	1.9761e+02	-0.8727	-8.050049	0.000294	2.939284	0.995856	0.000118
1988	1.9771e+02	-0.8390	-7.912786	0.000345	3.446057	1.167556	0.000138
1989	1.9781e+02	-0.7909	-7.791672	0.000304	3.040638	1.030196	0.000122
1990	1.9791e+02	-0.7572	-7.682669	0.000274	2.736575	0.927177	0.000110
1991	1.9800e+02	-0.7171	-7.529258	0.000385	3.851475	1.304915	0.000154
1992	1.9810e+02	-0.6738	-7.420255	0.000274	2.736575	0.927177	0.000110
1993	1.9820e+02	-0.6369	-7.287030	0.000334	3.344702	1.133216	0.000134
1994	1.9830e+02	-0.5855	-7.194176	0.000233	2.331156	0.789817	0.000093
1995	1.9840e+02	-0.5551	-7.077099	0.000294	2.939284	0.995856	0.000118
1996	1.9850e+02	-0.5118	-6.943873	0.000334	3.344702	1.133216	0.000134
1997	1.9860e+02	-0.4845	-6.826797	0.000294	2.939284	0.995856	0.000118
1998	1.9870e+02	-0.4267	-6.693571	0.000334	3.344702	1.133216	0.000134
1999	1.9880e+02	-0.4011	-6.548234	0.000365	3.648766	1.236235	0.000146
2000	1.9890e+02	-0.3561	-6.402897	0.000365	3.648766	1.236235	0.000146
2001	1.9900e+02	-0.3289	-6.330229	0.000182	1.824383	0.618118	0.000073
2002	1.9910e+02	-0.2711	-6.160669	0.000426	4.256894	1.442275	0.000170
2003	1.9920e+02	-0.2342	-6.063778	0.000243	2.432511	0.824157	0.000097
2004	1.9930e+02	-0.1957	-5.950738	0.000284	2.837929	0.961516	0.000114
2005	1.9940e+02	-0.1620	-5.813475	0.000345	3.446057	1.167556	0.000138
2006	1.9950e+02	-0.1123	-5.708510	0.000264	2.635220	0.892837	0.000105
2007	1.9960e+02	-0.0850	-5.603544	0.000264	2.635220	0.892837	0.000105
2008	1.9970e+02	-0.0417	-5.429948	0.000436	4.358248	1.476615	0.000174
2009	1.9980e+02	0.0048	-5.320945	0.000436	4.358248	1.476615	0.000110

PMax (uC/cm2):	6.06e+01
Pr (uC/cm2):	2.58e+00
-Pr (uC/cm2):	-2.15e+00
PLoss (uC/cm2):	-2.14e+00
-Vc:	-8.18e-01
C (Max-Eff) (nF):	3.03e-01
K (Eff):	1.03e+03
Vert. (+/-Pr) Shift (uC/cm2):	2.13e-01
Offset (uC/cm2):	3.17e+00

A (Loop Area - uC/cm2·Volts):	2.11e-02



Hysteresis Version: 5.48.1 - Radiant Technologies, Inc., 1999 - 9/12/24

