»»»»»»»»»»»»»»»»»»»»»»»»»»»»»»»»»»»» Hysteresis ««««««««««««««««««««««««««««««««««««
»»»  Executed Version:	5.48.1
»»»  Vision Version:	5.48.4 (R)
»»»  Vision Compiled:	9/18/24
»»»  Driver Version:	5.47.0
»»»  Windows Version:	Windows 8 or 8.1
»»»  Processor Information:	x86 (AMD or Intel) - 32 Processors
»»»  Tester Name:	PMF21124-494 (100V)
»»»  Tester S/N:	PMF21124-494
»»»  Internal Amp Type:	100V RevK 270k
»»»  Internal Amp S/N:	iAB2-596/K     
»»»  Execution Count:	1
»»»»»»»»»»»»»»»»»»»»»»»»»»»»»»»»»»»»»»»»»»««««««««««««««««««««««««««««««««««««««««««

Stored:	6/17/2025 - 12:22:11
Configured:	06/17/25 10:39:14 AM
Executed:	06/17/25 12:20:43 PM

»»»»»»»»»»»»»»»»»»»»»»»»»»»»»»»»»»» Sample Info ««««««««««««««««««««««««««««««««««««
Sample Name:	
Lot Name:	
Wafer Name:	
Die Row/Column:	0/0
Capacitor Number:	0
Sample Area (cm2):	1.00e-04
Sample Thickness (microns):	3.00e-01

Amplifier:	Internal

»»»»»»»»»»»»»»»»»»»»»»»»»»»»»»»»»»» Tester Info «««««««««««««««««««««««««««««««««««
Tester Name:	PMF21124-494 (100V)
Tester Serial Number:	PMF21124-494
Return Signal Amp. Level:	0.2 [Index: 1]

»»»»»»»»»»»»»»»»»»»»»»»»»»»»»»»» Hysteresis Info ««««««««««««««««««««««««««««««««««
Task Name:	Hyst-180
Volts:	20.00
Field:	666.67 (kV/cm)
DCBias:	0.00
DCField:	0.00 (kV/cm)
Hysteresis Period (ms):	1.00e-02
Preset:	Enabled
Preset Delay (ms):	1.00e+03
Profile:	Standard Bipolar

»»»»»»»»»»»»»»»»»»»»»»»»»»»»»»»»»»»»»» Data «««««««««««««««««««««««««««««««««««««««
Points:	101

Valid Data

Point	Time (ms)	Drive Voltage	Measured Polarization (uC/cm2)	Capacitance (uF)	Normalized Capacitance (uF/cm2)	Dielectric Constant	Instantaneous Current (mA)
   1	0.0000e+00	0.0802	-2.852612	0.000051	0.511301	0.173234	0.404135
   2	1.0000e-04	0.6064	-2.448477	0.000051	0.511301	0.173234	0.404135
   3	2.0000e-04	1.4967	1.316170	0.000476	4.762931	1.613725	3.764647
   4	3.0000e-04	2.2170	4.228856	0.000369	3.685053	1.248530	2.912686
   5	4.0000e-04	3.1459	4.640273	0.000052	0.520514	0.176355	0.411417
   6	5.0000e-04	3.8309	7.028676	0.000302	3.021743	1.023794	2.388403
   7	6.0000e-04	4.5945	9.934080	0.000368	3.675840	1.245408	2.905404
   8	7.0000e-04	5.4367	11.477804	0.000195	1.953078	0.661721	1.543724
   9	8.0000e-04	6.2613	13.225416	0.000221	2.211032	0.749118	1.747612
  10	9.0000e-04	7.0634	15.664790	0.000309	3.086232	1.045644	2.439375
  11	1.0000e-03	7.8335	17.743720	0.000263	2.630207	0.891138	2.078930
  12	1.1000e-03	8.6484	19.564149	0.000230	2.303158	0.780331	1.820429
  13	1.2000e-03	9.4570	21.493803	0.000244	2.441348	0.827151	1.929655
  14	1.3000e-03	10.2527	23.871283	0.000301	3.007925	1.019112	2.377480
  15	1.4000e-03	11.0564	25.549719	0.000212	2.123512	0.719465	1.678435
  16	1.5000e-03	11.8441	27.566754	0.000255	2.551899	0.864607	2.017035
  17	1.6000e-03	12.6542	29.780396	0.000280	2.800640	0.948883	2.213641
  18	1.7000e-03	13.4820	32.001319	0.000281	2.809853	0.952004	2.220923
  19	1.8000e-03	14.2520	33.978304	0.000250	2.501230	0.847440	1.976986
  20	1.9000e-03	15.0573	35.358190	0.000175	1.745794	0.591491	1.379885
  21	2.0000e-03	15.8482	37.721106	0.000299	2.989499	1.012870	2.362917
  22	2.1000e-03	16.6696	39.574303	0.000234	2.344615	0.794377	1.853197
  23	2.2000e-03	17.4460	41.445704	0.000237	2.367647	0.802180	1.871401
  24	2.3000e-03	18.2610	43.186034	0.000220	2.201819	0.745997	1.740330
  25	2.4000e-03	19.0503	45.232196	0.000259	2.588750	0.877092	2.046162
  26	2.5000e-03	19.8476	47.227386	0.000252	2.524261	0.855243	1.995190
  27	2.6000e-03	19.6342	48.203135	-0.000123	-1.234493	-0.418257	0.975750
  28	2.7000e-03	18.4695	43.389922	0.000609	6.089550	2.063195	-4.813214
  29	2.8000e-03	17.7893	39.974797	0.000432	4.320725	1.463901	-3.415125
  30	2.9000e-03	16.8733	41.809789	-0.000232	-2.321583	-0.786574	1.834992
  31	3.0000e-03	16.2782	38.900744	0.000368	3.680447	1.246969	-2.909045
  32	3.1000e-03	15.4536	35.765966	0.000397	3.966038	1.343730	-3.134778
  33	3.2000e-03	14.5327	34.331468	0.000181	1.814889	0.614901	-1.434498
  34	3.3000e-03	13.8012	33.213724	0.000141	1.414139	0.479123	-1.117743
  35	3.4000e-03	12.9831	31.072900	0.000271	2.708514	0.917669	-2.140824
  36	3.5000e-03	12.2259	28.462405	0.000330	3.302729	1.118995	-2.610495
  37	3.6000e-03	11.3756	27.362866	0.000139	1.391108	0.471320	-1.099539
  38	3.7000e-03	10.6248	25.105534	0.000286	2.855916	0.967611	-2.257332
  39	3.8000e-03	9.8115	22.789949	0.000293	2.929617	0.992581	-2.315585
  40	3.9000e-03	8.9885	20.947675	0.000233	2.330796	0.789695	-1.842274
  41	4.0000e-03	8.2169	19.258317	0.000214	2.137331	0.724147	-1.689358
  42	4.1000e-03	7.4164	17.157542	0.000266	2.657844	0.900502	-2.100775
  43	4.2000e-03	6.5950	14.707245	0.000310	3.100051	1.050326	-2.450297
  44	4.3000e-03	5.8474	12.923224	0.000226	2.257095	0.764724	-1.784020
  45	4.4000e-03	5.0277	11.182894	0.000220	2.201819	0.745997	-1.740330
  46	4.5000e-03	4.2191	8.579681	0.000329	3.293516	1.115873	-2.603213
  47	4.6000e-03	3.4202	6.609977	0.000249	2.492017	0.844318	-1.969704
  48	4.7000e-03	2.5876	4.687604	0.000243	2.432135	0.824030	-1.922373
  49	4.8000e-03	1.7951	2.397505	0.000290	2.897373	0.981657	-2.290099
  50	4.9000e-03	1.0123	0.278526	0.000268	2.680876	0.908305	-2.118979
  51	5.0000e-03	0.1813	-1.807686	0.000264	2.639419	0.894259	-2.086211
  52	5.1000e-03	-0.5615	-3.853848	0.000259	2.588750	0.877092	-2.046162
  53	5.2000e-03	-1.3877	-5.619664	0.000223	2.234063	0.756921	-1.765816
  54	5.3000e-03	-2.2058	-7.971658	0.000298	2.975680	1.008188	-2.351994
  55	5.4000e-03	-2.9630	-10.006897	0.000257	2.574931	0.872410	-2.035239
  56	5.5000e-03	-3.8036	-11.903784	0.000240	2.399891	0.813105	-1.896887
  57	5.6000e-03	-4.5865	-13.913538	0.000254	2.542687	0.861486	-2.009753
  58	5.7000e-03	-5.3806	-15.970622	0.000260	2.602569	0.881774	-2.057085
  59	5.8000e-03	-6.1939	-17.940326	0.000249	2.492017	0.844318	-1.969704
  60	5.9000e-03	-7.0089	-19.950080	0.000254	2.542687	0.861486	-2.009753
  61	6.0000e-03	-7.7950	-21.745023	0.000227	2.270914	0.769406	-1.794943
  62	6.1000e-03	-8.5939	-23.507198	0.000223	2.229457	0.755361	-1.762175
  63	6.2000e-03	-9.4024	-25.476902	0.000249	2.492017	0.844318	-1.969704
  64	6.3000e-03	-10.2206	-27.625008	0.000272	2.717727	0.920791	-2.148106
  65	6.4000e-03	-11.0002	-29.190577	0.000198	1.980716	0.671085	-1.565569
  66	6.5000e-03	-11.7943	-31.051055	0.000235	2.353828	0.797498	-1.860478
  67	6.6000e-03	-12.6125	-32.944301	0.000240	2.395284	0.811544	-1.893246
  68	6.7000e-03	-13.4515	-34.502588	0.000197	1.971503	0.667963	-1.558287
  69	6.8000e-03	-14.2199	-36.199228	0.000215	2.146543	0.727269	-1.696640
  70	6.9000e-03	-15.0028	-37.684698	0.000188	1.879377	0.636750	-1.485470
  71	7.0000e-03	-15.7921	-39.683528	0.000253	2.528868	0.856804	-1.998831
  72	7.1000e-03	-16.6166	-41.048850	0.000173	1.727369	0.585248	-1.365322
  73	7.2000e-03	-17.3995	-42.698159	0.000209	2.086661	0.706980	-1.649309
  74	7.3000e-03	-18.2032	-44.063480	0.000173	1.727369	0.585248	-1.365322
  75	7.4000e-03	-19.0086	-46.000417	0.000245	2.450560	0.830272	-1.936936
  76	7.5000e-03	-19.7978	-47.802641	0.000228	2.280127	0.772528	-1.802225
  77	7.6000e-03	-19.5027	-48.203135	-0.000051	-0.506695	-0.171673	-0.400494
  78	7.7000e-03	-18.4246	-43.502788	0.000595	5.946754	2.014815	4.700347
  79	7.8000e-03	-17.6819	-42.334073	0.000148	1.478628	0.500973	1.168715
  80	7.9000e-03	-16.8108	-42.800103	-0.000059	-0.589608	-0.199765	-0.466030
  81	8.0000e-03	-16.2396	-39.814599	0.000378	3.777179	1.279743	2.985503
  82	8.1000e-03	-15.2659	-38.190777	0.000205	2.054417	0.696055	1.623823
  83	8.2000e-03	-14.4975	-36.996575	0.000151	1.510872	0.511897	1.194201
  84	8.3000e-03	-13.7515	-35.551155	0.000183	1.828708	0.619583	1.445421
  85	8.4000e-03	-12.9012	-33.439458	0.000267	2.671663	0.905184	2.111697
  86	8.5000e-03	-12.1569	-31.841121	0.000202	2.022173	0.685131	1.598337
  87	8.6000e-03	-11.3291	-30.472158	0.000173	1.731975	0.586809	1.368962
  88	8.7000e-03	-10.5494	-28.287644	0.000276	2.763790	0.936397	2.184515
  89	8.8000e-03	-9.7265	-26.631054	0.000210	2.095874	0.710101	1.656590
  90	8.9000e-03	-8.9356	-24.952618	0.000212	2.123512	0.719465	1.678435
  91	9.0000e-03	-8.1351	-23.270542	0.000213	2.128118	0.721026	1.682076
  92	9.1000e-03	-7.3362	-21.093309	0.000275	2.754577	0.933276	2.177233
  93	9.2000e-03	-6.5052	-19.174577	0.000243	2.427529	0.822469	1.918732
  94	9.3000e-03	-5.7720	-17.485219	0.000214	2.137331	0.724147	1.689358
  95	9.4000e-03	-4.9426	-15.835911	0.000209	2.086661	0.706980	1.649309
  96	9.5000e-03	-4.1341	-13.564015	0.000287	2.874341	0.973853	2.271895
  97	9.6000e-03	-3.3192	-11.663488	0.000240	2.404497	0.814666	1.900528
  98	9.7000e-03	-2.5443	-9.620966	0.000258	2.584143	0.875531	2.042521
  99	9.8000e-03	-1.7486	-7.603931	0.000255	2.551899	0.864607	2.017035
 100	9.9000e-03	-0.9449	-5.361163	0.000284	2.837491	0.961368	2.242768
 101	1.0000e-02	-0.1700	-3.537093	0.000284	2.837491	0.961368	1.824070

PMax (uC/cm2):	4.99e+01
Pr (uC/cm2):	3.49e-01
-Pr (uC/cm2):	-8.81e-01
PLoss (uC/cm2):	-6.84e-01
-Vc:	-1.27e-01
C (Max-Eff) (nF):	2.51e-01
K (Eff):	8.52e+02
Vert. (+/-Pr) Shift (uC/cm2):	-2.66e-01
Offset (uC/cm2):	2.66e+00

A (Loop Area - uC/cm2·Volts):	3.26e+00



Hysteresis Version: 5.48.1 - Radiant Technologies, Inc., 1999 - 9/12/24

