»»»»»»»»»»»»»»»»»»»»»»»»»»»»»»»»»»»» Hysteresis ««««««««««««««««««««««««««««««««««««
»»»  Executed Version:	5.48.1
»»»  Vision Version:	5.48.4 (R)
»»»  Vision Compiled:	9/18/24
»»»  Driver Version:	5.47.0
»»»  Windows Version:	Windows 8 or 8.1
»»»  Processor Information:	x86 (AMD or Intel) - 32 Processors
»»»  Tester Name:	PMF21124-494 (100V)
»»»  Tester S/N:	PMF21124-494
»»»  Internal Amp Type:	100V RevK 270k
»»»  Internal Amp S/N:	iAB2-596/K     
»»»  Execution Count:	1
»»»»»»»»»»»»»»»»»»»»»»»»»»»»»»»»»»»»»»»»»»««««««««««««««««««««««««««««««««««««««««««

Stored:	6/17/2025 - 12:6:28
Configured:	06/17/25 10:39:14 AM
Executed:	06/17/25 12:05:54 PM

»»»»»»»»»»»»»»»»»»»»»»»»»»»»»»»»»»» Sample Info ««««««««««««««««««««««««««««««««««««
Sample Name:	
Lot Name:	
Wafer Name:	
Die Row/Column:	0/0
Capacitor Number:	0
Sample Area (cm2):	1.00e-04
Sample Thickness (microns):	3.00e-01

Amplifier:	Internal

»»»»»»»»»»»»»»»»»»»»»»»»»»»»»»»»»»» Tester Info «««««««««««««««««««««««««««««««««««
Tester Name:	PMF21124-494 (100V)
Tester Serial Number:	PMF21124-494
Return Signal Amp. Level:	1.79 [Index: 2]

»»»»»»»»»»»»»»»»»»»»»»»»»»»»»»»» Hysteresis Info ««««««««««««««««««««««««««««««««««
Task Name:	Hyst-180
Volts:	20.00
Field:	666.67 (kV/cm)
DCBias:	0.00
DCField:	0.00 (kV/cm)
Hysteresis Period (ms):	1.00e+00
Preset:	Enabled
Preset Delay (ms):	1.00e+03
Profile:	Standard Bipolar

»»»»»»»»»»»»»»»»»»»»»»»»»»»»»»»»»»»»»» Data «««««««««««««««««««««««««««««««««««««««
Points:	2001

Valid Data

Point	Time (ms)	Drive Voltage	Measured Polarization (uC/cm2)	Capacitance (uF)	Normalized Capacitance (uF/cm2)	Dielectric Constant	Instantaneous Current (mA)
   1	0.0000e+00	0.0337	-2.233701	0.000358	3.579505	1.212769	0.028993
   2	5.0000e-04	0.0417	-2.088736	0.000358	3.579505	1.212769	0.028993
   3	1.0000e-03	0.1299	-2.134492	-0.000113	-1.129814	-0.382791	-0.009151
   4	1.5000e-03	0.1524	-1.977125	0.000389	3.885716	1.316516	0.031473
   5	2.0000e-03	0.2134	-1.907850	0.000171	1.710560	0.579553	0.013855
   6	2.5000e-03	0.2406	-1.843706	0.000158	1.583852	0.536623	0.012829
   7	3.0000e-03	0.2727	-1.691044	0.000377	3.769567	1.277164	0.030532
   8	3.5000e-03	0.3225	-1.572592	0.000292	2.924846	0.990965	0.023690
   9	4.0000e-03	0.3593	-1.485356	0.000215	2.154038	0.729808	0.017447
  10	4.5000e-03	0.3898	-1.439173	0.000114	1.140373	0.386369	0.009237
  11	5.0000e-03	0.4572	-1.333549	0.000261	2.608076	0.883640	0.021125
  12	5.5000e-03	0.4957	-1.213387	0.000297	2.967082	1.005275	0.024033
  13	6.0000e-03	0.5294	-1.141118	0.000178	1.784473	0.604596	0.014454
  14	6.5000e-03	0.5551	-0.979048	0.000400	4.001865	1.355869	0.032414
  15	7.0000e-03	0.6032	-0.894378	0.000209	2.090684	0.708343	0.016934
  16	7.5000e-03	0.6465	-0.799445	0.000234	2.344100	0.794203	0.018987
  17	8.0000e-03	0.6690	-0.696815	0.000253	2.534163	0.858598	0.020526
  18	8.5000e-03	0.7187	-0.553133	0.000355	3.547828	1.202037	0.028736
  19	9.0000e-03	0.7764	-0.538166	0.000037	0.369565	0.125212	0.002993
  20	9.5000e-03	0.8069	-0.382938	0.000383	3.832921	1.298629	0.031046
  21	1.0000e-02	0.8502	-0.290144	0.000229	2.291305	0.776315	0.018559
  22	1.0500e-02	0.8903	-0.218730	0.000176	1.763355	0.597441	0.014283
  23	1.1000e-02	0.9176	-0.075476	0.000354	3.537269	1.198459	0.028651
  24	1.1500e-02	0.9561	0.040411	0.000286	2.861492	0.969500	0.023177
  25	1.2000e-02	1.0059	0.109686	0.000171	1.710560	0.579553	0.013855
  26	1.2500e-02	1.0379	0.232414	0.000303	3.030436	1.026740	0.024546
  27	1.3000e-02	1.0813	0.312808	0.000199	1.985094	0.672568	0.016079
  28	1.3500e-02	1.1310	0.438530	0.000310	3.104349	1.051782	0.025144
  29	1.4000e-02	1.1647	0.516785	0.000193	1.932299	0.654681	0.015651
  30	1.4500e-02	1.1968	0.665599	0.000367	3.674536	1.244966	0.029763
  31	1.5000e-02	1.2673	0.733164	0.000167	1.668324	0.565243	0.013513
  32	1.5500e-02	1.2818	0.815268	0.000203	2.027330	0.686878	0.016421
  33	1.6000e-02	1.3492	0.913194	0.000242	2.418014	0.819245	0.019585
  34	1.6500e-02	1.3508	1.040626	0.000315	3.146585	1.066092	0.025486
  35	1.7000e-02	1.4021	1.117171	0.000189	1.890063	0.640371	0.015309
  36	1.7500e-02	1.4278	1.249307	0.000326	3.262734	1.105444	0.026427
  37	1.8000e-02	1.4919	1.401969	0.000377	3.769567	1.277164	0.030532
  38	1.8500e-02	1.5192	1.440883	0.000096	0.960870	0.325552	0.007783
  39	1.9000e-02	1.5513	1.543513	0.000253	2.534163	0.858598	0.020526
  40	1.9500e-02	1.6171	1.657262	0.000281	2.808697	0.951612	0.022750
  41	2.0000e-02	1.6315	1.766306	0.000269	2.692548	0.912260	0.021809
  42	2.0500e-02	1.6748	1.856963	0.000224	2.238510	0.758428	0.018131
  43	2.1000e-02	1.7101	1.996369	0.000344	3.442238	1.166262	0.027881
  44	2.1500e-02	1.7775	2.046401	0.000124	1.235404	0.418566	0.010006
  45	2.2000e-02	1.8064	2.159294	0.000279	2.787579	0.944457	0.022579
  46	2.2500e-02	1.8320	2.289720	0.000322	3.220498	1.091134	0.026085
  47	2.3000e-02	1.8818	2.379948	0.000223	2.227951	0.754850	0.018046
  48	2.3500e-02	1.9122	2.471888	0.000227	2.270187	0.769160	0.018388
  49	2.4000e-02	1.9700	2.610866	0.000343	3.431679	1.162684	0.027796
  50	2.4500e-02	2.0133	2.615142	0.000011	0.105590	0.035775	0.000855
  51	2.5000e-02	2.0422	2.771226	0.000385	3.854039	1.305784	0.031217
  52	2.5500e-02	2.0983	2.902079	0.000323	3.231057	1.094712	0.026171
  53	2.6000e-02	2.1481	2.970499	0.000169	1.689442	0.572398	0.013684
  54	2.6500e-02	2.1609	3.097504	0.000314	3.136026	1.062514	0.025401
  55	2.7000e-02	2.2058	3.199278	0.000251	2.513045	0.851443	0.020355
  56	2.7500e-02	2.2556	3.319014	0.000296	2.956523	1.001697	0.023947
  57	2.8000e-02	2.2828	3.371184	0.000129	1.288199	0.436454	0.010434
  58	2.8500e-02	2.3213	3.538813	0.000414	4.139132	1.402376	0.033526
  59	2.9000e-02	2.3486	3.675225	0.000337	3.368324	1.141219	0.027282
  60	2.9500e-02	2.4096	3.723547	0.000119	1.193168	0.404256	0.009664
  61	3.0000e-02	2.4384	3.795388	0.000177	1.773914	0.601018	0.014368
  62	3.0500e-02	2.4834	3.944629	0.000369	3.685095	1.248544	0.029848
  63	3.1000e-02	2.5283	4.016470	0.000177	1.773914	0.601018	0.014368
  64	3.1500e-02	2.5507	4.174264	0.000390	3.896275	1.320094	0.031559
  65	3.2000e-02	2.6021	4.224296	0.000124	1.235404	0.418566	0.010006
  66	3.2500e-02	2.6358	4.341466	0.000289	2.893169	0.980232	0.023434
  67	3.3000e-02	2.6903	4.423142	0.000202	2.016771	0.683301	0.016335
  68	3.3500e-02	2.7224	4.571528	0.000366	3.663977	1.241389	0.029677
  69	3.4000e-02	2.7593	4.683138	0.000276	2.755902	0.933725	0.022322
  70	3.4500e-02	2.8090	4.793893	0.000273	2.734784	0.926570	0.022151
  71	3.5000e-02	2.8395	4.851195	0.000141	1.414907	0.479384	0.011460
  72	3.5500e-02	2.8812	4.964943	0.000281	2.808697	0.951612	0.022750
  73	3.6000e-02	2.9213	5.108198	0.000354	3.537269	1.198459	0.028651
  74	3.6500e-02	2.9823	5.157802	0.000122	1.224845	0.414989	0.009921
  75	3.7000e-02	3.0272	5.267702	0.000271	2.713666	0.919415	0.021980
  76	3.7500e-02	3.0384	5.370760	0.000254	2.544722	0.862175	0.020612
  77	3.8000e-02	3.0930	5.445166	0.000184	1.837268	0.622483	0.014881
  78	3.8500e-02	3.1234	5.643157	0.000489	4.888822	1.656378	0.039598
  79	3.9000e-02	3.1571	5.671380	0.000070	0.696895	0.236114	0.005645
  80	3.9500e-02	3.2069	5.835161	0.000404	4.044101	1.370179	0.032756
  81	4.0000e-02	3.2486	5.882627	0.000117	1.172050	0.397101	0.009493
  82	4.0500e-02	3.2807	5.972001	0.000221	2.206833	0.747695	0.017875
  83	4.1000e-02	3.3368	6.108841	0.000338	3.378884	1.144797	0.027368
  84	4.1500e-02	3.3721	6.202063	0.000230	2.301864	0.779893	0.018644
  85	4.2000e-02	3.4010	6.328213	0.000311	3.114908	1.055359	0.025230
  86	4.2500e-02	3.4459	6.415021	0.000214	2.143479	0.726230	0.017362
  87	4.3000e-02	3.5036	6.515512	0.000248	2.481368	0.840710	0.020098
  88	4.3500e-02	3.4988	6.632682	-0.000289	-2.893169	-0.980232	0.023434
  89	4.4000e-02	3.5470	6.754127	0.000300	2.998759	1.016007	0.024289
  90	4.4500e-02	3.6047	6.831955	0.000192	1.921740	0.651103	0.015566
  91	4.5000e-02	3.6384	6.939717	0.000266	2.660871	0.901527	0.021552
  92	4.5500e-02	3.6833	7.017545	0.000192	1.921740	0.651103	0.015566
  93	4.6000e-02	3.7154	7.155240	0.000340	3.400002	1.151952	0.027539
  94	4.6500e-02	3.7555	7.244186	0.000220	2.196274	0.744118	0.017789
  95	4.7000e-02	3.8101	7.331422	0.000215	2.154038	0.729808	0.017447
  96	4.7500e-02	3.8550	7.469972	0.000342	3.421120	1.159107	0.027710
  97	4.8000e-02	3.9015	7.567898	0.000242	2.418014	0.819245	0.019585
  98	4.8500e-02	3.9095	7.673094	0.000260	2.597517	0.880062	0.021039
  99	4.9000e-02	3.9641	7.794967	0.000301	3.009318	1.019585	0.024375
 100	4.9500e-02	4.0154	7.878354	0.000206	2.059007	0.697611	0.016677
 101	5.0000e-02	4.0523	7.974142	0.000237	2.365218	0.801358	0.019158
 102	5.0500e-02	4.0924	8.096016	0.000301	3.009318	1.019585	0.024375
 103	5.1000e-02	4.1341	8.224303	0.000317	3.167703	1.073247	0.025658
 104	5.1500e-02	4.1469	8.314960	0.000224	2.238510	0.758428	0.018131
 105	5.2000e-02	4.2143	8.428708	0.000281	2.808697	0.951612	0.022750
 106	5.2500e-02	4.2576	8.532193	0.000256	2.555281	0.865753	0.020697
 107	5.3000e-02	4.2801	8.618574	0.000213	2.132920	0.722653	0.017276
 108	5.3500e-02	4.3122	8.714362	0.000237	2.365218	0.801358	0.019158
 109	5.4000e-02	4.3651	8.847781	0.000329	3.294411	1.116177	0.026684
 110	5.4500e-02	4.4132	8.872155	0.000060	0.601864	0.203917	0.004875
 111	5.5000e-02	4.4405	9.041067	0.000417	4.170809	1.413108	0.033782
 112	5.5500e-02	4.4614	9.177480	0.000337	3.368324	1.141219	0.027282
 113	5.6000e-02	4.5304	9.199716	0.000055	0.549069	0.186029	0.004447
 114	5.6500e-02	4.5993	9.313892	0.000282	2.819256	0.955190	0.022835
 115	5.7000e-02	4.6041	9.432344	0.000292	2.924846	0.990965	0.023690
 116	5.7500e-02	4.6491	9.551224	0.000294	2.935405	0.994542	0.023776
 117	5.8000e-02	4.6731	9.645730	0.000233	2.333541	0.790625	0.018901
 118	5.8500e-02	4.7453	9.736814	0.000225	2.249069	0.762005	0.018217
 119	5.9000e-02	4.7421	9.896746	-0.000395	-3.949070	-1.337981	0.031986
 120	5.9500e-02	4.8207	9.963883	0.000166	1.657765	0.561666	0.013427
 121	6.0000e-02	4.8384	10.043849	0.000197	1.974535	0.668991	0.015993
 122	6.0500e-02	4.8688	10.172991	0.000319	3.188821	1.080402	0.025829
 123	6.1000e-02	4.9314	10.266214	0.000230	2.301864	0.779893	0.018644
 124	6.1500e-02	4.9651	10.406047	0.000345	3.452797	1.169839	0.027967
 125	6.2000e-02	5.0004	10.483875	0.000192	1.921740	0.651103	0.015566
 126	6.2500e-02	5.0373	10.568117	0.000208	2.080125	0.704765	0.016848
 127	6.3000e-02	5.0646	10.732325	0.000405	4.054660	1.373756	0.032842
 128	6.3500e-02	5.1464	10.771667	0.000097	0.971429	0.329129	0.007868
 129	6.4000e-02	5.1849	10.919198	0.000364	3.642859	1.234234	0.029506
 130	6.4500e-02	5.1945	11.025249	0.000262	2.618635	0.887217	0.021210
 131	6.5000e-02	5.2394	11.128734	0.000256	2.555281	0.865753	0.020697
 132	6.5500e-02	5.3068	11.194161	0.000162	1.615529	0.547356	0.013085
 133	6.6000e-02	5.3116	11.356231	0.000400	4.001865	1.355869	0.032414
 134	6.6500e-02	5.3758	11.409256	0.000131	1.309317	0.443609	0.010605
 135	6.7000e-02	5.4031	11.491788	0.000204	2.037889	0.690456	0.016506
 136	6.7500e-02	5.4544	11.632477	0.000347	3.473915	1.176994	0.028138
 137	6.8000e-02	5.4913	11.670108	0.000093	0.929193	0.314819	0.007526
 138	6.8500e-02	5.5202	11.834743	0.000407	4.065219	1.377334	0.032927
 139	6.9000e-02	5.5506	11.948919	0.000282	2.819256	0.955190	0.022835
 140	6.9500e-02	5.5891	12.083621	0.000333	3.326088	1.126909	0.026940
 141	7.0000e-02	5.6421	12.140495	0.000140	1.404348	0.475806	0.011375
 142	7.0500e-02	5.6822	12.231580	0.000225	2.249069	0.762005	0.018217
 143	7.1000e-02	5.7319	12.374834	0.000354	3.537269	1.198459	0.028651
 144	7.1500e-02	5.7640	12.462497	0.000216	2.164597	0.733385	0.017533
 145	7.2000e-02	5.8089	12.582232	0.000296	2.956523	1.001697	0.023947
 146	7.2500e-02	5.8490	12.689566	0.000265	2.650312	0.897950	0.021467
 147	7.3000e-02	5.8811	12.786210	0.000239	2.386336	0.808513	0.019329
 148	7.3500e-02	5.9260	12.897820	0.000276	2.755902	0.933725	0.022322
 149	7.4000e-02	5.9726	13.002160	0.000258	2.576399	0.872908	0.020868
 150	7.4500e-02	6.0175	13.066304	0.000158	1.583852	0.536623	0.012829
 151	7.5000e-02	6.0415	13.197585	0.000324	3.241616	1.098289	0.026256
 152	7.5500e-02	6.0784	13.334425	0.000338	3.378884	1.144797	0.027368
 153	7.6000e-02	6.1426	13.362648	0.000070	0.696895	0.236114	0.005645
 154	7.6500e-02	6.1410	13.527712	-0.000408	-4.075778	-1.380911	0.033013
 155	7.7000e-02	6.2068	13.613664	0.000212	2.122361	0.719075	0.017191
 156	7.7500e-02	6.2340	13.672249	0.000145	1.446585	0.490116	0.011717
 157	7.8000e-02	6.2806	13.806951	0.000333	3.326088	1.126909	0.026940
 158	7.8500e-02	6.3159	13.943364	0.000337	3.368324	1.141219	0.027282
 159	7.9000e-02	6.3383	14.065237	0.000301	3.009318	1.019585	0.024375
 160	7.9500e-02	6.4169	14.135367	0.000173	1.731678	0.586708	0.014026
 161	8.0000e-02	6.4426	14.222175	0.000214	2.143479	0.726230	0.017362
 162	8.0500e-02	6.5132	14.287174	0.000160	1.604970	0.543778	0.013000
 163	8.1000e-02	6.4939	14.515526	-0.000564	-5.638512	-1.910380	0.045670
 164	8.1500e-02	6.5613	14.512105	-0.000008	-0.084472	-0.028620	-0.000684
 165	8.2000e-02	6.5998	14.675030	0.000402	4.022983	1.363024	0.032585
 166	8.2500e-02	6.6383	14.728911	0.000133	1.330435	0.450764	0.010776
 167	8.3000e-02	6.6880	14.853778	0.000308	3.083231	1.044627	0.024973
 168	8.3500e-02	6.7057	14.985914	0.000326	3.262734	1.105444	0.026427
 169	8.4000e-02	6.7650	15.059038	0.000181	1.805591	0.611751	0.014625
 170	8.4500e-02	6.7987	15.104366	0.000112	1.119255	0.379214	0.009066
 171	8.5000e-02	6.8517	15.248476	0.000356	3.558387	1.205614	0.028822
 172	8.5500e-02	6.9094	15.281403	0.000081	0.813044	0.275467	0.006585
 173	8.6000e-02	6.8998	15.478966	-0.000488	-4.878263	-1.652800	0.039513
 174	8.6500e-02	6.9672	15.615378	0.000337	3.368324	1.141219	0.027282
 175	8.7000e-02	6.9704	15.715015	0.000246	2.460250	0.833555	0.019927
 176	8.7500e-02	7.0522	15.777021	0.000153	1.531057	0.518736	0.012401
 177	8.8000e-02	7.0666	15.862973	0.000212	2.122361	0.719075	0.017191
 178	8.8500e-02	7.1196	15.980570	0.000290	2.903728	0.983810	0.023519
 179	8.9000e-02	7.1725	16.036589	0.000138	1.383230	0.468651	0.011204
 180	8.9500e-02	7.1950	16.180699	0.000356	3.558387	1.205614	0.028822
 181	9.0000e-02	7.2271	16.288033	0.000265	2.650312	0.897950	0.021467
 182	9.0500e-02	7.2880	16.396222	0.000267	2.671430	0.905105	0.021638
 183	9.1000e-02	7.3025	16.508688	0.000278	2.777020	0.940880	0.022493
 184	9.1500e-02	7.3650	16.586943	0.000193	1.932299	0.654681	0.015651
 185	9.2000e-02	7.4116	16.725921	0.000343	3.431679	1.162684	0.027796
 186	9.2500e-02	7.4517	16.758848	0.000081	0.813044	0.275467	0.006585
 187	9.3000e-02	7.4934	16.909800	0.000373	3.727331	1.262854	0.030190
 188	9.3500e-02	7.5094	17.029535	0.000296	2.956523	1.001697	0.023947
 189	9.4000e-02	7.5688	17.131738	0.000252	2.523604	0.855020	0.020440
 190	9.4500e-02	7.5768	17.225388	0.000231	2.312423	0.783470	0.018730
 191	9.5000e-02	7.6394	17.303215	0.000192	1.921740	0.651103	0.015566
 192	9.5500e-02	7.6811	17.386175	0.000205	2.048448	0.694033	0.016592
 193	9.6000e-02	7.7244	17.518738	0.000327	3.273293	1.109022	0.026513
 194	9.6500e-02	7.7661	17.619658	0.000249	2.491927	0.844288	0.020184
 195	9.7000e-02	7.7805	17.711597	0.000227	2.270187	0.769160	0.018388
 196	9.7500e-02	7.8479	17.865115	0.000379	3.790685	1.284319	0.030703
 197	9.8000e-02	7.8960	17.927976	0.000155	1.552175	0.525891	0.012572
 198	9.8500e-02	7.9217	18.062250	0.000332	3.315529	1.123332	0.026855
 199	9.9000e-02	7.9698	18.125539	0.000156	1.562734	0.529468	0.012658
 200	9.9500e-02	8.0035	18.262806	0.000339	3.389443	1.148374	0.027454
 201	1.0000e-01	8.0500	18.320108	0.000141	1.414907	0.479384	0.011460
 202	1.0050e-01	8.0821	18.464218	0.000356	3.558387	1.205614	0.028822
 203	1.0100e-01	8.1254	18.539908	0.000187	1.868945	0.633216	0.015138
 204	1.0150e-01	8.1286	18.663491	0.000305	3.051554	1.033895	0.024717
 205	1.0200e-01	8.2185	18.758852	0.000235	2.354659	0.797780	0.019072
 206	1.0250e-01	8.2425	18.840528	0.000202	2.016771	0.683301	0.016335
 207	1.0300e-01	8.3003	18.939737	0.000245	2.449691	0.829978	0.019842
 208	1.0350e-01	8.2971	19.103090	-0.000403	-4.033542	-1.366601	0.032671
 209	1.0400e-01	8.3741	19.140721	0.000093	0.929193	0.314819	0.007526
 210	1.0450e-01	8.3917	19.286541	0.000360	3.600623	1.219924	0.029164
 211	1.0500e-01	8.4511	19.383612	0.000240	2.396895	0.812090	0.019414
 212	1.0550e-01	8.4687	19.464433	0.000200	1.995653	0.676146	0.016164
 213	1.0600e-01	8.5345	19.529005	0.000159	1.594411	0.540201	0.012914
 214	1.0650e-01	8.5474	19.673970	0.000358	3.579505	1.212769	0.028993
 215	1.0700e-01	8.6115	19.833474	0.000394	3.938511	1.334404	0.031901
 216	1.0750e-01	8.6244	19.900184	0.000165	1.647206	0.558088	0.013342
 217	1.0800e-01	8.6773	19.966466	0.000164	1.636647	0.554511	0.013256
 218	1.0850e-01	8.7270	20.102023	0.000335	3.347206	1.134064	0.027111
 219	1.0900e-01	8.7447	20.199094	0.000240	2.396895	0.812090	0.019414
 220	1.0950e-01	8.7992	20.314980	0.000286	2.861492	0.969500	0.023177
 221	1.1000e-01	8.8281	20.342776	0.000069	0.686336	0.232537	0.005559
 222	1.1050e-01	8.8682	20.527937	0.000457	4.572052	1.549053	0.037032
 223	1.1100e-01	8.9260	20.579680	0.000128	1.277640	0.432876	0.010349
 224	1.1150e-01	8.9741	20.687442	0.000266	2.660871	0.901527	0.021552
 225	1.1200e-01	9.0158	20.820433	0.000328	3.283852	1.112599	0.026598
 226	1.1250e-01	9.0559	20.890991	0.000174	1.742237	0.590286	0.014112
 227	1.1300e-01	9.0784	21.028687	0.000340	3.400002	1.151952	0.027539
 228	1.1350e-01	9.1505	21.077008	0.000119	1.193168	0.404256	0.009664
 229	1.1400e-01	9.1762	21.218980	0.000351	3.505592	1.187727	0.028394
 230	1.1450e-01	9.2035	21.343847	0.000308	3.083231	1.044627	0.024973
 231	1.1500e-01	9.2404	21.426806	0.000205	2.048448	0.694033	0.016592
 232	1.1550e-01	9.2933	21.505061	0.000193	1.932299	0.654681	0.015651
 233	1.1600e-01	9.3094	21.621803	0.000288	2.882610	0.976655	0.023348
 234	1.1650e-01	9.3447	21.717163	0.000235	2.354659	0.797780	0.019072
 235	1.1700e-01	9.3992	21.837326	0.000297	2.967082	1.005275	0.024033
 236	1.1750e-01	9.4457	21.938673	0.000250	2.502486	0.847865	0.020269
 237	1.1800e-01	9.4858	22.013508	0.000185	1.847827	0.626061	0.014967
 238	1.1850e-01	9.5147	22.137519	0.000306	3.062113	1.037472	0.024802
 239	1.1900e-01	9.5307	22.274359	0.000338	3.378884	1.144797	0.027368
 240	1.1950e-01	9.6045	22.323536	0.000121	1.214286	0.411411	0.009835
 241	1.2000e-01	9.6495	22.415048	0.000226	2.259628	0.765583	0.018302
 242	1.2050e-01	9.7024	22.533500	0.000292	2.924846	0.990965	0.023690
 243	1.2100e-01	9.7329	22.627578	0.000232	2.322982	0.787048	0.018816
 244	1.2150e-01	9.7585	22.762707	0.000334	3.336647	1.130487	0.027026
 245	1.2200e-01	9.7938	22.833693	0.000175	1.752796	0.593863	0.014197
 246	1.2250e-01	9.8388	22.933330	0.000246	2.460250	0.833555	0.019927
 247	1.2300e-01	9.8724	23.096683	0.000403	4.033542	1.366601	0.032671
 248	1.2350e-01	9.9110	23.150136	0.000132	1.319876	0.447186	0.010691
 249	1.2400e-01	9.9799	23.238226	0.000218	2.175156	0.736963	0.017618
 250	1.2450e-01	10.0329	23.337863	0.000246	2.460250	0.833555	0.019927
 251	1.2500e-01	10.0650	23.451184	0.000280	2.798138	0.948035	0.022664
 252	1.2550e-01	10.0698	23.531150	0.000197	1.974535	0.668991	0.015993
 253	1.2600e-01	10.1227	23.652168	0.000299	2.988200	1.012430	0.024204
 254	1.2650e-01	10.1724	23.769765	0.000290	2.903728	0.983810	0.023519
 255	1.2700e-01	10.1885	23.850158	0.000199	1.985094	0.672568	0.016079
 256	1.2750e-01	10.2446	23.981439	0.000324	3.241616	1.098289	0.026256
 257	1.2800e-01	10.2960	24.052425	0.000175	1.752796	0.593863	0.014197
 258	1.2850e-01	10.2976	24.191403	0.000343	3.431679	1.162684	0.027796
 259	1.2900e-01	10.3810	24.212357	0.000052	0.517392	0.175297	0.004191
 260	1.2950e-01	10.4163	24.309855	0.000241	2.407454	0.815668	0.019500
 261	1.3000e-01	10.4339	24.452255	0.000352	3.516151	1.191304	0.028480
 262	1.3050e-01	10.4772	24.539063	0.000214	2.143479	0.726230	0.017362
 263	1.3100e-01	10.5157	24.671626	0.000327	3.273293	1.109022	0.026513
 264	1.3150e-01	10.5847	24.746888	0.000186	1.858386	0.629638	0.015052
 265	1.3200e-01	10.5831	24.878597	-0.000325	-3.252175	-1.101867	0.026342
 266	1.3250e-01	10.6489	24.980372	0.000251	2.513045	0.851443	0.020355
 267	1.3300e-01	10.6746	25.059483	0.000195	1.953417	0.661836	0.015822
 268	1.3350e-01	10.7291	25.196323	0.000338	3.378884	1.144797	0.027368
 269	1.3400e-01	10.7628	25.296815	0.000248	2.481368	0.840710	0.020098
 270	1.3450e-01	10.8077	25.307078	0.000025	0.253416	0.085860	0.002053
 271	1.3500e-01	10.8366	25.472141	0.000408	4.075778	1.380911	0.033013
 272	1.3550e-01	10.8783	25.572633	0.000248	2.481368	0.840710	0.020098
 273	1.3600e-01	10.9120	25.692796	0.000297	2.967082	1.005275	0.024033
 274	1.3650e-01	10.9585	25.738979	0.000114	1.140373	0.386369	0.009237
 275	1.3700e-01	10.9986	25.813386	0.000184	1.837268	0.622483	0.014881
 276	1.3750e-01	11.0564	25.917726	0.000258	2.576399	0.872908	0.020868
 277	1.3800e-01	11.0772	26.087066	0.000418	4.181368	1.416686	0.033868
 278	1.3850e-01	11.1238	26.147789	0.000150	1.499380	0.508004	0.012145
 279	1.3900e-01	11.1719	26.277787	0.000321	3.209939	1.087557	0.026000
 280	1.3950e-01	11.2120	26.284201	0.000016	0.158385	0.053662	0.001283
 281	1.4000e-01	11.2152	26.466797	0.000451	4.508698	1.527588	0.036519
 282	1.4050e-01	11.2794	26.529231	0.000154	1.541616	0.522314	0.012487
 283	1.4100e-01	11.3243	26.690018	0.000397	3.970188	1.345136	0.032157
 284	1.4150e-01	11.3596	26.759721	0.000172	1.721119	0.583131	0.013941
 285	1.4200e-01	11.3772	26.872186	0.000278	2.777020	0.940880	0.022493
 286	1.4250e-01	11.4446	26.935475	0.000156	1.562734	0.529468	0.012658
 287	1.4300e-01	11.4895	27.027842	0.000228	2.280746	0.772738	0.018473
 288	1.4350e-01	11.5152	27.177083	0.000369	3.685095	1.248544	0.029848
 289	1.4400e-01	11.5585	27.248924	0.000177	1.773914	0.601018	0.014368
 290	1.4450e-01	11.6018	27.363100	0.000282	2.819256	0.955190	0.022835
 291	1.4500e-01	11.6564	27.393461	0.000075	0.749690	0.254002	0.006072
 292	1.4550e-01	11.6740	27.576913	0.000453	4.529816	1.534743	0.036690
 293	1.4600e-01	11.7205	27.673983	0.000240	2.396895	0.812090	0.019414
 294	1.4650e-01	11.7414	27.808258	0.000332	3.315529	1.123332	0.026855
 295	1.4700e-01	11.8168	27.857435	0.000121	1.214286	0.411411	0.009835
 296	1.4750e-01	11.8312	27.947664	0.000223	2.227951	0.754850	0.018046
 297	1.4800e-01	11.8874	28.059701	0.000277	2.766461	0.937302	0.022408
 298	1.4850e-01	11.9355	28.126411	0.000165	1.647206	0.558088	0.013342
 299	1.4900e-01	11.9708	28.256837	0.000322	3.220498	1.091134	0.026085
 300	1.4950e-01	11.9981	28.329105	0.000178	1.784473	0.604596	0.014454
 301	1.5000e-01	12.0446	28.437295	0.000267	2.671430	0.905105	0.021638
 302	1.5050e-01	12.0735	28.537359	0.000247	2.470809	0.837133	0.020013
 303	1.5100e-01	12.1023	28.690449	0.000378	3.780126	1.280741	0.030618
 304	1.5150e-01	12.1713	28.763573	0.000181	1.805591	0.611751	0.014625
 305	1.5200e-01	12.2018	28.839262	0.000187	1.868945	0.633216	0.015138
 306	1.5250e-01	12.2467	28.958997	0.000296	2.956523	1.001697	0.023947
 307	1.5300e-01	12.2804	29.035115	0.000188	1.879504	0.636793	0.015223
 308	1.5350e-01	12.3414	29.153567	0.000292	2.924846	0.990965	0.023690
 309	1.5400e-01	12.3670	29.189915	0.000090	0.897516	0.304087	0.007270
 310	1.5450e-01	12.3927	29.347709	0.000390	3.896275	1.320094	0.031559
 311	1.5500e-01	12.4424	29.451622	0.000257	2.565840	0.869330	0.020783
 312	1.5550e-01	12.4793	29.565370	0.000281	2.808697	0.951612	0.022750
 313	1.5600e-01	12.5210	29.671849	0.000263	2.629194	0.890795	0.021296
 314	1.5650e-01	12.5627	29.666290	-0.000014	-0.137267	-0.046507	-0.001112
 315	1.5700e-01	12.5868	29.825366	0.000393	3.927952	1.330826	0.031815
 316	1.5750e-01	12.6462	29.938687	0.000280	2.798138	0.948035	0.022664
 317	1.5800e-01	12.6831	30.012666	0.000183	1.826709	0.618906	0.014796
 318	1.5850e-01	12.7328	30.121283	0.000268	2.681989	0.908682	0.021723
 319	1.5900e-01	12.7633	30.224768	0.000256	2.555281	0.865753	0.020697
 320	1.5950e-01	12.8066	30.319701	0.000234	2.344100	0.794203	0.018987
 321	1.6000e-01	12.8387	30.421476	0.000251	2.513045	0.851443	0.020355
 322	1.6050e-01	12.8820	30.496310	0.000185	1.847827	0.626061	0.014967
 323	1.6100e-01	12.9125	30.672064	0.000434	4.339754	1.470348	0.035151
 324	1.6150e-01	12.9205	30.773839	0.000251	2.513045	0.851443	0.020355
 325	1.6200e-01	13.0071	30.844397	0.000174	1.742237	0.590286	0.014112
 326	1.6250e-01	13.0424	30.896568	0.000129	1.288199	0.436454	0.010434
 327	1.6300e-01	13.0809	31.005612	0.000269	2.692548	0.912260	0.021809
 328	1.6350e-01	13.0905	31.132617	0.000314	3.136026	1.062514	0.025401
 329	1.6400e-01	13.1451	31.235247	0.000253	2.534163	0.858598	0.020526
 330	1.6450e-01	13.1852	31.319061	0.000207	2.069566	0.701188	0.016763
 331	1.6500e-01	13.2349	31.384488	0.000162	1.615529	0.547356	0.013085
 332	1.6550e-01	13.2686	31.500802	0.000287	2.872051	0.973077	0.023263
 333	1.6600e-01	13.3135	31.580768	0.000197	1.974535	0.668991	0.015993
 334	1.6650e-01	13.3649	31.706490	0.000310	3.104349	1.051782	0.025144
 335	1.6700e-01	13.4018	31.800567	0.000232	2.322982	0.787048	0.018816
 336	1.6750e-01	13.4226	31.845040	0.000110	1.098137	0.372059	0.008895
 337	1.6800e-01	13.4675	31.961354	0.000287	2.872051	0.973077	0.023263
 338	1.6850e-01	13.5125	32.102898	0.000350	3.495033	1.184149	0.028309
 339	1.6900e-01	13.5638	32.183720	0.000200	1.995653	0.676146	0.016164
 340	1.6950e-01	13.6344	32.280363	0.000239	2.386336	0.808513	0.019329
 341	1.7000e-01	13.6424	32.341086	0.000150	1.499380	0.508004	0.012145
 342	1.7050e-01	13.6777	32.477071	0.000336	3.357765	1.137642	0.027197
 343	1.7100e-01	13.7274	32.554898	0.000192	1.921740	0.651103	0.015566
 344	1.7150e-01	13.7595	32.633581	0.000194	1.942858	0.658258	0.015737
 345	1.7200e-01	13.7916	32.771704	0.000341	3.410561	1.155529	0.027625
 346	1.7250e-01	13.8333	32.887163	0.000285	2.850933	0.965922	0.023092
 347	1.7300e-01	13.9039	32.925649	0.000095	0.950311	0.321974	0.007697
 348	1.7350e-01	13.9296	33.028707	0.000254	2.544722	0.862175	0.020612
 349	1.7400e-01	13.9777	33.116370	0.000216	2.164597	0.733385	0.017533
 350	1.7450e-01	14.0098	33.216862	0.000248	2.481368	0.840710	0.020098
 351	1.7500e-01	14.0418	33.385347	0.000416	4.160250	1.409531	0.033697
 352	1.7550e-01	14.0739	33.408866	0.000058	0.580746	0.196762	0.004704
 353	1.7600e-01	14.1060	33.551265	0.000352	3.516151	1.191304	0.028480
 354	1.7650e-01	14.1365	33.628238	0.000190	1.900622	0.643948	0.015395
 355	1.7700e-01	14.1943	33.730440	0.000252	2.523604	0.855020	0.020440
 356	1.7750e-01	14.2440	33.863859	0.000329	3.294411	1.116177	0.026684
 357	1.7800e-01	14.2857	33.954943	0.000225	2.249069	0.762005	0.018217
 358	1.7850e-01	14.3178	34.021653	0.000165	1.647206	0.558088	0.013342
 359	1.7900e-01	14.3611	34.101191	0.000196	1.963976	0.665413	0.015908
 360	1.7950e-01	14.4044	34.219644	0.000292	2.924846	0.990965	0.023690
 361	1.8000e-01	14.4557	34.306451	0.000214	2.143479	0.726230	0.017362
 362	1.8050e-01	14.4830	34.367602	0.000151	1.509939	0.511581	0.012230
 363	1.8100e-01	14.5183	34.479640	0.000277	2.766461	0.937302	0.022408
 364	1.8150e-01	14.5664	34.618190	0.000342	3.421120	1.159107	0.027710
 365	1.8200e-01	14.6097	34.724241	0.000262	2.618635	0.887217	0.021210
 366	1.8250e-01	14.6402	34.828154	0.000257	2.565840	0.869330	0.020783
 367	1.8300e-01	14.6948	34.849108	0.000052	0.517392	0.175297	0.004191
 368	1.8350e-01	14.7220	34.966705	0.000290	2.903728	0.983810	0.023519
 369	1.8400e-01	14.7461	35.082164	0.000285	2.850933	0.965922	0.023092
 370	1.8450e-01	14.8055	35.182228	0.000247	2.470809	0.837133	0.020013
 371	1.8500e-01	14.8408	35.351568	0.000418	4.181368	1.416686	0.033868
 372	1.8550e-01	14.8953	35.369956	0.000045	0.454037	0.153832	0.003678
 373	1.8600e-01	14.9450	35.421271	0.000127	1.267081	0.429299	0.010263
 374	1.8650e-01	14.9723	35.547420	0.000311	3.114908	1.055359	0.025230
 375	1.8700e-01	15.0252	35.606005	0.000145	1.446585	0.490116	0.011717
 376	1.8750e-01	15.0268	35.771496	0.000409	4.086337	1.384489	0.033098
 377	1.8800e-01	15.0654	35.880112	0.000268	2.681989	0.908682	0.021723
 378	1.8850e-01	15.1071	35.980604	0.000248	2.481368	0.840710	0.020098
 379	1.8900e-01	15.1616	36.035768	0.000136	1.362112	0.461496	0.011033
 380	1.8950e-01	15.1969	36.143530	0.000266	2.660871	0.901527	0.021552
 381	1.9000e-01	15.2322	36.229482	0.000212	2.122361	0.719075	0.017191
 382	1.9050e-01	15.2819	36.315863	0.000213	2.132920	0.722653	0.017276
 383	1.9100e-01	15.3220	36.373164	0.000141	1.414907	0.479384	0.011460
 384	1.9150e-01	15.3782	36.517274	0.000356	3.558387	1.205614	0.028822
 385	1.9200e-01	15.3894	36.656680	0.000344	3.442238	1.166262	0.027881
 386	1.9250e-01	15.4359	36.722534	0.000163	1.626088	0.550933	0.013171
 387	1.9300e-01	15.4712	36.832006	0.000270	2.703107	0.915837	0.021894
 388	1.9350e-01	15.5161	36.886742	0.000135	1.351553	0.457919	0.010947
 389	1.9400e-01	15.5482	37.015458	0.000318	3.178262	1.076824	0.025743
 390	1.9450e-01	15.5931	37.102693	0.000215	2.154038	0.729808	0.017447
 391	1.9500e-01	15.6220	37.201475	0.000244	2.439132	0.826400	0.019756
 392	1.9550e-01	15.6750	37.315651	0.000282	2.819256	0.955190	0.022835
 393	1.9600e-01	15.7054	37.402886	0.000215	2.154038	0.729808	0.017447
 394	1.9650e-01	15.7664	37.461898	0.000146	1.457144	0.493694	0.011802
 395	1.9700e-01	15.8081	37.539299	0.000191	1.911181	0.647526	0.015480
 396	1.9750e-01	15.8209	37.698375	0.000393	3.927952	1.330826	0.031815
 397	1.9800e-01	15.8803	37.756532	0.000144	1.436025	0.486539	0.011631
 398	1.9850e-01	15.9172	37.825380	0.000170	1.700001	0.575976	0.013770
 399	1.9900e-01	15.9461	37.934852	0.000270	2.703107	0.915837	0.021894
 400	1.9950e-01	16.0070	38.116593	0.000449	4.487580	1.520433	0.036348
 401	2.0000e-01	16.0552	38.146526	0.000074	0.739131	0.250424	0.005987
 402	2.0050e-01	16.0792	38.235900	0.000221	2.206833	0.747695	0.017875
 403	2.0100e-01	16.1177	38.342806	0.000264	2.639753	0.894372	0.021381
 404	2.0150e-01	16.1530	38.418924	0.000188	1.879504	0.636793	0.015223
 405	2.0200e-01	16.1675	38.531389	0.000278	2.777020	0.940880	0.022493
 406	2.0250e-01	16.2669	38.598099	0.000165	1.647206	0.558088	0.013342
 407	2.0300e-01	16.3054	38.650269	0.000129	1.288199	0.436454	0.010434
 408	2.0350e-01	16.2894	38.821747	-0.000423	-4.234163	-1.434573	0.034296
 409	2.0400e-01	16.3616	38.932929	0.000275	2.745343	0.930147	0.022237
 410	2.0450e-01	16.3969	38.969705	0.000091	0.908075	0.307664	0.007355
 411	2.0500e-01	16.4145	39.102697	0.000328	3.283852	1.112599	0.026598
 412	2.0550e-01	16.4691	39.229274	0.000313	3.125467	1.058937	0.025315
 413	2.0600e-01	16.5188	39.310095	0.000200	1.995653	0.676146	0.016164
 414	2.0650e-01	16.5461	39.387923	0.000192	1.921740	0.651103	0.015566
 415	2.0700e-01	16.5926	39.479007	0.000225	2.249069	0.762005	0.018217
 416	2.0750e-01	16.6535	39.519631	0.000100	1.003106	0.339862	0.008125
 417	2.0800e-01	16.6888	39.691964	0.000426	4.255281	1.441728	0.034467
 418	2.0850e-01	16.7418	39.729595	0.000093	0.929193	0.314819	0.007526
 419	2.0900e-01	16.7578	39.842488	0.000279	2.787579	0.944457	0.022579
 420	2.0950e-01	16.8172	39.912191	0.000172	1.721119	0.583131	0.013941
 421	2.1000e-01	16.8460	40.037913	0.000310	3.104349	1.051782	0.025144
 422	2.1050e-01	16.8894	40.101629	0.000157	1.573293	0.533046	0.012743
 423	2.1100e-01	16.9182	40.205542	0.000257	2.565840	0.869330	0.020783
 424	2.1150e-01	16.9664	40.278666	0.000181	1.805591	0.611751	0.014625
 425	2.1200e-01	16.9968	40.430473	0.000375	3.748449	1.270009	0.030361
 426	2.1250e-01	17.0305	40.504025	0.000182	1.816150	0.615328	0.014710
 427	2.1300e-01	17.0787	40.608365	0.000258	2.576399	0.872908	0.020868
 428	2.1350e-01	17.1124	40.708857	0.000248	2.481368	0.840710	0.020098
 429	2.1400e-01	17.1476	40.778988	0.000173	1.731678	0.586708	0.014026
 430	2.1450e-01	17.2086	40.884183	0.000260	2.597517	0.880062	0.021039
 431	2.1500e-01	17.2246	40.922670	0.000095	0.950311	0.321974	0.007697
 432	2.1550e-01	17.2680	41.055661	0.000328	3.283852	1.112599	0.026598
 433	2.1600e-01	17.3321	41.142897	0.000215	2.154038	0.729808	0.017447
 434	2.1650e-01	17.3514	41.205330	0.000154	1.541616	0.522314	0.012487
 435	2.1700e-01	17.3963	41.344736	0.000344	3.442238	1.166262	0.027881
 436	2.1750e-01	17.4460	41.387926	0.000107	1.066460	0.361326	0.008638
 437	2.1800e-01	17.4589	41.574371	0.000460	4.603729	1.559786	0.037289
 438	2.1850e-01	17.5214	41.625686	0.000127	1.267081	0.429299	0.010263
 439	2.1900e-01	17.5535	41.727033	0.000250	2.502486	0.847865	0.020269
 440	2.1950e-01	17.6161	41.787328	0.000149	1.488821	0.504426	0.012059
 441	2.2000e-01	17.6321	41.865156	0.000192	1.921740	0.651103	0.015566
 442	2.2050e-01	17.6819	42.031502	0.000411	4.107455	1.391644	0.033269
 443	2.2100e-01	17.7075	42.072982	0.000102	1.024224	0.347017	0.008296
 444	2.2150e-01	17.7605	42.207684	0.000333	3.326088	1.126909	0.026940
 445	2.2200e-01	17.7669	42.297485	0.000222	2.217392	0.751273	0.017960
 446	2.2250e-01	17.8455	42.402681	0.000260	2.597517	0.880062	0.021039
 447	2.2300e-01	17.8888	42.427483	0.000061	0.612423	0.207494	0.004960
 448	2.2350e-01	17.9113	42.560902	0.000329	3.294411	1.116177	0.026684
 449	2.2400e-01	17.9674	42.644289	0.000206	2.059007	0.697611	0.016677
 450	2.2450e-01	17.9995	42.733235	0.000220	2.196274	0.744118	0.017789
 451	2.2500e-01	18.0428	42.840569	0.000265	2.650312	0.897950	0.021467
 452	2.2550e-01	18.1006	42.900009	0.000147	1.467703	0.497271	0.011888
 453	2.2600e-01	18.1326	43.000073	0.000247	2.470809	0.837133	0.020013
 454	2.2650e-01	18.1294	43.090730	-0.000224	-2.238510	-0.758428	0.018131
 455	2.2700e-01	18.2000	43.187801	0.000240	2.396895	0.812090	0.019414
 456	2.2750e-01	18.2385	43.310102	0.000302	3.019877	1.023162	0.024460
 457	2.2800e-01	18.2883	43.402469	0.000228	2.280746	0.772738	0.018473
 458	2.2850e-01	18.3284	43.456777	0.000134	1.340994	0.454341	0.010862
 459	2.2900e-01	18.3637	43.577795	0.000299	2.988200	1.012430	0.024204
 460	2.2950e-01	18.3861	43.662465	0.000209	2.090684	0.708343	0.016934
 461	2.3000e-01	18.4663	43.729174	0.000165	1.647206	0.558088	0.013342
 462	2.3050e-01	18.5000	43.838219	0.000269	2.692548	0.912260	0.021809
 463	2.3100e-01	18.5193	43.908777	0.000174	1.742237	0.590286	0.014112
 464	2.3150e-01	18.5465	44.065715	0.000388	3.875157	1.312939	0.031388
 465	2.3200e-01	18.6011	44.100781	0.000087	0.865839	0.293354	0.007013
 466	2.3250e-01	18.6235	44.215812	0.000284	2.840374	0.962345	0.023006
 467	2.3300e-01	18.6765	44.276962	0.000151	1.509939	0.511581	0.012230
 468	2.3350e-01	18.7118	44.391138	0.000282	2.819256	0.955190	0.022835
 469	2.3400e-01	18.7679	44.504887	0.000281	2.808697	0.951612	0.022750
 470	2.3450e-01	18.7856	44.612648	0.000266	2.660871	0.901527	0.021552
 471	2.3500e-01	18.8241	44.710147	0.000241	2.407454	0.815668	0.019500
 472	2.3550e-01	18.8722	44.742219	0.000079	0.791926	0.268312	0.006414
 473	2.3600e-01	18.9316	44.870934	0.000318	3.178262	1.076824	0.025743
 474	2.3650e-01	18.9861	44.934222	0.000156	1.562734	0.529468	0.012658
 475	2.3700e-01	18.9813	45.093299	-0.000393	-3.927952	-1.330826	0.031815
 476	2.3750e-01	19.0422	45.139055	0.000113	1.129814	0.382791	0.009151
 477	2.3800e-01	19.0711	45.242968	0.000257	2.565840	0.869330	0.020783
 478	2.3850e-01	19.1273	45.330631	0.000216	2.164597	0.733385	0.017533
 479	2.3900e-01	19.1529	45.441814	0.000275	2.745343	0.930147	0.022237
 480	2.3950e-01	19.1914	45.523062	0.000201	2.006212	0.679723	0.016250
 481	2.4000e-01	19.2331	45.582075	0.000146	1.457144	0.493694	0.011802
 482	2.4050e-01	19.2909	45.657764	0.000187	1.868945	0.633216	0.015138
 483	2.4100e-01	19.3535	45.792039	0.000332	3.315529	1.123332	0.026855
 484	2.4150e-01	19.3422	45.895952	-0.000257	-2.565840	-0.869330	0.020783
 485	2.4200e-01	19.4128	45.977628	0.000202	2.016771	0.683301	0.016335
 486	2.4250e-01	19.4112	46.136277	-0.000392	-3.917393	-1.327249	0.031730
 487	2.4300e-01	19.4802	46.158514	0.000055	0.549069	0.186029	0.004447
 488	2.4350e-01	19.5299	46.238052	0.000196	1.963976	0.665413	0.015908
 489	2.4400e-01	19.5444	46.383017	0.000358	3.579505	1.212769	0.028993
 490	2.4450e-01	19.5748	46.455713	0.000180	1.795032	0.608173	0.014539
 491	2.4500e-01	19.6310	46.529265	0.000182	1.816150	0.615328	0.014710
 492	2.4550e-01	19.6679	46.641303	0.000277	2.766461	0.937302	0.022408
 493	2.4600e-01	19.7128	46.692190	0.000126	1.256522	0.425721	0.010177
 494	2.4650e-01	19.7497	46.823471	0.000324	3.241616	1.098289	0.026256
 495	2.4700e-01	19.8043	46.855543	0.000079	0.791926	0.268312	0.006414
 496	2.4750e-01	19.8379	47.015475	0.000395	3.949070	1.337981	0.031986
 497	2.4800e-01	19.8877	47.047119	0.000078	0.781367	0.264734	0.006329
 498	2.4850e-01	19.9069	47.208334	0.000398	3.980747	1.348714	0.032243
 499	2.4900e-01	19.9599	47.231425	0.000057	0.570187	0.193184	0.004618
 500	2.4950e-01	19.9984	47.303694	0.000178	1.784473	0.604596	0.014454
 501	2.5000e-01	20.0224	47.415732	0.000277	2.766461	0.937302	0.022408
 502	2.5050e-01	19.9807	47.409318	0.000016	0.158385	0.053662	-0.001283
 503	2.5100e-01	19.9534	47.322082	0.000215	2.154038	0.729808	-0.017447
 504	2.5150e-01	19.9101	47.255800	0.000164	1.636647	0.554511	-0.013256
 505	2.5200e-01	19.8524	47.175406	0.000199	1.985094	0.672568	-0.016079
 506	2.5250e-01	19.8139	47.121953	0.000132	1.319876	0.447186	-0.010691
 507	2.5300e-01	19.7914	47.017185	0.000259	2.586958	0.876485	-0.020954
 508	2.5350e-01	19.7465	46.963304	0.000133	1.330435	0.450764	-0.010776
 509	2.5400e-01	19.7273	46.809787	0.000379	3.790685	1.284319	-0.030703
 510	2.5450e-01	19.6711	46.745643	0.000158	1.583852	0.536623	-0.012829
 511	2.5500e-01	19.6150	46.711005	0.000086	0.855280	0.289777	-0.006928
 512	2.5550e-01	19.5829	46.601533	0.000270	2.703107	0.915837	-0.021894
 513	2.5600e-01	19.5476	46.530120	0.000176	1.763355	0.597441	-0.014283
 514	2.5650e-01	19.5155	46.383872	0.000361	3.611182	1.223501	-0.029250
 515	2.5700e-01	19.4706	46.350945	0.000081	0.813044	0.275467	-0.006585
 516	2.5750e-01	19.4241	46.277393	0.000182	1.816150	0.615328	-0.014710
 517	2.5800e-01	19.4241	46.116179	0.000398	3.980747	1.348714	-0.032243
 518	2.5850e-01	19.3535	46.144830	-0.000071	-0.707454	-0.239692	0.005730
 519	2.5900e-01	19.3053	46.010128	0.000333	3.326088	1.126909	-0.026940
 520	2.5950e-01	19.2765	45.935721	0.000184	1.837268	0.622483	-0.014881
 521	2.6000e-01	19.2123	45.823683	0.000277	2.766461	0.937302	-0.022408
 522	2.6050e-01	19.1770	45.781776	0.000103	1.034783	0.350594	-0.008381
 523	2.6100e-01	19.1241	45.688981	0.000229	2.291305	0.776315	-0.018559
 524	2.6150e-01	19.0952	45.634673	0.000134	1.340994	0.454341	-0.010862
 525	2.6200e-01	19.0567	45.539740	0.000234	2.344100	0.794203	-0.018987
 526	2.6250e-01	19.0037	45.448228	0.000226	2.259628	0.765583	-0.018302
 527	2.6300e-01	18.9925	45.308395	0.000345	3.452797	1.169839	-0.027967
 528	2.6350e-01	18.9364	45.312243	-0.000010	-0.095031	-0.032197	0.000770
 529	2.6400e-01	18.8930	45.169844	0.000352	3.516151	1.191304	-0.028480
 530	2.6450e-01	18.8545	45.087312	0.000204	2.037889	0.690456	-0.016506
 531	2.6500e-01	18.8289	44.988103	0.000245	2.449691	0.829978	-0.019842
 532	2.6550e-01	18.7743	44.943203	0.000111	1.108696	0.375636	-0.008980
 533	2.6600e-01	18.7519	44.821757	0.000300	2.998759	1.016007	-0.024289
 534	2.6650e-01	18.6845	44.718699	0.000254	2.544722	0.862175	-0.020612
 535	2.6700e-01	18.6556	44.642582	0.000188	1.879504	0.636793	-0.015223
 536	2.6750e-01	18.6075	44.566465	0.000188	1.879504	0.636793	-0.015223
 537	2.6800e-01	18.5786	44.501893	0.000159	1.594411	0.540201	-0.012914
 538	2.6850e-01	18.5193	44.383869	0.000291	2.914287	0.987387	-0.023605
 539	2.6900e-01	18.5112	44.303903	0.000197	1.974535	0.668991	-0.015993
 540	2.6950e-01	18.4471	44.244890	0.000146	1.457144	0.493694	-0.011802
 541	2.7000e-01	18.4230	44.133280	0.000276	2.755902	0.933725	-0.022322
 542	2.7050e-01	18.3765	44.035354	0.000242	2.418014	0.819245	-0.019585
 543	2.7100e-01	18.3444	43.987032	0.000119	1.193168	0.404256	-0.009664
 544	2.7150e-01	18.3187	43.834798	0.000376	3.759008	1.273586	-0.030447
 545	2.7200e-01	18.2642	43.786904	0.000118	1.182609	0.400679	-0.009579
 546	2.7250e-01	18.2289	43.710359	0.000189	1.890063	0.640371	-0.015309
 547	2.7300e-01	18.1936	43.585920	0.000307	3.072672	1.041050	-0.024888
 548	2.7350e-01	18.1407	43.564539	0.000053	0.527951	0.178874	-0.004276
 549	2.7400e-01	18.0893	43.451218	0.000280	2.798138	0.948035	-0.022664
 550	2.7450e-01	18.0701	43.331911	0.000295	2.945964	0.998120	-0.023861
 551	2.7500e-01	18.0444	43.225004	0.000264	2.639753	0.894372	-0.021381
 552	2.7550e-01	17.9722	43.160433	0.000159	1.594411	0.540201	-0.012914
 553	2.7600e-01	17.9546	43.063789	0.000239	2.386336	0.808513	-0.019329
 554	2.7650e-01	17.8872	42.998790	0.000160	1.604970	0.543778	-0.013000
 555	2.7700e-01	17.8647	42.888463	0.000272	2.724225	0.922992	-0.022065
 556	2.7750e-01	17.8118	42.823464	0.000160	1.604970	0.543778	-0.013000
 557	2.7800e-01	17.7589	42.728531	0.000234	2.344100	0.794203	-0.018987
 558	2.7850e-01	17.7428	42.653697	0.000185	1.847827	0.626061	-0.014967
 559	2.7900e-01	17.7396	42.545080	0.000268	2.681989	0.908682	-0.021723
 560	2.7950e-01	17.6658	42.446299	0.000244	2.439132	0.826400	-0.019756
 561	2.8000e-01	17.6337	42.318866	0.000315	3.146585	1.066092	-0.025486
 562	2.8050e-01	17.5551	42.343241	-0.000060	-0.601864	-0.203917	0.004875
 563	2.8100e-01	17.5343	42.250874	0.000228	2.280746	0.772738	-0.018473
 564	2.8150e-01	17.5006	42.126862	0.000306	3.062113	1.037472	-0.024802
 565	2.8200e-01	17.4476	42.043048	0.000207	2.069566	0.701188	-0.016763
 566	2.8250e-01	17.4348	41.900649	0.000352	3.516151	1.191304	-0.028480
 567	2.8300e-01	17.3931	41.871998	0.000071	0.707454	0.239692	-0.005730
 568	2.8350e-01	17.3337	41.720618	0.000374	3.737890	1.266431	-0.030276
 569	2.8400e-01	17.2968	41.711638	0.000022	0.221739	0.075127	-0.001796
 570	2.8450e-01	17.2439	41.579502	0.000326	3.262734	1.105444	-0.026427
 571	2.8500e-01	17.2263	41.507233	0.000178	1.784473	0.604596	-0.014454
 572	2.8550e-01	17.1894	41.371249	0.000336	3.357765	1.137642	-0.027197
 573	2.8600e-01	17.1509	41.376808	-0.000014	-0.137267	-0.046507	0.001112
 574	2.8650e-01	17.0851	41.254507	0.000302	3.019877	1.023162	-0.024460
 575	2.8700e-01	17.0594	41.121515	0.000328	3.283852	1.112599	-0.026598
 576	2.8750e-01	17.0353	41.059510	0.000153	1.531057	0.518736	-0.012401
 577	2.8800e-01	16.9824	40.897440	0.000400	4.001865	1.355869	-0.032414
 578	2.8850e-01	16.9375	40.863230	0.000084	0.844721	0.286199	-0.006842
 579	2.8900e-01	16.9022	40.791816	0.000176	1.763355	0.597441	-0.014283
 580	2.8950e-01	16.8733	40.669088	0.000303	3.030436	1.026740	-0.024546
 581	2.9000e-01	16.8332	40.588694	0.000199	1.985094	0.672568	-0.016079
 582	2.9050e-01	16.7658	40.567313	0.000053	0.527951	0.178874	-0.004276
 583	2.9100e-01	16.7338	40.384290	0.000452	4.519257	1.531166	-0.036605
 584	2.9150e-01	16.6872	40.385145	-0.000002	-0.021118	-0.007155	0.000171
 585	2.9200e-01	16.6776	40.211957	0.000428	4.276399	1.448883	-0.034638
 586	2.9250e-01	16.5974	40.153372	0.000145	1.446585	0.490116	-0.011717
 587	2.9300e-01	16.5781	40.067419	0.000212	2.122361	0.719075	-0.017191
 588	2.9350e-01	16.5300	40.023374	0.000109	1.087578	0.368481	-0.008809
 589	2.9400e-01	16.4851	39.908770	0.000283	2.829815	0.958767	-0.022921
 590	2.9450e-01	16.4562	39.809134	0.000246	2.460250	0.833555	-0.019927
 591	2.9500e-01	16.4370	39.745845	0.000156	1.562734	0.529468	-0.012658
 592	2.9550e-01	16.3808	39.617985	0.000316	3.157144	1.069669	-0.025572
 593	2.9600e-01	16.3455	39.544433	0.000182	1.816150	0.615328	-0.014710
 594	2.9650e-01	16.3247	39.462329	0.000203	2.027330	0.686878	-0.016421
 595	2.9700e-01	16.2396	39.359272	0.000254	2.544722	0.862175	-0.020612
 596	2.9750e-01	16.2284	39.190360	0.000417	4.170809	1.413108	-0.033782
 597	2.9800e-01	16.1771	39.213879	-0.000058	-0.580746	-0.196762	0.004704
 598	2.9850e-01	16.1675	39.043257	0.000421	4.213045	1.427418	-0.034124
 599	2.9900e-01	16.1001	38.997501	0.000113	1.129814	0.382791	-0.009151
 600	2.9950e-01	16.0552	38.891877	0.000261	2.608076	0.883640	-0.021125
 601	3.0000e-01	16.0167	38.806780	0.000210	2.101243	0.711920	-0.017019
 602	3.0050e-01	15.9846	38.720827	0.000212	2.122361	0.719075	-0.017191
 603	3.0100e-01	15.9188	38.702012	0.000046	0.464596	0.157410	-0.003763
 604	3.0150e-01	15.8947	38.487344	0.000530	5.300624	1.795900	-0.042934
 605	3.0200e-01	15.8546	38.487344	-0.000000	-0.000000	-0.000000	0.000000
 606	3.0250e-01	15.8129	38.329978	0.000389	3.885716	1.316516	-0.031473
 607	3.0300e-01	15.7744	38.261558	0.000169	1.689442	0.572398	-0.013684
 608	3.0350e-01	15.7455	38.192282	0.000171	1.710560	0.579553	-0.013855
 609	3.0400e-01	15.7022	38.095639	0.000239	2.386336	0.808513	-0.019329
 610	3.0450e-01	15.6557	37.966069	0.000320	3.199380	1.083979	-0.025914
 611	3.0500e-01	15.6236	37.896366	0.000172	1.721119	0.583131	-0.013941
 612	3.0550e-01	15.5835	37.824952	0.000176	1.763355	0.597441	-0.014283
 613	3.0600e-01	15.5370	37.716763	0.000267	2.671430	0.905105	-0.021638
 614	3.0650e-01	15.4841	37.647060	0.000172	1.721119	0.583131	-0.013941
 615	3.0700e-01	15.4841	37.521766	0.000309	3.093790	1.048204	-0.025059
 616	3.0750e-01	15.4183	37.477721	0.000109	1.087578	0.368481	-0.008809
 617	3.0800e-01	15.3990	37.311374	0.000411	4.107455	1.391644	-0.033269
 618	3.0850e-01	15.3734	37.230553	0.000200	1.995653	0.676146	-0.016164
 619	3.0900e-01	15.3044	37.222856	0.000019	0.190062	0.064395	-0.001539
 620	3.0950e-01	15.2530	37.107825	0.000284	2.840374	0.962345	-0.023006
 621	3.1000e-01	15.2065	36.989800	0.000291	2.914287	0.987387	-0.023605
 622	3.1050e-01	15.1857	36.860657	0.000319	3.188821	1.080402	-0.025829
 623	3.1100e-01	15.1407	36.819605	0.000101	1.013665	0.343439	-0.008210
 624	3.1150e-01	15.0958	36.754606	0.000160	1.604970	0.543778	-0.013000
 625	3.1200e-01	15.0509	36.662667	0.000227	2.270187	0.769160	-0.018388
 626	3.1250e-01	15.0397	36.545925	0.000288	2.882610	0.976655	-0.023348
 627	3.1300e-01	14.9659	36.420203	0.000310	3.104349	1.051782	-0.025144
 628	3.1350e-01	14.9274	36.360763	0.000147	1.467703	0.497271	-0.011888
 629	3.1400e-01	14.9065	36.202114	0.000392	3.917393	1.327249	-0.031730
 630	3.1450e-01	14.8504	36.181161	0.000052	0.517392	0.175297	-0.004191
 631	3.1500e-01	14.8343	36.046886	0.000332	3.315529	1.123332	-0.026855
 632	3.1550e-01	14.7782	36.010111	0.000091	0.908075	0.307664	-0.007355
 633	3.1600e-01	14.7301	35.925441	0.000209	2.090684	0.708343	-0.016934
 634	3.1650e-01	14.7092	35.840343	0.000210	2.101243	0.711920	-0.017019
 635	3.1700e-01	14.7012	35.693668	0.000362	3.621741	1.227079	-0.029335
 636	3.1750e-01	14.6226	35.588900	0.000259	2.586958	0.876485	-0.020954
 637	3.1800e-01	14.5809	35.543144	0.000113	1.129814	0.382791	-0.009151
 638	3.1850e-01	14.5392	35.406731	0.000337	3.368324	1.141219	-0.027282
 639	3.1900e-01	14.4975	35.320351	0.000213	2.132920	0.722653	-0.017276
 640	3.1950e-01	14.4397	35.272029	0.000119	1.193168	0.404256	-0.009664
 641	3.2000e-01	14.4317	35.154860	0.000289	2.893169	0.980232	-0.023434
 642	3.2050e-01	14.3755	35.012888	0.000351	3.505592	1.187727	-0.028394
 643	3.2100e-01	14.3386	34.971409	0.000102	1.024224	0.347017	-0.008296
 644	3.2150e-01	14.2937	34.860654	0.000273	2.734784	0.926570	-0.022151
 645	3.2200e-01	14.2632	34.729800	0.000323	3.231057	1.094712	-0.026171
 646	3.2250e-01	14.2328	34.726379	0.000008	0.084472	0.028620	-0.000684
 647	3.2300e-01	14.1830	34.609638	0.000288	2.882610	0.976655	-0.023348
 648	3.2350e-01	14.1397	34.476646	0.000328	3.283852	1.112599	-0.026598
 649	3.2400e-01	14.0868	34.391549	0.000210	2.101243	0.711920	-0.017019
 650	3.2450e-01	14.0515	34.350497	0.000101	1.013665	0.343439	-0.008210
 651	3.2500e-01	14.0338	34.208525	0.000351	3.505592	1.187727	-0.028394
 652	3.2550e-01	13.9777	34.159348	0.000121	1.214286	0.411411	-0.009835
 653	3.2600e-01	13.9360	34.010107	0.000369	3.685095	1.248544	-0.029848
 654	3.2650e-01	13.9167	33.919023	0.000225	2.249069	0.762005	-0.018217
 655	3.2700e-01	13.8814	33.826228	0.000229	2.291305	0.776315	-0.018559
 656	3.2750e-01	13.8092	33.730868	0.000235	2.354659	0.797780	-0.019072
 657	3.2800e-01	13.8060	33.638928	0.000227	2.270187	0.769160	-0.018388
 658	3.2850e-01	13.7130	33.570081	0.000170	1.700001	0.575976	-0.013770
 659	3.2900e-01	13.6889	33.513634	0.000139	1.393789	0.472229	-0.011289
 660	3.2950e-01	13.6488	33.393044	0.000298	2.977641	1.008852	-0.024118
 661	3.3000e-01	13.6360	33.289559	0.000256	2.555281	0.865753	-0.020697
 662	3.3050e-01	13.5975	33.187784	0.000251	2.513045	0.851443	-0.020355
 663	3.3100e-01	13.5333	33.127061	0.000150	1.499380	0.508004	-0.012145
 664	3.3150e-01	13.5205	33.003050	0.000306	3.062113	1.037472	-0.024802
 665	3.3200e-01	13.4788	32.905123	0.000242	2.418014	0.819245	-0.019585
 666	3.3250e-01	13.4210	32.832427	0.000180	1.795032	0.608173	-0.014539
 667	3.3300e-01	13.3488	32.763152	0.000171	1.710560	0.579553	-0.013855
 668	3.3350e-01	13.3264	32.687035	0.000188	1.879504	0.636793	-0.015223
 669	3.3400e-01	13.3264	32.495886	0.000472	4.719878	1.599138	-0.038230
 670	3.3450e-01	13.2654	32.399243	0.000239	2.386336	0.808513	-0.019329
 671	3.3500e-01	13.2397	32.374440	0.000061	0.612423	0.207494	-0.004960
 672	3.3550e-01	13.1643	32.256844	0.000290	2.903728	0.983810	-0.023519
 673	3.3600e-01	13.1387	32.152503	0.000258	2.576399	0.872908	-0.020868
 674	3.3650e-01	13.0954	32.060136	0.000228	2.280746	0.772738	-0.018473
 675	3.3700e-01	13.0681	31.971617	0.000219	2.185715	0.740540	-0.017704
 676	3.3750e-01	12.9959	31.918164	0.000132	1.319876	0.447186	-0.010691
 677	3.3800e-01	12.9831	31.787739	0.000322	3.220498	1.091134	-0.026085
 678	3.3850e-01	12.9413	31.673990	0.000281	2.808697	0.951612	-0.022750
 679	3.3900e-01	12.9285	31.575636	0.000243	2.428573	0.822823	-0.019671
 680	3.3950e-01	12.8659	31.532874	0.000106	1.055901	0.357749	-0.008553
 681	3.4000e-01	12.8178	31.429816	0.000254	2.544722	0.862175	-0.020612
 682	3.4050e-01	12.7601	31.341298	0.000219	2.185715	0.740540	-0.017704
 683	3.4100e-01	12.7328	31.272023	0.000171	1.710560	0.579553	-0.013855
 684	3.4150e-01	12.6975	31.135182	0.000338	3.378884	1.144797	-0.027368
 685	3.4200e-01	12.6590	31.060776	0.000184	1.837268	0.622483	-0.014881
 686	3.4250e-01	12.6157	30.950448	0.000272	2.724225	0.922992	-0.022065
 687	3.4300e-01	12.5836	30.832851	0.000290	2.903728	0.983810	-0.023519
 688	3.4350e-01	12.5579	30.767425	0.000162	1.615529	0.547356	-0.013085
 689	3.4400e-01	12.4906	30.655815	0.000276	2.755902	0.933725	-0.022322
 690	3.4450e-01	12.4841	30.545060	0.000273	2.734784	0.926570	-0.022151
 691	3.4500e-01	12.4296	30.493745	0.000127	1.267081	0.429299	-0.010263
 692	3.4550e-01	12.3975	30.382134	0.000276	2.755902	0.933725	-0.022322
 693	3.4600e-01	12.3462	30.265820	0.000287	2.872051	0.973077	-0.023263
 694	3.4650e-01	12.3013	30.189703	0.000188	1.879504	0.636793	-0.015223
 695	3.4700e-01	12.2531	30.109737	0.000197	1.974535	0.668991	-0.015993
 696	3.4750e-01	12.2018	30.025922	0.000207	2.069566	0.701188	-0.016763
 697	3.4800e-01	12.1986	29.900628	0.000309	3.093790	1.048204	-0.025059
 698	3.4850e-01	12.1232	29.833063	0.000167	1.668324	0.565243	-0.013513
 699	3.4900e-01	12.0991	29.721453	0.000276	2.755902	0.933725	-0.022322
 700	3.4950e-01	12.0542	29.628659	0.000229	2.291305	0.776315	-0.018559
 701	3.5000e-01	12.0237	29.518759	0.000271	2.713666	0.919415	-0.021980
 702	3.5050e-01	11.9708	29.474713	0.000109	1.087578	0.368481	-0.008809
 703	3.5100e-01	11.9580	29.280572	0.000479	4.793791	1.624180	-0.038828
 704	3.5150e-01	11.9034	29.227974	0.000130	1.298758	0.440031	-0.010520
 705	3.5200e-01	11.8424	29.215145	0.000032	0.316770	0.107325	-0.002566
 706	3.5250e-01	11.8168	29.016299	0.000491	4.909940	1.663533	-0.039769
 707	3.5300e-01	11.7494	28.972254	0.000109	1.087578	0.368481	-0.008809
 708	3.5350e-01	11.7430	28.880742	0.000226	2.259628	0.765583	-0.018302
 709	3.5400e-01	11.7029	28.742191	0.000342	3.421120	1.159107	-0.027710
 710	3.5450e-01	11.6596	28.644693	0.000241	2.407454	0.815668	-0.019500
 711	3.5500e-01	11.6211	28.545056	0.000246	2.460250	0.833555	-0.019927
 712	3.5550e-01	11.5777	28.456538	0.000219	2.185715	0.740540	-0.017704
 713	3.5600e-01	11.5601	28.294040	0.000401	4.012424	1.359446	-0.032500
 714	3.5650e-01	11.4879	28.273942	0.000050	0.496274	0.168142	-0.004020
 715	3.5700e-01	11.4558	28.214074	0.000148	1.478262	0.500849	-0.011974
 716	3.5750e-01	11.3868	28.128122	0.000212	2.122361	0.719075	-0.017191
 717	3.5800e-01	11.3836	27.980163	0.000365	3.653418	1.237811	-0.029592
 718	3.5850e-01	11.3516	27.861283	0.000294	2.935405	0.994542	-0.023776
 719	3.5900e-01	11.2986	27.801416	0.000148	1.478262	0.500849	-0.011974
 720	3.5950e-01	11.2569	27.721877	0.000196	1.963976	0.665413	-0.015908
 721	3.6000e-01	11.2280	27.650464	0.000176	1.763355	0.597441	-0.014283
 722	3.6050e-01	11.1751	27.527736	0.000303	3.030436	1.026740	-0.024546
 723	3.6100e-01	11.1398	27.463164	0.000159	1.594411	0.540201	-0.012914
 724	3.6150e-01	11.1045	27.323758	0.000344	3.442238	1.166262	-0.027881
 725	3.6200e-01	11.0435	27.263036	0.000150	1.499380	0.508004	-0.012145
 726	3.6250e-01	11.0500	27.081295	-0.000449	-4.487580	-1.520433	-0.036348
 727	3.6300e-01	10.9906	26.992776	0.000219	2.185715	0.740540	-0.017704
 728	3.6350e-01	10.9312	26.947020	0.000113	1.129814	0.382791	-0.009151
 729	3.6400e-01	10.9040	26.820871	0.000311	3.114908	1.055359	-0.025230
 730	3.6450e-01	10.8494	26.714392	0.000263	2.629194	0.890795	-0.021296
 731	3.6500e-01	10.8125	26.623308	0.000225	2.249069	0.762005	-0.018217
 732	3.6550e-01	10.7820	26.548901	0.000184	1.837268	0.622483	-0.014881
 733	3.6600e-01	10.7419	26.456107	0.000229	2.291305	0.776315	-0.018559
 734	3.6650e-01	10.7099	26.359036	0.000240	2.396895	0.812090	-0.019414
 735	3.6700e-01	10.6537	26.245715	0.000280	2.798138	0.948035	-0.022664
 736	3.6750e-01	10.6104	26.131967	0.000281	2.808697	0.951612	-0.022750
 737	3.6800e-01	10.5703	26.078514	0.000132	1.319876	0.447186	-0.010691
 738	3.6850e-01	10.5254	25.968186	0.000272	2.724225	0.922992	-0.022065
 739	3.6900e-01	10.5045	25.870688	0.000241	2.407454	0.815668	-0.019500
 740	3.6950e-01	10.4644	25.721874	0.000367	3.674536	1.244966	-0.029763
 741	3.7000e-01	10.4163	25.672697	0.000121	1.214286	0.411411	-0.009835
 742	3.7050e-01	10.3746	25.587600	0.000210	2.101243	0.711920	-0.017019
 743	3.7100e-01	10.3393	25.448194	0.000344	3.442238	1.166262	-0.027881
 744	3.7150e-01	10.3120	25.383622	0.000159	1.594411	0.540201	-0.012914
 745	3.7200e-01	10.2559	25.288690	0.000234	2.344100	0.794203	-0.018987
 746	3.7250e-01	10.1837	25.184349	0.000258	2.576399	0.872908	-0.020868
 747	3.7300e-01	10.1821	25.097969	0.000213	2.132920	0.722653	-0.017276
 748	3.7350e-01	10.1323	24.980799	0.000289	2.893169	0.980232	-0.023434
 749	3.7400e-01	10.0986	24.899978	0.000200	1.995653	0.676146	-0.016164
 750	3.7450e-01	10.0650	24.813170	0.000214	2.143479	0.726230	-0.017362
 751	3.7500e-01	10.0152	24.678896	0.000332	3.315529	1.123332	-0.026855
 752	3.7550e-01	9.9880	24.616035	0.000155	1.552175	0.525891	-0.012572
 753	3.7600e-01	9.9559	24.461662	0.000381	3.811803	1.291474	-0.030875
 754	3.7650e-01	9.8901	24.357322	0.000258	2.576399	0.872908	-0.020868
 755	3.7700e-01	9.8516	24.318408	0.000096	0.960870	0.325552	-0.007783
 756	3.7750e-01	9.8131	24.195679	0.000303	3.030436	1.026740	-0.024546
 757	3.7800e-01	9.7858	24.084069	0.000276	2.755902	0.933725	-0.022322
 758	3.7850e-01	9.7618	23.957920	0.000311	3.114908	1.055359	-0.025230
 759	3.7900e-01	9.7136	23.919434	0.000095	0.950311	0.321974	-0.007697
 760	3.7950e-01	9.6527	23.868119	0.000127	1.267081	0.429299	-0.010263
 761	3.8000e-01	9.6398	23.688516	0.000443	4.434785	1.502546	-0.035921
 762	3.8050e-01	9.5869	23.591873	0.000239	2.386336	0.808513	-0.019329
 763	3.8100e-01	9.5564	23.502499	0.000221	2.206833	0.747695	-0.017875
 764	3.8150e-01	9.4938	23.420822	0.000202	2.016771	0.683301	-0.016335
 765	3.8200e-01	9.4634	23.307929	0.000279	2.787579	0.944457	-0.022579
 766	3.8250e-01	9.4233	23.188622	0.000295	2.945964	0.998120	-0.023861
 767	3.8300e-01	9.3575	23.142438	0.000114	1.140373	0.386369	-0.009237
 768	3.8350e-01	9.3334	23.029973	0.000278	2.777020	0.940880	-0.022493
 769	3.8400e-01	9.2725	22.880304	0.000370	3.695654	1.252121	-0.029934
 770	3.8450e-01	9.2628	22.899120	-0.000046	-0.464596	-0.157410	0.003763
 771	3.8500e-01	9.1955	22.740898	0.000391	3.906834	1.323671	-0.031644
 772	3.8550e-01	9.1762	22.593368	0.000364	3.642859	1.234234	-0.029506
 773	3.8600e-01	9.1489	22.495014	0.000243	2.428573	0.822823	-0.019671
 774	3.8650e-01	9.1169	22.414620	0.000199	1.985094	0.672568	-0.016079
 775	3.8700e-01	9.0575	22.307714	0.000264	2.639753	0.894372	-0.021381
 776	3.8750e-01	9.0158	22.261103	0.000115	1.150932	0.389946	-0.009322
 777	3.8800e-01	8.9853	22.104164	0.000388	3.875157	1.312939	-0.031388
 778	3.8850e-01	8.9260	22.007521	0.000239	2.386336	0.808513	-0.019329
 779	3.8900e-01	8.9003	21.867687	0.000345	3.452797	1.169839	-0.027967
 780	3.8950e-01	8.8730	21.824497	0.000107	1.066460	0.361326	-0.008638
 781	3.9000e-01	8.8538	21.684236	0.000346	3.463356	1.173417	-0.028052
 782	3.9050e-01	8.7928	21.656013	0.000070	0.696895	0.236114	-0.005645
 783	3.9100e-01	8.7447	21.531146	0.000308	3.083231	1.044627	-0.024973
 784	3.9150e-01	8.6949	21.450753	0.000199	1.985094	0.672568	-0.016079
 785	3.9200e-01	8.6613	21.264736	0.000459	4.593170	1.556208	-0.037203
 786	3.9250e-01	8.6340	21.196316	0.000169	1.689442	0.572398	-0.013684
 787	3.9300e-01	8.5666	21.139869	0.000139	1.393789	0.472229	-0.011289
 788	3.9350e-01	8.5457	21.037239	0.000253	2.534163	0.858598	-0.020526
 789	3.9400e-01	8.4800	20.972668	0.000159	1.594411	0.540201	-0.012914
 790	3.9450e-01	8.4559	20.865334	0.000265	2.650312	0.897950	-0.021467
 791	3.9500e-01	8.4318	20.751158	0.000282	2.819256	0.955190	-0.022835
 792	3.9550e-01	8.3853	20.638692	0.000278	2.777020	0.940880	-0.022493
 793	3.9600e-01	8.3372	20.533924	0.000259	2.586958	0.876485	-0.020954
 794	3.9650e-01	8.2987	20.453958	0.000197	1.974535	0.668991	-0.015993
 795	3.9700e-01	8.2666	20.305572	0.000366	3.663977	1.241389	-0.029677
 796	3.9750e-01	8.2442	20.205936	0.000246	2.460250	0.833555	-0.019927
 797	3.9800e-01	8.1720	20.126825	0.000195	1.953417	0.661836	-0.015822
 798	3.9850e-01	8.1431	20.015642	0.000275	2.745343	0.930147	-0.022237
 799	3.9900e-01	8.1030	19.990840	0.000061	0.612423	0.207494	-0.004960
 800	3.9950e-01	8.0645	19.781304	0.000517	5.173915	1.752970	-0.041907
 801	4.0000e-01	7.9875	19.745811	0.000088	0.876398	0.296932	-0.007099
 802	4.0050e-01	7.9634	19.691502	0.000134	1.340994	0.454341	-0.010862
 803	4.0100e-01	7.9329	19.502492	0.000467	4.667083	1.581250	-0.037802
 804	4.0150e-01	7.9057	19.433217	0.000171	1.710560	0.579553	-0.013855
 805	4.0200e-01	7.8559	19.292528	0.000347	3.473915	1.176994	-0.028138
 806	4.0250e-01	7.8319	19.211279	0.000201	2.006212	0.679723	-0.016250
 807	4.0300e-01	7.7533	19.106939	0.000258	2.576399	0.872908	-0.020868
 808	4.0350e-01	7.7340	19.039802	0.000166	1.657765	0.561666	-0.013427
 809	4.0400e-01	7.7180	18.909803	0.000321	3.209939	1.087557	-0.026000
 810	4.0450e-01	7.6554	18.834969	0.000185	1.847827	0.626061	-0.014967
 811	4.0500e-01	7.5912	18.745168	0.000222	2.217392	0.751273	-0.017960
 812	4.0550e-01	7.5848	18.657077	0.000218	2.175156	0.736963	-0.017618
 813	4.0600e-01	7.5383	18.493296	0.000404	4.044101	1.370179	-0.032756
 814	4.0650e-01	7.4902	18.434284	0.000146	1.457144	0.493694	-0.011802
 815	4.0700e-01	7.4597	18.288036	0.000361	3.611182	1.223501	-0.029250
 816	4.0750e-01	7.4260	18.200801	0.000215	2.154038	0.729808	-0.017447
 817	4.0800e-01	7.3602	18.154190	0.000115	1.150932	0.389946	-0.009322
 818	4.0850e-01	7.3297	18.016922	0.000339	3.389443	1.148374	-0.027454
 819	4.0900e-01	7.3089	17.941232	0.000187	1.868945	0.633216	-0.015138
 820	4.0950e-01	7.2688	17.822780	0.000292	2.924846	0.990965	-0.023690
 821	4.1000e-01	7.2030	17.711170	0.000276	2.755902	0.933725	-0.022322
 822	4.1050e-01	7.1757	17.627355	0.000207	2.069566	0.701188	-0.016763
 823	4.1100e-01	7.1517	17.485384	0.000351	3.505592	1.187727	-0.028394
 824	4.1150e-01	7.1180	17.391734	0.000231	2.312423	0.783470	-0.018730
 825	4.1200e-01	7.0490	17.313051	0.000194	1.942858	0.658258	-0.015737
 826	4.1250e-01	7.0185	17.177493	0.000335	3.347206	1.134064	-0.027111
 827	4.1300e-01	6.9896	17.120192	0.000141	1.414907	0.479384	-0.011460
 828	4.1350e-01	6.9399	17.020127	0.000247	2.470809	0.837133	-0.020013
 829	4.1400e-01	6.9142	16.869176	0.000373	3.727331	1.262854	-0.030190
 830	4.1450e-01	6.8629	16.816150	0.000131	1.309317	0.443609	-0.010605
 831	4.1500e-01	6.8212	16.707106	0.000269	2.692548	0.912260	-0.021809
 832	4.1550e-01	6.7634	16.630988	0.000188	1.879504	0.636793	-0.015223
 833	4.1600e-01	6.7169	16.511681	0.000295	2.945964	0.998120	-0.023861
 834	4.1650e-01	6.6961	16.409906	0.000251	2.513045	0.851443	-0.020355
 835	4.1700e-01	6.6495	16.291026	0.000294	2.935405	0.994542	-0.023776
 836	4.1750e-01	6.6223	16.199942	0.000225	2.249069	0.762005	-0.018217
 837	4.1800e-01	6.5581	16.108003	0.000227	2.270187	0.769160	-0.018388
 838	4.1850e-01	6.5180	15.984419	0.000305	3.051554	1.033895	-0.024717
 839	4.1900e-01	6.5196	15.852710	-0.000325	-3.252175	-1.101867	-0.026342
 840	4.1950e-01	6.4731	15.688930	0.000404	4.044101	1.370179	-0.032756
 841	4.2000e-01	6.4105	15.697482	-0.000021	-0.211180	-0.071550	0.001711
 842	4.2050e-01	6.3977	15.586300	0.000275	2.745343	0.930147	-0.022237
 843	4.2100e-01	6.3319	15.516169	0.000173	1.731678	0.586708	-0.014026
 844	4.2150e-01	6.3030	15.401993	0.000282	2.819256	0.955190	-0.022835
 845	4.2200e-01	6.2533	15.336567	0.000162	1.615529	0.547356	-0.013085
 846	4.2250e-01	6.2100	15.205713	0.000323	3.231057	1.094712	-0.026171
 847	4.2300e-01	6.1635	15.101800	0.000257	2.565840	0.869330	-0.020783
 848	4.2350e-01	6.1458	14.967954	0.000330	3.304970	1.119754	-0.026769
 849	4.2400e-01	6.0993	14.845225	0.000303	3.030436	1.026740	-0.024546
 850	4.2450e-01	6.0688	14.743450	0.000251	2.513045	0.851443	-0.020355
 851	4.2500e-01	6.0143	14.633978	0.000270	2.703107	0.915837	-0.021894
 852	4.2550e-01	5.9661	14.548026	0.000212	2.122361	0.719075	-0.017191
 853	4.2600e-01	5.9260	14.539901	0.000020	0.200621	0.067972	-0.001625
 854	4.2650e-01	5.8859	14.348325	0.000473	4.730437	1.602715	-0.038315
 855	4.2700e-01	5.8827	14.178557	0.000419	4.191927	1.420263	-0.033953
 856	4.2750e-01	5.8089	14.136650	0.000103	1.034783	0.350594	-0.008381
 857	4.2800e-01	5.7656	14.038296	0.000243	2.428573	0.822823	-0.019671
 858	4.2850e-01	5.7464	13.922410	0.000286	2.861492	0.969500	-0.023177
 859	4.2900e-01	5.6918	13.821490	0.000249	2.491927	0.844288	-0.020184
 860	4.2950e-01	5.6758	13.718433	0.000254	2.544722	0.862175	-0.020612
 861	4.3000e-01	5.6068	13.663697	0.000135	1.351553	0.457919	-0.010947
 862	4.3050e-01	5.5555	13.554652	0.000269	2.692548	0.912260	-0.021809
 863	4.3100e-01	5.5314	13.472976	0.000202	2.016771	0.683301	-0.016335
 864	4.3150e-01	5.4929	13.356662	0.000287	2.872051	0.973077	-0.023263
 865	4.3200e-01	5.4672	13.224098	0.000327	3.273293	1.109022	-0.026513
 866	4.3250e-01	5.4255	13.089823	0.000332	3.315529	1.123332	-0.026855
 867	4.3300e-01	5.3678	13.016272	0.000182	1.816150	0.615328	-0.014710
 868	4.3350e-01	5.3373	12.905517	0.000273	2.734784	0.926570	-0.022151
 869	4.3400e-01	5.2876	12.817426	0.000218	2.175156	0.736963	-0.017618
 870	4.3450e-01	5.2507	12.716934	0.000248	2.481368	0.840710	-0.020098
 871	4.3500e-01	5.2041	12.631409	0.000211	2.111802	0.715498	-0.017105
 872	4.3550e-01	5.1881	12.481740	0.000370	3.695654	1.252121	-0.029934
 873	4.3600e-01	5.1480	12.395788	0.000212	2.122361	0.719075	-0.017191
 874	4.3650e-01	5.1079	12.282039	0.000281	2.808697	0.951612	-0.022750
 875	4.3700e-01	5.0646	12.170002	0.000277	2.766461	0.937302	-0.022408
 876	4.3750e-01	5.0245	12.063950	0.000262	2.618635	0.887217	-0.021210
 877	4.3800e-01	4.9731	11.986978	0.000190	1.900622	0.643948	-0.015395
 878	4.3850e-01	4.9266	11.882210	0.000259	2.586958	0.876485	-0.020954
 879	4.3900e-01	4.9282	11.739383	-0.000353	-3.526710	-1.194882	-0.028565
 880	4.3950e-01	4.8560	11.620931	0.000292	2.924846	0.990965	-0.023690
 881	4.4000e-01	4.8111	11.547807	0.000181	1.805591	0.611751	-0.014625
 882	4.4050e-01	4.7902	11.442183	0.000261	2.608076	0.883640	-0.021125
 883	4.4100e-01	4.7453	11.347678	0.000233	2.333541	0.790625	-0.018901
 884	4.4150e-01	4.7132	11.261298	0.000213	2.132920	0.722653	-0.017276
 885	4.4200e-01	4.6651	11.105215	0.000385	3.854039	1.305784	-0.031217
 886	4.4250e-01	4.5993	11.053044	0.000129	1.288199	0.436454	-0.010434
 887	4.4300e-01	4.5737	10.957256	0.000237	2.365218	0.801358	-0.019158
 888	4.4350e-01	4.5368	10.836238	0.000299	2.988200	1.012430	-0.024204
 889	4.4400e-01	4.5031	10.718641	0.000290	2.903728	0.983810	-0.023519
 890	4.4450e-01	4.4694	10.629695	0.000220	2.196274	0.744118	-0.017789
 891	4.4500e-01	4.3956	10.554006	0.000187	1.868945	0.633216	-0.015138
 892	4.4550e-01	4.3812	10.400488	0.000379	3.790685	1.284319	-0.030703
 893	4.4600e-01	4.3234	10.291444	0.000269	2.692548	0.912260	-0.021809
 894	4.4650e-01	4.2929	10.209767	0.000202	2.016771	0.683301	-0.016335
 895	4.4700e-01	4.2592	10.084473	0.000309	3.093790	1.048204	-0.025059
 896	4.4750e-01	4.2368	9.940791	0.000355	3.547828	1.202037	-0.028736
 897	4.4800e-01	4.1854	9.878358	0.000154	1.541616	0.522314	-0.012487
 898	4.4850e-01	4.1662	9.789412	0.000220	2.196274	0.744118	-0.017789
 899	4.4900e-01	4.1004	9.631190	0.000391	3.906834	1.323671	-0.031644
 900	4.4950e-01	4.0860	9.572606	0.000145	1.446585	0.490116	-0.011717
 901	4.5000e-01	4.0202	9.431489	0.000348	3.484474	1.180572	-0.028223
 902	4.5050e-01	3.9785	9.363497	0.000168	1.678883	0.568821	-0.013598
 903	4.5100e-01	3.9336	9.304057	0.000147	1.467703	0.497271	-0.011888
 904	4.5150e-01	3.9240	9.158664	0.000359	3.590064	1.216347	-0.029079
 905	4.5200e-01	3.8582	9.059028	0.000246	2.460250	0.833555	-0.019927
 906	4.5250e-01	3.8149	8.942286	0.000288	2.882610	0.976655	-0.023348
 907	4.5300e-01	3.7988	8.833241	0.000269	2.692548	0.912260	-0.021809
 908	4.5350e-01	3.7491	8.712651	0.000298	2.977641	1.008852	-0.024118
 909	4.5400e-01	3.7138	8.615153	0.000241	2.407454	0.815668	-0.019500
 910	4.5450e-01	3.6753	8.504398	0.000273	2.734784	0.926570	-0.022151
 911	4.5500e-01	3.6320	8.418445	0.000212	2.122361	0.719075	-0.017191
 912	4.5550e-01	3.5630	8.320946	0.000241	2.407454	0.815668	-0.019500
 913	4.5600e-01	3.5133	8.209764	0.000275	2.745343	0.930147	-0.022237
 914	4.5650e-01	3.4988	8.069930	0.000345	3.452797	1.169839	-0.027967
 915	4.5700e-01	3.4635	8.014767	0.000136	1.362112	0.461496	-0.011033
 916	4.5750e-01	3.4363	7.851841	0.000402	4.022983	1.363024	-0.032585
 917	4.5800e-01	3.3721	7.809934	0.000103	1.034783	0.350594	-0.008381
 918	4.5850e-01	3.3464	7.706021	0.000257	2.565840	0.869330	-0.020783
 919	4.5900e-01	3.2903	7.566188	0.000345	3.452797	1.169839	-0.027967
 920	4.5950e-01	3.2678	7.477242	0.000220	2.196274	0.744118	-0.017789
 921	4.6000e-01	3.2406	7.309185	0.000415	4.149691	1.405953	-0.033611
 922	4.6050e-01	3.1475	7.285666	0.000058	0.580746	0.196762	-0.004704
 923	4.6100e-01	3.1427	7.155240	0.000322	3.220498	1.091134	-0.026085
 924	4.6150e-01	3.1283	7.037643	0.000290	2.903728	0.983810	-0.023519
 925	4.6200e-01	3.0529	6.901658	0.000336	3.357765	1.137642	-0.027197
 926	4.6250e-01	3.0320	6.814423	0.000215	2.154038	0.729808	-0.017447
 927	4.6300e-01	2.9678	6.755838	0.000145	1.446585	0.490116	-0.011717
 928	4.6350e-01	2.9518	6.628406	0.000315	3.146585	1.066092	-0.025486
 929	4.6400e-01	2.9133	6.530479	0.000242	2.418014	0.819245	-0.019585
 930	4.6450e-01	2.8780	6.387225	0.000354	3.537269	1.198459	-0.028651
 931	4.6500e-01	2.8234	6.285450	0.000251	2.513045	0.851443	-0.020355
 932	4.6550e-01	2.7657	6.217030	0.000169	1.689442	0.572398	-0.013684
 933	4.6600e-01	2.7320	6.097723	0.000295	2.945964	0.998120	-0.023861
 934	4.6650e-01	2.6839	6.025454	0.000178	1.784473	0.604596	-0.014454
 935	4.6700e-01	2.6502	5.911278	0.000282	2.819256	0.955190	-0.022835
 936	4.6750e-01	2.6181	5.782135	0.000319	3.188821	1.080402	-0.025829
 937	4.6800e-01	2.5892	5.622631	0.000394	3.938511	1.334404	-0.031901
 938	4.6850e-01	2.5154	5.557204	0.000162	1.615529	0.547356	-0.013085
 939	4.6900e-01	2.4817	5.524705	0.000080	0.802485	0.271889	-0.006500
 940	4.6950e-01	2.4625	5.347668	0.000437	4.371431	1.481081	-0.035407
 941	4.7000e-01	2.4272	5.234347	0.000280	2.798138	0.948035	-0.022664
 942	4.7050e-01	2.3711	5.150105	0.000208	2.080125	0.704765	-0.016848
 943	4.7100e-01	2.3326	5.035929	0.000282	2.819256	0.955190	-0.022835
 944	4.7150e-01	2.2908	4.940996	0.000234	2.344100	0.794203	-0.018987
 945	4.7200e-01	2.2796	4.799880	0.000348	3.484474	1.180572	-0.028223
 946	4.7250e-01	2.2219	4.713500	0.000213	2.132920	0.722653	-0.017276
 947	4.7300e-01	2.1737	4.617284	0.000238	2.375777	0.804935	-0.019243
 948	4.7350e-01	2.1577	4.502253	0.000284	2.840374	0.962345	-0.023006
 949	4.7400e-01	2.0967	4.388504	0.000281	2.808697	0.951612	-0.022750
 950	4.7450e-01	2.0791	4.278605	0.000271	2.713666	0.919415	-0.021980
 951	4.7500e-01	2.0181	4.155021	0.000305	3.051554	1.033895	-0.024717
 952	4.7550e-01	1.9780	4.047259	0.000266	2.660871	0.901527	-0.021552
 953	4.7600e-01	1.9411	4.017753	0.000073	0.728572	0.246847	-0.005901
 954	4.7650e-01	1.8721	3.884762	0.000328	3.283852	1.112599	-0.026598
 955	4.7700e-01	1.8481	3.711574	0.000428	4.276399	1.448883	-0.034638
 956	4.7750e-01	1.8401	3.648713	0.000155	1.552175	0.525891	-0.012572
 957	4.7800e-01	1.7967	3.532399	0.000287	2.872051	0.973077	-0.023263
 958	4.7850e-01	1.7310	3.425492	0.000264	2.639753	0.894372	-0.021381
 959	4.7900e-01	1.6941	3.348947	0.000189	1.890063	0.640371	-0.015309
 960	4.7950e-01	1.6508	3.236482	0.000278	2.777020	0.940880	-0.022493
 961	4.8000e-01	1.6235	3.098359	0.000341	3.410561	1.155529	-0.027625
 962	4.8050e-01	1.5721	3.023097	0.000186	1.858386	0.629638	-0.015052
 963	4.8100e-01	1.5192	2.931157	0.000227	2.270187	0.769160	-0.018388
 964	4.8150e-01	1.5369	2.766949	-0.000405	-4.054660	-1.373756	-0.032842
 965	4.8200e-01	1.4502	2.711786	0.000136	1.362112	0.461496	-0.011033
 966	4.8250e-01	1.4486	2.619846	0.000227	2.270187	0.769160	-0.018388
 967	4.8300e-01	1.4101	2.447941	0.000424	4.244722	1.438151	-0.034381
 968	4.8350e-01	1.3347	2.383797	0.000158	1.583852	0.536623	-0.012829
 969	4.8400e-01	1.3187	2.257648	0.000311	3.114908	1.055359	-0.025230
 970	4.8450e-01	1.2513	2.161432	0.000238	2.375777	0.804935	-0.019243
 971	4.8500e-01	1.2096	2.086598	0.000185	1.847827	0.626061	-0.014967
 972	4.8550e-01	1.1791	1.920251	0.000411	4.107455	1.391644	-0.033269
 973	4.8600e-01	1.1518	1.830450	0.000222	2.217392	0.751273	-0.017960
 974	4.8650e-01	1.0957	1.723971	0.000263	2.629194	0.890795	-0.021296
 975	4.8700e-01	1.0556	1.623907	0.000247	2.470809	0.837133	-0.020013
 976	4.8750e-01	0.9930	1.562757	0.000151	1.509939	0.511581	-0.012230
 977	4.8800e-01	0.9802	1.431476	0.000324	3.241616	1.098289	-0.026256
 978	4.8850e-01	0.9256	1.290359	0.000348	3.484474	1.180572	-0.028223
 979	4.8900e-01	0.8791	1.205262	0.000210	2.101243	0.711920	-0.017019
 980	4.8950e-01	0.8775	1.100921	0.000258	2.576399	0.872908	-0.020868
 981	4.9000e-01	0.8117	1.001285	0.000246	2.460250	0.833555	-0.019927
 982	4.9050e-01	0.7732	0.911056	0.000223	2.227951	0.754850	-0.018046
 983	4.9100e-01	0.7235	0.769512	0.000350	3.495033	1.184149	-0.028309
 984	4.9150e-01	0.6866	0.719052	0.000125	1.245963	0.422144	-0.010092
 985	4.9200e-01	0.6706	0.538594	0.000446	4.455903	1.509701	-0.036092
 986	4.9250e-01	0.6096	0.449648	0.000220	2.196274	0.744118	-0.017789
 987	4.9300e-01	0.5855	0.370110	0.000196	1.963976	0.665413	-0.015908
 988	4.9350e-01	0.5438	0.224289	0.000360	3.600623	1.219924	-0.029164
 989	4.9400e-01	0.4925	0.104127	0.000297	2.967082	1.005275	-0.024033
 990	4.9450e-01	0.4572	0.061364	0.000106	1.055901	0.357749	-0.008553
 991	4.9500e-01	0.4428	-0.083173	0.000357	3.568946	1.209192	-0.028907
 992	4.9550e-01	0.3898	-0.217447	0.000332	3.315529	1.123332	-0.026855
 993	4.9600e-01	0.3481	-0.383794	0.000411	4.107455	1.391644	-0.033269
 994	4.9650e-01	0.3064	-0.428694	0.000111	1.108696	0.375636	-0.008980
 995	4.9700e-01	0.2807	-0.502246	0.000182	1.816150	0.615328	-0.014710
 996	4.9750e-01	0.2230	-0.629251	0.000314	3.136026	1.062514	-0.025401
 997	4.9800e-01	0.1733	-0.682704	0.000132	1.319876	0.447186	-0.010691
 998	4.9850e-01	0.1460	-0.817406	0.000333	3.326088	1.126909	-0.026940
 999	4.9900e-01	0.0738	-0.911483	0.000232	2.322982	0.787048	-0.018816
1000	4.9950e-01	0.0770	-1.053455	-0.000351	-3.505592	-1.187727	-0.028394
1001	5.0000e-01	0.0658	-1.197565	0.000356	3.558387	1.205614	-0.028822
1002	5.0050e-01	-0.0048	-1.216808	0.000048	0.475155	0.160987	-0.003849
1003	5.0100e-01	-0.0465	-1.343812	0.000314	3.136026	1.062514	-0.025401
1004	5.0150e-01	-0.1075	-1.437035	0.000230	2.301864	0.779893	-0.018644
1005	5.0200e-01	-0.1556	-1.579006	0.000351	3.505592	1.187727	-0.028394
1006	5.0250e-01	-0.1733	-1.656407	0.000191	1.911181	0.647526	-0.015480
1007	5.0300e-01	-0.2358	-1.720978	0.000159	1.594411	0.540201	-0.012914
1008	5.0350e-01	-0.2711	-1.839430	0.000292	2.924846	0.990965	-0.023690
1009	5.0400e-01	-0.2952	-1.951040	0.000276	2.755902	0.933725	-0.022322
1010	5.0450e-01	-0.3257	-2.077617	0.000313	3.125467	1.058937	-0.025315
1011	5.0500e-01	-0.3626	-2.170840	0.000230	2.301864	0.779893	-0.018644
1012	5.0550e-01	-0.4299	-2.296134	0.000309	3.093790	1.048204	-0.025059
1013	5.0600e-01	-0.4412	-2.411593	0.000285	2.850933	0.965922	-0.023092
1014	5.0650e-01	-0.4989	-2.481723	0.000173	1.731678	0.586708	-0.014026
1015	5.0700e-01	-0.5182	-2.618991	0.000339	3.389443	1.148374	-0.027454
1016	5.0750e-01	-0.5743	-2.755831	0.000338	3.378884	1.144797	-0.027368
1017	5.0800e-01	-0.6337	-2.829810	0.000183	1.826709	0.618906	-0.014796
1018	5.0850e-01	-0.6674	-2.913625	0.000207	2.069566	0.701188	-0.016763
1019	5.0900e-01	-0.6898	-3.075267	0.000399	3.991306	1.352291	-0.032328
1020	5.0950e-01	-0.7299	-3.136418	0.000151	1.509939	0.511581	-0.012230
1021	5.1000e-01	-0.7797	-3.250594	0.000282	2.819256	0.955190	-0.022835
1022	5.1050e-01	-0.8278	-3.313454	0.000155	1.552175	0.525891	-0.012572
1023	5.1100e-01	-0.8486	-3.472531	0.000393	3.927952	1.330826	-0.031815
1024	5.1150e-01	-0.8871	-3.608516	0.000336	3.357765	1.137642	-0.027197
1025	5.1200e-01	-0.9305	-3.720554	0.000277	2.766461	0.937302	-0.022408
1026	5.1250e-01	-0.9641	-3.797526	0.000190	1.900622	0.643948	-0.015395
1027	5.1300e-01	-1.0091	-3.916406	0.000294	2.935405	0.994542	-0.023776
1028	5.1350e-01	-1.0331	-4.024595	0.000267	2.671430	0.905105	-0.021638
1029	5.1400e-01	-1.1165	-4.090450	0.000163	1.626088	0.550933	-0.013171
1030	5.1450e-01	-1.1502	-4.204626	0.000282	2.819256	0.955190	-0.022835
1031	5.1500e-01	-1.1984	-4.294427	0.000222	2.217392	0.751273	-0.017960
1032	5.1550e-01	-1.2561	-4.416300	0.000301	3.009318	1.019585	-0.024375
1033	5.1600e-01	-1.2288	-4.509095	-0.000229	-2.291305	-0.776315	-0.018559
1034	5.1650e-01	-1.2930	-4.592482	0.000206	2.059007	0.697611	-0.016677
1035	5.1700e-01	-1.3411	-4.748992	0.000386	3.864598	1.309361	-0.031302
1036	5.1750e-01	-1.3861	-4.842642	0.000231	2.312423	0.783470	-0.018730
1037	5.1800e-01	-1.4133	-4.964088	0.000300	2.998759	1.016007	-0.024289
1038	5.1850e-01	-1.4390	-5.103921	0.000345	3.452797	1.169839	-0.027967
1039	5.1900e-01	-1.5048	-5.121026	0.000042	0.422360	0.143100	-0.003421
1040	5.1950e-01	-1.5369	-5.275827	0.000382	3.822362	1.295051	-0.030960
1041	5.2000e-01	-1.5946	-5.348095	0.000178	1.784473	0.604596	-0.014454
1042	5.2050e-01	-1.5946	-5.462699	0.000283	2.829815	0.958767	-0.022921
1043	5.2100e-01	-1.6764	-5.595691	0.000328	3.283852	1.112599	-0.026598
1044	5.2150e-01	-1.7133	-5.664966	0.000171	1.710560	0.579553	-0.013855
1045	5.2200e-01	-1.7294	-5.829174	0.000405	4.054660	1.373756	-0.032842
1046	5.2250e-01	-1.7775	-5.909995	0.000200	1.995653	0.676146	-0.016164
1047	5.2300e-01	-1.8080	-6.004928	0.000234	2.344100	0.794203	-0.018987
1048	5.2350e-01	-1.8625	-6.111407	0.000263	2.629194	0.890795	-0.021296
1049	5.2400e-01	-1.9155	-6.182820	0.000176	1.763355	0.597441	-0.014283
1050	5.2450e-01	-1.9572	-6.277753	0.000234	2.344100	0.794203	-0.018987
1051	5.2500e-01	-1.9909	-6.471039	0.000477	4.772673	1.617025	-0.038657
1052	5.2550e-01	-2.0197	-6.534328	0.000156	1.562734	0.529468	-0.012658
1053	5.2600e-01	-2.0406	-6.638669	0.000258	2.576399	0.872908	-0.020868
1054	5.2650e-01	-2.0855	-6.781495	0.000353	3.526710	1.194882	-0.028565
1055	5.2700e-01	-2.1545	-6.810146	0.000071	0.707454	0.239692	-0.005730
1056	5.2750e-01	-2.1529	-6.964091	-0.000380	-3.801244	-1.287896	-0.030789
1057	5.2800e-01	-2.2411	-7.005143	0.000101	1.013665	0.343439	-0.008210
1058	5.2850e-01	-2.2507	-7.147970	0.000353	3.526710	1.194882	-0.028565
1059	5.2900e-01	-2.2924	-7.239054	0.000225	2.249069	0.762005	-0.018217
1060	5.2950e-01	-2.3342	-7.335270	0.000238	2.375777	0.804935	-0.019243
1061	5.3000e-01	-2.3598	-7.488788	0.000379	3.790685	1.284319	-0.030703
1062	5.3050e-01	-2.4063	-7.573030	0.000208	2.080125	0.704765	-0.016848
1063	5.3100e-01	-2.4625	-7.662403	0.000221	2.206833	0.747695	-0.017875
1064	5.3150e-01	-2.4834	-7.780856	0.000292	2.924846	0.990965	-0.023690
1065	5.3200e-01	-2.5058	-7.912992	0.000326	3.262734	1.105444	-0.026427
1066	5.3250e-01	-2.5652	-7.974998	0.000153	1.531057	0.518736	-0.012401
1067	5.3300e-01	-2.6390	-8.062233	0.000215	2.154038	0.729808	-0.017447
1068	5.3350e-01	-2.6502	-8.213612	0.000374	3.737890	1.266431	-0.030276
1069	5.3400e-01	-2.6903	-8.331209	0.000290	2.903728	0.983810	-0.023519
1070	5.3450e-01	-2.7721	-8.417162	0.000212	2.122361	0.719075	-0.017191
1071	5.3500e-01	-2.7946	-8.508674	0.000226	2.259628	0.765583	-0.018302
1072	5.3550e-01	-2.8090	-8.652356	0.000355	3.547828	1.202037	-0.028736
1073	5.3600e-01	-2.8331	-8.758407	0.000262	2.618635	0.887217	-0.021210
1074	5.3650e-01	-2.9021	-8.841794	0.000206	2.059007	0.697611	-0.016677
1075	5.3700e-01	-2.9325	-8.918767	0.000190	1.900622	0.643948	-0.015395
1076	5.3750e-01	-2.9999	-9.006857	0.000218	2.175156	0.736963	-0.017618
1077	5.3800e-01	-3.0304	-9.151395	0.000357	3.568946	1.209192	-0.028907
1078	5.3850e-01	-3.0705	-9.285241	0.000330	3.304970	1.119754	-0.026769
1079	5.3900e-01	-3.1218	-9.355372	0.000173	1.731678	0.586708	-0.014026
1080	5.3950e-01	-3.1283	-9.425502	0.000173	1.731678	0.586708	-0.014026
1081	5.4000e-01	-3.1619	-9.604250	0.000441	4.413667	1.495391	-0.035749
1082	5.4050e-01	-3.2293	-9.706880	0.000253	2.534163	0.858598	-0.020526
1083	5.4100e-01	-3.2919	-9.713294	0.000016	0.158385	0.053662	-0.001283
1084	5.4150e-01	-3.2935	-9.872371	0.000393	3.927952	1.330826	-0.031815
1085	5.4200e-01	-3.3256	-9.980988	0.000268	2.681989	0.908682	-0.021723
1086	5.4250e-01	-3.3737	-10.110558	0.000320	3.199380	1.083979	-0.025914
1087	5.4300e-01	-3.4138	-10.183254	0.000180	1.795032	0.608173	-0.014539
1088	5.4350e-01	-3.4796	-10.303845	0.000298	2.977641	1.008852	-0.024118
1089	5.4400e-01	-3.5149	-10.347890	0.000109	1.087578	0.368481	-0.008809
1090	5.4450e-01	-3.5550	-10.447955	0.000247	2.470809	0.837133	-0.020013
1091	5.4500e-01	-3.5710	-10.630123	0.000450	4.498139	1.524011	-0.036434
1092	5.4550e-01	-3.6304	-10.655780	0.000063	0.633541	0.214649	-0.005132
1093	5.4600e-01	-3.6673	-10.763542	0.000266	2.660871	0.901527	-0.021552
1094	5.4650e-01	-3.6865	-10.976927	0.000527	5.268946	1.785167	-0.042677
1095	5.4700e-01	-3.7218	-10.972223	-0.000012	-0.116149	-0.039352	0.000941
1096	5.4750e-01	-3.7812	-11.132155	0.000395	3.949070	1.337981	-0.031986
1097	5.4800e-01	-3.8084	-11.186036	0.000133	1.330435	0.450764	-0.010776
1098	5.4850e-01	-3.8405	-11.279686	0.000231	2.312423	0.783470	-0.018730
1099	5.4900e-01	-3.8919	-11.474683	0.000481	4.814909	1.631335	-0.038999
1100	5.4950e-01	-3.9191	-11.523432	0.000120	1.203727	0.407834	-0.009750
1101	5.5000e-01	-3.9753	-11.635898	0.000278	2.777020	0.940880	-0.022493
1102	5.5050e-01	-4.0202	-11.745797	0.000271	2.713666	0.919415	-0.021980
1103	5.5100e-01	-4.0667	-11.789415	0.000108	1.077019	0.364904	-0.008724
1104	5.5150e-01	-4.0908	-11.890762	0.000250	2.502486	0.847865	-0.020269
1105	5.5200e-01	-4.1325	-11.995103	0.000258	2.576399	0.872908	-0.020868
1106	5.5250e-01	-4.1550	-12.207205	0.000524	5.237269	1.774435	-0.042420
1107	5.5300e-01	-4.1999	-12.237994	0.000076	0.760249	0.257579	-0.006158
1108	5.5350e-01	-4.2496	-12.385097	0.000363	3.632300	1.230656	-0.029421
1109	5.5400e-01	-4.2833	-12.457793	0.000180	1.795032	0.608173	-0.014539
1110	5.5450e-01	-4.3523	-12.558713	0.000249	2.491927	0.844288	-0.020184
1111	5.5500e-01	-4.3715	-12.685718	0.000314	3.136026	1.062514	-0.025401
1112	5.5550e-01	-4.4197	-12.735322	0.000122	1.224845	0.414989	-0.009921
1113	5.5600e-01	-4.4598	-12.859333	0.000306	3.062113	1.037472	-0.024802
1114	5.5650e-01	-4.4822	-12.995318	0.000336	3.357765	1.137642	-0.027197
1115	5.5700e-01	-4.5111	-13.106928	0.000276	2.755902	0.933725	-0.022322
1116	5.5750e-01	-4.5705	-13.153967	0.000116	1.161491	0.393524	-0.009408
1117	5.5800e-01	-4.6154	-13.261301	0.000265	2.650312	0.897950	-0.021467
1118	5.5850e-01	-4.6410	-13.388306	0.000314	3.136026	1.062514	-0.025401
1119	5.5900e-01	-4.6972	-13.459292	0.000175	1.752796	0.593863	-0.014197
1120	5.5950e-01	-4.7373	-13.593994	0.000333	3.326088	1.126909	-0.026940
1121	5.6000e-01	-4.7742	-13.644881	0.000126	1.256522	0.425721	-0.010177
1122	5.6050e-01	-4.8111	-13.793695	0.000367	3.674536	1.244966	-0.029763
1123	5.6100e-01	-4.8656	-13.886062	0.000228	2.280746	0.772738	-0.018473
1124	5.6150e-01	-4.8849	-13.980995	0.000234	2.344100	0.794203	-0.018987
1125	5.6200e-01	-4.9442	-14.075072	0.000232	2.322982	0.787048	-0.018816
1126	5.6250e-01	-4.9715	-14.171715	0.000239	2.386336	0.808513	-0.019329
1127	5.6300e-01	-5.0373	-14.257240	0.000211	2.111802	0.715498	-0.017105
1128	5.6350e-01	-5.0469	-14.379114	0.000301	3.009318	1.019585	-0.024375
1129	5.6400e-01	-5.1015	-14.482599	0.000256	2.555281	0.865753	-0.020697
1130	5.6450e-01	-5.1335	-14.614308	0.000325	3.252175	1.101867	-0.026342
1131	5.6500e-01	-5.1929	-14.621577	0.000018	0.179503	0.060817	-0.001454
1132	5.6550e-01	-5.2474	-14.732760	0.000275	2.745343	0.930147	-0.022237
1133	5.6600e-01	-5.2394	-14.960256	-0.000562	-5.617394	-1.903225	-0.045499
1134	5.6650e-01	-5.2956	-14.972658	0.000031	0.306211	0.103747	-0.002480
1135	5.6700e-01	-5.3485	-15.056044	0.000206	2.059007	0.697611	-0.016677
1136	5.6750e-01	-5.3694	-15.139431	0.000206	2.059007	0.697611	-0.016677
1137	5.6800e-01	-5.4175	-15.300219	0.000397	3.970188	1.345136	-0.032157
1138	5.6850e-01	-5.4656	-15.347685	0.000117	1.172050	0.397101	-0.009493
1139	5.6900e-01	-5.4929	-15.462288	0.000283	2.829815	0.958767	-0.022921
1140	5.6950e-01	-5.5394	-15.545675	0.000206	2.059007	0.697611	-0.016677
1141	5.7000e-01	-5.6004	-15.654292	0.000268	2.681989	0.908682	-0.021723
1142	5.7050e-01	-5.6132	-15.760771	0.000263	2.629194	0.890795	-0.021296
1143	5.7100e-01	-5.6421	-15.879651	0.000294	2.935405	0.994542	-0.023776
1144	5.7150e-01	-5.6982	-15.971163	0.000226	2.259628	0.765583	-0.018302
1145	5.7200e-01	-5.7303	-16.096457	0.000309	3.093790	1.048204	-0.025059
1146	5.7250e-01	-5.7833	-16.144351	0.000118	1.182609	0.400679	-0.009579
1147	5.7300e-01	-5.8282	-16.308131	0.000404	4.044101	1.370179	-0.032756
1148	5.7350e-01	-5.8410	-16.395794	0.000216	2.164597	0.733385	-0.017533
1149	5.7400e-01	-5.8795	-16.512536	0.000288	2.882610	0.976655	-0.023348
1150	5.7450e-01	-5.9084	-16.582239	0.000172	1.721119	0.583131	-0.013941
1151	5.7500e-01	-5.9934	-16.695987	0.000281	2.808697	0.951612	-0.022750
1152	5.7550e-01	-6.0239	-16.787072	0.000225	2.249069	0.762005	-0.018217
1153	5.7600e-01	-6.0640	-16.890557	0.000256	2.555281	0.865753	-0.020697
1154	5.7650e-01	-6.0849	-16.991476	0.000249	2.491927	0.844288	-0.020184
1155	5.7700e-01	-6.1314	-17.057331	0.000163	1.626088	0.550933	-0.013171
1156	5.7750e-01	-6.1651	-17.173217	0.000286	2.861492	0.969500	-0.023177
1157	5.7800e-01	-6.2389	-17.218973	0.000113	1.129814	0.382791	-0.009151
1158	5.7850e-01	-6.2517	-17.367359	0.000366	3.663977	1.241389	-0.029677
1159	5.7900e-01	-6.2998	-17.465713	0.000243	2.428573	0.822823	-0.019671
1160	5.7950e-01	-6.3223	-17.576895	0.000275	2.745343	0.930147	-0.022237
1161	5.8000e-01	-6.3752	-17.654723	0.000192	1.921740	0.651103	-0.015566
1162	5.8050e-01	-6.4153	-17.763340	0.000268	2.681989	0.908682	-0.021723
1163	5.8100e-01	-6.3929	-17.957482	-0.000479	-4.793791	-1.624180	-0.038828
1164	5.8150e-01	-6.4923	-17.927121	-0.000075	-0.749690	-0.254002	0.006072
1165	5.8200e-01	-6.5228	-18.055836	0.000318	3.178262	1.076824	-0.025743
1166	5.8250e-01	-6.5597	-18.164025	0.000267	2.671430	0.905105	-0.021638
1167	5.8300e-01	-6.6159	-18.257675	0.000231	2.312423	0.783470	-0.018730
1168	5.8350e-01	-6.6672	-18.350470	0.000229	2.291305	0.776315	-0.018559
1169	5.8400e-01	-6.7169	-18.430436	0.000197	1.974535	0.668991	-0.015993
1170	5.8450e-01	-6.7394	-18.503132	0.000180	1.795032	0.608173	-0.014539
1171	5.8500e-01	-6.7795	-18.635268	0.000326	3.262734	1.105444	-0.026427
1172	5.8550e-01	-6.8068	-18.720365	0.000210	2.101243	0.711920	-0.017019
1173	5.8600e-01	-6.8324	-18.838818	0.000292	2.924846	0.990965	-0.023690
1174	5.8650e-01	-6.8918	-18.945724	0.000264	2.639753	0.894372	-0.021381
1175	5.8700e-01	-6.9319	-19.019703	0.000183	1.826709	0.618906	-0.014796
1176	5.8750e-01	-6.9816	-19.089406	0.000172	1.721119	0.583131	-0.013941
1177	5.8800e-01	-7.0089	-19.227957	0.000342	3.421120	1.159107	-0.027710
1178	5.8850e-01	-7.0121	-19.378053	0.000371	3.706213	1.255699	-0.030019
1179	5.8900e-01	-7.1035	-19.469137	0.000225	2.249069	0.762005	-0.018217
1180	5.8950e-01	-7.1453	-19.493084	0.000059	0.591305	0.200339	-0.004789
1181	5.9000e-01	-7.1822	-19.557228	0.000158	1.583852	0.536623	-0.012829
1182	5.9050e-01	-7.2094	-19.721009	0.000404	4.044101	1.370179	-0.032756
1183	5.9100e-01	-7.2592	-19.796698	0.000187	1.868945	0.633216	-0.015138
1184	5.9150e-01	-7.2784	-19.911729	0.000284	2.840374	0.962345	-0.023006
1185	5.9200e-01	-7.3217	-19.948078	0.000090	0.897516	0.304087	-0.007270
1186	5.9250e-01	-7.3891	-20.070378	0.000302	3.019877	1.023162	-0.024460
1187	5.9300e-01	-7.4148	-20.159325	0.000220	2.196274	0.744118	-0.017789
1188	5.9350e-01	-7.4388	-20.314125	0.000382	3.822362	1.295051	-0.030960
1189	5.9400e-01	-7.5110	-20.413334	0.000245	2.449691	0.829978	-0.019842
1190	5.9450e-01	-7.5543	-20.476622	0.000156	1.562734	0.529468	-0.012658
1191	5.9500e-01	-7.5591	-20.601061	0.000307	3.072672	1.041050	-0.024888
1192	5.9550e-01	-7.6073	-20.663495	0.000154	1.541616	0.522314	-0.012487
1193	5.9600e-01	-7.6554	-20.787506	0.000306	3.062113	1.037472	-0.024802
1194	5.9650e-01	-7.6955	-20.862768	0.000186	1.858386	0.629638	-0.015052
1195	5.9700e-01	-7.7484	-20.898261	0.000088	0.876398	0.296932	-0.007099
1196	5.9750e-01	-7.7597	-21.039377	0.000348	3.484474	1.180572	-0.028223
1197	5.9800e-01	-7.8383	-21.115495	0.000188	1.879504	0.636793	-0.015223
1198	5.9850e-01	-7.8367	-21.248058	-0.000327	-3.273293	-1.109022	-0.026513
1199	5.9900e-01	-7.9008	-21.335294	0.000215	2.154038	0.729808	-0.017447
1200	5.9950e-01	-7.9490	-21.436214	0.000249	2.491927	0.844288	-0.020184
1201	6.0000e-01	-7.9714	-21.529008	0.000229	2.291305	0.776315	-0.018559
1202	6.0050e-01	-7.9971	-21.630783	0.000251	2.513045	0.851443	-0.020355
1203	6.0100e-01	-8.0516	-21.732130	0.000250	2.502486	0.847865	-0.020269
1204	6.0150e-01	-8.0966	-21.826208	0.000232	2.322982	0.787048	-0.018816
1205	6.0200e-01	-8.1303	-21.880944	0.000135	1.351553	0.457919	-0.010947
1206	6.0250e-01	-8.1688	-21.941667	0.000150	1.499380	0.508004	-0.012145
1207	6.0300e-01	-8.2137	-22.072948	0.000324	3.241616	1.098289	-0.026256
1208	6.0350e-01	-8.2666	-22.170446	0.000241	2.407454	0.815668	-0.019500
1209	6.0400e-01	-8.3115	-22.290609	0.000297	2.967082	1.005275	-0.024033
1210	6.0450e-01	-8.3436	-22.404785	0.000282	2.819256	0.955190	-0.022835
1211	6.0500e-01	-8.3645	-22.470211	0.000162	1.615529	0.547356	-0.013085
1212	6.0550e-01	-8.4142	-22.590802	0.000298	2.977641	1.008852	-0.024118
1213	6.0600e-01	-8.4511	-22.707116	0.000287	2.872051	0.973077	-0.023263
1214	6.0650e-01	-8.4784	-22.816588	0.000270	2.703107	0.915837	-0.021894
1215	6.0700e-01	-8.5409	-22.879449	0.000155	1.552175	0.525891	-0.012572
1216	6.0750e-01	-8.5570	-22.935895	0.000139	1.393789	0.472229	-0.011289
1217	6.0800e-01	-8.6003	-23.069315	0.000329	3.294411	1.116177	-0.026684
1218	6.0850e-01	-8.6613	-23.133031	0.000157	1.573293	0.533046	-0.012743
1219	6.0900e-01	-8.6965	-23.233523	0.000248	2.481368	0.840710	-0.020098
1220	6.0950e-01	-8.7383	-23.326317	0.000229	2.291305	0.776315	-0.018559
1221	6.1000e-01	-8.7768	-23.405428	0.000195	1.953417	0.661836	-0.015822
1222	6.1050e-01	-8.8329	-23.511479	0.000262	2.618635	0.887217	-0.021210
1223	6.1100e-01	-8.8506	-23.669273	0.000390	3.896275	1.320094	-0.031559
1224	6.1150e-01	-8.8874	-23.698351	0.000072	0.718013	0.243269	-0.005816
1225	6.1200e-01	-8.9420	-23.803975	0.000261	2.608076	0.883640	-0.021125
1226	6.1250e-01	-8.9789	-23.864270	0.000149	1.488821	0.504426	-0.012059
1227	6.1300e-01	-9.0415	-23.966900	0.000253	2.534163	0.858598	-0.020526
1228	6.1350e-01	-9.0399	-24.058839	-0.000227	-2.270187	-0.769160	-0.018388
1229	6.1400e-01	-9.1056	-24.164463	0.000261	2.608076	0.883640	-0.021125
1230	6.1450e-01	-9.1457	-24.217916	0.000132	1.319876	0.447186	-0.010691
1231	6.1500e-01	-9.1586	-24.377848	0.000395	3.949070	1.337981	-0.031986
1232	6.1550e-01	-9.2067	-24.411203	0.000082	0.823603	0.279044	-0.006671
1233	6.1600e-01	-9.2693	-24.529227	0.000291	2.914287	0.987387	-0.023605
1234	6.1650e-01	-9.3126	-24.592088	0.000155	1.552175	0.525891	-0.012572
1235	6.1700e-01	-9.3479	-24.710540	0.000292	2.924846	0.990965	-0.023690
1236	6.1750e-01	-9.3495	-24.826854	0.000287	2.872051	0.973077	-0.023263
1237	6.1800e-01	-9.4297	-24.842249	0.000038	0.380124	0.128790	-0.003079
1238	6.1850e-01	-9.4553	-25.012016	0.000419	4.191927	1.420263	-0.033953
1239	6.1900e-01	-9.5051	-25.062904	0.000126	1.256522	0.425721	-0.010177
1240	6.1950e-01	-9.5420	-25.183494	0.000298	2.977641	1.008852	-0.024118
1241	6.2000e-01	-9.5676	-25.298953	0.000285	2.850933	0.965922	-0.023092
1242	6.2050e-01	-9.6158	-25.329742	0.000076	0.760249	0.257579	-0.006158
1243	6.2100e-01	-9.6430	-25.505068	0.000433	4.329194	1.466771	-0.035065
1244	6.2150e-01	-9.6783	-25.566218	0.000151	1.509939	0.511581	-0.012230
1245	6.2200e-01	-9.7409	-25.672270	0.000262	2.618635	0.887217	-0.021210
1246	6.2250e-01	-9.7714	-25.727433	0.000136	1.362112	0.461496	-0.011033
1247	6.2300e-01	-9.8115	-25.837333	0.000271	2.713666	0.919415	-0.021980
1248	6.2350e-01	-9.8596	-25.920292	0.000205	2.048448	0.694033	-0.016592
1249	6.2400e-01	-9.8821	-26.036606	0.000287	2.872051	0.973077	-0.023263
1250	6.2450e-01	-9.9350	-26.084073	0.000117	1.172050	0.397101	-0.009493
1251	6.2500e-01	-9.9847	-26.211077	0.000314	3.136026	1.062514	-0.025401
1252	6.2550e-01	-9.9928	-26.339365	0.000317	3.167703	1.073247	-0.025658
1253	6.2600e-01	-10.0537	-26.391108	0.000128	1.277640	0.432876	-0.010349
1254	6.2650e-01	-10.0746	-26.495876	0.000259	2.586958	0.876485	-0.020954
1255	6.2700e-01	-10.1195	-26.547191	0.000127	1.267081	0.429299	-0.010263
1256	6.2750e-01	-10.1789	-26.646400	0.000245	2.449691	0.829978	-0.019842
1257	6.2800e-01	-10.2238	-26.743471	0.000240	2.396895	0.812090	-0.019414
1258	6.2850e-01	-10.2655	-26.839687	0.000238	2.375777	0.804935	-0.019243
1259	6.2900e-01	-10.2912	-26.912383	0.000180	1.795032	0.608173	-0.014539
1260	6.2950e-01	-10.3056	-27.063335	0.000373	3.727331	1.262854	-0.030190
1261	6.3000e-01	-10.3890	-27.089847	0.000065	0.654659	0.221804	-0.005303
1262	6.3050e-01	-10.4275	-27.216852	0.000314	3.136026	1.062514	-0.025401
1263	6.3100e-01	-10.4307	-27.284844	0.000168	1.678883	0.568821	-0.013598
1264	6.3150e-01	-10.4917	-27.380205	0.000235	2.354659	0.797780	-0.019072
1265	6.3200e-01	-10.5302	-27.488822	0.000268	2.681989	0.908682	-0.021723
1266	6.3250e-01	-10.5735	-27.531157	0.000105	1.045342	0.354171	-0.008467
1267	6.3300e-01	-10.6136	-27.611123	0.000197	1.974535	0.668991	-0.015993
1268	6.3350e-01	-10.6537	-27.764212	0.000378	3.780126	1.280741	-0.030618
1269	6.3400e-01	-10.6698	-27.850165	0.000212	2.122361	0.719075	-0.017191
1270	6.3450e-01	-10.7339	-27.923289	0.000181	1.805591	0.611751	-0.014625
1271	6.3500e-01	-10.7628	-27.985722	0.000154	1.541616	0.522314	-0.012487
1272	6.3550e-01	-10.8206	-28.075096	0.000221	2.206833	0.747695	-0.017875
1273	6.3600e-01	-10.8735	-28.153351	0.000193	1.932299	0.654681	-0.015651
1274	6.3650e-01	-10.8976	-28.296606	0.000354	3.537269	1.198459	-0.028651
1275	6.3700e-01	-10.9232	-28.374861	0.000193	1.932299	0.654681	-0.015651
1276	6.3750e-01	-10.9681	-28.433446	0.000145	1.446585	0.490116	-0.011717
1277	6.3800e-01	-11.0291	-28.585253	0.000375	3.748449	1.270009	-0.030361
1278	6.3850e-01	-11.0532	-28.652390	0.000166	1.657765	0.561666	-0.013427
1279	6.3900e-01	-11.0981	-28.720383	0.000168	1.678883	0.568821	-0.013598
1280	6.3950e-01	-11.1494	-28.809329	0.000220	2.196274	0.744118	-0.017789
1281	6.4000e-01	-11.1815	-28.890150	0.000200	1.995653	0.676146	-0.016164
1282	6.4050e-01	-11.1943	-28.996628	0.000263	2.629194	0.890795	-0.021296
1283	6.4100e-01	-11.2360	-29.112087	0.000285	2.850933	0.965922	-0.023092
1284	6.4150e-01	-11.2794	-29.232678	0.000298	2.977641	1.008852	-0.024118
1285	6.4200e-01	-11.3499	-29.247644	0.000037	0.369565	0.125212	-0.002993
1286	6.4250e-01	-11.3772	-29.320341	0.000180	1.795032	0.608173	-0.014539
1287	6.4300e-01	-11.4061	-29.447773	0.000315	3.146585	1.066092	-0.025486
1288	6.4350e-01	-11.4414	-29.554252	0.000263	2.629194	0.890795	-0.021296
1289	6.4400e-01	-11.4975	-29.610698	0.000139	1.393789	0.472229	-0.011289
1290	6.4450e-01	-11.5392	-29.669711	0.000146	1.457144	0.493694	-0.011802
1291	6.4500e-01	-11.5761	-29.771058	0.000250	2.502486	0.847865	-0.020269
1292	6.4550e-01	-11.6227	-29.819807	0.000120	1.203727	0.407834	-0.009750
1293	6.4600e-01	-11.6708	-29.966910	0.000363	3.632300	1.230656	-0.029421
1294	6.4650e-01	-11.7189	-30.050725	0.000207	2.069566	0.701188	-0.016763
1295	6.4700e-01	-11.7494	-30.143519	0.000229	2.291305	0.776315	-0.018559
1296	6.4750e-01	-11.7542	-30.264537	0.000299	2.988200	1.012430	-0.024204
1297	6.4800e-01	-11.7975	-30.312431	0.000118	1.182609	0.400679	-0.009579
1298	6.4850e-01	-11.8408	-30.416344	0.000257	2.565840	0.869330	-0.020783
1299	6.4900e-01	-11.8986	-30.518119	0.000251	2.513045	0.851443	-0.020355
1300	6.4950e-01	-11.9323	-30.590815	0.000180	1.795032	0.608173	-0.014539
1301	6.5000e-01	-11.9820	-30.667360	0.000189	1.890063	0.640371	-0.015309
1302	6.5050e-01	-12.0013	-30.783247	0.000286	2.861492	0.969500	-0.023177
1303	6.5100e-01	-12.0574	-30.845252	0.000153	1.531057	0.518736	-0.012401
1304	6.5150e-01	-12.0670	-30.994921	0.000370	3.695654	1.252121	-0.029934
1305	6.5200e-01	-12.1344	-31.029131	0.000084	0.844721	0.286199	-0.006842
1306	6.5250e-01	-12.1825	-31.144163	0.000284	2.840374	0.962345	-0.023006
1307	6.5300e-01	-12.2098	-31.179655	0.000088	0.876398	0.296932	-0.007099
1308	6.5350e-01	-12.2355	-31.299391	0.000296	2.956523	1.001697	-0.023947
1309	6.5400e-01	-12.2964	-31.405014	0.000261	2.608076	0.883640	-0.021125
1310	6.5450e-01	-12.3125	-31.405014	-0.000000	-0.000000	-0.000000	0.000000
1311	6.5500e-01	-12.3686	-31.567939	0.000402	4.022983	1.363024	-0.032585
1312	6.5550e-01	-12.4055	-31.664155	0.000238	2.375777	0.804935	-0.019243
1313	6.5600e-01	-12.4569	-31.713759	0.000122	1.224845	0.414989	-0.009921
1314	6.5650e-01	-12.4825	-31.836916	0.000304	3.040995	1.030317	-0.024631
1315	6.5700e-01	-12.5627	-31.876685	0.000098	0.981988	0.332707	-0.007954
1316	6.5750e-01	-12.5724	-31.991716	0.000284	2.840374	0.962345	-0.023006
1317	6.5800e-01	-12.6157	-32.018656	0.000067	0.665218	0.225382	-0.005388
1318	6.5850e-01	-12.6510	-32.118721	0.000247	2.470809	0.837133	-0.020013
1319	6.5900e-01	-12.6959	-32.299178	0.000446	4.455903	1.509701	-0.036092
1320	6.5950e-01	-12.7328	-32.327402	0.000070	0.696895	0.236114	-0.005645
1321	6.6000e-01	-12.7617	-32.424045	0.000239	2.386336	0.808513	-0.019329
1322	6.6050e-01	-12.8162	-32.502300	0.000193	1.932299	0.654681	-0.015651
1323	6.6100e-01	-12.8611	-32.607069	0.000259	2.586958	0.876485	-0.020954
1324	6.6150e-01	-12.8611	-32.772560	0.000409	4.086337	1.384489	-0.033098
1325	6.6200e-01	-12.9494	-32.740060	-0.000080	-0.802485	-0.271889	0.006500
1326	6.6250e-01	-12.9574	-32.842690	0.000253	2.534163	0.858598	-0.020526
1327	6.6300e-01	-13.0312	-32.931209	0.000219	2.185715	0.740540	-0.017704
1328	6.6350e-01	-13.0472	-33.068904	0.000340	3.400002	1.151952	-0.027539
1329	6.6400e-01	-13.0937	-33.112522	0.000108	1.077019	0.364904	-0.008724
1330	6.6450e-01	-13.1274	-33.191205	0.000194	1.942858	0.658258	-0.015737
1331	6.6500e-01	-13.1836	-33.289986	0.000244	2.439132	0.826400	-0.019756
1332	6.6550e-01	-13.2125	-33.328900	0.000096	0.960870	0.325552	-0.007783
1333	6.6600e-01	-13.2847	-33.412287	0.000206	2.059007	0.697611	-0.016677
1334	6.6650e-01	-13.3039	-33.508075	0.000237	2.365218	0.801358	-0.019158
1335	6.6700e-01	-13.3360	-33.620968	0.000279	2.787579	0.944457	-0.022579
1336	6.6750e-01	-13.3488	-33.727019	0.000262	2.618635	0.887217	-0.021210
1337	6.6800e-01	-13.4114	-33.788597	0.000152	1.520498	0.515159	-0.012316
1338	6.6850e-01	-13.4579	-33.866425	0.000192	1.921740	0.651103	-0.015566
1339	6.6900e-01	-13.5157	-33.920733	0.000134	1.340994	0.454341	-0.010862
1340	6.6950e-01	-13.5253	-34.005831	0.000210	2.101243	0.711920	-0.017019
1341	6.7000e-01	-13.5814	-34.164908	0.000393	3.927952	1.330826	-0.031815
1342	6.7050e-01	-13.6247	-34.220071	0.000136	1.362112	0.461496	-0.011033
1343	6.7100e-01	-13.6408	-34.289774	0.000172	1.721119	0.583131	-0.013941
1344	6.7150e-01	-13.6905	-34.372306	0.000204	2.037889	0.690456	-0.016506
1345	6.7200e-01	-13.7467	-34.468949	0.000239	2.386336	0.808513	-0.019329
1346	6.7250e-01	-13.7772	-34.566020	0.000240	2.396895	0.812090	-0.019414
1347	6.7300e-01	-13.8173	-34.606644	0.000100	1.003106	0.339862	-0.008125
1348	6.7350e-01	-13.8542	-34.706709	0.000247	2.470809	0.837133	-0.020013
1349	6.7400e-01	-13.9199	-34.778977	0.000178	1.784473	0.604596	-0.014454
1350	6.7450e-01	-13.9376	-34.893581	0.000283	2.829815	0.958767	-0.022921
1351	6.7500e-01	-13.9520	-34.988086	0.000233	2.333541	0.790625	-0.018901
1352	6.7550e-01	-14.0146	-35.061638	0.000182	1.816150	0.615328	-0.014710
1353	6.7600e-01	-14.0418	-35.151011	0.000221	2.206833	0.747695	-0.017875
1354	6.7650e-01	-14.1028	-35.252359	0.000250	2.502486	0.847865	-0.020269
1355	6.7700e-01	-14.1638	-35.318213	0.000163	1.626088	0.550933	-0.013171
1356	6.7750e-01	-14.1638	-35.414001	0.000237	2.365218	0.801358	-0.019158
1357	6.7800e-01	-14.1959	-35.495677	0.000202	2.016771	0.683301	-0.016335
1358	6.7850e-01	-14.2408	-35.622254	0.000313	3.125467	1.058937	-0.025315
1359	6.7900e-01	-14.2825	-35.669721	0.000117	1.172050	0.397101	-0.009493
1360	6.7950e-01	-14.3210	-35.753108	0.000206	2.059007	0.697611	-0.016677
1361	6.8000e-01	-14.3563	-35.801002	0.000118	1.182609	0.400679	-0.009579
1362	6.8050e-01	-14.4124	-35.895507	0.000233	2.333541	0.790625	-0.018901
1363	6.8100e-01	-14.4622	-36.007972	0.000278	2.777020	0.940880	-0.022493
1364	6.8150e-01	-14.4798	-36.077248	0.000171	1.710560	0.579553	-0.013855
1365	6.8200e-01	-14.5327	-36.183299	0.000262	2.618635	0.887217	-0.021210
1366	6.8250e-01	-14.5825	-36.224351	0.000101	1.013665	0.343439	-0.008210
1367	6.8300e-01	-14.6049	-36.305600	0.000201	2.006212	0.679723	-0.016250
1368	6.8350e-01	-14.6226	-36.427900	0.000302	3.019877	1.023162	-0.024460
1369	6.8400e-01	-14.6835	-36.516419	0.000219	2.185715	0.740540	-0.017704
1370	6.8450e-01	-14.7076	-36.563885	0.000117	1.172050	0.397101	-0.009493
1371	6.8500e-01	-14.7814	-36.678061	0.000282	2.819256	0.955190	-0.022835
1372	6.8550e-01	-14.8359	-36.739212	0.000151	1.509939	0.511581	-0.012230
1373	6.8600e-01	-14.8728	-36.869210	0.000321	3.209939	1.087557	-0.026000
1374	6.8650e-01	-14.8793	-36.952169	0.000205	2.048448	0.694033	-0.016592
1375	6.8700e-01	-14.9306	-37.008616	0.000139	1.393789	0.472229	-0.011289
1376	6.8750e-01	-14.9867	-37.032135	0.000058	0.580746	0.196762	-0.004704
1377	6.8800e-01	-15.0285	-37.135620	0.000256	2.555281	0.865753	-0.020697
1378	6.8850e-01	-15.0541	-37.222856	0.000215	2.154038	0.729808	-0.017447
1379	6.8900e-01	-15.0862	-37.304960	0.000203	2.027330	0.686878	-0.016421
1380	6.8950e-01	-15.1552	-37.406735	0.000251	2.513045	0.851443	-0.020355
1381	6.9000e-01	-15.1616	-37.476438	0.000172	1.721119	0.583131	-0.013941
1382	6.9050e-01	-15.2194	-37.553410	0.000190	1.900622	0.643948	-0.015395
1383	6.9100e-01	-15.2611	-37.644922	0.000226	2.259628	0.765583	-0.018302
1384	6.9150e-01	-15.2964	-37.758670	0.000281	2.808697	0.951612	-0.022750
1385	6.9200e-01	-15.3413	-37.810413	0.000128	1.277640	0.432876	-0.010349
1386	6.9250e-01	-15.4151	-37.886958	0.000189	1.890063	0.640371	-0.015309
1387	6.9300e-01	-15.4311	-37.969490	0.000204	2.037889	0.690456	-0.016506
1388	6.9350e-01	-15.4760	-38.093501	0.000306	3.062113	1.037472	-0.024802
1389	6.9400e-01	-15.4760	-38.157645	0.000158	1.583852	0.536623	-0.012829
1390	6.9450e-01	-15.5386	-38.243597	0.000212	2.122361	0.719075	-0.017191
1391	6.9500e-01	-15.5546	-38.288926	0.000112	1.119255	0.379214	-0.009066
1392	6.9550e-01	-15.5980	-38.387707	0.000244	2.439132	0.826400	-0.019756
1393	6.9600e-01	-15.6685	-38.485633	0.000242	2.418014	0.819245	-0.019585
1394	6.9650e-01	-15.7022	-38.526258	0.000100	1.003106	0.339862	-0.008125
1395	6.9700e-01	-15.7327	-38.638723	0.000278	2.777020	0.940880	-0.022493
1396	6.9750e-01	-15.7407	-38.737505	0.000244	2.439132	0.826400	-0.019756
1397	6.9800e-01	-15.8258	-38.781978	0.000110	1.098137	0.372059	-0.008895
1398	6.9850e-01	-15.8418	-38.873489	0.000226	2.259628	0.765583	-0.018302
1399	6.9900e-01	-15.8931	-38.950890	0.000191	1.911181	0.647526	-0.015480
1400	6.9950e-01	-15.9252	-39.068914	0.000291	2.914287	0.987387	-0.023605
1401	7.0000e-01	-15.9766	-39.162136	0.000230	2.301864	0.779893	-0.018644
1402	7.0050e-01	-16.0215	-39.172827	0.000026	0.263975	0.089437	-0.002138
1403	7.0100e-01	-16.0760	-39.261346	0.000219	2.185715	0.740540	-0.017704
1404	7.0150e-01	-16.1033	-39.386640	0.000309	3.093790	1.048204	-0.025059
1405	7.0200e-01	-16.1225	-39.450784	0.000158	1.583852	0.536623	-0.012829
1406	7.0250e-01	-16.1578	-39.535026	0.000208	2.080125	0.704765	-0.016848
1407	7.0300e-01	-16.1771	-39.635945	0.000249	2.491927	0.844288	-0.020184
1408	7.0350e-01	-16.2541	-39.714628	0.000194	1.942858	0.658258	-0.015737
1409	7.0400e-01	-16.2894	-39.796732	0.000203	2.027330	0.686878	-0.016421
1410	7.0450e-01	-16.3183	-39.874133	0.000191	1.911181	0.647526	-0.015480
1411	7.0500e-01	-16.3856	-39.972486	0.000243	2.428573	0.822823	-0.019671
1412	7.0550e-01	-16.4177	-40.007979	0.000088	0.876398	0.296932	-0.007099
1413	7.0600e-01	-16.4450	-40.132846	0.000308	3.083231	1.044627	-0.024973
1414	7.0650e-01	-16.4963	-40.172615	0.000098	0.981988	0.332707	-0.007954
1415	7.0700e-01	-16.5509	-40.275673	0.000254	2.544722	0.862175	-0.020612
1416	7.0750e-01	-16.5846	-40.309883	0.000084	0.844721	0.286199	-0.006842
1417	7.0800e-01	-16.6215	-40.402250	0.000228	2.280746	0.772738	-0.018473
1418	7.0850e-01	-16.6584	-40.536952	0.000333	3.326088	1.126909	-0.026940
1419	7.0900e-01	-16.6904	-40.599813	0.000155	1.552175	0.525891	-0.012572
1420	7.0950e-01	-16.7370	-40.694318	0.000233	2.333541	0.790625	-0.018901
1421	7.1000e-01	-16.7706	-40.766159	0.000177	1.773914	0.601018	-0.014368
1422	7.1050e-01	-16.8092	-40.882473	0.000287	2.872051	0.973077	-0.023263
1423	7.1100e-01	-16.8589	-40.874776	-0.000019	-0.190062	-0.064395	0.001539
1424	7.1150e-01	-16.9022	-41.035135	0.000396	3.959629	1.341559	-0.032072
1425	7.1200e-01	-16.9182	-41.133489	0.000243	2.428573	0.822823	-0.019671
1426	7.1250e-01	-16.9808	-41.192501	0.000146	1.457144	0.493694	-0.011802
1427	7.1300e-01	-17.0049	-41.240395	0.000118	1.182609	0.400679	-0.009579
1428	7.1350e-01	-17.0305	-41.363124	0.000303	3.030436	1.026740	-0.024546
1429	7.1400e-01	-17.0883	-41.433682	0.000174	1.742237	0.590286	-0.014112
1430	7.1450e-01	-17.1332	-41.538450	0.000259	2.586958	0.876485	-0.020954
1431	7.1500e-01	-17.1653	-41.610719	0.000178	1.784473	0.604596	-0.014454
1432	7.1550e-01	-17.2102	-41.706507	0.000237	2.365218	0.801358	-0.019158
1433	7.1600e-01	-17.2648	-41.705224	-0.000003	-0.031677	-0.010732	0.000257
1434	7.1650e-01	-17.2648	-41.846768	0.000350	3.495033	1.184149	-0.028309
1435	7.1700e-01	-17.3514	-41.889103	0.000105	1.045342	0.354171	-0.008467
1436	7.1750e-01	-17.3706	-41.952391	0.000156	1.562734	0.529468	-0.012658
1437	7.1800e-01	-17.3819	-42.085383	0.000328	3.283852	1.112599	-0.026598
1438	7.1850e-01	-17.4685	-42.158934	0.000182	1.816150	0.615328	-0.014710
1439	7.1900e-01	-17.4990	-42.212815	0.000133	1.330435	0.450764	-0.010776
1440	7.1950e-01	-17.5118	-42.339392	0.000313	3.125467	1.058937	-0.025315
1441	7.2000e-01	-17.5904	-42.371037	0.000078	0.781367	0.264734	-0.006329
1442	7.2050e-01	-17.6113	-42.498469	0.000315	3.146585	1.066092	-0.025486
1443	7.2100e-01	-17.6658	-42.569455	0.000175	1.752796	0.593863	-0.014197
1444	7.2150e-01	-17.7123	-42.647282	0.000192	1.921740	0.651103	-0.015566
1445	7.2200e-01	-17.7171	-42.746064	0.000244	2.439132	0.826400	-0.019756
1446	7.2250e-01	-17.7540	-42.777281	0.000077	0.770808	0.261157	-0.006243
1447	7.2300e-01	-17.8182	-42.862378	0.000210	2.101243	0.711920	-0.017019
1448	7.2350e-01	-17.8647	-42.979120	0.000288	2.882610	0.976655	-0.023348
1449	7.2400e-01	-17.9000	-43.022310	0.000107	1.066460	0.361326	-0.008638
1450	7.2450e-01	-17.9209	-43.147176	0.000308	3.083231	1.044627	-0.024973
1451	7.2500e-01	-17.9915	-43.235695	0.000219	2.185715	0.740540	-0.017704
1452	7.2550e-01	-18.0155	-43.307108	0.000176	1.763355	0.597441	-0.014283
1453	7.2600e-01	-18.0444	-43.400331	0.000230	2.301864	0.779893	-0.018644
1454	7.2650e-01	-18.0845	-43.440955	0.000100	1.003106	0.339862	-0.008125
1455	7.2700e-01	-18.1230	-43.558124	0.000289	2.893169	0.980232	-0.023434
1456	7.2750e-01	-18.1760	-43.626972	0.000170	1.700001	0.575976	-0.013770
1457	7.2800e-01	-18.2449	-43.643222	0.000040	0.401242	0.135945	-0.003250
1458	7.2850e-01	-18.2642	-43.730030	0.000214	2.143479	0.726230	-0.017362
1459	7.2900e-01	-18.3171	-43.854469	0.000307	3.072672	1.041050	-0.024888
1460	7.2950e-01	-18.3380	-43.997295	0.000353	3.526710	1.194882	-0.028565
1461	7.3000e-01	-18.3765	-44.061867	0.000159	1.594411	0.540201	-0.012914
1462	7.3050e-01	-18.3941	-44.121734	0.000148	1.478262	0.500849	-0.011974
1463	7.3100e-01	-18.4503	-44.201273	0.000196	1.963976	0.665413	-0.015908
1464	7.3150e-01	-18.4984	-44.223082	0.000054	0.538510	0.182452	-0.004362
1465	7.3200e-01	-18.5417	-44.400546	0.000438	4.381990	1.484658	-0.035493
1466	7.3250e-01	-18.5786	-44.490775	0.000223	2.227951	0.754850	-0.018046
1467	7.3300e-01	-18.6059	-44.522847	0.000079	0.791926	0.268312	-0.006414
1468	7.3350e-01	-18.6460	-44.672088	0.000369	3.685095	1.248544	-0.029848
1469	7.3400e-01	-18.6781	-44.755047	0.000205	2.048448	0.694033	-0.016592
1470	7.3450e-01	-18.7487	-44.736660	-0.000045	-0.454037	-0.153832	0.003678
1471	7.3500e-01	-18.7936	-44.839717	0.000254	2.544722	0.862175	-0.020612
1472	7.3550e-01	-18.8193	-44.946196	0.000263	2.629194	0.890795	-0.021296
1473	7.3600e-01	-18.8626	-44.993235	0.000116	1.161491	0.393524	-0.009408
1474	7.3650e-01	-18.8930	-45.114253	0.000299	2.988200	1.012430	-0.024204
1475	7.3700e-01	-18.9348	-45.173693	0.000147	1.467703	0.497271	-0.011888
1476	7.3750e-01	-18.9620	-45.301553	0.000316	3.157144	1.069669	-0.025572
1477	7.3800e-01	-19.0037	-45.374249	0.000180	1.795032	0.608173	-0.014539
1478	7.3850e-01	-19.0727	-45.463195	0.000220	2.196274	0.744118	-0.017789
1479	7.3900e-01	-19.0984	-45.529477	0.000164	1.636647	0.554511	-0.013256
1480	7.3950e-01	-19.1353	-45.591482	0.000153	1.531057	0.518736	-0.012401
1481	7.4000e-01	-19.1802	-45.701382	0.000271	2.713666	0.919415	-0.021980
1482	7.4050e-01	-19.2428	-45.785624	0.000208	2.080125	0.704765	-0.016848
1483	7.4100e-01	-19.2524	-45.840788	0.000136	1.362112	0.461496	-0.011033
1484	7.4150e-01	-19.2668	-46.004568	0.000404	4.044101	1.370179	-0.032756
1485	7.4200e-01	-19.3278	-46.092232	0.000216	2.164597	0.733385	-0.017533
1486	7.4250e-01	-19.3839	-46.120883	0.000071	0.707454	0.239692	-0.005730
1487	7.4300e-01	-19.3920	-46.227361	0.000263	2.629194	0.890795	-0.021296
1488	7.4350e-01	-19.4305	-46.286801	0.000147	1.467703	0.497271	-0.011888
1489	7.4400e-01	-19.4770	-46.388148	0.000250	2.502486	0.847865	-0.020269
1490	7.4450e-01	-19.5396	-46.442457	0.000134	1.340994	0.454341	-0.010862
1491	7.4500e-01	-19.5829	-46.529692	0.000215	2.154038	0.729808	-0.017447
1492	7.4550e-01	-19.6085	-46.680216	0.000372	3.716772	1.259276	-0.030105
1493	7.4600e-01	-19.6631	-46.705874	0.000063	0.633541	0.214649	-0.005132
1494	7.4650e-01	-19.6920	-46.815346	0.000270	2.703107	0.915837	-0.021894
1495	7.4700e-01	-19.7417	-46.944916	0.000320	3.199380	1.083979	-0.025914
1496	7.4750e-01	-19.7818	-46.943206	-0.000004	-0.042236	-0.014310	0.000342
1497	7.4800e-01	-19.8235	-47.079191	0.000336	3.357765	1.137642	-0.027197
1498	7.4850e-01	-19.8315	-47.166426	0.000215	2.154038	0.729808	-0.017447
1499	7.4900e-01	-19.9021	-47.227149	0.000150	1.499380	0.508004	-0.012145
1500	7.4950e-01	-19.9358	-47.359285	0.000326	3.262734	1.105444	-0.026427
1501	7.5000e-01	-19.9711	-47.401193	0.000103	1.034783	0.350594	-0.008381
1502	7.5050e-01	-19.8700	-47.415732	-0.000036	-0.359006	-0.121635	-0.002908
1503	7.5100e-01	-19.8588	-47.374680	0.000101	1.013665	0.343439	0.008210
1504	7.5150e-01	-19.8299	-47.319516	0.000136	1.362112	0.461496	0.011033
1505	7.5200e-01	-19.7722	-47.228432	0.000225	2.249069	0.762005	0.018217
1506	7.5250e-01	-19.7706	-47.182676	0.000113	1.129814	0.382791	0.009151
1507	7.5300e-01	-19.7353	-47.067645	0.000284	2.840374	0.962345	0.023006
1508	7.5350e-01	-19.6615	-47.062086	0.000014	0.137267	0.046507	0.001112
1509	7.5400e-01	-19.6502	-46.978271	0.000207	2.069566	0.701188	0.016763
1510	7.5450e-01	-19.5973	-46.923535	0.000135	1.351553	0.457919	0.010947
1511	7.5500e-01	-19.5396	-46.935081	-0.000029	-0.285093	-0.096592	-0.002309
1512	7.5550e-01	-19.5155	-46.784557	0.000372	3.716772	1.259276	0.030105
1513	7.5600e-01	-19.4561	-46.769162	0.000038	0.380124	0.128790	0.003079
1514	7.5650e-01	-19.4417	-46.690479	0.000194	1.942858	0.658258	0.015737
1515	7.5700e-01	-19.3968	-46.621204	0.000171	1.710560	0.579553	0.013855
1516	7.5750e-01	-19.3358	-46.584856	0.000090	0.897516	0.304087	0.007270
1517	7.5800e-01	-19.2925	-46.514298	0.000174	1.742237	0.590286	0.014112
1518	7.5850e-01	-19.3053	-46.389431	-0.000308	-3.083231	-1.044627	0.024973
1519	7.5900e-01	-19.2251	-46.356504	0.000081	0.813044	0.275467	0.006585
1520	7.5950e-01	-19.1738	-46.338116	0.000045	0.454037	0.153832	0.003678
1521	7.6000e-01	-19.1529	-46.219236	0.000294	2.935405	0.994542	0.023776
1522	7.6050e-01	-19.1112	-46.205125	0.000035	0.348447	0.118057	0.002822
1523	7.6100e-01	-19.0631	-46.081969	0.000304	3.040995	1.030317	0.024631
1524	7.6150e-01	-19.0455	-46.002003	0.000197	1.974535	0.668991	0.015993
1525	7.6200e-01	-18.9749	-45.946411	0.000137	1.372671	0.465074	0.011118
1526	7.6250e-01	-18.9492	-45.919471	0.000067	0.665218	0.225382	0.005388
1527	7.6300e-01	-18.9396	-45.830953	0.000219	2.185715	0.740540	0.017704
1528	7.6350e-01	-18.8754	-45.781776	0.000121	1.214286	0.411411	0.009835
1529	7.6400e-01	-18.8417	-45.694113	0.000216	2.164597	0.733385	0.017533
1530	7.6450e-01	-18.7888	-45.674014	0.000050	0.496274	0.168142	0.004020
1531	7.6500e-01	-18.7455	-45.580364	0.000231	2.312423	0.783470	0.018730
1532	7.6550e-01	-18.7310	-45.510661	0.000172	1.721119	0.583131	0.013941
1533	7.6600e-01	-18.6973	-45.414446	0.000238	2.375777	0.804935	0.019243
1534	7.6650e-01	-18.6075	-45.391781	0.000056	0.559628	0.189607	0.004533
1535	7.6700e-01	-18.5963	-45.285303	0.000263	2.629194	0.890795	0.021296
1536	7.6750e-01	-18.5578	-45.146752	0.000342	3.421120	1.159107	0.027710
1537	7.6800e-01	-18.5000	-45.147180	-0.000001	-0.010559	-0.003577	-0.000086
1538	7.6850e-01	-18.4856	-45.107838	0.000097	0.971429	0.329129	0.007868
1539	7.6900e-01	-18.4294	-45.012478	0.000235	2.354659	0.797780	0.019072
1540	7.6950e-01	-18.3765	-44.937643	0.000185	1.847827	0.626061	0.014967
1541	7.7000e-01	-18.3637	-44.898302	0.000097	0.971429	0.329129	0.007868
1542	7.7050e-01	-18.3059	-44.800803	0.000241	2.407454	0.815668	0.019500
1543	7.7100e-01	-18.2770	-44.760179	0.000100	1.003106	0.339862	0.008125
1544	7.7150e-01	-18.2289	-44.661825	0.000243	2.428573	0.822823	0.019671
1545	7.7200e-01	-18.1936	-44.581004	0.000200	1.995653	0.676146	0.016164
1546	7.7250e-01	-18.1487	-44.550215	0.000076	0.760249	0.257579	0.006158
1547	7.7300e-01	-18.0877	-44.431335	0.000294	2.935405	0.994542	0.023776
1548	7.7350e-01	-18.0877	-44.337258	-0.000232	-2.322982	-0.787048	0.018816
1549	7.7400e-01	-18.0268	-44.291502	0.000113	1.129814	0.382791	0.009151
1550	7.7450e-01	-18.0155	-44.217950	0.000182	1.816150	0.615328	0.014710
1551	7.7500e-01	-17.9658	-44.123445	0.000233	2.333541	0.790625	0.018901
1552	7.7550e-01	-17.9113	-44.054170	0.000171	1.710560	0.579553	0.013855
1553	7.7600e-01	-17.8744	-44.009697	0.000110	1.098137	0.372059	0.008895
1554	7.7650e-01	-17.8182	-43.943842	0.000163	1.626088	0.550933	0.013171
1555	7.7700e-01	-17.7942	-43.848482	0.000235	2.354659	0.797780	0.019072
1556	7.7750e-01	-17.7589	-43.808285	0.000099	0.992547	0.336284	0.008039
1557	7.7800e-01	-17.7107	-43.710787	0.000241	2.407454	0.815668	0.019500
1558	7.7850e-01	-17.6899	-43.611577	0.000245	2.449691	0.829978	0.019842
1559	7.7900e-01	-17.6113	-43.574802	0.000091	0.908075	0.307664	0.007355
1560	7.7950e-01	-17.5888	-43.519638	0.000136	1.362112	0.461496	0.011033
1561	7.8000e-01	-17.5551	-43.435823	0.000207	2.069566	0.701188	0.016763
1562	7.8050e-01	-17.5118	-43.347733	0.000218	2.175156	0.736963	0.017618
1563	7.8100e-01	-17.4813	-43.299411	0.000119	1.193168	0.404256	0.009664
1564	7.8150e-01	-17.4316	-43.182669	0.000288	2.882610	0.976655	0.023348
1565	7.8200e-01	-17.4027	-43.127506	0.000136	1.362112	0.461496	0.011033
1566	7.8250e-01	-17.3530	-43.073625	0.000133	1.330435	0.450764	0.010776
1567	7.8300e-01	-17.3081	-42.976554	0.000240	2.396895	0.812090	0.019414
1568	7.8350e-01	-17.2648	-42.934219	0.000105	1.045342	0.354171	0.008467
1569	7.8400e-01	-17.2471	-42.812773	0.000300	2.998759	1.016007	0.024289
1570	7.8450e-01	-17.1861	-42.763169	0.000122	1.224845	0.414989	0.009921
1571	7.8500e-01	-17.1412	-42.669519	0.000231	2.312423	0.783470	0.018730
1572	7.8550e-01	-17.1107	-42.622053	0.000117	1.172050	0.397101	0.009493
1573	7.8600e-01	-17.0642	-42.544652	0.000191	1.911181	0.647526	0.015480
1574	7.8650e-01	-17.0337	-42.497186	0.000117	1.172050	0.397101	0.009493
1575	7.8700e-01	-16.9936	-42.425773	0.000176	1.763355	0.597441	0.014283
1576	7.8750e-01	-16.9503	-42.315873	0.000271	2.713666	0.919415	0.021980
1577	7.8800e-01	-16.9134	-42.250446	0.000162	1.615529	0.547356	0.013085
1578	7.8850e-01	-16.8813	-42.138408	0.000277	2.766461	0.937302	0.022408
1579	7.8900e-01	-16.8268	-42.085810	0.000130	1.298758	0.440031	0.010520
1580	7.8950e-01	-16.8075	-42.015252	0.000174	1.742237	0.590286	0.014112
1581	7.9000e-01	-16.7354	-41.975911	0.000097	0.971429	0.329129	0.007868
1582	7.9050e-01	-16.7193	-41.879695	0.000238	2.375777	0.804935	0.019243
1583	7.9100e-01	-16.6616	-41.809137	0.000174	1.742237	0.590286	0.014112
1584	7.9150e-01	-16.6038	-41.765519	0.000108	1.077019	0.364904	0.008724
1585	7.9200e-01	-16.6070	-41.630390	-0.000334	-3.336647	-1.130487	0.027026
1586	7.9250e-01	-16.5621	-41.585917	0.000110	1.098137	0.372059	0.008895
1587	7.9300e-01	-16.5108	-41.480721	0.000260	2.597517	0.880062	0.021039
1588	7.9350e-01	-16.4530	-41.449932	0.000076	0.760249	0.257579	0.006158
1589	7.9400e-01	-16.4225	-41.334473	0.000285	2.850933	0.965922	0.023092
1590	7.9450e-01	-16.4289	-41.218159	-0.000287	-2.872051	-0.973077	0.023263
1591	7.9500e-01	-16.3167	-41.240823	-0.000056	-0.559628	-0.189607	-0.004533
1592	7.9550e-01	-16.3102	-41.115956	0.000308	3.083231	1.044627	0.024973
1593	7.9600e-01	-16.2701	-41.005629	0.000272	2.724225	0.922992	0.022065
1594	7.9650e-01	-16.2332	-40.952176	0.000132	1.319876	0.447186	0.010691
1595	7.9700e-01	-16.1819	-40.848691	0.000256	2.555281	0.865753	0.020697
1596	7.9750e-01	-16.1482	-40.829875	0.000046	0.464596	0.157410	0.003763
1597	7.9800e-01	-16.1097	-40.733659	0.000238	2.375777	0.804935	0.019243
1598	7.9850e-01	-16.0824	-40.621194	0.000278	2.777020	0.940880	0.022493
1599	7.9900e-01	-16.0231	-40.605799	0.000038	0.380124	0.128790	0.003079
1600	7.9950e-01	-16.0022	-40.489913	0.000286	2.861492	0.969500	0.023177
1601	8.0000e-01	-15.9637	-40.388993	0.000249	2.491927	0.844288	0.020184
1602	8.0050e-01	-15.8755	-40.402250	-0.000033	-0.327329	-0.110902	-0.002651
1603	8.0100e-01	-15.8562	-40.272679	0.000320	3.199380	1.083979	0.025914
1604	8.0150e-01	-15.8578	-40.194424	-0.000193	-1.932299	-0.654681	0.015651
1605	8.0200e-01	-15.7889	-40.131135	0.000156	1.562734	0.529468	0.012658
1606	8.0250e-01	-15.7407	-40.087518	0.000108	1.077019	0.364904	0.008724
1607	8.0300e-01	-15.7119	-39.974624	0.000279	2.787579	0.944457	0.022579
1608	8.0350e-01	-15.6782	-39.884396	0.000223	2.227951	0.754850	0.018046
1609	8.0400e-01	-15.6525	-39.802292	0.000203	2.027330	0.686878	0.016421
1610	8.0450e-01	-15.5819	-39.754397	0.000118	1.182609	0.400679	0.009579
1611	8.0500e-01	-15.5466	-39.714628	0.000098	0.981988	0.332707	0.007954
1612	8.0550e-01	-15.5226	-39.567525	0.000363	3.632300	1.230656	0.029421
1613	8.0600e-01	-15.4728	-39.486276	0.000201	2.006212	0.679723	0.016250
1614	8.0650e-01	-15.4407	-39.425554	0.000150	1.499380	0.508004	0.012145
1615	8.0700e-01	-15.3958	-39.370818	0.000135	1.351553	0.457919	0.010947
1616	8.0750e-01	-15.3477	-39.287431	0.000206	2.059007	0.697611	0.016677
1617	8.0800e-01	-15.3124	-39.241675	0.000113	1.129814	0.382791	0.009151
1618	8.0850e-01	-15.2739	-39.114242	0.000315	3.146585	1.066092	0.025486
1619	8.0900e-01	-15.2546	-39.013323	0.000249	2.491927	0.844288	0.020184
1620	8.0950e-01	-15.1760	-38.970988	0.000105	1.045342	0.354171	0.008467
1621	8.1000e-01	-15.1600	-38.899147	0.000177	1.773914	0.601018	0.014368
1622	8.1050e-01	-15.1039	-38.846549	0.000130	1.298758	0.440031	0.010520
1623	8.1100e-01	-15.0814	-38.728097	0.000292	2.924846	0.990965	0.023690
1624	8.1150e-01	-15.0509	-38.648559	0.000196	1.963976	0.665413	0.015908
1625	8.1200e-01	-14.9996	-38.547639	0.000249	2.491927	0.844288	0.020184
1626	8.1250e-01	-14.9418	-38.481785	0.000163	1.626088	0.550933	0.013171
1627	8.1300e-01	-14.8985	-38.412082	0.000172	1.721119	0.583131	0.013941
1628	8.1350e-01	-14.8793	-38.344945	0.000166	1.657765	0.561666	0.013427
1629	8.1400e-01	-14.8247	-38.225637	0.000295	2.945964	0.998120	0.023861
1630	8.1450e-01	-14.7974	-38.189717	0.000089	0.886957	0.300509	0.007184
1631	8.1500e-01	-14.7285	-38.134553	0.000136	1.362112	0.461496	0.011033
1632	8.1550e-01	-14.7269	-38.037910	0.000239	2.386336	0.808513	0.019329
1633	8.1600e-01	-14.6835	-37.939983	0.000242	2.418014	0.819245	0.019585
1634	8.1650e-01	-14.6547	-37.806564	0.000329	3.294411	1.116177	0.026684
1635	8.1700e-01	-14.5969	-37.768078	0.000095	0.950311	0.321974	0.007697
1636	8.1750e-01	-14.5408	-37.700086	0.000168	1.678883	0.568821	0.013598
1637	8.1800e-01	-14.5071	-37.658606	0.000102	1.024224	0.347017	0.008296
1638	8.1850e-01	-14.4975	-37.558542	0.000247	2.470809	0.837133	0.020013
1639	8.1900e-01	-14.4301	-37.408445	0.000371	3.706213	1.255699	0.030019
1640	8.1950e-01	-14.3819	-37.430682	-0.000055	-0.549069	-0.186029	-0.004447
1641	8.2000e-01	-14.3515	-37.295980	0.000333	3.326088	1.126909	0.026940
1642	8.2050e-01	-14.3130	-37.203185	0.000229	2.291305	0.776315	0.018559
1643	8.2100e-01	-14.2729	-37.138186	0.000160	1.604970	0.543778	0.013000
1644	8.2150e-01	-14.2055	-37.089864	0.000119	1.193168	0.404256	0.009664
1645	8.2200e-01	-14.2103	-36.976116	-0.000281	-2.808697	-0.951612	0.022750
1646	8.2250e-01	-14.1638	-36.940623	0.000088	0.876398	0.296932	0.007099
1647	8.2300e-01	-14.1237	-36.820033	0.000298	2.977641	1.008852	0.024118
1648	8.2350e-01	-14.0675	-36.753751	0.000164	1.636647	0.554511	0.013256
1649	8.2400e-01	-14.0274	-36.666515	0.000215	2.154038	0.729808	0.017447
1650	8.2450e-01	-13.9793	-36.611779	0.000135	1.351553	0.457919	0.010947
1651	8.2500e-01	-13.9360	-36.476650	0.000334	3.336647	1.130487	0.027026
1652	8.2550e-01	-13.9183	-36.403953	0.000180	1.795032	0.608173	0.014539
1653	8.2600e-01	-13.8493	-36.367605	0.000090	0.897516	0.304087	0.007270
1654	8.2650e-01	-13.8237	-36.281225	0.000213	2.132920	0.722653	0.017276
1655	8.2700e-01	-13.7852	-36.190568	0.000224	2.238510	0.758428	0.018131
1656	8.2750e-01	-13.7370	-36.128135	0.000154	1.541616	0.522314	0.012487
1657	8.2800e-01	-13.7178	-36.025077	0.000254	2.544722	0.862175	0.020612
1658	8.2850e-01	-13.6520	-35.938270	0.000214	2.143479	0.726230	0.017362
1659	8.2900e-01	-13.6328	-35.840343	0.000242	2.418014	0.819245	0.019585
1660	8.2950e-01	-13.6087	-35.752253	0.000218	2.175156	0.736963	0.017618
1661	8.3000e-01	-13.5333	-35.685971	0.000164	1.636647	0.554511	0.013256
1662	8.3050e-01	-13.4884	-35.590610	0.000235	2.354659	0.797780	0.019072
1663	8.3100e-01	-13.4675	-35.560249	0.000075	0.749690	0.254002	0.006072
1664	8.3150e-01	-13.4387	-35.472586	0.000216	2.164597	0.733385	0.017533
1665	8.3200e-01	-13.4082	-35.402027	0.000174	1.742237	0.590286	0.014112
1666	8.3250e-01	-13.3472	-35.307950	0.000232	2.322982	0.787048	0.018816
1667	8.3300e-01	-13.3183	-35.231833	0.000188	1.879504	0.636793	0.015223
1668	8.3350e-01	-13.2750	-35.147163	0.000209	2.090684	0.708343	0.016934
1669	8.3400e-01	-13.2381	-35.023579	0.000305	3.051554	1.033895	0.024717
1670	8.3450e-01	-13.1932	-34.920521	0.000254	2.544722	0.862175	0.020612
1671	8.3500e-01	-13.1724	-34.891015	0.000073	0.728572	0.246847	0.005901
1672	8.3550e-01	-13.0921	-34.828154	0.000155	1.552175	0.525891	0.012572
1673	8.3600e-01	-13.0873	-34.708419	0.000296	2.956523	1.001697	0.023947
1674	8.3650e-01	-13.0440	-34.619473	0.000220	2.196274	0.744118	0.017789
1675	8.3700e-01	-12.9911	-34.552336	0.000166	1.657765	0.561666	0.013427
1676	8.3750e-01	-12.9333	-34.496317	0.000138	1.383230	0.468651	0.011204
1677	8.3800e-01	-12.9397	-34.360760	-0.000335	-3.347206	-1.134064	0.027111
1678	8.3850e-01	-12.8900	-34.297471	0.000156	1.562734	0.529468	0.012658
1679	8.3900e-01	-12.8659	-34.159776	0.000340	3.400002	1.151952	0.027539
1680	8.3950e-01	-12.7857	-34.159348	0.000001	0.010559	0.003577	0.000086
1681	8.4000e-01	-12.7825	-34.060139	0.000245	2.449691	0.829978	0.019842
1682	8.4050e-01	-12.7328	-34.011390	0.000120	1.203727	0.407834	0.009750
1683	8.4100e-01	-12.6606	-33.878826	0.000327	3.273293	1.109022	0.026513
1684	8.4150e-01	-12.6221	-33.820669	0.000144	1.436025	0.486539	0.011631
1685	8.4200e-01	-12.6012	-33.711625	0.000269	2.692548	0.912260	0.021809
1686	8.4250e-01	-12.5644	-33.665014	0.000115	1.150932	0.389946	0.009322
1687	8.4300e-01	-12.5242	-33.544851	0.000297	2.967082	1.005275	0.024033
1688	8.4350e-01	-12.4649	-33.469589	0.000186	1.858386	0.629638	0.015052
1689	8.4400e-01	-12.4264	-33.429820	0.000098	0.981988	0.332707	0.007954
1690	8.4450e-01	-12.3943	-33.298539	0.000324	3.241616	1.098289	0.026256
1691	8.4500e-01	-12.3606	-33.246796	0.000128	1.277640	0.432876	0.010349
1692	8.4550e-01	-12.3221	-33.154429	0.000228	2.280746	0.772738	0.018473
1693	8.4600e-01	-12.2820	-33.053937	0.000248	2.481368	0.840710	0.020098
1694	8.4650e-01	-12.2194	-32.945748	0.000267	2.671430	0.905105	0.021638
1695	8.4700e-01	-12.1793	-32.923939	0.000054	0.538510	0.182452	0.004362
1696	8.4750e-01	-12.1424	-32.852953	0.000175	1.752796	0.593863	0.014197
1697	8.4800e-01	-12.1071	-32.746902	0.000262	2.618635	0.887217	0.021210
1698	8.4850e-01	-12.0767	-32.657528	0.000221	2.206833	0.747695	0.017875
1699	8.4900e-01	-12.0205	-32.583122	0.000184	1.837268	0.622483	0.014881
1700	8.4950e-01	-11.9868	-32.483913	0.000245	2.449691	0.829978	0.019842
1701	8.5000e-01	-11.9371	-32.412927	0.000175	1.752796	0.593863	0.014197
1702	8.5050e-01	-11.9082	-32.311152	0.000251	2.513045	0.851443	0.020355
1703	8.5100e-01	-11.8200	-32.263258	0.000118	1.182609	0.400679	0.009579
1704	8.5150e-01	-11.8457	-32.142240	-0.000299	-2.988200	-1.012430	0.024204
1705	8.5200e-01	-11.8039	-32.070827	0.000176	1.763355	0.597441	0.014283
1706	8.5250e-01	-11.7430	-31.943394	0.000315	3.146585	1.066092	0.025486
1707	8.5300e-01	-11.7157	-31.901915	0.000102	1.024224	0.347017	0.008296
1708	8.5350e-01	-11.6596	-31.823659	0.000193	1.932299	0.654681	0.015651
1709	8.5400e-01	-11.6387	-31.675273	0.000366	3.663977	1.241389	0.029677
1710	8.5450e-01	-11.5842	-31.665438	0.000024	0.242857	0.082282	0.001967
1711	8.5500e-01	-11.5280	-31.574781	0.000224	2.238510	0.758428	0.018131
1712	8.5550e-01	-11.5200	-31.514058	0.000150	1.499380	0.508004	0.012145
1713	8.5600e-01	-11.4831	-31.409718	0.000258	2.576399	0.872908	0.020868
1714	8.5650e-01	-11.4366	-31.285707	0.000306	3.062113	1.037472	0.024802
1715	8.5700e-01	-11.3564	-31.245510	0.000099	0.992547	0.336284	0.008039
1716	8.5750e-01	-11.3499	-31.159557	0.000212	2.122361	0.719075	0.017191
1717	8.5800e-01	-11.3243	-31.038539	0.000299	2.988200	1.012430	0.024204
1718	8.5850e-01	-11.2794	-30.953442	0.000210	2.101243	0.711920	0.017019
1719	8.5900e-01	-11.2296	-30.847818	0.000261	2.608076	0.883640	0.021125
1720	8.5950e-01	-11.1879	-30.802490	0.000112	1.119255	0.379214	0.009066
1721	8.6000e-01	-11.1751	-30.737063	0.000162	1.615529	0.547356	0.013085
1722	8.6050e-01	-11.1189	-30.608348	0.000318	3.178262	1.076824	0.025743
1723	8.6100e-01	-11.0708	-30.554895	0.000132	1.319876	0.447186	0.010691
1724	8.6150e-01	-11.0484	-30.457824	0.000240	2.396895	0.812090	0.019414
1725	8.6200e-01	-11.0082	-30.320129	0.000340	3.400002	1.151952	0.027539
1726	8.6250e-01	-10.9489	-30.275228	0.000111	1.108696	0.375636	0.008980
1727	8.6300e-01	-10.9184	-30.180295	0.000234	2.344100	0.794203	0.018987
1728	8.6350e-01	-10.8655	-30.117862	0.000154	1.541616	0.522314	0.012487
1729	8.6400e-01	-10.8173	-29.984870	0.000328	3.283852	1.112599	0.026598
1730	8.6450e-01	-10.7708	-29.947667	0.000092	0.918634	0.311242	0.007441
1731	8.6500e-01	-10.7804	-29.824511	-0.000304	-3.040995	-1.030317	0.024631
1732	8.6550e-01	-10.7034	-29.779610	0.000111	1.108696	0.375636	0.008980
1733	8.6600e-01	-10.6874	-29.679974	0.000246	2.460250	0.833555	0.019927
1734	8.6650e-01	-10.6280	-29.597442	0.000204	2.037889	0.690456	0.016506
1735	8.6700e-01	-10.5927	-29.490963	0.000263	2.629194	0.890795	0.021296
1736	8.6750e-01	-10.5526	-29.421688	0.000171	1.710560	0.579553	0.013855
1737	8.6800e-01	-10.4901	-29.326328	0.000235	2.354659	0.797780	0.019072
1738	8.6850e-01	-10.4500	-29.241658	0.000209	2.090684	0.708343	0.016934
1739	8.6900e-01	-10.4355	-29.119785	0.000301	3.009318	1.019585	0.024375
1740	8.6950e-01	-10.3922	-29.044095	0.000187	1.868945	0.633216	0.015138
1741	8.7000e-01	-10.3473	-28.950445	0.000231	2.312423	0.783470	0.018730
1742	8.7050e-01	-10.3184	-28.869624	0.000200	1.995653	0.676146	0.016164
1743	8.7100e-01	-10.2815	-28.805480	0.000158	1.583852	0.536623	0.012829
1744	8.7150e-01	-10.2655	-28.704560	0.000249	2.491927	0.844288	0.020184
1745	8.7200e-01	-10.1997	-28.605779	0.000244	2.439132	0.826400	0.019756
1746	8.7250e-01	-10.1516	-28.513840	0.000227	2.270187	0.769160	0.018388
1747	8.7300e-01	-10.1275	-28.433018	0.000200	1.995653	0.676146	0.016164
1748	8.7350e-01	-10.0441	-28.403512	0.000073	0.728572	0.246847	0.005901
1749	8.7400e-01	-10.0377	-28.271804	0.000325	3.252175	1.101867	0.026342
1750	8.7450e-01	-9.9815	-28.205949	0.000163	1.626088	0.550933	0.013171
1751	8.7500e-01	-9.9527	-28.096050	0.000271	2.713666	0.919415	0.021980
1752	8.7550e-01	-9.9398	-28.032761	0.000156	1.562734	0.529468	0.012658
1753	8.7600e-01	-9.8853	-27.916875	0.000286	2.861492	0.969500	0.023177
1754	8.7650e-01	-9.8275	-27.823652	0.000230	2.301864	0.779893	0.018644
1755	8.7700e-01	-9.7553	-27.792008	0.000078	0.781367	0.264734	0.006329
1756	8.7750e-01	-9.7634	-27.632504	-0.000394	-3.938511	-1.334404	0.031901
1757	8.7800e-01	-9.7233	-27.608557	0.000059	0.591305	0.200339	0.004789
1758	8.7850e-01	-9.6703	-27.481552	0.000314	3.136026	1.062514	0.025401
1759	8.7900e-01	-9.6430	-27.345140	0.000337	3.368324	1.141219	0.027282
1760	8.7950e-01	-9.5885	-27.284844	0.000149	1.488821	0.504426	0.012059
1761	8.8000e-01	-9.5500	-27.177083	0.000266	2.660871	0.901527	0.021552
1762	8.8050e-01	-9.5163	-27.105669	0.000176	1.763355	0.597441	0.014283
1763	8.8100e-01	-9.4890	-27.010737	0.000234	2.344100	0.794203	0.018987
1764	8.8150e-01	-9.4409	-26.932054	0.000194	1.942858	0.658258	0.015737
1765	8.8200e-01	-9.4281	-26.845673	0.000213	2.132920	0.722653	0.017276
1766	8.8250e-01	-9.3639	-26.771694	0.000183	1.826709	0.618906	0.014796
1767	8.8300e-01	-9.3029	-26.706695	0.000160	1.604970	0.543778	0.013000
1768	8.8350e-01	-9.2644	-26.586532	0.000297	2.967082	1.005275	0.024033
1769	8.8400e-01	-9.2324	-26.506139	0.000199	1.985094	0.672568	0.016079
1770	8.8450e-01	-9.2019	-26.419331	0.000214	2.143479	0.726230	0.017362
1771	8.8500e-01	-9.1457	-26.320549	0.000244	2.439132	0.826400	0.019756
1772	8.8550e-01	-9.0992	-26.220485	0.000247	2.470809	0.837133	0.020013
1773	8.8600e-01	-9.0719	-26.152065	0.000169	1.689442	0.572398	0.013684
1774	8.8650e-01	-9.0399	-26.069961	0.000203	2.027330	0.686878	0.016421
1775	8.8700e-01	-8.9917	-25.968186	0.000251	2.513045	0.851443	0.020355
1776	8.8750e-01	-8.9580	-25.886937	0.000201	2.006212	0.679723	0.016250
1777	8.8800e-01	-8.9436	-25.778748	0.000267	2.671430	0.905105	0.021638
1778	8.8850e-01	-8.8794	-25.678684	0.000247	2.470809	0.837133	0.020013
1779	8.8900e-01	-8.8377	-25.623093	0.000137	1.372671	0.465074	0.011118
1780	8.8950e-01	-8.7992	-25.504640	0.000292	2.924846	0.990965	0.023690
1781	8.9000e-01	-8.7463	-25.416550	0.000218	2.175156	0.736963	0.017618
1782	8.9050e-01	-8.7190	-25.312637	0.000257	2.565840	0.869330	0.020783
1783	8.9100e-01	-8.6773	-25.234381	0.000193	1.932299	0.654681	0.015651
1784	8.9150e-01	-8.6195	-25.139021	0.000235	2.354659	0.797780	0.019072
1785	8.9200e-01	-8.5730	-25.049647	0.000221	2.206833	0.747695	0.017875
1786	8.9250e-01	-8.5297	-24.982082	0.000167	1.668324	0.565243	0.013513
1787	8.9300e-01	-8.5105	-24.893136	0.000220	2.196274	0.744118	0.017789
1788	8.9350e-01	-8.4800	-24.774684	0.000292	2.924846	0.990965	0.023690
1789	8.9400e-01	-8.4431	-24.668205	0.000263	2.629194	0.890795	0.021296
1790	8.9450e-01	-8.4126	-24.581397	0.000214	2.143479	0.726230	0.017362
1791	8.9500e-01	-8.3452	-24.504425	0.000190	1.900622	0.643948	0.015395
1792	8.9550e-01	-8.3099	-24.411630	0.000229	2.291305	0.776315	0.018559
1793	8.9600e-01	-8.2522	-24.356039	0.000137	1.372671	0.465074	0.011118
1794	8.9650e-01	-8.2297	-24.244001	0.000277	2.766461	0.937302	0.022408
1795	8.9700e-01	-8.2057	-24.108444	0.000335	3.347206	1.134064	0.027111
1796	8.9750e-01	-8.1479	-24.020781	0.000216	2.164597	0.733385	0.017533
1797	8.9800e-01	-8.1319	-23.948512	0.000178	1.784473	0.604596	0.014454
1798	8.9850e-01	-8.0805	-23.849731	0.000244	2.439132	0.826400	0.019756
1799	8.9900e-01	-8.0420	-23.789008	0.000150	1.499380	0.508004	0.012145
1800	8.9950e-01	-8.0035	-23.681246	0.000266	2.660871	0.901527	0.021552
1801	9.0000e-01	-7.9426	-23.578189	0.000254	2.544722	0.862175	0.020612
1802	9.0050e-01	-7.9426	-23.475559	-0.000253	-2.534163	-0.858598	0.020526
1803	9.0100e-01	-7.8559	-23.409277	0.000164	1.636647	0.554511	0.013256
1804	9.0150e-01	-7.8222	-23.357106	0.000129	1.288199	0.436454	0.010434
1805	9.0200e-01	-7.7950	-23.218983	0.000341	3.410561	1.155529	0.027625
1806	9.0250e-01	-7.7661	-23.109939	0.000269	2.692548	0.912260	0.021809
1807	9.0300e-01	-7.7035	-23.043657	0.000164	1.636647	0.554511	0.013256
1808	9.0350e-01	-7.6714	-22.913231	0.000322	3.220498	1.091134	0.026085
1809	9.0400e-01	-7.6361	-22.834121	0.000195	1.953417	0.661836	0.015822
1810	9.0450e-01	-7.5768	-22.777246	0.000140	1.404348	0.475806	0.011375
1811	9.0500e-01	-7.5495	-22.663070	0.000282	2.819256	0.955190	0.022835
1812	9.0550e-01	-7.5335	-22.556592	0.000263	2.629194	0.890795	0.021296
1813	9.0600e-01	-7.4773	-22.464225	0.000228	2.280746	0.772738	0.018473
1814	9.0650e-01	-7.4436	-22.350476	0.000281	2.808697	0.951612	0.022750
1815	9.0700e-01	-7.3843	-22.286760	0.000157	1.573293	0.533046	0.012743
1816	9.0750e-01	-7.3442	-22.205939	0.000200	1.995653	0.676146	0.016164
1817	9.0800e-01	-7.3217	-22.126828	0.000195	1.953417	0.661836	0.015822
1818	9.0850e-01	-7.2848	-21.975449	0.000374	3.737890	1.266431	0.030276
1819	9.0900e-01	-7.2463	-21.854859	0.000298	2.977641	1.008852	0.024118
1820	9.0950e-01	-7.1854	-21.790287	0.000159	1.594411	0.540201	0.012914
1821	9.1000e-01	-7.1164	-21.737262	0.000131	1.309317	0.443609	0.010605
1822	9.1050e-01	-7.1068	-21.620948	0.000287	2.872051	0.973077	0.023263
1823	9.1100e-01	-7.0731	-21.514041	0.000264	2.639753	0.894372	0.021381
1824	9.1150e-01	-7.0233	-21.467430	0.000115	1.150932	0.389946	0.009322
1825	9.1200e-01	-6.9896	-21.380195	0.000215	2.154038	0.729808	0.017447
1826	9.1250e-01	-6.9656	-21.227960	0.000376	3.759008	1.273586	0.030447
1827	9.1300e-01	-6.8886	-21.189046	0.000096	0.960870	0.325552	0.007783
1828	9.1350e-01	-6.8597	-21.077436	0.000276	2.755902	0.933725	0.022322
1829	9.1400e-01	-6.8709	-20.915366	-0.000400	-4.001865	-1.355869	0.032414
1830	9.1450e-01	-6.7763	-20.867900	0.000117	1.172050	0.397101	0.009493
1831	9.1500e-01	-6.7586	-20.777243	0.000224	2.238510	0.758428	0.018131
1832	9.1550e-01	-6.7025	-20.678034	0.000245	2.449691	0.829978	0.019842
1833	9.1600e-01	-6.6720	-20.565996	0.000277	2.766461	0.937302	0.022408
1834	9.1650e-01	-6.6110	-20.496293	0.000172	1.721119	0.583131	0.013941
1835	9.1700e-01	-6.6030	-20.353466	0.000353	3.526710	1.194882	0.028565
1836	9.1750e-01	-6.5549	-20.265803	0.000216	2.164597	0.733385	0.017533
1837	9.1800e-01	-6.4939	-20.226034	0.000098	0.981988	0.332707	0.007954
1838	9.1850e-01	-6.4715	-20.102878	0.000304	3.040995	1.030317	0.024631
1839	9.1900e-01	-6.4394	-20.026761	0.000188	1.879504	0.636793	0.015223
1840	9.1950e-01	-6.4522	-19.837323	-0.000468	-4.677642	-1.584828	0.037888
1841	9.2000e-01	-6.3672	-19.850579	-0.000033	-0.327329	-0.110902	-0.002651
1842	9.2050e-01	-6.3271	-19.733410	0.000289	2.893169	0.980232	0.023434
1843	9.2100e-01	-6.2645	-19.654727	0.000194	1.942858	0.658258	0.015737
1844	9.2150e-01	-6.2276	-19.527722	0.000314	3.136026	1.062514	0.025401
1845	9.2200e-01	-6.1843	-19.464006	0.000157	1.573293	0.533046	0.012743
1846	9.2250e-01	-6.1506	-19.333580	0.000322	3.220498	1.091134	0.026085
1847	9.2300e-01	-6.1041	-19.240358	0.000230	2.301864	0.779893	0.018644
1848	9.2350e-01	-6.0736	-19.173221	0.000166	1.657765	0.561666	0.013427
1849	9.2400e-01	-6.0383	-19.073584	0.000246	2.460250	0.833555	0.019927
1850	9.2450e-01	-6.0159	-18.951711	0.000301	3.009318	1.019585	0.024375
1851	9.2500e-01	-5.9501	-18.850791	0.000249	2.491927	0.844288	0.020184
1852	9.2550e-01	-5.8923	-18.781088	0.000172	1.721119	0.583131	0.013941
1853	9.2600e-01	-5.8747	-18.669478	0.000276	2.755902	0.933725	0.022322
1854	9.2650e-01	-5.8218	-18.565565	0.000257	2.565840	0.869330	0.020783
1855	9.2700e-01	-5.7945	-18.485172	0.000199	1.985094	0.672568	0.016079
1856	9.2750e-01	-5.7415	-18.377410	0.000266	2.660871	0.901527	0.021552
1857	9.2800e-01	-5.7271	-18.252116	0.000309	3.093790	1.048204	0.025059
1858	9.2850e-01	-5.6806	-18.199090	0.000131	1.309317	0.443609	0.010605
1859	9.2900e-01	-5.6228	-18.128104	0.000175	1.752796	0.593863	0.014197
1860	9.2950e-01	-5.6036	-17.987843	0.000346	3.463356	1.173417	0.028052
1861	9.3000e-01	-5.5635	-17.874523	0.000280	2.798138	0.948035	0.022664
1862	9.3050e-01	-5.4993	-17.809951	0.000159	1.594411	0.540201	0.012914
1863	9.3100e-01	-5.4865	-17.696631	0.000280	2.798138	0.948035	0.022664
1864	9.3150e-01	-5.4416	-17.593573	0.000254	2.544722	0.862175	0.020612
1865	9.3200e-01	-5.4015	-17.529001	0.000159	1.594411	0.540201	0.012914
1866	9.3250e-01	-5.3485	-17.424661	0.000258	2.576399	0.872908	0.020868
1867	9.3300e-01	-5.3116	-17.273709	0.000373	3.727331	1.262854	0.030190
1868	9.3350e-01	-5.2635	-17.188184	0.000211	2.111802	0.715498	0.017105
1869	9.3400e-01	-5.2683	-17.120619	-0.000167	-1.668324	-0.565243	0.013513
1870	9.3450e-01	-5.1993	-17.027397	0.000230	2.301864	0.779893	0.018644
1871	9.3500e-01	-5.1448	-16.886708	0.000347	3.473915	1.176994	0.028138
1872	9.3550e-01	-5.0726	-16.823420	0.000156	1.562734	0.529468	0.012658
1873	9.3600e-01	-5.0614	-16.775098	0.000119	1.193168	0.404256	0.009664
1874	9.3650e-01	-5.0485	-16.597634	0.000438	4.381990	1.484658	0.035493
1875	9.3700e-01	-5.0116	-16.553588	0.000109	1.087578	0.368481	0.008809
1876	9.3750e-01	-4.9394	-16.423590	0.000321	3.209939	1.087557	0.026000
1877	9.3800e-01	-4.9170	-16.314973	0.000268	2.681989	0.908682	0.021723
1878	9.3850e-01	-4.8721	-16.235435	0.000196	1.963976	0.665413	0.015908
1879	9.3900e-01	-4.8528	-16.121259	0.000282	2.819256	0.955190	0.022835
1880	9.3950e-01	-4.7790	-16.045569	0.000187	1.868945	0.633216	0.015138
1881	9.4000e-01	-4.7646	-15.909585	0.000336	3.357765	1.137642	0.027197
1882	9.4050e-01	-4.7245	-15.826625	0.000205	2.048448	0.694033	0.016592
1883	9.4100e-01	-4.6667	-15.748370	0.000193	1.932299	0.654681	0.015651
1884	9.4150e-01	-4.6410	-15.633339	0.000284	2.840374	0.962345	0.023006
1885	9.4200e-01	-4.6074	-15.521728	0.000276	2.755902	0.933725	0.022322
1886	9.4250e-01	-4.5304	-15.463144	0.000145	1.446585	0.490116	0.011717
1887	9.4300e-01	-4.5079	-15.351961	0.000275	2.745343	0.930147	0.022237
1888	9.4350e-01	-4.4662	-15.194595	0.000389	3.885716	1.316516	0.031473
1889	9.4400e-01	-4.4261	-15.117623	0.000190	1.900622	0.643948	0.015395
1890	9.4450e-01	-4.4036	-15.047064	0.000174	1.742237	0.590286	0.014112
1891	9.4500e-01	-4.3523	-14.937592	0.000270	2.703107	0.915837	0.021894
1892	9.4550e-01	-4.3523	-14.817002	-0.000298	-2.977641	-1.008852	0.024118
1893	9.4600e-01	-4.2544	-14.753286	0.000157	1.573293	0.533046	0.012743
1894	9.4650e-01	-4.2416	-14.666905	0.000213	2.132920	0.722653	0.017276
1895	9.4700e-01	-4.2079	-14.484737	0.000450	4.498139	1.524011	0.036434
1896	9.4750e-01	-4.1598	-14.464639	0.000050	0.496274	0.168142	0.004020
1897	9.4800e-01	-4.1020	-14.350035	0.000283	2.829815	0.958767	0.022921
1898	9.4850e-01	-4.0748	-14.225169	0.000308	3.083231	1.044627	0.024973
1899	9.4900e-01	-4.0427	-14.089611	0.000335	3.347206	1.134064	0.027111
1900	9.4950e-01	-3.9897	-14.002376	0.000215	2.154038	0.729808	0.017447
1901	9.5000e-01	-3.9528	-13.918561	0.000207	2.069566	0.701188	0.016763
1902	9.5050e-01	-3.9207	-13.835602	0.000205	2.048448	0.694033	0.016592
1903	9.5100e-01	-3.8822	-13.725275	0.000272	2.724225	0.922992	0.022065
1904	9.5150e-01	-3.8502	-13.673104	0.000129	1.288199	0.436454	0.010434
1905	9.5200e-01	-3.8165	-13.501627	0.000423	4.234163	1.434573	0.034296
1906	9.5250e-01	-3.7427	-13.458864	0.000106	1.055901	0.357749	0.008553
1907	9.5300e-01	-3.7074	-13.341695	0.000289	2.893169	0.980232	0.023434
1908	9.5350e-01	-3.6737	-13.241203	0.000248	2.481368	0.840710	0.020098
1909	9.5400e-01	-3.6512	-13.094955	0.000361	3.611182	1.223501	0.029250
1910	9.5450e-01	-3.5951	-13.029528	0.000162	1.615529	0.547356	0.013085
1911	9.5500e-01	-3.5550	-12.896537	0.000328	3.283852	1.112599	0.026598
1912	9.5550e-01	-3.5069	-12.828544	0.000168	1.678883	0.568821	0.013598
1913	9.5600e-01	-3.4860	-12.732329	0.000238	2.375777	0.804935	0.019243
1914	9.5650e-01	-3.4250	-12.633120	0.000245	2.449691	0.829978	0.019842
1915	9.5700e-01	-3.4074	-12.504832	0.000317	3.167703	1.073247	0.025658
1916	9.5750e-01	-3.3496	-12.374406	0.000322	3.220498	1.091134	0.026085
1917	9.5800e-01	-3.3095	-12.279474	0.000234	2.344100	0.794203	0.018987
1918	9.5850e-01	-3.2630	-12.253816	0.000063	0.633541	0.214649	0.005132
1919	9.5900e-01	-3.2325	-12.119114	0.000333	3.326088	1.126909	0.026940
1920	9.5950e-01	-3.1619	-12.021616	0.000241	2.407454	0.815668	0.019500
1921	9.6000e-01	-3.1507	-11.858690	0.000402	4.022983	1.363024	0.032585
1922	9.6050e-01	-3.1106	-11.785566	0.000181	1.805591	0.611751	0.014625
1923	9.6100e-01	-3.0577	-11.700041	0.000211	2.111802	0.715498	0.017105
1924	9.6150e-01	-3.0432	-11.573464	0.000313	3.125467	1.058937	0.025315
1925	9.6200e-01	-2.9807	-11.534550	0.000096	0.960870	0.325552	0.007783
1926	9.6250e-01	-2.9614	-11.435769	0.000244	2.439132	0.826400	0.019756
1927	9.6300e-01	-2.9101	-11.263864	0.000424	4.244722	1.438151	0.034381
1928	9.6350e-01	-2.8844	-11.184753	0.000195	1.953417	0.661836	0.015822
1929	9.6400e-01	-2.8379	-11.118471	0.000164	1.636647	0.554511	0.013256
1930	9.6450e-01	-2.7689	-10.993177	0.000309	3.093790	1.048204	0.025059
1931	9.6500e-01	-2.7561	-10.862751	0.000322	3.220498	1.091134	0.026085
1932	9.6550e-01	-2.6951	-10.787061	0.000187	1.868945	0.633216	0.015138
1933	9.6600e-01	-2.6630	-10.656208	0.000323	3.231057	1.094712	0.026171
1934	9.6650e-01	-2.6374	-10.604038	0.000129	1.288199	0.436454	0.010434
1935	9.6700e-01	-2.6037	-10.496704	0.000265	2.650312	0.897950	0.021467
1936	9.6750e-01	-2.5780	-10.297430	0.000492	4.920499	1.667110	0.039855
1937	9.6800e-01	-2.5106	-10.254240	0.000107	1.066460	0.361326	0.008638
1938	9.6850e-01	-2.4497	-10.212761	0.000102	1.024224	0.347017	0.008296
1939	9.6900e-01	-2.4176	-10.042993	0.000419	4.191927	1.420263	0.033953
1940	9.6950e-01	-2.3983	-9.942929	0.000247	2.470809	0.837133	0.020013
1941	9.7000e-01	-2.3438	-9.863391	0.000196	1.963976	0.665413	0.015908
1942	9.7050e-01	-2.2941	-9.785563	0.000192	1.921740	0.651103	0.015566
1943	9.7100e-01	-2.2539	-9.664973	0.000298	2.977641	1.008852	0.024118
1944	9.7150e-01	-2.2251	-9.566619	0.000243	2.428573	0.822823	0.019671
1945	9.7200e-01	-2.2026	-9.445601	0.000299	2.988200	1.012430	0.024204
1946	9.7250e-01	-2.1529	-9.350668	0.000234	2.344100	0.794203	0.018987
1947	9.7300e-01	-2.1224	-9.280965	0.000172	1.721119	0.583131	0.013941
1948	9.7350e-01	-2.0582	-9.153105	0.000316	3.157144	1.069669	0.025572
1949	9.7400e-01	-2.0342	-9.019686	0.000329	3.294411	1.116177	0.026684
1950	9.7450e-01	-1.9909	-8.939293	0.000199	1.985094	0.672568	0.016079
1951	9.7500e-01	-1.9459	-8.837945	0.000250	2.502486	0.847865	0.020269
1952	9.7550e-01	-1.9122	-8.785347	0.000130	1.298758	0.440031	0.010520
1953	9.7600e-01	-1.8946	-8.560844	0.000554	5.543481	1.878182	0.044901
1954	9.7650e-01	-1.8272	-8.545450	0.000038	0.380124	0.128790	0.003079
1955	9.7700e-01	-1.7919	-8.454793	0.000224	2.238510	0.758428	0.018131
1956	9.7750e-01	-1.7486	-8.329499	0.000309	3.093790	1.048204	0.025059
1957	9.7800e-01	-1.7229	-8.169995	0.000394	3.938511	1.334404	0.031901
1958	9.7850e-01	-1.6764	-8.090456	0.000196	1.963976	0.665413	0.015908
1959	9.7900e-01	-1.6155	-8.002366	0.000218	2.175156	0.736963	0.017618
1960	9.7950e-01	-1.5914	-7.882631	0.000296	2.956523	1.001697	0.023947
1961	9.8000e-01	-1.5497	-7.795395	0.000215	2.154038	0.729808	0.017447
1962	9.8050e-01	-1.4984	-7.679508	0.000286	2.861492	0.969500	0.023177
1963	9.8100e-01	-1.4695	-7.576023	0.000256	2.555281	0.865753	0.020697
1964	9.8150e-01	-1.4342	-7.460992	0.000284	2.840374	0.962345	0.023006
1965	9.8200e-01	-1.3909	-7.349382	0.000276	2.755902	0.933725	0.022322
1966	9.8250e-01	-1.3315	-7.306619	0.000106	1.055901	0.357749	0.008553
1967	9.8300e-01	-1.3042	-7.153957	0.000377	3.769567	1.277164	0.030532
1968	9.8350e-01	-1.2802	-7.079123	0.000185	1.847827	0.626061	0.014967
1969	9.8400e-01	-1.2288	-6.947842	0.000324	3.241616	1.098289	0.026256
1970	9.8450e-01	-1.1663	-6.829817	0.000291	2.914287	0.987387	0.023605
1971	9.8500e-01	-1.1390	-6.775081	0.000135	1.351553	0.457919	0.010947
1972	9.8550e-01	-1.0989	-6.655774	0.000295	2.945964	0.998120	0.023861
1973	9.8600e-01	-1.0604	-6.595478	0.000149	1.488821	0.504426	0.012059
1974	9.8650e-01	-1.0235	-6.398343	0.000487	4.867704	1.649223	0.039427
1975	9.8700e-01	-1.0010	-6.328640	0.000172	1.721119	0.583131	0.013941
1976	9.8750e-01	-0.9754	-6.245253	0.000206	2.059007	0.697611	0.016677
1977	9.8800e-01	-0.9000	-6.077624	0.000414	4.139132	1.402376	0.033526
1978	9.8850e-01	-0.8759	-6.032724	0.000111	1.108696	0.375636	0.008980
1979	9.8900e-01	-0.8246	-5.964304	0.000169	1.689442	0.572398	0.013684
1980	9.8950e-01	-0.7764	-5.824898	0.000344	3.442238	1.166262	0.027881
1981	9.9000e-01	-0.7524	-5.695755	0.000319	3.188821	1.080402	0.025829
1982	9.9050e-01	-0.7043	-5.611513	0.000208	2.080125	0.704765	0.016848
1983	9.9100e-01	-0.6802	-5.469541	0.000351	3.505592	1.187727	0.028394
1984	9.9150e-01	-0.6321	-5.356220	0.000280	2.798138	0.948035	0.022664
1985	9.9200e-01	-0.5920	-5.256584	0.000246	2.460250	0.833555	0.019927
1986	9.9250e-01	-0.5326	-5.205696	0.000126	1.256522	0.425721	0.010177
1987	9.9300e-01	-0.5150	-5.070567	0.000334	3.336647	1.130487	0.027026
1988	9.9350e-01	-0.4556	-4.980338	0.000223	2.227951	0.754850	0.018046
1989	9.9400e-01	-0.4412	-4.815702	0.000407	4.065219	1.377334	0.032927
1990	9.9450e-01	-0.3946	-4.765670	0.000124	1.235404	0.418566	0.010006
1991	9.9500e-01	-0.3513	-4.654060	0.000276	2.755902	0.933725	0.022322
1992	9.9550e-01	-0.3032	-4.558699	0.000235	2.354659	0.797780	0.019072
1993	9.9600e-01	-0.2695	-4.423997	0.000333	3.326088	1.126909	0.026940
1994	9.9650e-01	-0.2198	-4.370544	0.000132	1.319876	0.447186	0.010691
1995	9.9700e-01	-0.1733	-4.227290	0.000354	3.537269	1.198459	0.028651
1996	9.9750e-01	-0.1684	-4.135350	0.000227	2.270187	0.769160	0.018388
1997	9.9800e-01	-0.1155	-3.998510	0.000338	3.378884	1.144797	0.027368
1998	9.9850e-01	-0.0866	-3.890749	0.000266	2.660871	0.901527	0.021552
1999	9.9900e-01	-0.0257	-3.825750	0.000160	1.604970	0.543778	0.013000
2000	9.9950e-01	-0.0193	-3.679929	0.000360	3.600623	1.219924	0.029164
2001	1.0000e+00	0.0369	-3.561477	0.000360	3.600623	1.219924	0.023690

PMax (uC/cm2):	4.96e+01
Pr (uC/cm2):	1.01e+00
-Pr (uC/cm2):	-1.33e+00
PLoss (uC/cm2):	-1.33e+00
-Vc:	-3.94e-01
C (Max-Eff) (nF):	2.48e-01
K (Eff):	8.40e+02
Vert. (+/-Pr) Shift (uC/cm2):	-1.59e-01
Offset (uC/cm2):	2.23e+00

A (Loop Area - uC/cm2·Volts):	6.92e-02



Hysteresis Version: 5.48.1 - Radiant Technologies, Inc., 1999 - 9/12/24

