»»»»»»»»»»»»»»»»»»»»»»»»»»»»»»»»»»»» Hysteresis ««««««««««««««««««««««««««««««««««««
»»»  Executed Version:	5.48.1
»»»  Vision Version:	5.48.4 (R)
»»»  Vision Compiled:	9/18/24
»»»  Driver Version:	5.47.0
»»»  Windows Version:	Windows 8 or 8.1
»»»  Processor Information:	x86 (AMD or Intel) - 32 Processors
»»»  Tester Name:	PMF21124-494 (100V)
»»»  Tester S/N:	PMF21124-494
»»»  Internal Amp Type:	100V RevK 270k
»»»  Internal Amp S/N:	iAB2-596/K     
»»»  Execution Count:	1
»»»»»»»»»»»»»»»»»»»»»»»»»»»»»»»»»»»»»»»»»»««««««««««««««««««««««««««««««««««««««««««

Stored:	6/17/2025 - 14:16:26
Configured:	06/17/25 10:39:14 AM
Executed:	06/17/25 02:15:55 PM

»»»»»»»»»»»»»»»»»»»»»»»»»»»»»»»»»»» Sample Info ««««««««««««««««««««««««««««««««««««
Sample Name:	
Lot Name:	
Wafer Name:	
Die Row/Column:	0/0
Capacitor Number:	0
Sample Area (cm2):	1.00e-04
Sample Thickness (microns):	3.00e-01

Amplifier:	Internal

»»»»»»»»»»»»»»»»»»»»»»»»»»»»»»»»»»» Tester Info «««««««««««««««««««««««««««««««««««
Tester Name:	PMF21124-494 (100V)
Tester Serial Number:	PMF21124-494
Return Signal Amp. Level:	1.79 [Index: 2]

»»»»»»»»»»»»»»»»»»»»»»»»»»»»»»»» Hysteresis Info ««««««««««««««««««««««««««««««««««
Task Name:	Hyst-180
Volts:	20.00
Field:	666.67 (kV/cm)
DCBias:	0.00
DCField:	0.00 (kV/cm)
Hysteresis Period (ms):	1.00e+00
Preset:	Enabled
Preset Delay (ms):	1.00e+03
Profile:	Standard Bipolar

»»»»»»»»»»»»»»»»»»»»»»»»»»»»»»»»»»»»»» Data «««««««««««««««««««««««««««««««««««««««
Points:	2001

Valid Data

Point	Time (ms)	Drive Voltage	Measured Polarization (uC/cm2)	Capacitance (uF)	Normalized Capacitance (uF/cm2)	Dielectric Constant	Instantaneous Current (mA)
   1	0.0000e+00	0.0545	-2.783199	0.000753	7.530990	2.551569	0.060381
   2	5.0000e-04	0.0722	-2.481296	0.000753	7.530990	2.551569	0.060381
   3	1.0000e-03	0.1171	-2.417152	0.000160	1.600069	0.542118	0.012829
   4	1.5000e-03	0.1460	-2.279884	0.000342	3.424147	1.160132	0.027454
   5	2.0000e-03	0.2134	-2.316660	-0.000092	-0.917373	-0.310814	-0.007355
   6	2.5000e-03	0.2182	-2.193931	0.000306	3.061465	1.037252	0.024546
   7	3.0000e-03	0.2920	-2.105841	0.000220	2.197428	0.744509	0.017618
   8	3.5000e-03	0.3032	-1.892883	0.000531	5.312228	1.799832	0.042591
   9	4.0000e-03	0.3545	-1.906567	-0.000034	-0.341348	-0.115652	-0.002737
  10	4.5000e-03	0.3770	-1.570026	0.000840	8.395027	2.844312	0.067308
  11	5.0000e-03	0.4267	-1.502889	0.000167	1.674739	0.567417	0.013427
  12	5.5000e-03	0.4877	-1.651275	-0.000370	-3.701492	-1.254100	-0.029677
  13	6.0000e-03	0.5278	-1.556770	0.000236	2.357435	0.798720	0.018901
  14	6.5000e-03	0.5759	-1.391706	0.000412	4.117510	1.395050	0.033013
  15	7.0000e-03	0.5839	-1.153947	0.000593	5.930922	2.009451	0.047552
  16	7.5000e-03	0.6353	-0.969640	0.000460	4.597531	1.557686	0.036861
  17	8.0000e-03	0.6786	-0.919181	0.000126	1.258721	0.426466	0.010092
  18	8.5000e-03	0.7075	-0.841353	0.000194	1.941417	0.657770	0.015566
  19	9.0000e-03	0.7716	-0.716486	0.000311	3.114801	1.055323	0.024973
  20	9.5000e-03	0.8069	-0.723328	-0.000017	-0.170674	-0.057826	-0.001368
  21	1.0000e-02	0.8454	-0.613001	0.000275	2.752118	0.932443	0.022065
  22	1.0500e-02	0.8727	-0.339321	0.000683	6.826960	2.313037	0.054736
  23	1.1000e-02	0.9385	-0.396195	-0.000142	-1.418728	-0.480678	-0.011375
  24	1.1500e-02	0.9593	-0.212316	0.000459	4.586864	1.554072	0.036776
  25	1.2000e-02	1.0203	-0.214882	-0.000006	-0.064003	-0.021685	-0.000513
  26	1.2500e-02	1.0299	0.077186	0.000729	7.285646	2.468444	0.058414
  27	1.3000e-02	1.0604	0.212744	0.000338	3.381479	1.145676	0.027111
  28	1.3500e-02	1.1117	0.253796	0.000102	1.024044	0.346956	0.008210
  29	1.4000e-02	1.1599	0.285867	0.000080	0.800034	0.271059	0.006414
  30	1.4500e-02	1.1743	0.329485	0.000109	1.088047	0.368640	0.008724
  31	1.5000e-02	1.2369	0.506522	0.000442	4.416190	1.496246	0.035407
  32	1.5500e-02	1.2738	0.698954	0.000480	4.800206	1.626354	0.038486
  33	1.6000e-02	1.3010	0.692112	-0.000017	-0.170674	-0.057826	-0.001368
  34	1.6500e-02	1.3427	0.888819	0.000491	4.906878	1.662495	0.039342
  35	1.7000e-02	1.3652	1.046185	0.000393	3.925502	1.329996	0.031473
  36	1.7500e-02	1.4294	1.075264	0.000073	0.725365	0.245760	0.005816
  37	1.8000e-02	1.4615	1.175756	0.000251	2.506774	0.849318	0.020098
  38	1.8500e-02	1.5256	1.228354	0.000131	1.312056	0.444537	0.010520
  39	1.9000e-02	1.5689	1.301478	0.000182	1.824078	0.618014	0.014625
  40	1.9500e-02	1.6106	1.343385	0.000105	1.045378	0.354184	0.008381
  41	2.0000e-02	1.6411	1.652558	0.000771	7.712331	2.613009	0.061835
  42	2.0500e-02	1.6909	1.681636	0.000073	0.725365	0.245760	0.005816
  43	2.1000e-02	1.7101	1.784266	0.000256	2.560110	0.867389	0.020526
  44	2.1500e-02	1.7374	2.003211	0.000546	5.461568	1.850429	0.043789
  45	2.2000e-02	1.8096	1.957027	-0.000115	-1.152050	-0.390325	-0.009237
  46	2.2500e-02	1.8561	2.173833	0.000541	5.408232	1.832359	0.043361
  47	2.3000e-02	1.8705	2.319226	0.000363	3.626823	1.228801	0.029079
  48	2.3500e-02	1.9138	2.412448	0.000233	2.325433	0.787878	0.018644
  49	2.4000e-02	1.9427	2.569814	0.000393	3.925502	1.329996	0.031473
  50	2.4500e-02	1.9876	2.539880	-0.000075	-0.746699	-0.252988	-0.005987
  51	2.5000e-02	2.0310	2.758824	0.000546	5.461568	1.850429	0.043789
  52	2.5500e-02	2.0887	2.922177	0.000407	4.074842	1.380594	0.032671
  53	2.6000e-02	2.1064	2.940993	0.000047	0.469354	0.159021	0.003763
  54	2.6500e-02	2.1513	2.994018	0.000132	1.322724	0.448151	0.010605
  55	2.7000e-02	2.1946	3.337401	0.000857	8.565701	2.902138	0.068677
  56	2.7500e-02	2.2267	3.338684	0.000003	0.032001	0.010842	0.000257
  57	2.8000e-02	2.2941	3.245462	-0.000233	-2.325433	-0.787878	-0.018644
  58	2.8500e-02	2.3342	3.421644	0.000439	4.394856	1.489017	0.035236
  59	2.9000e-02	2.3791	3.568319	0.000366	3.658824	1.239643	0.029335
  60	2.9500e-02	2.3951	3.655982	0.000219	2.186761	0.740895	0.017533
  61	3.0000e-02	2.4240	3.797954	0.000354	3.541486	1.199888	0.028394
  62	3.0500e-02	2.4737	4.088311	0.000724	7.242978	2.453987	0.058072
  63	3.1000e-02	2.5267	4.021174	-0.000167	-1.674739	-0.567417	-0.013427
  64	3.1500e-02	2.5523	4.103278	0.000205	2.048088	0.693911	0.016421
  65	3.2000e-02	2.6021	4.211895	0.000271	2.709450	0.917986	0.021723
  66	3.2500e-02	2.6438	4.434260	0.000555	5.546905	1.879342	0.044473
  67	3.3000e-02	2.6694	4.534752	0.000251	2.506774	0.849318	0.020098
  68	3.3500e-02	2.7208	4.585212	0.000126	1.258721	0.426466	0.010092
  69	3.4000e-02	2.7497	4.845208	0.000649	6.485612	2.197385	0.051999
  70	3.4500e-02	2.8186	4.687842	-0.000393	-3.925502	-1.329996	-0.031473
  71	3.5000e-02	2.8443	4.806294	0.000295	2.954794	1.001111	0.023690
  72	3.5500e-02	2.8844	4.945700	0.000348	3.477483	1.178203	0.027881
  73	3.6000e-02	2.9325	5.103921	0.000395	3.946836	1.337224	0.031644
  74	3.6500e-02	2.9566	5.176618	0.000181	1.813411	0.614400	0.014539
  75	3.7000e-02	3.0127	5.193295	0.000042	0.416018	0.140951	0.003335
  76	3.7500e-02	3.0304	5.445594	0.000629	6.293604	2.132331	0.050460
  77	3.8000e-02	3.0737	5.546086	0.000251	2.506774	0.849318	0.020098
  78	3.8500e-02	3.1250	5.789832	0.000608	6.080261	2.060048	0.048749
  79	3.9000e-02	3.1507	5.837299	0.000118	1.184051	0.401167	0.009493
  80	3.9500e-02	3.1876	5.852693	0.000038	0.384017	0.130108	0.003079
  81	4.0000e-02	3.2406	5.990816	0.000345	3.445481	1.167361	0.027625
  82	4.0500e-02	3.2935	6.086604	0.000239	2.389436	0.809563	0.019158
  83	4.1000e-02	3.3256	6.251668	0.000412	4.117510	1.395050	0.033013
  84	4.1500e-02	3.3657	6.374824	0.000307	3.072132	1.040867	0.024631
  85	4.2000e-02	3.3994	6.359857	-0.000037	-0.373349	-0.126494	-0.002993
  86	4.2500e-02	3.4379	6.477881	0.000294	2.944127	0.997497	0.023605
  87	4.3000e-02	3.4828	6.693832	0.000539	5.386898	1.825131	0.043190
  88	4.3500e-02	3.5229	6.745147	0.000128	1.280055	0.433694	0.010263
  89	4.4000e-02	3.5598	6.934158	0.000471	4.714869	1.597441	0.037802
  90	4.4500e-02	3.5967	6.984617	0.000126	1.258721	0.426466	0.010092
  91	4.5000e-02	3.6256	7.260008	0.000687	6.869629	2.327493	0.055078
  92	4.5500e-02	3.6721	7.062873	-0.000492	-4.917545	-1.666109	-0.039427
  93	4.6000e-02	3.7042	7.366914	0.000758	7.584326	2.569639	0.060808
  94	4.6500e-02	3.7555	7.393427	0.000066	0.661362	0.224075	0.005303
  95	4.7000e-02	3.8101	7.521287	0.000319	3.189470	1.080622	0.025572
  96	4.7500e-02	3.8373	7.797105	0.000688	6.880296	2.331107	0.055164
  97	4.8000e-02	3.8774	7.790691	-0.000016	-0.160007	-0.054212	-0.001283
  98	4.8500e-02	3.9143	7.943353	0.000381	3.808164	1.290241	0.030532
  99	4.9000e-02	3.9416	8.128087	0.000461	4.608198	1.561300	0.036947
 100	4.9500e-02	4.0026	8.139206	0.000028	0.277345	0.093967	0.002224
 101	5.0000e-02	4.0330	8.214040	0.000187	1.866747	0.632471	0.014967
 102	5.0500e-02	4.0635	8.379103	0.000412	4.117510	1.395050	0.033013
 103	5.1000e-02	4.1261	8.371834	-0.000018	-0.181341	-0.061440	-0.001454
 104	5.1500e-02	4.1742	8.675020	0.000756	7.562992	2.562411	0.060637
 105	5.2000e-02	4.2143	8.596765	-0.000195	-1.952084	-0.661384	-0.015651
 106	5.2500e-02	4.2400	8.785347	0.000470	4.704202	1.593827	0.037717
 107	5.3000e-02	4.2657	9.011561	0.000564	5.642909	1.911869	0.045243
 108	5.3500e-02	4.3106	9.017120	0.000014	0.138673	0.046984	0.001112
 109	5.4000e-02	4.3378	9.193302	0.000439	4.394856	1.489017	0.035236
 110	5.4500e-02	4.3908	9.306623	0.000283	2.826788	0.957742	0.022664
 111	5.5000e-02	4.4469	9.326293	0.000049	0.490688	0.166250	0.003934
 112	5.5500e-02	4.4758	9.482804	0.000390	3.904168	1.322768	0.031302
 113	5.6000e-02	4.5287	9.551652	0.000172	1.717407	0.581873	0.013770
 114	5.6500e-02	4.5592	9.744939	0.000482	4.821541	1.633582	0.038657
 115	5.7000e-02	4.5801	9.879213	0.000335	3.349477	1.134834	0.026855
 116	5.7500e-02	4.6330	9.988685	0.000273	2.730784	0.925215	0.021894
 117	5.8000e-02	4.6699	10.155459	0.000416	4.160179	1.409507	0.033355
 118	5.8500e-02	4.7229	10.069079	-0.000215	-2.154759	-0.730052	-0.017276
 119	5.9000e-02	4.7405	10.297858	0.000571	5.706912	1.933554	0.045756
 120	5.9500e-02	4.7934	10.278187	-0.000049	-0.490688	-0.166250	-0.003934
 121	6.0000e-02	4.8319	10.600617	0.000804	8.043012	2.725046	0.064486
 122	6.0500e-02	4.8769	10.594630	-0.000015	-0.149340	-0.050598	-0.001197
 123	6.1000e-02	4.9234	10.707951	0.000283	2.826788	0.957742	0.022664
 124	6.1500e-02	4.9442	10.844791	0.000341	3.413480	1.156518	0.027368
 125	6.2000e-02	4.9667	11.036367	0.000478	4.778872	1.619126	0.038315
 126	6.2500e-02	5.0309	11.050906	0.000036	0.362682	0.122880	0.002908
 127	6.3000e-02	5.0678	11.198009	0.000367	3.669491	1.243257	0.029421
 128	6.3500e-02	5.1063	11.349389	0.000378	3.776162	1.279398	0.030276
 129	6.4000e-02	5.1544	11.404552	0.000138	1.376059	0.466221	0.011033
 130	6.4500e-02	5.2089	11.402842	-0.000004	-0.042669	-0.014456	-0.000342
 131	6.5000e-02	5.2362	11.475538	0.000181	1.813411	0.614400	0.014539
 132	6.5500e-02	5.2924	11.604681	0.000322	3.221472	1.091464	0.025829
 133	6.6000e-02	5.3244	11.725271	0.000301	3.008129	1.019182	0.024118
 134	6.6500e-02	5.3501	11.983557	0.000644	6.442944	2.182928	0.051657
 135	6.7000e-02	5.4143	12.021616	0.000095	0.949374	0.321657	0.007612
 136	6.7500e-02	5.4191	12.267928	0.000614	6.144264	2.081733	0.049262
 137	6.8000e-02	5.4576	12.129805	-0.000345	-3.445481	-1.167361	-0.027625
 138	6.8500e-02	5.5137	12.413320	0.000707	7.072304	2.396161	0.056703
 139	6.9000e-02	5.5522	12.542891	0.000323	3.232139	1.095078	0.025914
 140	6.9500e-02	5.6116	12.472333	-0.000176	-1.760076	-0.596330	-0.014112
 141	7.0000e-02	5.6325	12.704961	0.000580	5.802916	1.966081	0.046526
 142	7.0500e-02	5.6950	12.722493	0.000044	0.437352	0.148179	0.003507
 143	7.1000e-02	5.7143	12.941437	0.000546	5.461568	1.850429	0.043789
 144	7.1500e-02	5.7784	12.876011	-0.000163	-1.632070	-0.552960	-0.013085
 145	7.2000e-02	5.7913	13.091534	0.000538	5.376231	1.821516	0.043105
 146	7.2500e-02	5.8346	13.292945	0.000502	5.024216	1.702250	0.040282
 147	7.3000e-02	5.8795	13.324590	0.000079	0.789367	0.267445	0.006329
 148	7.3500e-02	5.9132	13.508896	0.000460	4.597531	1.557686	0.036861
 149	7.4000e-02	5.9533	13.643598	0.000336	3.360144	1.138448	0.026940
 150	7.4500e-02	5.9918	13.853562	0.000524	5.237558	1.774533	0.041993
 151	7.5000e-02	6.0528	13.772741	-0.000202	-2.016087	-0.683069	-0.016164
 152	7.5500e-02	6.0961	13.719288	-0.000133	-1.333391	-0.451765	-0.010691
 153	7.6000e-02	6.1105	14.030599	0.000777	7.765667	2.631079	0.062262
 154	7.6500e-02	6.1731	13.907015	-0.000308	-3.082799	-1.044481	-0.024717
 155	7.7000e-02	6.2036	14.175564	0.000670	6.698955	2.269667	0.053710
 156	7.7500e-02	6.2469	14.217471	0.000105	1.045378	0.354184	0.008381
 157	7.8000e-02	6.2886	14.393653	0.000439	4.394856	1.489017	0.035236
 158	7.8500e-02	6.3223	14.611742	0.000544	5.440234	1.843201	0.043618
 159	7.9000e-02	6.3592	14.614308	0.000006	0.064003	0.021685	0.000513
 160	7.9500e-02	6.3816	14.888415	0.000684	6.837627	2.316651	0.054822
 161	8.0000e-02	6.4298	14.969237	0.000202	2.016087	0.683069	0.016164
 162	8.0500e-02	6.4843	14.948283	-0.000052	-0.522689	-0.177092	-0.004191
 163	8.1000e-02	6.4731	15.526432	-0.001442	-14.421953	-4.886290	0.115630
 164	8.1500e-02	6.5501	15.133872	-0.000979	-9.792421	-3.317762	-0.078512
 165	8.2000e-02	6.5902	15.342981	0.000522	5.216224	1.767305	0.041822
 166	8.2500e-02	6.6447	15.383178	0.000100	1.002710	0.339727	0.008039
 167	8.3000e-02	6.6864	15.441762	0.000146	1.461396	0.495134	0.011717
 168	8.3500e-02	6.7169	15.709884	0.000669	6.688287	2.266053	0.053624
 169	8.4000e-02	6.7506	15.680377	-0.000074	-0.736032	-0.249374	-0.005901
 170	8.4500e-02	6.7779	15.955340	0.000686	6.858961	2.323879	0.054993
 171	8.5000e-02	6.8180	16.103299	0.000369	3.690825	1.250485	0.029592
 172	8.5500e-02	6.8597	16.157180	0.000134	1.344058	0.455379	0.010776
 173	8.6000e-02	6.9110	16.250830	0.000234	2.336100	0.791492	0.018730
 174	8.6500e-02	6.9704	16.211916	-0.000097	-0.970708	-0.328885	-0.007783
 175	8.7000e-02	6.9929	16.522372	0.000774	7.744333	2.623851	0.062091
 176	8.7500e-02	7.0426	16.409906	-0.000281	-2.805454	-0.950514	-0.022493
 177	8.8000e-02	7.0650	16.704540	0.000735	7.349649	2.490129	0.058927
 178	8.8500e-02	7.1212	16.699408	-0.000013	-0.128006	-0.043369	-0.001026
 179	8.9000e-02	7.1533	16.889274	0.000474	4.736204	1.604669	0.037973
 180	8.9500e-02	7.1709	17.094107	0.000511	5.109553	1.731163	0.040967
 181	9.0000e-02	7.2287	17.063745	-0.000076	-0.757366	-0.256603	-0.006072
 182	9.0500e-02	7.2896	17.173645	0.000274	2.741451	0.928829	0.021980
 183	9.1000e-02	7.3041	17.288248	0.000286	2.858790	0.968584	0.022921
 184	9.1500e-02	7.3763	17.374201	0.000214	2.144092	0.726438	0.017191
 185	9.2000e-02	7.4083	17.447753	0.000183	1.834746	0.621629	0.014710
 186	9.2500e-02	7.4501	17.637618	0.000474	4.736204	1.604669	0.037973
 187	9.3000e-02	7.4789	17.850576	0.000531	5.312228	1.799832	0.042591
 188	9.3500e-02	7.5190	17.883930	0.000083	0.832036	0.281901	0.006671
 189	9.4000e-02	7.5688	17.986560	0.000256	2.560110	0.867389	0.020526
 190	9.4500e-02	7.5896	18.113138	0.000316	3.157469	1.069779	0.025315
 191	9.5000e-02	7.6345	18.136657	0.000059	0.586692	0.198777	0.004704
 192	9.5500e-02	7.6506	18.340207	0.000508	5.077552	1.720321	0.040710
 193	9.6000e-02	7.7115	18.410765	0.000176	1.760076	0.596330	0.014112
 194	9.6500e-02	7.7709	18.472770	0.000155	1.546733	0.524047	0.012401
 195	9.7000e-02	7.8254	18.500138	0.000068	0.682696	0.231304	0.005474
 196	9.7500e-02	7.8367	18.743030	0.000606	6.058927	2.052820	0.048578
 197	9.8000e-02	7.8880	18.624150	-0.000297	-2.965461	-1.004725	-0.023776
 198	9.8500e-02	7.9057	19.061183	0.001090	10.901802	3.693630	0.087407
 199	9.9000e-02	7.9474	19.105656	0.000111	1.109381	0.375868	0.008895
 200	9.9500e-02	8.0051	19.124899	0.000048	0.480021	0.162635	0.003849
 201	1.0000e-01	8.0180	19.234371	0.000273	2.730784	0.925215	0.021894
 202	1.0050e-01	8.0757	19.448184	0.000533	5.333563	1.807060	0.042763
 203	1.0100e-01	8.1078	19.489236	0.000102	1.024044	0.346956	0.008210
 204	1.0150e-01	8.1495	19.653444	0.000410	4.096176	1.387822	0.032842
 205	1.0200e-01	8.2008	19.661141	0.000019	0.192008	0.065054	0.001539
 206	1.0250e-01	8.2409	19.726995	0.000164	1.642737	0.556574	0.013171
 207	1.0300e-01	8.2714	19.958341	0.000577	5.770915	1.955239	0.046269
 208	1.0350e-01	8.3163	20.082352	0.000309	3.093466	1.048095	0.024802
 209	1.0400e-01	8.3468	20.106299	0.000060	0.597359	0.202391	0.004789
 210	1.0450e-01	8.3853	20.240573	0.000335	3.349477	1.134834	0.026855
 211	1.0500e-01	8.4511	20.317118	0.000191	1.909415	0.646927	0.015309
 212	1.0550e-01	8.4671	20.467215	0.000374	3.744161	1.268556	0.030019
 213	1.0600e-01	8.5024	20.624581	0.000393	3.925502	1.329996	0.031473
 214	1.0650e-01	8.5538	20.760566	0.000339	3.392146	1.149290	0.027197
 215	1.0700e-01	8.5842	20.810170	0.000124	1.237387	0.419238	0.009921
 216	1.0750e-01	8.6228	20.965826	0.000388	3.882834	1.315540	0.031131
 217	1.0800e-01	8.6613	20.930333	-0.000089	-0.885371	-0.299972	-0.007099
 218	1.0850e-01	8.7046	21.111218	0.000451	4.512194	1.528773	0.036177
 219	1.0900e-01	8.7623	21.236940	0.000314	3.136135	1.062551	0.025144
 220	1.0950e-01	8.8072	21.385754	0.000371	3.712160	1.257714	0.029763
 221	1.1000e-01	8.8297	21.599139	0.000532	5.322895	1.803446	0.042677
 222	1.1050e-01	8.8874	21.573054	-0.000065	-0.650695	-0.220461	-0.005217
 223	1.1100e-01	8.9260	21.616244	0.000108	1.077380	0.365026	0.008638
 224	1.1150e-01	8.9741	21.759926	0.000358	3.584154	1.214344	0.028736
 225	1.1200e-01	8.9965	21.878378	0.000295	2.954794	1.001111	0.023690
 226	1.1250e-01	9.0206	22.055415	0.000442	4.416190	1.496246	0.035407
 227	1.1300e-01	9.0559	22.187124	0.000329	3.285475	1.113149	0.026342
 228	1.1350e-01	9.1040	22.322681	0.000338	3.381479	1.145676	0.027111
 229	1.1400e-01	9.1730	22.177716	-0.000362	-3.616155	-1.225187	-0.028993
 230	1.1450e-01	9.1955	22.463369	0.000713	7.125640	2.414232	0.057131
 231	1.1500e-01	9.2388	22.597216	0.000334	3.338810	1.131220	0.026769
 232	1.1550e-01	9.2741	22.720800	0.000308	3.082799	1.044481	0.024717
 233	1.1600e-01	9.2997	22.875600	0.000386	3.861499	1.308311	0.030960
 234	1.1650e-01	9.3334	22.957277	0.000204	2.037421	0.690297	0.016335
 235	1.1700e-01	9.3912	23.094117	0.000341	3.413480	1.156518	0.027368
 236	1.1750e-01	9.4152	23.228391	0.000335	3.349477	1.134834	0.026855
 237	1.1800e-01	9.4730	23.246351	0.000045	0.448019	0.151793	0.003592
 238	1.1850e-01	9.5275	23.248917	0.000006	0.064003	0.021685	0.000513
 239	1.1900e-01	9.5532	23.505920	0.000641	6.410942	2.172086	0.051401
 240	1.1950e-01	9.6045	23.307502	-0.000495	-4.949546	-1.676952	-0.039684
 241	1.2000e-01	9.6254	23.635063	0.000817	8.171018	2.768416	0.065512
 242	1.2050e-01	9.6783	23.829632	0.000485	4.853542	1.644425	0.038914
 243	1.2100e-01	9.7104	23.930124	0.000251	2.506774	0.849318	0.020098
 244	1.2150e-01	9.7393	23.997689	0.000169	1.685406	0.571031	0.013513
 245	1.2200e-01	9.7987	24.183706	0.000464	4.640199	1.572142	0.037203
 246	1.2250e-01	9.8532	24.109299	-0.000186	-1.856080	-0.628857	-0.014881
 247	1.2300e-01	9.8500	24.280349	-0.000427	-4.266850	-1.445648	0.034210
 248	1.2350e-01	9.9206	24.474491	0.000484	4.842875	1.640810	0.038828
 249	1.2400e-01	9.9478	24.460380	-0.000035	-0.352015	-0.119266	-0.002822
 250	1.2450e-01	10.0136	24.628436	0.000419	4.192180	1.420349	0.033611
 251	1.2500e-01	10.0489	24.724652	0.000240	2.400103	0.813177	0.019243
 252	1.2550e-01	10.0794	24.835407	0.000276	2.762785	0.936057	0.022151
 253	1.2600e-01	10.1163	24.911524	0.000190	1.898748	0.643313	0.015223
 254	1.2650e-01	10.1436	25.162540	0.000626	6.261602	2.121488	0.050203
 255	1.2700e-01	10.2045	25.145435	-0.000043	-0.426685	-0.144565	-0.003421
 256	1.2750e-01	10.2350	25.324610	0.000447	4.469525	1.514316	0.035835
 257	1.2800e-01	10.2703	25.447339	0.000306	3.061465	1.037252	0.024546
 258	1.2850e-01	10.3425	25.376780	-0.000176	-1.760076	-0.596330	-0.014112
 259	1.2900e-01	10.3489	25.623948	0.000617	6.165598	2.088961	0.049433
 260	1.2950e-01	10.4067	25.777893	0.000384	3.840165	1.301083	0.030789
 261	1.3000e-01	10.4403	25.792860	0.000037	0.373349	0.126494	0.002993
 262	1.3050e-01	10.4788	25.933121	0.000350	3.498817	1.185431	0.028052
 263	1.3100e-01	10.5077	26.091342	0.000395	3.946836	1.337224	0.031644
 264	1.3150e-01	10.5607	26.236307	0.000362	3.616155	1.225187	0.028993
 265	1.3200e-01	10.5879	26.353477	0.000292	2.922792	0.990269	0.023434
 266	1.3250e-01	10.6473	26.208084	-0.000363	-3.626823	-1.228801	-0.029079
 267	1.3300e-01	10.6617	26.457817	0.000623	6.229601	2.110646	0.049947
 268	1.3350e-01	10.7243	26.641268	0.000458	4.576197	1.550457	0.036690
 269	1.3400e-01	10.7339	26.674196	0.000082	0.821369	0.278287	0.006585
 270	1.3450e-01	10.8045	26.723800	0.000124	1.237387	0.419238	0.009921
 271	1.3500e-01	10.8446	26.773405	0.000124	1.237387	0.419238	0.009921
 272	1.3550e-01	10.8687	26.966691	0.000482	4.821541	1.633582	0.038657
 273	1.3600e-01	10.9040	27.075736	0.000272	2.720117	0.921601	0.021809
 274	1.3650e-01	10.9585	27.143728	0.000170	1.696073	0.574645	0.013598
 275	1.3700e-01	10.9938	27.375501	0.000578	5.781582	1.958853	0.046355
 276	1.3750e-01	11.0435	27.273299	-0.000255	-2.549443	-0.863775	-0.020440
 277	1.3800e-01	11.0852	27.440072	0.000416	4.160179	1.409507	0.033355
 278	1.3850e-01	11.1238	27.763357	0.000806	8.064347	2.732275	0.064657
 279	1.3900e-01	11.1767	27.593590	-0.000423	-4.234849	-1.434806	-0.033953
 280	1.3950e-01	11.2088	27.796712	0.000507	5.066884	1.716707	0.040624
 281	1.4000e-01	11.2296	27.963486	0.000416	4.160179	1.409507	0.033355
 282	1.4050e-01	11.2794	28.083648	0.000300	2.997462	1.015568	0.024033
 283	1.4100e-01	11.3227	28.289336	0.000513	5.130887	1.738392	0.041138
 284	1.4150e-01	11.3724	28.137957	-0.000378	-3.776162	-1.279398	-0.030276
 285	1.4200e-01	11.4029	28.507853	0.000923	9.227063	3.126214	0.073979
 286	1.4250e-01	11.4414	28.422328	-0.000213	-2.133425	-0.722824	-0.017105
 287	1.4300e-01	11.4767	28.599792	0.000443	4.426857	1.499860	0.035493
 288	1.4350e-01	11.5136	28.527096	-0.000181	-1.813411	-0.614400	-0.014539
 289	1.4400e-01	11.5617	28.802914	0.000688	6.880296	2.331107	0.055164
 290	1.4450e-01	11.5938	28.800776	-0.000005	-0.053336	-0.018071	-0.000428
 291	1.4500e-01	11.6355	29.046233	0.000612	6.122930	2.074505	0.049091
 292	1.4550e-01	11.6660	29.335735	0.000722	7.221644	2.446759	0.057900
 293	1.4600e-01	11.7237	29.102680	-0.000581	-5.813583	-1.969695	-0.046611
 294	1.4650e-01	11.7446	29.264749	0.000404	4.042840	1.369751	0.032414
 295	1.4700e-01	11.8055	29.323762	0.000147	1.472063	0.498749	0.011802
 296	1.4750e-01	11.8264	29.446063	0.000305	3.050798	1.033638	0.024460
 297	1.4800e-01	11.8681	29.649612	0.000508	5.077552	1.720321	0.040710
 298	1.4850e-01	11.9002	29.873688	0.000559	5.589574	1.893799	0.044815
 299	1.4900e-01	11.9612	29.763788	-0.000274	-2.741451	-0.928829	-0.021980
 300	1.4950e-01	11.9900	29.996416	0.000580	5.802916	1.966081	0.046526
 301	1.5000e-01	12.0414	30.106316	0.000274	2.741451	0.928829	0.021980
 302	1.5050e-01	12.0911	30.105888	-0.000001	-0.010667	-0.003614	-0.000086
 303	1.5100e-01	12.1280	30.284208	0.000445	4.448191	1.507088	0.035664
 304	1.5150e-01	12.1617	30.295754	0.000029	0.288012	0.097581	0.002309
 305	1.5200e-01	12.2002	30.572855	0.000691	6.912297	2.341950	0.055420
 306	1.5250e-01	12.2323	30.594236	0.000053	0.533356	0.180706	0.004276
 307	1.5300e-01	12.2467	30.712689	0.000295	2.954794	1.001111	0.023690
 308	1.5350e-01	12.3221	30.903410	0.000476	4.757538	1.611897	0.038144
 309	1.5400e-01	12.3686	30.868772	-0.000086	-0.864037	-0.292744	-0.006928
 310	1.5450e-01	12.3831	31.062059	0.000482	4.821541	1.633582	0.038657
 311	1.5500e-01	12.4424	31.119360	0.000143	1.429395	0.484292	0.011460
 312	1.5550e-01	12.4857	31.180938	0.000154	1.536066	0.520433	0.012316
 313	1.5600e-01	12.5002	31.375080	0.000484	4.842875	1.640810	0.038828
 314	1.5650e-01	12.5515	31.479421	0.000260	2.602779	0.881845	0.020868
 315	1.5700e-01	12.5980	31.536723	0.000143	1.429395	0.484292	0.011460
 316	1.5750e-01	12.6478	31.532019	-0.000012	-0.117338	-0.039755	-0.000941
 317	1.5800e-01	12.6831	31.800995	0.000671	6.709622	2.273281	0.053795
 318	1.5850e-01	12.7312	31.707773	-0.000233	-2.325433	-0.787878	-0.018644
 319	1.5900e-01	12.7649	32.043459	0.000837	8.373693	2.837084	0.067137
 320	1.5950e-01	12.7922	32.062274	0.000047	0.469354	0.159021	0.003763
 321	1.6000e-01	12.8307	32.032768	-0.000074	-0.736032	-0.249374	-0.005901
 322	1.6050e-01	12.8772	32.289343	0.000640	6.400275	2.168472	0.051315
 323	1.6100e-01	12.9253	32.295757	0.000016	0.160007	0.054212	0.001283
 324	1.6150e-01	12.9317	32.703712	0.001018	10.176437	3.447870	0.081591
 325	1.6200e-01	12.9815	32.529668	-0.000434	-4.341520	-1.470947	-0.034809
 326	1.6250e-01	13.0504	32.676344	0.000366	3.658824	1.239643	0.029335
 327	1.6300e-01	13.0857	32.870058	0.000483	4.832208	1.637196	0.038743
 328	1.6350e-01	13.1098	32.882887	0.000032	0.320014	0.108424	0.002566
 329	1.6400e-01	13.1675	33.026997	0.000359	3.594821	1.217958	0.028822
 330	1.6450e-01	13.1964	33.021010	-0.000015	-0.149340	-0.050598	-0.001197
 331	1.6500e-01	13.2462	33.210876	0.000474	4.736204	1.604669	0.037973
 332	1.6550e-01	13.2911	33.373801	0.000406	4.064175	1.376980	0.032585
 333	1.6600e-01	13.3087	33.456332	0.000206	2.058755	0.697525	0.016506
 334	1.6650e-01	13.3681	33.618830	0.000405	4.053508	1.373366	0.032500
 335	1.6700e-01	13.4018	33.541857	-0.000192	-1.920083	-0.650542	-0.015395
 336	1.6750e-01	13.4515	33.805702	0.000658	6.581616	2.229912	0.052769
 337	1.6800e-01	13.4804	33.785176	-0.000051	-0.512022	-0.173478	-0.004105
 338	1.6850e-01	13.5157	34.052870	0.000668	6.677620	2.262439	0.053539
 339	1.6900e-01	13.5494	34.015666	-0.000093	-0.928040	-0.314428	-0.007441
 340	1.6950e-01	13.5911	34.211519	0.000489	4.885543	1.655267	0.039170
 341	1.7000e-01	13.6215	34.265827	0.000135	1.354725	0.458993	0.010862
 342	1.7050e-01	13.6793	34.454837	0.000471	4.714869	1.597441	0.037802
 343	1.7100e-01	13.7082	34.488620	0.000084	0.842703	0.285515	0.006756
 344	1.7150e-01	13.7370	34.703288	0.000535	5.354897	1.814288	0.042934
 345	1.7200e-01	13.7932	34.754603	0.000128	1.280055	0.433694	0.010263
 346	1.7250e-01	13.8285	34.736642	-0.000045	-0.448019	-0.151793	-0.003592
 347	1.7300e-01	13.8814	34.810194	0.000183	1.834746	0.621629	0.014710
 348	1.7350e-01	13.9055	34.848253	0.000095	0.949374	0.321657	0.007612
 349	1.7400e-01	13.9296	35.207886	0.000897	8.971052	3.039475	0.071927
 350	1.7450e-01	13.9889	35.245944	0.000095	0.949374	0.321657	0.007612
 351	1.7500e-01	14.0499	35.321206	0.000188	1.877414	0.636085	0.015052
 352	1.7550e-01	14.1028	35.269036	-0.000130	-1.301389	-0.440923	-0.010434
 353	1.7600e-01	14.1269	35.595314	0.000814	8.139016	2.757573	0.065256
 354	1.7650e-01	14.1590	35.686398	0.000227	2.272098	0.769808	0.018217
 355	1.7700e-01	14.1862	35.753108	0.000166	1.664072	0.563803	0.013342
 356	1.7750e-01	14.2263	35.904487	0.000378	3.776162	1.279398	0.030276
 357	1.7800e-01	14.2793	35.823238	-0.000203	-2.026754	-0.686683	-0.016250
 358	1.7850e-01	14.3130	36.109747	0.000715	7.146974	2.421460	0.057302
 359	1.7900e-01	14.3547	36.234614	0.000311	3.114801	1.055323	0.024973
 360	1.7950e-01	14.4188	36.154648	-0.000199	-1.994752	-0.675840	-0.015993
 361	1.8000e-01	14.4172	36.430039	-0.000687	-6.869629	-2.327493	0.055078
 362	1.8050e-01	14.4622	36.400960	-0.000073	-0.725365	-0.245760	-0.005816
 363	1.8100e-01	14.5039	36.483919	0.000207	2.069422	0.701139	0.016592
 364	1.8150e-01	14.5472	36.802500	0.000795	7.947008	2.692519	0.063716
 365	1.8200e-01	14.5937	36.850394	0.000119	1.194718	0.404781	0.009579
 366	1.8250e-01	14.6354	36.941478	0.000227	2.272098	0.769808	0.018217
 367	1.8300e-01	14.6803	37.181376	0.000598	5.984257	2.027521	0.047980
 368	1.8350e-01	14.7188	37.060358	-0.000302	-3.018796	-1.022796	-0.024204
 369	1.8400e-01	14.7654	37.188218	0.000319	3.189470	1.080622	0.025572
 370	1.8450e-01	14.7846	37.335321	0.000367	3.669491	1.243257	0.029421
 371	1.8500e-01	14.8263	37.335749	0.000001	0.010667	0.003614	0.000086
 372	1.8550e-01	14.8584	37.596600	0.000651	6.506946	2.204613	0.052170
 373	1.8600e-01	14.9274	37.607291	0.000027	0.266678	0.090353	0.002138
 374	1.8650e-01	14.9579	37.614133	0.000017	0.170674	0.057826	0.001368
 375	1.8700e-01	14.9948	37.760808	0.000366	3.658824	1.239643	0.029335
 376	1.8750e-01	15.0220	37.851037	0.000225	2.250763	0.762579	0.018046
 377	1.8800e-01	15.0686	38.224354	0.000931	9.312400	3.155127	0.074663
 378	1.8850e-01	15.1199	38.222644	-0.000004	-0.042669	-0.014456	-0.000342
 379	1.8900e-01	15.1424	38.243170	0.000051	0.512022	0.173478	0.004105
 380	1.8950e-01	15.2017	38.323563	0.000201	2.005420	0.679455	0.016079
 381	1.9000e-01	15.2258	38.398398	0.000187	1.866747	0.632471	0.014967
 382	1.9050e-01	15.2819	38.499317	0.000252	2.517442	0.852932	0.020184
 383	1.9100e-01	15.3060	38.769149	0.000673	6.730956	2.280510	0.053966
 384	1.9150e-01	15.3268	38.764445	-0.000012	-0.117338	-0.039755	-0.000941
 385	1.9200e-01	15.3830	38.795662	0.000078	0.778700	0.263831	0.006243
 386	1.9250e-01	15.4391	38.965001	0.000422	4.224182	1.431191	0.033868
 387	1.9300e-01	15.4680	38.910265	-0.000137	-1.365392	-0.462607	-0.010947
 388	1.9350e-01	15.4985	39.303253	0.000980	9.803088	3.321376	0.078598
 389	1.9400e-01	15.5530	39.174110	-0.000322	-3.221472	-1.091464	-0.025829
 390	1.9450e-01	15.5980	39.294700	0.000301	3.008129	1.019182	0.024118
 391	1.9500e-01	15.6381	39.452494	0.000394	3.936169	1.333610	0.031559
 392	1.9550e-01	15.6814	39.476441	0.000060	0.597359	0.202391	0.004789
 393	1.9600e-01	15.7247	39.613281	0.000341	3.413480	1.156518	0.027368
 394	1.9650e-01	15.7584	39.679135	0.000164	1.642737	0.556574	0.013171
 395	1.9700e-01	15.7921	39.852751	0.000433	4.330853	1.467333	0.034723
 396	1.9750e-01	15.8322	40.031926	0.000447	4.469525	1.514316	0.035835
 397	1.9800e-01	15.8835	40.093932	0.000155	1.546733	0.524047	0.012401
 398	1.9850e-01	15.9268	40.094787	0.000002	0.021334	0.007228	0.000171
 399	1.9900e-01	15.9589	40.260706	0.000414	4.138845	1.402278	0.033184
 400	1.9950e-01	15.9990	40.232055	-0.000071	-0.714697	-0.242146	-0.005730
 401	2.0000e-01	16.0199	40.369750	0.000343	3.434814	1.163747	0.027539
 402	2.0050e-01	16.0728	40.645569	0.000688	6.880296	2.331107	0.055164
 403	2.0100e-01	16.1049	40.747343	0.000254	2.538776	0.860161	0.020355
 404	2.0150e-01	16.1498	40.773001	0.000064	0.640028	0.216847	0.005132
 405	2.0200e-01	16.1755	40.974840	0.000503	5.034883	1.705865	0.040368
 406	2.0250e-01	16.2461	40.957735	-0.000043	-0.426685	-0.144565	-0.003421
 407	2.0300e-01	16.2798	41.224146	0.000665	6.645619	2.251597	0.053282
 408	2.0350e-01	16.3231	41.166416	-0.000144	-1.440062	-0.487906	-0.011546
 409	2.0400e-01	16.3535	41.269901	0.000258	2.581444	0.874617	0.020697
 410	2.0450e-01	16.3985	41.293421	0.000059	0.586692	0.198777	0.004704
 411	2.0500e-01	16.4257	41.591048	0.000742	7.424319	2.515427	0.059525
 412	2.0550e-01	16.4755	41.501247	-0.000224	-2.240096	-0.758965	-0.017960
 413	2.0600e-01	16.4995	41.722757	0.000553	5.525571	1.872114	0.044302
 414	2.0650e-01	16.5316	41.785618	0.000157	1.568067	0.531276	0.012572
 415	2.0700e-01	16.6118	41.812986	0.000068	0.682696	0.231304	0.005474
 416	2.0750e-01	16.6519	41.981470	0.000420	4.202847	1.423963	0.033697
 417	2.0800e-01	16.6840	42.086238	0.000261	2.613446	0.885459	0.020954
 418	2.0850e-01	16.6920	42.161073	0.000187	1.866747	0.632471	0.014967
 419	2.0900e-01	16.7530	42.255150	0.000235	2.346768	0.795106	0.018816
 420	2.0950e-01	16.7963	42.242321	-0.000032	-0.320014	-0.108424	-0.002566
 421	2.1000e-01	16.8380	42.509587	0.000667	6.666953	2.258825	0.053453
 422	2.1050e-01	16.8878	42.560902	0.000128	1.280055	0.433694	0.010263
 423	2.1100e-01	16.9102	42.811491	0.000625	6.250935	2.117874	0.050118
 424	2.1150e-01	16.9471	42.840569	0.000073	0.725365	0.245760	0.005816
 425	2.1200e-01	17.0017	42.788826	-0.000129	-1.290722	-0.437308	-0.010349
 426	2.1250e-01	17.0129	42.970995	0.000454	4.544195	1.539615	0.036434
 427	2.1300e-01	17.0787	43.113822	0.000356	3.562820	1.207116	0.028565
 428	2.1350e-01	17.1188	43.017606	-0.000240	-2.400103	-0.813177	-0.019243
 429	2.1400e-01	17.1701	43.165137	0.000368	3.680158	1.246871	0.029506
 430	2.1450e-01	17.1894	43.418718	0.000633	6.325605	2.143173	0.050716
 431	2.1500e-01	17.2551	43.460626	0.000105	1.045378	0.354184	0.008381
 432	2.1550e-01	17.2952	43.533750	0.000182	1.824078	0.618014	0.014625
 433	2.1600e-01	17.3193	43.749273	0.000538	5.376231	1.821516	0.043105
 434	2.1650e-01	17.3658	43.756115	0.000017	0.170674	0.057826	0.001368
 435	2.1700e-01	17.4027	43.757398	0.000003	0.032001	0.010842	0.000257
 436	2.1750e-01	17.4380	43.991309	0.000583	5.834917	1.976924	0.046782
 437	2.1800e-01	17.4990	44.118741	0.000318	3.178803	1.077008	0.025486
 438	2.1850e-01	17.5086	44.132425	0.000034	0.341348	0.115652	0.002737
 439	2.1900e-01	17.5535	44.304330	0.000429	4.288184	1.452876	0.034381
 440	2.1950e-01	17.6032	44.318014	0.000034	0.341348	0.115652	0.002737
 441	2.2000e-01	17.6385	44.439888	0.000304	3.040131	1.030024	0.024375
 442	2.2050e-01	17.6995	44.524130	0.000210	2.101424	0.711982	0.016848
 443	2.2100e-01	17.7091	44.515150	-0.000022	-0.224010	-0.075897	-0.001796
 444	2.2150e-01	17.7845	44.689193	0.000434	4.341520	1.470947	0.034809
 445	2.2200e-01	17.7974	44.818764	0.000323	3.232139	1.095078	0.025914
 446	2.2250e-01	17.8359	44.947051	0.000320	3.200138	1.084236	0.025658
 447	2.2300e-01	17.8888	45.024879	0.000194	1.941417	0.657770	0.015566
 448	2.2350e-01	17.9225	45.136917	0.000279	2.794787	0.946899	0.022408
 449	2.2400e-01	17.9594	45.322079	0.000462	4.618865	1.564914	0.037032
 450	2.2450e-01	17.9947	45.372538	0.000126	1.258721	0.426466	0.010092
 451	2.2500e-01	18.0348	45.551713	0.000447	4.469525	1.514316	0.035835
 452	2.2550e-01	18.0829	45.502536	-0.000123	-1.226719	-0.415624	-0.009835
 453	2.2600e-01	18.0909	45.628258	0.000314	3.136135	1.062551	0.025144
 454	2.2650e-01	18.1551	45.828814	0.000500	5.002882	1.695022	0.040111
 455	2.2700e-01	18.2000	45.993450	0.000411	4.106843	1.391436	0.032927
 456	2.2750e-01	18.2481	45.815130	-0.000445	-4.448191	-1.507088	-0.035664
 457	2.2800e-01	18.2770	46.044765	0.000573	5.728246	1.940782	0.045927
 458	2.2850e-01	18.3107	46.168777	0.000309	3.093466	1.048095	0.024802
 459	2.2900e-01	18.3556	46.248315	0.000198	1.984085	0.672226	0.015908
 460	2.2950e-01	18.3717	46.332557	0.000210	2.101424	0.711982	0.016848
 461	2.3000e-01	18.4230	46.513015	0.000450	4.501527	1.525159	0.036092
 462	2.3050e-01	18.4567	46.677651	0.000411	4.106843	1.391436	0.032927
 463	2.3100e-01	18.5209	46.586994	-0.000226	-2.261431	-0.766193	-0.018131
 464	2.3150e-01	18.5594	46.621632	0.000086	0.864037	0.292744	0.006928
 465	2.3200e-01	18.5866	46.848701	0.000566	5.664243	1.919098	0.045414
 466	2.3250e-01	18.6364	46.911989	0.000158	1.578735	0.534890	0.012658
 467	2.3300e-01	18.6717	46.991528	0.000198	1.984085	0.672226	0.015908
 468	2.3350e-01	18.7246	47.155736	0.000410	4.096176	1.387822	0.032842
 469	2.3400e-01	18.7647	47.213893	0.000145	1.450729	0.491520	0.011631
 470	2.3450e-01	18.7808	47.416160	0.000505	5.045550	1.709479	0.040453
 471	2.3500e-01	18.8353	47.563690	0.000368	3.680158	1.246871	0.029506
 472	2.3550e-01	18.9011	47.509382	-0.000135	-1.354725	-0.458993	-0.010862
 473	2.3600e-01	18.9107	47.565401	0.000140	1.397393	0.473450	0.011204
 474	2.3650e-01	18.9636	47.698392	0.000332	3.317476	1.123991	0.026598
 475	2.3700e-01	18.9893	47.776648	0.000195	1.952084	0.661384	0.015651
 476	2.3750e-01	19.0487	47.893389	0.000291	2.912125	0.986655	0.023348
 477	2.3800e-01	19.0711	48.004144	0.000276	2.762785	0.936057	0.022151
 478	2.3850e-01	19.1128	48.126873	0.000306	3.061465	1.037252	0.024546
 479	2.3900e-01	19.1610	48.157662	0.000077	0.768033	0.260217	0.006158
 480	2.3950e-01	19.1962	48.228648	0.000177	1.770743	0.599944	0.014197
 481	2.4000e-01	19.2299	48.456999	0.000570	5.696245	1.929940	0.045670
 482	2.4050e-01	19.2861	48.426638	-0.000076	-0.757366	-0.256603	-0.006072
 483	2.4100e-01	19.3310	48.583577	0.000391	3.914835	1.326382	0.031388
 484	2.4150e-01	19.3342	48.795251	0.000528	5.280227	1.788989	0.042335
 485	2.4200e-01	19.4128	48.785843	-0.000023	-0.234677	-0.079511	-0.001882
 486	2.4250e-01	19.4160	49.208337	0.001054	10.539120	3.570750	0.084499
 487	2.4300e-01	19.4930	48.914131	-0.000734	-7.338982	-2.486514	-0.058841
 488	2.4350e-01	19.5235	49.152746	0.000595	5.952256	2.016679	0.047723
 489	2.4400e-01	19.5652	49.201495	0.000122	1.216052	0.412010	0.009750
 490	2.4450e-01	19.5957	49.291296	0.000224	2.240096	0.758965	0.017960
 491	2.4500e-01	19.6294	49.425143	0.000334	3.338810	1.131220	0.026769
 492	2.4550e-01	19.6855	49.413170	-0.000030	-0.298680	-0.101195	-0.002395
 493	2.4600e-01	19.7256	49.604746	0.000478	4.778872	1.619126	0.038315
 494	2.4650e-01	19.7385	49.652212	0.000118	1.184051	0.401167	0.009493
 495	2.4700e-01	19.7882	49.799315	0.000367	3.669491	1.243257	0.029421
 496	2.4750e-01	19.8283	50.015694	0.000540	5.397565	1.828745	0.043276
 497	2.4800e-01	19.8668	49.867735	-0.000369	-3.690825	-1.250485	-0.029592
 498	2.4850e-01	19.9214	49.975924	0.000270	2.698783	0.914372	0.021638
 499	2.4900e-01	19.9615	50.189309	0.000532	5.322895	1.803446	0.042677
 500	2.4950e-01	20.0016	50.202993	0.000034	0.341348	0.115652	0.002737
 501	2.5000e-01	20.0353	50.395425	0.000480	4.800206	1.626354	0.038486
 502	2.5050e-01	19.9743	50.192303	0.000507	5.066884	1.716707	-0.040624
 503	2.5100e-01	19.9567	50.049476	0.000356	3.562820	1.207116	-0.028565
 504	2.5150e-01	19.9198	50.088817	-0.000098	-0.981376	-0.332499	0.007868
 505	2.5200e-01	19.8476	50.065726	0.000058	0.576025	0.195162	-0.004618
 506	2.5250e-01	19.8395	49.878853	0.000466	4.661534	1.579370	-0.037374
 507	2.5300e-01	19.7930	49.821552	0.000143	1.429395	0.484292	-0.011460
 508	2.5350e-01	19.7433	49.760401	0.000153	1.525399	0.516819	-0.012230
 509	2.5400e-01	19.7080	49.685994	0.000186	1.856080	0.628857	-0.014881
 510	2.5450e-01	19.6727	49.600469	0.000213	2.133425	0.722824	-0.017105
 511	2.5500e-01	19.6150	49.553431	0.000117	1.173384	0.397553	-0.009408
 512	2.5550e-01	19.5941	49.217317	0.000838	8.384360	2.840698	-0.067223
 513	2.5600e-01	19.5781	49.235277	-0.000045	-0.448019	-0.151793	0.003592
 514	2.5650e-01	19.5123	49.024886	0.000525	5.248226	1.778147	-0.042078
 515	2.5700e-01	19.4626	49.109128	-0.000210	-2.101424	-0.711982	0.016848
 516	2.5750e-01	19.4224	49.103996	0.000013	0.128006	0.043369	-0.001026
 517	2.5800e-01	19.4000	48.787981	0.000788	7.883005	2.670835	-0.063203
 518	2.5850e-01	19.3438	48.973571	-0.000463	-4.629532	-1.568528	0.037118
 519	2.5900e-01	19.3102	48.829033	0.000361	3.605488	1.221572	-0.028907
 520	2.5950e-01	19.2684	48.531406	0.000742	7.424319	2.515427	-0.059525
 521	2.6000e-01	19.2155	48.496769	0.000086	0.864037	0.292744	-0.006928
 522	2.6050e-01	19.1914	48.403546	0.000233	2.325433	0.787878	-0.018644
 523	2.6100e-01	19.1385	48.449730	-0.000115	-1.152050	-0.390325	0.009237
 524	2.6150e-01	19.1064	48.256443	0.000482	4.821541	1.633582	-0.038657
 525	2.6200e-01	19.0743	48.316311	-0.000149	-1.493398	-0.505977	0.011974
 526	2.6250e-01	19.0037	48.102498	0.000533	5.333563	1.807060	-0.042763
 527	2.6300e-01	18.9957	47.962237	0.000350	3.498817	1.185431	-0.028052
 528	2.6350e-01	18.9364	48.074275	-0.000279	-2.794787	-0.946899	0.022408
 529	2.6400e-01	18.9187	47.814706	0.000647	6.474945	2.193771	-0.051914
 530	2.6450e-01	18.8658	47.829246	-0.000036	-0.362682	-0.122880	0.002908
 531	2.6500e-01	18.8209	47.598756	0.000575	5.749580	1.948011	-0.046098
 532	2.6550e-01	18.7984	47.526059	0.000181	1.813411	0.614400	-0.014539
 533	2.6600e-01	18.7615	47.394351	0.000329	3.285475	1.113149	-0.026342
 534	2.6650e-01	18.6957	47.366127	0.000070	0.704030	0.238532	-0.005645
 535	2.6700e-01	18.6588	47.358430	0.000019	0.192008	0.065054	-0.001539
 536	2.6750e-01	18.6284	47.124091	0.000585	5.845585	1.980538	-0.046868
 537	2.6800e-01	18.5866	47.130506	-0.000016	-0.160007	-0.054212	0.001283
 538	2.6850e-01	18.5578	46.985113	0.000363	3.626823	1.228801	-0.029079
 539	2.6900e-01	18.4904	46.896167	0.000222	2.218762	0.751737	-0.017789
 540	2.6950e-01	18.4727	46.707584	0.000470	4.704202	1.593827	-0.037717
 541	2.7000e-01	18.4182	46.723407	-0.000039	-0.394684	-0.133722	0.003164
 542	2.7050e-01	18.3861	46.530120	0.000482	4.821541	1.633582	-0.038657
 543	2.7100e-01	18.3540	46.581007	-0.000127	-1.269388	-0.430080	0.010177
 544	2.7150e-01	18.2947	46.400977	0.000449	4.490860	1.521544	-0.036006
 545	2.7200e-01	18.2834	46.291077	0.000274	2.741451	0.928829	-0.021980
 546	2.7250e-01	18.2193	46.273972	0.000043	0.426685	0.144565	-0.003421
 547	2.7300e-01	18.1904	46.259433	0.000036	0.362682	0.122880	-0.002908
 548	2.7350e-01	18.1503	46.034075	0.000562	5.621575	1.904641	-0.045072
 549	2.7400e-01	18.1006	45.946411	0.000219	2.186761	0.740895	-0.017533
 550	2.7450e-01	18.0540	45.879274	0.000167	1.674739	0.567417	-0.013427
 551	2.7500e-01	18.0364	45.748849	0.000325	3.253473	1.102307	-0.026085
 552	2.7550e-01	17.9834	45.697534	0.000128	1.280055	0.433694	-0.010263
 553	2.7600e-01	17.9321	45.523490	0.000434	4.341520	1.470947	-0.034809
 554	2.7650e-01	17.9000	45.452932	0.000176	1.760076	0.596330	-0.014112
 555	2.7700e-01	17.8760	45.437965	0.000037	0.373349	0.126494	-0.002993
 556	2.7750e-01	17.8294	45.279744	0.000395	3.946836	1.337224	-0.031644
 557	2.7800e-01	17.7845	45.228856	0.000127	1.269388	0.430080	-0.010177
 558	2.7850e-01	17.7492	45.075339	0.000383	3.829498	1.297469	-0.030703
 559	2.7900e-01	17.7107	45.032149	0.000108	1.077380	0.365026	-0.008638
 560	2.7950e-01	17.6514	44.982544	0.000124	1.237387	0.419238	-0.009921
 561	2.8000e-01	17.6097	44.887611	0.000237	2.368102	0.802335	-0.018987
 562	2.8050e-01	17.5631	44.817053	0.000176	1.760076	0.596330	-0.014112
 563	2.8100e-01	17.5631	44.608800	0.000519	5.194890	1.760076	-0.041651
 564	2.8150e-01	17.5198	44.508308	0.000251	2.506774	0.849318	-0.020098
 565	2.8200e-01	17.4589	44.489492	0.000047	0.469354	0.159021	-0.003763
 566	2.8250e-01	17.4188	44.312028	0.000443	4.426857	1.499860	-0.035493
 567	2.8300e-01	17.3722	44.236338	0.000189	1.888081	0.639699	-0.015138
 568	2.8350e-01	17.3353	44.110189	0.000315	3.146802	1.066165	-0.025230
 569	2.8400e-01	17.3081	44.100781	0.000023	0.234677	0.079511	-0.001882
 570	2.8450e-01	17.2535	43.919895	0.000451	4.512194	1.528773	-0.036177
 571	2.8500e-01	17.1797	43.945553	-0.000064	-0.640028	-0.216847	0.005132
 572	2.8550e-01	17.1797	43.886541	0.000147	1.472063	0.498749	-0.011802
 573	2.8600e-01	17.1380	43.748418	0.000345	3.445481	1.167361	-0.027625
 574	2.8650e-01	17.1075	43.600459	0.000369	3.690825	1.250485	-0.029592
 575	2.8700e-01	17.0610	43.602597	-0.000005	-0.053336	-0.018071	0.000428
 576	2.8750e-01	17.0450	43.397765	0.000511	5.109553	1.731163	-0.040967
 577	2.8800e-01	16.9792	43.349443	0.000121	1.205385	0.408396	-0.009664
 578	2.8850e-01	16.9551	43.260497	0.000222	2.218762	0.751737	-0.017789
 579	2.8900e-01	16.8974	43.194215	0.000165	1.653404	0.560189	-0.013256
 580	2.8950e-01	16.8813	43.003067	0.000477	4.768205	1.615512	-0.038230
 581	2.9000e-01	16.8316	42.869648	0.000333	3.328143	1.127605	-0.026684
 582	2.9050e-01	16.7899	42.856391	0.000033	0.330681	0.112038	-0.002651
 583	2.9100e-01	16.7482	42.701591	0.000386	3.861499	1.308311	-0.030960
 584	2.9150e-01	16.7161	42.687052	0.000036	0.362682	0.122880	-0.002908
 585	2.9200e-01	16.6503	42.551067	0.000339	3.392146	1.149290	-0.027197
 586	2.9250e-01	16.6311	42.476660	0.000186	1.856080	0.628857	-0.014881
 587	2.9300e-01	16.5797	42.351793	0.000311	3.114801	1.055323	-0.024973
 588	2.9350e-01	16.5461	42.245315	0.000266	2.656114	0.899916	-0.021296
 589	2.9400e-01	16.4995	42.229065	0.000041	0.405351	0.137337	-0.003250
 590	2.9450e-01	16.4514	42.063146	0.000414	4.138845	1.402278	-0.033184
 591	2.9500e-01	16.4161	41.963510	0.000249	2.485440	0.842090	-0.019927
 592	2.9550e-01	16.3824	41.916898	0.000116	1.162717	0.393939	-0.009322
 593	2.9600e-01	16.3568	41.730026	0.000466	4.661534	1.579370	-0.037374
 594	2.9650e-01	16.2765	41.860024	-0.000324	-3.242806	-1.098692	0.026000
 595	2.9700e-01	16.2621	41.640653	0.000547	5.472235	1.854043	-0.043874
 596	2.9750e-01	16.2220	41.638514	0.000005	0.053336	0.018071	-0.000428
 597	2.9800e-01	16.1707	41.489701	0.000371	3.712160	1.257714	-0.029763
 598	2.9850e-01	16.1466	41.160002	0.000822	8.224353	2.786486	-0.065940
 599	2.9900e-01	16.1017	41.347729	-0.000468	-4.682868	-1.586599	0.037545
 600	2.9950e-01	16.0728	41.032997	0.000785	7.851004	2.659992	-0.062946
 601	3.0000e-01	16.0183	41.033852	-0.000002	-0.021334	-0.007228	0.000171
 602	3.0050e-01	15.9782	40.809349	0.000560	5.600241	1.897413	-0.044901
 603	3.0100e-01	15.9445	40.773001	0.000091	0.906706	0.307200	-0.007270
 604	3.0150e-01	15.9044	40.663956	0.000272	2.720117	0.921601	-0.021809
 605	3.0200e-01	15.8787	40.583135	0.000202	2.016087	0.683069	-0.016164
 606	3.0250e-01	15.8290	40.426624	0.000390	3.904168	1.322768	-0.031302
 607	3.0300e-01	15.7712	40.435177	-0.000021	-0.213343	-0.072282	0.001711
 608	3.0350e-01	15.7568	40.281659	0.000383	3.829498	1.297469	-0.030703
 609	3.0400e-01	15.6782	40.298764	-0.000043	-0.426685	-0.144565	0.003421
 610	3.0450e-01	15.6621	40.187154	0.000278	2.784120	0.943285	-0.022322
 611	3.0500e-01	15.6108	40.079393	0.000269	2.688116	0.910758	-0.021552
 612	3.0550e-01	15.5883	39.821535	0.000643	6.432276	2.179314	-0.051572
 613	3.0600e-01	15.5370	39.865580	-0.000110	-1.098714	-0.372254	0.008809
 614	3.0650e-01	15.5017	39.838212	0.000068	0.682696	0.231304	-0.005474
 615	3.0700e-01	15.4696	39.629959	0.000519	5.194890	1.760076	-0.041651
 616	3.0750e-01	15.4263	39.496539	0.000333	3.328143	1.127605	-0.026684
 617	3.0800e-01	15.3958	39.357561	0.000347	3.466816	1.174589	-0.027796
 618	3.0850e-01	15.3493	39.320358	0.000093	0.928040	0.314428	-0.007441
 619	3.0900e-01	15.3076	39.217300	0.000257	2.570777	0.871003	-0.020612
 620	3.0950e-01	15.2659	39.117663	0.000249	2.485440	0.842090	-0.019927
 621	3.1000e-01	15.2466	39.045395	0.000180	1.802744	0.610786	-0.014454
 622	3.1050e-01	15.1744	39.113815	-0.000171	-1.706740	-0.578259	0.013684
 623	3.1100e-01	15.1424	38.783688	0.000824	8.235021	2.790100	-0.066025
 624	3.1150e-01	15.1039	38.729807	0.000134	1.344058	0.455379	-0.010776
 625	3.1200e-01	15.0605	38.742636	-0.000032	-0.320014	-0.108424	0.002566
 626	3.1250e-01	15.0076	38.695597	0.000117	1.173384	0.397553	-0.009408
 627	3.1300e-01	14.9883	38.373595	0.000803	8.032345	2.721432	-0.064400
 628	3.1350e-01	14.9418	38.386424	-0.000032	-0.320014	-0.108424	0.002566
 629	3.1400e-01	14.9081	38.373595	0.000032	0.320014	0.108424	-0.002566
 630	3.1450e-01	14.8600	38.120869	0.000630	6.304271	2.135945	-0.050545
 631	3.1500e-01	14.8440	37.989160	0.000329	3.285475	1.113149	-0.026342
 632	3.1550e-01	14.7910	37.987022	0.000005	0.053336	0.018071	-0.000428
 633	3.1600e-01	14.7557	37.830939	0.000389	3.893501	1.319154	-0.031217
 634	3.1650e-01	14.7044	37.644494	0.000465	4.650867	1.575756	-0.037289
 635	3.1700e-01	14.6627	37.586337	0.000145	1.450729	0.491520	-0.011631
 636	3.1750e-01	14.6258	37.636369	-0.000125	-1.248054	-0.422852	0.010006
 637	3.1800e-01	14.5985	37.399893	0.000590	5.898920	1.998608	-0.047295
 638	3.1850e-01	14.5504	37.329335	0.000176	1.760076	0.596330	-0.014112
 639	3.1900e-01	14.5103	37.251079	0.000195	1.952084	0.661384	-0.015651
 640	3.1950e-01	14.4782	37.117660	0.000333	3.328143	1.127605	-0.026684
 641	3.2000e-01	14.4285	37.122792	-0.000013	-0.128006	-0.043369	0.001026
 642	3.2050e-01	14.3707	37.052233	0.000176	1.760076	0.596330	-0.014112
 643	3.2100e-01	14.3402	36.832862	0.000547	5.472235	1.854043	-0.043874
 644	3.2150e-01	14.3210	36.700298	0.000331	3.306809	1.120377	-0.026513
 645	3.2200e-01	14.2472	36.743488	-0.000108	-1.077380	-0.365026	0.008638
 646	3.2250e-01	14.2263	36.571583	0.000429	4.288184	1.452876	-0.034381
 647	3.2300e-01	14.1862	36.418065	0.000383	3.829498	1.297469	-0.030703
 648	3.2350e-01	14.1301	36.519840	-0.000254	-2.538776	-0.860161	0.020355
 649	3.2400e-01	14.0980	36.368461	0.000378	3.776162	1.279398	-0.030276
 650	3.2450e-01	14.0691	36.227344	0.000352	3.520151	1.192660	-0.028223
 651	3.2500e-01	14.0146	36.191851	0.000089	0.885371	0.299972	-0.007099
 652	3.2550e-01	13.9921	36.068268	0.000308	3.082799	1.044481	-0.024717
 653	3.2600e-01	13.9456	35.926724	0.000353	3.530818	1.196274	-0.028309
 654	3.2650e-01	13.8911	35.656037	0.000675	6.752290	2.287738	-0.054137
 655	3.2700e-01	13.8638	35.783897	-0.000319	-3.189470	-1.080622	0.025572
 656	3.2750e-01	13.8526	35.348574	0.001086	10.859133	3.679174	-0.087065
 657	3.2800e-01	13.7836	35.494822	-0.000365	-3.648157	-1.236029	0.029250
 658	3.2850e-01	13.7354	35.412290	0.000206	2.058755	0.697525	-0.016506
 659	3.2900e-01	13.6841	35.336173	0.000190	1.898748	0.643313	-0.015223
 660	3.2950e-01	13.6697	35.180090	0.000389	3.893501	1.319154	-0.031217
 661	3.3000e-01	13.6408	35.088150	0.000229	2.293432	0.777036	-0.018388
 662	3.3050e-01	13.5927	35.014599	0.000183	1.834746	0.621629	-0.014710
 663	3.3100e-01	13.5510	34.886739	0.000319	3.189470	1.080622	-0.025572
 664	3.3150e-01	13.4964	34.841838	0.000112	1.120048	0.379483	-0.008980
 665	3.3200e-01	13.4659	34.629736	0.000529	5.290894	1.792603	-0.042420
 666	3.3250e-01	13.4226	34.586974	0.000107	1.066713	0.361412	-0.008553
 667	3.3300e-01	13.3825	34.504442	0.000206	2.058755	0.697525	-0.016506
 668	3.3350e-01	13.3472	34.289346	0.000537	5.365564	1.817902	-0.043019
 669	3.3400e-01	13.2895	34.209381	0.000199	1.994752	0.675840	-0.015993
 670	3.3450e-01	13.2574	34.253426	-0.000110	-1.098714	-0.372254	0.008809
 671	3.3500e-01	13.2253	34.119579	0.000334	3.338810	1.131220	-0.026769
 672	3.3550e-01	13.1948	33.874122	0.000612	6.122930	2.074505	-0.049091
 673	3.3600e-01	13.1579	33.863859	0.000026	0.256011	0.086739	-0.002053
 674	3.3650e-01	13.0793	33.694947	0.000421	4.213514	1.427577	-0.033782
 675	3.3700e-01	13.0697	33.667579	0.000068	0.682696	0.231304	-0.005474
 676	3.3750e-01	13.0248	33.575640	0.000229	2.293432	0.777036	-0.018388
 677	3.3800e-01	12.9895	33.469161	0.000266	2.656114	0.899916	-0.021296
 678	3.3850e-01	12.9478	33.365676	0.000258	2.581444	0.874617	-0.020697
 679	3.3900e-01	12.9333	33.090713	0.000686	6.858961	2.323879	-0.054993
 680	3.3950e-01	12.8708	33.297683	-0.000516	-5.162889	-1.749234	0.041394
 681	3.4000e-01	12.8226	33.155284	0.000355	3.552153	1.203502	-0.028480
 682	3.4050e-01	12.7585	32.967129	0.000469	4.693535	1.590213	-0.037631
 683	3.4100e-01	12.7344	32.871769	0.000238	2.378769	0.805949	-0.019072
 684	3.4150e-01	12.7071	32.880321	-0.000021	-0.213343	-0.072282	0.001711
 685	3.4200e-01	12.6574	32.586970	0.000732	7.317648	2.479286	-0.058670
 686	3.4250e-01	12.6205	32.715258	-0.000320	-3.200138	-1.084236	0.025658
 687	3.4300e-01	12.5772	32.499307	0.000539	5.386898	1.825131	-0.043190
 688	3.4350e-01	12.5387	32.433025	0.000165	1.653404	0.560189	-0.013256
 689	3.4400e-01	12.5098	32.203390	0.000573	5.728246	1.940782	-0.045927
 690	3.4450e-01	12.4697	32.125135	0.000195	1.952084	0.661384	-0.015651
 691	3.4500e-01	12.4296	31.913033	0.000529	5.290894	1.792603	-0.042420
 692	3.4550e-01	12.3767	31.940828	-0.000069	-0.693363	-0.234918	0.005559
 693	3.4600e-01	12.3414	31.868987	0.000179	1.792077	0.607172	-0.014368
 694	3.4650e-01	12.3093	31.712904	0.000389	3.893501	1.319154	-0.031217
 695	3.4700e-01	12.2740	31.593597	0.000298	2.976128	1.008339	-0.023861
 696	3.4750e-01	12.2403	31.660734	-0.000167	-1.674739	-0.567417	0.013427
 697	3.4800e-01	12.1986	31.346429	0.000784	7.840337	2.656378	-0.062861
 698	3.4850e-01	12.1585	31.160412	0.000464	4.640199	1.572142	-0.037203
 699	3.4900e-01	12.0991	31.213438	-0.000132	-1.322724	-0.448151	0.010605
 700	3.4950e-01	12.0590	31.249358	-0.000090	-0.896039	-0.303586	0.007184
 701	3.5000e-01	12.0269	31.048802	0.000500	5.002882	1.695022	-0.040111
 702	3.5050e-01	11.9836	30.918376	0.000325	3.253473	1.102307	-0.026085
 703	3.5100e-01	11.9451	30.863213	0.000138	1.376059	0.466221	-0.011033
 704	3.5150e-01	11.9002	30.786240	0.000192	1.920083	0.650542	-0.015395
 705	3.5200e-01	11.8697	30.612197	0.000434	4.341520	1.470947	-0.034809
 706	3.5250e-01	11.8248	30.430884	0.000452	4.522861	1.532387	-0.036263
 707	3.5300e-01	11.7767	30.558744	-0.000319	-3.189470	-1.080622	0.025572
 708	3.5350e-01	11.7366	30.361181	0.000493	4.928212	1.669723	-0.039513
 709	3.5400e-01	11.6949	30.237597	0.000308	3.082799	1.044481	-0.024717
 710	3.5450e-01	11.6692	30.088783	0.000371	3.712160	1.257714	-0.029763
 711	3.5500e-01	11.6307	30.138388	-0.000124	-1.237387	-0.419238	0.009921
 712	3.5550e-01	11.5649	29.935266	0.000507	5.066884	1.716707	-0.040624
 713	3.5600e-01	11.5425	29.767209	0.000419	4.192180	1.420349	-0.033611
 714	3.5650e-01	11.5056	29.739414	0.000069	0.693363	0.234918	-0.005559
 715	3.5700e-01	11.4638	29.463595	0.000688	6.880296	2.331107	-0.055164
 716	3.5750e-01	11.4302	29.442214	0.000053	0.533356	0.180706	-0.004276
 717	3.5800e-01	11.4045	29.286558	0.000388	3.882834	1.315540	-0.031131
 718	3.5850e-01	11.3387	29.329321	-0.000107	-1.066713	-0.361412	0.008553
 719	3.5900e-01	11.3002	29.212152	0.000292	2.922792	0.990269	-0.023434
 720	3.5950e-01	11.2745	29.035542	0.000441	4.405523	1.492631	-0.035322
 721	3.6000e-01	11.2425	29.035542	-0.000000	-0.000000	-0.000000	0.000000
 722	3.6050e-01	11.1847	28.876466	0.000397	3.968171	1.344453	-0.031815
 723	3.6100e-01	11.1446	28.678048	0.000495	4.949546	1.676952	-0.039684
 724	3.6150e-01	11.0949	28.671633	0.000016	0.160007	0.054212	-0.001283
 725	3.6200e-01	11.0612	28.612621	0.000147	1.472063	0.498749	-0.011802
 726	3.6250e-01	11.0227	28.433874	0.000446	4.458858	1.510702	-0.035749
 727	3.6300e-01	10.9922	28.237594	0.000490	4.896210	1.658881	-0.039256
 728	3.6350e-01	10.9457	28.324829	-0.000218	-2.176094	-0.737280	0.017447
 729	3.6400e-01	10.9216	28.006248	0.000795	7.947008	2.692519	-0.063716
 730	3.6450e-01	10.8607	28.083221	-0.000192	-1.920083	-0.650542	0.015395
 731	3.6500e-01	10.8125	27.934835	0.000370	3.701492	1.254100	-0.029677
 732	3.6550e-01	10.7901	27.774048	0.000401	4.010839	1.358909	-0.032157
 733	3.6600e-01	10.7307	27.750528	0.000059	0.586692	0.198777	-0.004704
 734	3.6650e-01	10.6970	27.682536	0.000170	1.696073	0.574645	-0.013598
 735	3.6700e-01	10.6633	27.550827	0.000329	3.285475	1.113149	-0.026342
 736	3.6750e-01	10.6313	27.373363	0.000443	4.426857	1.499860	-0.035493
 737	3.6800e-01	10.5863	27.375929	-0.000006	-0.064003	-0.021685	0.000513
 738	3.6850e-01	10.5414	27.220701	0.000387	3.872166	1.311925	-0.031046
 739	3.6900e-01	10.5125	26.982513	0.000594	5.941589	2.013065	-0.047637
 740	3.6950e-01	10.4612	27.138169	-0.000388	-3.882834	-1.315540	0.031131
 741	3.7000e-01	10.4163	26.921791	0.000540	5.397565	1.828745	-0.043276
 742	3.7050e-01	10.3986	26.805477	0.000290	2.901458	0.983041	-0.023263
 743	3.7100e-01	10.3377	26.748175	0.000143	1.429395	0.484292	-0.011460
 744	3.7150e-01	10.3200	26.520250	0.000569	5.685578	1.926326	-0.045585
 745	3.7200e-01	10.2815	26.453113	0.000167	1.674739	0.567417	-0.013427
 746	3.7250e-01	10.2286	26.351766	0.000253	2.528109	0.856546	-0.020269
 747	3.7300e-01	10.1917	26.181144	0.000426	4.256183	1.442034	-0.034124
 748	3.7350e-01	10.1404	26.008383	0.000431	4.309519	1.460104	-0.034552
 749	3.7400e-01	10.1067	26.002824	0.000014	0.138673	0.046984	-0.001112
 750	3.7450e-01	10.0810	25.854010	0.000371	3.712160	1.257714	-0.029763
 751	3.7500e-01	10.0409	25.797564	0.000141	1.408061	0.477064	-0.011289
 752	3.7550e-01	9.9944	25.708190	0.000223	2.229429	0.755351	-0.017875
 753	3.7600e-01	9.9527	25.610264	0.000244	2.442772	0.827633	-0.019585
 754	3.7650e-01	9.9013	25.543127	0.000167	1.674739	0.567417	-0.013427
 755	3.7700e-01	9.8757	25.549113	-0.000015	-0.149340	-0.050598	0.001197
 756	3.7750e-01	9.8243	25.284841	0.000659	6.592283	2.233526	-0.052854
 757	3.7800e-01	9.7954	25.093693	0.000477	4.768205	1.615512	-0.038230
 758	3.7850e-01	9.7489	25.017575	0.000190	1.898748	0.643313	-0.015223
 759	3.7900e-01	9.7233	25.070173	-0.000131	-1.312056	-0.444537	0.010520
 760	3.7950e-01	9.6671	25.029549	0.000101	1.013377	0.343341	-0.008125
 761	3.8000e-01	9.6206	24.764421	0.000661	6.613618	2.240754	-0.053026
 762	3.8050e-01	9.5837	24.754586	0.000025	0.245344	0.083125	-0.001967
 763	3.8100e-01	9.5436	24.660081	0.000236	2.357435	0.798720	-0.018901
 764	3.8150e-01	9.4826	24.395808	0.000659	6.592283	2.233526	-0.052854
 765	3.8200e-01	9.4505	24.491169	-0.000238	-2.378769	-0.805949	0.019072
 766	3.8250e-01	9.4249	24.325678	0.000413	4.128177	1.398664	-0.033098
 767	3.8300e-01	9.3703	24.292750	0.000082	0.821369	0.278287	-0.006585
 768	3.8350e-01	9.3607	24.049004	0.000608	6.080261	2.060048	-0.048749
 769	3.8400e-01	9.3190	24.032754	0.000041	0.405351	0.137337	-0.003250
 770	3.8450e-01	9.2933	23.752660	0.000699	6.986967	2.367248	-0.056019
 771	3.8500e-01	9.2131	23.782166	-0.000074	-0.736032	-0.249374	0.005901
 772	3.8550e-01	9.1858	23.670983	0.000277	2.773453	0.939671	-0.022237
 773	3.8600e-01	9.1586	23.551248	0.000299	2.986795	1.011954	-0.023947
 774	3.8650e-01	9.1120	23.365659	0.000463	4.629532	1.568528	-0.037118
 775	3.8700e-01	9.0735	23.204872	0.000401	4.010839	1.358909	-0.032157
 776	3.8750e-01	9.0222	23.295101	-0.000225	-2.250763	-0.762579	0.018046
 777	3.8800e-01	8.9773	23.149708	0.000363	3.626823	1.228801	-0.029079
 778	3.8850e-01	8.9420	22.963263	0.000465	4.650867	1.575756	-0.037289
 779	3.8900e-01	8.9227	22.765273	0.000494	4.938879	1.673337	-0.039598
 780	3.8950e-01	8.8650	22.698991	0.000165	1.653404	0.560189	-0.013256
 781	3.9000e-01	8.8121	22.755010	-0.000140	-1.397393	-0.473450	0.011204
 782	3.9050e-01	8.7687	22.639551	0.000288	2.880124	0.975812	-0.023092
 783	3.9100e-01	8.7367	22.410344	0.000572	5.717579	1.937168	-0.045841
 784	3.9150e-01	8.6982	22.355180	0.000138	1.376059	0.466221	-0.011033
 785	3.9200e-01	8.6805	22.181564	0.000433	4.330853	1.467333	-0.034723
 786	3.9250e-01	8.6340	22.084066	0.000243	2.432105	0.824019	-0.019500
 787	3.9300e-01	8.5730	22.124690	-0.000101	-1.013377	-0.343341	0.008125
 788	3.9350e-01	8.5618	21.915582	0.000522	5.216224	1.767305	-0.041822
 789	3.9400e-01	8.4896	21.896766	0.000047	0.469354	0.159021	-0.003763
 790	3.9450e-01	8.4639	21.690651	0.000514	5.141554	1.742006	-0.041223
 791	3.9500e-01	8.4351	21.467858	0.000556	5.557572	1.882956	-0.044559
 792	3.9550e-01	8.3741	21.555949	-0.000220	-2.197428	-0.744509	0.017618
 793	3.9600e-01	8.3452	21.349406	0.000515	5.152221	1.745620	-0.041309
 794	3.9650e-01	8.3099	21.347268	0.000005	0.053336	0.018071	-0.000428
 795	3.9700e-01	8.2650	21.205724	0.000353	3.530818	1.196274	-0.028309
 796	3.9750e-01	8.2265	21.006023	0.000498	4.981547	1.687794	-0.039940
 797	3.9800e-01	8.1832	21.009444	-0.000009	-0.085337	-0.028913	0.000684
 798	3.9850e-01	8.1351	20.892702	0.000291	2.912125	0.986655	-0.023348
 799	3.9900e-01	8.0934	20.702836	0.000474	4.736204	1.604669	-0.037973
 800	3.9950e-01	8.0901	20.701981	0.000002	0.021334	0.007228	-0.000171
 801	4.0000e-01	7.9971	20.571128	0.000326	3.264140	1.105921	-0.026171
 802	4.0050e-01	7.9907	20.306000	0.000661	6.613618	2.240754	-0.053026
 803	4.0100e-01	7.9458	20.311987	-0.000015	-0.149340	-0.050598	0.001197
 804	4.0150e-01	7.9025	20.172581	0.000348	3.477483	1.178203	-0.027881
 805	4.0200e-01	7.8463	20.109292	0.000158	1.578735	0.534890	-0.012658
 806	4.0250e-01	7.8046	20.086628	0.000057	0.565358	0.191548	-0.004533
 807	4.0300e-01	7.7853	19.961334	0.000313	3.125468	1.058937	-0.025059
 808	4.0350e-01	7.7324	19.692785	0.000670	6.698955	2.269667	-0.053710
 809	4.0400e-01	7.6811	19.713739	-0.000052	-0.522689	-0.177092	0.004191
 810	4.0450e-01	7.6570	19.485815	0.000569	5.685578	1.926326	-0.045585
 811	4.0500e-01	7.6089	19.451177	0.000086	0.864037	0.292744	-0.006928
 812	4.0550e-01	7.5832	19.359238	0.000229	2.293432	0.777036	-0.018388
 813	4.0600e-01	7.5511	19.173648	0.000463	4.629532	1.568528	-0.037118
 814	4.0650e-01	7.4998	19.132169	0.000103	1.034711	0.350570	-0.008296
 815	4.0700e-01	7.4501	19.043223	0.000222	2.218762	0.751737	-0.017789
 816	4.0750e-01	7.4083	19.082992	-0.000099	-0.992043	-0.336113	0.007954
 817	4.0800e-01	7.3811	18.782799	0.000749	7.488322	2.537112	-0.060039
 818	4.0850e-01	7.3570	18.774246	0.000021	0.213343	0.072282	-0.001711
 819	4.0900e-01	7.2816	18.682307	0.000229	2.293432	0.777036	-0.018388
 820	4.0950e-01	7.2688	18.446685	0.000588	5.877586	1.991380	-0.047124
 821	4.1000e-01	7.2223	18.316260	0.000325	3.253473	1.102307	-0.026085
 822	4.1050e-01	7.1934	18.329088	-0.000032	-0.320014	-0.108424	0.002566
 823	4.1100e-01	7.1501	18.060540	0.000670	6.698955	2.269667	-0.053710
 824	4.1150e-01	7.1132	18.013929	0.000116	1.162717	0.393939	-0.009322
 825	4.1200e-01	7.0586	17.992975	0.000052	0.522689	0.177092	-0.004191
 826	4.1250e-01	7.0169	17.881792	0.000277	2.773453	0.939671	-0.022237
 827	4.1300e-01	6.9880	17.660282	0.000553	5.525571	1.872114	-0.044302
 828	4.1350e-01	6.9335	17.712453	-0.000130	-1.301389	-0.440923	0.010434
 829	4.1400e-01	6.9078	17.457160	0.000637	6.368274	2.157630	-0.051058
 830	4.1450e-01	6.8806	17.458871	-0.000004	-0.042669	-0.014456	0.000342
 831	4.1500e-01	6.8196	17.366504	0.000230	2.304099	0.780650	-0.018473
 832	4.1550e-01	6.7683	17.168513	0.000494	4.938879	1.673337	-0.039598
 833	4.1600e-01	6.7169	17.068021	0.000251	2.506774	0.849318	-0.020098
 834	4.1650e-01	6.7025	16.876445	0.000478	4.778872	1.619126	-0.038315
 835	4.1700e-01	6.6720	16.813584	0.000157	1.568067	0.531276	-0.012572
 836	4.1750e-01	6.6319	16.802038	0.000029	0.288012	0.097581	-0.002309
 837	4.1800e-01	6.5709	16.707533	0.000236	2.357435	0.798720	-0.018901
 838	4.1850e-01	6.5501	16.393229	0.000784	7.840337	2.656378	-0.062861
 839	4.1900e-01	6.5052	16.482175	-0.000222	-2.218762	-0.751737	0.017789
 840	4.1950e-01	6.4955	16.183265	0.000746	7.456320	2.526270	-0.059782
 841	4.2000e-01	6.4570	16.219613	-0.000091	-0.906706	-0.307200	0.007270
 842	4.2050e-01	6.3832	16.002379	0.000542	5.418900	1.835973	-0.043447
 843	4.2100e-01	6.3512	15.967742	0.000086	0.864037	0.292744	-0.006928
 844	4.2150e-01	6.3094	15.979715	-0.000030	-0.298680	-0.101195	0.002395
 845	4.2200e-01	6.2661	15.732975	0.000615	6.154931	2.085347	-0.049348
 846	4.2250e-01	6.2357	15.620937	0.000279	2.794787	0.946899	-0.022408
 847	4.2300e-01	6.1923	15.536268	0.000211	2.112091	0.715596	-0.016934
 848	4.2350e-01	6.1554	15.520018	0.000041	0.405351	0.137337	-0.003250
 849	4.2400e-01	6.1105	15.130451	0.000972	9.717751	3.292463	-0.077913
 850	4.2450e-01	6.0752	15.243344	-0.000282	-2.816121	-0.954128	0.022579
 851	4.2500e-01	6.0287	15.147984	0.000238	2.378769	0.805949	-0.019072
 852	4.2550e-01	5.9758	14.999170	0.000371	3.712160	1.257714	-0.029763
 853	4.2600e-01	5.9421	14.863613	0.000338	3.381479	1.145676	-0.027111
 854	4.2650e-01	5.9180	14.721214	0.000355	3.552153	1.203502	-0.028480
 855	4.2700e-01	5.8619	14.646807	0.000186	1.856080	0.628857	-0.014881
 856	4.2750e-01	5.8089	14.597203	0.000124	1.237387	0.419238	-0.009921
 857	4.2800e-01	5.7817	14.451382	0.000364	3.637490	1.232415	-0.029164
 858	4.2850e-01	5.7448	14.374410	0.000192	1.920083	0.650542	-0.015395
 859	4.2900e-01	5.7079	14.164018	0.000525	5.248226	1.778147	-0.042078
 860	4.2950e-01	5.6822	14.072506	0.000228	2.282765	0.773422	-0.018302
 861	4.3000e-01	5.6180	14.132802	-0.000150	-1.504065	-0.509591	0.012059
 862	4.3050e-01	5.5747	14.010928	0.000304	3.040131	1.030024	-0.024375
 863	4.3100e-01	5.5394	13.805668	0.000512	5.120220	1.734778	-0.041052
 864	4.3150e-01	5.5041	13.883068	-0.000193	-1.930750	-0.654156	0.015480
 865	4.3200e-01	5.4528	13.496495	0.000964	9.643081	3.267164	-0.077315
 866	4.3250e-01	5.4255	13.566626	-0.000175	-1.749409	-0.592716	0.014026
 867	4.3300e-01	5.3838	13.317748	0.000621	6.208267	2.103418	-0.049776
 868	4.3350e-01	5.3437	13.324162	-0.000016	-0.160007	-0.054212	0.001283
 869	4.3400e-01	5.3084	12.980351	0.000858	8.576369	2.905752	-0.068762
 870	4.3450e-01	5.2731	13.005154	-0.000062	-0.618693	-0.209619	0.004960
 871	4.3500e-01	5.2105	12.913642	0.000228	2.282765	0.773422	-0.018302
 872	4.3550e-01	5.1704	12.770387	0.000357	3.573487	1.210730	-0.028651
 873	4.3600e-01	5.1191	12.834531	-0.000160	-1.600069	-0.542118	0.012829
 874	4.3650e-01	5.1239	12.577101	-0.000642	-6.421609	-2.175700	-0.051486
 875	4.3700e-01	5.0662	12.420162	0.000391	3.914835	1.326382	-0.031388
 876	4.3750e-01	5.0293	12.381676	0.000096	0.960041	0.325271	-0.007697
 877	4.3800e-01	4.9779	12.339341	0.000106	1.056045	0.357798	-0.008467
 878	4.3850e-01	4.9731	11.894611	0.001109	11.093810	3.758685	-0.088946
 879	4.3900e-01	4.9009	12.045135	-0.000375	-3.754828	-1.272170	0.030105
 880	4.3950e-01	4.8576	11.909150	0.000339	3.392146	1.149290	-0.027197
 881	4.4000e-01	4.8223	11.791981	0.000292	2.922792	0.990269	-0.023434
 882	4.4050e-01	4.7902	11.708594	0.000208	2.080089	0.704753	-0.016677
 883	4.4100e-01	4.7453	11.572181	0.000340	3.402813	1.152904	-0.027282
 884	4.4150e-01	4.6876	11.535406	0.000092	0.917373	0.310814	-0.007355
 885	4.4200e-01	4.6571	11.401987	0.000333	3.328143	1.127605	-0.026684
 886	4.4250e-01	4.6122	11.242482	0.000398	3.978838	1.348067	-0.031901
 887	4.4300e-01	4.5913	11.215970	0.000066	0.661362	0.224075	-0.005303
 888	4.4350e-01	4.5400	11.001302	0.000535	5.354897	1.814288	-0.042934
 889	4.4400e-01	4.4967	11.046630	-0.000113	-1.130715	-0.383097	0.009066
 890	4.4450e-01	4.4582	10.862751	0.000459	4.586864	1.554072	-0.036776
 891	4.4500e-01	4.4325	10.672458	0.000475	4.746871	1.608283	-0.038059
 892	4.4550e-01	4.4084	10.503118	0.000422	4.224182	1.431191	-0.033868
 893	4.4600e-01	4.3378	10.520223	-0.000043	-0.426685	-0.144565	0.003421
 894	4.4650e-01	4.3090	10.505256	0.000037	0.373349	0.126494	-0.002993
 895	4.4700e-01	4.2528	10.373548	0.000329	3.285475	1.113149	-0.026342
 896	4.4750e-01	4.2336	10.096019	0.000692	6.922964	2.345564	-0.055506
 897	4.4800e-01	4.1694	10.046842	0.000123	1.226719	0.415624	-0.009835
 898	4.4850e-01	4.1357	9.917699	0.000322	3.221472	1.091464	-0.025829
 899	4.4900e-01	4.1052	9.794115	0.000308	3.082799	1.044481	-0.024717
 900	4.4950e-01	4.0667	9.706880	0.000218	2.176094	0.737280	-0.017447
 901	4.5000e-01	4.0282	9.447311	0.000647	6.474945	2.193771	-0.051914
 902	4.5050e-01	3.9673	9.565764	-0.000295	-2.954794	-1.001111	0.023690
 903	4.5100e-01	3.9175	9.573033	-0.000018	-0.181341	-0.061440	0.001454
 904	4.5150e-01	3.8967	9.291228	0.000703	7.029635	2.381705	-0.056361
 905	4.5200e-01	3.8518	9.117612	0.000433	4.330853	1.467333	-0.034723
 906	4.5250e-01	3.8133	9.117185	0.000001	0.010667	0.003614	-0.000086
 907	4.5300e-01	3.7828	8.981627	0.000338	3.381479	1.145676	-0.027111
 908	4.5350e-01	3.7459	8.855906	0.000314	3.136135	1.062551	-0.025144
 909	4.5400e-01	3.7058	8.588640	0.000667	6.666953	2.258825	-0.053453
 910	4.5450e-01	3.6593	8.563410	0.000063	0.629360	0.213233	-0.005046
 911	4.5500e-01	3.6175	8.410748	0.000381	3.808164	1.290241	-0.030532
 912	4.5550e-01	3.5871	8.349597	0.000153	1.525399	0.516819	-0.012230
 913	4.5600e-01	3.5454	8.151179	0.000495	4.949546	1.676952	-0.039684
 914	4.5650e-01	3.5020	8.058384	0.000231	2.314766	0.784264	-0.018559
 915	4.5700e-01	3.4651	7.980557	0.000194	1.941417	0.657770	-0.015566
 916	4.5750e-01	3.4315	7.909999	0.000176	1.760076	0.596330	-0.014112
 917	4.5800e-01	3.3817	7.703456	0.000515	5.152221	1.745620	-0.041309
 918	4.5850e-01	3.3528	7.581155	0.000305	3.050798	1.033638	-0.024460
 919	4.5900e-01	3.3031	7.562339	0.000047	0.469354	0.159021	-0.003763
 920	4.5950e-01	3.2614	7.341685	0.000550	5.504237	1.864886	-0.044131
 921	4.6000e-01	3.2261	7.334415	0.000018	0.181341	0.061440	-0.001454
 922	4.6050e-01	3.1908	7.333560	0.000002	0.021334	0.007228	-0.000171
 923	4.6100e-01	3.1315	7.056458	0.000691	6.912297	2.341950	-0.055420
 924	4.6150e-01	3.1106	7.008992	0.000118	1.184051	0.401167	-0.009493
 925	4.6200e-01	3.0705	7.084682	-0.000189	-1.888081	-0.639699	0.015138
 926	4.6250e-01	3.0176	6.772943	0.000778	7.776334	2.634693	-0.062348
 927	4.6300e-01	2.9807	6.599327	0.000433	4.330853	1.467333	-0.034723
 928	4.6350e-01	2.9454	6.545446	0.000134	1.344058	0.455379	-0.010776
 929	4.6400e-01	2.9117	6.461632	0.000209	2.090757	0.708367	-0.016763
 930	4.6450e-01	2.8796	6.159728	0.000753	7.530990	2.551569	-0.060381
 931	4.6500e-01	2.8299	6.171702	-0.000030	-0.298680	-0.101195	0.002395
 932	4.6550e-01	2.7962	6.173412	-0.000004	-0.042669	-0.014456	0.000342
 933	4.6600e-01	2.7432	5.889897	0.000707	7.072304	2.396161	-0.056703
 934	4.6650e-01	2.7240	5.908712	-0.000047	-0.469354	-0.159021	0.003763
 935	4.6700e-01	2.6646	5.739373	0.000422	4.224182	1.431191	-0.033868
 936	4.6750e-01	2.6325	5.664966	0.000186	1.856080	0.628857	-0.014881
 937	4.6800e-01	2.5812	5.540954	0.000309	3.093466	1.048095	-0.024802
 938	4.6850e-01	2.5186	5.471679	0.000173	1.728074	0.585487	-0.013855
 939	4.6900e-01	2.4994	5.395134	0.000191	1.909415	0.646927	-0.015309
 940	4.6950e-01	2.4609	5.096224	0.000746	7.456320	2.526270	-0.059782
 941	4.7000e-01	2.4256	5.181322	-0.000212	-2.122758	-0.719210	0.017019
 942	4.7050e-01	2.3935	4.788762	0.000979	9.792421	3.317762	-0.078512
 943	4.7100e-01	2.3165	4.915339	-0.000316	-3.157469	-1.069779	0.025315
 944	4.7150e-01	2.3133	4.680145	0.000587	5.866919	1.987766	-0.047039
 945	4.7200e-01	2.2572	4.643369	0.000092	0.917373	0.310814	-0.007355
 946	4.7250e-01	2.2267	4.559982	0.000208	2.080089	0.704753	-0.016677
 947	4.7300e-01	2.1818	4.398767	0.000402	4.021506	1.362523	-0.032243
 948	4.7350e-01	2.1417	4.406465	-0.000019	-0.192008	-0.065054	0.001539
 949	4.7400e-01	2.1096	4.057950	0.000869	8.693707	2.945508	-0.069703
 950	4.7450e-01	2.0518	4.055384	0.000006	0.064003	0.021685	-0.000513
 951	4.7500e-01	2.0069	4.054957	0.000001	0.010667	0.003614	-0.000086
 952	4.7550e-01	1.9716	3.975846	0.000197	1.973418	0.668612	-0.015822
 953	4.7600e-01	1.9540	3.689337	0.000715	7.146974	2.421460	-0.057302
 954	4.7650e-01	1.8930	3.572595	0.000291	2.912125	0.986655	-0.023348
 955	4.7700e-01	1.8529	3.625621	-0.000132	-1.322724	-0.448151	0.010605
 956	4.7750e-01	1.8224	3.322435	0.000756	7.562992	2.562411	-0.060637
 957	4.7800e-01	1.7999	3.254870	0.000169	1.685406	0.571031	-0.013513
 958	4.7850e-01	1.7422	3.055596	0.000497	4.970880	1.684180	-0.039855
 959	4.7900e-01	1.6957	3.021814	0.000084	0.842703	0.285515	-0.006756
 960	4.7950e-01	1.6748	2.938855	0.000207	2.069422	0.701139	-0.016592
 961	4.8000e-01	1.6235	2.656622	0.000704	7.040303	2.385319	-0.056447
 962	4.8050e-01	1.5786	2.675865	-0.000048	-0.480021	-0.162635	0.003849
 963	4.8100e-01	1.5320	2.672017	0.000010	0.096004	0.032527	-0.000770
 964	4.8150e-01	1.5128	2.406889	0.000661	6.613618	2.240754	-0.053026
 965	4.8200e-01	1.4550	2.509091	-0.000255	-2.549443	-0.863775	0.020440
 966	4.8250e-01	1.4165	2.278601	0.000575	5.749580	1.948011	-0.046098
 967	4.8300e-01	1.3764	2.180247	0.000245	2.453439	0.831248	-0.019671
 968	4.8350e-01	1.3363	2.075907	0.000260	2.602779	0.881845	-0.020868
 969	4.8400e-01	1.2834	2.026730	0.000123	1.226719	0.415624	-0.009835
 970	4.8450e-01	1.2625	1.846272	0.000450	4.501527	1.525159	-0.036092
 971	4.8500e-01	1.2321	1.621769	0.000560	5.600241	1.897413	-0.044901
 972	4.8550e-01	1.1887	1.575585	0.000115	1.152050	0.390325	-0.009237
 973	4.8600e-01	1.1246	1.563612	0.000030	0.298680	0.101195	-0.002395
 974	4.8650e-01	1.1133	1.354931	0.000521	5.205557	1.763690	-0.041736
 975	4.8700e-01	1.0796	1.217235	0.000343	3.434814	1.163747	-0.027539
 976	4.8750e-01	1.0107	1.274537	-0.000143	-1.429395	-0.484292	0.011460
 977	4.8800e-01	0.9914	1.031218	0.000607	6.069594	2.056434	-0.048664
 978	4.8850e-01	0.9529	0.781485	0.000623	6.229601	2.110646	-0.049947
 979	4.8900e-01	0.9096	0.728032	0.000133	1.333391	0.451765	-0.010691
 980	4.8950e-01	0.8743	0.660040	0.000170	1.696073	0.574645	-0.013598
 981	4.9000e-01	0.8262	0.545864	0.000285	2.848122	0.964970	-0.022835
 982	4.9050e-01	0.7845	0.482575	0.000158	1.578735	0.534890	-0.012658
 983	4.9100e-01	0.7460	0.384221	0.000245	2.453439	0.831248	-0.019671
 984	4.9150e-01	0.6930	0.329485	0.000137	1.365392	0.462607	-0.010947
 985	4.9200e-01	0.6513	0.024588	0.000761	7.605660	2.576867	-0.060979
 986	4.9250e-01	0.6208	0.025444	-0.000002	-0.021334	-0.007228	0.000171
 987	4.9300e-01	0.5711	0.001497	0.000060	0.597359	0.202391	-0.004789
 988	4.9350e-01	0.5438	-0.259355	0.000651	6.506946	2.204613	-0.052170
 989	4.9400e-01	0.5182	-0.302545	0.000108	1.077380	0.365026	-0.008638
 990	4.9450e-01	0.4476	-0.461621	0.000397	3.968171	1.344453	-0.031815
 991	4.9500e-01	0.4107	-0.522772	0.000153	1.525399	0.516819	-0.012230
 992	4.9550e-01	0.3882	-0.602310	0.000198	1.984085	0.672226	-0.015908
 993	4.9600e-01	0.3385	-0.852899	0.000625	6.250935	2.117874	-0.050118
 994	4.9650e-01	0.3144	-0.876418	0.000059	0.586692	0.198777	-0.004704
 995	4.9700e-01	0.2599	-1.026087	0.000373	3.733494	1.264942	-0.029934
 996	4.9750e-01	0.2166	-1.077402	0.000128	1.280055	0.433694	-0.010263
 997	4.9800e-01	0.1813	-1.196282	0.000297	2.965461	1.004725	-0.023776
 998	4.9850e-01	0.1492	-1.379733	0.000458	4.576197	1.550457	-0.036690
 999	4.9900e-01	0.1091	-1.454995	0.000188	1.877414	0.636085	-0.015052
1000	4.9950e-01	0.0690	-1.514435	0.000148	1.482730	0.502363	-0.011888
1001	5.0000e-01	0.0578	-1.924100	0.001022	10.219106	3.462327	-0.081933
1002	5.0050e-01	-0.0032	-1.868081	-0.000140	-1.397393	-0.473450	0.011204
1003	5.0100e-01	-0.0658	-1.911271	0.000108	1.077380	0.365026	-0.008638
1004	5.0150e-01	-0.1027	-2.020743	0.000273	2.730784	0.925215	-0.021894
1005	5.0200e-01	-0.1155	-2.178537	0.000394	3.936169	1.333610	-0.031559
1006	5.0250e-01	-0.1717	-2.306397	0.000319	3.189470	1.080622	-0.025572
1007	5.0300e-01	-0.2214	-2.321364	0.000037	0.373349	0.126494	-0.002993
1008	5.0350e-01	-0.2695	-2.480868	0.000398	3.978838	1.348067	-0.031901
1009	5.0400e-01	-0.2984	-2.394915	-0.000214	-2.144092	-0.726438	0.017191
1010	5.0450e-01	-0.3241	-2.657477	0.000655	6.549615	2.219070	-0.052512
1011	5.0500e-01	-0.3946	-2.738298	0.000202	2.016087	0.683069	-0.016164
1012	5.0550e-01	-0.4059	-2.994446	0.000639	6.389608	2.164858	-0.051230
1013	5.0600e-01	-0.4508	-2.997439	0.000007	0.074670	0.025299	-0.000599
1014	5.0650e-01	-0.4957	-3.085958	0.000221	2.208095	0.748123	-0.017704
1015	5.0700e-01	-0.5198	-3.260001	0.000434	4.341520	1.470947	-0.034809
1016	5.0750e-01	-0.5647	-3.304047	0.000110	1.098714	0.372254	-0.008809
1017	5.0800e-01	-0.6289	-3.211680	-0.000230	-2.304099	-0.780650	0.018473
1018	5.0850e-01	-0.6417	-3.591838	0.000948	9.483074	3.212953	-0.076032
1019	5.0900e-01	-0.6898	-3.642726	0.000127	1.269388	0.430080	-0.010177
1020	5.0950e-01	-0.7043	-3.924959	0.000704	7.040303	2.385319	-0.056447
1021	5.1000e-01	-0.7540	-4.009201	0.000210	2.101424	0.711982	-0.016848
1022	5.1050e-01	-0.8182	-3.981833	-0.000068	-0.682696	-0.231304	0.005474
1023	5.1100e-01	-0.8663	-4.009201	0.000068	0.682696	0.231304	-0.005474
1024	5.1150e-01	-0.8855	-4.321367	0.000779	7.787001	2.638307	-0.062433
1025	5.1200e-01	-0.9144	-4.343604	0.000055	0.554691	0.187934	-0.004447
1026	5.1250e-01	-0.9545	-4.548009	0.000510	5.098886	1.727549	-0.040881
1027	5.1300e-01	-1.0042	-4.639093	0.000227	2.272098	0.769808	-0.018217
1028	5.1350e-01	-1.0411	-4.748992	0.000274	2.741451	0.928829	-0.021980
1029	5.1400e-01	-1.0989	-4.762676	0.000034	0.341348	0.115652	-0.002737
1030	5.1450e-01	-1.1326	-5.000864	0.000594	5.941589	2.013065	-0.047637
1031	5.1500e-01	-1.1567	-5.173624	0.000431	4.309519	1.460104	-0.034552
1032	5.1550e-01	-1.2016	-5.055172	-0.000295	-2.954794	-1.001111	0.023690
1033	5.1600e-01	-1.2401	-5.344247	0.000721	7.210977	2.443145	-0.057815
1034	5.1650e-01	-1.2834	-5.364773	0.000051	0.512022	0.173478	-0.004105
1035	5.1700e-01	-1.3267	-5.564474	0.000498	4.981547	1.687794	-0.039940
1036	5.1750e-01	-1.3668	-5.573882	0.000023	0.234677	0.079511	-0.001882
1037	5.1800e-01	-1.4230	-5.563191	-0.000027	-0.266678	-0.090353	0.002138
1038	5.1850e-01	-1.4502	-5.775721	0.000530	5.301561	1.796218	-0.042506
1039	5.1900e-01	-1.4743	-5.938218	0.000405	4.053508	1.373366	-0.032500
1040	5.1950e-01	-1.5353	-5.960027	0.000054	0.544023	0.184320	-0.004362
1041	5.2000e-01	-1.5866	-6.071637	0.000278	2.784120	0.943285	-0.022322
1042	5.2050e-01	-1.5994	-6.383804	0.000779	7.787001	2.638307	-0.062433
1043	5.2100e-01	-1.6668	-6.353870	-0.000075	-0.746699	-0.252988	0.005987
1044	5.2150e-01	-1.7005	-6.428277	0.000186	1.856080	0.628857	-0.014881
1045	5.2200e-01	-1.7374	-6.579656	0.000378	3.776162	1.279398	-0.030276
1046	5.2250e-01	-1.7679	-6.649359	0.000174	1.738741	0.589102	-0.013941
1047	5.2300e-01	-1.8176	-6.726332	0.000192	1.920083	0.650542	-0.015395
1048	5.2350e-01	-1.8513	-6.983335	0.000641	6.410942	2.172086	-0.051401
1049	5.2400e-01	-1.8786	-7.081261	0.000244	2.442772	0.827633	-0.019585
1050	5.2450e-01	-1.9187	-7.178332	0.000242	2.421437	0.820405	-0.019414
1051	5.2500e-01	-1.9668	-7.203562	0.000063	0.629360	0.213233	-0.005046
1052	5.2550e-01	-2.0069	-7.486649	0.000706	7.061637	2.392547	-0.056618
1053	5.2600e-01	-2.0518	-7.358362	-0.000320	-3.200138	-1.084236	0.025658
1054	5.2650e-01	-2.0759	-7.721843	0.000907	9.067056	3.072002	-0.072696
1055	5.2700e-01	-2.1513	-7.717995	-0.000010	-0.096004	-0.032527	0.000770
1056	5.2750e-01	-2.1737	-7.874933	0.000391	3.914835	1.326382	-0.031388
1057	5.2800e-01	-2.2138	-7.885624	0.000027	0.266678	0.090353	-0.002138
1058	5.2850e-01	-2.2556	-8.075917	0.000475	4.746871	1.608283	-0.038059
1059	5.2900e-01	-2.2876	-8.021181	-0.000137	-1.365392	-0.462607	0.010947
1060	5.2950e-01	-2.3326	-8.167001	0.000364	3.637490	1.232415	-0.029164
1061	5.3000e-01	-2.3839	-8.392360	0.000562	5.621575	1.904641	-0.045072
1062	5.3050e-01	-2.4112	-8.421866	0.000074	0.736032	0.249374	-0.005901
1063	5.3100e-01	-2.4529	-8.640382	0.000545	5.450901	1.846815	-0.043703
1064	5.3150e-01	-2.4785	-8.844360	0.000509	5.088219	1.723935	-0.040795
1065	5.3200e-01	-2.5283	-8.842649	-0.000004	-0.042669	-0.014456	0.000342
1066	5.3250e-01	-2.5748	-8.890116	0.000118	1.184051	0.401167	-0.009493
1067	5.3300e-01	-2.5989	-9.139849	0.000623	6.229601	2.110646	-0.049947
1068	5.3350e-01	-2.6759	-9.068008	-0.000179	-1.792077	-0.607172	0.014368
1069	5.3400e-01	-2.7128	-9.281820	0.000533	5.333563	1.807060	-0.042763
1070	5.3450e-01	-2.7400	-9.323300	0.000103	1.034711	0.350570	-0.008296
1071	5.3500e-01	-2.7625	-9.469548	0.000365	3.648157	1.236029	-0.029250
1072	5.3550e-01	-2.8106	-9.610237	0.000351	3.509484	1.189045	-0.028138
1073	5.3600e-01	-2.8427	-9.747932	0.000343	3.434814	1.163747	-0.027539
1074	5.3650e-01	-2.8828	-9.813359	0.000163	1.632070	0.552960	-0.013085
1075	5.3700e-01	-2.9245	-9.966448	0.000382	3.818831	1.293855	-0.030618
1076	5.3750e-01	-2.9759	-10.075921	0.000273	2.730784	0.925215	-0.021894
1077	5.3800e-01	-3.0047	-10.134078	0.000145	1.450729	0.491520	-0.011631
1078	5.3850e-01	-3.0448	-10.270490	0.000340	3.402813	1.152904	-0.027282
1079	5.3900e-01	-3.0753	-10.337627	0.000167	1.674739	0.567417	-0.013427
1080	5.3950e-01	-3.1170	-10.479171	0.000353	3.530818	1.196274	-0.028309
1081	5.4000e-01	-3.1812	-10.509533	0.000076	0.757366	0.256603	-0.006072
1082	5.4050e-01	-3.1988	-10.752851	0.000607	6.069594	2.056434	-0.048664
1083	5.4100e-01	-3.2582	-10.798607	0.000114	1.141382	0.386711	-0.009151
1084	5.4150e-01	-3.2919	-10.870021	0.000178	1.781410	0.603558	-0.014283
1085	5.4200e-01	-3.3272	-10.952125	0.000205	2.048088	0.693911	-0.016421
1086	5.4250e-01	-3.3464	-10.975216	0.000058	0.576025	0.195162	-0.004618
1087	5.4300e-01	-3.4074	-11.252745	0.000692	6.922964	2.345564	-0.055506
1088	5.4350e-01	-3.4363	-11.429782	0.000442	4.416190	1.496246	-0.035407
1089	5.4400e-01	-3.4748	-11.466130	0.000091	0.906706	0.307200	-0.007270
1090	5.4450e-01	-3.5213	-11.546524	0.000201	2.005420	0.679455	-0.016079
1091	5.4500e-01	-3.5758	-11.644450	0.000244	2.442772	0.827633	-0.019585
1092	5.4550e-01	-3.6111	-11.896321	0.000628	6.282937	2.128717	-0.050374
1093	5.4600e-01	-3.6641	-11.850565	-0.000114	-1.141382	-0.386711	0.009151
1094	5.4650e-01	-3.6929	-11.965169	0.000286	2.858790	0.968584	-0.022921
1095	5.4700e-01	-3.7507	-12.006221	0.000102	1.024044	0.346956	-0.008210
1096	5.4750e-01	-3.7619	-12.249540	0.000607	6.069594	2.056434	-0.048664
1097	5.4800e-01	-3.8213	-12.329078	0.000198	1.984085	0.672226	-0.015908
1098	5.4850e-01	-3.8389	-12.478747	0.000373	3.733494	1.264942	-0.029934
1099	5.4900e-01	-3.8614	-12.610883	0.000330	3.296142	1.116763	-0.026427
1100	5.4950e-01	-3.9288	-12.772526	0.000403	4.032173	1.366137	-0.032328
1101	5.5000e-01	-3.9737	-12.752427	-0.000050	-0.501355	-0.169864	0.004020
1102	5.5050e-01	-4.0106	-12.923050	0.000426	4.256183	1.442034	-0.034124
1103	5.5100e-01	-4.0587	-12.973082	0.000125	1.248054	0.422852	-0.010006
1104	5.5150e-01	-4.0956	-13.141994	0.000421	4.213514	1.427577	-0.033782
1105	5.5200e-01	-4.1261	-13.164658	0.000057	0.565358	0.191548	-0.004533
1106	5.5250e-01	-4.1582	-13.310050	0.000363	3.626823	1.228801	-0.029079
1107	5.5300e-01	-4.2015	-13.413963	0.000259	2.592111	0.878231	-0.020783
1108	5.5350e-01	-4.2544	-13.528567	0.000286	2.858790	0.968584	-0.022921
1109	5.5400e-01	-4.3026	-13.693630	0.000412	4.117510	1.395050	-0.033013
1110	5.5450e-01	-4.3314	-13.744518	0.000127	1.269388	0.430080	-0.010177
1111	5.5500e-01	-4.3699	-13.890338	0.000364	3.637490	1.232415	-0.029164
1112	5.5550e-01	-4.4020	-13.970304	0.000199	1.994752	0.675840	-0.015993
1113	5.5600e-01	-4.4469	-14.103295	0.000332	3.317476	1.123991	-0.026598
1114	5.5650e-01	-4.4790	-14.149479	0.000115	1.152050	0.390325	-0.009237
1115	5.5700e-01	-4.5336	-14.252109	0.000256	2.560110	0.867389	-0.020526
1116	5.5750e-01	-4.5705	-14.368851	0.000291	2.912125	0.986655	-0.023348
1117	5.5800e-01	-4.6074	-14.541611	0.000431	4.309519	1.460104	-0.034552
1118	5.5850e-01	-4.6603	-14.565131	0.000059	0.586692	0.198777	-0.004704
1119	5.5900e-01	-4.7004	-14.598058	0.000082	0.821369	0.278287	-0.006585
1120	5.5950e-01	-4.7277	-14.819568	0.000553	5.525571	1.872114	-0.044302
1121	5.6000e-01	-4.7646	-14.982065	0.000405	4.053508	1.373366	-0.032500
1122	5.6050e-01	-4.8063	-15.013710	0.000079	0.789367	0.267445	-0.006329
1123	5.6100e-01	-4.8432	-15.206141	0.000480	4.800206	1.626354	-0.038486
1124	5.6150e-01	-4.9073	-15.231798	0.000064	0.640028	0.216847	-0.005132
1125	5.6200e-01	-4.9475	-15.257884	0.000065	0.650695	0.220461	-0.005217
1126	5.6250e-01	-4.9763	-15.357093	0.000247	2.474773	0.838476	-0.019842
1127	5.6300e-01	-4.9956	-15.414394	0.000143	1.429395	0.484292	-0.011460
1128	5.6350e-01	-5.0533	-15.733831	0.000797	7.968342	2.699748	-0.063887
1129	5.6400e-01	-5.1127	-15.691496	-0.000106	-1.056045	-0.357798	0.008467
1130	5.6450e-01	-5.0966	-16.039155	-0.000867	-8.672373	-2.938279	-0.069532
1131	5.6500e-01	-5.1737	-15.916854	-0.000305	-3.050798	-1.033638	0.024460
1132	5.6550e-01	-5.2218	-16.075931	0.000397	3.968171	1.344453	-0.031815
1133	5.6600e-01	-5.2507	-16.166587	0.000226	2.261431	0.766193	-0.018131
1134	5.6650e-01	-5.2876	-16.249119	0.000206	2.058755	0.697525	-0.016506
1135	5.6700e-01	-5.3068	-16.441978	0.000481	4.810873	1.629968	-0.038572
1136	5.6750e-01	-5.3662	-16.467636	0.000064	0.640028	0.216847	-0.005132
1137	5.6800e-01	-5.4095	-16.471912	0.000011	0.106671	0.036141	-0.000855
1138	5.6850e-01	-5.4416	-16.775953	0.000758	7.584326	2.569639	-0.060808
1139	5.6900e-01	-5.4865	-16.840525	0.000161	1.610736	0.545732	-0.012914
1140	5.6950e-01	-5.5298	-16.867893	0.000068	0.682696	0.231304	-0.005474
1141	5.7000e-01	-5.5779	-16.900820	0.000082	0.821369	0.278287	-0.006585
1142	5.7050e-01	-5.6180	-17.106080	0.000512	5.120220	1.734778	-0.041052
1143	5.7100e-01	-5.6549	-17.174928	0.000172	1.717407	0.581873	-0.013770
1144	5.7150e-01	-5.6934	-17.364793	0.000474	4.736204	1.604669	-0.037973
1145	5.7200e-01	-5.7223	-17.579461	0.000535	5.354897	1.814288	-0.042934
1146	5.7250e-01	-5.7784	-17.591862	0.000031	0.309347	0.104809	-0.002480
1147	5.7300e-01	-5.8041	-17.634197	0.000106	1.056045	0.357798	-0.008467
1148	5.7350e-01	-5.8699	-17.780017	0.000364	3.637490	1.232415	-0.029164
1149	5.7400e-01	-5.8972	-17.859983	0.000199	1.994752	0.675840	-0.015993
1150	5.7450e-01	-5.9325	-17.995968	0.000339	3.392146	1.149290	-0.027197
1151	5.7500e-01	-5.9694	-18.070375	0.000186	1.856080	0.628857	-0.014881
1152	5.7550e-01	-6.0159	-18.226031	0.000388	3.882834	1.315540	-0.031131
1153	5.7600e-01	-6.0608	-18.143927	-0.000205	-2.048088	-0.693911	0.016421
1154	5.7650e-01	-6.1025	-18.421028	0.000691	6.912297	2.341950	-0.055420
1155	5.7700e-01	-6.1314	-18.585236	0.000410	4.096176	1.387822	-0.032842
1156	5.7750e-01	-6.1811	-18.656222	0.000177	1.770743	0.599944	-0.014197
1157	5.7800e-01	-6.2036	-18.668623	0.000031	0.309347	0.104809	-0.002480
1158	5.7850e-01	-6.2308	-18.899968	0.000577	5.770915	1.955239	-0.046269
1159	5.7900e-01	-6.3046	-18.909376	0.000023	0.234677	0.079511	-0.001882
1160	5.7950e-01	-6.3367	-19.128320	0.000546	5.461568	1.850429	-0.043789
1161	5.8000e-01	-6.3865	-19.003881	-0.000310	-3.104133	-1.051709	0.024888
1162	5.8050e-01	-6.3993	-19.139011	0.000337	3.370812	1.142062	-0.027026
1163	5.8100e-01	-6.4153	-19.587590	0.001119	11.189814	3.791212	-0.089716
1164	5.8150e-01	-6.4731	-19.491374	-0.000240	-2.400103	-0.813177	0.019243
1165	5.8200e-01	-6.5116	-19.569202	0.000194	1.941417	0.657770	-0.015566
1166	5.8250e-01	-6.5453	-19.633345	0.000160	1.600069	0.542118	-0.012829
1167	5.8300e-01	-6.6287	-19.623082	-0.000026	-0.256011	-0.086739	0.002053
1168	5.8350e-01	-6.6447	-19.975018	0.000878	8.779044	2.974421	-0.070387
1169	5.8400e-01	-6.6945	-19.910019	-0.000162	-1.621403	-0.549346	0.013000
1170	5.8450e-01	-6.7105	-20.066530	0.000390	3.904168	1.322768	-0.031302
1171	5.8500e-01	-6.7602	-20.171298	0.000261	2.613446	0.885459	-0.020954
1172	5.8550e-01	-6.8132	-20.193535	0.000055	0.554691	0.187934	-0.004447
1173	5.8600e-01	-6.8228	-20.424452	0.000576	5.760248	1.951625	-0.046184
1174	5.8650e-01	-6.8806	-20.416327	-0.000020	-0.202675	-0.068668	0.001625
1175	5.8700e-01	-6.9335	-20.543760	0.000318	3.178803	1.077008	-0.025486
1176	5.8750e-01	-6.9640	-20.826420	0.000705	7.050970	2.388933	-0.056532
1177	5.8800e-01	-7.0089	-20.771684	-0.000137	-1.365392	-0.462607	0.010947
1178	5.8850e-01	-7.0297	-20.842242	0.000176	1.760076	0.596330	-0.014112
1179	5.8900e-01	-7.0923	-20.931188	0.000222	2.218762	0.751737	-0.017789
1180	5.8950e-01	-7.1276	-21.006023	0.000187	1.866747	0.632471	-0.014967
1181	5.9000e-01	-7.1613	-21.180494	0.000435	4.352187	1.474561	-0.034894
1182	5.9050e-01	-7.2271	-21.325886	0.000363	3.626823	1.228801	-0.029079
1183	5.9100e-01	-7.2431	-21.478548	0.000381	3.808164	1.290241	-0.030532
1184	5.9150e-01	-7.2912	-21.497792	0.000048	0.480021	0.162635	-0.003849
1185	5.9200e-01	-7.3041	-21.692361	0.000485	4.853542	1.644425	-0.038914
1186	5.9250e-01	-7.3682	-21.704335	0.000030	0.298680	0.101195	-0.002395
1187	5.9300e-01	-7.4116	-21.862984	0.000396	3.957503	1.340838	-0.031730
1188	5.9350e-01	-7.4517	-21.957061	0.000235	2.346768	0.795106	-0.018816
1189	5.9400e-01	-7.4837	-22.072092	0.000287	2.869457	0.972198	-0.023006
1190	5.9450e-01	-7.5399	-22.114855	0.000107	1.066713	0.361412	-0.008553
1191	5.9500e-01	-7.5688	-22.247846	0.000332	3.317476	1.123991	-0.026598
1192	5.9550e-01	-7.5944	-22.378700	0.000326	3.264140	1.105921	-0.026171
1193	5.9600e-01	-7.6410	-22.467218	0.000221	2.208095	0.748123	-0.017704
1194	5.9650e-01	-7.6827	-22.586526	0.000298	2.976128	1.008339	-0.023861
1195	5.9700e-01	-7.7212	-22.537349	-0.000123	-1.226719	-0.415624	0.009835
1196	5.9750e-01	-7.7517	-22.812312	0.000686	6.858961	2.323879	-0.054993
1197	5.9800e-01	-7.8158	-22.841818	0.000074	0.736032	0.249374	-0.005901
1198	5.9850e-01	-7.8351	-23.017572	0.000438	4.384188	1.485403	-0.035151
1199	5.9900e-01	-7.8912	-23.062045	0.000111	1.109381	0.375868	-0.008895
1200	5.9950e-01	-7.9297	-23.122768	0.000151	1.514732	0.513205	-0.012145
1201	6.0000e-01	-7.9714	-23.239509	0.000291	2.912125	0.986655	-0.023348
1202	6.0050e-01	-8.0147	-23.217273	-0.000055	-0.554691	-0.187934	0.004447
1203	6.0100e-01	-8.0228	-23.578616	0.000901	9.013721	3.053931	-0.072269
1204	6.0150e-01	-8.0901	-23.648747	0.000175	1.749409	0.592716	-0.014026
1205	6.0200e-01	-8.1206	-23.682529	0.000084	0.842703	0.285515	-0.006756
1206	6.0250e-01	-8.1768	-23.745390	0.000157	1.568067	0.531276	-0.012572
1207	6.0300e-01	-8.1896	-23.803547	0.000145	1.450729	0.491520	-0.011631
1208	6.0350e-01	-8.2682	-23.922855	0.000298	2.976128	1.008339	-0.023861
1209	6.0400e-01	-8.2875	-24.057129	0.000335	3.349477	1.134834	-0.026855
1210	6.0450e-01	-8.3228	-24.042590	-0.000036	-0.362682	-0.122880	0.002908
1211	6.0500e-01	-8.3613	-24.190120	0.000368	3.680158	1.246871	-0.029506
1212	6.0550e-01	-8.4046	-24.319691	0.000323	3.232139	1.095078	-0.025914
1213	6.0600e-01	-8.4655	-24.325678	0.000015	0.149340	0.050598	-0.001197
1214	6.0650e-01	-8.5169	-24.585674	0.000649	6.485612	2.197385	-0.051999
1215	6.0700e-01	-8.5490	-24.709257	0.000308	3.082799	1.044481	-0.024717
1216	6.0750e-01	-8.5538	-24.741757	0.000081	0.810702	0.274673	-0.006500
1217	6.0800e-01	-8.5891	-24.936326	0.000485	4.853542	1.644425	-0.038914
1218	6.0850e-01	-8.6596	-24.926919	-0.000023	-0.234677	-0.079511	0.001882
1219	6.0900e-01	-8.6949	-24.983365	0.000141	1.408061	0.477064	-0.011289
1220	6.0950e-01	-8.7431	-25.047509	0.000160	1.600069	0.542118	-0.012829
1221	6.1000e-01	-8.7671	-25.184777	0.000342	3.424147	1.160132	-0.027454
1222	6.1050e-01	-8.8153	-25.229250	0.000111	1.109381	0.375868	-0.008895
1223	6.1100e-01	-8.8425	-25.558521	0.000821	8.213686	2.782872	-0.065854
1224	6.1150e-01	-8.9035	-25.431517	-0.000317	-3.168136	-1.073394	0.025401
1225	6.1200e-01	-8.9500	-25.537140	0.000263	2.634780	0.892688	-0.021125
1226	6.1250e-01	-8.9580	-25.745393	0.000519	5.194890	1.760076	-0.041651
1227	6.1300e-01	-8.9965	-25.842892	0.000243	2.432105	0.824019	-0.019500
1228	6.1350e-01	-9.0366	-26.031475	0.000470	4.704202	1.593827	-0.037717
1229	6.1400e-01	-9.0928	-25.958351	-0.000182	-1.824078	-0.618014	0.014625
1230	6.1450e-01	-9.1217	-26.057988	0.000249	2.485440	0.842090	-0.019927
1231	6.1500e-01	-9.1666	-26.183709	0.000314	3.136135	1.062551	-0.025144
1232	6.1550e-01	-9.2067	-26.400943	0.000542	5.418900	1.835973	-0.043447
1233	6.1600e-01	-9.2388	-26.439857	0.000097	0.970708	0.328885	-0.007783
1234	6.1650e-01	-9.2693	-26.554888	0.000287	2.869457	0.972198	-0.023006
1235	6.1700e-01	-9.3350	-26.651104	0.000240	2.400103	0.813177	-0.019243
1236	6.1750e-01	-9.3671	-26.734491	0.000208	2.080089	0.704753	-0.016677
1237	6.1800e-01	-9.4056	-26.882021	0.000368	3.680158	1.246871	-0.029506
1238	6.1850e-01	-9.4345	-26.868765	-0.000033	-0.330681	-0.112038	0.002651
1239	6.1900e-01	-9.4922	-26.937613	0.000172	1.717407	0.581873	-0.013770
1240	6.1950e-01	-9.5356	-27.115077	0.000443	4.426857	1.499860	-0.035493
1241	6.2000e-01	-9.5660	-27.198892	0.000209	2.090757	0.708367	-0.016763
1242	6.2050e-01	-9.5949	-27.348133	0.000372	3.722827	1.261328	-0.029848
1243	6.2100e-01	-9.6446	-27.364810	0.000042	0.416018	0.140951	-0.003335
1244	6.2150e-01	-9.6960	-27.496947	0.000330	3.296142	1.116763	-0.026427
1245	6.2200e-01	-9.7265	-27.562373	0.000163	1.632070	0.552960	-0.013085
1246	6.2250e-01	-9.7602	-27.725726	0.000407	4.074842	1.380594	-0.032671
1247	6.2300e-01	-9.8323	-27.758226	0.000081	0.810702	0.274673	-0.006500
1248	6.2350e-01	-9.8596	-27.771910	0.000034	0.341348	0.115652	-0.002737
1249	6.2400e-01	-9.8933	-27.972894	0.000501	5.013549	1.698636	-0.040197
1250	6.2450e-01	-9.9190	-28.069537	0.000241	2.410770	0.816791	-0.019329
1251	6.2500e-01	-9.9639	-28.144799	0.000188	1.877414	0.636085	-0.015052
1252	6.2550e-01	-10.0072	-28.236311	0.000228	2.282765	0.773422	-0.018302
1253	6.2600e-01	-10.0553	-28.255126	0.000047	0.469354	0.159021	-0.003763
1254	6.2650e-01	-10.0906	-28.508708	0.000633	6.325605	2.143173	-0.050716
1255	6.2700e-01	-10.1259	-28.509136	0.000001	0.010667	0.003614	-0.000086
1256	6.2750e-01	-10.1756	-28.680613	0.000428	4.277517	1.449262	-0.034296
1257	6.2800e-01	-10.1965	-28.795217	0.000286	2.858790	0.968584	-0.022921
1258	6.2850e-01	-10.2607	-28.967550	0.000430	4.298851	1.456490	-0.034467
1259	6.2900e-01	-10.3024	-28.820874	-0.000366	-3.658824	-1.239643	0.029335
1260	6.2950e-01	-10.3457	-29.027845	0.000516	5.162889	1.749234	-0.041394
1261	6.3000e-01	-10.3601	-29.077450	0.000124	1.237387	0.419238	-0.009921
1262	6.3050e-01	-10.4147	-29.195474	0.000294	2.944127	0.997497	-0.023605
1263	6.3100e-01	-10.4516	-29.345998	0.000375	3.754828	1.272170	-0.030105
1264	6.3150e-01	-10.4885	-29.494384	0.000370	3.701492	1.254100	-0.029677
1265	6.3200e-01	-10.5238	-29.447773	-0.000116	-1.162717	-0.393939	0.009322
1266	6.3250e-01	-10.5735	-29.577344	0.000323	3.232139	1.095078	-0.025914
1267	6.3300e-01	-10.6120	-29.613692	0.000091	0.906706	0.307200	-0.007270
1268	6.3350e-01	-10.6409	-29.699644	0.000214	2.144092	0.726438	-0.017191
1269	6.3400e-01	-10.6890	-30.025067	0.000812	8.117682	2.750345	-0.065085
1270	6.3450e-01	-10.7355	-29.966910	-0.000145	-1.450729	-0.491520	0.011631
1271	6.3500e-01	-10.7644	-29.967338	0.000001	0.010667	0.003614	-0.000086
1272	6.3550e-01	-10.7965	-30.290623	0.000806	8.064347	2.732275	-0.064657
1273	6.3600e-01	-10.8446	-30.347497	0.000142	1.418728	0.480678	-0.011375
1274	6.3650e-01	-10.8863	-30.523251	0.000438	4.384188	1.485403	-0.035151
1275	6.3700e-01	-10.9264	-30.490324	-0.000082	-0.821369	-0.278287	0.006585
1276	6.3750e-01	-10.9858	-30.388549	-0.000254	-2.538776	-0.860161	0.020355
1277	6.3800e-01	-11.0403	-30.605355	0.000541	5.408232	1.832359	-0.043361
1278	6.3850e-01	-11.0467	-30.777260	0.000429	4.288184	1.452876	-0.034381
1279	6.3900e-01	-11.1013	-30.827292	0.000125	1.248054	0.422852	-0.010006
1280	6.3950e-01	-11.1205	-30.923080	0.000239	2.389436	0.809563	-0.019158
1281	6.4000e-01	-11.1510	-31.003474	0.000201	2.005420	0.679455	-0.016079
1282	6.4050e-01	-11.2136	-31.069328	0.000164	1.642737	0.556574	-0.013171
1283	6.4100e-01	-11.2505	-31.233964	0.000411	4.106843	1.391436	-0.032927
1284	6.4150e-01	-11.2890	-31.300246	0.000165	1.653404	0.560189	-0.013256
1285	6.4200e-01	-11.3339	-31.422547	0.000305	3.050798	1.033638	-0.024460
1286	6.4250e-01	-11.3692	-31.498236	0.000189	1.888081	0.639699	-0.015138
1287	6.4300e-01	-11.3933	-31.606425	0.000270	2.698783	0.914372	-0.021638
1288	6.4350e-01	-11.4574	-31.682970	0.000191	1.909415	0.646927	-0.015309
1289	6.4400e-01	-11.4799	-31.783890	0.000252	2.517442	0.852932	-0.020184
1290	6.4450e-01	-11.5264	-31.911322	0.000318	3.178803	1.077008	-0.025486
1291	6.4500e-01	-11.5794	-31.997275	0.000214	2.144092	0.726438	-0.017191
1292	6.4550e-01	-11.6018	-32.016518	0.000048	0.480021	0.162635	-0.003849
1293	6.4600e-01	-11.6580	-32.155069	0.000346	3.456149	1.170975	-0.027710
1294	6.4650e-01	-11.6981	-32.298323	0.000357	3.573487	1.210730	-0.028651
1295	6.4700e-01	-11.7269	-32.316283	0.000045	0.448019	0.151793	-0.003592
1296	6.4750e-01	-11.7510	-32.449703	0.000333	3.328143	1.127605	-0.026684
1297	6.4800e-01	-11.8007	-32.586543	0.000341	3.413480	1.156518	-0.027368
1298	6.4850e-01	-11.8441	-32.625029	0.000096	0.960041	0.325271	-0.007697
1299	6.4900e-01	-11.8842	-32.700291	0.000188	1.877414	0.636085	-0.015052
1300	6.4950e-01	-11.9307	-32.856802	0.000390	3.904168	1.322768	-0.031302
1301	6.5000e-01	-11.9628	-32.959004	0.000255	2.549443	0.863775	-0.020440
1302	6.5050e-01	-11.9932	-33.107390	0.000370	3.701492	1.254100	-0.029677
1303	6.5100e-01	-12.0414	-33.181797	0.000186	1.856080	0.628857	-0.014881
1304	6.5150e-01	-12.0815	-33.234823	0.000132	1.322724	0.448151	-0.010605
1305	6.5200e-01	-12.1296	-33.334032	0.000247	2.474773	0.838476	-0.019842
1306	6.5250e-01	-12.1713	-33.392616	0.000146	1.461396	0.495134	-0.011717
1307	6.5300e-01	-12.2162	-33.439227	0.000116	1.162717	0.393939	-0.009322
1308	6.5350e-01	-12.2451	-33.627810	0.000470	4.704202	1.593827	-0.037717
1309	6.5400e-01	-12.2932	-33.644488	0.000042	0.416018	0.140951	-0.003335
1310	6.5450e-01	-12.3285	-33.792018	0.000368	3.680158	1.246871	-0.029506
1311	6.5500e-01	-12.3654	-33.833926	0.000105	1.045378	0.354184	-0.008381
1312	6.5550e-01	-12.4168	-33.874550	0.000101	1.013377	0.343341	-0.008125
1313	6.5600e-01	-12.4376	-34.120862	0.000614	6.144264	2.081733	-0.049262
1314	6.5650e-01	-12.4954	-34.120862	-0.000000	-0.000000	-0.000000	0.000000
1315	6.5700e-01	-12.5226	-34.334675	0.000533	5.333563	1.807060	-0.042763
1316	6.5750e-01	-12.5563	-34.396680	0.000155	1.546733	0.524047	-0.012401
1317	6.5800e-01	-12.6253	-34.528817	0.000330	3.296142	1.116763	-0.026427
1318	6.5850e-01	-12.6381	-34.389838	-0.000347	-3.466816	-1.174589	0.027796
1319	6.5900e-01	-12.7007	-34.678913	0.000721	7.210977	2.443145	-0.057815
1320	6.5950e-01	-12.7007	-34.682762	0.000010	0.096004	0.032527	-0.000770
1321	6.6000e-01	-12.7520	-34.733649	0.000127	1.269388	0.430080	-0.010177
1322	6.6050e-01	-12.7954	-34.818319	0.000211	2.112091	0.715596	-0.016934
1323	6.6100e-01	-12.8547	-34.857660	0.000098	0.981376	0.332499	-0.007868
1324	6.6150e-01	-12.8563	-35.251931	0.000984	9.835089	3.332218	-0.078854
1325	6.6200e-01	-12.9349	-35.091571	-0.000400	-4.000172	-1.355295	0.032072
1326	6.6250e-01	-12.9606	-35.206175	0.000286	2.858790	0.968584	-0.022921
1327	6.6300e-01	-13.0135	-35.396896	0.000476	4.757538	1.611897	-0.038144
1328	6.6350e-01	-13.0504	-35.410152	0.000033	0.330681	0.112038	-0.002651
1329	6.6400e-01	-13.0697	-35.542716	0.000331	3.306809	1.120377	-0.026513
1330	6.6450e-01	-13.1258	-35.582058	0.000098	0.981376	0.332499	-0.007868
1331	6.6500e-01	-13.1627	-35.705641	0.000308	3.082799	1.044481	-0.024717
1332	6.6550e-01	-13.1884	-35.886527	0.000451	4.512194	1.528773	-0.036177
1333	6.6600e-01	-13.2510	-35.882251	-0.000011	-0.106671	-0.036141	0.000855
1334	6.6650e-01	-13.2814	-35.877119	-0.000013	-0.128006	-0.043369	0.001026
1335	6.6700e-01	-13.3328	-36.022512	0.000363	3.626823	1.228801	-0.029079
1336	6.6750e-01	-13.3665	-36.117872	0.000238	2.378769	0.805949	-0.019072
1337	6.6800e-01	-13.4322	-36.120866	0.000007	0.074670	0.025299	-0.000599
1338	6.6850e-01	-13.4435	-36.339810	0.000546	5.461568	1.850429	-0.043789
1339	6.6900e-01	-13.4723	-36.415499	0.000189	1.888081	0.639699	-0.015138
1340	6.6950e-01	-13.5237	-36.468525	0.000132	1.322724	0.448151	-0.010605
1341	6.7000e-01	-13.5911	-36.452275	-0.000041	-0.405351	-0.137337	0.003250
1342	6.7050e-01	-13.6151	-36.597240	0.000362	3.616155	1.225187	-0.028993
1343	6.7100e-01	-13.6649	-36.672074	0.000187	1.866747	0.632471	-0.014967
1344	6.7150e-01	-13.6841	-36.773849	0.000254	2.538776	0.860161	-0.020355
1345	6.7200e-01	-13.7226	-36.829013	0.000138	1.376059	0.466221	-0.011033
1346	6.7250e-01	-13.7611	-37.050950	0.000554	5.536238	1.875728	-0.044388
1347	6.7300e-01	-13.8140	-37.081740	0.000077	0.768033	0.260217	-0.006158
1348	6.7350e-01	-13.8526	-37.166409	0.000211	2.112091	0.715596	-0.016934
1349	6.7400e-01	-13.8798	-37.195915	0.000074	0.736032	0.249374	-0.005901
1350	6.7450e-01	-13.9247	-37.307953	0.000279	2.794787	0.946899	-0.022408
1351	6.7500e-01	-13.9648	-37.366538	0.000146	1.461396	0.495134	-0.011717
1352	6.7550e-01	-14.0194	-37.458905	0.000230	2.304099	0.780650	-0.018473
1353	6.7600e-01	-14.0595	-37.647915	0.000471	4.714869	1.597441	-0.037802
1354	6.7650e-01	-14.1012	-37.670580	0.000057	0.565358	0.191548	-0.004533
1355	6.7700e-01	-14.1381	-37.777486	0.000267	2.666781	0.903530	-0.021381
1356	6.7750e-01	-14.1638	-37.945115	0.000418	4.181513	1.416735	-0.033526
1357	6.7800e-01	-14.2151	-37.894228	-0.000127	-1.269388	-0.430080	0.010177
1358	6.7850e-01	-14.2328	-38.029785	0.000338	3.381479	1.145676	-0.027111
1359	6.7900e-01	-14.2809	-38.226920	0.000492	4.917545	1.666109	-0.039427
1360	6.7950e-01	-14.3258	-38.215374	-0.000029	-0.288012	-0.097581	0.002309
1361	6.8000e-01	-14.3611	-38.349221	0.000334	3.338810	1.131220	-0.026769
1362	6.8050e-01	-14.3948	-38.565172	0.000539	5.386898	1.825131	-0.043190
1363	6.8100e-01	-14.4734	-38.528823	-0.000091	-0.906706	-0.307200	0.007270
1364	6.8150e-01	-14.4926	-38.554481	0.000064	0.640028	0.216847	-0.005132
1365	6.8200e-01	-14.5247	-38.612210	0.000144	1.440062	0.487906	-0.011546
1366	6.8250e-01	-14.5664	-38.830727	0.000545	5.450901	1.846815	-0.043703
1367	6.8300e-01	-14.6017	-38.895726	0.000162	1.621403	0.549346	-0.013000
1368	6.8350e-01	-14.6386	-38.909838	0.000035	0.352015	0.119266	-0.002822
1369	6.8400e-01	-14.6964	-38.958587	0.000122	1.216052	0.412010	-0.009750
1370	6.8450e-01	-14.7204	-39.243385	0.000710	7.104305	2.407004	-0.056960
1371	6.8500e-01	-14.7589	-39.225425	-0.000045	-0.448019	-0.151793	0.003592
1372	6.8550e-01	-14.8167	-39.398613	0.000432	4.320186	1.463719	-0.034638
1373	6.8600e-01	-14.8472	-39.441376	0.000107	1.066713	0.361412	-0.008553
1374	6.8650e-01	-14.8889	-39.461902	0.000051	0.512022	0.173478	-0.004105
1375	6.8700e-01	-14.9386	-39.590617	0.000321	3.210805	1.087850	-0.025743
1376	6.8750e-01	-14.9739	-39.635090	0.000111	1.109381	0.375868	-0.008895
1377	6.8800e-01	-15.0220	-39.917750	0.000705	7.050970	2.388933	-0.056532
1378	6.8850e-01	-15.0637	-39.803147	-0.000286	-2.858790	-0.968584	0.022921
1379	6.8900e-01	-15.1055	-39.994295	0.000477	4.768205	1.615512	-0.038230
1380	6.8950e-01	-15.1375	-39.931862	-0.000156	-1.557400	-0.527661	0.012487
1381	6.9000e-01	-15.1568	-40.154227	0.000555	5.546905	1.879342	-0.044473
1382	6.9050e-01	-15.2065	-40.193569	0.000098	0.981376	0.332499	-0.007868
1383	6.9100e-01	-15.2450	-40.244456	0.000127	1.269388	0.430080	-0.010177
1384	6.9150e-01	-15.2787	-40.420210	0.000438	4.384188	1.485403	-0.035151
1385	6.9200e-01	-15.3140	-40.383862	-0.000091	-0.906706	-0.307200	0.007270
1386	6.9250e-01	-15.3846	-40.586984	0.000507	5.066884	1.716707	-0.040624
1387	6.9300e-01	-15.4327	-40.580570	-0.000016	-0.160007	-0.054212	0.001283
1388	6.9350e-01	-15.4472	-40.735797	0.000387	3.872166	1.311925	-0.031046
1389	6.9400e-01	-15.5033	-40.821323	0.000213	2.133425	0.722824	-0.017105
1390	6.9450e-01	-15.5306	-40.762310	-0.000147	-1.472063	-0.498749	0.011802
1391	6.9500e-01	-15.5755	-41.053523	0.000726	7.264312	2.461216	-0.058243
1392	6.9550e-01	-15.6092	-41.118094	0.000161	1.610736	0.545732	-0.012914
1393	6.9600e-01	-15.6477	-41.052668	-0.000163	-1.632070	-0.552960	0.013085
1394	6.9650e-01	-15.6942	-41.340887	0.000719	7.189642	2.435917	-0.057644
1395	6.9700e-01	-15.7215	-41.301118	-0.000099	-0.992043	-0.336113	0.007954
1396	6.9750e-01	-15.7680	-41.430261	0.000322	3.221472	1.091464	-0.025829
1397	6.9800e-01	-15.7905	-41.506806	0.000191	1.909415	0.646927	-0.015309
1398	6.9850e-01	-15.8530	-41.493122	-0.000034	-0.341348	-0.115652	0.002737
1399	6.9900e-01	-15.8915	-41.701803	0.000521	5.205557	1.763690	-0.041736
1400	6.9950e-01	-15.9316	-41.819828	0.000294	2.944127	0.997497	-0.023605
1401	7.0000e-01	-15.9653	-41.904497	0.000211	2.112091	0.715596	-0.016934
1402	7.0050e-01	-16.0279	-41.877985	-0.000066	-0.661362	-0.224075	0.005303
1403	7.0100e-01	-16.0616	-42.026798	0.000371	3.712160	1.257714	-0.029763
1404	7.0150e-01	-16.1065	-42.102915	0.000190	1.898748	0.643313	-0.015223
1405	7.0200e-01	-16.1225	-42.185875	0.000207	2.069422	0.701139	-0.016592
1406	7.0250e-01	-16.1947	-42.253012	0.000167	1.674739	0.567417	-0.013427
1407	7.0300e-01	-16.2332	-42.177322	-0.000189	-1.888081	-0.639699	0.015138
1408	7.0350e-01	-16.2685	-42.330840	0.000383	3.829498	1.297469	-0.030703
1409	7.0400e-01	-16.2798	-42.463404	0.000331	3.306809	1.120377	-0.026513
1410	7.0450e-01	-16.3183	-42.600671	0.000342	3.424147	1.160132	-0.027454
1411	7.0500e-01	-16.3760	-42.735373	0.000336	3.360144	1.138448	-0.026940
1412	7.0550e-01	-16.4033	-42.779419	0.000110	1.098714	0.372254	-0.008809
1413	7.0600e-01	-16.4434	-42.875207	0.000239	2.389436	0.809563	-0.019158
1414	7.0650e-01	-16.4867	-42.902575	0.000068	0.682696	0.231304	-0.005474
1415	7.0700e-01	-16.5268	-42.905996	0.000009	0.085337	0.028913	-0.000684
1416	7.0750e-01	-16.5846	-43.068066	0.000404	4.042840	1.369751	-0.032414
1417	7.0800e-01	-16.6070	-43.206616	0.000346	3.456149	1.170975	-0.027710
1418	7.0850e-01	-16.6327	-43.190367	-0.000041	-0.405351	-0.137337	0.003250
1419	7.0900e-01	-16.6920	-43.346450	0.000389	3.893501	1.319154	-0.031217
1420	7.0950e-01	-16.7209	-43.437962	0.000228	2.282765	0.773422	-0.018302
1421	7.1000e-01	-16.7963	-43.479869	0.000105	1.045378	0.354184	-0.008381
1422	7.1050e-01	-16.8011	-43.698813	0.000546	5.461568	1.850429	-0.043789
1423	7.1100e-01	-16.8733	-43.725753	0.000067	0.672029	0.227690	-0.005388
1424	7.1150e-01	-16.8894	-43.676576	-0.000123	-1.226719	-0.415624	0.009835
1425	7.1200e-01	-16.9214	-43.795029	0.000295	2.954794	1.001111	-0.023690
1426	7.1250e-01	-16.9664	-43.925454	0.000325	3.253473	1.102307	-0.026085
1427	7.1300e-01	-17.0209	-44.067854	0.000355	3.552153	1.203502	-0.028480
1428	7.1350e-01	-17.0578	-44.181174	0.000283	2.826788	0.957742	-0.022664
1429	7.1400e-01	-17.0899	-44.168346	-0.000032	-0.320014	-0.108424	0.002566
1430	7.1450e-01	-17.1236	-44.394132	0.000563	5.632242	1.908255	-0.045157
1431	7.1500e-01	-17.1685	-44.447585	0.000133	1.333391	0.451765	-0.010691
1432	7.1550e-01	-17.2263	-44.356073	-0.000228	-2.282765	-0.773422	0.018302
1433	7.1600e-01	-17.2519	-44.584853	0.000571	5.706912	1.933554	-0.045756
1434	7.1650e-01	-17.2920	-44.636168	0.000128	1.280055	0.433694	-0.010263
1435	7.1700e-01	-17.3353	-44.680213	0.000110	1.098714	0.372254	-0.008809
1436	7.1750e-01	-17.3674	-44.710574	0.000076	0.757366	0.256603	-0.006072
1437	7.1800e-01	-17.4220	-44.880769	0.000425	4.245516	1.438420	-0.034039
1438	7.1850e-01	-17.4508	-45.145469	0.000660	6.602950	2.237140	-0.052940
1439	7.1900e-01	-17.4926	-44.905999	-0.000597	-5.973590	-2.023907	0.047894
1440	7.1950e-01	-17.5246	-45.207903	0.000753	7.530990	2.551569	-0.060381
1441	7.2000e-01	-17.5519	-45.224152	0.000041	0.405351	0.137337	-0.003250
1442	7.2050e-01	-17.6113	-45.347736	0.000308	3.082799	1.044481	-0.024717
1443	7.2100e-01	-17.6514	-45.427702	0.000199	1.994752	0.675840	-0.015993
1444	7.2150e-01	-17.6931	-45.493129	0.000163	1.632070	0.552960	-0.013085
1445	7.2200e-01	-17.7284	-45.612008	0.000297	2.965461	1.004725	-0.023776
1446	7.2250e-01	-17.7589	-45.561121	-0.000127	-1.269388	-0.430080	0.010177
1447	7.2300e-01	-17.8166	-45.727040	0.000414	4.138845	1.402278	-0.033184
1448	7.2350e-01	-17.8583	-45.692830	-0.000085	-0.853370	-0.289130	0.006842
1449	7.2400e-01	-17.9113	-45.765098	0.000180	1.802744	0.610786	-0.014454
1450	7.2450e-01	-17.9273	-45.882268	0.000292	2.922792	0.990269	-0.023434
1451	7.2500e-01	-17.9754	-46.057594	0.000437	4.373521	1.481789	-0.035065
1452	7.2550e-01	-18.0139	-46.104205	0.000116	1.162717	0.393939	-0.009322
1453	7.2600e-01	-18.0492	-46.347952	0.000608	6.080261	2.060048	-0.048749
1454	7.2650e-01	-18.0588	-46.325287	-0.000057	-0.565358	-0.191548	0.004533
1455	7.2700e-01	-18.1070	-46.539955	0.000535	5.354897	1.814288	-0.042934
1456	7.2750e-01	-18.1679	-46.581007	0.000102	1.024044	0.346956	-0.008210
1457	7.2800e-01	-18.1968	-46.539528	-0.000103	-1.034711	-0.350570	0.008296
1458	7.2850e-01	-18.2642	-46.696894	0.000393	3.925502	1.329996	-0.031473
1459	7.2900e-01	-18.2979	-46.597257	-0.000249	-2.485440	-0.842090	0.019927
1460	7.2950e-01	-18.3300	-46.833734	0.000590	5.898920	1.998608	-0.047295
1461	7.3000e-01	-18.3604	-46.981265	0.000368	3.680158	1.246871	-0.029506
1462	7.3050e-01	-18.4022	-47.073632	0.000230	2.304099	0.780650	-0.018473
1463	7.3100e-01	-18.4471	-46.986824	-0.000217	-2.165426	-0.733666	0.017362
1464	7.3150e-01	-18.5096	-47.121526	0.000336	3.360144	1.138448	-0.026940
1465	7.3200e-01	-18.5112	-47.358002	0.000590	5.898920	1.998608	-0.047295
1466	7.3250e-01	-18.5546	-47.396916	0.000097	0.970708	0.328885	-0.007783
1467	7.3300e-01	-18.6059	-47.423857	0.000067	0.672029	0.227690	-0.005388
1468	7.3350e-01	-18.6669	-47.532046	0.000270	2.698783	0.914372	-0.021638
1469	7.3400e-01	-18.7070	-47.586354	0.000135	1.354725	0.458993	-0.010862
1470	7.3450e-01	-18.7214	-47.710793	0.000310	3.104133	1.051709	-0.024888
1471	7.3500e-01	-18.7583	-47.740299	0.000074	0.736032	0.249374	-0.005901
1472	7.3550e-01	-18.7984	-47.790759	0.000126	1.258721	0.426466	-0.010092
1473	7.3600e-01	-18.8562	-47.941711	0.000377	3.765495	1.275784	-0.030190
1474	7.3650e-01	-18.8802	-48.124735	0.000457	4.565530	1.546843	-0.036605
1475	7.3700e-01	-18.9043	-48.312890	0.000469	4.693535	1.590213	-0.037631
1476	7.3750e-01	-18.9829	-48.235490	-0.000193	-1.930750	-0.654156	0.015480
1477	7.3800e-01	-18.9941	-48.417658	0.000454	4.544195	1.539615	-0.036434
1478	7.3850e-01	-19.0631	-48.374468	-0.000108	-1.077380	-0.365026	0.008638
1479	7.3900e-01	-19.1048	-48.393711	0.000048	0.480021	0.162635	-0.003849
1480	7.3950e-01	-19.1289	-48.583149	0.000473	4.725536	1.601055	-0.037888
1481	7.4000e-01	-19.1850	-48.602392	0.000048	0.480021	0.162635	-0.003849
1482	7.4050e-01	-19.2139	-48.665253	0.000157	1.568067	0.531276	-0.012572
1483	7.4100e-01	-19.2492	-48.816632	0.000378	3.776162	1.279398	-0.030276
1484	7.4150e-01	-19.3069	-48.784133	-0.000081	-0.810702	-0.274673	0.006500
1485	7.4200e-01	-19.3150	-49.058241	0.000684	6.837627	2.316651	-0.054822
1486	7.4250e-01	-19.3599	-49.188239	0.000324	3.242806	1.098692	-0.026000
1487	7.4300e-01	-19.4096	-49.183107	-0.000013	-0.128006	-0.043369	0.001026
1488	7.4350e-01	-19.4481	-49.198929	0.000039	0.394684	0.133722	-0.003164
1489	7.4400e-01	-19.5059	-49.216890	0.000045	0.448019	0.151793	-0.003592
1490	7.4450e-01	-19.5267	-49.450373	0.000582	5.824250	1.973309	-0.046697
1491	7.4500e-01	-19.5909	-49.381953	-0.000171	-1.706740	-0.578259	0.013684
1492	7.4550e-01	-19.6342	-49.664186	0.000704	7.040303	2.385319	-0.056447
1493	7.4600e-01	-19.6519	-49.602608	-0.000154	-1.536066	-0.520433	0.012316
1494	7.4650e-01	-19.6823	-49.839512	0.000591	5.909587	2.002222	-0.047381
1495	7.4700e-01	-19.7305	-49.894248	0.000137	1.365392	0.462607	-0.010947
1496	7.4750e-01	-19.7866	-49.956681	0.000156	1.557400	0.527661	-0.012487
1497	7.4800e-01	-19.8043	-49.912208	-0.000111	-1.109381	-0.375868	0.008895
1498	7.4850e-01	-19.8235	-50.170494	0.000644	6.442944	2.182928	-0.051657
1499	7.4900e-01	-19.8620	-50.290657	0.000300	2.997462	1.015568	-0.024033
1500	7.4950e-01	-19.9262	-50.309045	0.000046	0.458686	0.155407	-0.003678
1501	7.5000e-01	-19.9567	-50.395425	0.000215	2.154759	0.730052	-0.017276
1502	7.5050e-01	-19.9214	-50.344965	0.000126	1.258721	0.426466	0.010092
1503	7.5100e-01	-19.8748	-50.293650	0.000128	1.280055	0.433694	0.010263
1504	7.5150e-01	-19.8460	-50.095659	0.000494	4.938879	1.673337	0.039598
1505	7.5200e-01	-19.7866	-50.218388	-0.000306	-3.061465	-1.037252	-0.024546
1506	7.5250e-01	-19.7658	-50.037075	0.000452	4.522861	1.532387	0.036263
1507	7.5300e-01	-19.7305	-50.071712	-0.000086	-0.864037	-0.292744	-0.006928
1508	7.5350e-01	-19.6759	-49.792901	0.000695	6.954966	2.356406	0.055762
1509	7.5400e-01	-19.6230	-49.867308	-0.000186	-1.856080	-0.628857	-0.014881
1510	7.5450e-01	-19.5845	-49.785631	0.000204	2.037421	0.690297	0.016335
1511	7.5500e-01	-19.5700	-49.771092	0.000036	0.362682	0.122880	0.002908
1512	7.5550e-01	-19.5219	-49.670172	0.000252	2.517442	0.852932	0.020184
1513	7.5600e-01	-19.4577	-49.768526	-0.000245	-2.453439	-0.831248	-0.019671
1514	7.5650e-01	-19.4337	-49.451656	0.000790	7.904340	2.678063	0.063374
1515	7.5700e-01	-19.4032	-49.502116	-0.000126	-1.258721	-0.426466	-0.010092
1516	7.5750e-01	-19.3487	-49.381098	0.000302	3.018796	1.022796	0.024204
1517	7.5800e-01	-19.3102	-49.419584	-0.000096	-0.960041	-0.325271	-0.007697
1518	7.5850e-01	-19.2556	-49.256659	0.000406	4.064175	1.376980	0.032585
1519	7.5900e-01	-19.2315	-49.150180	0.000266	2.656114	0.899916	0.021296
1520	7.5950e-01	-19.1834	-49.077484	0.000181	1.813411	0.614400	0.014539
1521	7.6000e-01	-19.1642	-49.123667	-0.000115	-1.152050	-0.390325	-0.009237
1522	7.6050e-01	-19.1321	-49.013340	0.000275	2.752118	0.932443	0.022065
1523	7.6100e-01	-19.0727	-48.919262	0.000235	2.346768	0.795106	0.018816
1524	7.6150e-01	-19.0535	-48.748212	0.000427	4.266850	1.445648	0.034210
1525	7.6200e-01	-19.0070	-48.846138	-0.000244	-2.442772	-0.827633	-0.019585
1526	7.6250e-01	-18.9620	-48.625911	0.000549	5.493569	1.861272	0.044045
1527	7.6300e-01	-18.9091	-48.700746	-0.000187	-1.866747	-0.632471	-0.014967
1528	7.6350e-01	-18.8770	-48.572458	0.000320	3.200138	1.084236	0.025658
1529	7.6400e-01	-18.8513	-48.405257	0.000417	4.170846	1.413121	0.033440
1530	7.6450e-01	-18.7952	-48.397560	0.000019	0.192008	0.065054	0.001539
1531	7.6500e-01	-18.7775	-48.295785	0.000254	2.538776	0.860161	0.020355
1532	7.6550e-01	-18.7198	-48.069571	0.000564	5.642909	1.911869	0.045243
1533	7.6600e-01	-18.6925	-48.164931	-0.000238	-2.378769	-0.805949	-0.019072
1534	7.6650e-01	-18.6219	-48.167497	-0.000006	-0.064003	-0.021685	-0.000513
1535	7.6700e-01	-18.6091	-47.953257	0.000534	5.344230	1.810674	0.042848
1536	7.6750e-01	-18.5530	-48.003289	-0.000125	-1.248054	-0.422852	-0.010006
1537	7.6800e-01	-18.5161	-47.883126	0.000300	2.997462	1.015568	0.024033
1538	7.6850e-01	-18.4647	-47.824542	0.000146	1.461396	0.495134	0.011717
1539	7.6900e-01	-18.4407	-47.724477	0.000250	2.496107	0.845704	0.020013
1540	7.6950e-01	-18.3909	-47.595335	0.000322	3.221472	1.091464	0.025829
1541	7.7000e-01	-18.3572	-47.601749	-0.000016	-0.160007	-0.054212	-0.001283
1542	7.7050e-01	-18.3284	-47.669314	-0.000169	-1.685406	-0.571031	-0.013513
1543	7.7100e-01	-18.2658	-47.470040	0.000497	4.970880	1.684180	0.039855
1544	7.7150e-01	-18.2353	-47.470896	-0.000002	-0.021334	-0.007228	-0.000171
1545	7.7200e-01	-18.2064	-47.216031	0.000636	6.357607	2.154015	0.050973
1546	7.7250e-01	-18.1679	-47.258366	-0.000106	-1.056045	-0.357798	-0.008467
1547	7.7300e-01	-18.1150	-47.159584	0.000246	2.464106	0.834862	0.019756
1548	7.7350e-01	-18.0749	-47.006495	0.000382	3.818831	1.293855	0.030618
1549	7.7400e-01	-18.0252	-47.095013	-0.000221	-2.208095	-0.748123	-0.017704
1550	7.7450e-01	-17.9947	-46.950476	0.000361	3.605488	1.221572	0.028907
1551	7.7500e-01	-17.9642	-46.855115	0.000238	2.378769	0.805949	0.019072
1552	7.7550e-01	-17.9241	-46.798669	0.000141	1.408061	0.477064	0.011289
1553	7.7600e-01	-17.8712	-46.666532	0.000330	3.296142	1.116763	0.026427
1554	7.7650e-01	-17.8583	-46.494199	0.000430	4.298851	1.456490	0.034467
1555	7.7700e-01	-17.7958	-46.456141	0.000095	0.949374	0.321657	0.007612
1556	7.7750e-01	-17.7589	-46.419365	0.000092	0.917373	0.310814	0.007355
1557	7.7800e-01	-17.7139	-46.272690	0.000366	3.658824	1.239643	0.029335
1558	7.7850e-01	-17.6786	-46.290222	-0.000044	-0.437352	-0.148179	-0.003507
1559	7.7900e-01	-17.6369	-46.218381	0.000179	1.792077	0.607172	0.014368
1560	7.7950e-01	-17.6016	-46.138843	0.000198	1.984085	0.672226	0.015908
1561	7.8000e-01	-17.5519	-46.041772	0.000242	2.421437	0.820405	0.019414
1562	7.8050e-01	-17.5022	-45.956247	0.000213	2.133425	0.722824	0.017105
1563	7.8100e-01	-17.4669	-45.802729	0.000383	3.829498	1.297469	0.030703
1564	7.8150e-01	-17.4444	-45.885689	-0.000207	-2.069422	-0.701139	-0.016592
1565	7.8200e-01	-17.3770	-45.824966	0.000151	1.514732	0.513205	0.012145
1566	7.8250e-01	-17.3722	-45.578654	0.000614	6.144264	2.081733	0.049262
1567	7.8300e-01	-17.3145	-45.509378	0.000173	1.728074	0.585487	0.013855
1568	7.8350e-01	-17.2824	-45.396058	0.000283	2.826788	0.957742	0.022664
1569	7.8400e-01	-17.2391	-45.524345	-0.000320	-3.200138	-1.084236	-0.025658
1570	7.8450e-01	-17.2054	-45.385367	0.000347	3.466816	1.174589	0.027796
1571	7.8500e-01	-17.1557	-45.199350	0.000464	4.640199	1.572142	0.037203
1572	7.8550e-01	-17.1156	-45.276323	-0.000192	-1.920083	-0.650542	-0.015395
1573	7.8600e-01	-17.0738	-45.041556	0.000586	5.856252	1.984152	0.046953
1574	7.8650e-01	-17.0434	-44.948334	0.000233	2.325433	0.787878	0.018644
1575	7.8700e-01	-17.0065	-44.856822	0.000228	2.282765	0.773422	0.018302
1576	7.8750e-01	-16.9519	-44.808928	0.000119	1.194718	0.404781	0.009579
1577	7.8800e-01	-16.9263	-44.821329	-0.000031	-0.309347	-0.104809	-0.002480
1578	7.8850e-01	-16.8862	-44.767021	0.000135	1.354725	0.458993	0.010862
1579	7.8900e-01	-16.8509	-44.603240	0.000409	4.085509	1.384208	0.032756
1580	7.8950e-01	-16.7883	-44.535676	0.000169	1.685406	0.571031	0.013513
1581	7.9000e-01	-16.7514	-44.678503	-0.000356	-3.562820	-1.207116	-0.028565
1582	7.9050e-01	-16.7161	-44.425776	0.000630	6.304271	2.135945	0.050545
1583	7.9100e-01	-16.6648	-44.306041	0.000299	2.986795	1.011954	0.023947
1584	7.9150e-01	-16.6311	-44.225647	0.000201	2.005420	0.679455	0.016079
1585	7.9200e-01	-16.5942	-44.196996	0.000071	0.714697	0.242146	0.005730
1586	7.9250e-01	-16.5589	-44.014400	0.000455	4.554862	1.543229	0.036519
1587	7.9300e-01	-16.5108	-43.909205	0.000262	2.624113	0.889073	0.021039
1588	7.9350e-01	-16.4851	-43.890389	0.000047	0.469354	0.159021	0.003763
1589	7.9400e-01	-16.4289	-43.842067	0.000121	1.205385	0.408396	0.009664
1590	7.9450e-01	-16.4017	-43.736444	0.000263	2.634780	0.892688	0.021125
1591	7.9500e-01	-16.3584	-43.688550	0.000119	1.194718	0.404781	0.009579
1592	7.9550e-01	-16.3311	-43.544440	0.000359	3.594821	1.217958	0.028822
1593	7.9600e-01	-16.2846	-43.467040	0.000193	1.930750	0.654156	0.015480
1594	7.9650e-01	-16.2396	-43.424278	0.000107	1.066713	0.361412	0.008553
1595	7.9700e-01	-16.1803	-43.339608	0.000211	2.112091	0.715596	0.016934
1596	7.9750e-01	-16.1546	-43.233129	0.000266	2.656114	0.899916	0.021296
1597	7.9800e-01	-16.1290	-43.175827	0.000143	1.429395	0.484292	0.011460
1598	7.9850e-01	-16.0889	-43.069349	0.000266	2.656114	0.899916	0.021296
1599	7.9900e-01	-16.0503	-43.048823	0.000051	0.512022	0.173478	0.004105
1600	7.9950e-01	-16.0086	-42.974843	0.000185	1.845413	0.625243	0.014796
1601	8.0000e-01	-15.9429	-42.909417	0.000163	1.632070	0.552960	0.013085
1602	8.0050e-01	-15.9364	-42.583139	0.000814	8.139016	2.757573	0.065256
1603	8.0100e-01	-15.8707	-42.815339	-0.000579	-5.792249	-1.962467	-0.046440
1604	8.0150e-01	-15.8370	-42.684486	0.000326	3.264140	1.105921	0.026171
1605	8.0200e-01	-15.8017	-42.536100	0.000370	3.701492	1.254100	0.029677
1606	8.0250e-01	-15.7455	-42.455279	0.000202	2.016087	0.683069	0.016164
1607	8.0300e-01	-15.7263	-42.362912	0.000230	2.304099	0.780650	0.018473
1608	8.0350e-01	-15.6589	-42.325281	0.000094	0.938707	0.318043	0.007526
1609	8.0400e-01	-15.6541	-42.140547	0.000461	4.608198	1.561300	0.036947
1610	8.0450e-01	-15.6028	-42.138408	0.000005	0.053336	0.018071	0.000428
1611	8.0500e-01	-15.5659	-41.874991	0.000657	6.570949	2.226298	0.052683
1612	8.0550e-01	-15.5145	-41.851472	0.000059	0.586692	0.198777	0.004704
1613	8.0600e-01	-15.4969	-41.952391	-0.000252	-2.517442	-0.852932	-0.020184
1614	8.0650e-01	-15.4151	-41.847196	0.000262	2.624113	0.889073	0.021039
1615	8.0700e-01	-15.3846	-41.790749	0.000141	1.408061	0.477064	0.011289
1616	8.0750e-01	-15.3621	-41.633383	0.000393	3.925502	1.329996	0.031473
1617	8.0800e-01	-15.3365	-41.573515	0.000149	1.493398	0.505977	0.011974
1618	8.0850e-01	-15.2819	-41.476444	0.000242	2.421437	0.820405	0.019414
1619	8.0900e-01	-15.2450	-41.332762	0.000358	3.584154	1.214344	0.028736
1620	8.0950e-01	-15.2017	-41.239112	0.000234	2.336100	0.791492	0.018730
1621	8.1000e-01	-15.1488	-41.337466	-0.000245	-2.453439	-0.831248	-0.019671
1622	8.1050e-01	-15.1022	-41.228422	0.000272	2.720117	0.921601	0.021809
1623	8.1100e-01	-15.0686	-41.124081	0.000260	2.602779	0.881845	0.020868
1624	8.1150e-01	-15.0381	-41.077898	0.000115	1.152050	0.390325	0.009237
1625	8.1200e-01	-14.9948	-40.998787	0.000197	1.973418	0.668612	0.015822
1626	8.1250e-01	-14.9659	-40.781126	0.000543	5.429567	1.839587	0.043532
1627	8.1300e-01	-14.9210	-40.702870	0.000195	1.952084	0.661384	0.015651
1628	8.1350e-01	-14.8793	-40.614352	0.000221	2.208095	0.748123	0.017704
1629	8.1400e-01	-14.8504	-40.513432	0.000252	2.517442	0.852932	0.020184
1630	8.1450e-01	-14.8055	-40.424059	0.000223	2.229429	0.755351	0.017875
1631	8.1500e-01	-14.7509	-40.381296	0.000107	1.066713	0.361412	0.008553
1632	8.1550e-01	-14.7156	-40.276528	0.000261	2.613446	0.885459	0.020954
1633	8.1600e-01	-14.6771	-40.205542	0.000177	1.770743	0.599944	0.014197
1634	8.1650e-01	-14.6482	-40.190148	0.000038	0.384017	0.130108	0.003079
1635	8.1700e-01	-14.6001	-40.058439	0.000329	3.285475	1.113149	0.026342
1636	8.1750e-01	-14.5648	-39.959230	0.000247	2.474773	0.838476	0.019842
1637	8.1800e-01	-14.5343	-39.796732	0.000405	4.053508	1.373366	0.032500
1638	8.1850e-01	-14.4686	-39.863014	-0.000165	-1.653404	-0.560189	-0.013256
1639	8.1900e-01	-14.4445	-39.791601	0.000178	1.781410	0.603558	0.014283
1640	8.1950e-01	-14.3900	-39.487987	0.000757	7.573659	2.566025	0.060723
1641	8.2000e-01	-14.3483	-39.543151	-0.000138	-1.376059	-0.466221	-0.011033
1642	8.2050e-01	-14.3162	-39.574795	-0.000079	-0.789367	-0.267445	-0.006329
1643	8.2100e-01	-14.2841	-39.343450	0.000577	5.770915	1.955239	0.046269
1644	8.2150e-01	-14.2328	-39.201906	0.000353	3.530818	1.196274	0.028309
1645	8.2200e-01	-14.1798	-39.366541	-0.000411	-4.106843	-1.391436	-0.032927
1646	8.2250e-01	-14.1654	-39.173682	0.000481	4.810873	1.629968	0.038572
1647	8.2300e-01	-14.1285	-38.890167	0.000707	7.072304	2.396161	0.056703
1648	8.2350e-01	-14.0627	-38.897436	-0.000018	-0.181341	-0.061440	-0.001454
1649	8.2400e-01	-14.0483	-38.755465	0.000354	3.541486	1.199888	0.028394
1650	8.2450e-01	-13.9937	-38.714413	0.000102	1.024044	0.346956	0.008210
1651	8.2500e-01	-13.9408	-38.638723	0.000189	1.888081	0.639699	0.015138
1652	8.2550e-01	-13.9071	-38.747768	-0.000272	-2.720117	-0.921601	-0.021809
1653	8.2600e-01	-13.8638	-38.663953	0.000209	2.090757	0.708367	0.016763
1654	8.2650e-01	-13.8397	-38.480074	0.000459	4.586864	1.554072	0.036776
1655	8.2700e-01	-13.8028	-38.257281	0.000556	5.557572	1.882956	0.044559
1656	8.2750e-01	-13.7675	-38.292347	-0.000087	-0.874704	-0.296358	-0.007013
1657	8.2800e-01	-13.7162	-38.176033	0.000290	2.901458	0.983041	0.023263
1658	8.2850e-01	-13.6633	-37.998996	0.000442	4.416190	1.496246	0.035407
1659	8.2900e-01	-13.6296	-38.041331	-0.000106	-1.056045	-0.357798	-0.008467
1660	8.2950e-01	-13.5943	-37.874129	0.000417	4.170846	1.413121	0.033440
1661	8.3000e-01	-13.5510	-37.848044	0.000065	0.650695	0.220461	0.005217
1662	8.3050e-01	-13.5092	-37.843340	0.000012	0.117338	0.039755	0.000941
1663	8.3100e-01	-13.4772	-37.636797	0.000515	5.152221	1.745620	0.041309
1664	8.3150e-01	-13.4419	-37.546568	0.000225	2.250763	0.762579	0.018046
1665	8.3200e-01	-13.3986	-37.458905	0.000219	2.186761	0.740895	0.017533
1666	8.3250e-01	-13.3552	-37.492687	-0.000084	-0.842703	-0.285515	-0.006756
1667	8.3300e-01	-13.3183	-37.234829	0.000643	6.432276	2.179314	0.051572
1668	8.3350e-01	-13.2670	-37.159140	0.000189	1.888081	0.639699	0.015138
1669	8.3400e-01	-13.2253	-37.159567	-0.000001	-0.010667	-0.003614	-0.000086
1670	8.3450e-01	-13.1836	-37.062496	0.000242	2.421437	0.820405	0.019414
1671	8.3500e-01	-13.1371	-37.029997	0.000081	0.810702	0.274673	0.006500
1672	8.3550e-01	-13.1162	-36.777698	0.000629	6.293604	2.132331	0.050460
1673	8.3600e-01	-13.0601	-36.830723	-0.000132	-1.322724	-0.448151	-0.010605
1674	8.3650e-01	-13.0264	-36.690035	0.000351	3.509484	1.189045	0.028138
1675	8.3700e-01	-12.9879	-36.722534	-0.000081	-0.810702	-0.274673	-0.006500
1676	8.3750e-01	-12.9510	-36.460400	0.000654	6.538948	2.215455	0.052427
1677	8.3800e-01	-12.8996	-36.493755	-0.000083	-0.832036	-0.281901	-0.006671
1678	8.3850e-01	-12.8627	-36.436025	0.000144	1.440062	0.487906	0.011546
1679	8.3900e-01	-12.8290	-36.196555	0.000597	5.973590	2.023907	0.047894
1680	8.3950e-01	-12.8098	-36.239745	-0.000108	-1.077380	-0.365026	-0.008638
1681	8.4000e-01	-12.7697	-36.080241	0.000398	3.978838	1.348067	0.031901
1682	8.4050e-01	-12.7264	-35.845902	0.000585	5.845585	1.980538	0.046868
1683	8.4100e-01	-12.6558	-36.045603	-0.000498	-4.981547	-1.687794	-0.039940
1684	8.4150e-01	-12.6269	-35.809127	0.000590	5.898920	1.998608	0.047295
1685	8.4200e-01	-12.6109	-35.739424	0.000174	1.738741	0.589102	0.013941
1686	8.4250e-01	-12.5852	-35.653043	0.000215	2.154759	0.730052	0.017276
1687	8.4300e-01	-12.5178	-35.467882	0.000462	4.618865	1.564914	0.037032
1688	8.4350e-01	-12.4841	-35.535874	-0.000170	-1.696073	-0.574645	-0.013598
1689	8.4400e-01	-12.4424	-35.378080	0.000394	3.936169	1.333610	0.031559
1690	8.4450e-01	-12.3799	-35.228412	0.000373	3.733494	1.264942	0.029934
1691	8.4500e-01	-12.3686	-35.155715	0.000181	1.813411	0.614400	0.014539
1692	8.4550e-01	-12.3061	-35.190781	-0.000087	-0.874704	-0.296358	-0.007013
1693	8.4600e-01	-12.2932	-34.967560	0.000557	5.568239	1.886571	0.044644
1694	8.4650e-01	-12.2194	-34.893581	0.000185	1.845413	0.625243	0.014796
1695	8.4700e-01	-12.1761	-34.869206	0.000061	0.608026	0.206005	0.004875
1696	8.4750e-01	-12.1489	-34.707136	0.000404	4.042840	1.369751	0.032414
1697	8.4800e-01	-12.1039	-34.607500	0.000249	2.485440	0.842090	0.019927
1698	8.4850e-01	-12.0622	-34.805063	-0.000493	-4.928212	-1.669723	-0.039513
1699	8.4900e-01	-12.0478	-34.447568	0.000892	8.917717	3.021404	0.071499
1700	8.4950e-01	-11.9756	-34.344938	0.000256	2.560110	0.867389	0.020526
1701	8.5000e-01	-11.9515	-34.268820	0.000190	1.898748	0.643313	0.015223
1702	8.5050e-01	-11.9162	-34.205532	0.000158	1.578735	0.534890	0.012658
1703	8.5100e-01	-11.8809	-34.172605	0.000082	0.821369	0.278287	0.006585
1704	8.5150e-01	-11.8521	-34.046028	0.000316	3.157469	1.069779	0.025315
1705	8.5200e-01	-11.8039	-33.924154	0.000304	3.040131	1.030024	0.024375
1706	8.5250e-01	-11.7622	-33.848892	0.000188	1.877414	0.636085	0.015052
1707	8.5300e-01	-11.7061	-33.768927	0.000199	1.994752	0.675840	0.015993
1708	8.5350e-01	-11.6900	-33.508503	0.000650	6.496279	2.200999	0.052085
1709	8.5400e-01	-11.6323	-33.615837	-0.000268	-2.677448	-0.907144	-0.021467
1710	8.5450e-01	-11.5954	-33.465313	0.000375	3.754828	1.272170	0.030105
1711	8.5500e-01	-11.5633	-33.458898	0.000016	0.160007	0.054212	0.001283
1712	8.5550e-01	-11.5104	-33.330611	0.000320	3.200138	1.084236	0.025658
1713	8.5600e-01	-11.4703	-33.221139	0.000273	2.730784	0.925215	0.021894
1714	8.5650e-01	-11.4366	-33.272881	-0.000129	-1.290722	-0.437308	-0.010349
1715	8.5700e-01	-11.4237	-33.085581	0.000467	4.672201	1.582984	0.037460
1716	8.5750e-01	-11.3628	-32.878183	0.000517	5.173556	1.752848	0.041480
1717	8.5800e-01	-11.3147	-32.928215	-0.000125	-1.248054	-0.422852	-0.010006
1718	8.5850e-01	-11.2713	-32.771277	0.000391	3.914835	1.326382	0.031388
1719	8.5900e-01	-11.2328	-32.692166	0.000197	1.973418	0.668612	0.015822
1720	8.5950e-01	-11.2056	-32.645127	0.000117	1.173384	0.397553	0.009408
1721	8.6000e-01	-11.1623	-32.527103	0.000294	2.944127	0.997497	0.023605
1722	8.6050e-01	-11.1109	-32.451841	0.000188	1.877414	0.636085	0.015052
1723	8.6100e-01	-11.0451	-32.470656	-0.000047	-0.469354	-0.159021	-0.003763
1724	8.6150e-01	-11.0403	-32.253423	0.000542	5.418900	1.835973	0.043447
1725	8.6200e-01	-10.9649	-32.220068	0.000083	0.832036	0.281901	0.006671
1726	8.6250e-01	-10.9585	-32.120003	0.000250	2.496107	0.845704	0.020013
1727	8.6300e-01	-10.8831	-32.136253	-0.000041	-0.405351	-0.137337	-0.003250
1728	8.6350e-01	-10.8671	-31.759943	0.000939	9.387070	3.180425	0.075262
1729	8.6400e-01	-10.8366	-31.840764	-0.000202	-2.016087	-0.683069	-0.016164
1730	8.6450e-01	-10.7981	-31.717608	0.000307	3.072132	1.040867	0.024631
1731	8.6500e-01	-10.7580	-31.628662	0.000222	2.218762	0.751737	0.017789
1732	8.6550e-01	-10.7195	-31.584189	0.000111	1.109381	0.375868	0.008895
1733	8.6600e-01	-10.6489	-31.508072	0.000190	1.898748	0.643313	0.015223
1734	8.6650e-01	-10.6361	-31.366955	0.000352	3.520151	1.192660	0.028223
1735	8.6700e-01	-10.6072	-31.193767	0.000432	4.320186	1.463719	0.034638
1736	8.6750e-01	-10.5575	-31.105249	0.000221	2.208095	0.748123	0.017704
1737	8.6800e-01	-10.5093	-31.032552	0.000181	1.813411	0.614400	0.014539
1738	8.6850e-01	-10.4740	-30.967981	0.000161	1.610736	0.545732	0.012914
1739	8.6900e-01	-10.4179	-31.008178	-0.000100	-1.002710	-0.339727	-0.008039
1740	8.6950e-01	-10.4034	-30.796076	0.000529	5.290894	1.792603	0.042420
1741	8.7000e-01	-10.3425	-30.715682	0.000201	2.005420	0.679455	0.016079
1742	8.7050e-01	-10.3329	-30.463383	0.000629	6.293604	2.132331	0.050460
1743	8.7100e-01	-10.2863	-30.466804	-0.000009	-0.085337	-0.028913	-0.000684
1744	8.7150e-01	-10.2462	-30.454831	0.000030	0.298680	0.101195	0.002395
1745	8.7200e-01	-10.1933	-30.257695	0.000492	4.917545	1.666109	0.039427
1746	8.7250e-01	-10.1307	-30.243584	0.000035	0.352015	0.119266	0.002822
1747	8.7300e-01	-10.1179	-30.193124	0.000126	1.258721	0.426466	0.010092
1748	8.7350e-01	-10.0762	-30.031054	0.000404	4.042840	1.369751	0.032414
1749	8.7400e-01	-10.0200	-30.069968	-0.000097	-0.970708	-0.328885	-0.007783
1750	8.7450e-01	-10.0136	-29.756946	0.000781	7.808336	2.645536	0.062604
1751	8.7500e-01	-9.9430	-29.800136	-0.000108	-1.077380	-0.365026	-0.008638
1752	8.7550e-01	-9.9110	-29.632080	0.000419	4.192180	1.420349	0.033611
1753	8.7600e-01	-9.8757	-29.576916	0.000138	1.376059	0.466221	0.011033
1754	8.7650e-01	-9.8404	-29.466161	0.000276	2.762785	0.936057	0.022151
1755	8.7700e-01	-9.7858	-29.425964	0.000100	1.002710	0.339727	0.008039
1756	8.7750e-01	-9.7409	-29.333170	0.000231	2.314766	0.784264	0.018559
1757	8.7800e-01	-9.7281	-29.148008	0.000462	4.618865	1.564914	0.037032
1758	8.7850e-01	-9.6848	-29.019293	0.000321	3.210805	1.087850	0.025743
1759	8.7900e-01	-9.6126	-29.040674	-0.000053	-0.533356	-0.180706	-0.004276
1760	8.7950e-01	-9.6110	-28.731928	0.000770	7.701664	2.609395	0.061749
1761	8.8000e-01	-9.5628	-28.815315	-0.000208	-2.080089	-0.704753	-0.016677
1762	8.8050e-01	-9.5259	-28.645548	0.000423	4.234849	1.434806	0.033953
1763	8.8100e-01	-9.4794	-28.555319	0.000225	2.250763	0.762579	0.018046
1764	8.8150e-01	-9.4313	-28.554892	0.000001	0.010667	0.003614	0.000086
1765	8.8200e-01	-9.3655	-28.665646	-0.000276	-2.762785	-0.936057	-0.022151
1766	8.8250e-01	-9.3703	-28.232890	-0.001080	-10.795131	-3.657489	0.086551
1767	8.8300e-01	-9.3094	-28.224337	0.000021	0.213343	0.072282	0.001711
1768	8.8350e-01	-9.2612	-28.207232	0.000043	0.426685	0.144565	0.003421
1769	8.8400e-01	-9.2404	-27.989999	0.000542	5.418900	1.835973	0.043447
1770	8.8450e-01	-9.1939	-27.947664	0.000106	1.056045	0.357798	0.008467
1771	8.8500e-01	-9.1650	-27.783028	0.000411	4.106843	1.391436	0.032927
1772	8.8550e-01	-9.0880	-27.809541	-0.000066	-0.661362	-0.224075	-0.005303
1773	8.8600e-01	-9.0671	-27.631649	0.000444	4.437524	1.503474	0.035578
1774	8.8650e-01	-9.0382	-27.576485	0.000138	1.376059	0.466221	0.011033
1775	8.8700e-01	-9.0094	-27.379350	0.000492	4.917545	1.666109	0.039427
1776	8.8750e-01	-8.9677	-27.345995	0.000083	0.832036	0.281901	0.006671
1777	8.8800e-01	-8.9035	-27.249779	0.000240	2.400103	0.813177	0.019243
1778	8.8850e-01	-8.8826	-27.214714	0.000087	0.874704	0.296358	0.007013
1779	8.8900e-01	-8.8265	-27.175800	0.000097	0.970708	0.328885	0.007783
1780	8.8950e-01	-8.8008	-26.902120	0.000683	6.826960	2.313037	0.054736
1781	8.9000e-01	-8.7543	-27.082578	-0.000450	-4.501527	-1.525159	-0.036092
1782	8.9050e-01	-8.7270	-26.756727	0.000813	8.128349	2.753959	0.065170
1783	8.9100e-01	-8.6933	-26.695149	0.000154	1.536066	0.520433	0.012316
1784	8.9150e-01	-8.6372	-26.710971	-0.000039	-0.394684	-0.133722	-0.003164
1785	8.9200e-01	-8.5891	-26.417620	0.000732	7.317648	2.479286	0.058670
1786	8.9250e-01	-8.5570	-26.408640	0.000022	0.224010	0.075897	0.001796
1787	8.9300e-01	-8.5169	-26.370582	0.000095	0.949374	0.321657	0.007612
1788	8.9350e-01	-8.4768	-26.157197	0.000532	5.322895	1.803446	0.042677
1789	8.9400e-01	-8.4367	-26.003252	0.000384	3.840165	1.301083	0.030789
1790	8.9450e-01	-8.3917	-26.046442	-0.000108	-1.077380	-0.365026	-0.008638
1791	8.9500e-01	-8.3564	-26.036179	0.000026	0.256011	0.086739	0.002053
1792	8.9550e-01	-8.3452	-25.729144	0.000766	7.658996	2.594938	0.061407
1793	8.9600e-01	-8.2827	-25.725295	0.000010	0.096004	0.032527	0.000770
1794	8.9650e-01	-8.2393	-25.610692	0.000286	2.858790	0.968584	0.022921
1795	8.9700e-01	-8.1928	-25.602139	0.000021	0.213343	0.072282	0.001711
1796	8.9750e-01	-8.1479	-25.458457	0.000358	3.584154	1.214344	0.028736
1797	8.9800e-01	-8.0966	-25.287834	0.000426	4.256183	1.442034	0.034124
1798	8.9850e-01	-8.0661	-25.319051	-0.000078	-0.778700	-0.263831	-0.006243
1799	8.9900e-01	-8.0452	-25.136455	0.000455	4.554862	1.543229	0.036519
1800	8.9950e-01	-8.0035	-25.046226	0.000225	2.250763	0.762579	0.018046
1801	9.0000e-01	-7.9426	-25.095403	-0.000123	-1.226719	-0.415624	-0.009835
1802	9.0050e-01	-7.9041	-24.837117	0.000644	6.442944	2.182928	0.051657
1803	9.0100e-01	-7.8607	-24.839256	-0.000005	-0.053336	-0.018071	-0.000428
1804	9.0150e-01	-7.8335	-24.687021	0.000380	3.797497	1.286627	0.030447
1805	9.0200e-01	-7.7998	-24.539490	0.000368	3.680158	1.246871	0.029506
1806	9.0250e-01	-7.7549	-24.432156	0.000268	2.677448	0.907144	0.021467
1807	9.0300e-01	-7.7132	-24.423604	0.000021	0.213343	0.072282	0.001711
1808	9.0350e-01	-7.6811	-24.355611	0.000170	1.696073	0.574645	0.013598
1809	9.0400e-01	-7.6265	-24.131963	0.000558	5.578906	1.890185	0.044730
1810	9.0450e-01	-7.5928	-24.158048	-0.000065	-0.650695	-0.220461	-0.005217
1811	9.0500e-01	-7.5575	-23.974170	0.000459	4.586864	1.554072	0.036776
1812	9.0550e-01	-7.5190	-23.962624	0.000029	0.288012	0.097581	0.002309
1813	9.0600e-01	-7.4805	-23.685523	0.000691	6.912297	2.341950	0.055420
1814	9.0650e-01	-7.4597	-23.607267	0.000195	1.952084	0.661384	0.015651
1815	9.0700e-01	-7.3779	-23.726575	-0.000298	-2.976128	-1.008339	-0.023861
1816	9.0750e-01	-7.3474	-23.477269	0.000622	6.218934	2.107032	0.049861
1817	9.0800e-01	-7.3057	-23.488815	-0.000029	-0.288012	-0.097581	-0.002309
1818	9.0850e-01	-7.2656	-23.280134	0.000521	5.205557	1.763690	0.041736
1819	9.0900e-01	-7.2415	-23.106090	0.000434	4.341520	1.470947	0.034809
1820	9.0950e-01	-7.2014	-23.079150	0.000067	0.672029	0.227690	0.005388
1821	9.1000e-01	-7.1773	-22.870041	0.000522	5.216224	1.767305	0.041822
1822	9.1050e-01	-7.1292	-22.988921	-0.000297	-2.965461	-1.004725	-0.023776
1823	9.1100e-01	-7.0666	-22.697708	0.000726	7.264312	2.461216	0.058243
1824	9.1150e-01	-7.0265	-22.756720	-0.000147	-1.472063	-0.498749	-0.011802
1825	9.1200e-01	-6.9896	-22.723793	0.000082	0.821369	0.278287	0.006585
1826	9.1250e-01	-6.9560	-22.549750	0.000434	4.341520	1.470947	0.034809
1827	9.1300e-01	-6.9335	-22.496297	0.000133	1.333391	0.451765	0.010691
1828	9.1350e-01	-6.8773	-22.219195	0.000691	6.912297	2.341950	0.055420
1829	9.1400e-01	-6.8485	-22.243998	-0.000062	-0.618693	-0.209619	-0.004960
1830	9.1450e-01	-6.7939	-22.173440	0.000176	1.760076	0.596330	0.014112
1831	9.1500e-01	-6.7779	-21.960055	0.000532	5.322895	1.803446	0.042677
1832	9.1550e-01	-6.7137	-21.963048	-0.000007	-0.074670	-0.025299	-0.000599
1833	9.1600e-01	-6.6848	-21.782162	0.000451	4.512194	1.528773	0.036177
1834	9.1650e-01	-6.6271	-21.766340	0.000039	0.394684	0.133722	0.003164
1835	9.1700e-01	-6.6062	-21.552528	0.000533	5.333563	1.807060	0.042763
1836	9.1750e-01	-6.5501	-21.429372	0.000307	3.072132	1.040867	0.024631
1837	9.1800e-01	-6.4923	-21.467858	-0.000096	-0.960041	-0.325271	-0.007697
1838	9.1850e-01	-6.4955	-21.085133	-0.000955	-9.547077	-3.234637	0.076545
1839	9.1900e-01	-6.4233	-21.287400	-0.000505	-5.045550	-1.709479	-0.040453
1840	9.1950e-01	-6.3913	-21.162961	0.000310	3.104133	1.051709	0.024888
1841	9.2000e-01	-6.3479	-21.027831	0.000337	3.370812	1.142062	0.027026
1842	9.2050e-01	-6.3207	-20.961977	0.000164	1.642737	0.556574	0.013171
1843	9.2100e-01	-6.2613	-20.849512	0.000281	2.805454	0.950514	0.022493
1844	9.2150e-01	-6.2324	-20.707968	0.000353	3.530818	1.196274	0.028309
1845	9.2200e-01	-6.2068	-20.603627	0.000260	2.602779	0.881845	0.020868
1846	9.2250e-01	-6.1619	-20.350473	0.000631	6.314938	2.139559	0.050631
1847	9.2300e-01	-6.1266	-20.318401	0.000080	0.800034	0.271059	0.006414
1848	9.2350e-01	-6.0720	-20.180278	0.000345	3.445481	1.167361	0.027625
1849	9.2400e-01	-6.0351	-20.163173	0.000043	0.426685	0.144565	0.003421
1850	9.2450e-01	-5.9854	-20.046431	0.000291	2.912125	0.986655	0.023348
1851	9.2500e-01	-5.9501	-20.048142	-0.000004	-0.042669	-0.014456	-0.000342
1852	9.2550e-01	-5.9373	-19.865974	0.000454	4.544195	1.539615	0.036434
1853	9.2600e-01	-5.8795	-19.767620	0.000245	2.453439	0.831248	0.019671
1854	9.2650e-01	-5.8137	-19.706042	0.000154	1.536066	0.520433	0.012316
1855	9.2700e-01	-5.7961	-19.536274	0.000423	4.234849	1.434806	0.033953
1856	9.2750e-01	-5.7592	-19.313054	0.000557	5.568239	1.886571	0.044644
1857	9.2800e-01	-5.7047	-19.549958	-0.000591	-5.909587	-2.002222	-0.047381
1858	9.2850e-01	-5.6774	-19.232233	0.000793	7.925674	2.685291	0.063545
1859	9.2900e-01	-5.6437	-19.172793	0.000148	1.482730	0.502363	0.011888
1860	9.2950e-01	-5.6100	-19.177069	-0.000011	-0.106671	-0.036141	-0.000855
1861	9.3000e-01	-5.5442	-18.955132	0.000554	5.536238	1.875728	0.044388
1862	9.3050e-01	-5.4993	-18.828555	0.000316	3.157469	1.069779	0.025315
1863	9.3100e-01	-5.4897	-18.669478	0.000397	3.968171	1.344453	0.031815
1864	9.3150e-01	-5.4367	-18.660926	0.000021	0.213343	0.072282	0.001711
1865	9.3200e-01	-5.3838	-18.607472	0.000133	1.333391	0.451765	0.010691
1866	9.3250e-01	-5.3453	-18.450534	0.000391	3.914835	1.326382	0.031388
1867	9.3300e-01	-5.3261	-18.263662	0.000466	4.661534	1.579370	0.037374
1868	9.3350e-01	-5.2827	-18.189255	0.000186	1.856080	0.628857	0.014881
1869	9.3400e-01	-5.2442	-18.196952	-0.000019	-0.192008	-0.065054	-0.001539
1870	9.3450e-01	-5.2089	-18.088763	0.000270	2.698783	0.914372	0.021638
1871	9.3500e-01	-5.1512	-17.927976	0.000401	4.010839	1.358909	0.032157
1872	9.3550e-01	-5.1255	-17.842023	0.000214	2.144092	0.726438	0.017191
1873	9.3600e-01	-5.0854	-17.607684	0.000585	5.845585	1.980538	0.046868
1874	9.3650e-01	-5.0389	-17.619658	-0.000030	-0.298680	-0.101195	-0.002395
1875	9.3700e-01	-5.0020	-17.472127	0.000368	3.680158	1.246871	0.029506
1876	9.3750e-01	-4.9507	-17.262591	0.000523	5.226891	1.770919	0.041907
1877	9.3800e-01	-4.9138	-17.254466	0.000020	0.202675	0.068668	0.001625
1878	9.3850e-01	-4.8737	-17.133876	0.000301	3.008129	1.019182	0.024118
1879	9.3900e-01	-4.8592	-17.126606	0.000018	0.181341	0.061440	0.001454
1880	9.3950e-01	-4.7774	-17.008581	0.000294	2.944127	0.997497	0.023605
1881	9.4000e-01	-4.7662	-16.798617	0.000524	5.237558	1.774533	0.041993
1882	9.4050e-01	-4.7341	-16.672468	0.000315	3.146802	1.066165	0.025230
1883	9.4100e-01	-4.6844	-16.523654	0.000371	3.712160	1.257714	0.029763
1884	9.4150e-01	-4.6298	-16.534773	-0.000028	-0.277345	-0.093967	-0.002224
1885	9.4200e-01	-4.5897	-16.397933	0.000341	3.413480	1.156518	0.027368
1886	9.4250e-01	-4.5560	-16.421024	-0.000058	-0.576025	-0.195162	-0.004618
1887	9.4300e-01	-4.5111	-16.215764	0.000512	5.120220	1.734778	0.041052
1888	9.4350e-01	-4.4951	-16.081918	0.000334	3.338810	1.131220	0.026769
1889	9.4400e-01	-4.4534	-16.011359	0.000176	1.760076	0.596330	0.014112
1890	9.4450e-01	-4.4132	-15.876230	0.000337	3.370812	1.142062	0.027026
1891	9.4500e-01	-4.3683	-15.806954	0.000173	1.728074	0.585487	0.013855
1892	9.4550e-01	-4.3154	-15.763764	0.000108	1.077380	0.365026	0.008638
1893	9.4600e-01	-4.2993	-15.498637	0.000661	6.613618	2.240754	0.053026
1894	9.4650e-01	-4.2304	-15.422519	0.000190	1.898748	0.643313	0.015223
1895	9.4700e-01	-4.1838	-15.456729	-0.000085	-0.853370	-0.289130	-0.006842
1896	9.4750e-01	-4.1485	-15.286107	0.000426	4.256183	1.442034	0.034124
1897	9.4800e-01	-4.1197	-15.197161	0.000222	2.218762	0.751737	0.017789
1898	9.4850e-01	-4.0683	-15.119761	0.000193	1.930750	0.654156	0.015480
1899	9.4900e-01	-4.0443	-14.839666	0.000699	6.986967	2.367248	0.056019
1900	9.4950e-01	-3.9849	-15.006012	-0.000415	-4.149512	-1.405893	-0.033269
1901	9.5000e-01	-3.9576	-14.783220	0.000556	5.557572	1.882956	0.044559
1902	9.5050e-01	-3.9159	-14.749437	0.000084	0.842703	0.285515	0.006756
1903	9.5100e-01	-3.8694	-14.500132	0.000622	6.218934	2.107032	0.049861
1904	9.5150e-01	-3.8470	-14.365002	0.000337	3.370812	1.142062	0.027026
1905	9.5200e-01	-3.8117	-14.221320	0.000358	3.584154	1.214344	0.028736
1906	9.5250e-01	-3.7507	-14.239280	-0.000045	-0.448019	-0.151793	-0.003592
1907	9.5300e-01	-3.7170	-14.034875	0.000510	5.098886	1.727549	0.040881
1908	9.5350e-01	-3.6801	-14.080204	-0.000113	-1.130715	-0.383097	-0.009066
1909	9.5400e-01	-3.6560	-13.753498	0.000815	8.149684	2.761188	0.065341
1910	9.5450e-01	-3.6111	-13.913430	-0.000399	-3.989505	-1.351681	-0.031986
1911	9.5500e-01	-3.5662	-13.652151	0.000652	6.517613	2.208227	0.052256
1912	9.5550e-01	-3.5165	-13.549093	0.000257	2.570777	0.871003	0.020612
1913	9.5600e-01	-3.4619	-13.503765	0.000113	1.130715	0.383097	0.009066
1914	9.5650e-01	-3.4475	-13.250611	0.000631	6.314938	2.139559	0.050631
1915	9.5700e-01	-3.3930	-13.302781	-0.000130	-1.301389	-0.440923	-0.010434
1916	9.5750e-01	-3.3480	-13.193309	0.000273	2.730784	0.925215	0.021894
1917	9.5800e-01	-3.3192	-12.970088	0.000557	5.568239	1.886571	0.044644
1918	9.5850e-01	-3.2967	-12.781933	0.000469	4.693535	1.590213	0.037631
1919	9.5900e-01	-3.2309	-12.768249	0.000034	0.341348	0.115652	0.002737
1920	9.5950e-01	-3.1972	-12.594633	0.000433	4.330853	1.467333	0.034723
1921	9.6000e-01	-3.1635	-12.534766	0.000149	1.493398	0.505977	0.011974
1922	9.6050e-01	-3.1266	-12.416314	0.000295	2.954794	1.001111	0.023690
1923	9.6100e-01	-3.0721	-12.349604	0.000166	1.664072	0.563803	0.013342
1924	9.6150e-01	-3.0384	-12.222172	0.000318	3.178803	1.077008	0.025486
1925	9.6200e-01	-2.9678	-12.328650	-0.000266	-2.656114	-0.899916	-0.021296
1926	9.6250e-01	-2.9662	-11.916847	0.001027	10.272441	3.480397	0.082361
1927	9.6300e-01	-2.9197	-11.870236	0.000116	1.162717	0.393939	0.009322
1928	9.6350e-01	-2.8700	-11.870664	-0.000001	-0.010667	-0.003614	-0.000086
1929	9.6400e-01	-2.8234	-11.707311	0.000407	4.074842	1.380594	0.032671
1930	9.6450e-01	-2.8106	-11.514880	0.000480	4.800206	1.626354	0.038486
1931	9.6500e-01	-2.7689	-11.467413	0.000118	1.184051	0.401167	0.009493
1932	9.6550e-01	-2.7015	-11.544813	-0.000193	-1.930750	-0.654156	-0.015480
1933	9.6600e-01	-2.6775	-11.283534	0.000652	6.517613	2.208227	0.052256
1934	9.6650e-01	-2.6293	-11.017979	0.000662	6.624285	2.244368	0.053111
1935	9.6700e-01	-2.6085	-11.224522	-0.000515	-5.152221	-1.745620	-0.041309
1936	9.6750e-01	-2.5716	-10.867455	0.000891	8.907049	3.017790	0.071413
1937	9.6800e-01	-2.5251	-10.864034	0.000009	0.085337	0.028913	0.000684
1938	9.6850e-01	-2.4769	-10.763542	0.000251	2.506774	0.849318	0.020098
1939	9.6900e-01	-2.4465	-10.559137	0.000510	5.098886	1.727549	0.040881
1940	9.6950e-01	-2.3999	-10.547591	0.000029	0.288012	0.097581	0.002309
1941	9.7000e-01	-2.3871	-10.264076	0.000707	7.072304	2.396161	0.056703
1942	9.7050e-01	-2.3293	-10.193090	0.000177	1.770743	0.599944	0.014197
1943	9.7100e-01	-2.2908	-10.198221	-0.000013	-0.128006	-0.043369	-0.001026
1944	9.7150e-01	-2.2507	-10.233714	-0.000089	-0.885371	-0.299972	-0.007099
1945	9.7200e-01	-2.2122	-9.933521	0.000749	7.488322	2.537112	0.060039
1946	9.7250e-01	-2.1577	-9.884772	0.000122	1.216052	0.412010	0.009750
1947	9.7300e-01	-2.1208	-9.883062	0.000004	0.042669	0.014456	0.000342
1948	9.7350e-01	-2.0807	-9.766747	0.000290	2.901458	0.983041	0.023263
1949	9.7400e-01	-2.0374	-9.429779	0.000841	8.405695	2.847926	0.067394
1950	9.7450e-01	-2.0053	-9.455436	-0.000064	-0.640028	-0.216847	-0.005132
1951	9.7500e-01	-1.9684	-9.310044	0.000363	3.626823	1.228801	0.029079
1952	9.7550e-01	-1.9219	-9.091527	0.000545	5.450901	1.846815	0.043703
1953	9.7600e-01	-1.8786	-9.188598	-0.000242	-2.421437	-0.820405	-0.019414
1954	9.7650e-01	-1.8401	-8.952549	0.000589	5.888253	1.994994	0.047210
1955	9.7700e-01	-1.7871	-8.985476	-0.000082	-0.821369	-0.278287	-0.006585
1956	9.7750e-01	-1.7679	-8.814854	0.000426	4.256183	1.442034	0.034124
1957	9.7800e-01	-1.7213	-8.484727	0.000824	8.235021	2.790100	0.066025
1958	9.7850e-01	-1.6780	-8.580515	-0.000239	-2.389436	-0.809563	-0.019158
1959	9.7900e-01	-1.6267	-8.492852	0.000219	2.186761	0.740895	0.017533
1960	9.7950e-01	-1.6026	-8.437688	0.000138	1.376059	0.466221	0.011033
1961	9.8000e-01	-1.5673	-8.265355	0.000430	4.298851	1.456490	0.034467
1962	9.8050e-01	-1.5128	-8.052398	0.000531	5.312228	1.799832	0.042591
1963	9.8100e-01	-1.4839	-8.021181	0.000078	0.778700	0.263831	0.006243
1964	9.8150e-01	-1.4310	-7.865525	0.000388	3.882834	1.315540	0.031131
1965	9.8200e-01	-1.3861	-7.766744	0.000246	2.464106	0.834862	0.019756
1966	9.8250e-01	-1.3845	-7.610233	0.000390	3.904168	1.322768	0.031302
1967	9.8300e-01	-1.3283	-7.520432	0.000224	2.240096	0.758965	0.017960
1968	9.8350e-01	-1.2738	-7.404545	0.000289	2.890791	0.979426	0.023177
1969	9.8400e-01	-1.2417	-7.404118	0.000001	0.010667	0.003614	0.000086
1970	9.8450e-01	-1.2096	-7.239482	0.000411	4.106843	1.391436	0.032927
1971	9.8500e-01	-1.1663	-7.176621	0.000157	1.568067	0.531276	0.012572
1972	9.8550e-01	-1.1085	-6.991887	0.000461	4.608198	1.561300	0.036947
1973	9.8600e-01	-1.0716	-6.905934	0.000214	2.144092	0.726438	0.017191
1974	9.8650e-01	-1.0540	-6.787482	0.000295	2.954794	1.001111	0.023690
1975	9.8700e-01	-1.0219	-6.569821	0.000543	5.429567	1.839587	0.043532
1976	9.8750e-01	-0.9417	-6.625840	-0.000140	-1.397393	-0.473450	-0.011204
1977	9.8800e-01	-0.9176	-6.500973	0.000311	3.114801	1.055323	0.024973
1978	9.8850e-01	-0.8839	-6.364133	0.000341	3.413480	1.156518	0.027368
1979	9.8900e-01	-0.8262	-6.415021	-0.000127	-1.269388	-0.430080	-0.010177
1980	9.8950e-01	-0.7941	-6.189662	0.000562	5.621575	1.904641	0.045072
1981	9.9000e-01	-0.7716	-5.978843	0.000526	5.258893	1.781761	0.042164
1982	9.9050e-01	-0.7347	-5.908285	0.000176	1.760076	0.596330	0.014112
1983	9.9100e-01	-0.6658	-5.813779	0.000236	2.357435	0.798720	0.018901
1984	9.9150e-01	-0.6176	-5.819339	-0.000014	-0.138673	-0.046984	-0.001112
1985	9.9200e-01	-0.6064	-5.596546	0.000556	5.557572	1.882956	0.044559
1986	9.9250e-01	-0.5631	-5.461416	0.000337	3.370812	1.142062	0.027026
1987	9.9300e-01	-0.4941	-5.416088	0.000113	1.130715	0.383097	0.009066
1988	9.9350e-01	-0.4620	-5.336550	0.000198	1.984085	0.672226	0.015908
1989	9.9400e-01	-0.4299	-5.167638	0.000421	4.213514	1.427577	0.033782
1990	9.9450e-01	-0.3962	-5.108198	0.000148	1.482730	0.502363	0.011888
1991	9.9500e-01	-0.3690	-5.052179	0.000140	1.397393	0.473450	0.011204
1992	9.9550e-01	-0.3160	-4.903365	0.000371	3.712160	1.257714	0.029763
1993	9.9600e-01	-0.2856	-4.648928	0.000635	6.346939	2.150401	0.050887
1994	9.9650e-01	-0.2342	-4.592909	0.000140	1.397393	0.473450	0.011204
1995	9.9700e-01	-0.1845	-4.529621	0.000158	1.578735	0.534890	0.012658
1996	9.9750e-01	-0.1604	-4.245678	0.000708	7.082971	2.399776	0.056789
1997	9.9800e-01	-0.1203	-4.291006	-0.000113	-1.130715	-0.383097	-0.009066
1998	9.9850e-01	-0.0946	-4.044694	0.000614	6.144264	2.081733	0.049262
1999	9.9900e-01	-0.0417	-3.896735	0.000369	3.690825	1.250485	0.029592
2000	9.9950e-01	0.0032	-3.939070	-0.000106	-1.056045	-0.357798	-0.008467
2001	1.0000e+00	0.0369	-3.750915	-0.000106	-1.056045	-0.357798	0.037631

PMax (uC/cm2):	5.30e+01
Pr (uC/cm2):	7.77e-01
-Pr (uC/cm2):	-1.10e+00
PLoss (uC/cm2):	-9.68e-01
-Vc:	-3.23e-01
C (Max-Eff) (nF):	2.65e-01
K (Eff):	8.97e+02
Vert. (+/-Pr) Shift (uC/cm2):	-1.62e-01
Offset (uC/cm2):	2.65e+00

A (Loop Area - uC/cm2·Volts):	-2.33e-01



Hysteresis Version: 5.48.1 - Radiant Technologies, Inc., 1999 - 9/12/24

