»»»»»»»»»»»»»»»»»»»»»»»»»»»»»»»»»»»» Hysteresis ««««««««««««««««««««««««««««««««««««
»»»  Executed Version:	5.48.1
»»»  Vision Version:	5.48.4 (R)
»»»  Vision Compiled:	9/18/24
»»»  Driver Version:	5.47.0
»»»  Windows Version:	Windows 8 or 8.1
»»»  Processor Information:	x86 (AMD or Intel) - 32 Processors
»»»  Tester Name:	PMF21124-494 (100V)
»»»  Tester S/N:	PMF21124-494
»»»  Internal Amp Type:	100V RevK 270k
»»»  Internal Amp S/N:	iAB2-596/K     
»»»  Execution Count:	1
»»»»»»»»»»»»»»»»»»»»»»»»»»»»»»»»»»»»»»»»»»««««««««««««««««««««««««««««««««««««««««««

Stored:	6/17/2025 - 14:48:45
Configured:	06/17/25 10:39:14 AM
Executed:	06/17/25 02:47:32 PM

»»»»»»»»»»»»»»»»»»»»»»»»»»»»»»»»»»» Sample Info ««««««««««««««««««««««««««««««««««««
Sample Name:	
Lot Name:	
Wafer Name:	
Die Row/Column:	0/0
Capacitor Number:	0
Sample Area (cm2):	1.00e-04
Sample Thickness (microns):	3.00e-01

Amplifier:	Internal

»»»»»»»»»»»»»»»»»»»»»»»»»»»»»»»»»»» Tester Info «««««««««««««««««««««««««««««««««««
Tester Name:	PMF21124-494 (100V)
Tester Serial Number:	PMF21124-494
Return Signal Amp. Level:	0.19 [Index: 3]

»»»»»»»»»»»»»»»»»»»»»»»»»»»»»»»» Hysteresis Info ««««««««««««««««««««««««««««««««««
Task Name:	Hyst-180
Volts:	20.00
Field:	666.67 (kV/cm)
DCBias:	0.00
DCField:	0.00 (kV/cm)
Hysteresis Period (ms):	2.00e+02
Preset:	Enabled
Preset Delay (ms):	1.00e+03
Profile:	Standard Bipolar

»»»»»»»»»»»»»»»»»»»»»»»»»»»»»»»»»»»»»» Data «««««««««««««««««««««««««««««««««««««««
Points:	2009

Valid Data

Point	Time (ms)	Drive Voltage	Measured Polarization (uC/cm2)	Capacitance (uF)	Normalized Capacitance (uF/cm2)	Dielectric Constant	Instantaneous Current (mA)
   1	0.0000e+00	0.0096	-3.052075	0.000304	3.041859	1.030610	0.000122
   2	9.9500e-02	0.0353	-2.930961	0.000304	3.041859	1.030610	0.000122
   3	1.9900e-01	0.0658	-2.834069	0.000243	2.433487	0.824488	0.000097
   4	2.9850e-01	0.1187	-2.668547	0.000416	4.157207	1.408500	0.000166
   5	3.9800e-01	0.1572	-2.583767	0.000213	2.129301	0.721427	0.000085
   6	4.9750e-01	0.1973	-2.410170	0.000436	4.359997	1.477207	0.000174
   7	5.9700e-01	0.2358	-2.264833	0.000365	3.650230	1.236732	0.000146
   8	6.9650e-01	0.2647	-2.188128	0.000193	1.926511	0.652719	0.000077
   9	7.9600e-01	0.3112	-2.058939	0.000324	3.244649	1.099317	0.000130
  10	8.9550e-01	0.3577	-1.897454	0.000406	4.055812	1.374146	0.000162
  11	9.9500e-01	0.3978	-1.808637	0.000223	2.230696	0.755780	0.000089
  12	1.0945e+00	0.4331	-1.699634	0.000274	2.737673	0.927549	0.000110
  13	1.1940e+00	0.4716	-1.586594	0.000284	2.839068	0.961902	0.000114
  14	1.2935e+00	0.5198	-1.453369	0.000335	3.346045	1.133671	0.000134
  15	1.3930e+00	0.5615	-1.279772	0.000436	4.359997	1.477207	0.000174
  16	1.4925e+00	0.6000	-1.166732	0.000284	2.839068	0.961902	0.000114
  17	1.5920e+00	0.6321	-1.045618	0.000304	3.041859	1.030610	0.000122
  18	1.6915e+00	0.6674	-0.912393	0.000335	3.346045	1.133671	0.000134
  19	1.7910e+00	0.7107	-0.827613	0.000213	2.129301	0.721427	0.000085
  20	1.8905e+00	0.7508	-0.674202	0.000385	3.853021	1.305439	0.000154
  21	1.9900e+00	0.7829	-0.520791	0.000385	3.853021	1.305439	0.000154
  22	2.0895e+00	0.8342	-0.431974	0.000223	2.230696	0.755780	0.000089
  23	2.1890e+00	0.8695	-0.322971	0.000274	2.737673	0.927549	0.000110
  24	2.2885e+00	0.9080	-0.193783	0.000324	3.244649	1.099317	0.000130
  25	2.3880e+00	0.9561	-0.032297	0.000406	4.055812	1.374146	0.000162
  26	2.4875e+00	0.9898	0.092854	0.000314	3.143254	1.064963	0.000126
  27	2.5870e+00	1.0379	0.201857	0.000274	2.737673	0.927549	0.000110
  28	2.6865e+00	1.0668	0.331045	0.000324	3.244649	1.099317	0.000130
  29	2.7860e+00	1.1085	0.440048	0.000274	2.737673	0.927549	0.000110
  30	2.8855e+00	1.1502	0.581348	0.000355	3.548835	1.202378	0.000142
  31	2.9850e+00	1.1903	0.738796	0.000395	3.954416	1.339793	0.000158
  32	3.0845e+00	1.2321	0.799353	0.000152	1.520929	0.515305	0.000061
  33	3.1840e+00	1.2754	0.981024	0.000456	4.562788	1.545914	0.000183
  34	3.2835e+00	1.3091	1.106175	0.000314	3.143254	1.064963	0.000126
  35	3.3830e+00	1.3524	1.251512	0.000365	3.650230	1.236732	0.000146
  36	3.4825e+00	1.3989	1.368589	0.000294	2.940463	0.996256	0.000118
  37	3.5820e+00	1.4374	1.449332	0.000203	2.027906	0.687073	0.000081
  38	3.6815e+00	1.4695	1.635040	0.000466	4.664183	1.580268	0.000187
  39	3.7810e+00	1.5048	1.699634	0.000162	1.622325	0.549658	0.000065
  40	3.8805e+00	1.5513	1.861120	0.000406	4.055812	1.374146	0.000162
  41	3.9800e+00	1.5930	1.978197	0.000294	2.940463	0.996256	0.000118
  42	4.0795e+00	1.6203	2.091236	0.000284	2.839068	0.961902	0.000114
  43	4.1790e+00	1.6732	2.232536	0.000355	3.548835	1.202378	0.000142
  44	4.2785e+00	1.7053	2.345576	0.000284	2.839068	0.961902	0.000114
  45	4.3780e+00	1.7502	2.454579	0.000274	2.737673	0.927549	0.000110
  46	4.4775e+00	1.7823	2.603953	0.000375	3.751626	1.271085	0.000150
  47	4.5770e+00	1.8256	2.725067	0.000304	3.041859	1.030610	0.000122
  48	4.6765e+00	1.8689	2.870404	0.000365	3.650230	1.236732	0.000146
  49	4.7760e+00	1.9090	3.023815	0.000385	3.853021	1.305439	0.000154
  50	4.8755e+00	1.9507	3.140892	0.000294	2.940463	0.996256	0.000118
  51	4.9750e+00	1.9892	3.286228	0.000365	3.650230	1.236732	0.000146
  52	5.0745e+00	2.0245	3.407343	0.000304	3.041859	1.030610	0.000122
  53	5.1740e+00	2.0582	3.492122	0.000213	2.129301	0.721427	0.000085
  54	5.2735e+00	2.1064	3.669756	0.000446	4.461393	1.511561	0.000179
  55	5.3730e+00	2.1449	3.750499	0.000203	2.027906	0.687073	0.000081
  56	5.4725e+00	2.1866	3.907947	0.000395	3.954416	1.339793	0.000158
  57	5.5720e+00	2.2203	4.053284	0.000365	3.650230	1.236732	0.000146
  58	5.6715e+00	2.2668	4.222844	0.000426	4.258602	1.442853	0.000170
  59	5.7710e+00	2.2957	4.307624	0.000213	2.129301	0.721427	0.000085
  60	5.8705e+00	2.3470	4.448924	0.000355	3.548835	1.202378	0.000142
  61	5.9700e+00	2.3887	4.582149	0.000335	3.346045	1.133671	0.000134
  62	6.0695e+00	2.4384	4.739597	0.000395	3.954416	1.339793	0.000158
  63	6.1690e+00	2.4769	4.844563	0.000264	2.636278	0.893195	0.000105
  64	6.2685e+00	2.5026	4.949528	0.000264	2.636278	0.893195	0.000105
  65	6.3680e+00	2.5395	5.102940	0.000385	3.853021	1.305439	0.000154
  66	6.4675e+00	2.5844	5.244239	0.000355	3.548835	1.202378	0.000142
  67	6.5670e+00	2.6245	5.389576	0.000365	3.650230	1.236732	0.000146
  68	6.6665e+00	2.6710	5.494542	0.000264	2.636278	0.893195	0.000105
  69	6.7660e+00	2.6999	5.647953	0.000385	3.853021	1.305439	0.000154
  70	6.8655e+00	2.7481	5.785216	0.000345	3.447440	1.168024	0.000138
  71	6.9650e+00	2.7898	5.898255	0.000284	2.839068	0.961902	0.000114
  72	7.0645e+00	2.8234	6.015332	0.000294	2.940463	0.996256	0.000118
  73	7.1640e+00	2.8748	6.197003	0.000456	4.562788	1.545914	0.000183
  74	7.2635e+00	2.9133	6.293895	0.000243	2.433487	0.824488	0.000097
  75	7.3630e+00	2.9518	6.447306	0.000385	3.853021	1.305439	0.000154
  76	7.4625e+00	2.9919	6.532086	0.000213	2.129301	0.721427	0.000085
  77	7.5620e+00	3.0272	6.681460	0.000375	3.751626	1.271085	0.000150
  78	7.6615e+00	3.0657	6.867168	0.000466	4.664183	1.580268	0.000187
  79	7.7610e+00	3.1042	6.923688	0.000142	1.419534	0.480951	0.000057
  80	7.8605e+00	3.1459	7.052876	0.000324	3.244649	1.099317	0.000130
  81	7.9600e+00	3.1844	7.226473	0.000436	4.359997	1.477207	0.000174
  82	8.0595e+00	3.2197	7.367773	0.000355	3.548835	1.202378	0.000142
  83	8.1590e+00	3.2662	7.500998	0.000335	3.346045	1.133671	0.000134
  84	8.2585e+00	3.3095	7.605964	0.000264	2.636278	0.893195	0.000105
  85	8.3580e+00	3.3416	7.755338	0.000375	3.751626	1.271085	0.000150
  86	8.4575e+00	3.3769	7.876452	0.000304	3.041859	1.030610	0.000122
  87	8.5570e+00	3.4202	7.985454	0.000274	2.737673	0.927549	0.000110
  88	8.6565e+00	3.4684	8.163088	0.000446	4.461393	1.511561	0.000179
  89	8.7560e+00	3.4972	8.231720	0.000172	1.723720	0.584012	0.000069
  90	8.8555e+00	3.5389	8.409354	0.000446	4.461393	1.511561	0.000179
  91	8.9550e+00	3.5887	8.546616	0.000345	3.447440	1.168024	0.000138
  92	9.0545e+00	3.6272	8.675805	0.000324	3.244649	1.099317	0.000130
  93	9.1540e+00	3.6625	8.776733	0.000253	2.534882	0.858841	0.000101
  94	9.2535e+00	3.7010	8.938219	0.000406	4.055812	1.374146	0.000162
  95	9.3530e+00	3.7443	9.071444	0.000335	3.346045	1.133671	0.000134
  96	9.4525e+00	3.7860	9.212744	0.000355	3.548835	1.202378	0.000142
  97	9.5520e+00	3.8165	9.309635	0.000243	2.433487	0.824488	0.000097
  98	9.6515e+00	3.8662	9.471120	0.000406	4.055812	1.374146	0.000162
  99	9.7510e+00	3.9031	9.555900	0.000213	2.129301	0.721427	0.000085
 100	9.8505e+00	3.9336	9.717386	0.000406	4.055812	1.374146	0.000162
 101	9.9500e+00	3.9817	9.846574	0.000324	3.244649	1.099317	0.000130
 102	1.0050e+01	4.0266	9.983837	0.000345	3.447440	1.168024	0.000138
 103	1.0149e+01	4.0635	10.121099	0.000345	3.447440	1.168024	0.000138
 104	1.0248e+01	4.1004	10.270473	0.000375	3.751626	1.271085	0.000150
 105	1.0348e+01	4.1453	10.367365	0.000243	2.433487	0.824488	0.000097
 106	1.0447e+01	4.1774	10.508664	0.000355	3.548835	1.202378	0.000142
 107	1.0547e+01	4.2272	10.617667	0.000274	2.737673	0.927549	0.000110
 108	1.0646e+01	4.2641	10.783190	0.000416	4.157207	1.408500	0.000166
 109	1.0746e+01	4.2961	10.904304	0.000304	3.041859	1.030610	0.000122
 110	1.0845e+01	4.3411	11.041566	0.000345	3.447440	1.168024	0.000138
 111	1.0945e+01	4.3828	11.154606	0.000284	2.839068	0.961902	0.000114
 112	1.1044e+01	4.4245	11.308017	0.000385	3.853021	1.305439	0.000154
 113	1.1144e+01	4.4534	11.421057	0.000284	2.839068	0.961902	0.000114
 114	1.1243e+01	4.4919	11.574468	0.000385	3.853021	1.305439	0.000154
 115	1.1343e+01	4.5336	11.715768	0.000355	3.548835	1.202378	0.000142
 116	1.1443e+01	4.5737	11.853031	0.000345	3.447440	1.168024	0.000138
 117	1.1542e+01	4.6154	11.933773	0.000203	2.027906	0.687073	0.000081
 118	1.1642e+01	4.6539	12.095259	0.000406	4.055812	1.374146	0.000162
 119	1.1741e+01	4.7004	12.216373	0.000304	3.041859	1.030610	0.000122
 120	1.1841e+01	4.7357	12.345561	0.000324	3.244649	1.099317	0.000130
 121	1.1940e+01	4.7774	12.494935	0.000375	3.751626	1.271085	0.000150
 122	1.2040e+01	4.8143	12.652383	0.000395	3.954416	1.339793	0.000158
 123	1.2139e+01	4.8624	12.741200	0.000223	2.230696	0.755780	0.000089
 124	1.2239e+01	4.9057	12.882500	0.000355	3.548835	1.202378	0.000142
 125	1.2338e+01	4.9282	13.019763	0.000345	3.447440	1.168024	0.000138
 126	1.2438e+01	4.9860	13.148951	0.000324	3.244649	1.099317	0.000130
 127	1.2537e+01	5.0164	13.306399	0.000395	3.954416	1.339793	0.000158
 128	1.2636e+01	5.0501	13.435588	0.000324	3.244649	1.099317	0.000130
 129	1.2736e+01	5.1015	13.508256	0.000183	1.825115	0.618366	0.000073
 130	1.2835e+01	5.1319	13.673779	0.000416	4.157207	1.408500	0.000166
 131	1.2935e+01	5.1785	13.790856	0.000294	2.940463	0.996256	0.000118
 132	1.3034e+01	5.2073	13.928118	0.000345	3.447440	1.168024	0.000138
 133	1.3134e+01	5.2651	14.101715	0.000436	4.359997	1.477207	0.000174
 134	1.3233e+01	5.2876	14.198606	0.000243	2.433487	0.824488	0.000097
 135	1.3333e+01	5.3293	14.303572	0.000264	2.636278	0.893195	0.000105
 136	1.3432e+01	5.3806	14.444872	0.000355	3.548835	1.202378	0.000142
 137	1.3532e+01	5.4111	14.582134	0.000345	3.447440	1.168024	0.000138
 138	1.3632e+01	5.4544	14.707285	0.000314	3.143254	1.064963	0.000126
 139	1.3731e+01	5.4961	14.852622	0.000365	3.650230	1.236732	0.000146
 140	1.3831e+01	5.5410	14.973736	0.000304	3.041859	1.030610	0.000122
 141	1.3930e+01	5.5779	15.123110	0.000375	3.751626	1.271085	0.000150
 142	1.4030e+01	5.6180	15.203853	0.000203	2.027906	0.687073	0.000081
 143	1.4129e+01	5.6533	15.373413	0.000426	4.258602	1.442853	0.000170
 144	1.4229e+01	5.6950	15.478378	0.000264	2.636278	0.893195	0.000105
 145	1.4328e+01	5.7335	15.607567	0.000324	3.244649	1.099317	0.000130
 146	1.4428e+01	5.7688	15.708495	0.000253	2.534882	0.858841	0.000101
 147	1.4527e+01	5.8153	15.874018	0.000416	4.157207	1.408500	0.000166
 148	1.4627e+01	5.8554	15.987058	0.000284	2.839068	0.961902	0.000114
 149	1.4726e+01	5.8940	16.096060	0.000274	2.737673	0.927549	0.000110
 150	1.4825e+01	5.9373	16.277731	0.000456	4.562788	1.545914	0.000183
 151	1.4925e+01	5.9694	16.398845	0.000304	3.041859	1.030610	0.000122
 152	1.5024e+01	6.0095	16.479588	0.000203	2.027906	0.687073	0.000081
 153	1.5124e+01	6.0512	16.657222	0.000446	4.461393	1.511561	0.000179
 154	1.5223e+01	6.0865	16.770262	0.000284	2.839068	0.961902	0.000114
 155	1.5323e+01	6.1298	16.871190	0.000253	2.534882	0.858841	0.000101
 156	1.5422e+01	6.1715	16.996341	0.000314	3.143254	1.064963	0.000126
 157	1.5522e+01	6.2100	17.121493	0.000314	3.143254	1.064963	0.000126
 158	1.5621e+01	6.2549	17.262792	0.000355	3.548835	1.202378	0.000142
 159	1.5721e+01	6.2934	17.400055	0.000345	3.447440	1.168024	0.000138
 160	1.5820e+01	6.3303	17.488872	0.000223	2.230696	0.755780	0.000089
 161	1.5920e+01	6.3688	17.654395	0.000416	4.157207	1.408500	0.000166
 162	1.6020e+01	6.4105	17.779546	0.000314	3.143254	1.064963	0.000126
 163	1.6119e+01	6.4490	17.920846	0.000355	3.548835	1.202378	0.000142
 164	1.6218e+01	6.4955	18.017737	0.000243	2.433487	0.824488	0.000097
 165	1.6318e+01	6.5244	18.167111	0.000375	3.751626	1.271085	0.000150
 166	1.6418e+01	6.5661	18.268039	0.000253	2.534882	0.858841	0.000101
 167	1.6517e+01	6.5982	18.381079	0.000284	2.839068	0.961902	0.000114
 168	1.6616e+01	6.6495	18.546602	0.000416	4.157207	1.408500	0.000166
 169	1.6716e+01	6.6945	18.639456	0.000233	2.332092	0.790134	0.000093
 170	1.6816e+01	6.7314	18.780755	0.000355	3.548835	1.202378	0.000142
 171	1.6915e+01	6.7683	18.946278	0.000416	4.157207	1.408500	0.000166
 172	1.7015e+01	6.8116	19.059318	0.000284	2.839068	0.961902	0.000114
 173	1.7114e+01	6.8421	19.168320	0.000274	2.737673	0.927549	0.000110
 174	1.7213e+01	6.8886	19.301546	0.000335	3.346045	1.133671	0.000134
 175	1.7313e+01	6.9319	19.434771	0.000335	3.346045	1.133671	0.000134
 176	1.7413e+01	6.9672	19.551848	0.000294	2.940463	0.996256	0.000118
 177	1.7512e+01	7.0025	19.717371	0.000416	4.157207	1.408500	0.000166
 178	1.7611e+01	7.0474	19.830411	0.000284	2.839068	0.961902	0.000114
 179	1.7711e+01	7.0763	19.939413	0.000274	2.737673	0.927549	0.000110
 180	1.7811e+01	7.1276	20.113010	0.000436	4.359997	1.477207	0.000174
 181	1.7910e+01	7.1757	20.165493	0.000132	1.318139	0.446598	0.000053
 182	1.8009e+01	7.2078	20.298718	0.000335	3.346045	1.133671	0.000134
 183	1.8109e+01	7.2447	20.472315	0.000436	4.359997	1.477207	0.000174
 184	1.8209e+01	7.2896	20.569207	0.000243	2.433487	0.824488	0.000097
 185	1.8308e+01	7.3329	20.698395	0.000324	3.244649	1.099317	0.000130
 186	1.8407e+01	7.3650	20.847769	0.000375	3.751626	1.271085	0.000150
 187	1.8507e+01	7.4083	20.997143	0.000375	3.751626	1.271085	0.000150
 188	1.8607e+01	7.4468	21.102109	0.000264	2.636278	0.893195	0.000105
 189	1.8706e+01	7.4789	21.227260	0.000314	3.143254	1.064963	0.000126
 190	1.8805e+01	7.5255	21.372597	0.000365	3.650230	1.236732	0.000146
 191	1.8905e+01	7.5575	21.477562	0.000264	2.636278	0.893195	0.000105
 192	1.9005e+01	7.6105	21.651159	0.000436	4.359997	1.477207	0.000174
 193	1.9104e+01	7.6458	21.752087	0.000253	2.534882	0.858841	0.000101
 194	1.9203e+01	7.6746	21.844941	0.000233	2.332092	0.790134	0.000093
 195	1.9303e+01	7.7164	21.982204	0.000345	3.447440	1.168024	0.000138
 196	1.9402e+01	7.7629	22.127541	0.000365	3.650230	1.236732	0.000146
 197	1.9502e+01	7.8014	22.212321	0.000213	2.129301	0.721427	0.000085
 198	1.9602e+01	7.8495	22.373806	0.000406	4.055812	1.374146	0.000162
 199	1.9701e+01	7.8768	22.498957	0.000314	3.143254	1.064963	0.000126
 200	1.9800e+01	7.9153	22.648331	0.000375	3.751626	1.271085	0.000150
 201	1.9900e+01	7.9634	22.692740	0.000112	1.115348	0.377890	0.000045
 202	2.0000e+01	8.0035	22.866337	0.000436	4.359997	1.477207	0.000174
 203	2.0099e+01	8.0452	22.987451	0.000304	3.041859	1.030610	0.000122
 204	2.0198e+01	8.0789	23.152973	0.000416	4.157207	1.408500	0.000166
 205	2.0298e+01	8.1254	23.241790	0.000223	2.230696	0.755780	0.000089
 206	2.0398e+01	8.1623	23.375016	0.000335	3.346045	1.133671	0.000134
 207	2.0497e+01	8.2073	23.479981	0.000264	2.636278	0.893195	0.000105
 208	2.0596e+01	8.2425	23.621281	0.000355	3.548835	1.202378	0.000142
 209	2.0696e+01	8.2859	23.750470	0.000324	3.244649	1.099317	0.000130
 210	2.0796e+01	8.3228	23.879658	0.000324	3.244649	1.099317	0.000130
 211	2.0895e+01	8.3709	23.980586	0.000253	2.534882	0.858841	0.000101
 212	2.0994e+01	8.3998	24.121886	0.000355	3.548835	1.202378	0.000142
 213	2.1094e+01	8.4367	24.251074	0.000324	3.244649	1.099317	0.000130
 214	2.1194e+01	8.4816	24.380263	0.000324	3.244649	1.099317	0.000130
 215	2.1293e+01	8.5249	24.485228	0.000264	2.636278	0.893195	0.000105
 216	2.1392e+01	8.5634	24.646714	0.000406	4.055812	1.374146	0.000162
 217	2.1492e+01	8.5987	24.796088	0.000375	3.751626	1.271085	0.000150
 218	2.1591e+01	8.6484	24.905090	0.000274	2.737673	0.927549	0.000110
 219	2.1691e+01	8.6885	25.006019	0.000253	2.534882	0.858841	0.000101
 220	2.1791e+01	8.7158	25.171541	0.000416	4.157207	1.408500	0.000166
 221	2.1890e+01	8.7607	25.228061	0.000142	1.419534	0.480951	0.000057
 222	2.1989e+01	8.8008	25.389547	0.000406	4.055812	1.374146	0.000162
 223	2.2089e+01	8.8377	25.555069	0.000416	4.157207	1.408500	0.000166
 224	2.2189e+01	8.8842	25.660035	0.000264	2.636278	0.893195	0.000105
 225	2.2288e+01	8.9163	25.765000	0.000264	2.636278	0.893195	0.000105
 226	2.2387e+01	8.9548	25.894189	0.000324	3.244649	1.099317	0.000130
 227	2.2487e+01	9.0062	26.019340	0.000314	3.143254	1.064963	0.000126
 228	2.2587e+01	9.0511	26.172751	0.000385	3.853021	1.305439	0.000154
 229	2.2686e+01	9.0800	26.301939	0.000324	3.244649	1.099317	0.000130
 230	2.2785e+01	9.1297	26.414979	0.000284	2.839068	0.961902	0.000114
 231	2.2885e+01	9.1570	26.532056	0.000294	2.940463	0.996256	0.000118
 232	2.2985e+01	9.1939	26.657207	0.000314	3.143254	1.064963	0.000126
 233	2.3084e+01	9.2404	26.814656	0.000395	3.954416	1.339793	0.000158
 234	2.3183e+01	9.2805	26.899435	0.000213	2.129301	0.721427	0.000085
 235	2.3283e+01	9.3190	27.048809	0.000375	3.751626	1.271085	0.000150
 236	2.3383e+01	9.3591	27.194146	0.000365	3.650230	1.236732	0.000146
 237	2.3482e+01	9.3976	27.327372	0.000335	3.346045	1.133671	0.000134
 238	2.3581e+01	9.4281	27.412152	0.000213	2.129301	0.721427	0.000085
 239	2.3681e+01	9.4810	27.585748	0.000436	4.359997	1.477207	0.000174
 240	2.3780e+01	9.5211	27.706863	0.000304	3.041859	1.030610	0.000122
 241	2.3880e+01	9.5564	27.836051	0.000324	3.244649	1.099317	0.000130
 242	2.3980e+01	9.5997	27.973314	0.000345	3.447440	1.168024	0.000138
 243	2.4079e+01	9.6463	28.090390	0.000294	2.940463	0.996256	0.000118
 244	2.4178e+01	9.6831	28.195356	0.000264	2.636278	0.893195	0.000105
 245	2.4278e+01	9.7152	28.328581	0.000335	3.346045	1.133671	0.000134
 246	2.4378e+01	9.7553	28.449696	0.000304	3.041859	1.030610	0.000122
 247	2.4477e+01	9.7970	28.586958	0.000345	3.447440	1.168024	0.000138
 248	2.4576e+01	9.8372	28.712109	0.000314	3.143254	1.064963	0.000126
 249	2.4676e+01	9.8805	28.853409	0.000355	3.548835	1.202378	0.000142
 250	2.4776e+01	9.9142	28.982597	0.000324	3.244649	1.099317	0.000130
 251	2.4875e+01	9.9591	29.119860	0.000345	3.447440	1.168024	0.000138
 252	2.4974e+01	10.0008	29.232900	0.000284	2.839068	0.961902	0.000114
 253	2.5074e+01	10.0345	29.345940	0.000284	2.839068	0.961902	0.000114
 254	2.5174e+01	10.0810	29.471091	0.000314	3.143254	1.064963	0.000126
 255	2.5273e+01	10.1195	29.592205	0.000304	3.041859	1.030610	0.000122
 256	2.5372e+01	10.1628	29.721393	0.000324	3.244649	1.099317	0.000130
 257	2.5472e+01	10.1949	29.850582	0.000324	3.244649	1.099317	0.000130
 258	2.5572e+01	10.2350	29.955547	0.000264	2.636278	0.893195	0.000105
 259	2.5671e+01	10.2751	30.084736	0.000324	3.244649	1.099317	0.000130
 260	2.5770e+01	10.3152	30.209887	0.000314	3.143254	1.064963	0.000126
 261	2.5870e+01	10.3521	30.339075	0.000324	3.244649	1.099317	0.000130
 262	2.5970e+01	10.3986	30.456152	0.000294	2.940463	0.996256	0.000118
 263	2.6069e+01	10.4355	30.581303	0.000314	3.143254	1.064963	0.000126
 264	2.6169e+01	10.4724	30.686269	0.000264	2.636278	0.893195	0.000105
 265	2.6268e+01	10.5061	30.835643	0.000375	3.751626	1.271085	0.000150
 266	2.6367e+01	10.5494	30.972905	0.000345	3.447440	1.168024	0.000138
 267	2.6467e+01	10.5976	31.065760	0.000233	2.332092	0.790134	0.000093
 268	2.6567e+01	10.6361	31.203022	0.000345	3.447440	1.168024	0.000138
 269	2.6666e+01	10.6746	31.340285	0.000345	3.447440	1.168024	0.000138
 270	2.6765e+01	10.7195	31.469473	0.000324	3.244649	1.099317	0.000130
 271	2.6865e+01	10.7468	31.606736	0.000345	3.447440	1.168024	0.000138
 272	2.6965e+01	10.7901	31.711701	0.000264	2.636278	0.893195	0.000105
 273	2.7064e+01	10.8318	31.800518	0.000223	2.230696	0.755780	0.000089
 274	2.7163e+01	10.8687	31.957967	0.000395	3.954416	1.339793	0.000158
 275	2.7263e+01	10.9120	32.091192	0.000335	3.346045	1.133671	0.000134
 276	2.7363e+01	10.9585	32.228455	0.000345	3.447440	1.168024	0.000138
 277	2.7462e+01	10.9858	32.333420	0.000264	2.636278	0.893195	0.000105
 278	2.7561e+01	11.0307	32.474720	0.000355	3.548835	1.202378	0.000142
 279	2.7661e+01	11.0692	32.595834	0.000304	3.041859	1.030610	0.000122
 280	2.7761e+01	11.1157	32.725022	0.000324	3.244649	1.099317	0.000130
 281	2.7860e+01	11.1446	32.817876	0.000233	2.332092	0.790134	0.000093
 282	2.7959e+01	11.1895	32.938990	0.000304	3.041859	1.030610	0.000122
 283	2.8059e+01	11.2328	33.060105	0.000304	3.041859	1.030610	0.000122
 284	2.8159e+01	11.2697	33.189293	0.000324	3.244649	1.099317	0.000130
 285	2.8258e+01	11.3114	33.326556	0.000345	3.447440	1.168024	0.000138
 286	2.8358e+01	11.3548	33.475930	0.000375	3.751626	1.271085	0.000150
 287	2.8457e+01	11.3852	33.584932	0.000274	2.737673	0.927549	0.000110
 288	2.8556e+01	11.4286	33.718158	0.000335	3.346045	1.133671	0.000134
 289	2.8656e+01	11.4719	33.815049	0.000243	2.433487	0.824488	0.000097
 290	2.8756e+01	11.5072	33.948274	0.000335	3.346045	1.133671	0.000134
 291	2.8855e+01	11.5505	34.093611	0.000365	3.650230	1.236732	0.000146
 292	2.8954e+01	11.5874	34.202614	0.000274	2.737673	0.927549	0.000110
 293	2.9054e+01	11.6259	34.327765	0.000314	3.143254	1.064963	0.000126
 294	2.9154e+01	11.6708	34.456954	0.000324	3.244649	1.099317	0.000130
 295	2.9253e+01	11.7061	34.574030	0.000294	2.940463	0.996256	0.000118
 296	2.9352e+01	11.7478	34.683033	0.000274	2.737673	0.927549	0.000110
 297	2.9452e+01	11.7895	34.771850	0.000223	2.230696	0.755780	0.000089
 298	2.9552e+01	11.8296	34.909113	0.000345	3.447440	1.168024	0.000138
 299	2.9651e+01	11.8697	35.038301	0.000324	3.244649	1.099317	0.000130
 300	2.9750e+01	11.9114	35.211898	0.000436	4.359997	1.477207	0.000174
 301	2.9850e+01	11.9483	35.324938	0.000284	2.839068	0.961902	0.000114
 302	2.9950e+01	11.9852	35.405680	0.000203	2.027906	0.687073	0.000081
 303	3.0049e+01	12.0317	35.579277	0.000436	4.359997	1.477207	0.000174
 304	3.0148e+01	12.0686	35.680206	0.000253	2.534882	0.858841	0.000101
 305	3.0248e+01	12.1039	35.813431	0.000335	3.346045	1.133671	0.000134
 306	3.0348e+01	12.1473	35.914360	0.000253	2.534882	0.858841	0.000101
 307	3.0447e+01	12.1874	36.063734	0.000375	3.751626	1.271085	0.000150
 308	3.0547e+01	12.2307	36.140439	0.000193	1.926511	0.652719	0.000077
 309	3.0646e+01	12.2676	36.225219	0.000213	2.129301	0.721427	0.000085
 310	3.0745e+01	12.3029	36.390742	0.000416	4.157207	1.408500	0.000166
 311	3.0845e+01	12.3526	36.515893	0.000314	3.143254	1.064963	0.000126
 312	3.0945e+01	12.3863	36.641044	0.000314	3.143254	1.064963	0.000126
 313	3.1044e+01	12.4328	36.758121	0.000294	2.940463	0.996256	0.000118
 314	3.1143e+01	12.4665	36.875198	0.000294	2.940463	0.996256	0.000118
 315	3.1243e+01	12.5082	37.004386	0.000324	3.244649	1.099317	0.000130
 316	3.1343e+01	12.5483	37.141649	0.000345	3.447440	1.168024	0.000138
 317	3.1442e+01	12.5916	37.238540	0.000243	2.433487	0.824488	0.000097
 318	3.1541e+01	12.6221	37.379840	0.000355	3.548835	1.202378	0.000142
 319	3.1641e+01	12.6734	37.464620	0.000213	2.129301	0.721427	0.000085
 320	3.1741e+01	12.7039	37.613994	0.000375	3.751626	1.271085	0.000150
 321	3.1840e+01	12.7440	37.727033	0.000284	2.839068	0.961902	0.000114
 322	3.1939e+01	12.7889	37.852185	0.000314	3.143254	1.064963	0.000126
 323	3.2039e+01	12.8274	37.957150	0.000264	2.636278	0.893195	0.000105
 324	3.2139e+01	12.8579	38.078264	0.000304	3.041859	1.030610	0.000122
 325	3.2238e+01	12.9028	38.191304	0.000284	2.839068	0.961902	0.000114
 326	3.2337e+01	12.9542	38.332604	0.000355	3.548835	1.202378	0.000142
 327	3.2437e+01	12.9782	38.417384	0.000213	2.129301	0.721427	0.000085
 328	3.2536e+01	13.0183	38.538498	0.000304	3.041859	1.030610	0.000122
 329	3.2636e+01	13.0552	38.651538	0.000284	2.839068	0.961902	0.000114
 330	3.2736e+01	13.0937	38.772652	0.000304	3.041859	1.030610	0.000122
 331	3.2835e+01	13.1339	38.881654	0.000274	2.737673	0.927549	0.000110
 332	3.2934e+01	13.1820	38.974508	0.000233	2.332092	0.790134	0.000093
 333	3.3034e+01	13.2221	39.156180	0.000456	4.562788	1.545914	0.000183
 334	3.3133e+01	13.2670	39.261145	0.000264	2.636278	0.893195	0.000105
 335	3.3233e+01	13.2943	39.390333	0.000324	3.244649	1.099317	0.000130
 336	3.3333e+01	13.3504	39.519522	0.000324	3.244649	1.099317	0.000130
 337	3.3432e+01	13.3873	39.588153	0.000172	1.723720	0.584012	0.000069
 338	3.3532e+01	13.4162	39.729453	0.000355	3.548835	1.202378	0.000142
 339	3.3631e+01	13.4643	39.874790	0.000365	3.650230	1.236732	0.000146
 340	3.3730e+01	13.4932	39.983792	0.000274	2.737673	0.927549	0.000110
 341	3.3830e+01	13.5461	40.092795	0.000274	2.737673	0.927549	0.000110
 342	3.3929e+01	13.5862	40.213909	0.000304	3.041859	1.030610	0.000122
 343	3.4029e+01	13.6167	40.339060	0.000314	3.143254	1.064963	0.000126
 344	3.4129e+01	13.6568	40.444026	0.000264	2.636278	0.893195	0.000105
 345	3.4228e+01	13.6921	40.577251	0.000335	3.346045	1.133671	0.000134
 346	3.4328e+01	13.7419	40.726625	0.000375	3.751626	1.271085	0.000150
 347	3.4427e+01	13.7868	40.819479	0.000233	2.332092	0.790134	0.000093
 348	3.4526e+01	13.8173	40.952705	0.000335	3.346045	1.133671	0.000134
 349	3.4626e+01	13.8509	41.029411	0.000193	1.926511	0.652719	0.000077
 350	3.4725e+01	13.9087	41.138413	0.000274	2.737673	0.927549	0.000110
 351	3.4825e+01	13.9408	41.336233	0.000497	4.968369	1.683329	0.000199
 352	3.4925e+01	13.9809	41.396790	0.000152	1.520929	0.515305	0.000061
 353	3.5024e+01	14.0210	41.530015	0.000335	3.346045	1.133671	0.000134
 354	3.5123e+01	14.0547	41.647092	0.000294	2.940463	0.996256	0.000118
 355	3.5223e+01	14.0964	41.804541	0.000395	3.954416	1.339793	0.000158
 356	3.5322e+01	14.1349	41.885283	0.000203	2.027906	0.687073	0.000081
 357	3.5422e+01	14.1830	41.990249	0.000264	2.636278	0.893195	0.000105
 358	3.5522e+01	14.2199	42.107326	0.000294	2.940463	0.996256	0.000118
 359	3.5621e+01	14.2568	42.224403	0.000294	2.940463	0.996256	0.000118
 360	3.5721e+01	14.3001	42.389925	0.000416	4.157207	1.408500	0.000166
 361	3.5820e+01	14.3338	42.523151	0.000335	3.346045	1.133671	0.000134
 362	3.5919e+01	14.3771	42.603893	0.000203	2.027906	0.687073	0.000081
 363	3.6019e+01	14.4108	42.704822	0.000253	2.534882	0.858841	0.000101
 364	3.6118e+01	14.4654	42.858233	0.000385	3.853021	1.305439	0.000154
 365	3.6218e+01	14.5023	42.955124	0.000243	2.433487	0.824488	0.000097
 366	3.6318e+01	14.5376	43.064127	0.000274	2.737673	0.927549	0.000110
 367	3.6417e+01	14.5696	43.185241	0.000304	3.041859	1.030610	0.000122
 368	3.6517e+01	14.6081	43.310392	0.000314	3.143254	1.064963	0.000126
 369	3.6616e+01	14.6595	43.427469	0.000294	2.940463	0.996256	0.000118
 370	3.6715e+01	14.6948	43.540509	0.000284	2.839068	0.961902	0.000114
 371	3.6815e+01	14.7349	43.665660	0.000314	3.143254	1.064963	0.000126
 372	3.6914e+01	14.7814	43.798886	0.000335	3.346045	1.133671	0.000134
 373	3.7014e+01	14.8183	43.911925	0.000284	2.839068	0.961902	0.000114
 374	3.7114e+01	14.8552	44.037077	0.000314	3.143254	1.064963	0.000126
 375	3.7213e+01	14.8905	44.138005	0.000253	2.534882	0.858841	0.000101
 376	3.7313e+01	14.9322	44.263156	0.000314	3.143254	1.064963	0.000126
 377	3.7412e+01	14.9723	44.372159	0.000274	2.737673	0.927549	0.000110
 378	3.7511e+01	15.0188	44.517496	0.000365	3.650230	1.236732	0.000146
 379	3.7611e+01	15.0525	44.606313	0.000223	2.230696	0.755780	0.000089
 380	3.7711e+01	15.0926	44.727427	0.000304	3.041859	1.030610	0.000122
 381	3.7810e+01	15.1424	44.812207	0.000213	2.129301	0.721427	0.000085
 382	3.7910e+01	15.1616	44.985804	0.000436	4.359997	1.477207	0.000174
 383	3.8009e+01	15.2161	45.070583	0.000213	2.129301	0.721427	0.000085
 384	3.8108e+01	15.2514	45.236106	0.000416	4.157207	1.408500	0.000166
 385	3.8208e+01	15.2980	45.312812	0.000193	1.926511	0.652719	0.000077
 386	3.8307e+01	15.3284	45.462186	0.000375	3.751626	1.271085	0.000150
 387	3.8407e+01	15.3782	45.542928	0.000203	2.027906	0.687073	0.000081
 388	3.8507e+01	15.4119	45.655968	0.000284	2.839068	0.961902	0.000114
 389	3.8606e+01	15.4520	45.805342	0.000375	3.751626	1.271085	0.000150
 390	3.8706e+01	15.4937	45.918382	0.000284	2.839068	0.961902	0.000114
 391	3.8805e+01	15.5354	46.019310	0.000253	2.534882	0.858841	0.000101
 392	3.8904e+01	15.5691	46.152536	0.000335	3.346045	1.133671	0.000134
 393	3.9004e+01	15.6124	46.253464	0.000253	2.534882	0.858841	0.000101
 394	3.9103e+01	15.6525	46.394764	0.000355	3.548835	1.202378	0.000142
 395	3.9203e+01	15.6830	46.507804	0.000284	2.839068	0.961902	0.000114
 396	3.9303e+01	15.7359	46.612769	0.000264	2.636278	0.893195	0.000105
 397	3.9402e+01	15.7808	46.762143	0.000375	3.751626	1.271085	0.000150
 398	3.9502e+01	15.8129	46.863072	0.000253	2.534882	0.858841	0.000101
 399	3.9601e+01	15.8514	47.012446	0.000375	3.751626	1.271085	0.000150
 400	3.9700e+01	15.8803	47.125485	0.000284	2.839068	0.961902	0.000114
 401	3.9800e+01	15.9332	47.238525	0.000284	2.839068	0.961902	0.000114
 402	3.9900e+01	15.9766	47.351565	0.000284	2.839068	0.961902	0.000114
 403	3.9999e+01	16.0135	47.529199	0.000446	4.461393	1.511561	0.000179
 404	4.0099e+01	16.0520	47.646276	0.000294	2.940463	0.996256	0.000118
 405	4.0198e+01	16.0969	47.698759	0.000132	1.318139	0.446598	0.000053
 406	4.0297e+01	16.1241	47.836021	0.000345	3.447440	1.168024	0.000138
 407	4.0397e+01	16.1787	47.961173	0.000314	3.143254	1.064963	0.000126
 408	4.0496e+01	16.2044	48.062101	0.000253	2.534882	0.858841	0.000101
 409	4.0596e+01	16.2461	48.199364	0.000345	3.447440	1.168024	0.000138
 410	4.0696e+01	16.2926	48.288181	0.000223	2.230696	0.755780	0.000089
 411	4.0795e+01	16.3263	48.433517	0.000365	3.650230	1.236732	0.000146
 412	4.0895e+01	16.3600	48.542520	0.000274	2.737673	0.927549	0.000110
 413	4.0994e+01	16.4177	48.708043	0.000416	4.157207	1.408500	0.000166
 414	4.1093e+01	16.4498	48.808971	0.000253	2.534882	0.858841	0.000101
 415	4.1193e+01	16.4979	48.913937	0.000264	2.636278	0.893195	0.000105
 416	4.1292e+01	16.5204	49.014865	0.000253	2.534882	0.858841	0.000101
 417	4.1392e+01	16.5685	49.164239	0.000375	3.751626	1.271085	0.000150
 418	4.1492e+01	16.6134	49.265167	0.000253	2.534882	0.858841	0.000101
 419	4.1591e+01	16.6616	49.358022	0.000233	2.332092	0.790134	0.000093
 420	4.1691e+01	16.6936	49.495284	0.000345	3.447440	1.168024	0.000138
 421	4.1790e+01	16.7241	49.571990	0.000193	1.926511	0.652719	0.000077
 422	4.1889e+01	16.7771	49.713289	0.000355	3.548835	1.202378	0.000142
 423	4.1989e+01	16.8108	49.826329	0.000284	2.839068	0.961902	0.000114
 424	4.2089e+01	16.8525	49.967629	0.000355	3.548835	1.202378	0.000142
 425	4.2188e+01	16.8958	50.076632	0.000274	2.737673	0.927549	0.000110
 426	4.2288e+01	16.9343	50.230043	0.000385	3.853021	1.305439	0.000154
 427	4.2387e+01	16.9648	50.290600	0.000152	1.520929	0.515305	0.000061
 428	4.2486e+01	17.0049	50.391528	0.000253	2.534882	0.858841	0.000101
 429	4.2586e+01	17.0466	50.524754	0.000335	3.346045	1.133671	0.000134
 430	4.2685e+01	17.0771	50.637794	0.000284	2.839068	0.961902	0.000114
 431	4.2785e+01	17.1220	50.738722	0.000253	2.534882	0.858841	0.000101
 432	4.2885e+01	17.1637	50.892133	0.000385	3.853021	1.305439	0.000154
 433	4.2984e+01	17.2022	50.984987	0.000233	2.332092	0.790134	0.000093
 434	4.3084e+01	17.2455	51.154547	0.000426	4.258602	1.442853	0.000170
 435	4.3183e+01	17.2840	51.263550	0.000274	2.737673	0.927549	0.000110
 436	4.3282e+01	17.3257	51.372552	0.000274	2.737673	0.927549	0.000110
 437	4.3382e+01	17.3738	51.461369	0.000223	2.230696	0.755780	0.000089
 438	4.3481e+01	17.4139	51.614780	0.000385	3.853021	1.305439	0.000154
 439	4.3581e+01	17.4476	51.699560	0.000213	2.129301	0.721427	0.000085
 440	4.3681e+01	17.4893	51.792414	0.000233	2.332092	0.790134	0.000093
 441	4.3780e+01	17.5150	51.929677	0.000345	3.447440	1.168024	0.000138
 442	4.3880e+01	17.5615	52.070977	0.000355	3.548835	1.202378	0.000142
 443	4.3979e+01	17.6016	52.155757	0.000213	2.129301	0.721427	0.000085
 444	4.4078e+01	17.6498	52.280908	0.000314	3.143254	1.064963	0.000126
 445	4.4178e+01	17.6819	52.402022	0.000304	3.041859	1.030610	0.000122
 446	4.4278e+01	17.7316	52.551396	0.000375	3.751626	1.271085	0.000150
 447	4.4377e+01	17.7621	52.620027	0.000172	1.723720	0.584012	0.000069
 448	4.4477e+01	17.7958	52.757290	0.000345	3.447440	1.168024	0.000138
 449	4.4576e+01	17.8455	52.854181	0.000243	2.433487	0.824488	0.000097
 450	4.4675e+01	17.8872	52.971258	0.000294	2.940463	0.996256	0.000118
 451	4.4775e+01	17.9289	53.116595	0.000365	3.650230	1.236732	0.000146
 452	4.4874e+01	17.9674	53.217523	0.000253	2.534882	0.858841	0.000101
 453	4.4974e+01	18.0027	53.326526	0.000274	2.737673	0.927549	0.000110
 454	4.5074e+01	18.0508	53.427454	0.000253	2.534882	0.858841	0.000101
 455	4.5173e+01	18.0813	53.536457	0.000274	2.737673	0.927549	0.000110
 456	4.5273e+01	18.1262	53.669683	0.000335	3.346045	1.133671	0.000134
 457	4.5372e+01	18.1695	53.802908	0.000335	3.346045	1.133671	0.000134
 458	4.5471e+01	18.2048	53.887688	0.000213	2.129301	0.721427	0.000085
 459	4.5571e+01	18.2417	54.028988	0.000355	3.548835	1.202378	0.000142
 460	4.5670e+01	18.2754	54.109730	0.000203	2.027906	0.687073	0.000081
 461	4.5770e+01	18.3171	54.238919	0.000324	3.244649	1.099317	0.000130
 462	4.5870e+01	18.3637	54.355996	0.000294	2.940463	0.996256	0.000118
 463	4.5969e+01	18.4086	54.477110	0.000304	3.041859	1.030610	0.000122
 464	4.6069e+01	18.4439	54.610335	0.000335	3.346045	1.133671	0.000134
 465	4.6168e+01	18.4792	54.735486	0.000314	3.143254	1.064963	0.000126
 466	4.6267e+01	18.5177	54.804118	0.000172	1.723720	0.584012	0.000069
 467	4.6367e+01	18.5642	54.953492	0.000375	3.751626	1.271085	0.000150
 468	4.6467e+01	18.5995	55.054420	0.000253	2.534882	0.858841	0.000101
 469	4.6566e+01	18.6412	55.163423	0.000274	2.737673	0.927549	0.000110
 470	4.6666e+01	18.6877	55.292611	0.000324	3.244649	1.099317	0.000130
 471	4.6765e+01	18.7214	55.393539	0.000253	2.534882	0.858841	0.000101
 472	4.6864e+01	18.7583	55.510616	0.000294	2.940463	0.996256	0.000118
 473	4.6964e+01	18.7920	55.619619	0.000274	2.737673	0.927549	0.000110
 474	4.7063e+01	18.8465	55.748807	0.000324	3.244649	1.099317	0.000130
 475	4.7163e+01	18.8818	55.845699	0.000243	2.433487	0.824488	0.000097
 476	4.7263e+01	18.9348	55.942590	0.000243	2.433487	0.824488	0.000097
 477	4.7362e+01	18.9476	56.063704	0.000304	3.041859	1.030610	0.000122
 478	4.7462e+01	19.0053	56.184818	0.000304	3.041859	1.030610	0.000122
 479	4.7561e+01	19.0390	56.281709	0.000243	2.433487	0.824488	0.000097
 480	4.7660e+01	19.0791	56.398786	0.000294	2.940463	0.996256	0.000118
 481	4.7760e+01	19.1192	56.471455	0.000183	1.825115	0.618366	0.000073
 482	4.7859e+01	19.1642	56.612754	0.000355	3.548835	1.202378	0.000142
 483	4.7959e+01	19.2043	56.717720	0.000264	2.636278	0.893195	0.000105
 484	4.8059e+01	19.2315	56.822686	0.000264	2.636278	0.893195	0.000105
 485	4.8158e+01	19.2781	56.947837	0.000314	3.143254	1.064963	0.000126
 486	4.8258e+01	19.3134	57.081062	0.000335	3.346045	1.133671	0.000134
 487	4.8357e+01	19.3535	57.141619	0.000152	1.520929	0.515305	0.000061
 488	4.8456e+01	19.4080	57.262733	0.000304	3.041859	1.030610	0.000122
 489	4.8556e+01	19.4401	57.408070	0.000365	3.650230	1.236732	0.000146
 490	4.8656e+01	19.4786	57.517073	0.000274	2.737673	0.927549	0.000110
 491	4.8755e+01	19.5155	57.581667	0.000162	1.622325	0.549658	0.000065
 492	4.8855e+01	19.5588	57.722967	0.000355	3.548835	1.202378	0.000142
 493	4.8954e+01	19.6037	57.852155	0.000324	3.244649	1.099317	0.000130
 494	4.9053e+01	19.6422	57.957121	0.000264	2.636278	0.893195	0.000105
 495	4.9153e+01	19.6775	58.033826	0.000193	1.926511	0.652719	0.000077
 496	4.9252e+01	19.7128	58.219534	0.000466	4.664183	1.580268	0.000187
 497	4.9352e+01	19.7513	58.231646	0.000030	0.304186	0.103061	0.000012
 498	4.9452e+01	19.7930	58.381020	0.000375	3.751626	1.271085	0.000150
 499	4.9551e+01	19.8315	58.518283	0.000345	3.447440	1.168024	0.000138
 500	4.9651e+01	19.8764	58.603062	0.000213	2.129301	0.721427	0.000085
 501	4.9750e+01	19.9133	58.708028	0.000264	2.636278	0.893195	0.000105
 502	4.9849e+01	19.9486	58.804919	0.000243	2.433487	0.824488	0.000097
 503	4.9949e+01	19.9952	58.934108	0.000324	3.244649	1.099317	0.000130
 504	5.0048e+01	19.9567	58.853365	0.000203	2.027906	0.687073	-0.000081
 505	5.0148e+01	19.9133	58.752436	0.000253	2.534882	0.858841	-0.000101
 506	5.0248e+01	19.8668	58.623248	0.000324	3.244649	1.099317	-0.000130
 507	5.0347e+01	19.8331	58.578840	0.000112	1.115348	0.377890	-0.000045
 508	5.0447e+01	19.7898	58.498097	0.000203	2.027906	0.687073	-0.000081
 509	5.0546e+01	19.7577	58.409280	0.000223	2.230696	0.755780	-0.000089
 510	5.0645e+01	19.7192	58.292203	0.000294	2.940463	0.996256	-0.000118
 511	5.0745e+01	19.6743	58.183200	0.000274	2.737673	0.927549	-0.000110
 512	5.0844e+01	19.6390	58.090346	0.000233	2.332092	0.790134	-0.000093
 513	5.0944e+01	19.5973	57.993455	0.000243	2.433487	0.824488	-0.000097
 514	5.1044e+01	19.5588	57.924824	0.000172	1.723720	0.584012	-0.000069
 515	5.1143e+01	19.5187	57.811784	0.000284	2.839068	0.961902	-0.000114
 516	5.1242e+01	19.4786	57.718930	0.000233	2.332092	0.790134	-0.000093
 517	5.1342e+01	19.4385	57.618001	0.000253	2.534882	0.858841	-0.000101
 518	5.1441e+01	19.3936	57.537259	0.000203	2.027906	0.687073	-0.000081
 519	5.1541e+01	19.3503	57.432293	0.000264	2.636278	0.893195	-0.000105
 520	5.1641e+01	19.3198	57.323290	0.000274	2.737673	0.927549	-0.000110
 521	5.1740e+01	19.2781	57.222362	0.000253	2.534882	0.858841	-0.000101
 522	5.1840e+01	19.2444	57.125471	0.000243	2.433487	0.824488	-0.000097
 523	5.1939e+01	19.2043	57.044728	0.000203	2.027906	0.687073	-0.000081
 524	5.2038e+01	19.1545	56.927651	0.000294	2.940463	0.996256	-0.000118
 525	5.2138e+01	19.1144	56.846908	0.000203	2.027906	0.687073	-0.000081
 526	5.2237e+01	19.0840	56.758091	0.000223	2.230696	0.755780	-0.000089
 527	5.2337e+01	19.0406	56.661200	0.000243	2.433487	0.824488	-0.000097
 528	5.2437e+01	19.0037	56.523937	0.000345	3.447440	1.168024	-0.000138
 529	5.2536e+01	18.9524	56.451269	0.000183	1.825115	0.618366	-0.000073
 530	5.2636e+01	18.9203	56.358415	0.000233	2.332092	0.790134	-0.000093
 531	5.2735e+01	18.8802	56.245375	0.000284	2.839068	0.961902	-0.000114
 532	5.2834e+01	18.8449	56.124261	0.000304	3.041859	1.030610	-0.000122
 533	5.2934e+01	18.8064	56.023333	0.000253	2.534882	0.858841	-0.000101
 534	5.3033e+01	18.7679	55.930479	0.000233	2.332092	0.790134	-0.000093
 535	5.3133e+01	18.7182	55.817439	0.000284	2.839068	0.961902	-0.000114
 536	5.3233e+01	18.6797	55.752845	0.000162	1.622325	0.549658	-0.000065
 537	5.3332e+01	18.6380	55.619619	0.000335	3.346045	1.133671	-0.000134
 538	5.3431e+01	18.6043	55.510616	0.000274	2.737673	0.927549	-0.000110
 539	5.3531e+01	18.5610	55.409688	0.000253	2.534882	0.858841	-0.000101
 540	5.3630e+01	18.5209	55.345094	0.000162	1.622325	0.549658	-0.000065
 541	5.3730e+01	18.4824	55.215905	0.000324	3.244649	1.099317	-0.000130
 542	5.3830e+01	18.4519	55.114977	0.000253	2.534882	0.858841	-0.000101
 543	5.3929e+01	18.4006	55.026160	0.000223	2.230696	0.755780	-0.000089
 544	5.4029e+01	18.3604	54.921195	0.000264	2.636278	0.893195	-0.000105
 545	5.4128e+01	18.3268	54.796043	0.000314	3.143254	1.064963	-0.000126
 546	5.4227e+01	18.2883	54.703189	0.000233	2.332092	0.790134	-0.000093
 547	5.4327e+01	18.2417	54.610335	0.000233	2.332092	0.790134	-0.000093
 548	5.4426e+01	18.2064	54.505370	0.000264	2.636278	0.893195	-0.000105
 549	5.4526e+01	18.1583	54.444813	0.000152	1.520929	0.515305	-0.000061
 550	5.4626e+01	18.1198	54.315624	0.000324	3.244649	1.099317	-0.000130
 551	5.4725e+01	18.0829	54.234882	0.000203	2.027906	0.687073	-0.000081
 552	5.4825e+01	18.0476	54.105693	0.000324	3.244649	1.099317	-0.000130
 553	5.4924e+01	18.0075	54.000728	0.000264	2.636278	0.893195	-0.000105
 554	5.5023e+01	17.9610	53.891725	0.000274	2.737673	0.927549	-0.000110
 555	5.5123e+01	17.9209	53.782722	0.000274	2.737673	0.927549	-0.000110
 556	5.5222e+01	17.8840	53.701980	0.000203	2.027906	0.687073	-0.000081
 557	5.5322e+01	17.8503	53.601051	0.000253	2.534882	0.858841	-0.000101
 558	5.5422e+01	17.7974	53.492049	0.000274	2.737673	0.927549	-0.000110
 559	5.5521e+01	17.7637	53.387083	0.000264	2.636278	0.893195	-0.000105
 560	5.5620e+01	17.7300	53.286155	0.000253	2.534882	0.858841	-0.000101
 561	5.5720e+01	17.6770	53.173115	0.000284	2.839068	0.961902	-0.000114
 562	5.5819e+01	17.6482	53.100446	0.000183	1.825115	0.618366	-0.000073
 563	5.5919e+01	17.6032	53.007592	0.000233	2.332092	0.790134	-0.000093
 564	5.6019e+01	17.5663	52.874367	0.000335	3.346045	1.133671	-0.000134
 565	5.6118e+01	17.5278	52.789587	0.000213	2.129301	0.721427	-0.000085
 566	5.6218e+01	17.4829	52.692696	0.000243	2.433487	0.824488	-0.000097
 567	5.6317e+01	17.4428	52.587730	0.000264	2.636278	0.893195	-0.000105
 568	5.6416e+01	17.4059	52.494876	0.000233	2.332092	0.790134	-0.000093
 569	5.6516e+01	17.3658	52.385873	0.000274	2.737673	0.927549	-0.000110
 570	5.6615e+01	17.3321	52.284945	0.000253	2.534882	0.858841	-0.000101
 571	5.6715e+01	17.2840	52.196128	0.000223	2.230696	0.755780	-0.000089
 572	5.6815e+01	17.2599	52.075014	0.000304	3.041859	1.030610	-0.000122
 573	5.6914e+01	17.1990	51.961974	0.000284	2.839068	0.961902	-0.000114
 574	5.7014e+01	17.1637	51.889306	0.000183	1.825115	0.618366	-0.000073
 575	5.7113e+01	17.1268	51.760117	0.000324	3.244649	1.099317	-0.000130
 576	5.7212e+01	17.0883	51.643040	0.000294	2.940463	0.996256	-0.000118
 577	5.7312e+01	17.0434	51.562298	0.000203	2.027906	0.687073	-0.000081
 578	5.7411e+01	17.0145	51.420998	0.000355	3.548835	1.202378	-0.000142
 579	5.7511e+01	16.9664	51.368515	0.000132	1.318139	0.446598	-0.000053
 580	5.7611e+01	16.9231	51.263550	0.000264	2.636278	0.893195	-0.000105
 581	5.7710e+01	16.8910	51.150510	0.000284	2.839068	0.961902	-0.000114
 582	5.7809e+01	16.8477	51.057656	0.000233	2.332092	0.790134	-0.000093
 583	5.7909e+01	16.8156	50.948653	0.000274	2.737673	0.927549	-0.000110
 584	5.8008e+01	16.7723	50.847725	0.000253	2.534882	0.858841	-0.000101
 585	5.8108e+01	16.7338	50.726611	0.000304	3.041859	1.030610	-0.000122
 586	5.8208e+01	16.6936	50.657979	0.000172	1.723720	0.584012	-0.000069
 587	5.8307e+01	16.6616	50.512642	0.000365	3.650230	1.236732	-0.000146
 588	5.8407e+01	16.6054	50.419788	0.000233	2.332092	0.790134	-0.000093
 589	5.8506e+01	16.5701	50.322897	0.000243	2.433487	0.824488	-0.000097
 590	5.8605e+01	16.5236	50.213894	0.000274	2.737673	0.927549	-0.000110
 591	5.8705e+01	16.4899	50.117003	0.000243	2.433487	0.824488	-0.000097
 592	5.8804e+01	16.4514	49.987815	0.000324	3.244649	1.099317	-0.000130
 593	5.8904e+01	16.4145	49.894961	0.000233	2.332092	0.790134	-0.000093
 594	5.9004e+01	16.3712	49.781921	0.000284	2.839068	0.961902	-0.000114
 595	5.9103e+01	16.3375	49.709252	0.000183	1.825115	0.618366	-0.000073
 596	5.9203e+01	16.2894	49.612361	0.000243	2.433487	0.824488	-0.000097
 597	5.9302e+01	16.2525	49.442801	0.000426	4.258602	1.442853	-0.000170
 598	5.9401e+01	16.2124	49.378207	0.000162	1.622325	0.549658	-0.000065
 599	5.9501e+01	16.1642	49.297464	0.000203	2.027906	0.687073	-0.000081
 600	5.9600e+01	16.1241	49.135979	0.000406	4.055812	1.374146	-0.000162
 601	5.9700e+01	16.0905	49.059273	0.000193	1.926511	0.652719	-0.000077
 602	5.9800e+01	16.0536	48.958345	0.000253	2.534882	0.858841	-0.000101
 603	5.9899e+01	15.9974	48.881640	0.000193	1.926511	0.652719	-0.000077
 604	5.9998e+01	15.9621	48.736303	0.000365	3.650230	1.236732	-0.000146
 605	6.0098e+01	15.9316	48.623263	0.000284	2.839068	0.961902	-0.000114
 606	6.0197e+01	15.8915	48.518297	0.000264	2.636278	0.893195	-0.000105
 607	6.0297e+01	15.8578	48.425443	0.000233	2.332092	0.790134	-0.000093
 608	6.0397e+01	15.8097	48.344700	0.000203	2.027906	0.687073	-0.000081
 609	6.0496e+01	15.7744	48.207438	0.000345	3.447440	1.168024	-0.000138
 610	6.0596e+01	15.7279	48.102472	0.000264	2.636278	0.893195	-0.000105
 611	6.0695e+01	15.6926	48.037878	0.000162	1.622325	0.549658	-0.000065
 612	6.0794e+01	15.6493	47.888504	0.000375	3.751626	1.271085	-0.000150
 613	6.0894e+01	15.6124	47.791613	0.000243	2.433487	0.824488	-0.000097
 614	6.0993e+01	15.5835	47.706833	0.000213	2.129301	0.721427	-0.000085
 615	6.1093e+01	15.5322	47.561496	0.000365	3.650230	1.236732	-0.000146
 616	6.1193e+01	15.4905	47.444419	0.000294	2.940463	0.996256	-0.000118
 617	6.1292e+01	15.4552	47.391936	0.000132	1.318139	0.446598	-0.000053
 618	6.1392e+01	15.4183	47.258711	0.000335	3.346045	1.133671	-0.000134
 619	6.1491e+01	15.3782	47.165857	0.000233	2.332092	0.790134	-0.000093
 620	6.1590e+01	15.3317	47.040706	0.000314	3.143254	1.064963	-0.000126
 621	6.1690e+01	15.2964	46.935740	0.000264	2.636278	0.893195	-0.000105
 622	6.1789e+01	15.2563	46.814626	0.000304	3.041859	1.030610	-0.000122
 623	6.1889e+01	15.2242	46.758106	0.000142	1.419534	0.480951	-0.000057
 624	6.1989e+01	15.1760	46.612769	0.000365	3.650230	1.236732	-0.000146
 625	6.2088e+01	15.1343	46.491655	0.000304	3.041859	1.030610	-0.000122
 626	6.2188e+01	15.0926	46.418987	0.000183	1.825115	0.618366	-0.000073
 627	6.2287e+01	15.0509	46.322095	0.000243	2.433487	0.824488	-0.000097
 628	6.2386e+01	15.0140	46.188870	0.000335	3.346045	1.133671	-0.000134
 629	6.2486e+01	14.9691	46.051607	0.000345	3.447440	1.168024	-0.000138
 630	6.2586e+01	14.9290	45.991050	0.000152	1.520929	0.515305	-0.000061
 631	6.2685e+01	14.8889	45.918382	0.000183	1.825115	0.618366	-0.000073
 632	6.2785e+01	14.8648	45.760934	0.000395	3.954416	1.339793	-0.000158
 633	6.2884e+01	14.8183	45.635782	0.000314	3.143254	1.064963	-0.000126
 634	6.2983e+01	14.7766	45.555040	0.000203	2.027906	0.687073	-0.000081
 635	6.3083e+01	14.7381	45.450074	0.000264	2.636278	0.893195	-0.000105
 636	6.3182e+01	14.6964	45.320886	0.000324	3.244649	1.099317	-0.000130
 637	6.3282e+01	14.6627	45.191697	0.000324	3.244649	1.099317	-0.000130
 638	6.3382e+01	14.6130	45.123066	0.000172	1.723720	0.584012	-0.000069
 639	6.3481e+01	14.5712	45.005989	0.000294	2.940463	0.996256	-0.000118
 640	6.3581e+01	14.5408	44.848541	0.000395	3.954416	1.339793	-0.000158
 641	6.3680e+01	14.4991	44.787984	0.000152	1.520929	0.515305	-0.000061
 642	6.3779e+01	14.4557	44.654758	0.000335	3.346045	1.133671	-0.000134
 643	6.3879e+01	14.4156	44.533644	0.000304	3.041859	1.030610	-0.000122
 644	6.3978e+01	14.3707	44.420605	0.000284	2.839068	0.961902	-0.000114
 645	6.4078e+01	14.3418	44.327750	0.000233	2.332092	0.790134	-0.000093
 646	6.4177e+01	14.3049	44.230859	0.000243	2.433487	0.824488	-0.000097
 647	6.4277e+01	14.2632	44.105708	0.000314	3.143254	1.064963	-0.000126
 648	6.4376e+01	14.2151	44.012854	0.000233	2.332092	0.790134	-0.000093
 649	6.4476e+01	14.1782	43.887703	0.000314	3.143254	1.064963	-0.000126
 650	6.4576e+01	14.1317	43.758514	0.000324	3.244649	1.099317	-0.000130
 651	6.4675e+01	14.0932	43.681809	0.000193	1.926511	0.652719	-0.000077
 652	6.4775e+01	14.0563	43.528398	0.000385	3.853021	1.305439	-0.000154
 653	6.4874e+01	14.0290	43.443618	0.000213	2.129301	0.721427	-0.000085
 654	6.4974e+01	13.9857	43.322504	0.000304	3.041859	1.030610	-0.000122
 655	6.5073e+01	13.9408	43.233687	0.000223	2.230696	0.755780	-0.000089
 656	6.5172e+01	13.8991	43.092387	0.000355	3.548835	1.202378	-0.000142
 657	6.5272e+01	13.8509	42.943013	0.000375	3.751626	1.271085	-0.000150
 658	6.5371e+01	13.8285	42.898604	0.000112	1.115348	0.377890	-0.000045
 659	6.5471e+01	13.7820	42.769416	0.000324	3.244649	1.099317	-0.000130
 660	6.5570e+01	13.7386	42.648302	0.000304	3.041859	1.030610	-0.000122
 661	6.5670e+01	13.6921	42.559485	0.000223	2.230696	0.755780	-0.000089
 662	6.5769e+01	13.6616	42.450482	0.000274	2.737673	0.927549	-0.000110
 663	6.5869e+01	13.6231	42.321294	0.000324	3.244649	1.099317	-0.000130
 664	6.5969e+01	13.5814	42.216328	0.000264	2.636278	0.893195	-0.000105
 665	6.6068e+01	13.5397	42.083103	0.000335	3.346045	1.133671	-0.000134
 666	6.6168e+01	13.5012	41.961989	0.000304	3.041859	1.030610	-0.000122
 667	6.6267e+01	13.4675	41.824726	0.000345	3.447440	1.168024	-0.000138
 668	6.6367e+01	13.4242	41.739946	0.000213	2.129301	0.721427	-0.000085
 669	6.6466e+01	13.3793	41.626907	0.000284	2.839068	0.961902	-0.000114
 670	6.6566e+01	13.3440	41.481570	0.000365	3.650230	1.236732	-0.000146
 671	6.6665e+01	13.3039	41.421013	0.000152	1.520929	0.515305	-0.000061
 672	6.6764e+01	13.2654	41.336233	0.000213	2.129301	0.721427	-0.000085
 673	6.6864e+01	13.2141	41.186859	0.000375	3.751626	1.271085	-0.000150
 674	6.6963e+01	13.1836	41.049596	0.000345	3.447440	1.168024	-0.000138
 675	6.7063e+01	13.1419	40.976928	0.000183	1.825115	0.618366	-0.000073
 676	6.7162e+01	13.1002	40.859851	0.000294	2.940463	0.996256	-0.000118
 677	6.7262e+01	13.0649	40.746811	0.000284	2.839068	0.961902	-0.000114
 678	6.7362e+01	13.0200	40.617623	0.000324	3.244649	1.099317	-0.000130
 679	6.7461e+01	12.9718	40.524769	0.000233	2.332092	0.790134	-0.000093
 680	6.7561e+01	12.9430	40.407692	0.000294	2.940463	0.996256	-0.000118
 681	6.7660e+01	12.9044	40.310800	0.000243	2.433487	0.824488	-0.000097
 682	6.7760e+01	12.8708	40.177575	0.000335	3.346045	1.133671	-0.000134
 683	6.7859e+01	12.8323	40.068572	0.000274	2.737673	0.927549	-0.000110
 684	6.7959e+01	12.7809	39.947458	0.000304	3.041859	1.030610	-0.000122
 685	6.8058e+01	12.7504	39.842493	0.000264	2.636278	0.893195	-0.000105
 686	6.8157e+01	12.7023	39.725416	0.000294	2.940463	0.996256	-0.000118
 687	6.8257e+01	12.6702	39.628524	0.000243	2.433487	0.824488	-0.000097
 688	6.8356e+01	12.6173	39.503373	0.000314	3.143254	1.064963	-0.000126
 689	6.8456e+01	12.5852	39.362073	0.000355	3.548835	1.202378	-0.000142
 690	6.8555e+01	12.5451	39.273256	0.000223	2.230696	0.755780	-0.000089
 691	6.8655e+01	12.5130	39.176365	0.000243	2.433487	0.824488	-0.000097
 692	6.8754e+01	12.4745	39.026991	0.000375	3.751626	1.271085	-0.000150
 693	6.8854e+01	12.4328	38.974508	0.000132	1.318139	0.446598	-0.000053
 694	6.8954e+01	12.3943	38.796874	0.000446	4.461393	1.511561	-0.000179
 695	6.9053e+01	12.3414	38.691909	0.000264	2.636278	0.893195	-0.000105
 696	6.9153e+01	12.3045	38.590981	0.000253	2.534882	0.858841	-0.000101
 697	6.9252e+01	12.2724	38.481978	0.000274	2.737673	0.927549	-0.000110
 698	6.9352e+01	12.2291	38.381049	0.000253	2.534882	0.858841	-0.000101
 699	6.9451e+01	12.1906	38.231675	0.000375	3.751626	1.271085	-0.000150
 700	6.9550e+01	12.1392	38.138821	0.000233	2.332092	0.790134	-0.000093
 701	6.9650e+01	12.1152	38.021744	0.000294	2.940463	0.996256	-0.000118
 702	6.9749e+01	12.0702	37.900630	0.000304	3.041859	1.030610	-0.000122
 703	6.9849e+01	12.0253	37.811813	0.000223	2.230696	0.755780	-0.000089
 704	6.9948e+01	11.9900	37.654365	0.000395	3.954416	1.339793	-0.000158
 705	7.0048e+01	11.9515	37.561511	0.000233	2.332092	0.790134	-0.000093
 706	7.0147e+01	11.9114	37.452508	0.000274	2.737673	0.927549	-0.000110
 707	7.0247e+01	11.8665	37.311208	0.000355	3.548835	1.202378	-0.000142
 708	7.0347e+01	11.8328	37.206243	0.000264	2.636278	0.893195	-0.000105
 709	7.0446e+01	11.7911	37.113389	0.000233	2.332092	0.790134	-0.000093
 710	7.0546e+01	11.7510	36.988238	0.000314	3.143254	1.064963	-0.000126
 711	7.0645e+01	11.7125	36.867124	0.000304	3.041859	1.030610	-0.000122
 712	7.0745e+01	11.6724	36.725824	0.000355	3.548835	1.202378	-0.000142
 713	7.0844e+01	11.6323	36.641044	0.000213	2.129301	0.721427	-0.000085
 714	7.0944e+01	11.5842	36.483596	0.000395	3.954416	1.339793	-0.000158
 715	7.1043e+01	11.5489	36.394779	0.000223	2.230696	0.755780	-0.000089
 716	7.1142e+01	11.5040	36.314036	0.000203	2.027906	0.687073	-0.000081
 717	7.1242e+01	11.4719	36.184848	0.000324	3.244649	1.099317	-0.000130
 718	7.1341e+01	11.4366	36.003177	0.000456	4.562788	1.545914	-0.000183
 719	7.1441e+01	11.3933	35.938582	0.000162	1.622325	0.549658	-0.000065
 720	7.1540e+01	11.3516	35.793245	0.000365	3.650230	1.236732	-0.000146
 721	7.1640e+01	11.3050	35.712503	0.000203	2.027906	0.687073	-0.000081
 722	7.1740e+01	11.2665	35.587352	0.000314	3.143254	1.064963	-0.000126
 723	7.1839e+01	11.2344	35.466237	0.000304	3.041859	1.030610	-0.000122
 724	7.1939e+01	11.1879	35.373383	0.000233	2.332092	0.790134	-0.000093
 725	7.2038e+01	11.1446	35.256306	0.000294	2.940463	0.996256	-0.000118
 726	7.2138e+01	11.1093	35.143267	0.000284	2.839068	0.961902	-0.000114
 727	7.2237e+01	11.0660	35.034264	0.000274	2.737673	0.927549	-0.000110
 728	7.2337e+01	11.0323	34.901038	0.000335	3.346045	1.133671	-0.000134
 729	7.2436e+01	10.9922	34.783962	0.000294	2.940463	0.996256	-0.000118
 730	7.2535e+01	10.9505	34.695145	0.000223	2.230696	0.755780	-0.000089
 731	7.2635e+01	10.9136	34.590179	0.000264	2.636278	0.893195	-0.000105
 732	7.2734e+01	10.8719	34.460991	0.000324	3.244649	1.099317	-0.000130
 733	7.2834e+01	10.8366	34.360062	0.000253	2.534882	0.858841	-0.000101
 734	7.2933e+01	10.7949	34.222800	0.000345	3.447440	1.168024	-0.000138
 735	7.3033e+01	10.7532	34.089574	0.000335	3.346045	1.133671	-0.000134
 736	7.3132e+01	10.7163	34.000757	0.000223	2.230696	0.755780	-0.000089
 737	7.3232e+01	10.6762	33.863495	0.000345	3.447440	1.168024	-0.000138
 738	7.3332e+01	10.6409	33.782752	0.000203	2.027906	0.687073	-0.000081
 739	7.3431e+01	10.5895	33.689898	0.000233	2.332092	0.790134	-0.000093
 740	7.3531e+01	10.5575	33.560709	0.000324	3.244649	1.099317	-0.000130
 741	7.3630e+01	10.5254	33.443632	0.000294	2.940463	0.996256	-0.000118
 742	7.3730e+01	10.4837	33.379038	0.000162	1.622325	0.549658	-0.000065
 743	7.3829e+01	10.4323	33.225627	0.000385	3.853021	1.305439	-0.000154
 744	7.3928e+01	10.4002	33.092402	0.000335	3.346045	1.133671	-0.000134
 745	7.4028e+01	10.3537	32.987436	0.000264	2.636278	0.893195	-0.000105
 746	7.4127e+01	10.3136	32.846136	0.000355	3.548835	1.202378	-0.000142
 747	7.4227e+01	10.2687	32.765394	0.000203	2.027906	0.687073	-0.000081
 748	7.4326e+01	10.2382	32.644280	0.000304	3.041859	1.030610	-0.000122
 749	7.4426e+01	10.1917	32.502980	0.000355	3.548835	1.202378	-0.000142
 750	7.4525e+01	10.1580	32.406089	0.000243	2.433487	0.824488	-0.000097
 751	7.4625e+01	10.1163	32.272863	0.000335	3.346045	1.133671	-0.000134
 752	7.4725e+01	10.0682	32.159823	0.000284	2.839068	0.961902	-0.000114
 753	7.4824e+01	10.0393	32.050821	0.000274	2.737673	0.927549	-0.000110
 754	7.4924e+01	9.9944	31.921632	0.000324	3.244649	1.099317	-0.000130
 755	7.5023e+01	9.9655	31.812630	0.000274	2.737673	0.927549	-0.000110
 756	7.5123e+01	9.9158	31.675367	0.000345	3.447440	1.168024	-0.000138
 757	7.5222e+01	9.8724	31.590587	0.000213	2.129301	0.721427	-0.000085
 758	7.5322e+01	9.8339	31.453325	0.000345	3.447440	1.168024	-0.000138
 759	7.5421e+01	9.8003	31.364508	0.000223	2.230696	0.755780	-0.000089
 760	7.5520e+01	9.7569	31.263579	0.000253	2.534882	0.858841	-0.000101
 761	7.5620e+01	9.7152	31.154576	0.000274	2.737673	0.927549	-0.000110
 762	7.5719e+01	9.6815	30.989054	0.000416	4.157207	1.408500	-0.000166
 763	7.5819e+01	9.6382	30.880051	0.000274	2.737673	0.927549	-0.000110
 764	7.5918e+01	9.6061	30.762974	0.000294	2.940463	0.996256	-0.000118
 765	7.6018e+01	9.5564	30.645897	0.000294	2.940463	0.996256	-0.000118
 766	7.6118e+01	9.5211	30.540932	0.000264	2.636278	0.893195	-0.000105
 767	7.6217e+01	9.4858	30.444041	0.000243	2.433487	0.824488	-0.000097
 768	7.6317e+01	9.4377	30.294667	0.000375	3.751626	1.271085	-0.000150
 769	7.6416e+01	9.4024	30.205850	0.000223	2.230696	0.755780	-0.000089
 770	7.6516e+01	9.3623	30.064550	0.000355	3.548835	1.202378	-0.000142
 771	7.6615e+01	9.3190	29.947473	0.000294	2.940463	0.996256	-0.000118
 772	7.6715e+01	9.2757	29.810210	0.000345	3.447440	1.168024	-0.000138
 773	7.6814e+01	9.2259	29.681022	0.000324	3.244649	1.099317	-0.000130
 774	7.6913e+01	9.2019	29.628539	0.000132	1.318139	0.446598	-0.000053
 775	7.7013e+01	9.1634	29.483202	0.000365	3.650230	1.236732	-0.000146
 776	7.7112e+01	9.1233	29.337865	0.000365	3.650230	1.236732	-0.000146
 777	7.7212e+01	9.0832	29.224826	0.000284	2.839068	0.961902	-0.000114
 778	7.7311e+01	9.0366	29.127934	0.000243	2.433487	0.824488	-0.000097
 779	7.7411e+01	8.9901	29.002783	0.000314	3.143254	1.064963	-0.000126
 780	7.7510e+01	8.9612	28.893780	0.000274	2.737673	0.927549	-0.000110
 781	7.7610e+01	8.9195	28.752481	0.000355	3.548835	1.202378	-0.000142
 782	7.7710e+01	8.8794	28.639441	0.000284	2.839068	0.961902	-0.000114
 783	7.7809e+01	8.8361	28.534475	0.000264	2.636278	0.893195	-0.000105
 784	7.7909e+01	8.7976	28.421436	0.000284	2.839068	0.961902	-0.000114
 785	7.8008e+01	8.7623	28.280136	0.000355	3.548835	1.202378	-0.000142
 786	7.8108e+01	8.7190	28.191319	0.000223	2.230696	0.755780	-0.000089
 787	7.8207e+01	8.6805	28.066168	0.000314	3.143254	1.064963	-0.000126
 788	7.8306e+01	8.6388	27.953128	0.000284	2.839068	0.961902	-0.000114
 789	7.8406e+01	8.6115	27.827977	0.000314	3.143254	1.064963	-0.000126
 790	7.8505e+01	8.5586	27.670528	0.000395	3.954416	1.339793	-0.000158
 791	7.8605e+01	8.5297	27.589786	0.000203	2.027906	0.687073	-0.000081
 792	7.8704e+01	8.4768	27.472709	0.000294	2.940463	0.996256	-0.000118
 793	7.8804e+01	8.4463	27.379855	0.000233	2.332092	0.790134	-0.000093
 794	7.8903e+01	8.4030	27.230481	0.000375	3.751626	1.271085	-0.000150
 795	7.9003e+01	8.3613	27.105329	0.000314	3.143254	1.064963	-0.000126
 796	7.9103e+01	8.3179	27.012475	0.000233	2.332092	0.790134	-0.000093
 797	7.9202e+01	8.2810	26.891361	0.000304	3.041859	1.030610	-0.000122
 798	7.9302e+01	8.2345	26.741987	0.000375	3.751626	1.271085	-0.000150
 799	7.9401e+01	8.2024	26.624910	0.000294	2.940463	0.996256	-0.000118
 800	7.9501e+01	8.1671	26.503796	0.000304	3.041859	1.030610	-0.000122
 801	7.9600e+01	8.1222	26.378645	0.000314	3.143254	1.064963	-0.000126
 802	7.9700e+01	8.0885	26.269642	0.000274	2.737673	0.927549	-0.000110
 803	7.9799e+01	8.0436	26.108157	0.000406	4.055812	1.374146	-0.000162
 804	7.9898e+01	8.0051	26.075860	0.000081	0.811162	0.274829	-0.000032
 805	7.9998e+01	7.9666	25.914374	0.000406	4.055812	1.374146	-0.000162
 806	8.0097e+01	7.9297	25.756926	0.000395	3.954416	1.339793	-0.000158
 807	8.0197e+01	7.8848	25.651960	0.000264	2.636278	0.893195	-0.000105
 808	8.0296e+01	7.8431	25.546995	0.000264	2.636278	0.893195	-0.000105
 809	8.0396e+01	7.8062	25.470289	0.000193	1.926511	0.652719	-0.000077
 810	8.0496e+01	7.7597	25.288618	0.000456	4.562788	1.545914	-0.000183
 811	8.0595e+01	7.7196	25.163467	0.000314	3.143254	1.064963	-0.000126
 812	8.0695e+01	7.6875	25.066576	0.000243	2.433487	0.824488	-0.000097
 813	8.0794e+01	7.6474	24.925276	0.000355	3.548835	1.202378	-0.000142
 814	8.0894e+01	7.5993	24.804162	0.000304	3.041859	1.030610	-0.000122
 815	8.0993e+01	7.5591	24.679011	0.000314	3.143254	1.064963	-0.000126
 816	8.1093e+01	7.5271	24.537711	0.000355	3.548835	1.202378	-0.000142
 817	8.1192e+01	7.4950	24.432745	0.000264	2.636278	0.893195	-0.000105
 818	8.1291e+01	7.4485	24.287409	0.000365	3.650230	1.236732	-0.000146
 819	8.1391e+01	7.4132	24.190517	0.000243	2.433487	0.824488	-0.000097
 820	8.1490e+01	7.3634	24.045180	0.000365	3.650230	1.236732	-0.000146
 821	8.1590e+01	7.3265	23.952326	0.000233	2.332092	0.790134	-0.000093
 822	8.1689e+01	7.2832	23.851398	0.000253	2.534882	0.858841	-0.000101
 823	8.1789e+01	7.2463	23.661653	0.000477	4.765579	1.614622	-0.000191
 824	8.1888e+01	7.2094	23.512279	0.000375	3.751626	1.271085	-0.000150
 825	8.1988e+01	7.1661	23.451722	0.000152	1.520929	0.515305	-0.000061
 826	8.2088e+01	7.1276	23.322533	0.000324	3.244649	1.099317	-0.000130
 827	8.2187e+01	7.0907	23.181233	0.000355	3.548835	1.202378	-0.000142
 828	8.2287e+01	7.0538	23.064156	0.000294	2.940463	0.996256	-0.000118
 829	8.2386e+01	7.0073	22.930931	0.000335	3.346045	1.133671	-0.000134
 830	8.2486e+01	6.9704	22.834040	0.000243	2.433487	0.824488	-0.000097
 831	8.2585e+01	6.9303	22.708889	0.000314	3.143254	1.064963	-0.000126
 832	8.2684e+01	6.8790	22.583737	0.000314	3.143254	1.064963	-0.000126
 833	8.2784e+01	6.8404	22.442438	0.000355	3.548835	1.202378	-0.000142
 834	8.2883e+01	6.8068	22.325361	0.000294	2.940463	0.996256	-0.000118
 835	8.2983e+01	6.7618	22.184061	0.000355	3.548835	1.202378	-0.000142
 836	8.3082e+01	6.7249	22.103318	0.000203	2.027906	0.687073	-0.000081
 837	8.3182e+01	6.6913	21.962018	0.000355	3.548835	1.202378	-0.000142
 838	8.3281e+01	6.6511	21.816682	0.000365	3.650230	1.236732	-0.000146
 839	8.3381e+01	6.6046	21.687493	0.000324	3.244649	1.099317	-0.000130
 840	8.3481e+01	6.5709	21.606750	0.000203	2.027906	0.687073	-0.000081
 841	8.3580e+01	6.5324	21.412968	0.000487	4.866974	1.648975	-0.000195
 842	8.3680e+01	6.4827	21.344337	0.000172	1.723720	0.584012	-0.000069
 843	8.3779e+01	6.4490	21.239371	0.000264	2.636278	0.893195	-0.000105
 844	8.3879e+01	6.4105	21.102109	0.000345	3.447440	1.168024	-0.000138
 845	8.3978e+01	6.3720	20.952734	0.000375	3.751626	1.271085	-0.000150
 846	8.4078e+01	6.3303	20.823546	0.000324	3.244649	1.099317	-0.000130
 847	8.4177e+01	6.2902	20.710506	0.000284	2.839068	0.961902	-0.000114
 848	8.4276e+01	6.2533	20.589392	0.000304	3.041859	1.030610	-0.000122
 849	8.4376e+01	6.2004	20.480390	0.000274	2.737673	0.927549	-0.000110
 850	8.4475e+01	6.1651	20.322941	0.000395	3.954416	1.339793	-0.000158
 851	8.4575e+01	6.1426	20.209902	0.000284	2.839068	0.961902	-0.000114
 852	8.4674e+01	6.0929	20.076676	0.000335	3.346045	1.133671	-0.000134
 853	8.4774e+01	6.0560	19.995933	0.000203	2.027906	0.687073	-0.000081
 854	8.4874e+01	6.0143	19.854634	0.000355	3.548835	1.202378	-0.000142
 855	8.4973e+01	5.9726	19.713334	0.000355	3.548835	1.202378	-0.000142
 856	8.5073e+01	5.9373	19.572034	0.000355	3.548835	1.202378	-0.000142
 857	8.5172e+01	5.8923	19.491291	0.000203	2.027906	0.687073	-0.000081
 858	8.5272e+01	5.8554	19.349992	0.000355	3.548835	1.202378	-0.000142
 859	8.5371e+01	5.8121	19.216766	0.000335	3.346045	1.133671	-0.000134
 860	8.5471e+01	5.7624	19.115838	0.000253	2.534882	0.858841	-0.000101
 861	8.5570e+01	5.7351	18.986649	0.000324	3.244649	1.099317	-0.000130
 862	8.5669e+01	5.6822	18.885721	0.000253	2.534882	0.858841	-0.000101
 863	8.5769e+01	5.6597	18.764607	0.000304	3.041859	1.030610	-0.000122
 864	8.5868e+01	5.6068	18.611196	0.000385	3.853021	1.305439	-0.000154
 865	8.5968e+01	5.5747	18.514304	0.000243	2.433487	0.824488	-0.000097
 866	8.6067e+01	5.5346	18.393190	0.000304	3.041859	1.030610	-0.000122
 867	8.6167e+01	5.4945	18.215556	0.000446	4.461393	1.511561	-0.000179
 868	8.6266e+01	5.4432	18.098480	0.000294	2.940463	0.996256	-0.000118
 869	8.6366e+01	5.4159	17.981403	0.000294	2.940463	0.996256	-0.000118
 870	8.6466e+01	5.3726	17.844140	0.000345	3.447440	1.168024	-0.000138
 871	8.6565e+01	5.3453	17.735137	0.000274	2.737673	0.927549	-0.000110
 872	8.6665e+01	5.2940	17.609986	0.000314	3.143254	1.064963	-0.000126
 873	8.6764e+01	5.2539	17.460612	0.000375	3.751626	1.271085	-0.000150
 874	8.6864e+01	5.2266	17.331424	0.000324	3.244649	1.099317	-0.000130
 875	8.6963e+01	5.1688	17.190124	0.000355	3.548835	1.202378	-0.000142
 876	8.7063e+01	5.1351	17.073047	0.000294	2.940463	0.996256	-0.000118
 877	8.7162e+01	5.0966	16.972119	0.000253	2.534882	0.858841	-0.000101
 878	8.7261e+01	5.0501	16.838893	0.000335	3.346045	1.133671	-0.000134
 879	8.7361e+01	5.0196	16.673371	0.000416	4.157207	1.408500	-0.000166
 880	8.7460e+01	4.9827	16.580516	0.000233	2.332092	0.790134	-0.000093
 881	8.7560e+01	4.9362	16.443254	0.000345	3.447440	1.168024	-0.000138
 882	8.7659e+01	4.8945	16.322140	0.000304	3.041859	1.030610	-0.000122
 883	8.7759e+01	4.8560	16.192951	0.000324	3.244649	1.099317	-0.000130
 884	8.7859e+01	4.8159	16.063763	0.000324	3.244649	1.099317	-0.000130
 885	8.7958e+01	4.7822	15.926500	0.000345	3.447440	1.168024	-0.000138
 886	8.8058e+01	4.7309	15.841721	0.000213	2.129301	0.721427	-0.000085
 887	8.8157e+01	4.6940	15.716569	0.000314	3.143254	1.064963	-0.000126
 888	8.8257e+01	4.6603	15.579307	0.000345	3.447440	1.168024	-0.000138
 889	8.8356e+01	4.6170	15.438007	0.000355	3.548835	1.202378	-0.000142
 890	8.8456e+01	4.5737	15.349190	0.000223	2.230696	0.755780	-0.000089
 891	8.8555e+01	4.5432	15.187705	0.000406	4.055812	1.374146	-0.000162
 892	8.8654e+01	4.5015	15.086776	0.000253	2.534882	0.858841	-0.000101
 893	8.8754e+01	4.4534	14.965662	0.000304	3.041859	1.030610	-0.000122
 894	8.8853e+01	4.4213	14.824362	0.000355	3.548835	1.202378	-0.000142
 895	8.8953e+01	4.3747	14.719397	0.000264	2.636278	0.893195	-0.000105
 896	8.9052e+01	4.3459	14.582134	0.000345	3.447440	1.168024	-0.000138
 897	8.9152e+01	4.2993	14.461020	0.000304	3.041859	1.030610	-0.000122
 898	8.9251e+01	4.2608	14.347980	0.000284	2.839068	0.961902	-0.000114
 899	8.9351e+01	4.2143	14.214755	0.000335	3.346045	1.133671	-0.000134
 900	8.9451e+01	4.1726	14.081529	0.000335	3.346045	1.133671	-0.000134
 901	8.9550e+01	4.1341	13.996750	0.000213	2.129301	0.721427	-0.000085
 902	8.9650e+01	4.0988	13.823153	0.000436	4.359997	1.477207	-0.000174
 903	8.9749e+01	4.0667	13.710113	0.000284	2.839068	0.961902	-0.000114
 904	8.9849e+01	4.0202	13.605147	0.000264	2.636278	0.893195	-0.000105
 905	8.9948e+01	3.9785	13.479996	0.000314	3.143254	1.064963	-0.000126
 906	9.0047e+01	3.9448	13.290251	0.000477	4.765579	1.614622	-0.000191
 907	9.0147e+01	3.9031	13.197397	0.000233	2.332092	0.790134	-0.000093
 908	9.0246e+01	3.8614	13.068208	0.000324	3.244649	1.099317	-0.000130
 909	9.0346e+01	3.8165	12.955169	0.000284	2.839068	0.961902	-0.000114
 910	9.0445e+01	3.7828	12.817906	0.000345	3.447440	1.168024	-0.000138
 911	9.0545e+01	3.7411	12.725052	0.000233	2.332092	0.790134	-0.000093
 912	9.0644e+01	3.7026	12.555492	0.000426	4.258602	1.442853	-0.000170
 913	9.0744e+01	3.6560	12.458601	0.000243	2.433487	0.824488	-0.000097
 914	9.0844e+01	3.6288	12.341524	0.000294	2.940463	0.996256	-0.000118
 915	9.0943e+01	3.5855	12.200224	0.000355	3.548835	1.202378	-0.000142
 916	9.1043e+01	3.5389	12.119481	0.000203	2.027906	0.687073	-0.000081
 917	9.1142e+01	3.5020	11.937810	0.000456	4.562788	1.545914	-0.000183
 918	9.1242e+01	3.4635	11.784399	0.000385	3.853021	1.305439	-0.000154
 919	9.1341e+01	3.4266	11.711731	0.000183	1.825115	0.618366	-0.000073
 920	9.1441e+01	3.3881	11.586580	0.000314	3.143254	1.064963	-0.000126
 921	9.1540e+01	3.3432	11.449317	0.000345	3.447440	1.168024	-0.000138
 922	9.1639e+01	3.3031	11.344351	0.000264	2.636278	0.893195	-0.000105
 923	9.1739e+01	3.2646	11.219200	0.000314	3.143254	1.064963	-0.000126
 924	9.1838e+01	3.2245	11.065789	0.000385	3.853021	1.305439	-0.000154
 925	9.1938e+01	3.1844	10.940638	0.000314	3.143254	1.064963	-0.000126
 926	9.2037e+01	3.1539	10.823561	0.000294	2.940463	0.996256	-0.000118
 927	9.2137e+01	3.0994	10.662075	0.000406	4.055812	1.374146	-0.000162
 928	9.2237e+01	3.0673	10.577296	0.000213	2.129301	0.721427	-0.000085
 929	9.2336e+01	3.0320	10.419847	0.000395	3.954416	1.339793	-0.000158
 930	9.2436e+01	2.9791	10.306808	0.000284	2.839068	0.961902	-0.000114
 931	9.2535e+01	2.9390	10.169545	0.000345	3.447440	1.168024	-0.000138
 932	9.2635e+01	2.9037	10.084765	0.000213	2.129301	0.721427	-0.000085
 933	9.2734e+01	2.8555	9.951540	0.000335	3.346045	1.133671	-0.000134
 934	9.2834e+01	2.8202	9.769868	0.000456	4.562788	1.545914	-0.000183
 935	9.2933e+01	2.7882	9.681051	0.000223	2.230696	0.755780	-0.000089
 936	9.3032e+01	2.7432	9.547826	0.000335	3.346045	1.133671	-0.000134
 937	9.3132e+01	2.6951	9.434786	0.000284	2.839068	0.961902	-0.000114
 938	9.3231e+01	2.6727	9.313672	0.000304	3.041859	1.030610	-0.000122
 939	9.3331e+01	2.6358	9.152187	0.000406	4.055812	1.374146	-0.000162
 940	9.3430e+01	2.5876	9.018961	0.000335	3.346045	1.133671	-0.000134
 941	9.3530e+01	2.5443	8.897847	0.000304	3.041859	1.030610	-0.000122
 942	9.3629e+01	2.5058	8.813067	0.000213	2.129301	0.721427	-0.000085
 943	9.3729e+01	2.4769	8.647545	0.000416	4.157207	1.408500	-0.000166
 944	9.3829e+01	2.4272	8.506245	0.000355	3.548835	1.202378	-0.000142
 945	9.3928e+01	2.3871	8.397242	0.000274	2.737673	0.927549	-0.000110
 946	9.4028e+01	2.3454	8.255943	0.000355	3.548835	1.202378	-0.000142
 947	9.4127e+01	2.3069	8.155014	0.000253	2.534882	0.858841	-0.000101
 948	9.4227e+01	2.2732	8.013714	0.000355	3.548835	1.202378	-0.000142
 949	9.4326e+01	2.2154	7.880489	0.000335	3.346045	1.133671	-0.000134
 950	9.4425e+01	2.1882	7.759375	0.000304	3.041859	1.030610	-0.000122
 951	9.4525e+01	2.1497	7.634224	0.000314	3.143254	1.064963	-0.000126
 952	9.4624e+01	2.1064	7.476775	0.000395	3.954416	1.339793	-0.000158
 953	9.4724e+01	2.0695	7.408144	0.000172	1.723720	0.584012	-0.000069
 954	9.4823e+01	2.0390	7.206287	0.000507	5.069764	1.717683	-0.000203
 955	9.4923e+01	1.9844	7.121507	0.000213	2.129301	0.721427	-0.000085
 956	9.5022e+01	1.9491	6.984245	0.000345	3.447440	1.168024	-0.000138
 957	9.5122e+01	1.9106	6.867168	0.000294	2.940463	0.996256	-0.000118
 958	9.5222e+01	1.8657	6.758165	0.000274	2.737673	0.927549	-0.000110
 959	9.5321e+01	1.8288	6.600717	0.000395	3.954416	1.339793	-0.000158
 960	9.5421e+01	1.7887	6.475566	0.000314	3.143254	1.064963	-0.000126
 961	9.5520e+01	1.7438	6.338303	0.000345	3.447440	1.168024	-0.000138
 962	9.5620e+01	1.7069	6.237375	0.000253	2.534882	0.858841	-0.000101
 963	9.5719e+01	1.6668	6.132409	0.000264	2.636278	0.893195	-0.000105
 964	9.5819e+01	1.6347	5.950738	0.000456	4.562788	1.545914	-0.000183
 965	9.5918e+01	1.5802	5.821550	0.000324	3.244649	1.099317	-0.000130
 966	9.6017e+01	1.5465	5.704473	0.000294	2.940463	0.996256	-0.000118
 967	9.6117e+01	1.5096	5.615656	0.000223	2.230696	0.755780	-0.000089
 968	9.6216e+01	1.4695	5.417836	0.000497	4.968369	1.683329	-0.000199
 969	9.6316e+01	1.4230	5.377465	0.000101	1.013953	0.343537	-0.000041
 970	9.6415e+01	1.3877	5.191757	0.000466	4.664183	1.580268	-0.000187
 971	9.6515e+01	1.3556	5.062568	0.000324	3.244649	1.099317	-0.000130
 972	9.6615e+01	1.3010	4.957603	0.000264	2.636278	0.893195	-0.000105
 973	9.6714e+01	1.2673	4.844563	0.000284	2.839068	0.961902	-0.000114
 974	9.6814e+01	1.2272	4.687115	0.000395	3.954416	1.339793	-0.000158
 975	9.6913e+01	1.1919	4.553889	0.000335	3.346045	1.133671	-0.000134
 976	9.7013e+01	1.1534	4.436812	0.000294	2.940463	0.996256	-0.000118
 977	9.7112e+01	1.1133	4.315698	0.000304	3.041859	1.030610	-0.000122
 978	9.7212e+01	1.0652	4.170361	0.000365	3.650230	1.236732	-0.000146
 979	9.7311e+01	1.0283	4.037136	0.000335	3.346045	1.133671	-0.000134
 980	9.7410e+01	0.9930	3.911985	0.000314	3.143254	1.064963	-0.000126
 981	9.7510e+01	0.9545	3.770685	0.000355	3.548835	1.202378	-0.000142
 982	9.7609e+01	0.9096	3.621311	0.000375	3.751626	1.271085	-0.000150
 983	9.7709e+01	0.8807	3.508271	0.000284	2.839068	0.961902	-0.000114
 984	9.7808e+01	0.8374	3.354860	0.000385	3.853021	1.305439	-0.000154
 985	9.7908e+01	0.7861	3.241820	0.000284	2.839068	0.961902	-0.000114
 986	9.8007e+01	0.7428	3.136854	0.000264	2.636278	0.893195	-0.000105
 987	9.8107e+01	0.6962	2.999592	0.000345	3.447440	1.168024	-0.000138
 988	9.8207e+01	0.6786	2.838106	0.000406	4.055812	1.374146	-0.000162
 989	9.8306e+01	0.6321	2.729104	0.000274	2.737673	0.927549	-0.000110
 990	9.8406e+01	0.5871	2.591841	0.000345	3.447440	1.168024	-0.000138
 991	9.8505e+01	0.5486	2.474764	0.000294	2.940463	0.996256	-0.000118
 992	9.8605e+01	0.5053	2.309242	0.000416	4.157207	1.408500	-0.000166
 993	9.8704e+01	0.4684	2.212350	0.000243	2.433487	0.824488	-0.000097
 994	9.8803e+01	0.4364	2.054902	0.000395	3.954416	1.339793	-0.000158
 995	9.8903e+01	0.3898	1.933788	0.000304	3.041859	1.030610	-0.000122
 996	9.9002e+01	0.3561	1.776340	0.000395	3.954416	1.339793	-0.000158
 997	9.9102e+01	0.3064	1.667337	0.000274	2.737673	0.927549	-0.000110
 998	9.9201e+01	0.2759	1.546223	0.000304	3.041859	1.030610	-0.000122
 999	9.9301e+01	0.2390	1.384738	0.000406	4.055812	1.374146	-0.000162
1000	9.9400e+01	0.1957	1.239401	0.000365	3.650230	1.236732	-0.000146
1001	9.9500e+01	0.1556	1.154621	0.000213	2.129301	0.721427	-0.000085
1002	9.9600e+01	0.1187	1.021395	0.000335	3.346045	1.133671	-0.000134
1003	9.9699e+01	0.0674	0.876058	0.000365	3.650230	1.236732	-0.000146
1004	9.9799e+01	0.0353	0.742833	0.000335	3.346045	1.133671	-0.000134
1005	9.9898e+01	0.0000	0.649979	0.000233	2.332092	0.790134	-0.000093
1006	9.9998e+01	-0.0433	0.500605	0.000375	3.751626	1.271085	-0.000150
1007	1.0010e+02	-0.0770	0.367379	0.000335	3.346045	1.133671	-0.000134
1008	1.0020e+02	-0.1203	0.306822	0.000152	1.520929	0.515305	-0.000061
1009	1.0030e+02	-0.1508	0.121114	0.000466	4.664183	1.580268	-0.000187
1010	1.0040e+02	-0.1957	0.004037	0.000294	2.940463	0.996256	-0.000118
1011	1.0050e+02	-0.2342	-0.145337	0.000375	3.751626	1.271085	-0.000150
1012	1.0059e+02	-0.2727	-0.274525	0.000324	3.244649	1.099317	-0.000130
1013	1.0069e+02	-0.3176	-0.423899	0.000375	3.751626	1.271085	-0.000150
1014	1.0079e+02	-0.3642	-0.532902	0.000274	2.737673	0.927549	-0.000110
1015	1.0089e+02	-0.3946	-0.629793	0.000243	2.433487	0.824488	-0.000097
1016	1.0099e+02	-0.4299	-0.783204	0.000385	3.853021	1.305439	-0.000154
1017	1.0109e+02	-0.4829	-0.892207	0.000274	2.737673	0.927549	-0.000110
1018	1.0119e+02	-0.5182	-1.090027	0.000497	4.968369	1.683329	-0.000199
1019	1.0129e+02	-0.5567	-1.134435	0.000112	1.115348	0.377890	-0.000045
1020	1.0139e+02	-0.5855	-1.299958	0.000416	4.157207	1.408500	-0.000166
1021	1.0149e+02	-0.6417	-1.408960	0.000274	2.737673	0.927549	-0.000110
1022	1.0159e+02	-0.6770	-1.554297	0.000365	3.650230	1.236732	-0.000146
1023	1.0169e+02	-0.7203	-1.683486	0.000324	3.244649	1.099317	-0.000130
1024	1.0179e+02	-0.7556	-1.808637	0.000314	3.143254	1.064963	-0.000126
1025	1.0189e+02	-0.7957	-1.953974	0.000365	3.650230	1.236732	-0.000146
1026	1.0199e+02	-0.8294	-2.067013	0.000284	2.839068	0.961902	-0.000114
1027	1.0209e+02	-0.8743	-2.184090	0.000294	2.940463	0.996256	-0.000118
1028	1.0219e+02	-0.9016	-2.325390	0.000355	3.548835	1.202378	-0.000142
1029	1.0229e+02	-0.9497	-2.519173	0.000487	4.866974	1.648975	-0.000195
1030	1.0239e+02	-0.9850	-2.595878	0.000193	1.926511	0.652719	-0.000077
1031	1.0248e+02	-1.0444	-2.708918	0.000284	2.839068	0.961902	-0.000114
1032	1.0258e+02	-1.0652	-2.850218	0.000355	3.548835	1.202378	-0.000142
1033	1.0268e+02	-1.1117	-2.987480	0.000345	3.447440	1.168024	-0.000138
1034	1.0278e+02	-1.1534	-3.165114	0.000446	4.461393	1.511561	-0.000179
1035	1.0288e+02	-1.1935	-3.241820	0.000193	1.926511	0.652719	-0.000077
1036	1.0298e+02	-1.2321	-3.371008	0.000324	3.244649	1.099317	-0.000130
1037	1.0308e+02	-1.2770	-3.540568	0.000426	4.258602	1.442853	-0.000170
1038	1.0318e+02	-1.3091	-3.637459	0.000243	2.433487	0.824488	-0.000097
1039	1.0328e+02	-1.3556	-3.802982	0.000416	4.157207	1.408500	-0.000166
1040	1.0338e+02	-1.3877	-3.903910	0.000253	2.534882	0.858841	-0.000101
1041	1.0348e+02	-1.4374	-4.057321	0.000385	3.853021	1.305439	-0.000154
1042	1.0358e+02	-1.4727	-4.154213	0.000243	2.433487	0.824488	-0.000097
1043	1.0368e+02	-1.5096	-4.311661	0.000395	3.954416	1.339793	-0.000158
1044	1.0378e+02	-1.5497	-4.424701	0.000284	2.839068	0.961902	-0.000114
1045	1.0388e+02	-1.5930	-4.570038	0.000365	3.650230	1.236732	-0.000146
1046	1.0398e+02	-1.6379	-4.719412	0.000375	3.751626	1.271085	-0.000150
1047	1.0408e+02	-1.6828	-4.840526	0.000304	3.041859	1.030610	-0.000122
1048	1.0418e+02	-1.7101	-4.945491	0.000264	2.636278	0.893195	-0.000105
1049	1.0428e+02	-1.7486	-5.078717	0.000335	3.346045	1.133671	-0.000134
1050	1.0438e+02	-1.7919	-5.203868	0.000314	3.143254	1.064963	-0.000126
1051	1.0447e+02	-1.8272	-5.329019	0.000314	3.143254	1.064963	-0.000126
1052	1.0457e+02	-1.8689	-5.438022	0.000274	2.737673	0.927549	-0.000110
1053	1.0467e+02	-1.8962	-5.583359	0.000365	3.650230	1.236732	-0.000146
1054	1.0477e+02	-1.9459	-5.704473	0.000304	3.041859	1.030610	-0.000122
1055	1.0487e+02	-1.9892	-5.878070	0.000436	4.359997	1.477207	-0.000174
1056	1.0497e+02	-2.0278	-5.987072	0.000274	2.737673	0.927549	-0.000110
1057	1.0507e+02	-2.0646	-6.120298	0.000335	3.346045	1.133671	-0.000134
1058	1.0517e+02	-2.1015	-6.281783	0.000406	4.055812	1.374146	-0.000162
1059	1.0527e+02	-2.1513	-6.350415	0.000172	1.723720	0.584012	-0.000069
1060	1.0537e+02	-2.1978	-6.528048	0.000446	4.461393	1.511561	-0.000179
1061	1.0547e+02	-2.2235	-6.633014	0.000264	2.636278	0.893195	-0.000105
1062	1.0557e+02	-2.2668	-6.737980	0.000264	2.636278	0.893195	-0.000105
1063	1.0567e+02	-2.3069	-6.887354	0.000375	3.751626	1.271085	-0.000150
1064	1.0577e+02	-2.3534	-7.004431	0.000294	2.940463	0.996256	-0.000118
1065	1.0587e+02	-2.3903	-7.109396	0.000264	2.636278	0.893195	-0.000105
1066	1.0597e+02	-2.4352	-7.262807	0.000385	3.853021	1.305439	-0.000154
1067	1.0607e+02	-2.4705	-7.379884	0.000294	2.940463	0.996256	-0.000118
1068	1.0617e+02	-2.5106	-7.464664	0.000213	2.129301	0.721427	-0.000085
1069	1.0627e+02	-2.5555	-7.662484	0.000497	4.968369	1.683329	-0.000199
1070	1.0637e+02	-2.5908	-7.755338	0.000233	2.332092	0.790134	-0.000093
1071	1.0647e+02	-2.6213	-7.856266	0.000253	2.534882	0.858841	-0.000101
1072	1.0656e+02	-2.6694	-8.017752	0.000406	4.055812	1.374146	-0.000162
1073	1.0666e+02	-2.7031	-8.138866	0.000304	3.041859	1.030610	-0.000122
1074	1.0676e+02	-2.7545	-8.284203	0.000365	3.650230	1.236732	-0.000146
1075	1.0686e+02	-2.7882	-8.389168	0.000264	2.636278	0.893195	-0.000105
1076	1.0696e+02	-2.8234	-8.510282	0.000304	3.041859	1.030610	-0.000122
1077	1.0706e+02	-2.8603	-8.619285	0.000274	2.737673	0.927549	-0.000110
1078	1.0716e+02	-2.9069	-8.764622	0.000365	3.650230	1.236732	-0.000146
1079	1.0726e+02	-2.9454	-8.893810	0.000324	3.244649	1.099317	-0.000130
1080	1.0736e+02	-2.9855	-8.994738	0.000253	2.534882	0.858841	-0.000101
1081	1.0746e+02	-3.0208	-9.136038	0.000355	3.548835	1.202378	-0.000142
1082	1.0756e+02	-3.0609	-9.265227	0.000324	3.244649	1.099317	-0.000130
1083	1.0766e+02	-3.1058	-9.374229	0.000274	2.737673	0.927549	-0.000110
1084	1.0776e+02	-3.1459	-9.491306	0.000294	2.940463	0.996256	-0.000118
1085	1.0786e+02	-3.1844	-9.612420	0.000304	3.041859	1.030610	-0.000122
1086	1.0796e+02	-3.2261	-9.777943	0.000416	4.157207	1.408500	-0.000166
1087	1.0806e+02	-3.2678	-9.903094	0.000314	3.143254	1.064963	-0.000126
1088	1.0816e+02	-3.3031	-9.987874	0.000213	2.129301	0.721427	-0.000085
1089	1.0826e+02	-3.3448	-10.092839	0.000264	2.636278	0.893195	-0.000105
1090	1.0836e+02	-3.3881	-10.238176	0.000365	3.650230	1.236732	-0.000146
1091	1.0845e+02	-3.4347	-10.371402	0.000335	3.346045	1.133671	-0.000134
1092	1.0855e+02	-3.4667	-10.464256	0.000233	2.332092	0.790134	-0.000093
1093	1.0865e+02	-3.4908	-10.629778	0.000416	4.157207	1.408500	-0.000166
1094	1.0875e+02	-3.5438	-10.754930	0.000314	3.143254	1.064963	-0.000126
1095	1.0885e+02	-3.5887	-10.896229	0.000355	3.548835	1.202378	-0.000142
1096	1.0895e+02	-3.6224	-11.021381	0.000314	3.143254	1.064963	-0.000126
1097	1.0905e+02	-3.6689	-11.138458	0.000294	2.940463	0.996256	-0.000118
1098	1.0915e+02	-3.7042	-11.223237	0.000213	2.129301	0.721427	-0.000085
1099	1.0925e+02	-3.7411	-11.392797	0.000426	4.258602	1.442853	-0.000170
1100	1.0935e+02	-3.7844	-11.505837	0.000284	2.839068	0.961902	-0.000114
1101	1.0945e+02	-3.8245	-11.663285	0.000395	3.954416	1.339793	-0.000158
1102	1.0955e+02	-3.8710	-11.748065	0.000213	2.129301	0.721427	-0.000085
1103	1.0965e+02	-3.9047	-11.873216	0.000314	3.143254	1.064963	-0.000126
1104	1.0975e+02	-3.9448	-12.022590	0.000375	3.751626	1.271085	-0.000150
1105	1.0985e+02	-3.9785	-12.159853	0.000345	3.447440	1.168024	-0.000138
1106	1.0995e+02	-4.0298	-12.293078	0.000335	3.346045	1.133671	-0.000134
1107	1.1005e+02	-4.0651	-12.410155	0.000294	2.940463	0.996256	-0.000118
1108	1.1015e+02	-4.1004	-12.523195	0.000284	2.839068	0.961902	-0.000114
1109	1.1025e+02	-4.1437	-12.644309	0.000304	3.041859	1.030610	-0.000122
1110	1.1035e+02	-4.1774	-12.769460	0.000314	3.143254	1.064963	-0.000126
1111	1.1044e+02	-4.2207	-12.906723	0.000345	3.447440	1.168024	-0.000138
1112	1.1054e+02	-4.2560	-13.035911	0.000324	3.244649	1.099317	-0.000130
1113	1.1064e+02	-4.3026	-13.157025	0.000304	3.041859	1.030610	-0.000122
1114	1.1074e+02	-4.3394	-13.282177	0.000314	3.143254	1.064963	-0.000126
1115	1.1084e+02	-4.3747	-13.415402	0.000335	3.346045	1.133671	-0.000134
1116	1.1094e+02	-4.4213	-13.504219	0.000223	2.230696	0.755780	-0.000089
1117	1.1104e+02	-4.4646	-13.633407	0.000324	3.244649	1.099317	-0.000130
1118	1.1114e+02	-4.4935	-13.794893	0.000406	4.055812	1.374146	-0.000162
1119	1.1124e+02	-4.5432	-13.899858	0.000264	2.636278	0.893195	-0.000105
1120	1.1134e+02	-4.5865	-14.004824	0.000264	2.636278	0.893195	-0.000105
1121	1.1144e+02	-4.6234	-14.125938	0.000304	3.041859	1.030610	-0.000122
1122	1.1154e+02	-4.6619	-14.287423	0.000406	4.055812	1.374146	-0.000162
1123	1.1164e+02	-4.7020	-14.388352	0.000253	2.534882	0.858841	-0.000101
1124	1.1174e+02	-4.7421	-14.517540	0.000324	3.244649	1.099317	-0.000130
1125	1.1184e+02	-4.7694	-14.654803	0.000345	3.447440	1.168024	-0.000138
1126	1.1194e+02	-4.8143	-14.735545	0.000203	2.027906	0.687073	-0.000081
1127	1.1204e+02	-4.8672	-14.880882	0.000365	3.650230	1.236732	-0.000146
1128	1.1214e+02	-4.9025	-15.042368	0.000406	4.055812	1.374146	-0.000162
1129	1.1224e+02	-4.9410	-15.110999	0.000172	1.723720	0.584012	-0.000069
1130	1.1234e+02	-4.9731	-15.248262	0.000345	3.447440	1.168024	-0.000138
1131	1.1244e+02	-5.0148	-15.429933	0.000456	4.562788	1.545914	-0.000183
1132	1.1253e+02	-5.0517	-15.510676	0.000203	2.027906	0.687073	-0.000081
1133	1.1263e+02	-5.1031	-15.623715	0.000284	2.839068	0.961902	-0.000114
1134	1.1273e+02	-5.1416	-15.732718	0.000274	2.737673	0.927549	-0.000110
1135	1.1283e+02	-5.1817	-15.894203	0.000406	4.055812	1.374146	-0.000162
1136	1.1293e+02	-5.2202	-16.039540	0.000365	3.650230	1.236732	-0.000146
1137	1.1303e+02	-5.2571	-16.108172	0.000172	1.723720	0.584012	-0.000069
1138	1.1313e+02	-5.2988	-16.253508	0.000365	3.650230	1.236732	-0.000146
1139	1.1323e+02	-5.3421	-16.394808	0.000355	3.548835	1.202378	-0.000142
1140	1.1333e+02	-5.3790	-16.491699	0.000243	2.433487	0.824488	-0.000097
1141	1.1343e+02	-5.4223	-16.604739	0.000284	2.839068	0.961902	-0.000114
1142	1.1353e+02	-5.4480	-16.754113	0.000375	3.751626	1.271085	-0.000150
1143	1.1363e+02	-5.4977	-16.883302	0.000324	3.244649	1.099317	-0.000130
1144	1.1373e+02	-5.5346	-17.008453	0.000314	3.143254	1.064963	-0.000126
1145	1.1383e+02	-5.5875	-17.121493	0.000284	2.839068	0.961902	-0.000114
1146	1.1393e+02	-5.6052	-17.226458	0.000264	2.636278	0.893195	-0.000105
1147	1.1403e+02	-5.6501	-17.351609	0.000314	3.143254	1.064963	-0.000126
1148	1.1413e+02	-5.6934	-17.533281	0.000456	4.562788	1.545914	-0.000183
1149	1.1423e+02	-5.7383	-17.654395	0.000304	3.041859	1.030610	-0.000122
1150	1.1433e+02	-5.7736	-17.739174	0.000213	2.129301	0.721427	-0.000085
1151	1.1442e+02	-5.8202	-17.876437	0.000345	3.447440	1.168024	-0.000138
1152	1.1452e+02	-5.8619	-18.013700	0.000345	3.447440	1.168024	-0.000138
1153	1.1462e+02	-5.8907	-18.126739	0.000284	2.839068	0.961902	-0.000114
1154	1.1472e+02	-5.9308	-18.243816	0.000294	2.940463	0.996256	-0.000118
1155	1.1482e+02	-5.9806	-18.340708	0.000243	2.433487	0.824488	-0.000097
1156	1.1492e+02	-6.0127	-18.530453	0.000477	4.765579	1.614622	-0.000191
1157	1.1502e+02	-6.0528	-18.603121	0.000183	1.825115	0.618366	-0.000073
1158	1.1512e+02	-6.0977	-18.764607	0.000406	4.055812	1.374146	-0.000162
1159	1.1522e+02	-6.1330	-18.865535	0.000253	2.534882	0.858841	-0.000101
1160	1.1532e+02	-6.1763	-19.010872	0.000365	3.650230	1.236732	-0.000146
1161	1.1542e+02	-6.2148	-19.107763	0.000243	2.433487	0.824488	-0.000097
1162	1.1552e+02	-6.2565	-19.208692	0.000253	2.534882	0.858841	-0.000101
1163	1.1562e+02	-6.2838	-19.402474	0.000487	4.866974	1.648975	-0.000195
1164	1.1572e+02	-6.3415	-19.515514	0.000284	2.839068	0.961902	-0.000114
1165	1.1582e+02	-6.3752	-19.612405	0.000243	2.433487	0.824488	-0.000097
1166	1.1592e+02	-6.4185	-19.733519	0.000304	3.041859	1.030610	-0.000122
1167	1.1602e+02	-6.4474	-19.878856	0.000365	3.650230	1.236732	-0.000146
1168	1.1612e+02	-6.4827	-19.983822	0.000264	2.636278	0.893195	-0.000105
1169	1.1622e+02	-6.5308	-20.133196	0.000375	3.751626	1.271085	-0.000150
1170	1.1632e+02	-6.5581	-20.250273	0.000294	2.940463	0.996256	-0.000118
1171	1.1642e+02	-6.6126	-20.363313	0.000284	2.839068	0.961902	-0.000114
1172	1.1651e+02	-6.6479	-20.427907	0.000162	1.622325	0.549658	-0.000065
1173	1.1661e+02	-6.6929	-20.565169	0.000345	3.447440	1.168024	-0.000138
1174	1.1671e+02	-6.7233	-20.702432	0.000345	3.447440	1.168024	-0.000138
1175	1.1681e+02	-6.7683	-20.823546	0.000304	3.041859	1.030610	-0.000122
1176	1.1691e+02	-6.8100	-21.001180	0.000446	4.461393	1.511561	-0.000179
1177	1.1701e+02	-6.8421	-21.081923	0.000203	2.027906	0.687073	-0.000081
1178	1.1711e+02	-6.8934	-21.219185	0.000345	3.447440	1.168024	-0.000138
1179	1.1721e+02	-6.9223	-21.324151	0.000264	2.636278	0.893195	-0.000105
1180	1.1731e+02	-6.9736	-21.445265	0.000304	3.041859	1.030610	-0.000122
1181	1.1741e+02	-7.0073	-21.578491	0.000335	3.346045	1.133671	-0.000134
1182	1.1751e+02	-7.0426	-21.667308	0.000223	2.230696	0.755780	-0.000089
1183	1.1761e+02	-7.1003	-21.861090	0.000487	4.866974	1.648975	-0.000195
1184	1.1771e+02	-7.1244	-21.953944	0.000233	2.332092	0.790134	-0.000093
1185	1.1781e+02	-7.1661	-22.062947	0.000274	2.737673	0.927549	-0.000110
1186	1.1791e+02	-7.2046	-22.192135	0.000324	3.244649	1.099317	-0.000130
1187	1.1801e+02	-7.2463	-22.293064	0.000253	2.534882	0.858841	-0.000101
1188	1.1811e+02	-7.2944	-22.422252	0.000324	3.244649	1.099317	-0.000130
1189	1.1821e+02	-7.3346	-22.563552	0.000355	3.548835	1.202378	-0.000142
1190	1.1831e+02	-7.3650	-22.692740	0.000324	3.244649	1.099317	-0.000130
1191	1.1841e+02	-7.4164	-22.801743	0.000274	2.737673	0.927549	-0.000110
1192	1.1850e+02	-7.4436	-22.947080	0.000365	3.650230	1.236732	-0.000146
1193	1.1860e+02	-7.4950	-23.048008	0.000253	2.534882	0.858841	-0.000101
1194	1.1870e+02	-7.5239	-23.124714	0.000193	1.926511	0.652719	-0.000077
1195	1.1880e+02	-7.5688	-23.261976	0.000345	3.447440	1.168024	-0.000138
1196	1.1890e+02	-7.6025	-23.399239	0.000345	3.447440	1.168024	-0.000138
1197	1.1900e+02	-7.6522	-23.492093	0.000233	2.332092	0.790134	-0.000093
1198	1.1910e+02	-7.6843	-23.625318	0.000335	3.346045	1.133671	-0.000134
1199	1.1920e+02	-7.7260	-23.754507	0.000324	3.244649	1.099317	-0.000130
1200	1.1930e+02	-7.7645	-23.903881	0.000375	3.751626	1.271085	-0.000150
1201	1.1940e+02	-7.8174	-24.004809	0.000253	2.534882	0.858841	-0.000101
1202	1.1950e+02	-7.8495	-24.105737	0.000253	2.534882	0.858841	-0.000101
1203	1.1960e+02	-7.8768	-24.234926	0.000324	3.244649	1.099317	-0.000130
1204	1.1970e+02	-7.9233	-24.360077	0.000314	3.143254	1.064963	-0.000126
1205	1.1980e+02	-7.9714	-24.509451	0.000375	3.751626	1.271085	-0.000150
1206	1.1990e+02	-8.0067	-24.586157	0.000193	1.926511	0.652719	-0.000077
1207	1.2000e+02	-8.0484	-24.707271	0.000304	3.041859	1.030610	-0.000122
1208	1.2010e+02	-8.0789	-24.788013	0.000203	2.027906	0.687073	-0.000081
1209	1.2020e+02	-8.1238	-24.937387	0.000375	3.751626	1.271085	-0.000150
1210	1.2030e+02	-8.1655	-25.074650	0.000345	3.447440	1.168024	-0.000138
1211	1.2039e+02	-8.2089	-25.224024	0.000375	3.751626	1.271085	-0.000150
1212	1.2049e+02	-8.2361	-25.341101	0.000294	2.940463	0.996256	-0.000118
1213	1.2059e+02	-8.2891	-25.474327	0.000335	3.346045	1.133671	-0.000134
1214	1.2069e+02	-8.3163	-25.526809	0.000132	1.318139	0.446598	-0.000053
1215	1.2079e+02	-8.3677	-25.692332	0.000416	4.157207	1.408500	-0.000166
1216	1.2089e+02	-8.4046	-25.809409	0.000294	2.940463	0.996256	-0.000118
1217	1.2099e+02	-8.4286	-25.890151	0.000203	2.027906	0.687073	-0.000081
1218	1.2109e+02	-8.4703	-26.043563	0.000385	3.853021	1.305439	-0.000154
1219	1.2119e+02	-8.5185	-26.176788	0.000335	3.346045	1.133671	-0.000134
1220	1.2129e+02	-8.5666	-26.269642	0.000233	2.332092	0.790134	-0.000093
1221	1.2139e+02	-8.5987	-26.390756	0.000304	3.041859	1.030610	-0.000122
1222	1.2149e+02	-8.6436	-26.523982	0.000335	3.346045	1.133671	-0.000134
1223	1.2159e+02	-8.6837	-26.624910	0.000253	2.534882	0.858841	-0.000101
1224	1.2169e+02	-8.7206	-26.782358	0.000395	3.954416	1.339793	-0.000158
1225	1.2179e+02	-8.7607	-26.846953	0.000162	1.622325	0.549658	-0.000065
1226	1.2189e+02	-8.7944	-26.955955	0.000274	2.737673	0.927549	-0.000110
1227	1.2199e+02	-8.8425	-27.068995	0.000284	2.839068	0.961902	-0.000114
1228	1.2209e+02	-8.8907	-27.206258	0.000345	3.447440	1.168024	-0.000138
1229	1.2219e+02	-8.9276	-27.291038	0.000213	2.129301	0.721427	-0.000085
1230	1.2229e+02	-8.9628	-27.424263	0.000335	3.346045	1.133671	-0.000134
1231	1.2239e+02	-9.0046	-27.561526	0.000345	3.447440	1.168024	-0.000138
1232	1.2248e+02	-9.0431	-27.686677	0.000314	3.143254	1.064963	-0.000126
1233	1.2258e+02	-9.0864	-27.759345	0.000183	1.825115	0.618366	-0.000073
1234	1.2268e+02	-9.1201	-27.896608	0.000345	3.447440	1.168024	-0.000138
1235	1.2278e+02	-9.1618	-28.066168	0.000426	4.258602	1.442853	-0.000170
1236	1.2288e+02	-9.2051	-28.110576	0.000112	1.115348	0.377890	-0.000045
1237	1.2298e+02	-9.2420	-28.235727	0.000314	3.143254	1.064963	-0.000126
1238	1.2308e+02	-9.2837	-28.360879	0.000314	3.143254	1.064963	-0.000126
1239	1.2318e+02	-9.3254	-28.494104	0.000335	3.346045	1.133671	-0.000134
1240	1.2328e+02	-9.3559	-28.566772	0.000183	1.825115	0.618366	-0.000073
1241	1.2338e+02	-9.3944	-28.679812	0.000284	2.839068	0.961902	-0.000114
1242	1.2348e+02	-9.4313	-28.829186	0.000375	3.751626	1.271085	-0.000150
1243	1.2358e+02	-9.4794	-28.926078	0.000243	2.433487	0.824488	-0.000097
1244	1.2368e+02	-9.5211	-29.018932	0.000233	2.332092	0.790134	-0.000093
1245	1.2378e+02	-9.5596	-29.148120	0.000324	3.244649	1.099317	-0.000130
1246	1.2388e+02	-9.5901	-29.277308	0.000324	3.244649	1.099317	-0.000130
1247	1.2398e+02	-9.6398	-29.386311	0.000274	2.737673	0.927549	-0.000110
1248	1.2408e+02	-9.6783	-29.483202	0.000243	2.433487	0.824488	-0.000097
1249	1.2418e+02	-9.7168	-29.580094	0.000243	2.433487	0.824488	-0.000097
1250	1.2428e+02	-9.7537	-29.681022	0.000253	2.534882	0.858841	-0.000101
1251	1.2438e+02	-9.7906	-29.842507	0.000406	4.055812	1.374146	-0.000162
1252	1.2447e+02	-9.8372	-29.943436	0.000253	2.534882	0.858841	-0.000101
1253	1.2457e+02	-9.8773	-30.052438	0.000274	2.737673	0.927549	-0.000110
1254	1.2467e+02	-9.9222	-30.189701	0.000345	3.447440	1.168024	-0.000138
1255	1.2477e+02	-9.9462	-30.266407	0.000193	1.926511	0.652719	-0.000077
1256	1.2487e+02	-9.9912	-30.383484	0.000294	2.940463	0.996256	-0.000118
1257	1.2497e+02	-10.0377	-30.504598	0.000304	3.041859	1.030610	-0.000122
1258	1.2507e+02	-10.0746	-30.645897	0.000355	3.548835	1.202378	-0.000142
1259	1.2517e+02	-10.1179	-30.714529	0.000172	1.723720	0.584012	-0.000069
1260	1.2527e+02	-10.1500	-30.871977	0.000395	3.954416	1.339793	-0.000158
1261	1.2537e+02	-10.1981	-30.964831	0.000233	2.332092	0.790134	-0.000093
1262	1.2547e+02	-10.2430	-31.094019	0.000324	3.244649	1.099317	-0.000130
1263	1.2557e+02	-10.2655	-31.154576	0.000152	1.520929	0.515305	-0.000061
1264	1.2567e+02	-10.3216	-31.332210	0.000446	4.461393	1.511561	-0.000179
1265	1.2577e+02	-10.3537	-31.433139	0.000253	2.534882	0.858841	-0.000101
1266	1.2587e+02	-10.3938	-31.558290	0.000314	3.143254	1.064963	-0.000126
1267	1.2597e+02	-10.4227	-31.634996	0.000193	1.926511	0.652719	-0.000077
1268	1.2607e+02	-10.4788	-31.743998	0.000274	2.737673	0.927549	-0.000110
1269	1.2617e+02	-10.5157	-31.853001	0.000274	2.737673	0.927549	-0.000110
1270	1.2627e+02	-10.5591	-31.953929	0.000253	2.534882	0.858841	-0.000101
1271	1.2636e+02	-10.6008	-32.087155	0.000335	3.346045	1.133671	-0.000134
1272	1.2646e+02	-10.6313	-32.224417	0.000345	3.447440	1.168024	-0.000138
1273	1.2656e+02	-10.6617	-32.325346	0.000253	2.534882	0.858841	-0.000101
1274	1.2666e+02	-10.7131	-32.422237	0.000243	2.433487	0.824488	-0.000097
1275	1.2676e+02	-10.7564	-32.559500	0.000345	3.447440	1.168024	-0.000138
1276	1.2686e+02	-10.7997	-32.696762	0.000345	3.447440	1.168024	-0.000138
1277	1.2696e+02	-10.8350	-32.809802	0.000284	2.839068	0.961902	-0.000114
1278	1.2706e+02	-10.8719	-32.854211	0.000112	1.115348	0.377890	-0.000045
1279	1.2716e+02	-10.9072	-33.003585	0.000375	3.751626	1.271085	-0.000150
1280	1.2726e+02	-10.9473	-33.112587	0.000274	2.737673	0.927549	-0.000110
1281	1.2736e+02	-10.9970	-33.257924	0.000365	3.650230	1.236732	-0.000146
1282	1.2746e+02	-11.0371	-33.318481	0.000152	1.520929	0.515305	-0.000061
1283	1.2756e+02	-11.0820	-33.459781	0.000355	3.548835	1.202378	-0.000142
1284	1.2766e+02	-11.1141	-33.540524	0.000203	2.027906	0.687073	-0.000081
1285	1.2776e+02	-11.1430	-33.677786	0.000345	3.447440	1.168024	-0.000138
1286	1.2786e+02	-11.1975	-33.794863	0.000294	2.940463	0.996256	-0.000118
1287	1.2796e+02	-11.2312	-33.915977	0.000304	3.041859	1.030610	-0.000122
1288	1.2806e+02	-11.2729	-33.964423	0.000122	1.216743	0.412244	-0.000049
1289	1.2816e+02	-11.3163	-34.117834	0.000385	3.853021	1.305439	-0.000154
1290	1.2826e+02	-11.3516	-34.247022	0.000324	3.244649	1.099317	-0.000130
1291	1.2835e+02	-11.3901	-34.368137	0.000304	3.041859	1.030610	-0.000122
1292	1.2845e+02	-11.4318	-34.440805	0.000183	1.825115	0.618366	-0.000073
1293	1.2855e+02	-11.4783	-34.557882	0.000294	2.940463	0.996256	-0.000118
1294	1.2865e+02	-11.5136	-34.670922	0.000284	2.839068	0.961902	-0.000114
1295	1.2875e+02	-11.5473	-34.759739	0.000223	2.230696	0.755780	-0.000089
1296	1.2885e+02	-11.5938	-34.872779	0.000284	2.839068	0.961902	-0.000114
1297	1.2895e+02	-11.6339	-35.010041	0.000345	3.447440	1.168024	-0.000138
1298	1.2905e+02	-11.6644	-35.086747	0.000193	1.926511	0.652719	-0.000077
1299	1.2915e+02	-11.7173	-35.232084	0.000365	3.650230	1.236732	-0.000146
1300	1.2925e+02	-11.7574	-35.337049	0.000264	2.636278	0.893195	-0.000105
1301	1.2935e+02	-11.7863	-35.429903	0.000233	2.332092	0.790134	-0.000093
1302	1.2945e+02	-11.8328	-35.538906	0.000274	2.737673	0.927549	-0.000110
1303	1.2955e+02	-11.8633	-35.668094	0.000324	3.244649	1.099317	-0.000130
1304	1.2965e+02	-11.9146	-35.797283	0.000324	3.244649	1.099317	-0.000130
1305	1.2975e+02	-11.9499	-35.861877	0.000162	1.622325	0.549658	-0.000065
1306	1.2985e+02	-11.9965	-35.991065	0.000324	3.244649	1.099317	-0.000130
1307	1.2995e+02	-12.0269	-36.116216	0.000314	3.143254	1.064963	-0.000126
1308	1.3005e+02	-12.0670	-36.229256	0.000284	2.839068	0.961902	-0.000114
1309	1.3015e+02	-12.1071	-36.350370	0.000304	3.041859	1.030610	-0.000122
1310	1.3025e+02	-12.1585	-36.467447	0.000294	2.940463	0.996256	-0.000118
1311	1.3034e+02	-12.1858	-36.519930	0.000132	1.318139	0.446598	-0.000053
1312	1.3044e+02	-12.2259	-36.657193	0.000345	3.447440	1.168024	-0.000138
1313	1.3054e+02	-12.2660	-36.746009	0.000223	2.230696	0.755780	-0.000089
1314	1.3064e+02	-12.3077	-36.875198	0.000324	3.244649	1.099317	-0.000130
1315	1.3074e+02	-12.3510	-37.012460	0.000345	3.447440	1.168024	-0.000138
1316	1.3084e+02	-12.3799	-37.105315	0.000233	2.332092	0.790134	-0.000093
1317	1.3094e+02	-12.4280	-37.246614	0.000355	3.548835	1.202378	-0.000142
1318	1.3104e+02	-12.4697	-37.335431	0.000223	2.230696	0.755780	-0.000089
1319	1.3114e+02	-12.5098	-37.440397	0.000264	2.636278	0.893195	-0.000105
1320	1.3124e+02	-12.5531	-37.553437	0.000284	2.839068	0.961902	-0.000114
1321	1.3134e+02	-12.5916	-37.658402	0.000264	2.636278	0.893195	-0.000105
1322	1.3144e+02	-12.6221	-37.787591	0.000324	3.244649	1.099317	-0.000130
1323	1.3154e+02	-12.6638	-37.928890	0.000355	3.548835	1.202378	-0.000142
1324	1.3164e+02	-12.7151	-38.009633	0.000203	2.027906	0.687073	-0.000081
1325	1.3174e+02	-12.7488	-38.122673	0.000284	2.839068	0.961902	-0.000114
1326	1.3184e+02	-12.7761	-38.219564	0.000243	2.433487	0.824488	-0.000097
1327	1.3194e+02	-12.8274	-38.312418	0.000233	2.332092	0.790134	-0.000093
1328	1.3204e+02	-12.8611	-38.457755	0.000365	3.650230	1.236732	-0.000146
1329	1.3214e+02	-12.9077	-38.586943	0.000324	3.244649	1.099317	-0.000130
1330	1.3224e+02	-12.9478	-38.687872	0.000253	2.534882	0.858841	-0.000101
1331	1.3234e+02	-12.9879	-38.748429	0.000152	1.520929	0.515305	-0.000061
1332	1.3243e+02	-13.0280	-38.885691	0.000345	3.447440	1.168024	-0.000138
1333	1.3253e+02	-13.0649	-39.018917	0.000335	3.346045	1.133671	-0.000134
1334	1.3263e+02	-13.1066	-39.135994	0.000294	2.940463	0.996256	-0.000118
1335	1.3273e+02	-13.1499	-39.220774	0.000213	2.129301	0.721427	-0.000085
1336	1.3283e+02	-13.1852	-39.337851	0.000294	2.940463	0.996256	-0.000118
1337	1.3293e+02	-13.2269	-39.454928	0.000294	2.940463	0.996256	-0.000118
1338	1.3303e+02	-13.2654	-39.576042	0.000304	3.041859	1.030610	-0.000122
1339	1.3313e+02	-13.3007	-39.636599	0.000152	1.520929	0.515305	-0.000061
1340	1.3323e+02	-13.3360	-39.757713	0.000304	3.041859	1.030610	-0.000122
1341	1.3333e+02	-13.3761	-39.907087	0.000375	3.751626	1.271085	-0.000150
1342	1.3343e+02	-13.4162	-39.963607	0.000142	1.419534	0.480951	-0.000057
1343	1.3353e+02	-13.4595	-40.117018	0.000385	3.853021	1.305439	-0.000154
1344	1.3363e+02	-13.5044	-40.205835	0.000223	2.230696	0.755780	-0.000089
1345	1.3373e+02	-13.5333	-40.294652	0.000223	2.230696	0.755780	-0.000089
1346	1.3383e+02	-13.5782	-40.427877	0.000335	3.346045	1.133671	-0.000134
1347	1.3393e+02	-13.6167	-40.532843	0.000264	2.636278	0.893195	-0.000105
1348	1.3403e+02	-13.6681	-40.653957	0.000304	3.041859	1.030610	-0.000122
1349	1.3413e+02	-13.7098	-40.730662	0.000193	1.926511	0.652719	-0.000077
1350	1.3423e+02	-13.7338	-40.847739	0.000294	2.940463	0.996256	-0.000118
1351	1.3432e+02	-13.7868	-40.932519	0.000213	2.129301	0.721427	-0.000085
1352	1.3442e+02	-13.8221	-41.069782	0.000345	3.447440	1.168024	-0.000138
1353	1.3452e+02	-13.8558	-41.158599	0.000223	2.230696	0.755780	-0.000089
1354	1.3462e+02	-13.8991	-41.271639	0.000284	2.839068	0.961902	-0.000114
1355	1.3472e+02	-13.9440	-41.412938	0.000355	3.548835	1.202378	-0.000142
1356	1.3482e+02	-13.9873	-41.534052	0.000304	3.041859	1.030610	-0.000122
1357	1.3492e+02	-14.0178	-41.634981	0.000253	2.534882	0.858841	-0.000101
1358	1.3502e+02	-14.0563	-41.743984	0.000274	2.737673	0.927549	-0.000110
1359	1.3512e+02	-14.0996	-41.824726	0.000203	2.027906	0.687073	-0.000081
1360	1.3522e+02	-14.1317	-41.949877	0.000314	3.143254	1.064963	-0.000126
1361	1.3532e+02	-14.1798	-42.062917	0.000284	2.839068	0.961902	-0.000114
1362	1.3542e+02	-14.2167	-42.155771	0.000233	2.332092	0.790134	-0.000093
1363	1.3552e+02	-14.2632	-42.272848	0.000294	2.940463	0.996256	-0.000118
1364	1.3562e+02	-14.2921	-42.349554	0.000193	1.926511	0.652719	-0.000077
1365	1.3572e+02	-14.3386	-42.474705	0.000314	3.143254	1.064963	-0.000126
1366	1.3582e+02	-14.3900	-42.543336	0.000172	1.723720	0.584012	-0.000069
1367	1.3592e+02	-14.4188	-42.680599	0.000345	3.447440	1.168024	-0.000138
1368	1.3602e+02	-14.4606	-42.801713	0.000304	3.041859	1.030610	-0.000122
1369	1.3612e+02	-14.5023	-42.906679	0.000264	2.636278	0.893195	-0.000105
1370	1.3622e+02	-14.5376	-42.995496	0.000223	2.230696	0.755780	-0.000089
1371	1.3631e+02	-14.5809	-43.064127	0.000172	1.723720	0.584012	-0.000069
1372	1.3641e+02	-14.6258	-43.169092	0.000264	2.636278	0.893195	-0.000105
1373	1.3651e+02	-14.6499	-43.334615	0.000416	4.157207	1.408500	-0.000166
1374	1.3661e+02	-14.6851	-43.427469	0.000233	2.332092	0.790134	-0.000093
1375	1.3671e+02	-14.7285	-43.516286	0.000223	2.230696	0.755780	-0.000089
1376	1.3681e+02	-14.7750	-43.629326	0.000284	2.839068	0.961902	-0.000114
1377	1.3691e+02	-14.8135	-43.722180	0.000233	2.332092	0.790134	-0.000093
1378	1.3701e+02	-14.8456	-43.843294	0.000304	3.041859	1.030610	-0.000122
1379	1.3711e+02	-14.8985	-43.972482	0.000324	3.244649	1.099317	-0.000130
1380	1.3721e+02	-14.9354	-44.089559	0.000294	2.940463	0.996256	-0.000118
1381	1.3731e+02	-14.9787	-44.170302	0.000203	2.027906	0.687073	-0.000081
1382	1.3741e+02	-15.0156	-44.307565	0.000345	3.447440	1.168024	-0.000138
1383	1.3751e+02	-15.0541	-44.400419	0.000233	2.332092	0.790134	-0.000093
1384	1.3761e+02	-15.1071	-44.477124	0.000193	1.926511	0.652719	-0.000077
1385	1.3771e+02	-15.1327	-44.634573	0.000395	3.954416	1.339793	-0.000158
1386	1.3781e+02	-15.1728	-44.727427	0.000233	2.332092	0.790134	-0.000093
1387	1.3791e+02	-15.2145	-44.804132	0.000193	1.926511	0.652719	-0.000077
1388	1.3801e+02	-15.2434	-44.925246	0.000304	3.041859	1.030610	-0.000122
1389	1.3811e+02	-15.2883	-45.050398	0.000314	3.143254	1.064963	-0.000126
1390	1.3821e+02	-15.3333	-45.119029	0.000172	1.723720	0.584012	-0.000069
1391	1.3831e+02	-15.3798	-45.244180	0.000314	3.143254	1.064963	-0.000126
1392	1.3840e+02	-15.4119	-45.357220	0.000284	2.839068	0.961902	-0.000114
1393	1.3850e+02	-15.4536	-45.421814	0.000162	1.622325	0.549658	-0.000065
1394	1.3860e+02	-15.4857	-45.534854	0.000284	2.839068	0.961902	-0.000114
1395	1.3870e+02	-15.5354	-45.664042	0.000324	3.244649	1.099317	-0.000130
1396	1.3880e+02	-15.5739	-45.744785	0.000203	2.027906	0.687073	-0.000081
1397	1.3890e+02	-15.6188	-45.837639	0.000233	2.332092	0.790134	-0.000093
1398	1.3900e+02	-15.6509	-45.991050	0.000385	3.853021	1.305439	-0.000154
1399	1.3910e+02	-15.6942	-46.043533	0.000132	1.318139	0.446598	-0.000053
1400	1.3920e+02	-15.7327	-46.172721	0.000324	3.244649	1.099317	-0.000130
1401	1.3930e+02	-15.7712	-46.257501	0.000213	2.129301	0.721427	-0.000085
1402	1.3940e+02	-15.8129	-46.342281	0.000213	2.129301	0.721427	-0.000085
1403	1.3950e+02	-15.8562	-46.495692	0.000385	3.853021	1.305439	-0.000154
1404	1.3960e+02	-15.8931	-46.564324	0.000172	1.723720	0.584012	-0.000069
1405	1.3970e+02	-15.9381	-46.685438	0.000304	3.041859	1.030610	-0.000122
1406	1.3980e+02	-15.9766	-46.766180	0.000203	2.027906	0.687073	-0.000081
1407	1.3990e+02	-16.0135	-46.891332	0.000314	3.143254	1.064963	-0.000126
1408	1.4000e+02	-16.0536	-46.984186	0.000233	2.332092	0.790134	-0.000093
1409	1.4010e+02	-16.0921	-47.133560	0.000375	3.751626	1.271085	-0.000150
1410	1.4020e+02	-16.1370	-47.210265	0.000193	1.926511	0.652719	-0.000077
1411	1.4029e+02	-16.1739	-47.291008	0.000203	2.027906	0.687073	-0.000081
1412	1.4039e+02	-16.2060	-47.387899	0.000243	2.433487	0.824488	-0.000097
1413	1.4049e+02	-16.2509	-47.513051	0.000314	3.143254	1.064963	-0.000126
1414	1.4059e+02	-16.2910	-47.597830	0.000213	2.129301	0.721427	-0.000085
1415	1.4069e+02	-16.3343	-47.698759	0.000253	2.534882	0.858841	-0.000101
1416	1.4079e+02	-16.3728	-47.763353	0.000162	1.622325	0.549658	-0.000065
1417	1.4089e+02	-16.4161	-47.896578	0.000335	3.346045	1.133671	-0.000134
1418	1.4099e+02	-16.4530	-48.021730	0.000314	3.143254	1.064963	-0.000126
1419	1.4109e+02	-16.4931	-48.126695	0.000264	2.636278	0.893195	-0.000105
1420	1.4119e+02	-16.5348	-48.219549	0.000233	2.332092	0.790134	-0.000093
1421	1.4129e+02	-16.5765	-48.344700	0.000314	3.143254	1.064963	-0.000126
1422	1.4139e+02	-16.6070	-48.449666	0.000264	2.636278	0.893195	-0.000105
1423	1.4149e+02	-16.6503	-48.542520	0.000233	2.332092	0.790134	-0.000093
1424	1.4159e+02	-16.6920	-48.623263	0.000203	2.027906	0.687073	-0.000081
1425	1.4169e+02	-16.7241	-48.716117	0.000233	2.332092	0.790134	-0.000093
1426	1.4179e+02	-16.7706	-48.861454	0.000365	3.650230	1.236732	-0.000146
1427	1.4189e+02	-16.8188	-48.950271	0.000223	2.230696	0.755780	-0.000089
1428	1.4199e+02	-16.8412	-49.071385	0.000304	3.041859	1.030610	-0.000122
1429	1.4209e+02	-16.8974	-49.156165	0.000213	2.129301	0.721427	-0.000085
1430	1.4219e+02	-16.9295	-49.289390	0.000335	3.346045	1.133671	-0.000134
1431	1.4228e+02	-16.9664	-49.370133	0.000203	2.027906	0.687073	-0.000081
1432	1.4238e+02	-17.0177	-49.442801	0.000183	1.825115	0.618366	-0.000073
1433	1.4248e+02	-17.0482	-49.584101	0.000355	3.548835	1.202378	-0.000142
1434	1.4258e+02	-17.0947	-49.705215	0.000304	3.041859	1.030610	-0.000122
1435	1.4268e+02	-17.1236	-49.802106	0.000243	2.433487	0.824488	-0.000097
1436	1.4278e+02	-17.1621	-49.898998	0.000243	2.433487	0.824488	-0.000097
1437	1.4288e+02	-17.2102	-50.036260	0.000345	3.447440	1.168024	-0.000138
1438	1.4298e+02	-17.2455	-50.157374	0.000304	3.041859	1.030610	-0.000122
1439	1.4308e+02	-17.2840	-50.262340	0.000264	2.636278	0.893195	-0.000105
1440	1.4318e+02	-17.3273	-50.399603	0.000345	3.447440	1.168024	-0.000138
1441	1.4328e+02	-17.3610	-50.448048	0.000122	1.216743	0.412244	-0.000049
1442	1.4338e+02	-17.4107	-50.589348	0.000355	3.548835	1.202378	-0.000142
1443	1.4348e+02	-17.4412	-50.674128	0.000213	2.129301	0.721427	-0.000085
1444	1.4358e+02	-17.4877	-50.815428	0.000355	3.548835	1.202378	-0.000142
1445	1.4368e+02	-17.5278	-50.880022	0.000162	1.622325	0.549658	-0.000065
1446	1.4378e+02	-17.5647	-51.017284	0.000345	3.447440	1.168024	-0.000138
1447	1.4388e+02	-17.6016	-51.106101	0.000223	2.230696	0.755780	-0.000089
1448	1.4398e+02	-17.6466	-51.231253	0.000314	3.143254	1.064963	-0.000126
1449	1.4408e+02	-17.6754	-51.360441	0.000324	3.244649	1.099317	-0.000130
1450	1.4418e+02	-17.7252	-51.449258	0.000223	2.230696	0.755780	-0.000089
1451	1.4428e+02	-17.7540	-51.558261	0.000274	2.737673	0.927549	-0.000110
1452	1.4437e+02	-17.8182	-51.703597	0.000365	3.650230	1.236732	-0.000146
1453	1.4447e+02	-17.8407	-51.760117	0.000142	1.419534	0.480951	-0.000057
1454	1.4457e+02	-17.8776	-51.913528	0.000385	3.853021	1.305439	-0.000154
1455	1.4467e+02	-17.9241	-52.046754	0.000335	3.346045	1.133671	-0.000134
1456	1.4477e+02	-17.9562	-52.131534	0.000213	2.129301	0.721427	-0.000085
1457	1.4487e+02	-18.0059	-52.248611	0.000294	2.940463	0.996256	-0.000118
1458	1.4497e+02	-18.0460	-52.385873	0.000345	3.447440	1.168024	-0.000138
1459	1.4507e+02	-18.0781	-52.454505	0.000172	1.723720	0.584012	-0.000069
1460	1.4517e+02	-18.1246	-52.595804	0.000355	3.548835	1.202378	-0.000142
1461	1.4527e+02	-18.1727	-52.672510	0.000193	1.926511	0.652719	-0.000077
1462	1.4537e+02	-18.2064	-52.833995	0.000406	4.055812	1.374146	-0.000162
1463	1.4547e+02	-18.2433	-52.955109	0.000304	3.041859	1.030610	-0.000122
1464	1.4557e+02	-18.2883	-53.064112	0.000274	2.737673	0.927549	-0.000110
1465	1.4567e+02	-18.3284	-53.181189	0.000294	2.940463	0.996256	-0.000118
1466	1.4577e+02	-18.3653	-53.334600	0.000385	3.853021	1.305439	-0.000154
1467	1.4587e+02	-18.3973	-53.431491	0.000243	2.433487	0.824488	-0.000097
1468	1.4597e+02	-18.4407	-53.544531	0.000284	2.839068	0.961902	-0.000114
1469	1.4607e+02	-18.4808	-53.673720	0.000324	3.244649	1.099317	-0.000130
1470	1.4617e+02	-18.5257	-53.774648	0.000253	2.534882	0.858841	-0.000101
1471	1.4626e+02	-18.5626	-53.871539	0.000243	2.433487	0.824488	-0.000097
1472	1.4636e+02	-18.6027	-54.020913	0.000375	3.751626	1.271085	-0.000150
1473	1.4646e+02	-18.6444	-54.129916	0.000274	2.737673	0.927549	-0.000110
1474	1.4656e+02	-18.6797	-54.251030	0.000304	3.041859	1.030610	-0.000122
1475	1.4666e+02	-18.7182	-54.388293	0.000345	3.447440	1.168024	-0.000138
1476	1.4676e+02	-18.7695	-54.541704	0.000385	3.853021	1.305439	-0.000154
1477	1.4686e+02	-18.8112	-54.674929	0.000335	3.346045	1.133671	-0.000134
1478	1.4696e+02	-18.8465	-54.779895	0.000264	2.636278	0.893195	-0.000105
1479	1.4706e+02	-18.8802	-54.937343	0.000395	3.954416	1.339793	-0.000158
1480	1.4716e+02	-18.9251	-55.050383	0.000284	2.839068	0.961902	-0.000114
1481	1.4726e+02	-18.9588	-55.211868	0.000406	4.055812	1.374146	-0.000162
1482	1.4736e+02	-19.0037	-55.308760	0.000243	2.433487	0.824488	-0.000097
1483	1.4746e+02	-19.0519	-55.429874	0.000304	3.041859	1.030610	-0.000122
1484	1.4756e+02	-19.0775	-55.550988	0.000304	3.041859	1.030610	-0.000122
1485	1.4766e+02	-19.1176	-55.732659	0.000456	4.562788	1.545914	-0.000183
1486	1.4776e+02	-19.1658	-55.869921	0.000345	3.447440	1.168024	-0.000138
1487	1.4786e+02	-19.1962	-55.991036	0.000304	3.041859	1.030610	-0.000122
1488	1.4796e+02	-19.2492	-56.132335	0.000355	3.548835	1.202378	-0.000142
1489	1.4806e+02	-19.2829	-56.293821	0.000406	4.055812	1.374146	-0.000162
1490	1.4816e+02	-19.3278	-56.414935	0.000304	3.041859	1.030610	-0.000122
1491	1.4825e+02	-19.3535	-56.552197	0.000345	3.447440	1.168024	-0.000138
1492	1.4835e+02	-19.3888	-56.657163	0.000264	2.636278	0.893195	-0.000105
1493	1.4845e+02	-19.4305	-56.818648	0.000406	4.055812	1.374146	-0.000162
1494	1.4855e+02	-19.4786	-56.988208	0.000426	4.258602	1.442853	-0.000170
1495	1.4865e+02	-19.5187	-57.101248	0.000284	2.839068	0.961902	-0.000114
1496	1.4875e+02	-19.5556	-57.222362	0.000304	3.041859	1.030610	-0.000122
1497	1.4885e+02	-19.5989	-57.408070	0.000466	4.664183	1.580268	-0.000187
1498	1.4895e+02	-19.6374	-57.565518	0.000395	3.954416	1.339793	-0.000158
1499	1.4905e+02	-19.6759	-57.775450	0.000527	5.272555	1.786390	-0.000211
1500	1.4915e+02	-19.7128	-57.852155	0.000193	1.926511	0.652719	-0.000077
1501	1.4925e+02	-19.7561	-58.029789	0.000446	4.461393	1.511561	-0.000179
1502	1.4935e+02	-19.7962	-58.150903	0.000304	3.041859	1.030610	-0.000122
1503	1.4945e+02	-19.8395	-58.320463	0.000426	4.258602	1.442853	-0.000170
1504	1.4955e+02	-19.8700	-58.445614	0.000314	3.143254	1.064963	-0.000126
1505	1.4965e+02	-19.9166	-58.586914	0.000355	3.548835	1.202378	-0.000142
1506	1.4975e+02	-19.9583	-58.772622	0.000466	4.664183	1.580268	-0.000187
1507	1.4985e+02	-19.9855	-58.934108	0.000406	4.055812	1.374146	-0.000162
1508	1.4995e+02	-19.9486	-58.934108	0.000000	0.000000	0.000000	0.000000
1509	1.5005e+02	-19.9149	-58.897773	0.000091	0.912558	0.309183	0.000037
1510	1.5015e+02	-19.8813	-58.861439	0.000091	0.912558	0.309183	0.000037
1511	1.5025e+02	-19.8363	-58.837216	0.000061	0.608372	0.206122	0.000024
1512	1.5034e+02	-19.7898	-58.796845	0.000101	1.013953	0.343537	0.000041
1513	1.5044e+02	-19.7561	-58.788771	0.000020	0.202791	0.068707	0.000008
1514	1.5054e+02	-19.7160	-58.740325	0.000122	1.216743	0.412244	0.000049
1515	1.5064e+02	-19.6759	-58.659582	0.000203	2.027906	0.687073	0.000081
1516	1.5074e+02	-19.6294	-58.663619	-0.000010	-0.101395	-0.034354	-0.000004
1517	1.5084e+02	-19.5941	-58.603062	0.000152	1.520929	0.515305	0.000061
1518	1.5094e+02	-19.5492	-58.574802	0.000071	0.709767	0.240476	0.000028
1519	1.5104e+02	-19.5203	-58.526357	0.000122	1.216743	0.412244	0.000049
1520	1.5114e+02	-19.4738	-58.477911	0.000122	1.216743	0.412244	0.000049
1521	1.5124e+02	-19.4337	-58.425428	0.000132	1.318139	0.446598	0.000053
1522	1.5134e+02	-19.4064	-58.385057	0.000101	1.013953	0.343537	0.000041
1523	1.5144e+02	-19.3663	-58.316426	0.000172	1.723720	0.584012	0.000069
1524	1.5154e+02	-19.3230	-58.280092	0.000091	0.912558	0.309183	0.000037
1525	1.5164e+02	-19.2733	-58.191275	0.000223	2.230696	0.755780	0.000089
1526	1.5174e+02	-19.2412	-58.138792	0.000132	1.318139	0.446598	0.000053
1527	1.5184e+02	-19.2075	-58.045938	0.000233	2.332092	0.790134	0.000093
1528	1.5194e+02	-19.1674	-57.997492	0.000122	1.216743	0.412244	0.000049
1529	1.5204e+02	-19.1176	-57.904638	0.000233	2.332092	0.790134	0.000093
1530	1.5214e+02	-19.0856	-57.904638	0.000000	0.000000	0.000000	0.000000
1531	1.5224e+02	-19.0455	-57.823895	0.000203	2.027906	0.687073	0.000081
1532	1.5233e+02	-19.0086	-57.718930	0.000264	2.636278	0.893195	0.000105
1533	1.5243e+02	-18.9701	-57.714893	0.000010	0.101395	0.034354	0.000004
1534	1.5253e+02	-18.9316	-57.613964	0.000253	2.534882	0.858841	0.000101
1535	1.5263e+02	-18.8754	-57.589741	0.000061	0.608372	0.206122	0.000024
1536	1.5273e+02	-18.8417	-57.513036	0.000193	1.926511	0.652719	0.000077
1537	1.5283e+02	-18.8016	-57.452479	0.000152	1.520929	0.515305	0.000061
1538	1.5293e+02	-18.7599	-57.315216	0.000345	3.447440	1.168024	0.000138
1539	1.5303e+02	-18.7214	-57.246585	0.000172	1.723720	0.584012	0.000069
1540	1.5313e+02	-18.6781	-57.222362	0.000061	0.608372	0.206122	0.000024
1541	1.5323e+02	-18.6364	-57.125471	0.000243	2.433487	0.824488	0.000097
1542	1.5333e+02	-18.6091	-57.089136	0.000091	0.912558	0.309183	0.000037
1543	1.5343e+02	-18.5578	-57.004357	0.000213	2.129301	0.721427	0.000085
1544	1.5353e+02	-18.5305	-56.911502	0.000233	2.332092	0.790134	0.000093
1545	1.5363e+02	-18.4840	-56.842871	0.000172	1.723720	0.584012	0.000069
1546	1.5373e+02	-18.4487	-56.766166	0.000193	1.926511	0.652719	0.000077
1547	1.5383e+02	-18.4022	-56.685423	0.000203	2.027906	0.687073	0.000081
1548	1.5393e+02	-18.3637	-56.649089	0.000091	0.912558	0.309183	0.000037
1549	1.5403e+02	-18.3187	-56.572383	0.000193	1.926511	0.652719	0.000077
1550	1.5413e+02	-18.2834	-56.495678	0.000193	1.926511	0.652719	0.000077
1551	1.5422e+02	-18.2449	-56.414935	0.000203	2.027906	0.687073	0.000081
1552	1.5432e+02	-18.2113	-56.309969	0.000264	2.636278	0.893195	0.000105
1553	1.5442e+02	-18.1679	-56.257487	0.000132	1.318139	0.446598	0.000053
1554	1.5452e+02	-18.1262	-56.188855	0.000172	1.723720	0.584012	0.000069
1555	1.5462e+02	-18.0845	-56.091964	0.000243	2.433487	0.824488	0.000097
1556	1.5472e+02	-18.0412	-56.035444	0.000142	1.419534	0.480951	0.000057
1557	1.5482e+02	-18.0043	-55.930479	0.000264	2.636278	0.893195	0.000105
1558	1.5492e+02	-17.9674	-55.882033	0.000122	1.216743	0.412244	0.000049
1559	1.5502e+02	-17.9209	-55.752845	0.000324	3.244649	1.099317	0.000130
1560	1.5512e+02	-17.8872	-55.692288	0.000152	1.520929	0.515305	0.000061
1561	1.5522e+02	-17.8423	-55.603471	0.000223	2.230696	0.755780	0.000089
1562	1.5532e+02	-17.8070	-55.534839	0.000172	1.723720	0.584012	0.000069
1563	1.5542e+02	-17.7717	-55.486394	0.000122	1.216743	0.412244	0.000049
1564	1.5552e+02	-17.7252	-55.345094	0.000355	3.548835	1.202378	0.000142
1565	1.5562e+02	-17.6931	-55.272425	0.000183	1.825115	0.618366	0.000073
1566	1.5572e+02	-17.6434	-55.195720	0.000193	1.926511	0.652719	0.000077
1567	1.5582e+02	-17.6081	-55.139200	0.000142	1.419534	0.480951	0.000057
1568	1.5592e+02	-17.5631	-54.973677	0.000416	4.157207	1.408500	0.000166
1569	1.5602e+02	-17.5295	-54.973677	0.000000	0.000000	0.000000	0.000000
1570	1.5612e+02	-17.4829	-54.832378	0.000355	3.548835	1.202378	0.000142
1571	1.5622e+02	-17.4605	-54.723375	0.000274	2.737673	0.927549	0.000110
1572	1.5631e+02	-17.4043	-54.691078	0.000081	0.811162	0.274829	0.000032
1573	1.5641e+02	-17.3722	-54.638595	0.000132	1.318139	0.446598	0.000053
1574	1.5651e+02	-17.3225	-54.533630	0.000264	2.636278	0.893195	0.000105
1575	1.5661e+02	-17.2920	-54.436738	0.000243	2.433487	0.824488	0.000097
1576	1.5671e+02	-17.2455	-54.355996	0.000203	2.027906	0.687073	0.000081
1577	1.5681e+02	-17.2070	-54.263141	0.000233	2.332092	0.790134	0.000093
1578	1.5691e+02	-17.1653	-54.150102	0.000284	2.839068	0.961902	0.000114
1579	1.5701e+02	-17.1316	-54.053210	0.000243	2.433487	0.824488	0.000097
1580	1.5711e+02	-17.0899	-53.968431	0.000213	2.129301	0.721427	0.000085
1581	1.5721e+02	-17.0578	-53.952282	0.000041	0.405581	0.137415	0.000016
1582	1.5731e+02	-17.0001	-53.762537	0.000477	4.765579	1.614622	0.000191
1583	1.5741e+02	-16.9632	-53.734277	0.000071	0.709767	0.240476	0.000028
1584	1.5751e+02	-16.9198	-53.677757	0.000142	1.419534	0.480951	0.000057
1585	1.5761e+02	-16.8846	-53.556643	0.000304	3.041859	1.030610	0.000122
1586	1.5771e+02	-16.8477	-53.467826	0.000223	2.230696	0.755780	0.000089
1587	1.5781e+02	-16.8027	-53.407269	0.000152	1.520929	0.515305	0.000061
1588	1.5791e+02	-16.7739	-53.318452	0.000223	2.230696	0.755780	0.000089
1589	1.5801e+02	-16.7321	-53.205412	0.000284	2.839068	0.961902	0.000114
1590	1.5811e+02	-16.6856	-53.152929	0.000132	1.318139	0.446598	0.000053
1591	1.5821e+02	-16.6487	-53.031815	0.000304	3.041859	1.030610	0.000122
1592	1.5830e+02	-16.6118	-52.979332	0.000132	1.318139	0.446598	0.000053
1593	1.5840e+02	-16.5685	-52.842070	0.000345	3.447440	1.168024	0.000138
1594	1.5850e+02	-16.5316	-52.761327	0.000203	2.027906	0.687073	0.000081
1595	1.5860e+02	-16.4883	-52.672510	0.000223	2.230696	0.755780	0.000089
1596	1.5870e+02	-16.4530	-52.611953	0.000152	1.520929	0.515305	0.000061
1597	1.5880e+02	-16.4081	-52.515062	0.000243	2.433487	0.824488	0.000097
1598	1.5890e+02	-16.3648	-52.442393	0.000183	1.825115	0.618366	0.000073
1599	1.5900e+02	-16.3343	-52.341465	0.000253	2.534882	0.858841	0.000101
1600	1.5910e+02	-16.2926	-52.240536	0.000253	2.534882	0.858841	0.000101
1601	1.5920e+02	-16.2573	-52.184017	0.000142	1.419534	0.480951	0.000057
1602	1.5930e+02	-16.2108	-52.079051	0.000264	2.636278	0.893195	0.000105
1603	1.5940e+02	-16.1626	-51.990234	0.000223	2.230696	0.755780	0.000089
1604	1.5950e+02	-16.1338	-51.893343	0.000243	2.433487	0.824488	0.000097
1605	1.5960e+02	-16.0824	-51.792414	0.000253	2.534882	0.858841	0.000101
1606	1.5970e+02	-16.0552	-51.715709	0.000193	1.926511	0.652719	0.000077
1607	1.5980e+02	-16.0102	-51.606706	0.000274	2.737673	0.927549	0.000110
1608	1.5990e+02	-15.9750	-51.517889	0.000223	2.230696	0.755780	0.000089
1609	1.6000e+02	-15.9364	-51.469444	0.000122	1.216743	0.412244	0.000049
1610	1.6010e+02	-15.8931	-51.356404	0.000284	2.839068	0.961902	0.000114
1611	1.6019e+02	-15.8514	-51.263550	0.000233	2.332092	0.790134	0.000093
1612	1.6029e+02	-15.8129	-51.170695	0.000233	2.332092	0.790134	0.000093
1613	1.6039e+02	-15.7760	-51.093990	0.000193	1.926511	0.652719	0.000077
1614	1.6049e+02	-15.7295	-51.009210	0.000213	2.129301	0.721427	0.000085
1615	1.6059e+02	-15.6958	-50.920393	0.000223	2.230696	0.755780	0.000089
1616	1.6069e+02	-15.6461	-50.867910	0.000132	1.318139	0.446598	0.000053
1617	1.6079e+02	-15.6060	-50.730648	0.000345	3.447440	1.168024	0.000138
1618	1.6089e+02	-15.5819	-50.621645	0.000274	2.737673	0.927549	0.000110
1619	1.6099e+02	-15.5418	-50.565125	0.000142	1.419534	0.480951	0.000057
1620	1.6109e+02	-15.4985	-50.472271	0.000233	2.332092	0.790134	0.000093
1621	1.6119e+02	-15.4600	-50.363268	0.000274	2.737673	0.927549	0.000110
1622	1.6129e+02	-15.4199	-50.282526	0.000203	2.027906	0.687073	0.000081
1623	1.6139e+02	-15.3782	-50.189671	0.000233	2.332092	0.790134	0.000093
1624	1.6149e+02	-15.3461	-50.112966	0.000193	1.926511	0.652719	0.000077
1625	1.6159e+02	-15.2964	-50.003963	0.000274	2.737673	0.927549	0.000110
1626	1.6169e+02	-15.2595	-49.898998	0.000264	2.636278	0.893195	0.000105
1627	1.6179e+02	-15.2113	-49.822292	0.000193	1.926511	0.652719	0.000077
1628	1.6189e+02	-15.1841	-49.717327	0.000264	2.636278	0.893195	0.000105
1629	1.6199e+02	-15.1407	-49.660807	0.000142	1.419534	0.480951	0.000057
1630	1.6209e+02	-15.1022	-49.543730	0.000294	2.940463	0.996256	0.000118
1631	1.6219e+02	-15.0541	-49.454913	0.000223	2.230696	0.755780	0.000089
1632	1.6228e+02	-15.0156	-49.329762	0.000314	3.143254	1.064963	0.000126
1633	1.6238e+02	-14.9803	-49.236907	0.000233	2.332092	0.790134	0.000093
1634	1.6248e+02	-14.9322	-49.156165	0.000203	2.027906	0.687073	0.000081
1635	1.6258e+02	-14.8937	-49.063311	0.000233	2.332092	0.790134	0.000093
1636	1.6268e+02	-14.8552	-48.942197	0.000304	3.041859	1.030610	0.000122
1637	1.6278e+02	-14.8135	-48.857417	0.000213	2.129301	0.721427	0.000085
1638	1.6288e+02	-14.7702	-48.800897	0.000142	1.419534	0.480951	0.000057
1639	1.6298e+02	-14.7381	-48.720154	0.000203	2.027906	0.687073	0.000081
1640	1.6308e+02	-14.6900	-48.623263	0.000243	2.433487	0.824488	0.000097
1641	1.6318e+02	-14.6547	-48.486000	0.000345	3.447440	1.168024	0.000138
1642	1.6328e+02	-14.6178	-48.405257	0.000203	2.027906	0.687073	0.000081
1643	1.6338e+02	-14.5729	-48.336626	0.000172	1.723720	0.584012	0.000069
1644	1.6348e+02	-14.5376	-48.255883	0.000203	2.027906	0.687073	0.000081
1645	1.6358e+02	-14.4926	-48.179178	0.000193	1.926511	0.652719	0.000077
1646	1.6368e+02	-14.4573	-48.049990	0.000324	3.244649	1.099317	0.000130
1647	1.6378e+02	-14.4269	-47.936950	0.000284	2.839068	0.961902	0.000114
1648	1.6388e+02	-14.3803	-47.888504	0.000122	1.216743	0.412244	0.000049
1649	1.6398e+02	-14.3386	-47.767390	0.000304	3.041859	1.030610	0.000122
1650	1.6408e+02	-14.3033	-47.690684	0.000193	1.926511	0.652719	0.000077
1651	1.6418e+02	-14.2616	-47.593793	0.000243	2.433487	0.824488	0.000097
1652	1.6427e+02	-14.2247	-47.513051	0.000203	2.027906	0.687073	0.000081
1653	1.6437e+02	-14.1862	-47.367714	0.000365	3.650230	1.236732	0.000146
1654	1.6447e+02	-14.1445	-47.315231	0.000132	1.318139	0.446598	0.000053
1655	1.6457e+02	-14.0948	-47.234488	0.000203	2.027906	0.687073	0.000081
1656	1.6467e+02	-14.0675	-47.113374	0.000304	3.041859	1.030610	0.000122
1657	1.6477e+02	-14.0146	-47.028594	0.000213	2.129301	0.721427	0.000085
1658	1.6487e+02	-13.9777	-46.947851	0.000203	2.027906	0.687073	0.000081
1659	1.6497e+02	-13.9392	-46.822700	0.000314	3.143254	1.064963	0.000126
1660	1.6507e+02	-13.8943	-46.786366	0.000091	0.912558	0.309183	0.000037
1661	1.6517e+02	-13.8622	-46.669289	0.000294	2.940463	0.996256	0.000118
1662	1.6527e+02	-13.8237	-46.532027	0.000345	3.447440	1.168024	0.000138
1663	1.6537e+02	-13.7836	-46.475507	0.000142	1.419534	0.480951	0.000057
1664	1.6547e+02	-13.7370	-46.382652	0.000233	2.332092	0.790134	0.000093
1665	1.6557e+02	-13.7082	-46.293836	0.000223	2.230696	0.755780	0.000089
1666	1.6567e+02	-13.6552	-46.188870	0.000264	2.636278	0.893195	0.000105
1667	1.6577e+02	-13.6231	-46.136387	0.000132	1.318139	0.446598	0.000053
1668	1.6587e+02	-13.5814	-46.051607	0.000213	2.129301	0.721427	0.000085
1669	1.6597e+02	-13.5429	-45.962790	0.000223	2.230696	0.755780	0.000089
1670	1.6607e+02	-13.4964	-45.878011	0.000213	2.129301	0.721427	0.000085
1671	1.6616e+02	-13.4675	-45.740748	0.000345	3.447440	1.168024	0.000138
1672	1.6626e+02	-13.4210	-45.627708	0.000284	2.839068	0.961902	0.000114
1673	1.6636e+02	-13.3857	-45.502557	0.000314	3.143254	1.064963	0.000126
1674	1.6646e+02	-13.3456	-45.454111	0.000122	1.216743	0.412244	0.000049
1675	1.6656e+02	-13.3087	-45.337034	0.000294	2.940463	0.996256	0.000118
1676	1.6666e+02	-13.2638	-45.248217	0.000223	2.230696	0.755780	0.000089
1677	1.6676e+02	-13.2349	-45.183623	0.000162	1.622325	0.549658	0.000065
1678	1.6686e+02	-13.1852	-45.034249	0.000375	3.751626	1.271085	0.000150
1679	1.6696e+02	-13.1403	-44.977729	0.000142	1.419534	0.480951	0.000057
1680	1.6706e+02	-13.1034	-44.844504	0.000335	3.346045	1.133671	0.000134
1681	1.6716e+02	-13.0585	-44.771835	0.000183	1.825115	0.618366	0.000073
1682	1.6726e+02	-13.0232	-44.707241	0.000162	1.622325	0.549658	0.000065
1683	1.6736e+02	-12.9750	-44.561904	0.000365	3.650230	1.236732	0.000146
1684	1.6746e+02	-12.9542	-44.465013	0.000243	2.433487	0.824488	0.000097
1685	1.6756e+02	-12.8980	-44.380233	0.000213	2.129301	0.721427	0.000085
1686	1.6766e+02	-12.8643	-44.295453	0.000213	2.129301	0.721427	0.000085
1687	1.6776e+02	-12.8274	-44.202599	0.000233	2.332092	0.790134	0.000093
1688	1.6786e+02	-12.7841	-44.093597	0.000274	2.737673	0.927549	0.000110
1689	1.6796e+02	-12.7424	-44.008817	0.000213	2.129301	0.721427	0.000085
1690	1.6806e+02	-12.6991	-43.932111	0.000193	1.926511	0.652719	0.000077
1691	1.6816e+02	-12.6686	-43.778700	0.000385	3.853021	1.305439	0.000154
1692	1.6825e+02	-12.6221	-43.714106	0.000162	1.622325	0.549658	0.000065
1693	1.6835e+02	-12.5836	-43.637400	0.000193	1.926511	0.652719	0.000077
1694	1.6845e+02	-12.5483	-43.504175	0.000335	3.346045	1.133671	0.000134
1695	1.6855e+02	-12.5082	-43.411321	0.000233	2.332092	0.790134	0.000093
1696	1.6865e+02	-12.4633	-43.334615	0.000193	1.926511	0.652719	0.000077
1697	1.6875e+02	-12.4312	-43.229649	0.000264	2.636278	0.893195	0.000105
1698	1.6885e+02	-12.3879	-43.092387	0.000345	3.447440	1.168024	0.000138
1699	1.6895e+02	-12.3478	-43.003570	0.000223	2.230696	0.755780	0.000089
1700	1.6905e+02	-12.3109	-42.934939	0.000172	1.723720	0.584012	0.000069
1701	1.6915e+02	-12.2692	-42.817862	0.000294	2.940463	0.996256	0.000118
1702	1.6925e+02	-12.2339	-42.729045	0.000223	2.230696	0.755780	0.000089
1703	1.6935e+02	-12.1906	-42.632153	0.000243	2.433487	0.824488	0.000097
1704	1.6945e+02	-12.1489	-42.527188	0.000264	2.636278	0.893195	0.000105
1705	1.6955e+02	-12.1168	-42.466631	0.000152	1.520929	0.515305	0.000061
1706	1.6965e+02	-12.0638	-42.349554	0.000294	2.940463	0.996256	0.000118
1707	1.6975e+02	-12.0221	-42.252663	0.000243	2.433487	0.824488	0.000097
1708	1.6985e+02	-11.9868	-42.127511	0.000314	3.143254	1.064963	0.000126
1709	1.6995e+02	-11.9435	-42.046769	0.000203	2.027906	0.687073	0.000081
1710	1.7005e+02	-11.9050	-41.941803	0.000264	2.636278	0.893195	0.000105
1711	1.7015e+02	-11.8617	-41.848949	0.000233	2.332092	0.790134	0.000093
1712	1.7024e+02	-11.8248	-41.760132	0.000223	2.230696	0.755780	0.000089
1713	1.7034e+02	-11.7927	-41.618832	0.000355	3.548835	1.202378	0.000142
1714	1.7044e+02	-11.7446	-41.517904	0.000253	2.534882	0.858841	0.000101
1715	1.7054e+02	-11.7093	-41.376604	0.000355	3.548835	1.202378	0.000142
1716	1.7064e+02	-11.6692	-41.356419	0.000051	0.506976	0.171768	0.000020
1717	1.7074e+02	-11.6243	-41.247416	0.000274	2.737673	0.927549	0.000110
1718	1.7084e+02	-11.5970	-41.114190	0.000335	3.346045	1.133671	0.000134
1719	1.7094e+02	-11.5457	-40.997113	0.000294	2.940463	0.996256	0.000118
1720	1.7104e+02	-11.5104	-40.968853	0.000071	0.709767	0.240476	0.000028
1721	1.7114e+02	-11.4767	-40.863888	0.000264	2.636278	0.893195	0.000105
1722	1.7124e+02	-11.4366	-40.754885	0.000274	2.737673	0.927549	0.000110
1723	1.7134e+02	-11.3884	-40.609548	0.000365	3.650230	1.236732	0.000146
1724	1.7144e+02	-11.3467	-40.520731	0.000223	2.230696	0.755780	0.000089
1725	1.7154e+02	-11.3066	-40.399617	0.000304	3.041859	1.030610	0.000122
1726	1.7164e+02	-11.2697	-40.339060	0.000152	1.520929	0.515305	0.000061
1727	1.7174e+02	-11.2296	-40.209872	0.000324	3.244649	1.099317	0.000130
1728	1.7184e+02	-11.1943	-40.108944	0.000253	2.534882	0.858841	0.000101
1729	1.7194e+02	-11.1606	-40.036275	0.000183	1.825115	0.618366	0.000073
1730	1.7204e+02	-11.1125	-39.890938	0.000365	3.650230	1.236732	0.000146
1731	1.7213e+02	-11.0708	-39.838455	0.000132	1.318139	0.446598	0.000053
1732	1.7223e+02	-11.0323	-39.701193	0.000345	3.447440	1.168024	0.000138
1733	1.7233e+02	-10.9970	-39.608339	0.000233	2.332092	0.790134	0.000093
1734	1.7243e+02	-10.9553	-39.507410	0.000253	2.534882	0.858841	0.000101
1735	1.7253e+02	-10.9168	-39.390333	0.000294	2.940463	0.996256	0.000118
1736	1.7263e+02	-10.8735	-39.273256	0.000294	2.940463	0.996256	0.000118
1737	1.7273e+02	-10.8430	-39.152142	0.000304	3.041859	1.030610	0.000122
1738	1.7283e+02	-10.7901	-39.051214	0.000253	2.534882	0.858841	0.000101
1739	1.7293e+02	-10.7692	-38.986620	0.000162	1.622325	0.549658	0.000065
1740	1.7303e+02	-10.7034	-38.873580	0.000284	2.839068	0.961902	0.000114
1741	1.7313e+02	-10.6842	-38.768614	0.000264	2.636278	0.893195	0.000105
1742	1.7323e+02	-10.6329	-38.663649	0.000264	2.636278	0.893195	0.000105
1743	1.7333e+02	-10.6040	-38.558683	0.000264	2.636278	0.893195	0.000105
1744	1.7343e+02	-10.5430	-38.441606	0.000294	2.940463	0.996256	0.000118
1745	1.7353e+02	-10.5190	-38.280121	0.000406	4.055812	1.374146	0.000162
1746	1.7363e+02	-10.4788	-38.223601	0.000142	1.419534	0.480951	0.000057
1747	1.7373e+02	-10.4387	-38.114599	0.000274	2.737673	0.927549	0.000110
1748	1.7383e+02	-10.3890	-38.029819	0.000213	2.129301	0.721427	0.000085
1749	1.7393e+02	-10.3585	-37.880445	0.000375	3.751626	1.271085	0.000150
1750	1.7403e+02	-10.3216	-37.823925	0.000142	1.419534	0.480951	0.000057
1751	1.7413e+02	-10.2703	-37.666476	0.000395	3.954416	1.339793	0.000158
1752	1.7422e+02	-10.2286	-37.573622	0.000233	2.332092	0.790134	0.000093
1753	1.7432e+02	-10.1949	-37.492880	0.000203	2.027906	0.687073	0.000081
1754	1.7442e+02	-10.1612	-37.367728	0.000314	3.143254	1.064963	0.000126
1755	1.7452e+02	-10.1195	-37.262763	0.000264	2.636278	0.893195	0.000105
1756	1.7462e+02	-10.0714	-37.133575	0.000324	3.244649	1.099317	0.000130
1757	1.7472e+02	-10.0361	-37.052832	0.000203	2.027906	0.687073	0.000081
1758	1.7482e+02	-10.0056	-36.947866	0.000264	2.636278	0.893195	0.000105
1759	1.7492e+02	-9.9511	-36.810604	0.000345	3.447440	1.168024	0.000138
1760	1.7502e+02	-9.9126	-36.746009	0.000162	1.622325	0.549658	0.000065
1761	1.7512e+02	-9.8660	-36.620858	0.000314	3.143254	1.064963	0.000126
1762	1.7522e+02	-9.8372	-36.515893	0.000264	2.636278	0.893195	0.000105
1763	1.7532e+02	-9.8003	-36.394779	0.000304	3.041859	1.030610	0.000122
1764	1.7542e+02	-9.7521	-36.277702	0.000294	2.940463	0.996256	0.000118
1765	1.7552e+02	-9.7200	-36.196959	0.000203	2.027906	0.687073	0.000081
1766	1.7562e+02	-9.6767	-36.079882	0.000294	2.940463	0.996256	0.000118
1767	1.7572e+02	-9.6398	-35.970879	0.000274	2.737673	0.927549	0.000110
1768	1.7582e+02	-9.6029	-35.845728	0.000314	3.143254	1.064963	0.000126
1769	1.7592e+02	-9.5660	-35.752874	0.000233	2.332092	0.790134	0.000093
1770	1.7602e+02	-9.5275	-35.660020	0.000233	2.332092	0.790134	0.000093
1771	1.7612e+02	-9.4698	-35.571203	0.000223	2.230696	0.755780	0.000089
1772	1.7621e+02	-9.4361	-35.425866	0.000365	3.650230	1.236732	0.000146
1773	1.7631e+02	-9.4008	-35.308789	0.000294	2.940463	0.996256	0.000118
1774	1.7641e+02	-9.3543	-35.219972	0.000223	2.230696	0.755780	0.000089
1775	1.7651e+02	-9.3270	-35.094821	0.000314	3.143254	1.064963	0.000126
1776	1.7661e+02	-9.2789	-34.981781	0.000284	2.839068	0.961902	0.000114
1777	1.7671e+02	-9.2388	-34.901038	0.000203	2.027906	0.687073	0.000081
1778	1.7681e+02	-9.1955	-34.792036	0.000274	2.737673	0.927549	0.000110
1779	1.7691e+02	-9.1618	-34.662847	0.000324	3.244649	1.099317	0.000130
1780	1.7701e+02	-9.1201	-34.557882	0.000264	2.636278	0.893195	0.000105
1781	1.7711e+02	-9.0719	-34.481176	0.000193	1.926511	0.652719	0.000077
1782	1.7721e+02	-9.0447	-34.360062	0.000304	3.041859	1.030610	0.000122
1783	1.7731e+02	-8.9981	-34.238948	0.000304	3.041859	1.030610	0.000122
1784	1.7741e+02	-8.9661	-34.154168	0.000213	2.129301	0.721427	0.000085
1785	1.7751e+02	-8.9243	-34.016906	0.000345	3.447440	1.168024	0.000138
1786	1.7761e+02	-8.8826	-33.924052	0.000233	2.332092	0.790134	0.000093
1787	1.7771e+02	-8.8361	-33.806975	0.000294	2.940463	0.996256	0.000118
1788	1.7781e+02	-8.7976	-33.702009	0.000264	2.636278	0.893195	0.000105
1789	1.7791e+02	-8.7607	-33.576858	0.000314	3.143254	1.064963	0.000126
1790	1.7801e+02	-8.7334	-33.455744	0.000304	3.041859	1.030610	0.000122
1791	1.7810e+02	-8.6853	-33.362890	0.000233	2.332092	0.790134	0.000093
1792	1.7820e+02	-8.6420	-33.237739	0.000314	3.143254	1.064963	0.000126
1793	1.7830e+02	-8.5987	-33.173144	0.000162	1.622325	0.549658	0.000065
1794	1.7840e+02	-8.5586	-33.056067	0.000294	2.940463	0.996256	0.000118
1795	1.7850e+02	-8.5169	-32.934953	0.000304	3.041859	1.030610	0.000122
1796	1.7860e+02	-8.4768	-32.834025	0.000253	2.534882	0.858841	0.000101
1797	1.7870e+02	-8.4367	-32.712911	0.000304	3.041859	1.030610	0.000122
1798	1.7880e+02	-8.4126	-32.583723	0.000324	3.244649	1.099317	0.000130
1799	1.7890e+02	-8.3629	-32.478757	0.000264	2.636278	0.893195	0.000105
1800	1.7900e+02	-8.3228	-32.333420	0.000365	3.650230	1.236732	0.000146
1801	1.7910e+02	-8.2859	-32.244603	0.000223	2.230696	0.755780	0.000089
1802	1.7920e+02	-8.2377	-32.127526	0.000294	2.940463	0.996256	0.000118
1803	1.7930e+02	-8.2057	-32.010449	0.000294	2.940463	0.996256	0.000118
1804	1.7940e+02	-8.1639	-31.885298	0.000314	3.143254	1.064963	0.000126
1805	1.7950e+02	-8.1206	-31.816667	0.000172	1.723720	0.584012	0.000069
1806	1.7960e+02	-8.0885	-31.651144	0.000416	4.157207	1.408500	0.000166
1807	1.7970e+02	-8.0484	-31.610773	0.000101	1.013953	0.343537	0.000041
1808	1.7980e+02	-8.0099	-31.477547	0.000335	3.346045	1.133671	0.000134
1809	1.7990e+02	-7.9650	-31.368545	0.000274	2.737673	0.927549	0.000110
1810	1.8000e+02	-7.9137	-31.235319	0.000335	3.346045	1.133671	0.000134
1811	1.8009e+02	-7.8800	-31.142465	0.000233	2.332092	0.790134	0.000093
1812	1.8019e+02	-7.8527	-30.989054	0.000385	3.853021	1.305439	0.000154
1813	1.8029e+02	-7.8078	-30.944645	0.000112	1.115348	0.377890	0.000045
1814	1.8039e+02	-7.7597	-30.787197	0.000395	3.954416	1.339793	0.000158
1815	1.8049e+02	-7.7228	-30.670120	0.000294	2.940463	0.996256	0.000118
1816	1.8059e+02	-7.6763	-30.601489	0.000172	1.723720	0.584012	0.000069
1817	1.8069e+02	-7.6442	-30.444041	0.000395	3.954416	1.339793	0.000158
1818	1.8079e+02	-7.6041	-30.363298	0.000203	2.027906	0.687073	0.000081
1819	1.8089e+02	-7.5672	-30.246221	0.000294	2.940463	0.996256	0.000118
1820	1.8099e+02	-7.5255	-30.157404	0.000223	2.230696	0.755780	0.000089
1821	1.8109e+02	-7.4854	-30.012067	0.000365	3.650230	1.236732	0.000146
1822	1.8119e+02	-7.4501	-29.919213	0.000233	2.332092	0.790134	0.000093
1823	1.8129e+02	-7.4035	-29.790025	0.000324	3.244649	1.099317	0.000130
1824	1.8139e+02	-7.3650	-29.668911	0.000304	3.041859	1.030610	0.000122
1825	1.8149e+02	-7.3265	-29.576056	0.000233	2.332092	0.790134	0.000093
1826	1.8159e+02	-7.2880	-29.487239	0.000223	2.230696	0.755780	0.000089
1827	1.8169e+02	-7.2527	-29.386311	0.000253	2.534882	0.858841	0.000101
1828	1.8179e+02	-7.2014	-29.261160	0.000314	3.143254	1.064963	0.000126
1829	1.8189e+02	-7.1677	-29.144083	0.000294	2.940463	0.996256	0.000118
1830	1.8199e+02	-7.1244	-29.055266	0.000223	2.230696	0.755780	0.000089
1831	1.8209e+02	-7.0907	-28.926078	0.000324	3.244649	1.099317	0.000130
1832	1.8218e+02	-7.0522	-28.809001	0.000294	2.940463	0.996256	0.000118
1833	1.8228e+02	-7.0089	-28.699998	0.000274	2.737673	0.927549	0.000110
1834	1.8238e+02	-6.9656	-28.586958	0.000284	2.839068	0.961902	0.000114
1835	1.8248e+02	-6.9223	-28.465844	0.000304	3.041859	1.030610	0.000122
1836	1.8258e+02	-6.8918	-28.356841	0.000274	2.737673	0.927549	0.000110
1837	1.8268e+02	-6.8372	-28.227653	0.000324	3.244649	1.099317	0.000130
1838	1.8278e+02	-6.8100	-28.126725	0.000253	2.534882	0.858841	0.000101
1839	1.8288e+02	-6.7699	-28.021759	0.000264	2.636278	0.893195	0.000105
1840	1.8298e+02	-6.7233	-27.856237	0.000416	4.157207	1.408500	0.000166
1841	1.8308e+02	-6.6929	-27.759345	0.000243	2.433487	0.824488	0.000097
1842	1.8318e+02	-6.6560	-27.690714	0.000172	1.723720	0.584012	0.000069
1843	1.8328e+02	-6.6078	-27.557489	0.000335	3.346045	1.133671	0.000134
1844	1.8338e+02	-6.5725	-27.396003	0.000406	4.055812	1.374146	0.000162
1845	1.8348e+02	-6.5212	-27.327372	0.000172	1.723720	0.584012	0.000069
1846	1.8358e+02	-6.4875	-27.198183	0.000324	3.244649	1.099317	0.000130
1847	1.8368e+02	-6.4506	-27.117441	0.000203	2.027906	0.687073	0.000081
1848	1.8378e+02	-6.4201	-26.984215	0.000335	3.346045	1.133671	0.000134
1849	1.8388e+02	-6.3865	-26.899435	0.000213	2.129301	0.721427	0.000085
1850	1.8398e+02	-6.3319	-26.758136	0.000355	3.548835	1.202378	0.000142
1851	1.8407e+02	-6.2902	-26.661244	0.000243	2.433487	0.824488	0.000097
1852	1.8417e+02	-6.2613	-26.548205	0.000284	2.839068	0.961902	0.000114
1853	1.8427e+02	-6.2180	-26.406905	0.000355	3.548835	1.202378	0.000142
1854	1.8437e+02	-6.1731	-26.293865	0.000284	2.839068	0.961902	0.000114
1855	1.8447e+02	-6.1394	-26.209085	0.000213	2.129301	0.721427	0.000085
1856	1.8457e+02	-6.0945	-26.059711	0.000375	3.751626	1.271085	0.000150
1857	1.8467e+02	-6.0624	-25.922449	0.000345	3.447440	1.168024	0.000138
1858	1.8477e+02	-6.0127	-25.849780	0.000183	1.825115	0.618366	0.000073
1859	1.8487e+02	-5.9838	-25.716555	0.000335	3.346045	1.133671	0.000134
1860	1.8497e+02	-5.9308	-25.575255	0.000355	3.548835	1.202378	0.000142
1861	1.8507e+02	-5.8940	-25.494512	0.000203	2.027906	0.687073	0.000081
1862	1.8517e+02	-5.8571	-25.341101	0.000385	3.853021	1.305439	0.000154
1863	1.8527e+02	-5.8202	-25.248247	0.000233	2.332092	0.790134	0.000093
1864	1.8537e+02	-5.7784	-25.119059	0.000324	3.244649	1.099317	0.000130
1865	1.8547e+02	-5.7464	-25.010056	0.000274	2.737673	0.927549	0.000110
1866	1.8557e+02	-5.6870	-24.901053	0.000274	2.737673	0.927549	0.000110
1867	1.8567e+02	-5.6533	-24.771865	0.000324	3.244649	1.099317	0.000130
1868	1.8577e+02	-5.6132	-24.662862	0.000274	2.737673	0.927549	0.000110
1869	1.8587e+02	-5.5731	-24.557897	0.000264	2.636278	0.893195	0.000105
1870	1.8597e+02	-5.5362	-24.424671	0.000335	3.346045	1.133671	0.000134
1871	1.8606e+02	-5.4977	-24.331817	0.000233	2.332092	0.790134	0.000093
1872	1.8616e+02	-5.4560	-24.158220	0.000436	4.359997	1.477207	0.000174
1873	1.8626e+02	-5.4143	-24.077478	0.000203	2.027906	0.687073	0.000081
1874	1.8636e+02	-5.3694	-23.948289	0.000324	3.244649	1.099317	0.000130
1875	1.8646e+02	-5.3453	-23.819101	0.000324	3.244649	1.099317	0.000130
1876	1.8656e+02	-5.2972	-23.710098	0.000274	2.737673	0.927549	0.000110
1877	1.8666e+02	-5.2635	-23.617244	0.000233	2.332092	0.790134	0.000093
1878	1.8676e+02	-5.2234	-23.504204	0.000284	2.839068	0.961902	0.000114
1879	1.8686e+02	-5.1704	-23.383090	0.000304	3.041859	1.030610	0.000122
1880	1.8696e+02	-5.1416	-23.257939	0.000314	3.143254	1.064963	0.000126
1881	1.8706e+02	-5.1015	-23.136825	0.000304	3.041859	1.030610	0.000122
1882	1.8716e+02	-5.0565	-23.011674	0.000314	3.143254	1.064963	0.000126
1883	1.8726e+02	-5.0229	-22.906708	0.000264	2.636278	0.893195	0.000105
1884	1.8736e+02	-4.9747	-22.813854	0.000233	2.332092	0.790134	0.000093
1885	1.8746e+02	-4.9426	-22.664480	0.000375	3.751626	1.271085	0.000150
1886	1.8756e+02	-4.9041	-22.551440	0.000284	2.839068	0.961902	0.000114
1887	1.8766e+02	-4.8512	-22.438400	0.000284	2.839068	0.961902	0.000114
1888	1.8776e+02	-4.8191	-22.309212	0.000324	3.244649	1.099317	0.000130
1889	1.8786e+02	-4.7774	-22.188098	0.000304	3.041859	1.030610	0.000122
1890	1.8796e+02	-4.7421	-22.062947	0.000314	3.143254	1.064963	0.000126
1891	1.8806e+02	-4.6988	-21.970093	0.000233	2.332092	0.790134	0.000093
1892	1.8815e+02	-4.6651	-21.836867	0.000335	3.346045	1.133671	0.000134
1893	1.8825e+02	-4.6154	-21.719790	0.000294	2.940463	0.996256	0.000118
1894	1.8835e+02	-4.5737	-21.558305	0.000406	4.055812	1.374146	0.000162
1895	1.8845e+02	-4.5432	-21.457376	0.000253	2.534882	0.858841	0.000101
1896	1.8855e+02	-4.4967	-21.368559	0.000223	2.230696	0.755780	0.000089
1897	1.8865e+02	-4.4550	-21.223223	0.000365	3.650230	1.236732	0.000146
1898	1.8875e+02	-4.4293	-21.122294	0.000253	2.534882	0.858841	0.000101
1899	1.8885e+02	-4.3812	-20.932549	0.000477	4.765579	1.614622	0.000191
1900	1.8895e+02	-4.3459	-20.843732	0.000223	2.230696	0.755780	0.000089
1901	1.8905e+02	-4.3042	-20.738766	0.000264	2.636278	0.893195	0.000105
1902	1.8915e+02	-4.2608	-20.609578	0.000324	3.244649	1.099317	0.000130
1903	1.8925e+02	-4.2239	-20.440018	0.000426	4.258602	1.442853	0.000170
1904	1.8935e+02	-4.1806	-20.314867	0.000314	3.143254	1.064963	0.000126
1905	1.8945e+02	-4.1485	-20.250273	0.000162	1.622325	0.549658	0.000065
1906	1.8955e+02	-4.0956	-20.104936	0.000365	3.650230	1.236732	0.000146
1907	1.8965e+02	-4.0587	-19.967673	0.000345	3.447440	1.168024	0.000138
1908	1.8975e+02	-4.0202	-19.862708	0.000264	2.636278	0.893195	0.000105
1909	1.8985e+02	-3.9785	-19.725445	0.000345	3.447440	1.168024	0.000138
1910	1.8995e+02	-3.9448	-19.576071	0.000375	3.751626	1.271085	0.000150
1911	1.9004e+02	-3.9031	-19.463031	0.000284	2.839068	0.961902	0.000114
1912	1.9014e+02	-3.8646	-19.341917	0.000304	3.041859	1.030610	0.000122
1913	1.9024e+02	-3.8261	-19.228878	0.000284	2.839068	0.961902	0.000114
1914	1.9034e+02	-3.7876	-19.111801	0.000294	2.940463	0.996256	0.000118
1915	1.9044e+02	-3.7427	-19.010872	0.000253	2.534882	0.858841	0.000101
1916	1.9054e+02	-3.6978	-18.857461	0.000385	3.853021	1.305439	0.000154
1917	1.9064e+02	-3.6689	-18.708087	0.000375	3.751626	1.271085	0.000150
1918	1.9074e+02	-3.6224	-18.554676	0.000385	3.853021	1.305439	0.000154
1919	1.9084e+02	-3.5903	-18.482007	0.000183	1.825115	0.618366	0.000073
1920	1.9094e+02	-3.5373	-18.352819	0.000324	3.244649	1.099317	0.000130
1921	1.9104e+02	-3.5036	-18.223631	0.000324	3.244649	1.099317	0.000130
1922	1.9114e+02	-3.4603	-18.106554	0.000294	2.940463	0.996256	0.000118
1923	1.9124e+02	-3.4218	-17.969291	0.000345	3.447440	1.168024	0.000138
1924	1.9134e+02	-3.3849	-17.832029	0.000345	3.447440	1.168024	0.000138
1925	1.9144e+02	-3.3384	-17.735137	0.000243	2.433487	0.824488	0.000097
1926	1.9154e+02	-3.3143	-17.589800	0.000365	3.650230	1.236732	0.000146
1927	1.9164e+02	-3.2614	-17.460612	0.000324	3.244649	1.099317	0.000130
1928	1.9174e+02	-3.2325	-17.359684	0.000253	2.534882	0.858841	0.000101
1929	1.9184e+02	-3.1972	-17.242607	0.000294	2.940463	0.996256	0.000118
1930	1.9194e+02	-3.1491	-17.137641	0.000264	2.636278	0.893195	0.000105
1931	1.9203e+02	-3.1058	-16.960007	0.000446	4.461393	1.511561	0.000179
1932	1.9213e+02	-3.0689	-16.822745	0.000345	3.447440	1.168024	0.000138
1933	1.9223e+02	-3.0272	-16.729890	0.000233	2.332092	0.790134	0.000093
1934	1.9233e+02	-2.9887	-16.596665	0.000335	3.346045	1.133671	0.000134
1935	1.9243e+02	-2.9470	-16.475551	0.000304	3.041859	1.030610	0.000122
1936	1.9253e+02	-2.9053	-16.342325	0.000335	3.346045	1.133671	0.000134
1937	1.9263e+02	-2.8636	-16.205063	0.000345	3.447440	1.168024	0.000138
1938	1.9273e+02	-2.8154	-16.079912	0.000314	3.143254	1.064963	0.000126
1939	1.9283e+02	-2.7914	-15.966872	0.000284	2.839068	0.961902	0.000114
1940	1.9293e+02	-2.7400	-15.833646	0.000335	3.346045	1.133671	0.000134
1941	1.9303e+02	-2.7079	-15.688309	0.000365	3.650230	1.236732	0.000146
1942	1.9313e+02	-2.6662	-15.559121	0.000324	3.244649	1.099317	0.000130
1943	1.9323e+02	-2.6245	-15.442044	0.000294	2.940463	0.996256	0.000118
1944	1.9333e+02	-2.5860	-15.337079	0.000264	2.636278	0.893195	0.000105
1945	1.9343e+02	-2.5507	-15.248262	0.000223	2.230696	0.755780	0.000089
1946	1.9353e+02	-2.5154	-15.086776	0.000406	4.055812	1.374146	0.000162
1947	1.9363e+02	-2.4641	-14.921254	0.000416	4.157207	1.408500	0.000166
1948	1.9373e+02	-2.4368	-14.832437	0.000223	2.230696	0.755780	0.000089
1949	1.9383e+02	-2.3935	-14.691137	0.000355	3.548835	1.202378	0.000142
1950	1.9393e+02	-2.3486	-14.561949	0.000324	3.244649	1.099317	0.000130
1951	1.9403e+02	-2.3181	-14.473132	0.000223	2.230696	0.755780	0.000089
1952	1.9412e+02	-2.2732	-14.319720	0.000385	3.853021	1.305439	0.000154
1953	1.9422e+02	-2.2299	-14.182458	0.000345	3.447440	1.168024	0.000138
1954	1.9432e+02	-2.1898	-14.049232	0.000335	3.346045	1.133671	0.000134
1955	1.9442e+02	-2.1465	-13.940230	0.000274	2.737673	0.927549	0.000110
1956	1.9452e+02	-2.1031	-13.807004	0.000335	3.346045	1.133671	0.000134
1957	1.9462e+02	-2.0695	-13.706076	0.000253	2.534882	0.858841	0.000101
1958	1.9472e+02	-2.0245	-13.540553	0.000416	4.157207	1.408500	0.000166
1959	1.9482e+02	-1.9925	-13.411365	0.000324	3.244649	1.099317	0.000130
1960	1.9492e+02	-1.9507	-13.306399	0.000264	2.636278	0.893195	0.000105
1961	1.9502e+02	-1.9026	-13.104543	0.000507	5.069764	1.717683	0.000203
1962	1.9512e+02	-1.8705	-13.048023	0.000142	1.419534	0.480951	0.000057
1963	1.9522e+02	-1.8288	-12.862314	0.000466	4.664183	1.580268	0.000187
1964	1.9532e+02	-1.7887	-12.753312	0.000274	2.737673	0.927549	0.000110
1965	1.9542e+02	-1.7470	-12.656421	0.000243	2.433487	0.824488	0.000097
1966	1.9552e+02	-1.7101	-12.519158	0.000345	3.447440	1.168024	0.000138
1967	1.9562e+02	-1.6620	-12.389970	0.000324	3.244649	1.099317	0.000130
1968	1.9572e+02	-1.6363	-12.272893	0.000294	2.940463	0.996256	0.000118
1969	1.9582e+02	-1.5930	-12.127556	0.000365	3.650230	1.236732	0.000146
1970	1.9592e+02	-1.5577	-11.982219	0.000365	3.650230	1.236732	0.000146
1971	1.9601e+02	-1.5096	-11.885328	0.000243	2.433487	0.824488	0.000097
1972	1.9611e+02	-1.4695	-11.739991	0.000365	3.650230	1.236732	0.000146
1973	1.9621e+02	-1.4246	-11.570431	0.000426	4.258602	1.442853	0.000170
1974	1.9631e+02	-1.3941	-11.453354	0.000294	2.940463	0.996256	0.000118
1975	1.9641e+02	-1.3476	-11.332240	0.000304	3.041859	1.030610	0.000122
1976	1.9651e+02	-1.3107	-11.247460	0.000213	2.129301	0.721427	0.000085
1977	1.9661e+02	-1.2738	-11.081938	0.000416	4.157207	1.408500	0.000166
1978	1.9671e+02	-1.2337	-10.968898	0.000284	2.839068	0.961902	0.000114
1979	1.9681e+02	-1.1968	-10.807412	0.000406	4.055812	1.374146	0.000162
1980	1.9691e+02	-1.1550	-10.682261	0.000314	3.143254	1.064963	0.000126
1981	1.9701e+02	-1.1230	-10.585370	0.000243	2.433487	0.824488	0.000097
1982	1.9711e+02	-1.0652	-10.452144	0.000335	3.346045	1.133671	0.000134
1983	1.9721e+02	-1.0363	-10.302770	0.000375	3.751626	1.271085	0.000150
1984	1.9731e+02	-0.9962	-10.205879	0.000243	2.433487	0.824488	0.000097
1985	1.9741e+02	-0.9497	-10.064579	0.000355	3.548835	1.202378	0.000142
1986	1.9751e+02	-0.9112	-9.939428	0.000314	3.143254	1.064963	0.000126
1987	1.9761e+02	-0.8695	-9.818314	0.000304	3.041859	1.030610	0.000122
1988	1.9771e+02	-0.8326	-9.721423	0.000243	2.433487	0.824488	0.000097
1989	1.9781e+02	-0.7893	-9.576086	0.000365	3.650230	1.236732	0.000146
1990	1.9791e+02	-0.7604	-9.422675	0.000385	3.853021	1.305439	0.000154
1991	1.9800e+02	-0.7123	-9.329821	0.000233	2.332092	0.790134	0.000093
1992	1.9810e+02	-0.6834	-9.212744	0.000294	2.940463	0.996256	0.000118
1993	1.9820e+02	-0.6337	-9.035110	0.000446	4.461393	1.511561	0.000179
1994	1.9830e+02	-0.5952	-8.893810	0.000355	3.548835	1.202378	0.000142
1995	1.9840e+02	-0.5535	-8.772696	0.000304	3.041859	1.030610	0.000122
1996	1.9850e+02	-0.5214	-8.663693	0.000274	2.737673	0.927549	0.000110
1997	1.9860e+02	-0.4716	-8.534505	0.000324	3.244649	1.099317	0.000130
1998	1.9870e+02	-0.4460	-8.389168	0.000365	3.650230	1.236732	0.000146
1999	1.9880e+02	-0.3962	-8.292277	0.000243	2.433487	0.824488	0.000097
2000	1.9890e+02	-0.3545	-8.142903	0.000375	3.751626	1.271085	0.000150
2001	1.9900e+02	-0.3225	-8.058123	0.000213	2.129301	0.721427	0.000085
2002	1.9910e+02	-0.2839	-7.900675	0.000395	3.954416	1.339793	0.000158
2003	1.9920e+02	-0.2406	-7.783598	0.000294	2.940463	0.996256	0.000118
2004	1.9930e+02	-0.1941	-7.618075	0.000416	4.157207	1.408500	0.000166
2005	1.9940e+02	-0.1620	-7.529258	0.000223	2.230696	0.755780	0.000089
2006	1.9950e+02	-0.1155	-7.367773	0.000406	4.055812	1.374146	0.000162
2007	1.9960e+02	-0.0770	-7.246659	0.000304	3.041859	1.030610	0.000122
2008	1.9970e+02	-0.0369	-7.141693	0.000264	2.636278	0.893195	0.000105
2009	1.9980e+02	-0.0016	-7.008468	0.000264	2.636278	0.893195	0.000134

PMax (uC/cm2):	6.19e+01
Pr (uC/cm2):	3.67e+00
-Pr (uC/cm2):	-3.99e+00
PLoss (uC/cm2):	-3.96e+00
-Vc:	-1.12e+00
C (Max-Eff) (nF):	3.10e-01
K (Eff):	1.05e+03
Vert. (+/-Pr) Shift (uC/cm2):	-1.64e-01
Offset (uC/cm2):	3.02e+00

A (Loop Area - uC/cm2·Volts):	4.40e-03



Hysteresis Version: 5.48.1 - Radiant Technologies, Inc., 1999 - 9/12/24

