»»»»»»»»»»»»»»»»»»»»»»»»»»»»»»»»»»»» Hysteresis ««««««««««««««««««««««««««««««««««««
»»»  Executed Version:	5.48.1
»»»  Vision Version:	5.48.4 (R)
»»»  Vision Compiled:	9/18/24
»»»  Driver Version:	5.47.0
»»»  Windows Version:	Windows 8 or 8.1
»»»  Processor Information:	x86 (AMD or Intel) - 32 Processors
»»»  Tester Name:	PMF21124-494 (100V)
»»»  Tester S/N:	PMF21124-494
»»»  Internal Amp Type:	100V RevK 270k
»»»  Internal Amp S/N:	iAB2-596/K     
»»»  Execution Count:	1
»»»»»»»»»»»»»»»»»»»»»»»»»»»»»»»»»»»»»»»»»»««««««««««««««««««««««««««««««««««««««««««

Stored:	6/17/2025 - 14:52:54
Configured:	06/17/25 10:39:14 AM
Executed:	06/17/25 02:52:16 PM

»»»»»»»»»»»»»»»»»»»»»»»»»»»»»»»»»»» Sample Info ««««««««««««««««««««««««««««««««««««
Sample Name:	
Lot Name:	
Wafer Name:	
Die Row/Column:	0/0
Capacitor Number:	0
Sample Area (cm2):	1.00e-04
Sample Thickness (microns):	3.00e-01

Amplifier:	Internal

»»»»»»»»»»»»»»»»»»»»»»»»»»»»»»»»»»» Tester Info «««««««««««««««««««««««««««««««««««
Tester Name:	PMF21124-494 (100V)
Tester Serial Number:	PMF21124-494
Return Signal Amp. Level:	0.19 [Index: 3]

»»»»»»»»»»»»»»»»»»»»»»»»»»»»»»»» Hysteresis Info ««««««««««««««««««««««««««««««««««
Task Name:	Hyst-180
Volts:	20.00
Field:	666.67 (kV/cm)
DCBias:	0.00
DCField:	0.00 (kV/cm)
Hysteresis Period (ms):	2.00e+02
Preset:	Enabled
Preset Delay (ms):	1.00e+03
Profile:	Standard Bipolar

»»»»»»»»»»»»»»»»»»»»»»»»»»»»»»»»»»»»»» Data «««««««««««««««««««««««««««««««««««««««
Points:	2009

Valid Data

Point	Time (ms)	Drive Voltage	Measured Polarization (uC/cm2)	Capacitance (uF)	Normalized Capacitance (uF/cm2)	Dielectric Constant	Instantaneous Current (mA)
   1	0.0000e+00	0.0048	-3.120706	0.000182	1.824054	0.618006	0.000073
   2	9.9500e-02	0.0417	-3.048037	0.000182	1.824054	0.618006	0.000073
   3	1.9900e-01	0.0738	-2.906738	0.000355	3.546771	1.201679	0.000142
   4	2.9850e-01	0.1091	-2.838106	0.000172	1.722717	0.583672	0.000069
   5	3.9800e-01	0.1556	-2.692770	0.000365	3.648108	1.236012	0.000146
   6	4.9750e-01	0.1909	-2.579730	0.000284	2.837417	0.961343	0.000114
   7	5.9700e-01	0.2326	-2.438430	0.000355	3.546771	1.201679	0.000142
   8	6.9650e-01	0.2727	-2.349613	0.000223	2.229399	0.755341	0.000089
   9	7.9600e-01	0.3160	-2.244647	0.000263	2.634744	0.892676	0.000105
  10	8.9550e-01	0.3545	-2.135645	0.000274	2.736081	0.927009	0.000110
  11	9.9500e-01	0.3914	-2.002419	0.000334	3.344099	1.133011	0.000134
  12	1.0945e+00	0.4283	-1.869194	0.000334	3.344099	1.133011	0.000134
  13	1.1940e+00	0.4813	-1.752117	0.000294	2.938753	0.995677	0.000118
  14	1.2935e+00	0.5053	-1.635040	0.000294	2.938753	0.995677	0.000118
  15	1.3930e+00	0.5615	-1.505852	0.000324	3.242762	1.098678	0.000130
  16	1.4925e+00	0.5984	-1.437220	0.000172	1.722717	0.583672	0.000069
  17	1.5920e+00	0.6369	-1.308032	0.000324	3.242762	1.098678	0.000130
  18	1.6915e+00	0.6770	-1.194992	0.000284	2.837417	0.961343	0.000114
  19	1.7910e+00	0.7043	-1.085990	0.000274	2.736081	0.927009	0.000110
  20	1.8905e+00	0.7460	-0.972950	0.000284	2.837417	0.961343	0.000114
  21	1.9900e+00	0.7925	-0.807427	0.000415	4.154789	1.407681	0.000166
  22	2.0895e+00	0.8278	-0.730722	0.000193	1.925390	0.652340	0.000077
  23	2.1890e+00	0.8711	-0.601533	0.000324	3.242762	1.098678	0.000130
  24	2.2885e+00	0.9144	-0.476382	0.000314	3.141426	1.064344	0.000126
  25	2.3880e+00	0.9497	-0.371416	0.000263	2.634744	0.892676	0.000105
  26	2.4875e+00	0.9914	-0.270488	0.000253	2.533408	0.858342	0.000101
  27	2.5870e+00	1.0315	-0.100928	0.000426	4.256126	1.442014	0.000170
  28	2.6865e+00	1.0764	-0.012111	0.000223	2.229399	0.755341	0.000089
  29	2.7860e+00	1.1101	0.100928	0.000284	2.837417	0.961343	0.000114
  30	2.8855e+00	1.1486	0.218005	0.000294	2.938753	0.995677	0.000118
  31	2.9850e+00	1.1903	0.331045	0.000284	2.837417	0.961343	0.000114
  32	3.0845e+00	1.2288	0.436011	0.000263	2.634744	0.892676	0.000105
  33	3.1840e+00	1.2738	0.553088	0.000294	2.938753	0.995677	0.000118
  34	3.2835e+00	1.3010	0.686313	0.000334	3.344099	1.133011	0.000134
  35	3.3830e+00	1.3588	0.795316	0.000274	2.736081	0.927009	0.000110
  36	3.4825e+00	1.3957	0.900281	0.000263	2.634744	0.892676	0.000105
  37	3.5820e+00	1.4374	1.029470	0.000324	3.242762	1.098678	0.000130
  38	3.6815e+00	1.4711	1.182881	0.000385	3.850780	1.304680	0.000154
  39	3.7810e+00	1.5032	1.287846	0.000263	2.634744	0.892676	0.000105
  40	3.8805e+00	1.5513	1.412998	0.000314	3.141426	1.064344	0.000126
  41	3.9800e+00	1.5882	1.558334	0.000365	3.648108	1.236012	0.000146
  42	4.0795e+00	1.6299	1.651189	0.000233	2.330735	0.789675	0.000093
  43	4.1790e+00	1.6748	1.764228	0.000284	2.837417	0.961343	0.000114
  44	4.2785e+00	1.7117	1.881305	0.000294	2.938753	0.995677	0.000118
  45	4.3780e+00	1.7566	2.026642	0.000365	3.648108	1.236012	0.000146
  46	4.4775e+00	1.7935	2.159868	0.000334	3.344099	1.133011	0.000134
  47	4.5770e+00	1.8288	2.280982	0.000304	3.040090	1.030010	0.000122
  48	4.6765e+00	1.8609	2.410170	0.000324	3.242762	1.098678	0.000130
  49	4.7760e+00	1.9042	2.523210	0.000284	2.837417	0.961343	0.000114
  50	4.8755e+00	1.9443	2.603953	0.000203	2.026726	0.686674	0.000081
  51	4.9750e+00	1.9876	2.716992	0.000284	2.837417	0.961343	0.000114
  52	5.0745e+00	2.0245	2.862329	0.000365	3.648108	1.236012	0.000146
  53	5.1740e+00	2.0711	2.971332	0.000274	2.736081	0.927009	0.000110
  54	5.2735e+00	2.0999	3.068223	0.000243	2.432072	0.824008	0.000097
  55	5.3730e+00	2.1529	3.257969	0.000476	4.762807	1.613683	0.000191
  56	5.4725e+00	2.1785	3.358897	0.000253	2.533408	0.858342	0.000101
  57	5.5720e+00	2.2283	3.455788	0.000243	2.432072	0.824008	0.000097
  58	5.6715e+00	2.2620	3.584977	0.000324	3.242762	1.098678	0.000130
  59	5.7710e+00	2.3133	3.710128	0.000314	3.141426	1.064344	0.000126
  60	5.8705e+00	2.3422	3.811056	0.000253	2.533408	0.858342	0.000101
  61	5.9700e+00	2.3919	3.964467	0.000385	3.850780	1.304680	0.000154
  62	6.0695e+00	2.4272	4.069433	0.000263	2.634744	0.892676	0.000105
  63	6.1690e+00	2.4641	4.210733	0.000355	3.546771	1.201679	0.000142
  64	6.2685e+00	2.5026	4.311661	0.000253	2.533408	0.858342	0.000101
  65	6.3680e+00	2.5507	4.456998	0.000365	3.648108	1.236012	0.000146
  66	6.4675e+00	2.5908	4.574075	0.000294	2.938753	0.995677	0.000118
  67	6.5670e+00	2.6213	4.711337	0.000345	3.445435	1.167345	0.000138
  68	6.6665e+00	2.6598	4.836489	0.000314	3.141426	1.064344	0.000126
  69	6.7660e+00	2.7128	4.941454	0.000263	2.634744	0.892676	0.000105
  70	6.8655e+00	2.7481	5.070642	0.000324	3.242762	1.098678	0.000130
  71	6.9650e+00	2.7898	5.199831	0.000324	3.242762	1.098678	0.000130
  72	7.0645e+00	2.8218	5.316908	0.000294	2.938753	0.995677	0.000118
  73	7.1640e+00	2.8636	5.454170	0.000345	3.445435	1.167345	0.000138
  74	7.2635e+00	2.9005	5.603544	0.000375	3.749444	1.270346	0.000150
  75	7.3630e+00	2.9470	5.688324	0.000213	2.128063	0.721007	0.000085
  76	7.4625e+00	2.9855	5.789253	0.000253	2.533408	0.858342	0.000101
  77	7.5620e+00	3.0320	5.942664	0.000385	3.850780	1.304680	0.000154
  78	7.6615e+00	3.0737	6.059741	0.000294	2.938753	0.995677	0.000118
  79	7.7610e+00	3.1042	6.156632	0.000243	2.432072	0.824008	0.000097
  80	7.8605e+00	3.1395	6.310043	0.000385	3.850780	1.304680	0.000154
  81	7.9600e+00	3.1764	6.427120	0.000294	2.938753	0.995677	0.000118
  82	8.0595e+00	3.2325	6.588606	0.000405	4.053453	1.373347	0.000162
  83	8.1590e+00	3.2726	6.669348	0.000203	2.026726	0.686674	0.000081
  84	8.2585e+00	3.2967	6.782388	0.000284	2.837417	0.961343	0.000114
  85	8.3580e+00	3.3464	6.935799	0.000385	3.850780	1.304680	0.000154
  86	8.4575e+00	3.3833	7.069025	0.000334	3.344099	1.133011	0.000134
  87	8.5570e+00	3.4250	7.198213	0.000324	3.242762	1.098678	0.000130
  88	8.6565e+00	3.4555	7.287030	0.000223	2.229399	0.755341	0.000089
  89	8.7560e+00	3.5036	7.424293	0.000345	3.445435	1.167345	0.000138
  90	8.8555e+00	3.5389	7.525221	0.000253	2.533408	0.858342	0.000101
  91	8.9550e+00	3.5823	7.690744	0.000415	4.154789	1.407681	0.000166
  92	9.0545e+00	3.6272	7.775523	0.000213	2.128063	0.721007	0.000085
  93	9.1540e+00	3.6593	7.904712	0.000324	3.242762	1.098678	0.000130
  94	9.2535e+00	3.7042	8.029863	0.000314	3.141426	1.064344	0.000126
  95	9.3530e+00	3.7459	8.138866	0.000274	2.736081	0.927009	0.000110
  96	9.4525e+00	3.7860	8.308425	0.000426	4.256126	1.442014	0.000170
  97	9.5520e+00	3.8229	8.433577	0.000314	3.141426	1.064344	0.000126
  98	9.6515e+00	3.8486	8.534505	0.000253	2.533408	0.858342	0.000101
  99	9.7510e+00	3.8967	8.659656	0.000314	3.141426	1.064344	0.000126
 100	9.8505e+00	3.9416	8.752510	0.000233	2.330735	0.789675	0.000093
 101	9.9500e+00	3.9817	8.909959	0.000395	3.952117	1.339013	0.000158
 102	1.0050e+01	4.0186	9.006850	0.000243	2.432072	0.824008	0.000097
 103	1.0149e+01	4.0587	9.119890	0.000284	2.837417	0.961343	0.000114
 104	1.0248e+01	4.1004	9.269264	0.000375	3.749444	1.270346	0.000150
 105	1.0348e+01	4.1437	9.366155	0.000243	2.432072	0.824008	0.000097
 106	1.0447e+01	4.1870	9.511492	0.000365	3.648108	1.236012	0.000146
 107	1.0547e+01	4.2191	9.624532	0.000284	2.837417	0.961343	0.000114
 108	1.0646e+01	4.2592	9.733534	0.000274	2.736081	0.927009	0.000110
 109	1.0746e+01	4.2929	9.874834	0.000355	3.546771	1.201679	0.000142
 110	1.0845e+01	4.3394	10.020171	0.000365	3.648108	1.236012	0.000146
 111	1.0945e+01	4.3763	10.177619	0.000395	3.952117	1.339013	0.000158
 112	1.1044e+01	4.4213	10.254325	0.000193	1.925390	0.652340	0.000077
 113	1.1144e+01	4.4534	10.379476	0.000314	3.141426	1.064344	0.000126
 114	1.1243e+01	4.4967	10.504627	0.000314	3.141426	1.064344	0.000126
 115	1.1343e+01	4.5336	10.662075	0.000395	3.952117	1.339013	0.000158
 116	1.1443e+01	4.5769	10.763004	0.000253	2.533408	0.858342	0.000101
 117	1.1542e+01	4.6154	10.843747	0.000203	2.026726	0.686674	0.000081
 118	1.1642e+01	4.6667	10.989083	0.000365	3.648108	1.236012	0.000146
 119	1.1741e+01	4.7068	11.118272	0.000324	3.242762	1.098678	0.000130
 120	1.1841e+01	4.7341	11.251497	0.000334	3.344099	1.133011	0.000134
 121	1.1940e+01	4.7806	11.368574	0.000294	2.938753	0.995677	0.000118
 122	1.2040e+01	4.8127	11.501800	0.000334	3.344099	1.133011	0.000134
 123	1.2139e+01	4.8592	11.602728	0.000253	2.533408	0.858342	0.000101
 124	1.2239e+01	4.9025	11.744028	0.000355	3.546771	1.201679	0.000142
 125	1.2338e+01	4.9298	11.848993	0.000263	2.634744	0.892676	0.000105
 126	1.2438e+01	4.9795	11.949922	0.000253	2.533408	0.858342	0.000101
 127	1.2537e+01	5.0212	12.127556	0.000446	4.458798	1.510682	0.000179
 128	1.2636e+01	5.0485	12.220410	0.000233	2.330735	0.789675	0.000093
 129	1.2736e+01	5.0886	12.301153	0.000203	2.026726	0.686674	0.000081
 130	1.2835e+01	5.1448	12.478787	0.000446	4.458798	1.510682	0.000179
 131	1.2935e+01	5.1640	12.591826	0.000284	2.837417	0.961343	0.000114
 132	1.3034e+01	5.2073	12.708903	0.000294	2.938753	0.995677	0.000118
 133	1.3134e+01	5.2410	12.805795	0.000243	2.432072	0.824008	0.000097
 134	1.3233e+01	5.2940	12.943057	0.000345	3.445435	1.167345	0.000138
 135	1.3333e+01	5.3421	13.039948	0.000243	2.432072	0.824008	0.000097
 136	1.3432e+01	5.3742	13.205471	0.000415	4.154789	1.407681	0.000166
 137	1.3532e+01	5.4095	13.306399	0.000253	2.533408	0.858342	0.000101
 138	1.3632e+01	5.4512	13.411365	0.000263	2.634744	0.892676	0.000105
 139	1.3731e+01	5.4945	13.544590	0.000334	3.344099	1.133011	0.000134
 140	1.3831e+01	5.5314	13.653593	0.000274	2.736081	0.927009	0.000110
 141	1.3930e+01	5.5747	13.831227	0.000446	4.458798	1.510682	0.000179
 142	1.4030e+01	5.6068	13.924081	0.000233	2.330735	0.789675	0.000093
 143	1.4129e+01	5.6597	14.016935	0.000233	2.330735	0.789675	0.000093
 144	1.4229e+01	5.6982	14.138049	0.000304	3.040090	1.030010	0.000122
 145	1.4328e+01	5.7432	14.267238	0.000324	3.242762	1.098678	0.000130
 146	1.4428e+01	5.7817	14.416612	0.000375	3.749444	1.270346	0.000150
 147	1.4527e+01	5.8089	14.521577	0.000263	2.634744	0.892676	0.000105
 148	1.4627e+01	5.8587	14.638654	0.000294	2.938753	0.995677	0.000118
 149	1.4726e+01	5.8875	14.743620	0.000263	2.634744	0.892676	0.000105
 150	1.4825e+01	5.9276	14.876845	0.000334	3.344099	1.133011	0.000134
 151	1.4925e+01	5.9710	14.929328	0.000132	1.317372	0.446338	0.000053
 152	1.5024e+01	6.0095	15.082739	0.000385	3.850780	1.304680	0.000154
 153	1.5124e+01	6.0447	15.256336	0.000436	4.357462	1.476348	0.000174
 154	1.5223e+01	6.1009	15.308819	0.000132	1.317372	0.446338	0.000053
 155	1.5323e+01	6.1250	15.450118	0.000355	3.546771	1.201679	0.000142
 156	1.5422e+01	6.1715	15.583344	0.000334	3.344099	1.133011	0.000134
 157	1.5522e+01	6.2148	15.688309	0.000263	2.634744	0.892676	0.000105
 158	1.5621e+01	6.2485	15.805386	0.000294	2.938753	0.995677	0.000118
 159	1.5721e+01	6.2918	15.910352	0.000263	2.634744	0.892676	0.000105
 160	1.5820e+01	6.3335	16.023392	0.000284	2.837417	0.961343	0.000114
 161	1.5920e+01	6.3672	16.184877	0.000405	4.053453	1.373347	0.000162
 162	1.6020e+01	6.4137	16.241397	0.000142	1.418709	0.480671	0.000057
 163	1.6119e+01	6.4522	16.419031	0.000446	4.458798	1.510682	0.000179
 164	1.6218e+01	6.4923	16.519959	0.000253	2.533408	0.858342	0.000101
 165	1.6318e+01	6.5308	16.596665	0.000193	1.925390	0.652340	0.000077
 166	1.6418e+01	6.5758	16.774299	0.000446	4.458798	1.510682	0.000179
 167	1.6517e+01	6.6078	16.871190	0.000243	2.432072	0.824008	0.000097
 168	1.6616e+01	6.6544	17.000379	0.000324	3.242762	1.098678	0.000130
 169	1.6716e+01	6.6816	17.121493	0.000304	3.040090	1.030010	0.000122
 170	1.6816e+01	6.7282	17.218384	0.000243	2.432072	0.824008	0.000097
 171	1.6915e+01	6.7650	17.359684	0.000355	3.546771	1.201679	0.000142
 172	1.7015e+01	6.8084	17.488872	0.000324	3.242762	1.098678	0.000130
 173	1.7114e+01	6.8437	17.589800	0.000253	2.533408	0.858342	0.000101
 174	1.7213e+01	6.8982	17.686692	0.000243	2.432072	0.824008	0.000097
 175	1.7313e+01	6.9335	17.836066	0.000375	3.749444	1.270346	0.000150
 176	1.7413e+01	6.9720	17.932957	0.000243	2.432072	0.824008	0.000097
 177	1.7512e+01	6.9977	18.062145	0.000324	3.242762	1.098678	0.000130
 178	1.7611e+01	7.0458	18.199408	0.000345	3.445435	1.167345	0.000138
 179	1.7711e+01	7.0891	18.292262	0.000233	2.330735	0.789675	0.000093
 180	1.7811e+01	7.1292	18.437599	0.000365	3.648108	1.236012	0.000146
 181	1.7910e+01	7.1725	18.534490	0.000243	2.432072	0.824008	0.000097
 182	1.8009e+01	7.2094	18.647530	0.000284	2.837417	0.961343	0.000114
 183	1.8109e+01	7.2559	18.760570	0.000284	2.837417	0.961343	0.000114
 184	1.8209e+01	7.2880	18.909944	0.000375	3.749444	1.270346	0.000150
 185	1.8308e+01	7.3249	18.982612	0.000182	1.824054	0.618006	0.000073
 186	1.8407e+01	7.3666	19.123912	0.000355	3.546771	1.201679	0.000142
 187	1.8507e+01	7.4003	19.261175	0.000345	3.445435	1.167345	0.000138
 188	1.8607e+01	7.4501	19.354029	0.000233	2.330735	0.789675	0.000093
 189	1.8706e+01	7.4821	19.491291	0.000345	3.445435	1.167345	0.000138
 190	1.8805e+01	7.5271	19.608368	0.000294	2.938753	0.995677	0.000118
 191	1.8905e+01	7.5559	19.721408	0.000284	2.837417	0.961343	0.000114
 192	1.9005e+01	7.6057	19.870782	0.000375	3.749444	1.270346	0.000150
 193	1.9104e+01	7.6442	19.991896	0.000304	3.040090	1.030010	0.000122
 194	1.9203e+01	7.6827	20.068602	0.000193	1.925390	0.652340	0.000077
 195	1.9303e+01	7.7388	20.209902	0.000355	3.546771	1.201679	0.000142
 196	1.9402e+01	7.7613	20.302756	0.000233	2.330735	0.789675	0.000093
 197	1.9502e+01	7.7982	20.415795	0.000284	2.837417	0.961343	0.000114
 198	1.9602e+01	7.8479	20.561132	0.000365	3.648108	1.236012	0.000146
 199	1.9701e+01	7.8976	20.662061	0.000253	2.533408	0.858342	0.000101
 200	1.9800e+01	7.9185	20.803360	0.000355	3.546771	1.201679	0.000142
 201	1.9900e+01	7.9650	20.888140	0.000213	2.128063	0.721007	0.000085
 202	2.0000e+01	8.0067	21.005217	0.000294	2.938753	0.995677	0.000118
 203	2.0099e+01	8.0500	21.138443	0.000334	3.344099	1.133011	0.000134
 204	2.0198e+01	8.0853	21.231297	0.000233	2.330735	0.789675	0.000093
 205	2.0298e+01	8.1238	21.372597	0.000355	3.546771	1.201679	0.000142
 206	2.0398e+01	8.1639	21.457376	0.000213	2.128063	0.721007	0.000085
 207	2.0497e+01	8.2008	21.602713	0.000365	3.648108	1.236012	0.000146
 208	2.0596e+01	8.2442	21.756124	0.000385	3.850780	1.304680	0.000154
 209	2.0696e+01	8.2843	21.848979	0.000233	2.330735	0.789675	0.000093
 210	2.0796e+01	8.3260	22.006427	0.000395	3.952117	1.339013	0.000158
 211	2.0895e+01	8.3613	22.103318	0.000243	2.432072	0.824008	0.000097
 212	2.0994e+01	8.4110	22.204247	0.000253	2.533408	0.858342	0.000101
 213	2.1094e+01	8.4335	22.313249	0.000274	2.736081	0.927009	0.000110
 214	2.1194e+01	8.4752	22.434363	0.000304	3.040090	1.030010	0.000122
 215	2.1293e+01	8.5185	22.547403	0.000284	2.837417	0.961343	0.000114
 216	2.1392e+01	8.5714	22.704851	0.000395	3.952117	1.339013	0.000158
 217	2.1492e+01	8.5971	22.817891	0.000284	2.837417	0.961343	0.000114
 218	2.1591e+01	8.6372	22.926894	0.000274	2.736081	0.927009	0.000110
 219	2.1691e+01	8.6837	23.056082	0.000324	3.242762	1.098678	0.000130
 220	2.1791e+01	8.7174	23.177196	0.000304	3.040090	1.030010	0.000122
 221	2.1890e+01	8.7559	23.282162	0.000263	2.634744	0.892676	0.000105
 222	2.1989e+01	8.8040	23.391164	0.000274	2.736081	0.927009	0.000110
 223	2.2089e+01	8.8425	23.516316	0.000314	3.141426	1.064344	0.000126
 224	2.2189e+01	8.8810	23.689913	0.000436	4.357462	1.476348	0.000174
 225	2.2288e+01	8.9276	23.766618	0.000193	1.925390	0.652340	0.000077
 226	2.2387e+01	8.9548	23.875621	0.000274	2.736081	0.927009	0.000110
 227	2.2487e+01	8.9965	23.988661	0.000284	2.837417	0.961343	0.000114
 228	2.2587e+01	9.0447	24.085552	0.000243	2.432072	0.824008	0.000097
 229	2.2686e+01	9.0800	24.234926	0.000375	3.749444	1.270346	0.000150
 230	2.2785e+01	9.1185	24.364114	0.000324	3.242762	1.098678	0.000130
 231	2.2885e+01	9.1586	24.489265	0.000314	3.141426	1.064344	0.000126
 232	2.2985e+01	9.1955	24.602305	0.000284	2.837417	0.961343	0.000114
 233	2.3084e+01	9.2500	24.731494	0.000324	3.242762	1.098678	0.000130
 234	2.3183e+01	9.2773	24.872793	0.000355	3.546771	1.201679	0.000142
 235	2.3283e+01	9.3222	24.981796	0.000274	2.736081	0.927009	0.000110
 236	2.3383e+01	9.3527	25.078687	0.000243	2.432072	0.824008	0.000097
 237	2.3482e+01	9.3992	25.224024	0.000365	3.648108	1.236012	0.000146
 238	2.3581e+01	9.4409	25.349175	0.000314	3.141426	1.064344	0.000126
 239	2.3681e+01	9.4714	25.482401	0.000334	3.344099	1.133011	0.000134
 240	2.3780e+01	9.5195	25.563143	0.000203	2.026726	0.686674	0.000081
 241	2.3880e+01	9.5580	25.696369	0.000334	3.344099	1.133011	0.000134
 242	2.3980e+01	9.6045	25.825557	0.000324	3.242762	1.098678	0.000130
 243	2.4079e+01	9.6350	25.942634	0.000294	2.938753	0.995677	0.000118
 244	2.4178e+01	9.6719	26.079897	0.000345	3.445435	1.167345	0.000138
 245	2.4278e+01	9.7217	26.217159	0.000345	3.445435	1.167345	0.000138
 246	2.4378e+01	9.7569	26.257531	0.000101	1.013363	0.343337	0.000041
 247	2.4477e+01	9.7938	26.398831	0.000355	3.546771	1.201679	0.000142
 248	2.4576e+01	9.8420	26.540130	0.000355	3.546771	1.201679	0.000142
 249	2.4676e+01	9.8885	26.616836	0.000193	1.925390	0.652340	0.000077
 250	2.4776e+01	9.9206	26.733913	0.000294	2.938753	0.995677	0.000118
 251	2.4875e+01	9.9559	26.867138	0.000334	3.344099	1.133011	0.000134
 252	2.4974e+01	9.9944	26.992290	0.000314	3.141426	1.064344	0.000126
 253	2.5074e+01	10.0361	27.141664	0.000375	3.749444	1.270346	0.000150
 254	2.5174e+01	10.0762	27.214332	0.000182	1.824054	0.618006	0.000073
 255	2.5273e+01	10.1115	27.311223	0.000243	2.432072	0.824008	0.000097
 256	2.5372e+01	10.1436	27.448486	0.000345	3.445435	1.167345	0.000138
 257	2.5472e+01	10.2013	27.597860	0.000375	3.749444	1.270346	0.000150
 258	2.5572e+01	10.2318	27.694751	0.000243	2.432072	0.824008	0.000097
 259	2.5671e+01	10.2767	27.844125	0.000375	3.749444	1.270346	0.000150
 260	2.5770e+01	10.3168	27.941016	0.000243	2.432072	0.824008	0.000097
 261	2.5870e+01	10.3505	28.037908	0.000243	2.432072	0.824008	0.000097
 262	2.5970e+01	10.3954	28.183245	0.000365	3.648108	1.236012	0.000146
 263	2.6069e+01	10.4355	28.288210	0.000263	2.634744	0.892676	0.000105
 264	2.6169e+01	10.4756	28.421436	0.000334	3.344099	1.133011	0.000134
 265	2.6268e+01	10.5093	28.522364	0.000253	2.533408	0.858342	0.000101
 266	2.6367e+01	10.5559	28.659627	0.000345	3.445435	1.167345	0.000138
 267	2.6467e+01	10.6040	28.764592	0.000263	2.634744	0.892676	0.000105
 268	2.6567e+01	10.6393	28.877632	0.000284	2.837417	0.961343	0.000114
 269	2.6666e+01	10.6698	29.051229	0.000436	4.357462	1.476348	0.000174
 270	2.6765e+01	10.7099	29.099674	0.000122	1.216036	0.412004	0.000049
 271	2.6865e+01	10.7532	29.232900	0.000334	3.344099	1.133011	0.000134
 272	2.6965e+01	10.7949	29.309605	0.000193	1.925390	0.652340	0.000077
 273	2.7064e+01	10.8318	29.458979	0.000375	3.749444	1.270346	0.000150
 274	2.7163e+01	10.8735	29.563945	0.000263	2.634744	0.892676	0.000105
 275	2.7263e+01	10.9184	29.709282	0.000365	3.648108	1.236012	0.000146
 276	2.7363e+01	10.9489	29.802136	0.000233	2.330735	0.789675	0.000093
 277	2.7462e+01	10.9938	29.971696	0.000426	4.256126	1.442014	0.000170
 278	2.7561e+01	11.0387	30.052438	0.000203	2.026726	0.686674	0.000081
 279	2.7661e+01	11.0628	30.185664	0.000334	3.344099	1.133011	0.000134
 280	2.7761e+01	11.1141	30.278518	0.000233	2.330735	0.789675	0.000093
 281	2.7860e+01	11.1526	30.383484	0.000263	2.634744	0.892676	0.000105
 282	2.7959e+01	11.1943	30.532858	0.000375	3.749444	1.270346	0.000150
 283	2.8059e+01	11.2280	30.641860	0.000274	2.736081	0.927009	0.000110
 284	2.8159e+01	11.2681	30.767011	0.000314	3.141426	1.064344	0.000126
 285	2.8258e+01	11.3147	30.835643	0.000172	1.722717	0.583672	0.000069
 286	2.8358e+01	11.3516	30.980980	0.000365	3.648108	1.236012	0.000146
 287	2.8457e+01	11.3917	31.126317	0.000365	3.648108	1.236012	0.000146
 288	2.8556e+01	11.4302	31.190911	0.000162	1.621381	0.549339	0.000065
 289	2.8656e+01	11.4703	31.344322	0.000385	3.850780	1.304680	0.000154
 290	2.8756e+01	11.5088	31.465436	0.000304	3.040090	1.030010	0.000122
 291	2.8855e+01	11.5521	31.562327	0.000243	2.432072	0.824008	0.000097
 292	2.8954e+01	11.5938	31.667293	0.000263	2.634744	0.892676	0.000105
 293	2.9054e+01	11.6291	31.788407	0.000304	3.040090	1.030010	0.000122
 294	2.9154e+01	11.6756	31.905484	0.000294	2.938753	0.995677	0.000118
 295	2.9253e+01	11.6997	32.018524	0.000284	2.837417	0.961343	0.000114
 296	2.9352e+01	11.7446	32.135600	0.000294	2.938753	0.995677	0.000118
 297	2.9452e+01	11.7863	32.232492	0.000243	2.432072	0.824008	0.000097
 298	2.9552e+01	11.8264	32.357643	0.000314	3.141426	1.064344	0.000126
 299	2.9651e+01	11.8665	32.458571	0.000253	2.533408	0.858342	0.000101
 300	2.9750e+01	11.9066	32.607945	0.000375	3.749444	1.270346	0.000150
 301	2.9850e+01	11.9467	32.708874	0.000253	2.533408	0.858342	0.000101
 302	2.9950e+01	11.9900	32.809802	0.000253	2.533408	0.858342	0.000101
 303	3.0049e+01	12.0237	32.922842	0.000284	2.837417	0.961343	0.000114
 304	3.0148e+01	12.0719	33.060105	0.000345	3.445435	1.167345	0.000138
 305	3.0248e+01	12.1055	33.173144	0.000284	2.837417	0.961343	0.000114
 306	3.0348e+01	12.1521	33.253887	0.000203	2.026726	0.686674	0.000081
 307	3.0447e+01	12.1858	33.379038	0.000314	3.141426	1.064344	0.000126
 308	3.0547e+01	12.2355	33.492078	0.000284	2.837417	0.961343	0.000114
 309	3.0646e+01	12.2724	33.621266	0.000324	3.242762	1.098678	0.000130
 310	3.0745e+01	12.3125	33.714121	0.000233	2.330735	0.789675	0.000093
 311	3.0845e+01	12.3478	33.835235	0.000304	3.040090	1.030010	0.000122
 312	3.0945e+01	12.3879	33.956349	0.000304	3.040090	1.030010	0.000122
 313	3.1044e+01	12.4248	34.069388	0.000284	2.837417	0.961343	0.000114
 314	3.1143e+01	12.4569	34.182428	0.000284	2.837417	0.961343	0.000114
 315	3.1243e+01	12.5050	34.303542	0.000304	3.040090	1.030010	0.000122
 316	3.1343e+01	12.5419	34.408508	0.000263	2.634744	0.892676	0.000105
 317	3.1442e+01	12.5804	34.473102	0.000162	1.621381	0.549339	0.000065
 318	3.1541e+01	12.6269	34.602290	0.000324	3.242762	1.098678	0.000130
 319	3.1641e+01	12.6622	34.719367	0.000294	2.938753	0.995677	0.000118
 320	3.1741e+01	12.7184	34.852593	0.000334	3.344099	1.133011	0.000134
 321	3.1840e+01	12.7504	34.941410	0.000223	2.229399	0.755341	0.000089
 322	3.1939e+01	12.7745	35.050412	0.000274	2.736081	0.927009	0.000110
 323	3.2039e+01	12.8210	35.151341	0.000253	2.533408	0.858342	0.000101
 324	3.2139e+01	12.8708	35.280529	0.000324	3.242762	1.098678	0.000130
 325	3.2238e+01	12.9061	35.393569	0.000284	2.837417	0.961343	0.000114
 326	3.2337e+01	12.9413	35.494497	0.000253	2.533408	0.858342	0.000101
 327	3.2437e+01	12.9831	35.623686	0.000324	3.242762	1.098678	0.000130
 328	3.2536e+01	13.0248	35.688280	0.000162	1.621381	0.549339	0.000065
 329	3.2636e+01	13.0697	35.789208	0.000253	2.533408	0.858342	0.000101
 330	3.2736e+01	13.0986	35.934545	0.000365	3.648108	1.236012	0.000146
 331	3.2835e+01	13.1403	36.023362	0.000223	2.229399	0.755341	0.000089
 332	3.2934e+01	13.1804	36.144476	0.000304	3.040090	1.030010	0.000122
 333	3.3034e+01	13.2221	36.261553	0.000294	2.938753	0.995677	0.000118
 334	3.3133e+01	13.2654	36.370556	0.000274	2.736081	0.927009	0.000110
 335	3.3233e+01	13.3055	36.495707	0.000314	3.141426	1.064344	0.000126
 336	3.3333e+01	13.3280	36.604710	0.000274	2.736081	0.927009	0.000110
 337	3.3432e+01	13.3777	36.746009	0.000355	3.546771	1.201679	0.000142
 338	3.3532e+01	13.4290	36.798492	0.000132	1.317372	0.446338	0.000053
 339	3.3631e+01	13.4627	36.923643	0.000314	3.141426	1.064344	0.000126
 340	3.3730e+01	13.5012	37.081092	0.000395	3.952117	1.339013	0.000158
 341	3.3830e+01	13.5429	37.133575	0.000132	1.317372	0.446338	0.000053
 342	3.3929e+01	13.5830	37.262763	0.000324	3.242762	1.098678	0.000130
 343	3.4029e+01	13.6231	37.379840	0.000294	2.938753	0.995677	0.000118
 344	3.4129e+01	13.6633	37.488842	0.000274	2.736081	0.927009	0.000110
 345	3.4228e+01	13.6969	37.565548	0.000193	1.925390	0.652340	0.000077
 346	3.4328e+01	13.7322	37.710885	0.000365	3.648108	1.236012	0.000146
 347	3.4427e+01	13.7900	37.836036	0.000314	3.141426	1.064344	0.000126
 348	3.4526e+01	13.8157	37.949076	0.000284	2.837417	0.961343	0.000114
 349	3.4626e+01	13.8638	38.033856	0.000213	2.128063	0.721007	0.000085
 350	3.4725e+01	13.8943	38.154970	0.000304	3.040090	1.030010	0.000122
 351	3.4825e+01	13.9392	38.288195	0.000334	3.344099	1.133011	0.000134
 352	3.4925e+01	13.9793	38.385087	0.000243	2.432072	0.824008	0.000097
 353	3.5024e+01	14.0226	38.486015	0.000253	2.533408	0.858342	0.000101
 354	3.5123e+01	14.0547	38.570795	0.000213	2.128063	0.721007	0.000085
 355	3.5223e+01	14.1012	38.728243	0.000395	3.952117	1.339013	0.000158
 356	3.5322e+01	14.1413	38.833209	0.000263	2.634744	0.892676	0.000105
 357	3.5422e+01	14.1782	38.950286	0.000294	2.938753	0.995677	0.000118
 358	3.5522e+01	14.2135	39.055251	0.000263	2.634744	0.892676	0.000105
 359	3.5621e+01	14.2552	39.168291	0.000284	2.837417	0.961343	0.000114
 360	3.5721e+01	14.2953	39.305554	0.000345	3.445435	1.167345	0.000138
 361	3.5820e+01	14.3418	39.410519	0.000263	2.634744	0.892676	0.000105
 362	3.5919e+01	14.3803	39.491262	0.000203	2.026726	0.686674	0.000081
 363	3.6019e+01	14.4124	39.624487	0.000334	3.344099	1.133011	0.000134
 364	3.6118e+01	14.4573	39.705230	0.000203	2.026726	0.686674	0.000081
 365	3.6218e+01	14.4991	39.798084	0.000233	2.330735	0.789675	0.000093
 366	3.6318e+01	14.5472	39.951495	0.000385	3.850780	1.304680	0.000154
 367	3.6417e+01	14.5777	40.048387	0.000243	2.432072	0.824008	0.000097
 368	3.6517e+01	14.6178	40.153352	0.000263	2.634744	0.892676	0.000105
 369	3.6616e+01	14.6531	40.278503	0.000314	3.141426	1.064344	0.000126
 370	3.6715e+01	14.6996	40.371357	0.000233	2.330735	0.789675	0.000093
 371	3.6815e+01	14.7333	40.480360	0.000274	2.736081	0.927009	0.000110
 372	3.6914e+01	14.7798	40.625697	0.000365	3.648108	1.236012	0.000146
 373	3.7014e+01	14.8103	40.702403	0.000193	1.925390	0.652340	0.000077
 374	3.7114e+01	14.8568	40.851777	0.000375	3.749444	1.270346	0.000150
 375	3.7213e+01	14.8969	40.924445	0.000182	1.824054	0.618006	0.000073
 376	3.7313e+01	14.9290	41.053633	0.000324	3.242762	1.098678	0.000130
 377	3.7412e+01	14.9691	41.162636	0.000274	2.736081	0.927009	0.000110
 378	3.7511e+01	15.0156	41.279713	0.000294	2.938753	0.995677	0.000118
 379	3.7611e+01	15.0477	41.388716	0.000274	2.736081	0.927009	0.000110
 380	3.7711e+01	15.0910	41.505793	0.000294	2.938753	0.995677	0.000118
 381	3.7810e+01	15.1359	41.594610	0.000223	2.229399	0.755341	0.000089
 382	3.7910e+01	15.1793	41.699575	0.000263	2.634744	0.892676	0.000105
 383	3.8009e+01	15.2065	41.780318	0.000203	2.026726	0.686674	0.000081
 384	3.8108e+01	15.2530	41.925655	0.000365	3.648108	1.236012	0.000146
 385	3.8208e+01	15.2899	42.050806	0.000314	3.141426	1.064344	0.000126
 386	3.8307e+01	15.3397	42.200180	0.000375	3.749444	1.270346	0.000150
 387	3.8407e+01	15.3718	42.260737	0.000152	1.520045	0.515005	0.000061
 388	3.8507e+01	15.4071	42.393962	0.000334	3.344099	1.133011	0.000134
 389	3.8606e+01	15.4472	42.498928	0.000263	2.634744	0.892676	0.000105
 390	3.8706e+01	15.4937	42.595819	0.000243	2.432072	0.824008	0.000097
 391	3.8805e+01	15.5354	42.684636	0.000223	2.229399	0.755341	0.000089
 392	3.8904e+01	15.5691	42.850159	0.000415	4.154789	1.407681	0.000166
 393	3.9004e+01	15.6076	42.930901	0.000203	2.026726	0.686674	0.000081
 394	3.9103e+01	15.6557	43.056053	0.000314	3.141426	1.064344	0.000126
 395	3.9203e+01	15.6878	43.148907	0.000233	2.330735	0.789675	0.000093
 396	3.9303e+01	15.7343	43.253872	0.000263	2.634744	0.892676	0.000105
 397	3.9402e+01	15.7792	43.403246	0.000375	3.749444	1.270346	0.000150
 398	3.9502e+01	15.8113	43.483989	0.000203	2.026726	0.686674	0.000081
 399	3.9601e+01	15.8514	43.633363	0.000375	3.749444	1.270346	0.000150
 400	3.9700e+01	15.8947	43.762551	0.000324	3.242762	1.098678	0.000130
 401	3.9800e+01	15.9348	43.835220	0.000182	1.824054	0.618006	0.000073
 402	3.9900e+01	15.9798	43.952297	0.000294	2.938753	0.995677	0.000118
 403	3.9999e+01	16.0086	44.089559	0.000345	3.445435	1.167345	0.000138
 404	4.0099e+01	16.0536	44.186451	0.000243	2.432072	0.824008	0.000097
 405	4.0198e+01	16.0937	44.291416	0.000263	2.634744	0.892676	0.000105
 406	4.0297e+01	16.1290	44.396382	0.000263	2.634744	0.892676	0.000105
 407	4.0397e+01	16.1691	44.517496	0.000304	3.040090	1.030010	0.000122
 408	4.0496e+01	16.2124	44.642647	0.000314	3.141426	1.064344	0.000126
 409	4.0596e+01	16.2445	44.783947	0.000355	3.546771	1.201679	0.000142
 410	4.0696e+01	16.2974	44.876801	0.000233	2.330735	0.789675	0.000093
 411	4.0795e+01	16.3375	44.977729	0.000253	2.533408	0.858342	0.000101
 412	4.0895e+01	16.3680	45.110955	0.000334	3.344099	1.133011	0.000134
 413	4.0994e+01	16.4129	45.203809	0.000233	2.330735	0.789675	0.000093
 414	4.1093e+01	16.4498	45.316849	0.000284	2.837417	0.961343	0.000114
 415	4.1193e+01	16.4867	45.442000	0.000314	3.141426	1.064344	0.000126
 416	4.1292e+01	16.5220	45.526780	0.000213	2.128063	0.721007	0.000085
 417	4.1392e+01	16.5781	45.631745	0.000263	2.634744	0.892676	0.000105
 418	4.1492e+01	16.6038	45.748822	0.000294	2.938753	0.995677	0.000118
 419	4.1591e+01	16.6455	45.869936	0.000304	3.040090	1.030010	0.000122
 420	4.1691e+01	16.6872	45.991050	0.000304	3.040090	1.030010	0.000122
 421	4.1790e+01	16.7305	46.087942	0.000243	2.432072	0.824008	0.000097
 422	4.1889e+01	16.7658	46.221167	0.000334	3.344099	1.133011	0.000134
 423	4.1989e+01	16.8059	46.293836	0.000182	1.824054	0.618006	0.000073
 424	4.2089e+01	16.8509	46.406875	0.000284	2.837417	0.961343	0.000114
 425	4.2188e+01	16.8829	46.511841	0.000263	2.634744	0.892676	0.000105
 426	4.2288e+01	16.9327	46.632955	0.000304	3.040090	1.030010	0.000122
 427	4.2387e+01	16.9664	46.790403	0.000395	3.952117	1.339013	0.000158
 428	4.2486e+01	17.0145	46.867109	0.000193	1.925390	0.652340	0.000077
 429	4.2586e+01	17.0450	46.964000	0.000243	2.432072	0.824008	0.000097
 430	4.2685e+01	17.0835	47.089151	0.000314	3.141426	1.064344	0.000126
 431	4.2785e+01	17.1284	47.250637	0.000405	4.053453	1.373347	0.000162
 432	4.2885e+01	17.1669	47.307157	0.000142	1.418709	0.480671	0.000057
 433	4.2984e+01	17.2054	47.400011	0.000233	2.330735	0.789675	0.000093
 434	4.3084e+01	17.2487	47.513051	0.000284	2.837417	0.961343	0.000114
 435	4.3183e+01	17.2808	47.650313	0.000345	3.445435	1.167345	0.000138
 436	4.3282e+01	17.3241	47.714907	0.000162	1.621381	0.549339	0.000065
 437	4.3382e+01	17.3658	47.864281	0.000375	3.749444	1.270346	0.000150
 438	4.3481e+01	17.4123	47.957135	0.000233	2.330735	0.789675	0.000093
 439	4.3581e+01	17.4476	48.094398	0.000345	3.445435	1.167345	0.000138
 440	4.3681e+01	17.4893	48.175141	0.000203	2.026726	0.686674	0.000081
 441	4.3780e+01	17.5311	48.292218	0.000294	2.938753	0.995677	0.000118
 442	4.3880e+01	17.5663	48.401220	0.000274	2.736081	0.927009	0.000110
 443	4.3979e+01	17.6129	48.514260	0.000284	2.837417	0.961343	0.000114
 444	4.4078e+01	17.6434	48.647486	0.000334	3.344099	1.133011	0.000134
 445	4.4178e+01	17.6947	48.768600	0.000304	3.040090	1.030010	0.000122
 446	4.4278e+01	17.7188	48.837231	0.000172	1.722717	0.583672	0.000069
 447	4.4377e+01	17.7621	48.958345	0.000304	3.040090	1.030010	0.000122
 448	4.4477e+01	17.8150	49.099645	0.000355	3.546771	1.201679	0.000142
 449	4.4576e+01	17.8439	49.204610	0.000263	2.634744	0.892676	0.000105
 450	4.4675e+01	17.8776	49.269205	0.000162	1.621381	0.549339	0.000065
 451	4.4775e+01	17.9209	49.422616	0.000385	3.850780	1.304680	0.000154
 452	4.4874e+01	17.9642	49.507396	0.000213	2.128063	0.721007	0.000085
 453	4.4974e+01	18.0043	49.608324	0.000253	2.533408	0.858342	0.000101
 454	4.5074e+01	18.0460	49.725401	0.000294	2.938753	0.995677	0.000118
 455	4.5173e+01	18.0765	49.834404	0.000274	2.736081	0.927009	0.000110
 456	4.5273e+01	18.1326	49.967629	0.000334	3.344099	1.133011	0.000134
 457	4.5372e+01	18.1663	50.040297	0.000182	1.824054	0.618006	0.000073
 458	4.5471e+01	18.2032	50.165449	0.000314	3.141426	1.064344	0.000126
 459	4.5571e+01	18.2481	50.262340	0.000243	2.432072	0.824008	0.000097
 460	4.5670e+01	18.2883	50.355194	0.000233	2.330735	0.789675	0.000093
 461	4.5770e+01	18.3268	50.492457	0.000345	3.445435	1.167345	0.000138
 462	4.5870e+01	18.3540	50.577237	0.000213	2.128063	0.721007	0.000085
 463	4.5969e+01	18.3989	50.666054	0.000223	2.229399	0.755341	0.000089
 464	4.6069e+01	18.4471	50.815428	0.000375	3.749444	1.270346	0.000150
 465	4.6168e+01	18.4872	50.880022	0.000162	1.621381	0.549339	0.000065
 466	4.6267e+01	18.5177	51.013247	0.000334	3.344099	1.133011	0.000134
 467	4.6367e+01	18.5562	51.110138	0.000243	2.432072	0.824008	0.000097
 468	4.6467e+01	18.5979	51.211067	0.000253	2.533408	0.858342	0.000101
 469	4.6566e+01	18.6460	51.328144	0.000294	2.938753	0.995677	0.000118
 470	4.6666e+01	18.6845	51.465406	0.000345	3.445435	1.167345	0.000138
 471	4.6765e+01	18.7246	51.538075	0.000182	1.824054	0.618006	0.000073
 472	4.6864e+01	18.7599	51.679375	0.000355	3.546771	1.201679	0.000142
 473	4.6964e+01	18.7984	51.731857	0.000132	1.317372	0.446338	0.000053
 474	4.7063e+01	18.8449	51.873157	0.000355	3.546771	1.201679	0.000142
 475	4.7163e+01	18.8850	51.994271	0.000304	3.040090	1.030010	0.000122
 476	4.7263e+01	18.9316	52.034643	0.000101	1.013363	0.343337	0.000041
 477	4.7362e+01	18.9572	52.208239	0.000436	4.357462	1.476348	0.000174
 478	4.7462e+01	18.9957	52.288982	0.000203	2.026726	0.686674	0.000081
 479	4.7561e+01	19.0422	52.365688	0.000193	1.925390	0.652340	0.000077
 480	4.7660e+01	19.0840	52.511025	0.000365	3.648108	1.236012	0.000146
 481	4.7760e+01	19.1225	52.587730	0.000193	1.925390	0.652340	0.000077
 482	4.7859e+01	19.1497	52.704807	0.000294	2.938753	0.995677	0.000118
 483	4.7959e+01	19.2011	52.797661	0.000233	2.330735	0.789675	0.000093
 484	4.8059e+01	19.2412	52.878404	0.000203	2.026726	0.686674	0.000081
 485	4.8158e+01	19.2765	53.043926	0.000415	4.154789	1.407681	0.000166
 486	4.8258e+01	19.3246	53.132743	0.000223	2.229399	0.755341	0.000089
 487	4.8357e+01	19.3583	53.229635	0.000243	2.432072	0.824008	0.000097
 488	4.8456e+01	19.3855	53.330563	0.000253	2.533408	0.858342	0.000101
 489	4.8556e+01	19.4369	53.435529	0.000263	2.634744	0.892676	0.000105
 490	4.8656e+01	19.4690	53.508197	0.000182	1.824054	0.618006	0.000073
 491	4.8755e+01	19.5139	53.641423	0.000334	3.344099	1.133011	0.000134
 492	4.8855e+01	19.5524	53.718128	0.000193	1.925390	0.652340	0.000077
 493	4.8954e+01	19.5973	53.815019	0.000243	2.432072	0.824008	0.000097
 494	4.9053e+01	19.6390	53.899799	0.000213	2.128063	0.721007	0.000085
 495	4.9153e+01	19.6807	54.028988	0.000324	3.242762	1.098678	0.000130
 496	4.9252e+01	19.7224	54.146065	0.000294	2.938753	0.995677	0.000118
 497	4.9352e+01	19.7625	54.259104	0.000284	2.837417	0.961343	0.000114
 498	4.9452e+01	19.7962	54.327736	0.000172	1.722717	0.583672	0.000069
 499	4.9551e+01	19.8347	54.436738	0.000274	2.736081	0.927009	0.000110
 500	4.9651e+01	19.8684	54.561889	0.000314	3.141426	1.064344	0.000126
 501	4.9750e+01	19.9182	54.658781	0.000243	2.432072	0.824008	0.000097
 502	4.9849e+01	19.9567	54.771821	0.000284	2.837417	0.961343	0.000114
 503	4.9949e+01	19.9952	54.880823	0.000274	2.736081	0.927009	0.000110
 504	5.0048e+01	19.9663	54.783932	0.000243	2.432072	0.824008	-0.000097
 505	5.0148e+01	19.9149	54.707226	0.000193	1.925390	0.652340	-0.000077
 506	5.0248e+01	19.8748	54.622447	0.000213	2.128063	0.721007	-0.000085
 507	5.0347e+01	19.8331	54.525555	0.000243	2.432072	0.824008	-0.000097
 508	5.0447e+01	19.7962	54.424627	0.000253	2.533408	0.858342	-0.000101
 509	5.0546e+01	19.7609	54.343884	0.000203	2.026726	0.686674	-0.000081
 510	5.0645e+01	19.7256	54.279290	0.000162	1.621381	0.549339	-0.000065
 511	5.0745e+01	19.6759	54.154139	0.000314	3.141426	1.064344	-0.000126
 512	5.0844e+01	19.6358	54.057248	0.000243	2.432072	0.824008	-0.000097
 513	5.0944e+01	19.5989	54.008802	0.000122	1.216036	0.412004	-0.000049
 514	5.1044e+01	19.5460	53.887688	0.000304	3.040090	1.030010	-0.000122
 515	5.1143e+01	19.5267	53.819057	0.000172	1.722717	0.583672	-0.000069
 516	5.1242e+01	19.4722	53.746388	0.000182	1.824054	0.618006	-0.000073
 517	5.1342e+01	19.4385	53.637385	0.000274	2.736081	0.927009	-0.000110
 518	5.1441e+01	19.4064	53.520308	0.000294	2.938753	0.995677	-0.000118
 519	5.1541e+01	19.3551	53.455714	0.000162	1.621381	0.549339	-0.000065
 520	5.1641e+01	19.3198	53.322489	0.000334	3.344099	1.133011	-0.000134
 521	5.1740e+01	19.2765	53.229635	0.000233	2.330735	0.789675	-0.000093
 522	5.1840e+01	19.2412	53.161003	0.000172	1.722717	0.583672	-0.000069
 523	5.1939e+01	19.1914	53.056038	0.000263	2.634744	0.892676	-0.000105
 524	5.2038e+01	19.1545	52.959147	0.000243	2.432072	0.824008	-0.000097
 525	5.2138e+01	19.1225	52.874367	0.000213	2.128063	0.721007	-0.000085
 526	5.2237e+01	19.0872	52.757290	0.000294	2.938753	0.995677	-0.000118
 527	5.2337e+01	19.0390	52.664436	0.000233	2.330735	0.789675	-0.000093
 528	5.2437e+01	19.0005	52.567544	0.000243	2.432072	0.824008	-0.000097
 529	5.2536e+01	18.9604	52.478727	0.000223	2.229399	0.755341	-0.000089
 530	5.2636e+01	18.9219	52.361651	0.000294	2.938753	0.995677	-0.000118
 531	5.2735e+01	18.8866	52.248611	0.000284	2.837417	0.961343	-0.000114
 532	5.2834e+01	18.8417	52.167868	0.000203	2.026726	0.686674	-0.000081
 533	5.2934e+01	18.8016	52.083088	0.000213	2.128063	0.721007	-0.000085
 534	5.3033e+01	18.7567	51.970048	0.000284	2.837417	0.961343	-0.000114
 535	5.3133e+01	18.7166	51.893343	0.000193	1.925390	0.652340	-0.000077
 536	5.3233e+01	18.6861	51.816637	0.000193	1.925390	0.652340	-0.000077
 537	5.3332e+01	18.6396	51.695523	0.000304	3.040090	1.030010	-0.000122
 538	5.3431e+01	18.5979	51.614780	0.000203	2.026726	0.686674	-0.000081
 539	5.3531e+01	18.5658	51.521926	0.000233	2.330735	0.789675	-0.000093
 540	5.3630e+01	18.5209	51.416961	0.000263	2.634744	0.892676	-0.000105
 541	5.3730e+01	18.4792	51.324107	0.000233	2.330735	0.789675	-0.000093
 542	5.3830e+01	18.4423	51.235290	0.000223	2.229399	0.755341	-0.000089
 543	5.3929e+01	18.4102	51.142436	0.000233	2.330735	0.789675	-0.000093
 544	5.4029e+01	18.3620	51.029396	0.000284	2.837417	0.961343	-0.000114
 545	5.4128e+01	18.3219	50.976913	0.000132	1.317372	0.446338	-0.000053
 546	5.4227e+01	18.2754	50.819465	0.000395	3.952117	1.339013	-0.000158
 547	5.4327e+01	18.2417	50.702388	0.000294	2.938753	0.995677	-0.000118
 548	5.4426e+01	18.2064	50.629719	0.000182	1.824054	0.618006	-0.000073
 549	5.4526e+01	18.1631	50.544939	0.000213	2.128063	0.721007	-0.000085
 550	5.4626e+01	18.1262	50.476308	0.000172	1.722717	0.583672	-0.000069
 551	5.4725e+01	18.0861	50.343083	0.000334	3.344099	1.133011	-0.000134
 552	5.4825e+01	18.0428	50.274451	0.000172	1.722717	0.583672	-0.000069
 553	5.4924e+01	18.0075	50.201783	0.000182	1.824054	0.618006	-0.000073
 554	5.5023e+01	17.9674	50.076632	0.000314	3.141426	1.064344	-0.000126
 555	5.5123e+01	17.9241	49.983778	0.000233	2.330735	0.789675	-0.000093
 556	5.5222e+01	17.8808	49.894961	0.000223	2.229399	0.755341	-0.000089
 557	5.5322e+01	17.8503	49.777884	0.000294	2.938753	0.995677	-0.000118
 558	5.5422e+01	17.8086	49.664844	0.000284	2.837417	0.961343	-0.000114
 559	5.5521e+01	17.7669	49.547767	0.000294	2.938753	0.995677	-0.000118
 560	5.5620e+01	17.7220	49.467024	0.000203	2.026726	0.686674	-0.000081
 561	5.5720e+01	17.6899	49.366096	0.000253	2.533408	0.858342	-0.000101
 562	5.5819e+01	17.6434	49.257093	0.000274	2.736081	0.927009	-0.000110
 563	5.5919e+01	17.6081	49.224796	0.000081	0.810691	0.274669	-0.000032
 564	5.6019e+01	17.5583	49.095608	0.000324	3.242762	1.098678	-0.000130
 565	5.6118e+01	17.5295	48.990642	0.000263	2.634744	0.892676	-0.000105
 566	5.6218e+01	17.4974	48.893751	0.000243	2.432072	0.824008	-0.000097
 567	5.6317e+01	17.4444	48.825120	0.000172	1.722717	0.583672	-0.000069
 568	5.6416e+01	17.4172	48.752451	0.000182	1.824054	0.618006	-0.000073
 569	5.6516e+01	17.3594	48.651523	0.000253	2.533408	0.858342	-0.000101
 570	5.6615e+01	17.3257	48.542520	0.000274	2.736081	0.927009	-0.000110
 571	5.6715e+01	17.2968	48.433517	0.000274	2.736081	0.927009	-0.000110
 572	5.6815e+01	17.2503	48.344700	0.000223	2.229399	0.755341	-0.000089
 573	5.6914e+01	17.1974	48.267995	0.000193	1.925390	0.652340	-0.000077
 574	5.7014e+01	17.1637	48.167066	0.000253	2.533408	0.858342	-0.000101
 575	5.7113e+01	17.1220	48.062101	0.000263	2.634744	0.892676	-0.000105
 576	5.7212e+01	17.0867	47.936950	0.000314	3.141426	1.064344	-0.000126
 577	5.7312e+01	17.0466	47.848133	0.000223	2.229399	0.755341	-0.000089
 578	5.7411e+01	17.0065	47.783539	0.000162	1.621381	0.549339	-0.000065
 579	5.7511e+01	16.9664	47.622053	0.000405	4.053453	1.373347	-0.000162
 580	5.7611e+01	16.9247	47.573608	0.000122	1.216036	0.412004	-0.000049
 581	5.7710e+01	16.8894	47.500939	0.000182	1.824054	0.618006	-0.000073
 582	5.7809e+01	16.8428	47.379825	0.000304	3.040090	1.030010	-0.000122
 583	5.7909e+01	16.8059	47.262748	0.000294	2.938753	0.995677	-0.000118
 584	5.8008e+01	16.7674	47.153745	0.000274	2.736081	0.927009	-0.000110
 585	5.8108e+01	16.7225	47.073003	0.000203	2.026726	0.686674	-0.000081
 586	5.8208e+01	16.6888	46.968037	0.000263	2.634744	0.892676	-0.000105
 587	5.8307e+01	16.6455	46.871146	0.000243	2.432072	0.824008	-0.000097
 588	5.8407e+01	16.6150	46.790403	0.000203	2.026726	0.686674	-0.000081
 589	5.8506e+01	16.5669	46.693512	0.000243	2.432072	0.824008	-0.000097
 590	5.8605e+01	16.5284	46.608732	0.000213	2.128063	0.721007	-0.000085
 591	5.8705e+01	16.4883	46.475507	0.000334	3.344099	1.133011	-0.000134
 592	5.8804e+01	16.4482	46.398801	0.000193	1.925390	0.652340	-0.000077
 593	5.8904e+01	16.4129	46.281724	0.000294	2.938753	0.995677	-0.000118
 594	5.9004e+01	16.3664	46.164647	0.000294	2.938753	0.995677	-0.000118
 595	5.9103e+01	16.3279	46.055644	0.000274	2.736081	0.927009	-0.000110
 596	5.9203e+01	16.2846	45.970865	0.000213	2.128063	0.721007	-0.000085
 597	5.9302e+01	16.2525	45.853788	0.000294	2.938753	0.995677	-0.000118
 598	5.9401e+01	16.2108	45.752859	0.000253	2.533408	0.858342	-0.000101
 599	5.9501e+01	16.1723	45.696339	0.000142	1.418709	0.480671	-0.000057
 600	5.9600e+01	16.1306	45.575225	0.000304	3.040090	1.030010	-0.000122
 601	5.9700e+01	16.0937	45.502557	0.000182	1.824054	0.618006	-0.000073
 602	5.9800e+01	16.0552	45.341071	0.000405	4.053453	1.373347	-0.000162
 603	5.9899e+01	16.0135	45.280514	0.000152	1.520045	0.515005	-0.000061
 604	5.9998e+01	15.9669	45.228032	0.000132	1.317372	0.446338	-0.000053
 605	6.0098e+01	15.9316	45.090769	0.000345	3.445435	1.167345	-0.000138
 606	6.0197e+01	15.8931	44.981766	0.000274	2.736081	0.927009	-0.000110
 607	6.0297e+01	15.8530	44.888912	0.000233	2.330735	0.789675	-0.000093
 608	6.0397e+01	15.8177	44.775872	0.000284	2.837417	0.961343	-0.000114
 609	6.0496e+01	15.7728	44.695130	0.000203	2.026726	0.686674	-0.000081
 610	6.0596e+01	15.7343	44.594201	0.000253	2.533408	0.858342	-0.000101
 611	6.0695e+01	15.6990	44.485199	0.000274	2.736081	0.927009	-0.000110
 612	6.0794e+01	15.6557	44.384270	0.000253	2.533408	0.858342	-0.000101
 613	6.0894e+01	15.6140	44.315639	0.000172	1.722717	0.583672	-0.000069
 614	6.0993e+01	15.5755	44.190488	0.000314	3.141426	1.064344	-0.000126
 615	6.1093e+01	15.5402	44.105708	0.000213	2.128063	0.721007	-0.000085
 616	6.1193e+01	15.4905	43.984594	0.000304	3.040090	1.030010	-0.000122
 617	6.1292e+01	15.4520	43.895777	0.000223	2.229399	0.755341	-0.000089
 618	6.1392e+01	15.4151	43.806960	0.000223	2.229399	0.755341	-0.000089
 619	6.1491e+01	15.3814	43.657586	0.000375	3.749444	1.270346	-0.000150
 620	6.1590e+01	15.3317	43.584917	0.000182	1.824054	0.618006	-0.000073
 621	6.1690e+01	15.2996	43.463803	0.000304	3.040090	1.030010	-0.000122
 622	6.1789e+01	15.2579	43.350764	0.000284	2.837417	0.961343	-0.000114
 623	6.1889e+01	15.2226	43.282132	0.000172	1.722717	0.583672	-0.000069
 624	6.1989e+01	15.1760	43.193315	0.000223	2.229399	0.755341	-0.000089
 625	6.2088e+01	15.1295	43.060090	0.000334	3.344099	1.133011	-0.000134
 626	6.2188e+01	15.0910	42.979347	0.000203	2.026726	0.686674	-0.000081
 627	6.2287e+01	15.0477	42.878419	0.000253	2.533408	0.858342	-0.000101
 628	6.2386e+01	15.0220	42.793639	0.000213	2.128063	0.721007	-0.000085
 629	6.2486e+01	14.9787	42.636191	0.000395	3.952117	1.339013	-0.000158
 630	6.2586e+01	14.9322	42.571596	0.000162	1.621381	0.549339	-0.000065
 631	6.2685e+01	14.8985	42.446445	0.000314	3.141426	1.064344	-0.000126
 632	6.2785e+01	14.8632	42.333405	0.000284	2.837417	0.961343	-0.000114
 633	6.2884e+01	14.8167	42.256700	0.000193	1.925390	0.652340	-0.000077
 634	6.2983e+01	14.7814	42.115400	0.000355	3.546771	1.201679	-0.000142
 635	6.3083e+01	14.7365	42.099251	0.000041	0.405345	0.137335	-0.000016
 636	6.3182e+01	14.7076	41.925655	0.000436	4.357462	1.476348	-0.000174
 637	6.3282e+01	14.6515	41.820689	0.000263	2.634744	0.892676	-0.000105
 638	6.3382e+01	14.6194	41.719761	0.000253	2.533408	0.858342	-0.000101
 639	6.3481e+01	14.5664	41.614795	0.000263	2.634744	0.892676	-0.000105
 640	6.3581e+01	14.5343	41.513867	0.000253	2.533408	0.858342	-0.000101
 641	6.3680e+01	14.4894	41.408901	0.000263	2.634744	0.892676	-0.000105
 642	6.3779e+01	14.4525	41.320084	0.000223	2.229399	0.755341	-0.000089
 643	6.3879e+01	14.4124	41.203007	0.000294	2.938753	0.995677	-0.000118
 644	6.3978e+01	14.3852	41.098042	0.000263	2.634744	0.892676	-0.000105
 645	6.4078e+01	14.3418	41.021336	0.000193	1.925390	0.652340	-0.000077
 646	6.4177e+01	14.3017	40.912334	0.000274	2.736081	0.927009	-0.000110
 647	6.4277e+01	14.2568	40.766997	0.000365	3.648108	1.236012	-0.000146
 648	6.4376e+01	14.2295	40.682217	0.000213	2.128063	0.721007	-0.000085
 649	6.4476e+01	14.1862	40.540917	0.000355	3.546771	1.201679	-0.000142
 650	6.4576e+01	14.1461	40.476323	0.000162	1.621381	0.549339	-0.000065
 651	6.4675e+01	14.1028	40.363283	0.000284	2.837417	0.961343	-0.000114
 652	6.4775e+01	14.0547	40.217946	0.000365	3.648108	1.236012	-0.000146
 653	6.4874e+01	14.0194	40.141241	0.000193	1.925390	0.652340	-0.000077
 654	6.4974e+01	13.9761	40.044349	0.000243	2.432072	0.824008	-0.000097
 655	6.5073e+01	13.9408	39.899012	0.000365	3.648108	1.236012	-0.000146
 656	6.5172e+01	13.9007	39.785973	0.000284	2.837417	0.961343	-0.000114
 657	6.5272e+01	13.8542	39.693119	0.000233	2.330735	0.789675	-0.000093
 658	6.5371e+01	13.8189	39.600264	0.000233	2.330735	0.789675	-0.000093
 659	6.5471e+01	13.7755	39.471076	0.000324	3.242762	1.098678	-0.000130
 660	6.5570e+01	13.7386	39.366111	0.000263	2.634744	0.892676	-0.000105
 661	6.5670e+01	13.7001	39.281331	0.000213	2.128063	0.721007	-0.000085
 662	6.5769e+01	13.6584	39.164254	0.000294	2.938753	0.995677	-0.000118
 663	6.5869e+01	13.6264	39.035065	0.000324	3.242762	1.098678	-0.000130
 664	6.5969e+01	13.5766	38.954323	0.000203	2.026726	0.686674	-0.000081
 665	6.6068e+01	13.5397	38.825134	0.000324	3.242762	1.098678	-0.000130
 666	6.6168e+01	13.4980	38.744392	0.000203	2.026726	0.686674	-0.000081
 667	6.6267e+01	13.4691	38.595018	0.000375	3.749444	1.270346	-0.000150
 668	6.6367e+01	13.4194	38.522349	0.000182	1.824054	0.618006	-0.000073
 669	6.6466e+01	13.3857	38.377012	0.000365	3.648108	1.236012	-0.000146
 670	6.6566e+01	13.3376	38.296270	0.000203	2.026726	0.686674	-0.000081
 671	6.6665e+01	13.3119	38.195341	0.000253	2.533408	0.858342	-0.000101
 672	6.6764e+01	13.2718	38.110561	0.000213	2.128063	0.721007	-0.000085
 673	6.6864e+01	13.2221	38.013670	0.000243	2.432072	0.824008	-0.000097
 674	6.6963e+01	13.1724	37.900630	0.000284	2.837417	0.961343	-0.000114
 675	6.7063e+01	13.1451	37.779516	0.000304	3.040090	1.030010	-0.000122
 676	6.7162e+01	13.0970	37.694736	0.000213	2.128063	0.721007	-0.000085
 677	6.7262e+01	13.0536	37.549399	0.000365	3.648108	1.236012	-0.000146
 678	6.7362e+01	13.0183	37.484805	0.000162	1.621381	0.549339	-0.000065
 679	6.7461e+01	12.9702	37.339468	0.000365	3.648108	1.236012	-0.000146
 680	6.7561e+01	12.9494	37.238540	0.000253	2.533408	0.858342	-0.000101
 681	6.7660e+01	12.9141	37.165872	0.000182	1.824054	0.618006	-0.000073
 682	6.7760e+01	12.8692	37.040720	0.000314	3.141426	1.064344	-0.000126
 683	6.7859e+01	12.8210	36.923643	0.000294	2.938753	0.995677	-0.000118
 684	6.7959e+01	12.7873	36.846938	0.000193	1.925390	0.652340	-0.000077
 685	6.8058e+01	12.7344	36.717750	0.000324	3.242762	1.098678	-0.000130
 686	6.8157e+01	12.7151	36.588561	0.000324	3.242762	1.098678	-0.000130
 687	6.8257e+01	12.6670	36.483596	0.000263	2.634744	0.892676	-0.000105
 688	6.8356e+01	12.6237	36.410927	0.000182	1.824054	0.618006	-0.000073
 689	6.8456e+01	12.5820	36.293850	0.000294	2.938753	0.995677	-0.000118
 690	6.8555e+01	12.5515	36.132365	0.000405	4.053453	1.373347	-0.000162
 691	6.8655e+01	12.5034	36.055659	0.000193	1.925390	0.652340	-0.000077
 692	6.8754e+01	12.4697	35.946657	0.000274	2.736081	0.927009	-0.000110
 693	6.8854e+01	12.4328	35.853802	0.000233	2.330735	0.789675	-0.000093
 694	6.8954e+01	12.3927	35.732688	0.000304	3.040090	1.030010	-0.000122
 695	6.9053e+01	12.3478	35.635797	0.000243	2.432072	0.824008	-0.000097
 696	6.9153e+01	12.3029	35.510646	0.000314	3.141426	1.064344	-0.000126
 697	6.9252e+01	12.2788	35.409718	0.000253	2.533408	0.858342	-0.000101
 698	6.9352e+01	12.2194	35.312826	0.000243	2.432072	0.824008	-0.000097
 699	6.9451e+01	12.1906	35.187675	0.000314	3.141426	1.064344	-0.000126
 700	6.9550e+01	12.1328	35.082710	0.000263	2.634744	0.892676	-0.000105
 701	6.9650e+01	12.1104	34.969670	0.000284	2.837417	0.961343	-0.000114
 702	6.9749e+01	12.0686	34.856630	0.000284	2.837417	0.961343	-0.000114
 703	6.9849e+01	12.0334	34.763776	0.000233	2.330735	0.789675	-0.000093
 704	6.9948e+01	11.9932	34.662847	0.000253	2.533408	0.858342	-0.000101
 705	7.0048e+01	11.9387	34.578068	0.000213	2.128063	0.721007	-0.000085
 706	7.0147e+01	11.9034	34.440805	0.000345	3.445435	1.167345	-0.000138
 707	7.0247e+01	11.8729	34.331802	0.000274	2.736081	0.927009	-0.000110
 708	7.0347e+01	11.8232	34.202614	0.000324	3.242762	1.098678	-0.000130
 709	7.0446e+01	11.7879	34.093611	0.000274	2.736081	0.927009	-0.000110
 710	7.0546e+01	11.7558	34.004794	0.000223	2.229399	0.755341	-0.000089
 711	7.0645e+01	11.7077	33.879643	0.000314	3.141426	1.064344	-0.000126
 712	7.0745e+01	11.6708	33.746418	0.000334	3.344099	1.133011	-0.000134
 713	7.0844e+01	11.6291	33.669712	0.000193	1.925390	0.652340	-0.000077
 714	7.0944e+01	11.5938	33.536487	0.000334	3.344099	1.133011	-0.000134
 715	7.1043e+01	11.5473	33.459781	0.000193	1.925390	0.652340	-0.000077
 716	7.1142e+01	11.5216	33.338667	0.000304	3.040090	1.030010	-0.000122
 717	7.1242e+01	11.4671	33.253887	0.000213	2.128063	0.721007	-0.000085
 718	7.1341e+01	11.4286	33.112587	0.000355	3.546771	1.201679	-0.000142
 719	7.1441e+01	11.3933	33.035882	0.000193	1.925390	0.652340	-0.000077
 720	7.1540e+01	11.3532	32.910731	0.000314	3.141426	1.064344	-0.000126
 721	7.1640e+01	11.3114	32.821914	0.000223	2.229399	0.755341	-0.000089
 722	7.1740e+01	11.2697	32.668502	0.000385	3.850780	1.304680	-0.000154
 723	7.1839e+01	11.2248	32.591797	0.000193	1.925390	0.652340	-0.000077
 724	7.1939e+01	11.1911	32.450497	0.000355	3.546771	1.201679	-0.000142
 725	7.2038e+01	11.1558	32.349569	0.000253	2.533408	0.858342	-0.000101
 726	7.2138e+01	11.1286	32.293049	0.000142	1.418709	0.480671	-0.000057
 727	7.2237e+01	11.0644	32.151749	0.000355	3.546771	1.201679	-0.000142
 728	7.2337e+01	11.0387	32.046783	0.000263	2.634744	0.892676	-0.000105
 729	7.2436e+01	10.9922	31.937781	0.000274	2.736081	0.927009	-0.000110
 730	7.2535e+01	10.9505	31.840890	0.000243	2.432072	0.824008	-0.000097
 731	7.2635e+01	10.9120	31.711701	0.000324	3.242762	1.098678	-0.000130
 732	7.2734e+01	10.8735	31.626921	0.000213	2.128063	0.721007	-0.000085
 733	7.2834e+01	10.8302	31.517919	0.000274	2.736081	0.927009	-0.000110
 734	7.2933e+01	10.8013	31.425065	0.000233	2.330735	0.789675	-0.000093
 735	7.3033e+01	10.7435	31.316062	0.000274	2.736081	0.927009	-0.000110
 736	7.3132e+01	10.7195	31.190911	0.000314	3.141426	1.064344	-0.000126
 737	7.3232e+01	10.6746	31.098057	0.000233	2.330735	0.789675	-0.000093
 738	7.3332e+01	10.6280	30.972905	0.000314	3.141426	1.064344	-0.000126
 739	7.3431e+01	10.5911	30.904274	0.000172	1.722717	0.583672	-0.000069
 740	7.3531e+01	10.5591	30.746826	0.000395	3.952117	1.339013	-0.000158
 741	7.3630e+01	10.5093	30.662046	0.000213	2.128063	0.721007	-0.000085
 742	7.3730e+01	10.4740	30.540932	0.000304	3.040090	1.030010	-0.000122
 743	7.3829e+01	10.4371	30.435966	0.000263	2.634744	0.892676	-0.000105
 744	7.3928e+01	10.3986	30.347149	0.000223	2.229399	0.755341	-0.000089
 745	7.4028e+01	10.3537	30.282555	0.000162	1.621381	0.549339	-0.000065
 746	7.4127e+01	10.3168	30.112995	0.000426	4.256126	1.442014	-0.000170
 747	7.4227e+01	10.2767	29.983807	0.000324	3.242762	1.098678	-0.000130
 748	7.4326e+01	10.2350	29.886916	0.000243	2.432072	0.824008	-0.000097
 749	7.4426e+01	10.1965	29.773876	0.000284	2.837417	0.961343	-0.000114
 750	7.4525e+01	10.1564	29.729468	0.000111	1.114700	0.377670	-0.000045
 751	7.4625e+01	10.1211	29.559908	0.000426	4.256126	1.442014	-0.000170
 752	7.4725e+01	10.0762	29.450905	0.000274	2.736081	0.927009	-0.000110
 753	7.4824e+01	10.0425	29.354014	0.000243	2.432072	0.824008	-0.000097
 754	7.4924e+01	10.0040	29.232900	0.000304	3.040090	1.030010	-0.000122
 755	7.5023e+01	9.9575	29.144083	0.000223	2.229399	0.755341	-0.000089
 756	7.5123e+01	9.9222	29.055266	0.000223	2.229399	0.755341	-0.000089
 757	7.5222e+01	9.8789	28.901855	0.000385	3.850780	1.304680	-0.000154
 758	7.5322e+01	9.8323	28.809001	0.000233	2.330735	0.789675	-0.000093
 759	7.5421e+01	9.7954	28.667701	0.000355	3.546771	1.201679	-0.000142
 760	7.5520e+01	9.7618	28.590995	0.000193	1.925390	0.652340	-0.000077
 761	7.5620e+01	9.7152	28.441621	0.000375	3.749444	1.270346	-0.000150
 762	7.5719e+01	9.6799	28.368953	0.000182	1.824054	0.618006	-0.000073
 763	7.5819e+01	9.6414	28.255913	0.000284	2.837417	0.961343	-0.000114
 764	7.5918e+01	9.5997	28.167096	0.000223	2.229399	0.755341	-0.000089
 765	7.6018e+01	9.5580	28.041945	0.000314	3.141426	1.064344	-0.000126
 766	7.6118e+01	9.5131	27.924868	0.000294	2.938753	0.995677	-0.000118
 767	7.6217e+01	9.4794	27.799717	0.000314	3.141426	1.064344	-0.000126
 768	7.6317e+01	9.4345	27.727048	0.000182	1.824054	0.618006	-0.000073
 769	7.6416e+01	9.3960	27.593823	0.000334	3.344099	1.133011	-0.000134
 770	7.6516e+01	9.3623	27.509043	0.000213	2.128063	0.721007	-0.000085
 771	7.6615e+01	9.3142	27.363706	0.000365	3.648108	1.236012	-0.000146
 772	7.6715e+01	9.2757	27.287000	0.000193	1.925390	0.652340	-0.000077
 773	7.6814e+01	9.2356	27.137626	0.000375	3.749444	1.270346	-0.000150
 774	7.6913e+01	9.1939	27.040735	0.000243	2.432072	0.824008	-0.000097
 775	7.7013e+01	9.1521	26.964030	0.000193	1.925390	0.652340	-0.000077
 776	7.7112e+01	9.1281	26.830804	0.000334	3.344099	1.133011	-0.000134
 777	7.7212e+01	9.0767	26.705653	0.000314	3.141426	1.064344	-0.000126
 778	7.7311e+01	9.0350	26.592613	0.000284	2.837417	0.961343	-0.000114
 779	7.7411e+01	9.0126	26.507833	0.000213	2.128063	0.721007	-0.000085
 780	7.7510e+01	8.9677	26.362496	0.000365	3.648108	1.236012	-0.000146
 781	7.7610e+01	8.9243	26.297902	0.000162	1.621381	0.549339	-0.000065
 782	7.7710e+01	8.8794	26.168714	0.000324	3.242762	1.098678	-0.000130
 783	7.7809e+01	8.8457	26.067785	0.000253	2.533408	0.858342	-0.000101
 784	7.7909e+01	8.7960	25.922449	0.000365	3.648108	1.236012	-0.000146
 785	7.8008e+01	8.7655	25.825557	0.000243	2.432072	0.824008	-0.000097
 786	7.8108e+01	8.7254	25.732703	0.000233	2.330735	0.789675	-0.000093
 787	7.8207e+01	8.6821	25.599478	0.000334	3.344099	1.133011	-0.000134
 788	7.8306e+01	8.6468	25.478364	0.000304	3.040090	1.030010	-0.000122
 789	7.8406e+01	8.5987	25.373398	0.000263	2.634744	0.892676	-0.000105
 790	7.8505e+01	8.5490	25.296693	0.000193	1.925390	0.652340	-0.000077
 791	7.8605e+01	8.5217	25.139244	0.000395	3.952117	1.339013	-0.000158
 792	7.8704e+01	8.4752	25.038316	0.000253	2.533408	0.858342	-0.000101
 793	7.8804e+01	8.4383	24.913165	0.000314	3.141426	1.064344	-0.000126
 794	7.8903e+01	8.4126	24.775902	0.000345	3.445435	1.167345	-0.000138
 795	7.9003e+01	8.3645	24.695159	0.000203	2.026726	0.686674	-0.000081
 796	7.9103e+01	8.3196	24.614417	0.000203	2.026726	0.686674	-0.000081
 797	7.9202e+01	8.2859	24.469080	0.000365	3.648108	1.236012	-0.000146
 798	7.9302e+01	8.2442	24.364114	0.000263	2.634744	0.892676	-0.000105
 799	7.9401e+01	8.1960	24.218777	0.000365	3.648108	1.236012	-0.000146
 800	7.9501e+01	8.1559	24.133997	0.000213	2.128063	0.721007	-0.000085
 801	7.9600e+01	8.1319	24.020958	0.000284	2.837417	0.961343	-0.000114
 802	7.9700e+01	8.0885	23.895806	0.000314	3.141426	1.064344	-0.000126
 803	7.9799e+01	8.0420	23.806989	0.000223	2.229399	0.755341	-0.000089
 804	7.9898e+01	8.0115	23.649541	0.000395	3.952117	1.339013	-0.000158
 805	7.9998e+01	7.9650	23.560724	0.000223	2.229399	0.755341	-0.000089
 806	8.0097e+01	7.9185	23.447684	0.000284	2.837417	0.961343	-0.000114
 807	8.0197e+01	7.8960	23.326570	0.000304	3.040090	1.030010	-0.000122
 808	8.0296e+01	7.8463	23.257939	0.000172	1.722717	0.583672	-0.000069
 809	8.0396e+01	7.8078	23.092416	0.000415	4.154789	1.407681	-0.000166
 810	8.0496e+01	7.7661	22.975339	0.000294	2.938753	0.995677	-0.000118
 811	8.0595e+01	7.7292	22.850188	0.000314	3.141426	1.064344	-0.000126
 812	8.0695e+01	7.6811	22.753297	0.000243	2.432072	0.824008	-0.000097
 813	8.0794e+01	7.6458	22.644294	0.000274	2.736081	0.927009	-0.000110
 814	8.0894e+01	7.6057	22.515106	0.000324	3.242762	1.098678	-0.000130
 815	8.0993e+01	7.5704	22.393992	0.000304	3.040090	1.030010	-0.000122
 816	8.1093e+01	7.5239	22.289026	0.000263	2.634744	0.892676	-0.000105
 817	8.1192e+01	7.4902	22.159838	0.000324	3.242762	1.098678	-0.000130
 818	8.1291e+01	7.4501	22.062947	0.000243	2.432072	0.824008	-0.000097
 819	8.1391e+01	7.4116	21.909536	0.000385	3.850780	1.304680	-0.000154
 820	8.1490e+01	7.3666	21.832830	0.000193	1.925390	0.652340	-0.000077
 821	8.1590e+01	7.3265	21.671345	0.000405	4.053453	1.373347	-0.000162
 822	8.1689e+01	7.2896	21.566379	0.000263	2.634744	0.892676	-0.000105
 823	8.1789e+01	7.2479	21.477562	0.000223	2.229399	0.755341	-0.000089
 824	8.1888e+01	7.2046	21.352411	0.000314	3.141426	1.064344	-0.000126
 825	8.1988e+01	7.1693	21.219185	0.000334	3.344099	1.133011	-0.000134
 826	8.2088e+01	7.1292	21.138443	0.000203	2.026726	0.686674	-0.000081
 827	8.2187e+01	7.0827	20.952734	0.000466	4.661471	1.579349	-0.000187
 828	8.2287e+01	7.0394	20.900252	0.000132	1.317372	0.446338	-0.000053
 829	8.2386e+01	7.0041	20.746841	0.000385	3.850780	1.304680	-0.000154
 830	8.2486e+01	6.9720	20.589392	0.000395	3.952117	1.339013	-0.000158
 831	8.2585e+01	6.9319	20.484427	0.000263	2.634744	0.892676	-0.000105
 832	8.2684e+01	6.8854	20.387535	0.000243	2.432072	0.824008	-0.000097
 833	8.2784e+01	6.8453	20.242199	0.000365	3.648108	1.236012	-0.000146
 834	8.2883e+01	6.8164	20.157419	0.000213	2.128063	0.721007	-0.000085
 835	8.2983e+01	6.7715	20.060527	0.000243	2.432072	0.824008	-0.000097
 836	8.3082e+01	6.7298	19.935376	0.000314	3.141426	1.064344	-0.000126
 837	8.3182e+01	6.6913	19.794077	0.000355	3.546771	1.201679	-0.000142
 838	8.3281e+01	6.6479	19.677000	0.000294	2.938753	0.995677	-0.000118
 839	8.3381e+01	6.6110	19.596257	0.000203	2.026726	0.686674	-0.000081
 840	8.3481e+01	6.5790	19.434771	0.000405	4.053453	1.373347	-0.000162
 841	8.3580e+01	6.5244	19.337880	0.000243	2.432072	0.824008	-0.000097
 842	8.3680e+01	6.4859	19.240989	0.000243	2.432072	0.824008	-0.000097
 843	8.3779e+01	6.4474	19.087578	0.000385	3.850780	1.304680	-0.000154
 844	8.3879e+01	6.4233	18.998761	0.000223	2.229399	0.755341	-0.000089
 845	8.3978e+01	6.3736	18.845350	0.000385	3.850780	1.304680	-0.000154
 846	8.4078e+01	6.3271	18.736347	0.000274	2.736081	0.927009	-0.000110
 847	8.4177e+01	6.2934	18.659641	0.000193	1.925390	0.652340	-0.000077
 848	8.4276e+01	6.2549	18.522379	0.000345	3.445435	1.167345	-0.000138
 849	8.4376e+01	6.2116	18.401265	0.000304	3.040090	1.030010	-0.000122
 850	8.4475e+01	6.1715	18.296299	0.000263	2.634744	0.892676	-0.000105
 851	8.4575e+01	6.1426	18.146925	0.000375	3.749444	1.270346	-0.000150
 852	8.4674e+01	6.0961	18.054071	0.000233	2.330735	0.789675	-0.000093
 853	8.4774e+01	6.0447	17.908734	0.000365	3.648108	1.236012	-0.000146
 854	8.4874e+01	6.0127	17.823954	0.000213	2.128063	0.721007	-0.000085
 855	8.4973e+01	5.9742	17.686692	0.000345	3.445435	1.167345	-0.000138
 856	8.5073e+01	5.9357	17.589800	0.000243	2.432072	0.824008	-0.000097
 857	8.5172e+01	5.8956	17.456575	0.000334	3.344099	1.133011	-0.000134
 858	8.5272e+01	5.8587	17.383906	0.000182	1.824054	0.618006	-0.000073
 859	8.5371e+01	5.8153	17.218384	0.000415	4.154789	1.407681	-0.000166
 860	8.5471e+01	5.7688	17.105344	0.000284	2.837417	0.961343	-0.000114
 861	8.5570e+01	5.7351	16.976156	0.000324	3.242762	1.098678	-0.000130
 862	8.5669e+01	5.6918	16.863116	0.000284	2.837417	0.961343	-0.000114
 863	8.5769e+01	5.6565	16.693556	0.000426	4.256126	1.442014	-0.000170
 864	8.5868e+01	5.6084	16.624925	0.000172	1.722717	0.583672	-0.000069
 865	8.5968e+01	5.5763	16.495737	0.000324	3.242762	1.098678	-0.000130
 866	8.6067e+01	5.5234	16.378660	0.000294	2.938753	0.995677	-0.000118
 867	8.6167e+01	5.5025	16.273694	0.000263	2.634744	0.892676	-0.000105
 868	8.6266e+01	5.4512	16.156617	0.000294	2.938753	0.995677	-0.000118
 869	8.6366e+01	5.4143	16.027429	0.000324	3.242762	1.098678	-0.000130
 870	8.6466e+01	5.3678	15.926500	0.000253	2.533408	0.858342	-0.000101
 871	8.6565e+01	5.3325	15.813461	0.000284	2.837417	0.961343	-0.000114
 872	8.6665e+01	5.3004	15.668124	0.000365	3.648108	1.236012	-0.000146
 873	8.6764e+01	5.2587	15.551047	0.000294	2.938753	0.995677	-0.000118
 874	8.6864e+01	5.2154	15.462230	0.000223	2.229399	0.755341	-0.000089
 875	8.6963e+01	5.1785	15.353227	0.000274	2.736081	0.927009	-0.000110
 876	8.7063e+01	5.1351	15.179630	0.000436	4.357462	1.476348	-0.000174
 877	8.7162e+01	5.0999	15.094851	0.000213	2.128063	0.721007	-0.000085
 878	8.7261e+01	5.0437	14.953551	0.000355	3.546771	1.201679	-0.000142
 879	8.7361e+01	5.0180	14.880882	0.000182	1.824054	0.618006	-0.000073
 880	8.7460e+01	4.9779	14.771880	0.000274	2.736081	0.927009	-0.000110
 881	8.7560e+01	4.9394	14.642691	0.000324	3.242762	1.098678	-0.000130
 882	8.7659e+01	4.8945	14.509466	0.000334	3.344099	1.133011	-0.000134
 883	8.7759e+01	4.8528	14.372203	0.000345	3.445435	1.167345	-0.000138
 884	8.7859e+01	4.8191	14.267238	0.000263	2.634744	0.892676	-0.000105
 885	8.7958e+01	4.7726	14.129975	0.000345	3.445435	1.167345	-0.000138
 886	8.8058e+01	4.7421	14.008861	0.000304	3.040090	1.030010	-0.000122
 887	8.8157e+01	4.6972	13.956378	0.000132	1.317372	0.446338	-0.000053
 888	8.8257e+01	4.6619	13.794893	0.000405	4.053453	1.373347	-0.000162
 889	8.8356e+01	4.6186	13.637445	0.000395	3.952117	1.339013	-0.000158
 890	8.8456e+01	4.5737	13.580925	0.000142	1.418709	0.480671	-0.000057
 891	8.8555e+01	4.5480	13.419439	0.000405	4.053453	1.373347	-0.000162
 892	8.8654e+01	4.5063	13.322548	0.000243	2.432072	0.824008	-0.000097
 893	8.8754e+01	4.4566	13.213545	0.000274	2.736081	0.927009	-0.000110
 894	8.8853e+01	4.4116	13.064171	0.000375	3.749444	1.270346	-0.000150
 895	8.8953e+01	4.3747	12.955169	0.000274	2.736081	0.927009	-0.000110
 896	8.9052e+01	4.3362	12.854240	0.000253	2.533408	0.858342	-0.000101
 897	8.9152e+01	4.3026	12.733126	0.000304	3.040090	1.030010	-0.000122
 898	8.9251e+01	4.2480	12.607975	0.000314	3.141426	1.064344	-0.000126
 899	8.9351e+01	4.2159	12.543381	0.000162	1.621381	0.549339	-0.000065
 900	8.9451e+01	4.1838	12.389970	0.000385	3.850780	1.304680	-0.000154
 901	8.9550e+01	4.1405	12.285004	0.000263	2.634744	0.892676	-0.000105
 902	8.9650e+01	4.0988	12.163890	0.000304	3.040090	1.030010	-0.000122
 903	8.9749e+01	4.0603	12.030664	0.000334	3.344099	1.133011	-0.000134
 904	8.9849e+01	4.0266	11.962033	0.000172	1.722717	0.583672	-0.000069
 905	8.9948e+01	3.9753	11.812659	0.000375	3.749444	1.270346	-0.000150
 906	9.0047e+01	3.9432	11.683471	0.000324	3.242762	1.098678	-0.000130
 907	9.0147e+01	3.9015	11.574468	0.000274	2.736081	0.927009	-0.000110
 908	9.0246e+01	3.8598	11.477577	0.000243	2.432072	0.824008	-0.000097
 909	9.0346e+01	3.8197	11.312054	0.000415	4.154789	1.407681	-0.000166
 910	9.0445e+01	3.7716	11.178829	0.000334	3.344099	1.133011	-0.000134
 911	9.0545e+01	3.7459	11.069826	0.000274	2.736081	0.927009	-0.000110
 912	9.0644e+01	3.7042	10.989083	0.000203	2.026726	0.686674	-0.000081
 913	9.0744e+01	3.6657	10.863932	0.000314	3.141426	1.064344	-0.000126
 914	9.0844e+01	3.6256	10.775115	0.000223	2.229399	0.755341	-0.000089
 915	9.0943e+01	3.5871	10.645927	0.000324	3.242762	1.098678	-0.000130
 916	9.1043e+01	3.5438	10.512701	0.000334	3.344099	1.133011	-0.000134
 917	9.1142e+01	3.5004	10.448107	0.000162	1.621381	0.549339	-0.000065
 918	9.1242e+01	3.4619	10.306808	0.000355	3.546771	1.201679	-0.000142
 919	9.1341e+01	3.4315	10.189731	0.000294	2.938753	0.995677	-0.000118
 920	9.1441e+01	3.3689	10.076691	0.000284	2.837417	0.961343	-0.000114
 921	9.1540e+01	3.3384	9.923280	0.000385	3.850780	1.304680	-0.000154
 922	9.1639e+01	3.3111	9.798128	0.000314	3.141426	1.064344	-0.000126
 923	9.1739e+01	3.2582	9.664903	0.000334	3.344099	1.133011	-0.000134
 924	9.1838e+01	3.2277	9.572049	0.000233	2.330735	0.789675	-0.000093
 925	9.1938e+01	3.1844	9.450935	0.000304	3.040090	1.030010	-0.000122
 926	9.2037e+01	3.1491	9.366155	0.000213	2.128063	0.721007	-0.000085
 927	9.2137e+01	3.1106	9.253115	0.000284	2.837417	0.961343	-0.000114
 928	9.2237e+01	3.0593	9.079518	0.000436	4.357462	1.476348	-0.000174
 929	9.2336e+01	3.0192	8.954367	0.000314	3.141426	1.064344	-0.000126
 930	9.2436e+01	2.9791	8.865550	0.000223	2.229399	0.755341	-0.000089
 931	9.2535e+01	2.9534	8.744436	0.000304	3.040090	1.030010	-0.000122
 932	9.2635e+01	2.9021	8.635433	0.000274	2.736081	0.927009	-0.000110
 933	9.2734e+01	2.8636	8.526431	0.000274	2.736081	0.927009	-0.000110
 934	9.2834e+01	2.8283	8.425502	0.000253	2.533408	0.858342	-0.000101
 935	9.2933e+01	2.7833	8.276128	0.000375	3.749444	1.270346	-0.000150
 936	9.3032e+01	2.7432	8.134829	0.000355	3.546771	1.201679	-0.000142
 937	9.3132e+01	2.7031	8.029863	0.000263	2.634744	0.892676	-0.000105
 938	9.3231e+01	2.6678	7.904712	0.000314	3.141426	1.064344	-0.000126
 939	9.3331e+01	2.6293	7.783598	0.000304	3.040090	1.030010	-0.000122
 940	9.3430e+01	2.5860	7.674595	0.000274	2.736081	0.927009	-0.000110
 941	9.3530e+01	2.5523	7.581741	0.000233	2.330735	0.789675	-0.000093
 942	9.3629e+01	2.5122	7.448515	0.000334	3.344099	1.133011	-0.000134
 943	9.3729e+01	2.4609	7.291067	0.000395	3.952117	1.339013	-0.000158
 944	9.3829e+01	2.4272	7.186102	0.000263	2.634744	0.892676	-0.000105
 945	9.3928e+01	2.3807	7.056913	0.000324	3.242762	1.098678	-0.000130
 946	9.4028e+01	2.3502	6.972133	0.000213	2.128063	0.721007	-0.000085
 947	9.4127e+01	2.3069	6.863131	0.000274	2.736081	0.927009	-0.000110
 948	9.4227e+01	2.2636	6.717794	0.000365	3.648108	1.236012	-0.000146
 949	9.4326e+01	2.2315	6.624940	0.000233	2.330735	0.789675	-0.000093
 950	9.4425e+01	2.1818	6.495751	0.000324	3.242762	1.098678	-0.000130
 951	9.4525e+01	2.1384	6.342340	0.000385	3.850780	1.304680	-0.000154
 952	9.4624e+01	2.1080	6.245449	0.000243	2.432072	0.824008	-0.000097
 953	9.4724e+01	2.0663	6.136446	0.000274	2.736081	0.927009	-0.000110
 954	9.4823e+01	2.0310	5.999184	0.000345	3.445435	1.167345	-0.000138
 955	9.4923e+01	1.9925	5.898255	0.000253	2.533408	0.858342	-0.000101
 956	9.5022e+01	1.9411	5.756956	0.000355	3.546771	1.201679	-0.000142
 957	9.5122e+01	1.9074	5.672176	0.000213	2.128063	0.721007	-0.000085
 958	9.5222e+01	1.8705	5.522802	0.000375	3.749444	1.270346	-0.000150
 959	9.5321e+01	1.8272	5.409762	0.000284	2.837417	0.961343	-0.000114
 960	9.5421e+01	1.7871	5.300759	0.000274	2.736081	0.927009	-0.000110
 961	9.5520e+01	1.7470	5.167534	0.000334	3.344099	1.133011	-0.000134
 962	9.5620e+01	1.7085	5.010085	0.000395	3.952117	1.339013	-0.000158
 963	9.5719e+01	1.6716	4.921268	0.000223	2.229399	0.755341	-0.000089
 964	9.5819e+01	1.6267	4.763820	0.000395	3.952117	1.339013	-0.000158
 965	9.5918e+01	1.5898	4.683077	0.000203	2.026726	0.686674	-0.000081
 966	9.6017e+01	1.5497	4.553889	0.000324	3.242762	1.098678	-0.000130
 967	9.6117e+01	1.5096	4.440849	0.000284	2.837417	0.961343	-0.000114
 968	9.6216e+01	1.4743	4.307624	0.000334	3.344099	1.133011	-0.000134
 969	9.6316e+01	1.4230	4.170361	0.000345	3.445435	1.167345	-0.000138
 970	9.6415e+01	1.3877	4.033099	0.000345	3.445435	1.167345	-0.000138
 971	9.6515e+01	1.3476	3.952356	0.000203	2.026726	0.686674	-0.000081
 972	9.6615e+01	1.3155	3.843353	0.000274	2.736081	0.927009	-0.000110
 973	9.6714e+01	1.2738	3.673794	0.000426	4.256126	1.442014	-0.000170
 974	9.6814e+01	1.2321	3.576902	0.000243	2.432072	0.824008	-0.000097
 975	9.6913e+01	1.1919	3.463862	0.000284	2.837417	0.961343	-0.000114
 976	9.7013e+01	1.1502	3.338711	0.000314	3.141426	1.064344	-0.000126
 977	9.7112e+01	1.1133	3.157040	0.000456	4.560135	1.545015	-0.000183
 978	9.7212e+01	1.0716	3.104557	0.000132	1.317372	0.446338	-0.000053
 979	9.7311e+01	1.0331	2.943072	0.000405	4.053453	1.373347	-0.000162
 980	9.7410e+01	0.9850	2.838106	0.000263	2.634744	0.892676	-0.000105
 981	9.7510e+01	0.9513	2.696807	0.000355	3.546771	1.201679	-0.000142
 982	9.7609e+01	0.9080	2.620101	0.000193	1.925390	0.652340	-0.000077
 983	9.7709e+01	0.8679	2.466690	0.000385	3.850780	1.304680	-0.000154
 984	9.7808e+01	0.8326	2.309242	0.000395	3.952117	1.339013	-0.000158
 985	9.7908e+01	0.7893	2.200239	0.000274	2.736081	0.927009	-0.000110
 986	9.8007e+01	0.7540	2.127571	0.000182	1.824054	0.618006	-0.000073
 987	9.8107e+01	0.7075	2.002419	0.000314	3.141426	1.064344	-0.000126
 988	9.8207e+01	0.6722	1.853045	0.000375	3.749444	1.270346	-0.000150
 989	9.8306e+01	0.6321	1.719820	0.000334	3.344099	1.133011	-0.000134
 990	9.8406e+01	0.5936	1.586594	0.000334	3.344099	1.133011	-0.000134
 991	9.8505e+01	0.5567	1.485666	0.000253	2.533408	0.858342	-0.000101
 992	9.8605e+01	0.5134	1.328218	0.000395	3.952117	1.339013	-0.000158
 993	9.8704e+01	0.4732	1.227289	0.000253	2.533408	0.858342	-0.000101
 994	9.8803e+01	0.4364	1.098101	0.000324	3.242762	1.098678	-0.000130
 995	9.8903e+01	0.3962	0.948727	0.000375	3.749444	1.270346	-0.000150
 996	9.9002e+01	0.3513	0.867984	0.000203	2.026726	0.686674	-0.000081
 997	9.9102e+01	0.3128	0.702462	0.000415	4.154789	1.407681	-0.000166
 998	9.9201e+01	0.2727	0.589422	0.000284	2.837417	0.961343	-0.000114
 999	9.9301e+01	0.2278	0.488493	0.000253	2.533408	0.858342	-0.000101
1000	9.9400e+01	0.1893	0.355268	0.000334	3.344099	1.133011	-0.000134
1001	9.9500e+01	0.1412	0.250302	0.000263	2.634744	0.892676	-0.000105
1002	9.9600e+01	0.1203	0.088817	0.000405	4.053453	1.373347	-0.000162
1003	9.9699e+01	0.0834	-0.032297	0.000304	3.040090	1.030010	-0.000122
1004	9.9799e+01	0.0353	-0.113040	0.000203	2.026726	0.686674	-0.000081
1005	9.9898e+01	0.0032	-0.238191	0.000314	3.141426	1.064344	-0.000126
1006	9.9998e+01	-0.0417	-0.371416	0.000334	3.344099	1.133011	-0.000134
1007	1.0010e+02	-0.0754	-0.492531	0.000304	3.040090	1.030010	-0.000122
1008	1.0020e+02	-0.1187	-0.565199	0.000182	1.824054	0.618006	-0.000073
1009	1.0030e+02	-0.1588	-0.726684	0.000405	4.053453	1.373347	-0.000162
1010	1.0040e+02	-0.2102	-0.847799	0.000304	3.040090	1.030010	-0.000122
1011	1.0050e+02	-0.2278	-0.981024	0.000334	3.344099	1.133011	-0.000134
1012	1.0059e+02	-0.2775	-1.069841	0.000223	2.229399	0.755341	-0.000089
1013	1.0069e+02	-0.3160	-1.203066	0.000334	3.344099	1.133011	-0.000134
1014	1.0079e+02	-0.3481	-1.348403	0.000365	3.648108	1.236012	-0.000146
1015	1.0089e+02	-0.3946	-1.433183	0.000213	2.128063	0.721007	-0.000085
1016	1.0099e+02	-0.4428	-1.566409	0.000334	3.344099	1.133011	-0.000134
1017	1.0109e+02	-0.4716	-1.699634	0.000334	3.344099	1.133011	-0.000134
1018	1.0119e+02	-0.5069	-1.812674	0.000284	2.837417	0.961343	-0.000114
1019	1.0129e+02	-0.5470	-1.962048	0.000375	3.749444	1.270346	-0.000150
1020	1.0139e+02	-0.5936	-2.058939	0.000243	2.432072	0.824008	-0.000097
1021	1.0149e+02	-0.6305	-2.159868	0.000253	2.533408	0.858342	-0.000101
1022	1.0159e+02	-0.6754	-2.289056	0.000324	3.242762	1.098678	-0.000130
1023	1.0169e+02	-0.7155	-2.426319	0.000345	3.445435	1.167345	-0.000138
1024	1.0179e+02	-0.7460	-2.527247	0.000253	2.533408	0.858342	-0.000101
1025	1.0189e+02	-0.7925	-2.664510	0.000345	3.445435	1.167345	-0.000138
1026	1.0199e+02	-0.8422	-2.789661	0.000314	3.141426	1.064344	-0.000126
1027	1.0209e+02	-0.8743	-2.870404	0.000203	2.026726	0.686674	-0.000081
1028	1.0219e+02	-0.9144	-3.052075	0.000456	4.560135	1.545015	-0.000183
1029	1.0229e+02	-0.9593	-3.136854	0.000213	2.128063	0.721007	-0.000085
1030	1.0239e+02	-0.9866	-3.274117	0.000345	3.445435	1.167345	-0.000138
1031	1.0248e+02	-1.0379	-3.387157	0.000284	2.837417	0.961343	-0.000114
1032	1.0258e+02	-1.0716	-3.524419	0.000345	3.445435	1.167345	-0.000138
1033	1.0268e+02	-1.1053	-3.685905	0.000405	4.053453	1.373347	-0.000162
1034	1.0278e+02	-1.1534	-3.762611	0.000193	1.925390	0.652340	-0.000077
1035	1.0288e+02	-1.1935	-3.903910	0.000355	3.546771	1.201679	-0.000142
1036	1.0298e+02	-1.2304	-4.004839	0.000253	2.533408	0.858342	-0.000101
1037	1.0308e+02	-1.2738	-4.146138	0.000355	3.546771	1.201679	-0.000142
1038	1.0318e+02	-1.3139	-4.263215	0.000294	2.938753	0.995677	-0.000118
1039	1.0328e+02	-1.3572	-4.380292	0.000294	2.938753	0.995677	-0.000118
1040	1.0338e+02	-1.3845	-4.509481	0.000324	3.242762	1.098678	-0.000130
1041	1.0348e+02	-1.4358	-4.626558	0.000294	2.938753	0.995677	-0.000118
1042	1.0358e+02	-1.4775	-4.683077	0.000142	1.418709	0.480671	-0.000057
1043	1.0368e+02	-1.5096	-4.848600	0.000415	4.154789	1.407681	-0.000166
1044	1.0378e+02	-1.5593	-4.961640	0.000284	2.837417	0.961343	-0.000114
1045	1.0388e+02	-1.5898	-5.086791	0.000314	3.141426	1.064344	-0.000126
1046	1.0398e+02	-1.6235	-5.207905	0.000304	3.040090	1.030010	-0.000122
1047	1.0408e+02	-1.6748	-5.365353	0.000395	3.952117	1.339013	-0.000158
1048	1.0418e+02	-1.7037	-5.425910	0.000152	1.520045	0.515005	-0.000061
1049	1.0428e+02	-1.7518	-5.575284	0.000375	3.749444	1.270346	-0.000150
1050	1.0438e+02	-1.7839	-5.684287	0.000274	2.736081	0.927009	-0.000110
1051	1.0447e+02	-1.8368	-5.821550	0.000345	3.445435	1.167345	-0.000138
1052	1.0457e+02	-1.8689	-5.906330	0.000213	2.128063	0.721007	-0.000085
1053	1.0467e+02	-1.9090	-6.079926	0.000436	4.357462	1.476348	-0.000174
1054	1.0477e+02	-1.9540	-6.201040	0.000304	3.040090	1.030010	-0.000122
1055	1.0487e+02	-1.9796	-6.285820	0.000213	2.128063	0.721007	-0.000085
1056	1.0497e+02	-2.0278	-6.443269	0.000395	3.952117	1.339013	-0.000158
1057	1.0507e+02	-2.0759	-6.507863	0.000162	1.621381	0.549339	-0.000065
1058	1.0517e+02	-2.1176	-6.633014	0.000314	3.141426	1.064344	-0.000126
1059	1.0527e+02	-2.1481	-6.754128	0.000304	3.040090	1.030010	-0.000122
1060	1.0537e+02	-2.1866	-6.887354	0.000334	3.344099	1.133011	-0.000134
1061	1.0547e+02	-2.2347	-6.992319	0.000263	2.634744	0.892676	-0.000105
1062	1.0557e+02	-2.2700	-7.105359	0.000284	2.837417	0.961343	-0.000114
1063	1.0567e+02	-2.3101	-7.214362	0.000274	2.736081	0.927009	-0.000110
1064	1.0577e+02	-2.3550	-7.339513	0.000314	3.141426	1.064344	-0.000126
1065	1.0587e+02	-2.3935	-7.468701	0.000324	3.242762	1.098678	-0.000130
1066	1.0597e+02	-2.4368	-7.597889	0.000324	3.242762	1.098678	-0.000130
1067	1.0607e+02	-2.4689	-7.739189	0.000355	3.546771	1.201679	-0.000142
1068	1.0617e+02	-2.5074	-7.856266	0.000294	2.938753	0.995677	-0.000118
1069	1.0627e+02	-2.5475	-7.932972	0.000193	1.925390	0.652340	-0.000077
1070	1.0637e+02	-2.5892	-8.046012	0.000284	2.837417	0.961343	-0.000114
1071	1.0647e+02	-2.6197	-8.207497	0.000405	4.053453	1.373347	-0.000162
1072	1.0656e+02	-2.6662	-8.276128	0.000172	1.722717	0.583672	-0.000069
1073	1.0666e+02	-2.7160	-8.425502	0.000375	3.749444	1.270346	-0.000150
1074	1.0676e+02	-2.7577	-8.542579	0.000294	2.938753	0.995677	-0.000118
1075	1.0686e+02	-2.7785	-8.611211	0.000172	1.722717	0.583672	-0.000069
1076	1.0696e+02	-2.8251	-8.764622	0.000385	3.850780	1.304680	-0.000154
1077	1.0706e+02	-2.8716	-8.853439	0.000223	2.229399	0.755341	-0.000089
1078	1.0716e+02	-2.9053	-9.014924	0.000405	4.053453	1.373347	-0.000162
1079	1.0726e+02	-2.9454	-9.095667	0.000203	2.026726	0.686674	-0.000081
1080	1.0736e+02	-2.9871	-9.196595	0.000253	2.533408	0.858342	-0.000101
1081	1.0746e+02	-3.0320	-9.297524	0.000253	2.533408	0.858342	-0.000101
1082	1.0756e+02	-3.0721	-9.442860	0.000365	3.648108	1.236012	-0.000146
1083	1.0766e+02	-3.1058	-9.559937	0.000294	2.938753	0.995677	-0.000118
1084	1.0776e+02	-3.1363	-9.672977	0.000284	2.837417	0.961343	-0.000114
1085	1.0786e+02	-3.1956	-9.773906	0.000253	2.533408	0.858342	-0.000101
1086	1.0796e+02	-3.2293	-9.939428	0.000415	4.154789	1.407681	-0.000166
1087	1.0806e+02	-3.2614	-10.040357	0.000253	2.533408	0.858342	-0.000101
1088	1.0816e+02	-3.3143	-10.141285	0.000253	2.533408	0.858342	-0.000101
1089	1.0826e+02	-3.3448	-10.282585	0.000355	3.546771	1.201679	-0.000142
1090	1.0836e+02	-3.3849	-10.387550	0.000263	2.634744	0.892676	-0.000105
1091	1.0845e+02	-3.4331	-10.500590	0.000284	2.837417	0.961343	-0.000114
1092	1.0855e+02	-3.4651	-10.601518	0.000253	2.533408	0.858342	-0.000101
1093	1.0865e+02	-3.5036	-10.779152	0.000446	4.458798	1.510682	-0.000179
1094	1.0875e+02	-3.5454	-10.880081	0.000253	2.533408	0.858342	-0.000101
1095	1.0885e+02	-3.5742	-10.948712	0.000172	1.722717	0.583672	-0.000069
1096	1.0895e+02	-3.6159	-11.094049	0.000365	3.648108	1.236012	-0.000146
1097	1.0905e+02	-3.6657	-11.194977	0.000253	2.533408	0.858342	-0.000101
1098	1.0915e+02	-3.7026	-11.336277	0.000355	3.546771	1.201679	-0.000142
1099	1.0925e+02	-3.7459	-11.441243	0.000263	2.634744	0.892676	-0.000105
1100	1.0935e+02	-3.7860	-11.550245	0.000274	2.736081	0.927009	-0.000110
1101	1.0945e+02	-3.8229	-11.683471	0.000334	3.344099	1.133011	-0.000134
1102	1.0955e+02	-3.8566	-11.776325	0.000233	2.330735	0.789675	-0.000093
1103	1.0965e+02	-3.9127	-11.905513	0.000324	3.242762	1.098678	-0.000130
1104	1.0975e+02	-3.9432	-11.990293	0.000213	2.128063	0.721007	-0.000085
1105	1.0985e+02	-3.9801	-12.163890	0.000436	4.357462	1.476348	-0.000174
1106	1.0995e+02	-4.0250	-12.317301	0.000385	3.850780	1.304680	-0.000154
1107	1.1005e+02	-4.0571	-12.406118	0.000223	2.229399	0.755341	-0.000089
1108	1.1015e+02	-4.0956	-12.515121	0.000274	2.736081	0.927009	-0.000110
1109	1.1025e+02	-4.1518	-12.591826	0.000193	1.925390	0.652340	-0.000077
1110	1.1035e+02	-4.1903	-12.733126	0.000355	3.546771	1.201679	-0.000142
1111	1.1044e+02	-4.2111	-12.825980	0.000233	2.330735	0.789675	-0.000093
1112	1.1054e+02	-4.2641	-12.914797	0.000223	2.229399	0.755341	-0.000089
1113	1.1064e+02	-4.2993	-13.060134	0.000365	3.648108	1.236012	-0.000146
1114	1.1074e+02	-4.3443	-13.177211	0.000294	2.938753	0.995677	-0.000118
1115	1.1084e+02	-4.3780	-13.306399	0.000324	3.242762	1.098678	-0.000130
1116	1.1094e+02	-4.4261	-13.411365	0.000263	2.634744	0.892676	-0.000105
1117	1.1104e+02	-4.4582	-13.548628	0.000345	3.445435	1.167345	-0.000138
1118	1.1114e+02	-4.5063	-13.625333	0.000193	1.925390	0.652340	-0.000077
1119	1.1124e+02	-4.5432	-13.750484	0.000314	3.141426	1.064344	-0.000126
1120	1.1134e+02	-4.5785	-13.879673	0.000324	3.242762	1.098678	-0.000130
1121	1.1144e+02	-4.6154	-13.956378	0.000193	1.925390	0.652340	-0.000077
1122	1.1154e+02	-4.6539	-14.134012	0.000446	4.458798	1.510682	-0.000179
1123	1.1164e+02	-4.6956	-14.218792	0.000213	2.128063	0.721007	-0.000085
1124	1.1174e+02	-4.7437	-14.343943	0.000314	3.141426	1.064344	-0.000126
1125	1.1184e+02	-4.7838	-14.461020	0.000294	2.938753	0.995677	-0.000118
1126	1.1194e+02	-4.8207	-14.606357	0.000365	3.648108	1.236012	-0.000146
1127	1.1204e+02	-4.8592	-14.683063	0.000193	1.925390	0.652340	-0.000077
1128	1.1214e+02	-4.9025	-14.816288	0.000334	3.344099	1.133011	-0.000134
1129	1.1224e+02	-4.9442	-14.957588	0.000355	3.546771	1.201679	-0.000142
1130	1.1234e+02	-4.9795	-15.034293	0.000193	1.925390	0.652340	-0.000077
1131	1.1244e+02	-5.0180	-15.175593	0.000355	3.546771	1.201679	-0.000142
1132	1.1253e+02	-5.0598	-15.268447	0.000233	2.330735	0.789675	-0.000093
1133	1.1263e+02	-5.1031	-15.393599	0.000314	3.141426	1.064344	-0.000126
1134	1.1273e+02	-5.1416	-15.498564	0.000263	2.634744	0.892676	-0.000105
1135	1.1283e+02	-5.1785	-15.660050	0.000405	4.053453	1.373347	-0.000162
1136	1.1293e+02	-5.2122	-15.732718	0.000182	1.824054	0.618006	-0.000073
1137	1.1303e+02	-5.2683	-15.853832	0.000304	3.040090	1.030010	-0.000122
1138	1.1313e+02	-5.3020	-15.978983	0.000314	3.141426	1.064344	-0.000126
1139	1.1323e+02	-5.3373	-16.112209	0.000334	3.344099	1.133011	-0.000134
1140	1.1333e+02	-5.3710	-16.221211	0.000274	2.736081	0.927009	-0.000110
1141	1.1343e+02	-5.4223	-16.310028	0.000223	2.229399	0.755341	-0.000089
1142	1.1353e+02	-5.4528	-16.406920	0.000243	2.432072	0.824008	-0.000097
1143	1.1363e+02	-5.5009	-16.576479	0.000426	4.256126	1.442014	-0.000170
1144	1.1373e+02	-5.5346	-16.649148	0.000182	1.824054	0.618006	-0.000073
1145	1.1383e+02	-5.5747	-16.818707	0.000426	4.256126	1.442014	-0.000170
1146	1.1393e+02	-5.6164	-16.915599	0.000243	2.432072	0.824008	-0.000097
1147	1.1403e+02	-5.6597	-17.028639	0.000284	2.837417	0.961343	-0.000114
1148	1.1413e+02	-5.6902	-17.145715	0.000294	2.938753	0.995677	-0.000118
1149	1.1423e+02	-5.7351	-17.282978	0.000345	3.445435	1.167345	-0.000138
1150	1.1433e+02	-5.7672	-17.363721	0.000203	2.026726	0.686674	-0.000081
1151	1.1442e+02	-5.8089	-17.472723	0.000274	2.736081	0.927009	-0.000110
1152	1.1452e+02	-5.8554	-17.609986	0.000345	3.445435	1.167345	-0.000138
1153	1.1462e+02	-5.9004	-17.759360	0.000375	3.749444	1.270346	-0.000150
1154	1.1472e+02	-5.9276	-17.807806	0.000122	1.216036	0.412004	-0.000049
1155	1.1482e+02	-5.9758	-17.932957	0.000314	3.141426	1.064344	-0.000126
1156	1.1492e+02	-6.0111	-18.070220	0.000345	3.445435	1.167345	-0.000138
1157	1.1502e+02	-6.0544	-18.187296	0.000294	2.938753	0.995677	-0.000118
1158	1.1512e+02	-6.0929	-18.332633	0.000365	3.648108	1.236012	-0.000146
1159	1.1522e+02	-6.1282	-18.437599	0.000263	2.634744	0.892676	-0.000105
1160	1.1532e+02	-6.1667	-18.526416	0.000223	2.229399	0.755341	-0.000089
1161	1.1542e+02	-6.2196	-18.651567	0.000314	3.141426	1.064344	-0.000126
1162	1.1552e+02	-6.2485	-18.768644	0.000294	2.938753	0.995677	-0.000118
1163	1.1562e+02	-6.2886	-18.881684	0.000284	2.837417	0.961343	-0.000114
1164	1.1572e+02	-6.3335	-18.994724	0.000284	2.837417	0.961343	-0.000114
1165	1.1582e+02	-6.3800	-19.119875	0.000314	3.141426	1.064344	-0.000126
1166	1.1592e+02	-6.4153	-19.245026	0.000314	3.141426	1.064344	-0.000126
1167	1.1602e+02	-6.4490	-19.313657	0.000172	1.722717	0.583672	-0.000069
1168	1.1612e+02	-6.4875	-19.479180	0.000415	4.154789	1.407681	-0.000166
1169	1.1622e+02	-6.5260	-19.604331	0.000314	3.141426	1.064344	-0.000126
1170	1.1632e+02	-6.5613	-19.713334	0.000274	2.736081	0.927009	-0.000110
1171	1.1642e+02	-6.6110	-19.810225	0.000243	2.432072	0.824008	-0.000097
1172	1.1651e+02	-6.6447	-19.943451	0.000334	3.344099	1.133011	-0.000134
1173	1.1661e+02	-6.6913	-20.024193	0.000203	2.026726	0.686674	-0.000081
1174	1.1671e+02	-6.7282	-20.129159	0.000263	2.634744	0.892676	-0.000105
1175	1.1681e+02	-6.7747	-20.262384	0.000334	3.344099	1.133011	-0.000134
1176	1.1691e+02	-6.8116	-20.371387	0.000274	2.736081	0.927009	-0.000110
1177	1.1701e+02	-6.8453	-20.480390	0.000274	2.736081	0.927009	-0.000110
1178	1.1711e+02	-6.8870	-20.641875	0.000405	4.053453	1.373347	-0.000162
1179	1.1721e+02	-6.9255	-20.730692	0.000223	2.229399	0.755341	-0.000089
1180	1.1731e+02	-6.9768	-20.847769	0.000294	2.938753	0.995677	-0.000118
1181	1.1741e+02	-7.0105	-20.956772	0.000274	2.736081	0.927009	-0.000110
1182	1.1751e+02	-7.0458	-21.110183	0.000385	3.850780	1.304680	-0.000154
1183	1.1761e+02	-7.0923	-21.178814	0.000172	1.722717	0.583672	-0.000069
1184	1.1771e+02	-7.1212	-21.328188	0.000375	3.749444	1.270346	-0.000150
1185	1.1781e+02	-7.1677	-21.437191	0.000274	2.736081	0.927009	-0.000110
1186	1.1791e+02	-7.2078	-21.526008	0.000223	2.229399	0.755341	-0.000089
1187	1.1801e+02	-7.2479	-21.630973	0.000263	2.634744	0.892676	-0.000105
1188	1.1811e+02	-7.2944	-21.748050	0.000294	2.938753	0.995677	-0.000118
1189	1.1821e+02	-7.3281	-21.857053	0.000274	2.736081	0.927009	-0.000110
1190	1.1831e+02	-7.3634	-21.978167	0.000304	3.040090	1.030010	-0.000122
1191	1.1841e+02	-7.3955	-22.095244	0.000294	2.938753	0.995677	-0.000118
1192	1.1850e+02	-7.4452	-22.216358	0.000304	3.040090	1.030010	-0.000122
1193	1.1860e+02	-7.4966	-22.341509	0.000314	3.141426	1.064344	-0.000126
1194	1.1870e+02	-7.5222	-22.402066	0.000152	1.520045	0.515005	-0.000061
1195	1.1880e+02	-7.5688	-22.531255	0.000324	3.242762	1.098678	-0.000130
1196	1.1890e+02	-7.6057	-22.652369	0.000304	3.040090	1.030010	-0.000122
1197	1.1900e+02	-7.6410	-22.785594	0.000334	3.344099	1.133011	-0.000134
1198	1.1910e+02	-7.6891	-22.854225	0.000172	1.722717	0.583672	-0.000069
1199	1.1920e+02	-7.7244	-22.991488	0.000345	3.445435	1.167345	-0.000138
1200	1.1930e+02	-7.7741	-23.124714	0.000334	3.344099	1.133011	-0.000134
1201	1.1940e+02	-7.8094	-23.201419	0.000193	1.925390	0.652340	-0.000077
1202	1.1950e+02	-7.8415	-23.338682	0.000345	3.445435	1.167345	-0.000138
1203	1.1960e+02	-7.8880	-23.459796	0.000304	3.040090	1.030010	-0.000122
1204	1.1970e+02	-7.9265	-23.572836	0.000284	2.837417	0.961343	-0.000114
1205	1.1980e+02	-7.9666	-23.685875	0.000284	2.837417	0.961343	-0.000114
1206	1.1990e+02	-7.9955	-23.742395	0.000142	1.418709	0.480671	-0.000057
1207	1.2000e+02	-8.0468	-23.903881	0.000405	4.053453	1.373347	-0.000162
1208	1.2010e+02	-8.0805	-23.988661	0.000213	2.128063	0.721007	-0.000085
1209	1.2020e+02	-8.1303	-24.138035	0.000375	3.749444	1.270346	-0.000150
1210	1.2030e+02	-8.1575	-24.218777	0.000203	2.026726	0.686674	-0.000081
1211	1.2039e+02	-8.2105	-24.335854	0.000294	2.938753	0.995677	-0.000118
1212	1.2049e+02	-8.2393	-24.444857	0.000274	2.736081	0.927009	-0.000110
1213	1.2059e+02	-8.2827	-24.549822	0.000263	2.634744	0.892676	-0.000105
1214	1.2069e+02	-8.3131	-24.650751	0.000253	2.533408	0.858342	-0.000101
1215	1.2079e+02	-8.3645	-24.792051	0.000355	3.546771	1.201679	-0.000142
1216	1.2089e+02	-8.4062	-24.864719	0.000182	1.824054	0.618006	-0.000073
1217	1.2099e+02	-8.4495	-24.977759	0.000284	2.837417	0.961343	-0.000114
1218	1.2109e+02	-8.4816	-25.106947	0.000324	3.242762	1.098678	-0.000130
1219	1.2119e+02	-8.5169	-25.224024	0.000294	2.938753	0.995677	-0.000118
1220	1.2129e+02	-8.5698	-25.324952	0.000253	2.533408	0.858342	-0.000101
1221	1.2139e+02	-8.6019	-25.429918	0.000263	2.634744	0.892676	-0.000105
1222	1.2149e+02	-8.6356	-25.506624	0.000193	1.925390	0.652340	-0.000077
1223	1.2159e+02	-8.6741	-25.591403	0.000213	2.128063	0.721007	-0.000085
1224	1.2169e+02	-8.7190	-25.736740	0.000365	3.648108	1.236012	-0.000146
1225	1.2179e+02	-8.7527	-25.902263	0.000415	4.154789	1.407681	-0.000166
1226	1.2189e+02	-8.8024	-25.954746	0.000132	1.317372	0.446338	-0.000053
1227	1.2199e+02	-8.8393	-26.059711	0.000263	2.634744	0.892676	-0.000105
1228	1.2209e+02	-8.8810	-26.201011	0.000355	3.546771	1.201679	-0.000142
1229	1.2219e+02	-8.9227	-26.277717	0.000193	1.925390	0.652340	-0.000077
1230	1.2229e+02	-8.9677	-26.382682	0.000263	2.634744	0.892676	-0.000105
1231	1.2239e+02	-9.0030	-26.471499	0.000223	2.229399	0.755341	-0.000089
1232	1.2248e+02	-9.0382	-26.604725	0.000334	3.344099	1.133011	-0.000134
1233	1.2258e+02	-9.0767	-26.725839	0.000304	3.040090	1.030010	-0.000122
1234	1.2268e+02	-9.1217	-26.810618	0.000213	2.128063	0.721007	-0.000085
1235	1.2278e+02	-9.1602	-26.955955	0.000365	3.648108	1.236012	-0.000146
1236	1.2288e+02	-9.1955	-27.032661	0.000193	1.925390	0.652340	-0.000077
1237	1.2298e+02	-9.2484	-27.153775	0.000304	3.040090	1.030010	-0.000122
1238	1.2308e+02	-9.2773	-27.230481	0.000193	1.925390	0.652340	-0.000077
1239	1.2318e+02	-9.3270	-27.371780	0.000355	3.546771	1.201679	-0.000142
1240	1.2328e+02	-9.3575	-27.460597	0.000223	2.229399	0.755341	-0.000089
1241	1.2338e+02	-9.3992	-27.573637	0.000284	2.837417	0.961343	-0.000114
1242	1.2348e+02	-9.4377	-27.686677	0.000284	2.837417	0.961343	-0.000114
1243	1.2358e+02	-9.4842	-27.775494	0.000223	2.229399	0.755341	-0.000089
1244	1.2368e+02	-9.5211	-27.872385	0.000243	2.432072	0.824008	-0.000097
1245	1.2378e+02	-9.5580	-27.949091	0.000193	1.925390	0.652340	-0.000077
1246	1.2388e+02	-9.6045	-28.090390	0.000355	3.546771	1.201679	-0.000142
1247	1.2398e+02	-9.6318	-28.179207	0.000223	2.229399	0.755341	-0.000089
1248	1.2408e+02	-9.6783	-28.344730	0.000415	4.154789	1.407681	-0.000166
1249	1.2418e+02	-9.7249	-28.401250	0.000142	1.418709	0.480671	-0.000057
1250	1.2428e+02	-9.7602	-28.506215	0.000263	2.634744	0.892676	-0.000105
1251	1.2438e+02	-9.7987	-28.623292	0.000294	2.938753	0.995677	-0.000118
1252	1.2447e+02	-9.8356	-28.704035	0.000203	2.026726	0.686674	-0.000081
1253	1.2457e+02	-9.8741	-28.817075	0.000284	2.837417	0.961343	-0.000114
1254	1.2467e+02	-9.9142	-28.934152	0.000294	2.938753	0.995677	-0.000118
1255	1.2477e+02	-9.9575	-29.039117	0.000263	2.634744	0.892676	-0.000105
1256	1.2487e+02	-9.9896	-29.160231	0.000304	3.040090	1.030010	-0.000122
1257	1.2497e+02	-10.0425	-29.249048	0.000223	2.229399	0.755341	-0.000089
1258	1.2507e+02	-10.0826	-29.370162	0.000304	3.040090	1.030010	-0.000122
1259	1.2517e+02	-10.1195	-29.438794	0.000172	1.722717	0.583672	-0.000069
1260	1.2527e+02	-10.1628	-29.592205	0.000385	3.850780	1.304680	-0.000154
1261	1.2537e+02	-10.1933	-29.668911	0.000193	1.925390	0.652340	-0.000077
1262	1.2547e+02	-10.2270	-29.757728	0.000223	2.229399	0.755341	-0.000089
1263	1.2557e+02	-10.2783	-29.899027	0.000355	3.546771	1.201679	-0.000142
1264	1.2567e+02	-10.3072	-30.024178	0.000314	3.141426	1.064344	-0.000126
1265	1.2577e+02	-10.3569	-30.121070	0.000243	2.432072	0.824008	-0.000097
1266	1.2587e+02	-10.3938	-30.169515	0.000122	1.216036	0.412004	-0.000049
1267	1.2597e+02	-10.4355	-30.294667	0.000314	3.141426	1.064344	-0.000126
1268	1.2607e+02	-10.4724	-30.423855	0.000324	3.242762	1.098678	-0.000130
1269	1.2617e+02	-10.5109	-30.536895	0.000284	2.837417	0.961343	-0.000114
1270	1.2627e+02	-10.5510	-30.585340	0.000122	1.216036	0.412004	-0.000049
1271	1.2636e+02	-10.5976	-30.706454	0.000304	3.040090	1.030010	-0.000122
1272	1.2646e+02	-10.6361	-30.847754	0.000355	3.546771	1.201679	-0.000142
1273	1.2656e+02	-10.6746	-30.940608	0.000233	2.330735	0.789675	-0.000093
1274	1.2666e+02	-10.7050	-31.033462	0.000233	2.330735	0.789675	-0.000093
1275	1.2676e+02	-10.7564	-31.138428	0.000263	2.634744	0.892676	-0.000105
1276	1.2686e+02	-10.7965	-31.223208	0.000213	2.128063	0.721007	-0.000085
1277	1.2696e+02	-10.8270	-31.324136	0.000253	2.533408	0.858342	-0.000101
1278	1.2706e+02	-10.8719	-31.416990	0.000233	2.330735	0.789675	-0.000093
1279	1.2716e+02	-10.9056	-31.578476	0.000405	4.053453	1.373347	-0.000162
1280	1.2726e+02	-10.9537	-31.659218	0.000203	2.026726	0.686674	-0.000081
1281	1.2736e+02	-10.9938	-31.776295	0.000294	2.938753	0.995677	-0.000118
1282	1.2746e+02	-11.0339	-31.840890	0.000162	1.621381	0.549339	-0.000065
1283	1.2756e+02	-11.0692	-31.937781	0.000243	2.432072	0.824008	-0.000097
1284	1.2766e+02	-11.1093	-32.066969	0.000324	3.242762	1.098678	-0.000130
1285	1.2776e+02	-11.1558	-32.163860	0.000243	2.432072	0.824008	-0.000097
1286	1.2786e+02	-11.1847	-32.284974	0.000304	3.040090	1.030010	-0.000122
1287	1.2796e+02	-11.2360	-32.381866	0.000243	2.432072	0.824008	-0.000097
1288	1.2806e+02	-11.2681	-32.466646	0.000213	2.128063	0.721007	-0.000085
1289	1.2816e+02	-11.3179	-32.567574	0.000253	2.533408	0.858342	-0.000101
1290	1.2826e+02	-11.3548	-32.676577	0.000274	2.736081	0.927009	-0.000110
1291	1.2835e+02	-11.3868	-32.769431	0.000233	2.330735	0.789675	-0.000093
1292	1.2845e+02	-11.4270	-32.862285	0.000233	2.330735	0.789675	-0.000093
1293	1.2855e+02	-11.4735	-32.987436	0.000314	3.141426	1.064344	-0.000126
1294	1.2865e+02	-11.5120	-33.116624	0.000324	3.242762	1.098678	-0.000130
1295	1.2875e+02	-11.5537	-33.193330	0.000193	1.925390	0.652340	-0.000077
1296	1.2885e+02	-11.5970	-33.310407	0.000294	2.938753	0.995677	-0.000118
1297	1.2895e+02	-11.6307	-33.423447	0.000284	2.837417	0.961343	-0.000114
1298	1.2905e+02	-11.6612	-33.524375	0.000253	2.533408	0.858342	-0.000101
1299	1.2915e+02	-11.7125	-33.609155	0.000213	2.128063	0.721007	-0.000085
1300	1.2925e+02	-11.7430	-33.714121	0.000263	2.634744	0.892676	-0.000105
1301	1.2935e+02	-11.7943	-33.819086	0.000263	2.634744	0.892676	-0.000105
1302	1.2945e+02	-11.8264	-33.924052	0.000263	2.634744	0.892676	-0.000105
1303	1.2955e+02	-11.8569	-34.037091	0.000284	2.837417	0.961343	-0.000114
1304	1.2965e+02	-11.9066	-34.154168	0.000294	2.938753	0.995677	-0.000118
1305	1.2975e+02	-11.9403	-34.251060	0.000243	2.432072	0.824008	-0.000097
1306	1.2985e+02	-11.9997	-34.335839	0.000213	2.128063	0.721007	-0.000085
1307	1.2995e+02	-12.0350	-34.452916	0.000294	2.938753	0.995677	-0.000118
1308	1.3005e+02	-12.0686	-34.537696	0.000213	2.128063	0.721007	-0.000085
1309	1.3015e+02	-12.1007	-34.678996	0.000355	3.546771	1.201679	-0.000142
1310	1.3025e+02	-12.1553	-34.775887	0.000243	2.432072	0.824008	-0.000097
1311	1.3034e+02	-12.1858	-34.836444	0.000152	1.520045	0.515005	-0.000061
1312	1.3044e+02	-12.2307	-34.961595	0.000314	3.141426	1.064344	-0.000126
1313	1.3054e+02	-12.2692	-35.106932	0.000365	3.648108	1.236012	-0.000146
1314	1.3064e+02	-12.2980	-35.163452	0.000142	1.418709	0.480671	-0.000057
1315	1.3074e+02	-12.3398	-35.272455	0.000274	2.736081	0.927009	-0.000110
1316	1.3084e+02	-12.3911	-35.377420	0.000263	2.634744	0.892676	-0.000105
1317	1.3094e+02	-12.4296	-35.458163	0.000203	2.026726	0.686674	-0.000081
1318	1.3104e+02	-12.4697	-35.583314	0.000314	3.141426	1.064344	-0.000126
1319	1.3114e+02	-12.5146	-35.700391	0.000294	2.938753	0.995677	-0.000118
1320	1.3124e+02	-12.5467	-35.801320	0.000253	2.533408	0.858342	-0.000101
1321	1.3134e+02	-12.5900	-35.890137	0.000223	2.229399	0.755341	-0.000089
1322	1.3144e+02	-12.6333	-35.991065	0.000253	2.533408	0.858342	-0.000101
1323	1.3154e+02	-12.6686	-36.148513	0.000395	3.952117	1.339013	-0.000158
1324	1.3164e+02	-12.7087	-36.233293	0.000213	2.128063	0.721007	-0.000085
1325	1.3174e+02	-12.7569	-36.334222	0.000253	2.533408	0.858342	-0.000101
1326	1.3184e+02	-12.7825	-36.406890	0.000182	1.824054	0.618006	-0.000073
1327	1.3194e+02	-12.8226	-36.532041	0.000314	3.141426	1.064344	-0.000126
1328	1.3204e+02	-12.8676	-36.624895	0.000233	2.330735	0.789675	-0.000093
1329	1.3214e+02	-12.9093	-36.713712	0.000223	2.229399	0.755341	-0.000089
1330	1.3224e+02	-12.9430	-36.842901	0.000324	3.242762	1.098678	-0.000130
1331	1.3234e+02	-12.9847	-36.955941	0.000284	2.837417	0.961343	-0.000114
1332	1.3243e+02	-13.0264	-37.032646	0.000193	1.925390	0.652340	-0.000077
1333	1.3253e+02	-13.0601	-37.153760	0.000304	3.040090	1.030010	-0.000122
1334	1.3263e+02	-13.1018	-37.274874	0.000304	3.040090	1.030010	-0.000122
1335	1.3273e+02	-13.1371	-37.383877	0.000274	2.736081	0.927009	-0.000110
1336	1.3283e+02	-13.1740	-37.452508	0.000172	1.722717	0.583672	-0.000069
1337	1.3293e+02	-13.2285	-37.573622	0.000304	3.040090	1.030010	-0.000122
1338	1.3303e+02	-13.2654	-37.654365	0.000203	2.026726	0.686674	-0.000081
1339	1.3313e+02	-13.2943	-37.767405	0.000284	2.837417	0.961343	-0.000114
1340	1.3323e+02	-13.3424	-37.896593	0.000324	3.242762	1.098678	-0.000130
1341	1.3333e+02	-13.3857	-37.989447	0.000233	2.330735	0.789675	-0.000093
1342	1.3343e+02	-13.4194	-38.110561	0.000304	3.040090	1.030010	-0.000122
1343	1.3353e+02	-13.4659	-38.183230	0.000182	1.824054	0.618006	-0.000073
1344	1.3363e+02	-13.4932	-38.259935	0.000193	1.925390	0.652340	-0.000077
1345	1.3373e+02	-13.5381	-38.393161	0.000334	3.344099	1.133011	-0.000134
1346	1.3383e+02	-13.5766	-38.473904	0.000203	2.026726	0.686674	-0.000081
1347	1.3393e+02	-13.6199	-38.562721	0.000223	2.229399	0.755341	-0.000089
1348	1.3403e+02	-13.6665	-38.671723	0.000274	2.736081	0.927009	-0.000110
1349	1.3413e+02	-13.7050	-38.756503	0.000213	2.128063	0.721007	-0.000085
1350	1.3423e+02	-13.7370	-38.857431	0.000253	2.533408	0.858342	-0.000101
1351	1.3432e+02	-13.7820	-38.994694	0.000345	3.445435	1.167345	-0.000138
1352	1.3442e+02	-13.8237	-39.067363	0.000182	1.824054	0.618006	-0.000073
1353	1.3452e+02	-13.8654	-39.135994	0.000172	1.722717	0.583672	-0.000069
1354	1.3462e+02	-13.8959	-39.285368	0.000375	3.749444	1.270346	-0.000150
1355	1.3472e+02	-13.9376	-39.370148	0.000213	2.128063	0.721007	-0.000085
1356	1.3482e+02	-13.9793	-39.479150	0.000274	2.736081	0.927009	-0.000110
1357	1.3492e+02	-14.0114	-39.604302	0.000314	3.141426	1.064344	-0.000126
1358	1.3502e+02	-14.0659	-39.681007	0.000193	1.925390	0.652340	-0.000077
1359	1.3512e+02	-14.1092	-39.773861	0.000233	2.330735	0.789675	-0.000093
1360	1.3522e+02	-14.1381	-39.899012	0.000314	3.141426	1.064344	-0.000126
1361	1.3532e+02	-14.1750	-40.020127	0.000304	3.040090	1.030010	-0.000122
1362	1.3542e+02	-14.2135	-40.072609	0.000132	1.317372	0.446338	-0.000053
1363	1.3552e+02	-14.2632	-40.213909	0.000355	3.546771	1.201679	-0.000142
1364	1.3562e+02	-14.2953	-40.314837	0.000253	2.533408	0.858342	-0.000101
1365	1.3572e+02	-14.3402	-40.415766	0.000253	2.533408	0.858342	-0.000101
1366	1.3582e+02	-14.3755	-40.472286	0.000142	1.418709	0.480671	-0.000057
1367	1.3592e+02	-14.4204	-40.577251	0.000263	2.634744	0.892676	-0.000105
1368	1.3602e+02	-14.4541	-40.706440	0.000324	3.242762	1.098678	-0.000130
1369	1.3612e+02	-14.5007	-40.799294	0.000233	2.330735	0.789675	-0.000093
1370	1.3622e+02	-14.5295	-40.880036	0.000203	2.026726	0.686674	-0.000081
1371	1.3631e+02	-14.5793	-40.993076	0.000284	2.837417	0.961343	-0.000114
1372	1.3641e+02	-14.6114	-41.110153	0.000294	2.938753	0.995677	-0.000118
1373	1.3651e+02	-14.6547	-41.219156	0.000274	2.736081	0.927009	-0.000110
1374	1.3661e+02	-14.6916	-41.303936	0.000213	2.128063	0.721007	-0.000085
1375	1.3671e+02	-14.7461	-41.364493	0.000152	1.520045	0.515005	-0.000061
1376	1.3681e+02	-14.7798	-41.473495	0.000274	2.736081	0.927009	-0.000110
1377	1.3691e+02	-14.8183	-41.558275	0.000213	2.128063	0.721007	-0.000085
1378	1.3701e+02	-14.8568	-41.695538	0.000345	3.445435	1.167345	-0.000138
1379	1.3711e+02	-14.8969	-41.816652	0.000304	3.040090	1.030010	-0.000122
1380	1.3721e+02	-14.9418	-41.857023	0.000101	1.013363	0.343337	-0.000041
1381	1.3731e+02	-14.9755	-41.978137	0.000304	3.040090	1.030010	-0.000122
1382	1.3741e+02	-15.0188	-42.066954	0.000223	2.229399	0.755341	-0.000089
1383	1.3751e+02	-15.0477	-42.188068	0.000304	3.040090	1.030010	-0.000122
1384	1.3761e+02	-15.0942	-42.256700	0.000172	1.722717	0.583672	-0.000069
1385	1.3771e+02	-15.1359	-42.389925	0.000334	3.344099	1.133011	-0.000134
1386	1.3781e+02	-15.1728	-42.462594	0.000182	1.824054	0.618006	-0.000073
1387	1.3791e+02	-15.2113	-42.575633	0.000284	2.837417	0.961343	-0.000114
1388	1.3801e+02	-15.2546	-42.656376	0.000203	2.026726	0.686674	-0.000081
1389	1.3811e+02	-15.3028	-42.741156	0.000213	2.128063	0.721007	-0.000085
1390	1.3821e+02	-15.3397	-42.862270	0.000304	3.040090	1.030010	-0.000122
1391	1.3831e+02	-15.3878	-42.983384	0.000304	3.040090	1.030010	-0.000122
1392	1.3840e+02	-15.4087	-43.076238	0.000233	2.330735	0.789675	-0.000093
1393	1.3850e+02	-15.4536	-43.169092	0.000233	2.330735	0.789675	-0.000093
1394	1.3860e+02	-15.4905	-43.229649	0.000152	1.520045	0.515005	-0.000061
1395	1.3870e+02	-15.5354	-43.383061	0.000385	3.850780	1.304680	-0.000154
1396	1.3880e+02	-15.5803	-43.447655	0.000162	1.621381	0.549339	-0.000065
1397	1.3890e+02	-15.6140	-43.504175	0.000142	1.418709	0.480671	-0.000057
1398	1.3900e+02	-15.6525	-43.613177	0.000274	2.736081	0.927009	-0.000110
1399	1.3910e+02	-15.6894	-43.742366	0.000324	3.242762	1.098678	-0.000130
1400	1.3920e+02	-15.7391	-43.798886	0.000142	1.418709	0.480671	-0.000057
1401	1.3930e+02	-15.7648	-43.907888	0.000274	2.736081	0.927009	-0.000110
1402	1.3940e+02	-15.8097	-44.004780	0.000243	2.432072	0.824008	-0.000097
1403	1.3950e+02	-15.8482	-44.077448	0.000182	1.824054	0.618006	-0.000073
1404	1.3960e+02	-15.8963	-44.174339	0.000243	2.432072	0.824008	-0.000097
1405	1.3970e+02	-15.9300	-44.279305	0.000263	2.634744	0.892676	-0.000105
1406	1.3980e+02	-15.9685	-44.408493	0.000324	3.242762	1.098678	-0.000130
1407	1.3990e+02	-16.0151	-44.509422	0.000253	2.533408	0.858342	-0.000101
1408	1.4000e+02	-16.0568	-44.594201	0.000213	2.128063	0.721007	-0.000085
1409	1.4010e+02	-16.0905	-44.678981	0.000213	2.128063	0.721007	-0.000085
1410	1.4020e+02	-16.1322	-44.763761	0.000213	2.128063	0.721007	-0.000085
1411	1.4029e+02	-16.1659	-44.828355	0.000162	1.621381	0.549339	-0.000065
1412	1.4039e+02	-16.2156	-44.961581	0.000334	3.344099	1.133011	-0.000134
1413	1.4049e+02	-16.2541	-45.050398	0.000223	2.229399	0.755341	-0.000089
1414	1.4059e+02	-16.2926	-45.106918	0.000142	1.418709	0.480671	-0.000057
1415	1.4069e+02	-16.3375	-45.219957	0.000284	2.837417	0.961343	-0.000114
1416	1.4079e+02	-16.3760	-45.320886	0.000253	2.533408	0.858342	-0.000101
1417	1.4089e+02	-16.4129	-45.409703	0.000223	2.229399	0.755341	-0.000089
1418	1.4099e+02	-16.4498	-45.538891	0.000324	3.242762	1.098678	-0.000130
1419	1.4109e+02	-16.4979	-45.615597	0.000193	1.925390	0.652340	-0.000077
1420	1.4119e+02	-16.5348	-45.720562	0.000263	2.634744	0.892676	-0.000105
1421	1.4129e+02	-16.5685	-45.809379	0.000223	2.229399	0.755341	-0.000089
1422	1.4139e+02	-16.6134	-45.922419	0.000284	2.837417	0.961343	-0.000114
1423	1.4149e+02	-16.6487	-45.991050	0.000172	1.722717	0.583672	-0.000069
1424	1.4159e+02	-16.6824	-46.035459	0.000111	1.114700	0.377670	-0.000045
1425	1.4169e+02	-16.7273	-46.200981	0.000415	4.154789	1.407681	-0.000166
1426	1.4179e+02	-16.7723	-46.277687	0.000193	1.925390	0.652340	-0.000077
1427	1.4189e+02	-16.8156	-46.394764	0.000294	2.938753	0.995677	-0.000118
1428	1.4199e+02	-16.8348	-46.447247	0.000132	1.317372	0.446338	-0.000053
1429	1.4209e+02	-16.8829	-46.576435	0.000324	3.242762	1.098678	-0.000130
1430	1.4219e+02	-16.9214	-46.673326	0.000243	2.432072	0.824008	-0.000097
1431	1.4228e+02	-16.9744	-46.762143	0.000223	2.229399	0.755341	-0.000089
1432	1.4238e+02	-17.0161	-46.818663	0.000142	1.418709	0.480671	-0.000057
1433	1.4248e+02	-17.0482	-46.947851	0.000324	3.242762	1.098678	-0.000130
1434	1.4258e+02	-17.0803	-47.056854	0.000274	2.736081	0.927009	-0.000110
1435	1.4268e+02	-17.1348	-47.165857	0.000274	2.736081	0.927009	-0.000110
1436	1.4278e+02	-17.1701	-47.246600	0.000203	2.026726	0.686674	-0.000081
1437	1.4288e+02	-17.2150	-47.327342	0.000203	2.026726	0.686674	-0.000081
1438	1.4298e+02	-17.2503	-47.468642	0.000355	3.546771	1.201679	-0.000142
1439	1.4308e+02	-17.2936	-47.553422	0.000213	2.128063	0.721007	-0.000085
1440	1.4318e+02	-17.3289	-47.630127	0.000193	1.925390	0.652340	-0.000077
1441	1.4328e+02	-17.3658	-47.743167	0.000284	2.837417	0.961343	-0.000114
1442	1.4338e+02	-17.4059	-47.836021	0.000233	2.330735	0.789675	-0.000093
1443	1.4348e+02	-17.4492	-47.945024	0.000274	2.736081	0.927009	-0.000110
1444	1.4358e+02	-17.4813	-48.033841	0.000223	2.229399	0.755341	-0.000089
1445	1.4368e+02	-17.5311	-48.102472	0.000172	1.722717	0.583672	-0.000069
1446	1.4378e+02	-17.5631	-48.231661	0.000324	3.242762	1.098678	-0.000130
1447	1.4388e+02	-17.6097	-48.328552	0.000243	2.432072	0.824008	-0.000097
1448	1.4398e+02	-17.6578	-48.429480	0.000253	2.533408	0.858342	-0.000101
1449	1.4408e+02	-17.6883	-48.486000	0.000142	1.418709	0.480671	-0.000057
1450	1.4418e+02	-17.7188	-48.615189	0.000324	3.242762	1.098678	-0.000130
1451	1.4428e+02	-17.7685	-48.708043	0.000233	2.330735	0.789675	-0.000093
1452	1.4437e+02	-17.7990	-48.764563	0.000142	1.418709	0.480671	-0.000057
1453	1.4447e+02	-17.8439	-48.917974	0.000385	3.850780	1.304680	-0.000154
1454	1.4457e+02	-17.8840	-49.014865	0.000243	2.432072	0.824008	-0.000097
1455	1.4467e+02	-17.9241	-49.071385	0.000142	1.418709	0.480671	-0.000057
1456	1.4477e+02	-17.9610	-49.212685	0.000355	3.546771	1.201679	-0.000142
1457	1.4487e+02	-18.0059	-49.325724	0.000284	2.837417	0.961343	-0.000114
1458	1.4497e+02	-18.0428	-49.410504	0.000213	2.128063	0.721007	-0.000085
1459	1.4507e+02	-18.0941	-49.503358	0.000233	2.330735	0.789675	-0.000093
1460	1.4517e+02	-18.1214	-49.584101	0.000203	2.026726	0.686674	-0.000081
1461	1.4527e+02	-18.1711	-49.729438	0.000365	3.648108	1.236012	-0.000146
1462	1.4537e+02	-18.2080	-49.789995	0.000152	1.520045	0.515005	-0.000061
1463	1.4547e+02	-18.2417	-49.898998	0.000274	2.736081	0.927009	-0.000110
1464	1.4557e+02	-18.2866	-50.028186	0.000324	3.242762	1.098678	-0.000130
1465	1.4567e+02	-18.3252	-50.141226	0.000284	2.837417	0.961343	-0.000114
1466	1.4577e+02	-18.3620	-50.205820	0.000162	1.621381	0.549339	-0.000065
1467	1.4587e+02	-18.3941	-50.351157	0.000365	3.648108	1.236012	-0.000146
1468	1.4597e+02	-18.4455	-50.395565	0.000111	1.114700	0.377670	-0.000045
1469	1.4607e+02	-18.4872	-50.565125	0.000426	4.256126	1.442014	-0.000170
1470	1.4617e+02	-18.5161	-50.670091	0.000263	2.634744	0.892676	-0.000105
1471	1.4626e+02	-18.5642	-50.742759	0.000182	1.824054	0.618006	-0.000073
1472	1.4636e+02	-18.6075	-50.863873	0.000304	3.040090	1.030010	-0.000122
1473	1.4646e+02	-18.6380	-50.960764	0.000243	2.432072	0.824008	-0.000097
1474	1.4656e+02	-18.6781	-51.077841	0.000294	2.938753	0.995677	-0.000118
1475	1.4666e+02	-18.7214	-51.182807	0.000263	2.634744	0.892676	-0.000105
1476	1.4676e+02	-18.7615	-51.235290	0.000132	1.317372	0.446338	-0.000053
1477	1.4686e+02	-18.7968	-51.388701	0.000385	3.850780	1.304680	-0.000154
1478	1.4696e+02	-18.8449	-51.521926	0.000334	3.344099	1.133011	-0.000134
1479	1.4706e+02	-18.8786	-51.594595	0.000182	1.824054	0.618006	-0.000073
1480	1.4716e+02	-18.9251	-51.772229	0.000446	4.458798	1.510682	-0.000179
1481	1.4726e+02	-18.9556	-51.836823	0.000162	1.621381	0.549339	-0.000065
1482	1.4736e+02	-19.0021	-51.945826	0.000274	2.736081	0.927009	-0.000110
1483	1.4746e+02	-19.0438	-52.054828	0.000274	2.736081	0.927009	-0.000110
1484	1.4756e+02	-19.0759	-52.204202	0.000375	3.749444	1.270346	-0.000150
1485	1.4766e+02	-19.1176	-52.284945	0.000203	2.026726	0.686674	-0.000081
1486	1.4776e+02	-19.1545	-52.426245	0.000355	3.546771	1.201679	-0.000142
1487	1.4786e+02	-19.2075	-52.515062	0.000223	2.229399	0.755341	-0.000089
1488	1.4796e+02	-19.2476	-52.603879	0.000223	2.229399	0.755341	-0.000089
1489	1.4806e+02	-19.2797	-52.737104	0.000334	3.344099	1.133011	-0.000134
1490	1.4816e+02	-19.3166	-52.858218	0.000304	3.040090	1.030010	-0.000122
1491	1.4825e+02	-19.3583	-52.983369	0.000314	3.141426	1.064344	-0.000126
1492	1.4835e+02	-19.4000	-53.080261	0.000243	2.432072	0.824008	-0.000097
1493	1.4845e+02	-19.4321	-53.201375	0.000304	3.040090	1.030010	-0.000122
1494	1.4855e+02	-19.4770	-53.330563	0.000324	3.242762	1.098678	-0.000130
1495	1.4865e+02	-19.5171	-53.447640	0.000294	2.938753	0.995677	-0.000118
1496	1.4875e+02	-19.5652	-53.552606	0.000263	2.634744	0.892676	-0.000105
1497	1.4885e+02	-19.6005	-53.693905	0.000355	3.546771	1.201679	-0.000142
1498	1.4895e+02	-19.6374	-53.819057	0.000314	3.141426	1.064344	-0.000126
1499	1.4905e+02	-19.6695	-53.952282	0.000334	3.344099	1.133011	-0.000134
1500	1.4915e+02	-19.7192	-54.049173	0.000243	2.432072	0.824008	-0.000097
1501	1.4925e+02	-19.7593	-54.190473	0.000355	3.546771	1.201679	-0.000142
1502	1.4935e+02	-19.7898	-54.303513	0.000284	2.837417	0.961343	-0.000114
1503	1.4945e+02	-19.8363	-54.400404	0.000243	2.432072	0.824008	-0.000097
1504	1.4955e+02	-19.8748	-54.517481	0.000294	2.938753	0.995677	-0.000118
1505	1.4965e+02	-19.9069	-54.666855	0.000375	3.749444	1.270346	-0.000150
1506	1.4975e+02	-19.9551	-54.808155	0.000355	3.546771	1.201679	-0.000142
1507	1.4985e+02	-20.0032	-54.880823	0.000182	1.824054	0.618006	-0.000073
1508	1.4995e+02	-19.9454	-54.836415	0.000111	1.114700	0.377670	0.000045
1509	1.5005e+02	-19.9198	-54.852563	-0.000041	-0.405345	-0.137335	-0.000016
1510	1.5015e+02	-19.8732	-54.812192	0.000101	1.013363	0.343337	0.000041
1511	1.5025e+02	-19.8331	-54.783932	0.000071	0.709354	0.240336	0.000028
1512	1.5034e+02	-19.7978	-54.715301	0.000172	1.722717	0.583672	0.000069
1513	1.5044e+02	-19.7545	-54.691078	0.000061	0.608018	0.206002	0.000024
1514	1.5054e+02	-19.7160	-54.658781	0.000081	0.810691	0.274669	0.000032
1515	1.5064e+02	-19.6727	-54.578038	0.000203	2.026726	0.686674	0.000081
1516	1.5074e+02	-19.6374	-54.501332	0.000193	1.925390	0.652340	0.000077
1517	1.5084e+02	-19.5989	-54.469035	0.000081	0.810691	0.274669	0.000032
1518	1.5094e+02	-19.5556	-54.392330	0.000193	1.925390	0.652340	0.000077
1519	1.5104e+02	-19.5107	-54.368107	0.000061	0.608018	0.206002	0.000024
1520	1.5114e+02	-19.4818	-54.315624	0.000132	1.317372	0.446338	0.000053
1521	1.5124e+02	-19.4337	-54.238919	0.000193	1.925390	0.652340	0.000077
1522	1.5134e+02	-19.3968	-54.170287	0.000172	1.722717	0.583672	0.000069
1523	1.5144e+02	-19.3599	-54.129916	0.000101	1.013363	0.343337	0.000041
1524	1.5154e+02	-19.3037	-54.093582	0.000091	0.912027	0.309003	0.000037
1525	1.5164e+02	-19.2861	-53.988616	0.000263	2.634744	0.892676	0.000105
1526	1.5174e+02	-19.2412	-53.972468	0.000041	0.405345	0.137335	0.000016
1527	1.5184e+02	-19.1979	-53.855391	0.000294	2.938753	0.995677	0.000118
1528	1.5194e+02	-19.1658	-53.790797	0.000162	1.621381	0.549339	0.000065
1529	1.5204e+02	-19.1225	-53.714091	0.000193	1.925390	0.652340	0.000077
1530	1.5214e+02	-19.0807	-53.714091	0.000000	0.000000	0.000000	0.000000
1531	1.5224e+02	-19.0374	-53.641423	0.000182	1.824054	0.618006	0.000073
1532	1.5233e+02	-18.9989	-53.544531	0.000243	2.432072	0.824008	0.000097
1533	1.5243e+02	-18.9668	-53.512234	0.000081	0.810691	0.274669	0.000032
1534	1.5253e+02	-18.9251	-53.399194	0.000284	2.837417	0.961343	0.000114
1535	1.5263e+02	-18.8802	-53.370934	0.000071	0.709354	0.240336	0.000028
1536	1.5273e+02	-18.8369	-53.245783	0.000314	3.141426	1.064344	0.000126
1537	1.5283e+02	-18.8000	-53.193300	0.000132	1.317372	0.446338	0.000053
1538	1.5293e+02	-18.7615	-53.132743	0.000152	1.520045	0.515005	0.000061
1539	1.5303e+02	-18.7150	-53.084298	0.000122	1.216036	0.412004	0.000049
1540	1.5313e+02	-18.6781	-53.011629	0.000182	1.824054	0.618006	0.000073
1541	1.5323e+02	-18.6364	-52.914738	0.000243	2.432072	0.824008	0.000097
1542	1.5333e+02	-18.5963	-52.842070	0.000182	1.824054	0.618006	0.000073
1543	1.5343e+02	-18.5562	-52.781513	0.000152	1.520045	0.515005	0.000061
1544	1.5353e+02	-18.5225	-52.729030	0.000132	1.317372	0.446338	0.000053
1545	1.5363e+02	-18.4904	-52.632139	0.000243	2.432072	0.824008	0.000097
1546	1.5373e+02	-18.4471	-52.587730	0.000111	1.114700	0.377670	0.000045
1547	1.5383e+02	-18.4086	-52.486802	0.000253	2.533408	0.858342	0.000101
1548	1.5393e+02	-18.3604	-52.434319	0.000132	1.317372	0.446338	0.000053
1549	1.5403e+02	-18.3284	-52.333391	0.000253	2.533408	0.858342	0.000101
1550	1.5413e+02	-18.2883	-52.268796	0.000162	1.621381	0.549339	0.000065
1551	1.5422e+02	-18.2385	-52.192091	0.000193	1.925390	0.652340	0.000077
1552	1.5432e+02	-18.2016	-52.115385	0.000193	1.925390	0.652340	0.000077
1553	1.5442e+02	-18.1679	-52.046754	0.000172	1.722717	0.583672	0.000069
1554	1.5452e+02	-18.1262	-51.982160	0.000162	1.621381	0.549339	0.000065
1555	1.5462e+02	-18.0845	-51.885269	0.000243	2.432072	0.824008	0.000097
1556	1.5472e+02	-18.0412	-51.792414	0.000233	2.330735	0.789675	0.000093
1557	1.5482e+02	-18.0075	-51.739932	0.000132	1.317372	0.446338	0.000053
1558	1.5492e+02	-17.9642	-51.647077	0.000233	2.330735	0.789675	0.000093
1559	1.5502e+02	-17.9305	-51.566335	0.000203	2.026726	0.686674	0.000081
1560	1.5512e+02	-17.8808	-51.501741	0.000162	1.621381	0.549339	0.000065
1561	1.5522e+02	-17.8471	-51.408886	0.000233	2.330735	0.789675	0.000093
1562	1.5532e+02	-17.8054	-51.344292	0.000162	1.621381	0.549339	0.000065
1563	1.5542e+02	-17.7653	-51.235290	0.000274	2.736081	0.927009	0.000110
1564	1.5552e+02	-17.7171	-51.182807	0.000132	1.317372	0.446338	0.000053
1565	1.5562e+02	-17.6899	-51.102064	0.000203	2.026726	0.686674	0.000081
1566	1.5572e+02	-17.6530	-51.009210	0.000233	2.330735	0.789675	0.000093
1567	1.5582e+02	-17.6129	-50.928467	0.000203	2.026726	0.686674	0.000081
1568	1.5592e+02	-17.5599	-50.863873	0.000162	1.621381	0.549339	0.000065
1569	1.5602e+02	-17.5278	-50.771019	0.000233	2.330735	0.789675	0.000093
1570	1.5612e+02	-17.4861	-50.674128	0.000243	2.432072	0.824008	0.000097
1571	1.5622e+02	-17.4476	-50.637794	0.000091	0.912027	0.309003	0.000037
1572	1.5631e+02	-17.4091	-50.508605	0.000324	3.242762	1.098678	0.000130
1573	1.5641e+02	-17.3658	-50.464197	0.000111	1.114700	0.377670	0.000045
1574	1.5651e+02	-17.3321	-50.367305	0.000243	2.432072	0.824008	0.000097
1575	1.5661e+02	-17.2888	-50.286563	0.000203	2.026726	0.686674	0.000081
1576	1.5671e+02	-17.2423	-50.193709	0.000233	2.330735	0.789675	0.000093
1577	1.5681e+02	-17.2182	-50.108929	0.000213	2.128063	0.721007	0.000085
1578	1.5691e+02	-17.1701	-50.056446	0.000132	1.317372	0.446338	0.000053
1579	1.5701e+02	-17.1284	-49.971666	0.000213	2.128063	0.721007	0.000085
1580	1.5711e+02	-17.0867	-49.870738	0.000253	2.533408	0.858342	0.000101
1581	1.5721e+02	-17.0562	-49.810181	0.000152	1.520045	0.515005	0.000061
1582	1.5731e+02	-17.0161	-49.676955	0.000334	3.344099	1.133011	0.000134
1583	1.5741e+02	-16.9728	-49.616398	0.000152	1.520045	0.515005	0.000061
1584	1.5751e+02	-16.9279	-49.471061	0.000365	3.648108	1.236012	0.000146
1585	1.5761e+02	-16.8846	-49.422616	0.000122	1.216036	0.412004	0.000049
1586	1.5771e+02	-16.8589	-49.410504	0.000030	0.304009	0.103001	0.000012
1587	1.5781e+02	-16.8108	-49.273242	0.000345	3.445435	1.167345	0.000138
1588	1.5791e+02	-16.7755	-49.224796	0.000122	1.216036	0.412004	0.000049
1589	1.5801e+02	-16.7289	-49.091571	0.000334	3.344099	1.133011	0.000134
1590	1.5811e+02	-16.6872	-49.026976	0.000162	1.621381	0.549339	0.000065
1591	1.5821e+02	-16.6487	-48.946234	0.000203	2.026726	0.686674	0.000081
1592	1.5830e+02	-16.6182	-48.865491	0.000203	2.026726	0.686674	0.000081
1593	1.5840e+02	-16.5749	-48.776674	0.000223	2.229399	0.755341	0.000089
1594	1.5850e+02	-16.5316	-48.699968	0.000193	1.925390	0.652340	0.000077
1595	1.5860e+02	-16.4883	-48.586929	0.000284	2.837417	0.961343	0.000114
1596	1.5870e+02	-16.4482	-48.477926	0.000274	2.736081	0.927009	0.000110
1597	1.5880e+02	-16.4177	-48.445629	0.000081	0.810691	0.274669	0.000032
1598	1.5890e+02	-16.3776	-48.352775	0.000233	2.330735	0.789675	0.000093
1599	1.5900e+02	-16.3247	-48.280106	0.000182	1.824054	0.618006	0.000073
1600	1.5910e+02	-16.2926	-48.163029	0.000294	2.938753	0.995677	0.000118
1601	1.5920e+02	-16.2525	-48.082287	0.000203	2.026726	0.686674	0.000081
1602	1.5930e+02	-16.2076	-48.009618	0.000182	1.824054	0.618006	0.000073
1603	1.5940e+02	-16.1691	-47.908690	0.000253	2.533408	0.858342	0.000101
1604	1.5950e+02	-16.1338	-47.864281	0.000111	1.114700	0.377670	0.000045
1605	1.5960e+02	-16.0937	-47.787576	0.000193	1.925390	0.652340	0.000077
1606	1.5970e+02	-16.0568	-47.682610	0.000263	2.634744	0.892676	0.000105
1607	1.5980e+02	-16.0135	-47.601867	0.000203	2.026726	0.686674	0.000081
1608	1.5990e+02	-15.9733	-47.484791	0.000294	2.938753	0.995677	0.000118
1609	1.6000e+02	-15.9300	-47.432308	0.000132	1.317372	0.446338	0.000053
1610	1.6010e+02	-15.8931	-47.311194	0.000304	3.040090	1.030010	0.000122
1611	1.6019e+02	-15.8562	-47.222377	0.000223	2.229399	0.755341	0.000089
1612	1.6029e+02	-15.8081	-47.173931	0.000122	1.216036	0.412004	0.000049
1613	1.6039e+02	-15.7696	-47.068966	0.000263	2.634744	0.892676	0.000105
1614	1.6049e+02	-15.7311	-47.004371	0.000162	1.621381	0.549339	0.000065
1615	1.6059e+02	-15.6830	-46.887294	0.000294	2.938753	0.995677	0.000118
1616	1.6069e+02	-15.6621	-46.802515	0.000213	2.128063	0.721007	0.000085
1617	1.6079e+02	-15.6108	-46.725809	0.000193	1.925390	0.652340	0.000077
1618	1.6089e+02	-15.5659	-46.649103	0.000193	1.925390	0.652340	0.000077
1619	1.6099e+02	-15.5434	-46.560286	0.000223	2.229399	0.755341	0.000089
1620	1.6109e+02	-15.4889	-46.431098	0.000324	3.242762	1.098678	0.000130
1621	1.6119e+02	-15.4536	-46.378615	0.000132	1.317372	0.446338	0.000053
1622	1.6129e+02	-15.4183	-46.265576	0.000284	2.837417	0.961343	0.000114
1623	1.6139e+02	-15.3766	-46.184833	0.000203	2.026726	0.686674	0.000081
1624	1.6149e+02	-15.3381	-46.079867	0.000263	2.634744	0.892676	0.000105
1625	1.6159e+02	-15.2980	-46.043533	0.000091	0.912027	0.309003	0.000037
1626	1.6169e+02	-15.2530	-45.942605	0.000253	2.533408	0.858342	0.000101
1627	1.6179e+02	-15.2113	-45.845713	0.000243	2.432072	0.824008	0.000097
1628	1.6189e+02	-15.1712	-45.764971	0.000203	2.026726	0.686674	0.000081
1629	1.6199e+02	-15.1375	-45.655968	0.000274	2.736081	0.927009	0.000110
1630	1.6209e+02	-15.0958	-45.583300	0.000182	1.824054	0.618006	0.000073
1631	1.6219e+02	-15.0477	-45.546965	0.000091	0.912027	0.309003	0.000037
1632	1.6228e+02	-15.0268	-45.417777	0.000324	3.242762	1.098678	0.000130
1633	1.6238e+02	-14.9659	-45.312812	0.000263	2.634744	0.892676	0.000105
1634	1.6248e+02	-14.9386	-45.244180	0.000172	1.722717	0.583672	0.000069
1635	1.6258e+02	-14.8953	-45.139215	0.000263	2.634744	0.892676	0.000105
1636	1.6268e+02	-14.8552	-45.090769	0.000122	1.216036	0.412004	0.000049
1637	1.6278e+02	-14.8151	-44.985804	0.000263	2.634744	0.892676	0.000105
1638	1.6288e+02	-14.7718	-44.876801	0.000274	2.736081	0.927009	0.000110
1639	1.6298e+02	-14.7285	-44.812207	0.000162	1.621381	0.549339	0.000065
1640	1.6308e+02	-14.6964	-44.751650	0.000152	1.520045	0.515005	0.000061
1641	1.6318e+02	-14.6547	-44.618424	0.000334	3.344099	1.133011	0.000134
1642	1.6328e+02	-14.6194	-44.545756	0.000182	1.824054	0.618006	0.000073
1643	1.6338e+02	-14.5777	-44.473087	0.000182	1.824054	0.618006	0.000073
1644	1.6348e+02	-14.5311	-44.384270	0.000223	2.229399	0.755341	0.000089
1645	1.6358e+02	-14.5039	-44.271231	0.000284	2.837417	0.961343	0.000114
1646	1.6368e+02	-14.4590	-44.194525	0.000193	1.925390	0.652340	0.000077
1647	1.6378e+02	-14.4221	-44.150116	0.000111	1.114700	0.377670	0.000045
1648	1.6388e+02	-14.3819	-44.016891	0.000334	3.344099	1.133011	0.000134
1649	1.6398e+02	-14.3386	-43.920000	0.000243	2.432072	0.824008	0.000097
1650	1.6408e+02	-14.3033	-43.891740	0.000071	0.709354	0.240336	0.000028
1651	1.6418e+02	-14.2568	-43.766589	0.000314	3.141426	1.064344	0.000126
1652	1.6427e+02	-14.2279	-43.710069	0.000142	1.418709	0.480671	0.000057
1653	1.6437e+02	-14.1814	-43.592992	0.000294	2.938753	0.995677	0.000118
1654	1.6447e+02	-14.1429	-43.492063	0.000253	2.533408	0.858342	0.000101
1655	1.6457e+02	-14.1124	-43.431506	0.000152	1.520045	0.515005	0.000061
1656	1.6467e+02	-14.0611	-43.334615	0.000243	2.432072	0.824008	0.000097
1657	1.6477e+02	-14.0210	-43.233687	0.000253	2.533408	0.858342	0.000101
1658	1.6487e+02	-13.9841	-43.201390	0.000081	0.810691	0.274669	0.000032
1659	1.6497e+02	-13.9344	-43.064127	0.000345	3.445435	1.167345	0.000138
1660	1.6507e+02	-13.8943	-42.987421	0.000193	1.925390	0.652340	0.000077
1661	1.6517e+02	-13.8526	-42.902641	0.000213	2.128063	0.721007	0.000085
1662	1.6527e+02	-13.8205	-42.813825	0.000223	2.229399	0.755341	0.000089
1663	1.6537e+02	-13.7804	-42.745193	0.000172	1.722717	0.583672	0.000069
1664	1.6547e+02	-13.7403	-42.640228	0.000263	2.634744	0.892676	0.000105
1665	1.6557e+02	-13.7050	-42.531225	0.000274	2.736081	0.927009	0.000110
1666	1.6567e+02	-13.6440	-42.466631	0.000162	1.621381	0.549339	0.000065
1667	1.6577e+02	-13.6215	-42.357628	0.000274	2.736081	0.927009	0.000110
1668	1.6587e+02	-13.5798	-42.309183	0.000122	1.216036	0.412004	0.000049
1669	1.6597e+02	-13.5413	-42.192106	0.000294	2.938753	0.995677	0.000118
1670	1.6607e+02	-13.4980	-42.115400	0.000193	1.925390	0.652340	0.000077
1671	1.6616e+02	-13.4595	-42.022546	0.000233	2.330735	0.789675	0.000093
1672	1.6626e+02	-13.4258	-41.905469	0.000294	2.938753	0.995677	0.000118
1673	1.6636e+02	-13.3761	-41.812615	0.000233	2.330735	0.789675	0.000093
1674	1.6646e+02	-13.3424	-41.735909	0.000193	1.925390	0.652340	0.000077
1675	1.6656e+02	-13.3023	-41.667278	0.000172	1.722717	0.583672	0.000069
1676	1.6666e+02	-13.2622	-41.606721	0.000152	1.520045	0.515005	0.000061
1677	1.6676e+02	-13.2189	-41.505793	0.000253	2.533408	0.858342	0.000101
1678	1.6686e+02	-13.1836	-41.421013	0.000213	2.128063	0.721007	0.000085
1679	1.6696e+02	-13.1403	-41.299899	0.000304	3.040090	1.030010	0.000122
1680	1.6706e+02	-13.1050	-41.235304	0.000162	1.621381	0.549339	0.000065
1681	1.6716e+02	-13.0633	-41.102079	0.000334	3.344099	1.133011	0.000134
1682	1.6726e+02	-13.0151	-41.029411	0.000182	1.824054	0.618006	0.000073
1683	1.6736e+02	-12.9766	-40.932519	0.000243	2.432072	0.824008	0.000097
1684	1.6746e+02	-12.9413	-40.855814	0.000193	1.925390	0.652340	0.000077
1685	1.6756e+02	-12.9012	-40.758922	0.000243	2.432072	0.824008	0.000097
1686	1.6766e+02	-12.8579	-40.730662	0.000071	0.709354	0.240336	0.000028
1687	1.6776e+02	-12.8355	-40.561103	0.000426	4.256126	1.442014	0.000170
1688	1.6786e+02	-12.7857	-40.484397	0.000193	1.925390	0.652340	0.000077
1689	1.6796e+02	-12.7456	-40.399617	0.000213	2.128063	0.721007	0.000085
1690	1.6806e+02	-12.7023	-40.314837	0.000213	2.128063	0.721007	0.000085
1691	1.6816e+02	-12.6686	-40.221983	0.000233	2.330735	0.789675	0.000093
1692	1.6825e+02	-12.6205	-40.092795	0.000324	3.242762	1.098678	0.000130
1693	1.6835e+02	-12.5836	-40.052424	0.000101	1.013363	0.343337	0.000041
1694	1.6845e+02	-12.5467	-39.939384	0.000284	2.837417	0.961343	0.000114
1695	1.6855e+02	-12.5114	-39.830381	0.000274	2.736081	0.927009	0.000110
1696	1.6865e+02	-12.4649	-39.777898	0.000132	1.317372	0.446338	0.000053
1697	1.6875e+02	-12.4328	-39.685044	0.000233	2.330735	0.789675	0.000093
1698	1.6885e+02	-12.3911	-39.600264	0.000213	2.128063	0.721007	0.000085
1699	1.6895e+02	-12.3510	-39.450890	0.000375	3.749444	1.270346	0.000150
1700	1.6905e+02	-12.3077	-39.374185	0.000193	1.925390	0.652340	0.000077
1701	1.6915e+02	-12.2804	-39.297479	0.000193	1.925390	0.652340	0.000077
1702	1.6925e+02	-12.2291	-39.216737	0.000203	2.026726	0.686674	0.000081
1703	1.6935e+02	-12.1890	-39.103697	0.000284	2.837417	0.961343	0.000114
1704	1.6945e+02	-12.1521	-39.059288	0.000111	1.114700	0.377670	0.000045
1705	1.6955e+02	-12.1039	-38.938174	0.000304	3.040090	1.030010	0.000122
1706	1.6965e+02	-12.0719	-38.865506	0.000182	1.824054	0.618006	0.000073
1707	1.6975e+02	-12.0350	-38.768614	0.000243	2.432072	0.824008	0.000097
1708	1.6985e+02	-11.9868	-38.623278	0.000365	3.648108	1.236012	0.000146
1709	1.6995e+02	-11.9483	-38.562721	0.000152	1.520045	0.515005	0.000061
1710	1.7005e+02	-11.9146	-38.461792	0.000253	2.533408	0.858342	0.000101
1711	1.7015e+02	-11.8681	-38.372975	0.000223	2.229399	0.755341	0.000089
1712	1.7024e+02	-11.8344	-38.231675	0.000355	3.546771	1.201679	0.000142
1713	1.7034e+02	-11.7767	-38.187267	0.000111	1.114700	0.377670	0.000045
1714	1.7044e+02	-11.7462	-38.082301	0.000263	2.634744	0.892676	0.000105
1715	1.7054e+02	-11.7109	-37.981373	0.000253	2.533408	0.858342	0.000101
1716	1.7064e+02	-11.6692	-37.864296	0.000294	2.938753	0.995677	0.000118
1717	1.7074e+02	-11.6371	-37.819888	0.000111	1.114700	0.377670	0.000045
1718	1.7084e+02	-11.5922	-37.694736	0.000314	3.141426	1.064344	0.000126
1719	1.7094e+02	-11.5489	-37.569585	0.000314	3.141426	1.064344	0.000126
1720	1.7104e+02	-11.5072	-37.504991	0.000162	1.621381	0.549339	0.000065
1721	1.7114e+02	-11.4799	-37.416174	0.000223	2.229399	0.755341	0.000089
1722	1.7124e+02	-11.4318	-37.299097	0.000294	2.938753	0.995677	0.000118
1723	1.7134e+02	-11.3917	-37.226429	0.000182	1.824054	0.618006	0.000073
1724	1.7144e+02	-11.3451	-37.109352	0.000294	2.938753	0.995677	0.000118
1725	1.7154e+02	-11.3179	-36.996312	0.000284	2.837417	0.961343	0.000114
1726	1.7164e+02	-11.2633	-36.911532	0.000213	2.128063	0.721007	0.000085
1727	1.7174e+02	-11.2296	-36.818678	0.000233	2.330735	0.789675	0.000093
1728	1.7184e+02	-11.1943	-36.762158	0.000142	1.418709	0.480671	0.000057
1729	1.7194e+02	-11.1574	-36.612784	0.000375	3.749444	1.270346	0.000150
1730	1.7204e+02	-11.1077	-36.528004	0.000213	2.128063	0.721007	0.000085
1731	1.7213e+02	-11.0852	-36.451299	0.000193	1.925390	0.652340	0.000077
1732	1.7223e+02	-11.0435	-36.318073	0.000334	3.344099	1.133011	0.000134
1733	1.7233e+02	-10.9986	-36.229256	0.000223	2.229399	0.755341	0.000089
1734	1.7243e+02	-10.9537	-36.124291	0.000263	2.634744	0.892676	0.000105
1735	1.7253e+02	-10.9168	-36.035474	0.000223	2.229399	0.755341	0.000089
1736	1.7263e+02	-10.8767	-35.926471	0.000274	2.736081	0.927009	0.000110
1737	1.7273e+02	-10.8318	-35.821505	0.000263	2.634744	0.892676	0.000105
1738	1.7283e+02	-10.7949	-35.720577	0.000253	2.533408	0.858342	0.000101
1739	1.7293e+02	-10.7548	-35.627723	0.000233	2.330735	0.789675	0.000093
1740	1.7303e+02	-10.7147	-35.563129	0.000162	1.621381	0.549339	0.000065
1741	1.7313e+02	-10.6730	-35.429903	0.000334	3.344099	1.133011	0.000134
1742	1.7323e+02	-10.6313	-35.328975	0.000253	2.533408	0.858342	0.000101
1743	1.7333e+02	-10.5976	-35.236121	0.000233	2.330735	0.789675	0.000093
1744	1.7343e+02	-10.5526	-35.127118	0.000274	2.736081	0.927009	0.000110
1745	1.7353e+02	-10.5109	-35.026190	0.000253	2.533408	0.858342	0.000101
1746	1.7363e+02	-10.4740	-34.929298	0.000243	2.432072	0.824008	0.000097
1747	1.7373e+02	-10.4323	-34.796073	0.000334	3.344099	1.133011	0.000134
1748	1.7383e+02	-10.3826	-34.695145	0.000253	2.533408	0.858342	0.000101
1749	1.7393e+02	-10.3521	-34.606328	0.000223	2.229399	0.755341	0.000089
1750	1.7403e+02	-10.3136	-34.521548	0.000213	2.128063	0.721007	0.000085
1751	1.7413e+02	-10.2815	-34.424656	0.000243	2.432072	0.824008	0.000097
1752	1.7422e+02	-10.2366	-34.351988	0.000182	1.824054	0.618006	0.000073
1753	1.7432e+02	-10.1901	-34.194540	0.000395	3.952117	1.339013	0.000158
1754	1.7442e+02	-10.1500	-34.146094	0.000122	1.216036	0.412004	0.000049
1755	1.7452e+02	-10.1099	-34.024980	0.000304	3.040090	1.030010	0.000122
1756	1.7462e+02	-10.0826	-33.899829	0.000314	3.141426	1.064344	0.000126
1757	1.7472e+02	-10.0377	-33.790826	0.000274	2.736081	0.927009	0.000110
1758	1.7482e+02	-9.9880	-33.734306	0.000142	1.418709	0.480671	0.000057
1759	1.7492e+02	-9.9559	-33.621266	0.000284	2.837417	0.961343	0.000114
1760	1.7502e+02	-9.9045	-33.504189	0.000294	2.938753	0.995677	0.000118
1761	1.7512e+02	-9.8724	-33.431521	0.000182	1.824054	0.618006	0.000073
1762	1.7522e+02	-9.8404	-33.274073	0.000395	3.952117	1.339013	0.000158
1763	1.7532e+02	-9.8019	-33.209479	0.000162	1.621381	0.549339	0.000065
1764	1.7542e+02	-9.7585	-33.100476	0.000274	2.736081	0.927009	0.000110
1765	1.7552e+02	-9.7217	-33.023770	0.000193	1.925390	0.652340	0.000077
1766	1.7562e+02	-9.6719	-32.914768	0.000274	2.736081	0.927009	0.000110
1767	1.7572e+02	-9.6366	-32.793654	0.000304	3.040090	1.030010	0.000122
1768	1.7582e+02	-9.5949	-32.708874	0.000213	2.128063	0.721007	0.000085
1769	1.7592e+02	-9.5644	-32.636205	0.000182	1.824054	0.618006	0.000073
1770	1.7602e+02	-9.5243	-32.507017	0.000324	3.242762	1.098678	0.000130
1771	1.7612e+02	-9.4698	-32.377829	0.000324	3.242762	1.098678	0.000130
1772	1.7621e+02	-9.4329	-32.280937	0.000243	2.432072	0.824008	0.000097
1773	1.7631e+02	-9.3944	-32.192120	0.000223	2.229399	0.755341	0.000089
1774	1.7641e+02	-9.3623	-32.091192	0.000253	2.533408	0.858342	0.000101
1775	1.7651e+02	-9.3238	-32.030635	0.000152	1.520045	0.515005	0.000061
1776	1.7661e+02	-9.2853	-31.917595	0.000284	2.837417	0.961343	0.000114
1777	1.7671e+02	-9.2388	-31.796481	0.000304	3.040090	1.030010	0.000122
1778	1.7681e+02	-9.2003	-31.651144	0.000365	3.648108	1.236012	0.000146
1779	1.7691e+02	-9.1666	-31.586550	0.000162	1.621381	0.549339	0.000065
1780	1.7701e+02	-9.1136	-31.465436	0.000304	3.040090	1.030010	0.000122
1781	1.7711e+02	-9.0767	-31.364508	0.000253	2.533408	0.858342	0.000101
1782	1.7721e+02	-9.0415	-31.275691	0.000223	2.229399	0.755341	0.000089
1783	1.7731e+02	-9.0014	-31.142465	0.000334	3.344099	1.133011	0.000134
1784	1.7741e+02	-8.9596	-31.045574	0.000243	2.432072	0.824008	0.000097
1785	1.7751e+02	-8.9179	-30.964831	0.000203	2.026726	0.686674	0.000081
1786	1.7761e+02	-8.8842	-30.831606	0.000334	3.344099	1.133011	0.000134
1787	1.7771e+02	-8.8409	-30.738752	0.000233	2.330735	0.789675	0.000093
1788	1.7781e+02	-8.8008	-30.621675	0.000294	2.938753	0.995677	0.000118
1789	1.7791e+02	-8.7527	-30.528820	0.000233	2.330735	0.789675	0.000093
1790	1.7801e+02	-8.7286	-30.431929	0.000243	2.432072	0.824008	0.000097
1791	1.7810e+02	-8.6773	-30.302741	0.000324	3.242762	1.098678	0.000130
1792	1.7820e+02	-8.6436	-30.226035	0.000193	1.925390	0.652340	0.000077
1793	1.7830e+02	-8.5923	-30.133181	0.000233	2.330735	0.789675	0.000093
1794	1.7840e+02	-8.5538	-30.028216	0.000263	2.634744	0.892676	0.000105
1795	1.7850e+02	-8.5249	-29.899027	0.000324	3.242762	1.098678	0.000130
1796	1.7860e+02	-8.4912	-29.785987	0.000284	2.837417	0.961343	0.000114
1797	1.7870e+02	-8.4495	-29.664873	0.000304	3.040090	1.030010	0.000122
1798	1.7880e+02	-8.3982	-29.596242	0.000172	1.722717	0.583672	0.000069
1799	1.7890e+02	-8.3564	-29.483202	0.000284	2.837417	0.961343	0.000114
1800	1.7900e+02	-8.3179	-29.394385	0.000223	2.229399	0.755341	0.000089
1801	1.7910e+02	-8.2843	-29.293457	0.000253	2.533408	0.858342	0.000101
1802	1.7920e+02	-8.2409	-29.180417	0.000284	2.837417	0.961343	0.000114
1803	1.7930e+02	-8.2089	-29.083526	0.000243	2.432072	0.824008	0.000097
1804	1.7940e+02	-8.1591	-28.962412	0.000304	3.040090	1.030010	0.000122
1805	1.7950e+02	-8.1286	-28.853409	0.000274	2.736081	0.927009	0.000110
1806	1.7960e+02	-8.0869	-28.784778	0.000172	1.722717	0.583672	0.000069
1807	1.7970e+02	-8.0436	-28.687887	0.000243	2.432072	0.824008	0.000097
1808	1.7980e+02	-8.0003	-28.574847	0.000284	2.837417	0.961343	0.000114
1809	1.7990e+02	-7.9666	-28.429510	0.000365	3.648108	1.236012	0.000146
1810	1.8000e+02	-7.9153	-28.348767	0.000203	2.026726	0.686674	0.000081
1811	1.8009e+02	-7.8832	-28.219579	0.000324	3.242762	1.098678	0.000130
1812	1.8019e+02	-7.8399	-28.126725	0.000233	2.330735	0.789675	0.000093
1813	1.8029e+02	-7.8014	-28.054056	0.000182	1.824054	0.618006	0.000073
1814	1.8039e+02	-7.7597	-27.936979	0.000294	2.938753	0.995677	0.000118
1815	1.8049e+02	-7.7180	-27.819902	0.000294	2.938753	0.995677	0.000118
1816	1.8059e+02	-7.6795	-27.751271	0.000172	1.722717	0.583672	0.000069
1817	1.8069e+02	-7.6426	-27.614008	0.000345	3.445435	1.167345	0.000138
1818	1.8079e+02	-7.6169	-27.513080	0.000253	2.533408	0.858342	0.000101
1819	1.8089e+02	-7.5591	-27.412152	0.000253	2.533408	0.858342	0.000101
1820	1.8099e+02	-7.5222	-27.351595	0.000152	1.520045	0.515005	0.000061
1821	1.8109e+02	-7.4870	-27.226443	0.000314	3.141426	1.064344	0.000126
1822	1.8119e+02	-7.4517	-27.085144	0.000355	3.546771	1.201679	0.000142
1823	1.8129e+02	-7.4164	-27.024587	0.000152	1.520045	0.515005	0.000061
1824	1.8139e+02	-7.3714	-26.915584	0.000274	2.736081	0.927009	0.000110
1825	1.8149e+02	-7.3329	-26.794470	0.000304	3.040090	1.030010	0.000122
1826	1.8159e+02	-7.2832	-26.657207	0.000345	3.445435	1.167345	0.000138
1827	1.8169e+02	-7.2543	-26.588576	0.000172	1.722717	0.583672	0.000069
1828	1.8179e+02	-7.2078	-26.467462	0.000304	3.040090	1.030010	0.000122
1829	1.8189e+02	-7.1645	-26.394793	0.000182	1.824054	0.618006	0.000073
1830	1.8199e+02	-7.1324	-26.273679	0.000304	3.040090	1.030010	0.000122
1831	1.8209e+02	-7.0923	-26.168714	0.000263	2.634744	0.892676	0.000105
1832	1.8218e+02	-7.0538	-26.063748	0.000263	2.634744	0.892676	0.000105
1833	1.8228e+02	-7.0121	-26.011266	0.000132	1.317372	0.446338	0.000053
1834	1.8238e+02	-6.9672	-25.845743	0.000415	4.154789	1.407681	0.000166
1835	1.8248e+02	-6.9383	-25.777112	0.000172	1.722717	0.583672	0.000069
1836	1.8258e+02	-6.8966	-25.639849	0.000345	3.445435	1.167345	0.000138
1837	1.8268e+02	-6.8501	-25.534884	0.000263	2.634744	0.892676	0.000105
1838	1.8278e+02	-6.8003	-25.474327	0.000152	1.520045	0.515005	0.000061
1839	1.8288e+02	-6.7699	-25.328990	0.000365	3.648108	1.236012	0.000146
1840	1.8298e+02	-6.7217	-25.211913	0.000294	2.938753	0.995677	0.000118
1841	1.8308e+02	-6.6848	-25.119059	0.000233	2.330735	0.789675	0.000093
1842	1.8318e+02	-6.6511	-25.018130	0.000253	2.533408	0.858342	0.000101
1843	1.8328e+02	-6.6126	-24.909128	0.000274	2.736081	0.927009	0.000110
1844	1.8338e+02	-6.5645	-24.816273	0.000233	2.330735	0.789675	0.000093
1845	1.8348e+02	-6.5228	-24.683048	0.000334	3.344099	1.133011	0.000134
1846	1.8358e+02	-6.4923	-24.590194	0.000233	2.330735	0.789675	0.000093
1847	1.8368e+02	-6.4651	-24.465043	0.000314	3.141426	1.064344	0.000126
1848	1.8378e+02	-6.4153	-24.335854	0.000324	3.242762	1.098678	0.000130
1849	1.8388e+02	-6.3768	-24.251074	0.000213	2.128063	0.721007	0.000085
1850	1.8398e+02	-6.3383	-24.162257	0.000223	2.229399	0.755341	0.000089
1851	1.8407e+02	-6.2934	-24.037106	0.000314	3.141426	1.064344	0.000126
1852	1.8417e+02	-6.2549	-23.920029	0.000294	2.938753	0.995677	0.000118
1853	1.8427e+02	-6.2132	-23.806989	0.000284	2.837417	0.961343	0.000114
1854	1.8437e+02	-6.1699	-23.706061	0.000253	2.533408	0.858342	0.000101
1855	1.8447e+02	-6.1346	-23.621281	0.000213	2.128063	0.721007	0.000085
1856	1.8457e+02	-6.0945	-23.520353	0.000253	2.533408	0.858342	0.000101
1857	1.8467e+02	-6.0560	-23.423462	0.000243	2.432072	0.824008	0.000097
1858	1.8477e+02	-6.0223	-23.290236	0.000334	3.344099	1.133011	0.000134
1859	1.8487e+02	-5.9790	-23.201419	0.000223	2.229399	0.755341	0.000089
1860	1.8497e+02	-5.9292	-23.080305	0.000304	3.040090	1.030010	0.000122
1861	1.8507e+02	-5.8891	-23.011674	0.000172	1.722717	0.583672	0.000069
1862	1.8517e+02	-5.8603	-22.854225	0.000395	3.952117	1.339013	0.000158
1863	1.8527e+02	-5.8137	-22.757334	0.000243	2.432072	0.824008	0.000097
1864	1.8537e+02	-5.7752	-22.624109	0.000334	3.344099	1.133011	0.000134
1865	1.8547e+02	-5.7303	-22.511069	0.000284	2.837417	0.961343	0.000114
1866	1.8557e+02	-5.6918	-22.434363	0.000193	1.925390	0.652340	0.000077
1867	1.8567e+02	-5.6549	-22.341509	0.000233	2.330735	0.789675	0.000093
1868	1.8577e+02	-5.6132	-22.200209	0.000355	3.546771	1.201679	0.000142
1869	1.8587e+02	-5.5747	-22.083132	0.000294	2.938753	0.995677	0.000118
1870	1.8597e+02	-5.5346	-21.986241	0.000243	2.432072	0.824008	0.000097
1871	1.8606e+02	-5.4993	-21.893387	0.000233	2.330735	0.789675	0.000093
1872	1.8616e+02	-5.4560	-21.792459	0.000253	2.533408	0.858342	0.000101
1873	1.8626e+02	-5.4191	-21.635010	0.000395	3.952117	1.339013	0.000158
1874	1.8636e+02	-5.3758	-21.574453	0.000152	1.520045	0.515005	0.000061
1875	1.8646e+02	-5.3373	-21.400857	0.000436	4.357462	1.476348	0.000174
1876	1.8656e+02	-5.2876	-21.324151	0.000193	1.925390	0.652340	0.000077
1877	1.8666e+02	-5.2507	-21.211111	0.000284	2.837417	0.961343	0.000114
1878	1.8676e+02	-5.2202	-21.085960	0.000314	3.141426	1.064344	0.000126
1879	1.8686e+02	-5.1769	-20.993106	0.000233	2.330735	0.789675	0.000093
1880	1.8696e+02	-5.1319	-20.855843	0.000345	3.445435	1.167345	0.000138
1881	1.8706e+02	-5.0966	-20.775101	0.000203	2.026726	0.686674	0.000081
1882	1.8716e+02	-5.0614	-20.649949	0.000314	3.141426	1.064344	0.000126
1883	1.8726e+02	-5.0229	-20.532872	0.000294	2.938753	0.995677	0.000118
1884	1.8736e+02	-4.9860	-20.427907	0.000263	2.634744	0.892676	0.000105
1885	1.8746e+02	-4.9394	-20.310830	0.000294	2.938753	0.995677	0.000118
1886	1.8756e+02	-4.8961	-20.205864	0.000263	2.634744	0.892676	0.000105
1887	1.8766e+02	-4.8640	-20.096862	0.000274	2.736081	0.927009	0.000110
1888	1.8776e+02	-4.8191	-19.959599	0.000345	3.445435	1.167345	0.000138
1889	1.8786e+02	-4.7774	-19.842522	0.000294	2.938753	0.995677	0.000118
1890	1.8796e+02	-4.7357	-19.781965	0.000152	1.520045	0.515005	0.000061
1891	1.8806e+02	-4.6972	-19.620480	0.000405	4.053453	1.373347	0.000162
1892	1.8815e+02	-4.6587	-19.527626	0.000233	2.330735	0.789675	0.000093
1893	1.8825e+02	-4.6186	-19.430734	0.000243	2.432072	0.824008	0.000097
1894	1.8835e+02	-4.5785	-19.317695	0.000284	2.837417	0.961343	0.000114
1895	1.8845e+02	-4.5400	-19.172358	0.000365	3.648108	1.236012	0.000146
1896	1.8855e+02	-4.5063	-19.075466	0.000243	2.432072	0.824008	0.000097
1897	1.8865e+02	-4.4566	-18.994724	0.000203	2.026726	0.686674	0.000081
1898	1.8875e+02	-4.4148	-18.841312	0.000385	3.850780	1.304680	0.000154
1899	1.8885e+02	-4.3844	-18.683864	0.000395	3.952117	1.339013	0.000158
1900	1.8895e+02	-4.3378	-18.595047	0.000223	2.229399	0.755341	0.000089
1901	1.8905e+02	-4.3026	-18.518342	0.000193	1.925390	0.652340	0.000077
1902	1.8915e+02	-4.2592	-18.360893	0.000395	3.952117	1.339013	0.000158
1903	1.8925e+02	-4.2207	-18.268039	0.000233	2.330735	0.789675	0.000093
1904	1.8935e+02	-4.1742	-18.138851	0.000324	3.242762	1.098678	0.000130
1905	1.8945e+02	-4.1453	-18.001588	0.000345	3.445435	1.167345	0.000138
1906	1.8955e+02	-4.1020	-17.880474	0.000304	3.040090	1.030010	0.000122
1907	1.8965e+02	-4.0651	-17.767434	0.000284	2.837417	0.961343	0.000114
1908	1.8975e+02	-4.0330	-17.706877	0.000152	1.520045	0.515005	0.000061
1909	1.8985e+02	-3.9833	-17.565578	0.000355	3.546771	1.201679	0.000142
1910	1.8995e+02	-3.9336	-17.440426	0.000314	3.141426	1.064344	0.000126
1911	1.9004e+02	-3.9095	-17.355647	0.000213	2.128063	0.721007	0.000085
1912	1.9014e+02	-3.8598	-17.190124	0.000415	4.154789	1.407681	0.000166
1913	1.9024e+02	-3.8197	-17.081121	0.000274	2.736081	0.927009	0.000110
1914	1.9034e+02	-3.7876	-16.992304	0.000223	2.229399	0.755341	0.000089
1915	1.9044e+02	-3.7459	-16.818707	0.000436	4.357462	1.476348	0.000174
1916	1.9054e+02	-3.7042	-16.725853	0.000233	2.330735	0.789675	0.000093
1917	1.9064e+02	-3.6593	-16.592628	0.000334	3.344099	1.133011	0.000134
1918	1.9074e+02	-3.6240	-16.495737	0.000243	2.432072	0.824008	0.000097
1919	1.9084e+02	-3.5774	-16.374623	0.000304	3.040090	1.030010	0.000122
1920	1.9094e+02	-3.5421	-16.289843	0.000213	2.128063	0.721007	0.000085
1921	1.9104e+02	-3.5052	-16.156617	0.000334	3.344099	1.133011	0.000134
1922	1.9114e+02	-3.4667	-16.027429	0.000324	3.242762	1.098678	0.000130
1923	1.9124e+02	-3.4218	-15.914389	0.000284	2.837417	0.961343	0.000114
1924	1.9134e+02	-3.3769	-15.777126	0.000345	3.445435	1.167345	0.000138
1925	1.9144e+02	-3.3416	-15.668124	0.000274	2.736081	0.927009	0.000110
1926	1.9154e+02	-3.3095	-15.555084	0.000284	2.837417	0.961343	0.000114
1927	1.9164e+02	-3.2630	-15.442044	0.000284	2.837417	0.961343	0.000114
1928	1.9174e+02	-3.2229	-15.308819	0.000334	3.344099	1.133011	0.000134
1929	1.9184e+02	-3.1876	-15.232113	0.000193	1.925390	0.652340	0.000077
1930	1.9194e+02	-3.1395	-15.070628	0.000405	4.053453	1.373347	0.000162
1931	1.9203e+02	-3.0930	-14.969699	0.000253	2.533408	0.858342	0.000101
1932	1.9213e+02	-3.0657	-14.828400	0.000355	3.546771	1.201679	0.000142
1933	1.9223e+02	-3.0320	-14.747657	0.000203	2.026726	0.686674	0.000081
1934	1.9233e+02	-2.9775	-14.602320	0.000365	3.648108	1.236012	0.000146
1935	1.9243e+02	-2.9438	-14.513503	0.000223	2.229399	0.755341	0.000089
1936	1.9253e+02	-2.9165	-14.380277	0.000334	3.344099	1.133011	0.000134
1937	1.9263e+02	-2.8668	-14.275312	0.000263	2.634744	0.892676	0.000105
1938	1.9273e+02	-2.8251	-14.158235	0.000294	2.938753	0.995677	0.000118
1939	1.9283e+02	-2.7833	-14.025010	0.000334	3.344099	1.133011	0.000134
1940	1.9293e+02	-2.7481	-13.920044	0.000263	2.634744	0.892676	0.000105
1941	1.9303e+02	-2.7112	-13.798930	0.000304	3.040090	1.030010	0.000122
1942	1.9313e+02	-2.6598	-13.657630	0.000355	3.546771	1.201679	0.000142
1943	1.9323e+02	-2.6181	-13.524405	0.000334	3.344099	1.133011	0.000134
1944	1.9333e+02	-2.6037	-13.443662	0.000203	2.026726	0.686674	0.000081
1945	1.9343e+02	-2.5523	-13.322548	0.000304	3.040090	1.030010	0.000122
1946	1.9353e+02	-2.5074	-13.181248	0.000355	3.546771	1.201679	0.000142
1947	1.9363e+02	-2.4625	-13.064171	0.000294	2.938753	0.995677	0.000118
1948	1.9373e+02	-2.4240	-12.918834	0.000365	3.648108	1.236012	0.000146
1949	1.9383e+02	-2.3823	-12.862314	0.000142	1.418709	0.480671	0.000057
1950	1.9393e+02	-2.3534	-12.749275	0.000284	2.837417	0.961343	0.000114
1951	1.9403e+02	-2.3053	-12.571641	0.000446	4.458798	1.510682	0.000179
1952	1.9412e+02	-2.2732	-12.462638	0.000274	2.736081	0.927009	0.000110
1953	1.9422e+02	-2.2379	-12.349598	0.000284	2.837417	0.961343	0.000114
1954	1.9432e+02	-2.1962	-12.228484	0.000304	3.040090	1.030010	0.000122
1955	1.9442e+02	-2.1513	-12.107370	0.000304	3.040090	1.030010	0.000122
1956	1.9452e+02	-2.1128	-11.982219	0.000314	3.141426	1.064344	0.000126
1957	1.9462e+02	-2.0775	-11.836882	0.000365	3.648108	1.236012	0.000146
1958	1.9472e+02	-2.0278	-11.735954	0.000253	2.533408	0.858342	0.000101
1959	1.9482e+02	-1.9973	-11.618877	0.000294	2.938753	0.995677	0.000118
1960	1.9492e+02	-1.9588	-11.497763	0.000304	3.040090	1.030010	0.000122
1961	1.9502e+02	-1.9122	-11.376649	0.000304	3.040090	1.030010	0.000122
1962	1.9512e+02	-1.8625	-11.271683	0.000263	2.634744	0.892676	0.000105
1963	1.9522e+02	-1.8352	-11.162680	0.000274	2.736081	0.927009	0.000110
1964	1.9532e+02	-1.7935	-11.021381	0.000355	3.546771	1.201679	0.000142
1965	1.9542e+02	-1.7390	-10.908341	0.000284	2.837417	0.961343	0.000114
1966	1.9552e+02	-1.7037	-10.771078	0.000345	3.445435	1.167345	0.000138
1967	1.9562e+02	-1.6732	-10.682261	0.000223	2.229399	0.755341	0.000089
1968	1.9572e+02	-1.6283	-10.544999	0.000345	3.445435	1.167345	0.000138
1969	1.9582e+02	-1.5850	-10.448107	0.000243	2.432072	0.824008	0.000097
1970	1.9592e+02	-1.5561	-10.318919	0.000324	3.242762	1.098678	0.000130
1971	1.9601e+02	-1.5096	-10.205879	0.000284	2.837417	0.961343	0.000114
1972	1.9611e+02	-1.4743	-10.084765	0.000304	3.040090	1.030010	0.000122
1973	1.9621e+02	-1.4342	-9.943465	0.000355	3.546771	1.201679	0.000142
1974	1.9631e+02	-1.3877	-9.818314	0.000314	3.141426	1.064344	0.000126
1975	1.9641e+02	-1.3556	-9.725460	0.000233	2.330735	0.789675	0.000093
1976	1.9651e+02	-1.3203	-9.620494	0.000263	2.634744	0.892676	0.000105
1977	1.9661e+02	-1.2722	-9.475158	0.000365	3.648108	1.236012	0.000146
1978	1.9671e+02	-1.2288	-9.325784	0.000375	3.749444	1.270346	0.000150
1979	1.9681e+02	-1.1919	-9.232929	0.000233	2.330735	0.789675	0.000093
1980	1.9691e+02	-1.1599	-9.123927	0.000274	2.736081	0.927009	0.000110
1981	1.9701e+02	-1.1214	-8.982627	0.000355	3.546771	1.201679	0.000142
1982	1.9711e+02	-1.0796	-8.877661	0.000263	2.634744	0.892676	0.000105
1983	1.9721e+02	-1.0283	-8.804993	0.000182	1.824054	0.618006	0.000073
1984	1.9731e+02	-0.9930	-8.623322	0.000456	4.560135	1.545015	0.000183
1985	1.9741e+02	-0.9577	-8.494134	0.000324	3.242762	1.098678	0.000130
1986	1.9751e+02	-0.9112	-8.368982	0.000314	3.141426	1.064344	0.000126
1987	1.9761e+02	-0.8711	-8.264017	0.000263	2.634744	0.892676	0.000105
1988	1.9771e+02	-0.8390	-8.183274	0.000203	2.026726	0.686674	0.000081
1989	1.9781e+02	-0.7925	-8.050049	0.000334	3.344099	1.133011	0.000134
1990	1.9791e+02	-0.7524	-7.916823	0.000334	3.344099	1.133011	0.000134
1991	1.9800e+02	-0.7139	-7.799746	0.000294	2.938753	0.995677	0.000118
1992	1.9810e+02	-0.6722	-7.682669	0.000294	2.938753	0.995677	0.000118
1993	1.9820e+02	-0.6401	-7.581741	0.000253	2.533408	0.858342	0.000101
1994	1.9830e+02	-0.6032	-7.472738	0.000274	2.736081	0.927009	0.000110
1995	1.9840e+02	-0.5535	-7.343550	0.000324	3.242762	1.098678	0.000130
1996	1.9850e+02	-0.5134	-7.226473	0.000294	2.938753	0.995677	0.000118
1997	1.9860e+02	-0.4749	-7.097285	0.000324	3.242762	1.098678	0.000130
1998	1.9870e+02	-0.4347	-6.964059	0.000334	3.344099	1.133011	0.000134
1999	1.9880e+02	-0.3882	-6.814685	0.000375	3.749444	1.270346	0.000150
2000	1.9890e+02	-0.3577	-6.766239	0.000122	1.216036	0.412004	0.000049
2001	1.9900e+02	-0.3128	-6.592643	0.000436	4.357462	1.476348	0.000174
2002	1.9910e+02	-0.2775	-6.524011	0.000172	1.722717	0.583672	0.000069
2003	1.9920e+02	-0.2390	-6.366563	0.000395	3.952117	1.339013	0.000158
2004	1.9930e+02	-0.1957	-6.249486	0.000294	2.938753	0.995677	0.000118
2005	1.9940e+02	-0.1588	-6.144521	0.000263	2.634744	0.892676	0.000105
2006	1.9950e+02	-0.1123	-6.059741	0.000213	2.128063	0.721007	0.000085
2007	1.9960e+02	-0.0738	-5.894218	0.000415	4.154789	1.407681	0.000166
2008	1.9970e+02	-0.0289	-5.777141	0.000294	2.938753	0.995677	0.000118
2009	1.9980e+02	0.0048	-5.664101	0.000294	2.938753	0.995677	0.000114

PMax (uC/cm2):	5.80e+01
Pr (uC/cm2):	2.86e+00
-Pr (uC/cm2):	-2.56e+00
PLoss (uC/cm2):	-2.54e+00
-Vc:	-9.42e-01
C (Max-Eff) (nF):	2.90e-01
K (Eff):	9.83e+02
Vert. (+/-Pr) Shift (uC/cm2):	1.49e-01
Offset (uC/cm2):	3.10e+00

A (Loop Area - uC/cm2·Volts):	-3.35e-03



Hysteresis Version: 5.48.1 - Radiant Technologies, Inc., 1999 - 9/12/24

