»»»»»»»»»»»»»»»»»»»»»»»»»»»»»»»»»»»» Hysteresis ««««««««««««««««««««««««««««««««««««
»»»  Executed Version:	5.48.1
»»»  Vision Version:	5.48.4 (R)
»»»  Vision Compiled:	9/18/24
»»»  Driver Version:	5.47.0
»»»  Windows Version:	Windows 8 or 8.1
»»»  Processor Information:	x86 (AMD or Intel) - 32 Processors
»»»  Tester Name:	PMF21124-494 (100V)
»»»  Tester S/N:	PMF21124-494
»»»  Internal Amp Type:	100V RevK 270k
»»»  Internal Amp S/N:	iAB2-596/K     
»»»  Execution Count:	1
»»»»»»»»»»»»»»»»»»»»»»»»»»»»»»»»»»»»»»»»»»««««««««««««««««««««««««««««««««««««««««««

Stored:	6/17/2025 - 14:56:50
Configured:	06/17/25 10:39:14 AM
Executed:	06/17/25 02:56:17 PM

»»»»»»»»»»»»»»»»»»»»»»»»»»»»»»»»»»» Sample Info ««««««««««««««««««««««««««««««««««««
Sample Name:	
Lot Name:	
Wafer Name:	
Die Row/Column:	0/0
Capacitor Number:	0
Sample Area (cm2):	1.00e-04
Sample Thickness (microns):	3.00e-01

Amplifier:	Internal

»»»»»»»»»»»»»»»»»»»»»»»»»»»»»»»»»»» Tester Info «««««««««««««««««««««««««««««««««««
Tester Name:	PMF21124-494 (100V)
Tester Serial Number:	PMF21124-494
Return Signal Amp. Level:	0.19 [Index: 3]

»»»»»»»»»»»»»»»»»»»»»»»»»»»»»»»» Hysteresis Info ««««««««««««««««««««««««««««««««««
Task Name:	Hyst-180
Volts:	20.00
Field:	666.67 (kV/cm)
DCBias:	0.00
DCField:	0.00 (kV/cm)
Hysteresis Period (ms):	2.00e+02
Preset:	Enabled
Preset Delay (ms):	1.00e+03
Profile:	Standard Bipolar

»»»»»»»»»»»»»»»»»»»»»»»»»»»»»»»»»»»»»» Data «««««««««««««««««««««««««««««««««««««««
Points:	2009

Valid Data

Point	Time (ms)	Drive Voltage	Measured Polarization (uC/cm2)	Capacitance (uF)	Normalized Capacitance (uF/cm2)	Dielectric Constant	Instantaneous Current (mA)
   1	0.0000e+00	0.0064	-2.821958	0.000193	1.925197	0.652274	0.000077
   2	9.9500e-02	0.0385	-2.745252	0.000193	1.925197	0.652274	0.000077
   3	1.9900e-01	0.0834	-2.616064	0.000324	3.242437	1.098567	0.000130
   4	2.9850e-01	0.1219	-2.519173	0.000243	2.431828	0.823926	0.000097
   5	3.9800e-01	0.1492	-2.385947	0.000334	3.343763	1.132898	0.000134
   6	4.9750e-01	0.1909	-2.248685	0.000345	3.445090	1.167228	0.000138
   7	5.9700e-01	0.2438	-2.159868	0.000223	2.229176	0.755265	0.000089
   8	6.9650e-01	0.2823	-1.990308	0.000426	4.255699	1.441870	0.000170
   9	7.9600e-01	0.3112	-1.873231	0.000294	2.938459	0.995577	0.000118
  10	8.9550e-01	0.3561	-1.764228	0.000274	2.735806	0.926916	0.000110
  11	9.9500e-01	0.3946	-1.691560	0.000182	1.823871	0.617944	0.000073
  12	1.0945e+00	0.4476	-1.534112	0.000395	3.951720	1.338879	0.000158
  13	1.1940e+00	0.4732	-1.461443	0.000182	1.823871	0.617944	0.000073
  14	1.2935e+00	0.5069	-1.372626	0.000223	2.229176	0.755265	0.000089
  15	1.3930e+00	0.5486	-1.243438	0.000324	3.242437	1.098567	0.000130
  16	1.4925e+00	0.5952	-1.138472	0.000263	2.634480	0.892586	0.000105
  17	1.5920e+00	0.6273	-0.989098	0.000375	3.749068	1.270219	0.000150
  18	1.6915e+00	0.6786	-0.876058	0.000284	2.837133	0.961247	0.000114
  19	1.7910e+00	0.7123	-0.783204	0.000233	2.330502	0.789595	0.000093
  20	1.8905e+00	0.7524	-0.654016	0.000324	3.242437	1.098567	0.000130
  21	1.9900e+00	0.7909	-0.545013	0.000274	2.735806	0.926916	0.000110
  22	2.0895e+00	0.8310	-0.419862	0.000314	3.141111	1.064237	0.000126
  23	2.1890e+00	0.8775	-0.290674	0.000324	3.242437	1.098567	0.000130
  24	2.2885e+00	0.9112	-0.161485	0.000324	3.242437	1.098567	0.000130
  25	2.3880e+00	0.9545	-0.036334	0.000314	3.141111	1.064237	0.000126
  26	2.4875e+00	0.9898	0.129188	0.000415	4.154373	1.407540	0.000166
  27	2.5870e+00	1.0379	0.201857	0.000182	1.823871	0.617944	0.000073
  28	2.6865e+00	1.0716	0.363342	0.000405	4.053047	1.373209	0.000162
  29	2.7860e+00	1.1069	0.444085	0.000203	2.026523	0.686605	0.000081
  30	2.8855e+00	1.1567	0.561162	0.000294	2.938459	0.995577	0.000118
  31	2.9850e+00	1.1919	0.694387	0.000334	3.343763	1.132898	0.000134
  32	3.0845e+00	1.2256	0.807427	0.000284	2.837133	0.961247	0.000114
  33	3.1840e+00	1.2802	0.896244	0.000223	2.229176	0.755265	0.000089
  34	3.2835e+00	1.3091	1.025432	0.000324	3.242437	1.098567	0.000130
  35	3.3830e+00	1.3572	1.122324	0.000243	2.431828	0.823926	0.000097
  36	3.4825e+00	1.3877	1.251512	0.000324	3.242437	1.098567	0.000130
  37	3.5820e+00	1.4326	1.372626	0.000304	3.039785	1.029907	0.000122
  38	3.6815e+00	1.4631	1.522000	0.000375	3.749068	1.270219	0.000150
  39	3.7810e+00	1.5032	1.626966	0.000263	2.634480	0.892586	0.000105
  40	3.8805e+00	1.5529	1.727894	0.000253	2.533154	0.858256	0.000101
  41	3.9800e+00	1.5882	1.812674	0.000213	2.127849	0.720935	0.000085
  42	4.0795e+00	1.6299	1.953974	0.000355	3.546416	1.201558	0.000142
  43	4.1790e+00	1.6652	2.087199	0.000334	3.343763	1.132898	0.000134
  44	4.2785e+00	1.7069	2.256759	0.000426	4.255699	1.441870	0.000170
  45	4.3780e+00	1.7502	2.373836	0.000294	2.938459	0.995577	0.000118
  46	4.4775e+00	1.7871	2.527247	0.000385	3.850394	1.304549	0.000154
  47	4.5770e+00	1.8320	2.607990	0.000203	2.026523	0.686605	0.000081
  48	4.6765e+00	1.8802	2.725067	0.000294	2.938459	0.995577	0.000118
  49	4.7760e+00	1.9138	2.821958	0.000243	2.431828	0.823926	0.000097
  50	4.8755e+00	1.9507	2.934998	0.000284	2.837133	0.961247	0.000114
  51	4.9750e+00	1.9973	3.048037	0.000284	2.837133	0.961247	0.000114
  52	5.0745e+00	2.0261	3.209523	0.000405	4.053047	1.373209	0.000162
  53	5.1740e+00	2.0743	3.302377	0.000233	2.330502	0.789595	0.000093
  54	5.2735e+00	2.0999	3.431565	0.000324	3.242437	1.098567	0.000130
  55	5.3730e+00	2.1481	3.564791	0.000334	3.343763	1.132898	0.000134
  56	5.4725e+00	2.1914	3.689942	0.000314	3.141111	1.064237	0.000126
  57	5.5720e+00	2.2315	3.790870	0.000253	2.533154	0.858256	0.000101
  58	5.6715e+00	2.2700	3.924096	0.000334	3.343763	1.132898	0.000134
  59	5.7710e+00	2.3069	4.061359	0.000345	3.445090	1.167228	0.000138
  60	5.8705e+00	2.3390	4.170361	0.000274	2.735806	0.926916	0.000110
  61	5.9700e+00	2.3919	4.335884	0.000415	4.154373	1.407540	0.000166
  62	6.0695e+00	2.4224	4.444886	0.000274	2.735806	0.926916	0.000110
  63	6.1690e+00	2.4673	4.618483	0.000436	4.357025	1.476200	0.000174
  64	6.2685e+00	2.5170	4.687115	0.000172	1.722545	0.583614	0.000069
  65	6.3680e+00	2.5411	4.848600	0.000405	4.053047	1.373209	0.000162
  66	6.4675e+00	2.5892	4.973751	0.000314	3.141111	1.064237	0.000126
  67	6.5670e+00	2.6277	5.066605	0.000233	2.330502	0.789595	0.000093
  68	6.6665e+00	2.6727	5.171571	0.000263	2.634480	0.892586	0.000105
  69	6.7660e+00	2.7031	5.272499	0.000253	2.533154	0.858256	0.000101
  70	6.8655e+00	2.7481	5.381502	0.000274	2.735806	0.926916	0.000110
  71	6.9650e+00	2.7866	5.518765	0.000345	3.445090	1.167228	0.000138
  72	7.0645e+00	2.8331	5.651990	0.000334	3.343763	1.132898	0.000134
  73	7.1640e+00	2.8636	5.740807	0.000223	2.229176	0.755265	0.000089
  74	7.2635e+00	2.8988	5.906330	0.000415	4.154373	1.407540	0.000166
  75	7.3630e+00	2.9422	6.019369	0.000284	2.837133	0.961247	0.000114
  76	7.4625e+00	2.9903	6.132409	0.000284	2.837133	0.961247	0.000114
  77	7.5620e+00	3.0256	6.265635	0.000334	3.343763	1.132898	0.000134
  78	7.6615e+00	3.0625	6.423083	0.000395	3.951720	1.338879	0.000158
  79	7.7610e+00	3.1058	6.572457	0.000375	3.749068	1.270219	0.000150
  80	7.8605e+00	3.1475	6.697608	0.000314	3.141111	1.064237	0.000126
  81	7.9600e+00	3.1940	6.834871	0.000345	3.445090	1.167228	0.000138
  82	8.0595e+00	3.2117	6.907539	0.000182	1.823871	0.617944	0.000073
  83	8.1590e+00	3.2646	7.052876	0.000365	3.647742	1.235888	0.000146
  84	8.2585e+00	3.3063	7.165916	0.000284	2.837133	0.961247	0.000114
  85	8.3580e+00	3.3432	7.258770	0.000233	2.330502	0.789595	0.000093
  86	8.4575e+00	3.3817	7.347587	0.000223	2.229176	0.755265	0.000089
  87	8.5570e+00	3.4170	7.492924	0.000365	3.647742	1.235888	0.000146
  88	8.6565e+00	3.4603	7.593852	0.000253	2.533154	0.858256	0.000101
  89	8.7560e+00	3.5036	7.743226	0.000375	3.749068	1.270219	0.000150
  90	8.8555e+00	3.5438	7.819932	0.000193	1.925197	0.652274	0.000077
  91	8.9550e+00	3.5823	7.924897	0.000263	2.634480	0.892586	0.000105
  92	9.0545e+00	3.6224	8.110606	0.000466	4.661003	1.579191	0.000187
  93	9.1540e+00	3.6625	8.155014	0.000111	1.114588	0.377633	0.000045
  94	9.2535e+00	3.6978	8.304388	0.000375	3.749068	1.270219	0.000150
  95	9.3530e+00	3.7330	8.437614	0.000334	3.343763	1.132898	0.000134
  96	9.4525e+00	3.7796	8.578913	0.000355	3.546416	1.201558	0.000142
  97	9.5520e+00	3.8197	8.732325	0.000385	3.850394	1.304549	0.000154
  98	9.6515e+00	3.8662	8.845364	0.000284	2.837133	0.961247	0.000114
  99	9.7510e+00	3.8967	8.954367	0.000274	2.735806	0.926916	0.000110
 100	9.8505e+00	3.9400	9.095667	0.000355	3.546416	1.201558	0.000142
 101	9.9500e+00	3.9929	9.204669	0.000274	2.735806	0.926916	0.000110
 102	1.0050e+01	4.0138	9.281375	0.000193	1.925197	0.652274	0.000077
 103	1.0149e+01	4.0587	9.414601	0.000334	3.343763	1.132898	0.000134
 104	1.0248e+01	4.0988	9.535715	0.000304	3.039785	1.029907	0.000122
 105	1.0348e+01	4.1421	9.636643	0.000253	2.533154	0.858256	0.000101
 106	1.0447e+01	4.1838	9.753720	0.000294	2.938459	0.995577	0.000118
 107	1.0547e+01	4.2175	9.870797	0.000294	2.938459	0.995577	0.000118
 108	1.0646e+01	4.2608	9.999985	0.000324	3.242437	1.098567	0.000130
 109	1.0746e+01	4.2865	10.092839	0.000233	2.330502	0.789595	0.000093
 110	1.0845e+01	4.3330	10.205879	0.000284	2.837133	0.961247	0.000114
 111	1.0945e+01	4.3780	10.355253	0.000375	3.749068	1.270219	0.000150
 112	1.1044e+01	4.4213	10.448107	0.000233	2.330502	0.789595	0.000093
 113	1.1144e+01	4.4614	10.593444	0.000365	3.647742	1.235888	0.000146
 114	1.1243e+01	4.5015	10.787227	0.000486	4.863656	1.647851	0.000195
 115	1.1343e+01	4.5368	10.900266	0.000284	2.837133	0.961247	0.000114
 116	1.1443e+01	4.5769	11.005232	0.000263	2.634480	0.892586	0.000105
 117	1.1542e+01	4.6154	11.134420	0.000324	3.242437	1.098567	0.000130
 118	1.1642e+01	4.6571	11.239386	0.000263	2.634480	0.892586	0.000105
 119	1.1741e+01	4.6908	11.332240	0.000233	2.330502	0.789595	0.000093
 120	1.1841e+01	4.7437	11.429131	0.000243	2.431828	0.823926	0.000097
 121	1.1940e+01	4.7854	11.542171	0.000284	2.837133	0.961247	0.000114
 122	1.2040e+01	4.8239	11.659248	0.000294	2.938459	0.995577	0.000118
 123	1.2139e+01	4.8640	11.756139	0.000243	2.431828	0.823926	0.000097
 124	1.2239e+01	4.8881	11.897439	0.000355	3.546416	1.201558	0.000142
 125	1.2338e+01	4.9442	12.014516	0.000294	2.938459	0.995577	0.000118
 126	1.2438e+01	4.9747	12.143704	0.000324	3.242437	1.098567	0.000130
 127	1.2537e+01	5.0245	12.264818	0.000304	3.039785	1.029907	0.000122
 128	1.2636e+01	5.0598	12.357672	0.000233	2.330502	0.789595	0.000093
 129	1.2736e+01	5.0870	12.474749	0.000294	2.938459	0.995577	0.000118
 130	1.2835e+01	5.1400	12.599901	0.000314	3.141111	1.064237	0.000126
 131	1.2935e+01	5.1753	12.745238	0.000365	3.647742	1.235888	0.000146
 132	1.3034e+01	5.2089	12.870389	0.000314	3.141111	1.064237	0.000126
 133	1.3134e+01	5.2474	13.027837	0.000395	3.951720	1.338879	0.000158
 134	1.3233e+01	5.2908	13.197397	0.000426	4.255699	1.441870	0.000170
 135	1.3333e+01	5.3325	13.233731	0.000091	0.911935	0.308972	0.000037
 136	1.3432e+01	5.3806	13.350808	0.000294	2.938459	0.995577	0.000118
 137	1.3532e+01	5.4207	13.496145	0.000365	3.647742	1.235888	0.000146
 138	1.3632e+01	5.4608	13.516330	0.000051	0.506631	0.171651	0.000020
 139	1.3731e+01	5.4993	13.665704	0.000375	3.749068	1.270219	0.000150
 140	1.3831e+01	5.5234	13.766633	0.000253	2.533154	0.858256	0.000101
 141	1.3930e+01	5.5795	13.847376	0.000203	2.026523	0.686605	0.000081
 142	1.4030e+01	5.6132	13.980601	0.000334	3.343763	1.132898	0.000134
 143	1.4129e+01	5.6597	14.178421	0.000496	4.964982	1.682181	0.000199
 144	1.4229e+01	5.7047	14.243015	0.000162	1.621219	0.549284	0.000065
 145	1.4328e+01	5.7415	14.356055	0.000284	2.837133	0.961247	0.000114
 146	1.4428e+01	5.7768	14.477169	0.000304	3.039785	1.029907	0.000122
 147	1.4527e+01	5.8121	14.582134	0.000263	2.634480	0.892586	0.000105
 148	1.4627e+01	5.8474	14.711323	0.000324	3.242437	1.098567	0.000130
 149	1.4726e+01	5.8907	14.832437	0.000304	3.039785	1.029907	0.000122
 150	1.4825e+01	5.9389	15.006034	0.000436	4.357025	1.476200	0.000174
 151	1.4925e+01	5.9742	15.119073	0.000284	2.837133	0.961247	0.000114
 152	1.5024e+01	6.0143	15.232113	0.000284	2.837133	0.961247	0.000114
 153	1.5124e+01	6.0624	15.345153	0.000284	2.837133	0.961247	0.000114
 154	1.5223e+01	6.0865	15.482416	0.000345	3.445090	1.167228	0.000138
 155	1.5323e+01	6.1442	15.534898	0.000132	1.317240	0.446293	0.000053
 156	1.5422e+01	6.1683	15.615641	0.000203	2.026523	0.686605	0.000081
 157	1.5522e+01	6.2116	15.760978	0.000365	3.647742	1.235888	0.000146
 158	1.5621e+01	6.2629	15.878055	0.000294	2.938459	0.995577	0.000118
 159	1.5721e+01	6.2854	15.995132	0.000294	2.938459	0.995577	0.000118
 160	1.5820e+01	6.3239	16.100097	0.000263	2.634480	0.892586	0.000105
 161	1.5920e+01	6.3768	16.233323	0.000334	3.343763	1.132898	0.000134
 162	1.6020e+01	6.4217	16.370585	0.000345	3.445090	1.167228	0.000138
 163	1.6119e+01	6.4522	16.459402	0.000223	2.229176	0.755265	0.000089
 164	1.6218e+01	6.4923	16.532071	0.000182	1.823871	0.617944	0.000073
 165	1.6318e+01	6.5324	16.697593	0.000415	4.154373	1.407540	0.000166
 166	1.6418e+01	6.5661	16.822745	0.000314	3.141111	1.064237	0.000126
 167	1.6517e+01	6.6062	16.972119	0.000375	3.749068	1.270219	0.000150
 168	1.6616e+01	6.6544	17.101307	0.000324	3.242437	1.098567	0.000130
 169	1.6716e+01	6.6816	17.254718	0.000385	3.850394	1.304549	0.000154
 170	1.6816e+01	6.7249	17.351609	0.000243	2.431828	0.823926	0.000097
 171	1.6915e+01	6.7683	17.448501	0.000243	2.431828	0.823926	0.000097
 172	1.7015e+01	6.8148	17.569615	0.000304	3.039785	1.029907	0.000122
 173	1.7114e+01	6.8437	17.662469	0.000233	2.330502	0.789595	0.000093
 174	1.7213e+01	6.8902	17.751286	0.000223	2.229176	0.755265	0.000089
 175	1.7313e+01	6.9223	17.872400	0.000304	3.039785	1.029907	0.000122
 176	1.7413e+01	6.9736	18.005625	0.000334	3.343763	1.132898	0.000134
 177	1.7512e+01	7.0153	18.086368	0.000203	2.026523	0.686605	0.000081
 178	1.7611e+01	7.0538	18.235742	0.000375	3.749068	1.270219	0.000150
 179	1.7711e+01	7.0987	18.328596	0.000233	2.330502	0.789595	0.000093
 180	1.7811e+01	7.1308	18.486045	0.000395	3.951720	1.338879	0.000158
 181	1.7910e+01	7.1677	18.558713	0.000182	1.823871	0.617944	0.000073
 182	1.8009e+01	7.2062	18.728273	0.000426	4.255699	1.441870	0.000170
 183	1.8109e+01	7.2399	18.845350	0.000294	2.938459	0.995577	0.000118
 184	1.8209e+01	7.2896	18.998761	0.000385	3.850394	1.304549	0.000154
 185	1.8308e+01	7.3233	19.148135	0.000375	3.749068	1.270219	0.000150
 186	1.8407e+01	7.3698	19.265212	0.000294	2.938459	0.995577	0.000118
 187	1.8507e+01	7.4019	19.386326	0.000304	3.039785	1.029907	0.000122
 188	1.8607e+01	7.4501	19.487254	0.000253	2.533154	0.858256	0.000101
 189	1.8706e+01	7.4821	19.616443	0.000324	3.242437	1.098567	0.000130
 190	1.8805e+01	7.5239	19.713334	0.000243	2.431828	0.823926	0.000097
 191	1.8905e+01	7.5624	19.798114	0.000213	2.127849	0.720935	0.000085
 192	1.9005e+01	7.6057	19.939413	0.000355	3.546416	1.201558	0.000142
 193	1.9104e+01	7.6442	19.995933	0.000142	1.418566	0.480623	0.000057
 194	1.9203e+01	7.6779	20.117047	0.000304	3.039785	1.029907	0.000122
 195	1.9303e+01	7.7212	20.270459	0.000385	3.850394	1.304549	0.000154
 196	1.9402e+01	7.7645	20.383498	0.000284	2.837133	0.961247	0.000114
 197	1.9502e+01	7.8014	20.496538	0.000284	2.837133	0.961247	0.000114
 198	1.9602e+01	7.8511	20.674172	0.000446	4.458351	1.510530	0.000179
 199	1.9701e+01	7.8880	20.754915	0.000203	2.026523	0.686605	0.000081
 200	1.9800e+01	7.9265	20.880066	0.000314	3.141111	1.064237	0.000126
 201	1.9900e+01	7.9618	21.033477	0.000385	3.850394	1.304549	0.000154
 202	2.0000e+01	7.9987	21.158628	0.000314	3.141111	1.064237	0.000126
 203	2.0099e+01	8.0516	21.291854	0.000334	3.343763	1.132898	0.000134
 204	2.0198e+01	8.0837	21.404894	0.000284	2.837133	0.961247	0.000114
 205	2.0298e+01	8.1222	21.505822	0.000253	2.533154	0.858256	0.000101
 206	2.0398e+01	8.1623	21.586565	0.000203	2.026523	0.686605	0.000081
 207	2.0497e+01	8.2040	21.699605	0.000284	2.837133	0.961247	0.000114
 208	2.0596e+01	8.2377	21.800533	0.000253	2.533154	0.858256	0.000101
 209	2.0696e+01	8.2827	21.917610	0.000294	2.938459	0.995577	0.000118
 210	2.0796e+01	8.3276	22.050835	0.000334	3.343763	1.132898	0.000134
 211	2.0895e+01	8.3709	22.188098	0.000345	3.445090	1.167228	0.000138
 212	2.0994e+01	8.4094	22.301138	0.000284	2.837133	0.961247	0.000114
 213	2.1094e+01	8.4479	22.426289	0.000314	3.141111	1.064237	0.000126
 214	2.1194e+01	8.4880	22.515106	0.000223	2.229176	0.755265	0.000089
 215	2.1293e+01	8.5185	22.656406	0.000355	3.546416	1.201558	0.000142
 216	2.1392e+01	8.5538	22.785594	0.000324	3.242437	1.098567	0.000130
 217	2.1492e+01	8.6003	22.870374	0.000213	2.127849	0.720935	0.000085
 218	2.1591e+01	8.6388	22.991488	0.000304	3.039785	1.029907	0.000122
 219	2.1691e+01	8.6805	23.197382	0.000517	5.167634	1.750842	0.000207
 220	2.1791e+01	8.7206	23.318496	0.000304	3.039785	1.029907	0.000122
 221	2.1890e+01	8.7575	23.451722	0.000334	3.343763	1.132898	0.000134
 222	2.1989e+01	8.8008	23.560724	0.000274	2.735806	0.926916	0.000110
 223	2.2089e+01	8.8393	23.645504	0.000213	2.127849	0.720935	0.000085
 224	2.2189e+01	8.8955	23.714135	0.000172	1.722545	0.583614	0.000069
 225	2.2288e+01	8.9179	23.859472	0.000365	3.647742	1.235888	0.000146
 226	2.2387e+01	8.9612	23.992698	0.000334	3.343763	1.132898	0.000134
 227	2.2487e+01	8.9917	24.089589	0.000243	2.431828	0.823926	0.000097
 228	2.2587e+01	9.0495	24.202629	0.000284	2.837133	0.961247	0.000114
 229	2.2686e+01	9.0816	24.319706	0.000294	2.938459	0.995577	0.000118
 230	2.2785e+01	9.1201	24.473117	0.000385	3.850394	1.304549	0.000154
 231	2.2885e+01	9.1666	24.590194	0.000294	2.938459	0.995577	0.000118
 232	2.2985e+01	9.2003	24.727456	0.000345	3.445090	1.167228	0.000138
 233	2.3084e+01	9.2388	24.824348	0.000243	2.431828	0.823926	0.000097
 234	2.3183e+01	9.2853	24.969685	0.000365	3.647742	1.235888	0.000146
 235	2.3283e+01	9.3254	25.098873	0.000324	3.242437	1.098567	0.000130
 236	2.3383e+01	9.3687	25.276507	0.000446	4.458351	1.510530	0.000179
 237	2.3482e+01	9.4056	25.381472	0.000263	2.634480	0.892586	0.000105
 238	2.3581e+01	9.4409	25.470289	0.000223	2.229176	0.755265	0.000089
 239	2.3681e+01	9.4810	25.611589	0.000355	3.546416	1.201558	0.000142
 240	2.3780e+01	9.5179	25.760963	0.000375	3.749068	1.270219	0.000150
 241	2.3880e+01	9.5548	25.801335	0.000101	1.013262	0.343302	0.000041
 242	2.3980e+01	9.6045	25.910337	0.000274	2.735806	0.926916	0.000110
 243	2.4079e+01	9.6318	26.039526	0.000324	3.242437	1.098567	0.000130
 244	2.4178e+01	9.6719	26.132380	0.000233	2.330502	0.789595	0.000093
 245	2.4278e+01	9.7184	26.269642	0.000345	3.445090	1.167228	0.000138
 246	2.4378e+01	9.7602	26.394793	0.000314	3.141111	1.064237	0.000126
 247	2.4477e+01	9.8019	26.507833	0.000284	2.837133	0.961247	0.000114
 248	2.4576e+01	9.8372	26.592613	0.000213	2.127849	0.720935	0.000085
 249	2.4676e+01	9.8773	26.717764	0.000314	3.141111	1.064237	0.000126
 250	2.4776e+01	9.9158	26.846953	0.000324	3.242437	1.098567	0.000130
 251	2.4875e+01	9.9623	26.980178	0.000334	3.343763	1.132898	0.000134
 252	2.4974e+01	9.9960	27.105329	0.000314	3.141111	1.064237	0.000126
 253	2.5074e+01	10.0409	27.238555	0.000334	3.343763	1.132898	0.000134
 254	2.5174e+01	10.0810	27.347557	0.000274	2.735806	0.926916	0.000110
 255	2.5273e+01	10.1131	27.476746	0.000324	3.242437	1.098567	0.000130
 256	2.5372e+01	10.1436	27.609971	0.000334	3.343763	1.132898	0.000134
 257	2.5472e+01	10.2045	27.706863	0.000243	2.431828	0.823926	0.000097
 258	2.5572e+01	10.2318	27.827977	0.000304	3.039785	1.029907	0.000122
 259	2.5671e+01	10.2719	27.924868	0.000243	2.431828	0.823926	0.000097
 260	2.5770e+01	10.3232	28.041945	0.000294	2.938459	0.995577	0.000118
 261	2.5870e+01	10.3553	28.106539	0.000162	1.621219	0.549284	0.000065
 262	2.5970e+01	10.3890	28.215542	0.000274	2.735806	0.926916	0.000110
 263	2.6069e+01	10.4323	28.360879	0.000365	3.647742	1.235888	0.000146
 264	2.6169e+01	10.4756	28.441621	0.000203	2.026523	0.686605	0.000081
 265	2.6268e+01	10.5061	28.603107	0.000405	4.053047	1.373209	0.000162
 266	2.6367e+01	10.5607	28.679812	0.000193	1.925197	0.652274	0.000077
 267	2.6467e+01	10.5944	28.776704	0.000243	2.431828	0.823926	0.000097
 268	2.6567e+01	10.6361	28.901855	0.000314	3.141111	1.064237	0.000126
 269	2.6666e+01	10.6778	29.059303	0.000395	3.951720	1.338879	0.000158
 270	2.6765e+01	10.7002	29.192529	0.000334	3.343763	1.132898	0.000134
 271	2.6865e+01	10.7484	29.293457	0.000253	2.533154	0.858256	0.000101
 272	2.6965e+01	10.7917	29.475128	0.000456	4.559677	1.544860	0.000183
 273	2.7064e+01	10.8302	29.563945	0.000223	2.229176	0.755265	0.000089
 274	2.7163e+01	10.8767	29.685059	0.000304	3.039785	1.029907	0.000122
 275	2.7263e+01	10.9152	29.781950	0.000243	2.431828	0.823926	0.000097
 276	2.7363e+01	10.9601	29.866730	0.000213	2.127849	0.720935	0.000085
 277	2.7462e+01	10.9938	29.967659	0.000253	2.533154	0.858256	0.000101
 278	2.7561e+01	11.0323	30.064550	0.000243	2.431828	0.823926	0.000097
 279	2.7661e+01	11.0869	30.157404	0.000233	2.330502	0.789595	0.000093
 280	2.7761e+01	11.1125	30.266407	0.000274	2.735806	0.926916	0.000110
 281	2.7860e+01	11.1526	30.379446	0.000284	2.837133	0.961247	0.000114
 282	2.7959e+01	11.1975	30.524783	0.000365	3.647742	1.235888	0.000146
 283	2.8059e+01	11.2296	30.593415	0.000172	1.722545	0.583614	0.000069
 284	2.8159e+01	11.2778	30.754900	0.000405	4.053047	1.373209	0.000162
 285	2.8258e+01	11.3259	30.839680	0.000213	2.127849	0.720935	0.000085
 286	2.8358e+01	11.3403	30.960794	0.000304	3.039785	1.029907	0.000122
 287	2.8457e+01	11.3949	31.077871	0.000294	2.938459	0.995577	0.000118
 288	2.8556e+01	11.4318	31.211096	0.000334	3.343763	1.132898	0.000134
 289	2.8656e+01	11.4799	31.328173	0.000294	2.938459	0.995577	0.000118
 290	2.8756e+01	11.5088	31.445250	0.000294	2.938459	0.995577	0.000118
 291	2.8855e+01	11.5473	31.590587	0.000365	3.647742	1.235888	0.000146
 292	2.8954e+01	11.5922	31.671330	0.000203	2.026523	0.686605	0.000081
 293	2.9054e+01	11.6307	31.820704	0.000375	3.749068	1.270219	0.000150
 294	2.9154e+01	11.6836	31.933744	0.000284	2.837133	0.961247	0.000114
 295	2.9253e+01	11.7093	31.974115	0.000101	1.013262	0.343302	0.000041
 296	2.9352e+01	11.7542	32.054858	0.000203	2.026523	0.686605	0.000081
 297	2.9452e+01	11.7911	32.167898	0.000284	2.837133	0.961247	0.000114
 298	2.9552e+01	11.8296	32.301123	0.000334	3.343763	1.132898	0.000134
 299	2.9651e+01	11.8649	32.418200	0.000294	2.938459	0.995577	0.000118
 300	2.9750e+01	11.9146	32.527203	0.000274	2.735806	0.926916	0.000110
 301	2.9850e+01	11.9307	32.636205	0.000274	2.735806	0.926916	0.000110
 302	2.9950e+01	11.9884	32.737134	0.000253	2.533154	0.858256	0.000101
 303	3.0049e+01	12.0269	32.838062	0.000253	2.533154	0.858256	0.000101
 304	3.0148e+01	12.0622	32.955139	0.000294	2.938459	0.995577	0.000118
 305	3.0248e+01	12.1120	33.068179	0.000284	2.837133	0.961247	0.000114
 306	3.0348e+01	12.1424	33.241776	0.000436	4.357025	1.476200	0.000174
 307	3.0447e+01	12.1874	33.346741	0.000263	2.634480	0.892586	0.000105
 308	3.0547e+01	12.2162	33.455744	0.000274	2.735806	0.926916	0.000110
 309	3.0646e+01	12.2692	33.564747	0.000274	2.735806	0.926916	0.000110
 310	3.0745e+01	12.3029	33.681823	0.000294	2.938459	0.995577	0.000118
 311	3.0845e+01	12.3510	33.839272	0.000395	3.951720	1.338879	0.000158
 312	3.0945e+01	12.3927	33.887717	0.000122	1.215914	0.411963	0.000049
 313	3.1044e+01	12.4248	33.960386	0.000182	1.823871	0.617944	0.000073
 314	3.1143e+01	12.4665	34.061314	0.000253	2.533154	0.858256	0.000101
 315	3.1243e+01	12.5050	34.158205	0.000243	2.431828	0.823926	0.000097
 316	3.1343e+01	12.5611	34.259134	0.000253	2.533154	0.858256	0.000101
 317	3.1442e+01	12.5868	34.396396	0.000345	3.445090	1.167228	0.000138
 318	3.1541e+01	12.6349	34.473102	0.000193	1.925197	0.652274	0.000077
 319	3.1641e+01	12.6606	34.598253	0.000314	3.141111	1.064237	0.000126
 320	3.1741e+01	12.7087	34.695145	0.000243	2.431828	0.823926	0.000097
 321	3.1840e+01	12.7456	34.771850	0.000193	1.925197	0.652274	0.000077
 322	3.1939e+01	12.7857	34.953521	0.000456	4.559677	1.544860	0.000183
 323	3.2039e+01	12.8226	35.026190	0.000182	1.823871	0.617944	0.000073
 324	3.2139e+01	12.8692	35.171527	0.000365	3.647742	1.235888	0.000146
 325	3.2238e+01	12.9077	35.349161	0.000446	4.458351	1.510530	0.000179
 326	3.2337e+01	12.9446	35.393569	0.000111	1.114588	0.377633	0.000045
 327	3.2437e+01	12.9863	35.567166	0.000436	4.357025	1.476200	0.000174
 328	3.2536e+01	13.0183	35.603500	0.000091	0.911935	0.308972	0.000037
 329	3.2636e+01	13.0633	35.748837	0.000365	3.647742	1.235888	0.000146
 330	3.2736e+01	13.0954	35.817468	0.000172	1.722545	0.583614	0.000069
 331	3.2835e+01	13.1435	35.898211	0.000203	2.026523	0.686605	0.000081
 332	3.2934e+01	13.1756	36.051622	0.000385	3.850394	1.304549	0.000154
 333	3.3034e+01	13.2237	36.156588	0.000263	2.634480	0.892586	0.000105
 334	3.3133e+01	13.2574	36.253479	0.000243	2.431828	0.823926	0.000097
 335	3.3233e+01	13.3023	36.338259	0.000213	2.127849	0.720935	0.000085
 336	3.3333e+01	13.3472	36.455336	0.000294	2.938459	0.995577	0.000118
 337	3.3432e+01	13.3921	36.588561	0.000334	3.343763	1.132898	0.000134
 338	3.3532e+01	13.4242	36.685452	0.000243	2.431828	0.823926	0.000097
 339	3.3631e+01	13.4675	36.798492	0.000284	2.837133	0.961247	0.000114
 340	3.3730e+01	13.4964	36.931718	0.000334	3.343763	1.132898	0.000134
 341	3.3830e+01	13.5349	37.056869	0.000314	3.141111	1.064237	0.000126
 342	3.3929e+01	13.5750	37.169909	0.000284	2.837133	0.961247	0.000114
 343	3.4029e+01	13.6199	37.319283	0.000375	3.749068	1.270219	0.000150
 344	3.4129e+01	13.6616	37.420211	0.000253	2.533154	0.858256	0.000101
 345	3.4228e+01	13.7034	37.545362	0.000314	3.141111	1.064237	0.000126
 346	3.4328e+01	13.7370	37.646291	0.000253	2.533154	0.858256	0.000101
 347	3.4427e+01	13.7788	37.706848	0.000152	1.519892	0.514953	0.000061
 348	3.4526e+01	13.8237	37.836036	0.000324	3.242437	1.098567	0.000130
 349	3.4626e+01	13.8558	37.908705	0.000182	1.823871	0.617944	0.000073
 350	3.4725e+01	13.8943	38.013670	0.000263	2.634480	0.892586	0.000105
 351	3.4825e+01	13.9279	38.130747	0.000294	2.938459	0.995577	0.000118
 352	3.4925e+01	13.9809	38.259935	0.000324	3.242437	1.098567	0.000130
 353	3.5024e+01	14.0226	38.356827	0.000243	2.431828	0.823926	0.000097
 354	3.5123e+01	14.0595	38.506201	0.000375	3.749068	1.270219	0.000150
 355	3.5223e+01	14.0996	38.607129	0.000253	2.533154	0.858256	0.000101
 356	3.5322e+01	14.1301	38.708057	0.000253	2.533154	0.858256	0.000101
 357	3.5422e+01	14.1734	38.841283	0.000334	3.343763	1.132898	0.000134
 358	3.5522e+01	14.2071	38.938174	0.000243	2.431828	0.823926	0.000097
 359	3.5621e+01	14.2584	39.067363	0.000324	3.242437	1.098567	0.000130
 360	3.5721e+01	14.3001	39.232885	0.000415	4.154373	1.407540	0.000166
 361	3.5820e+01	14.3499	39.353999	0.000304	3.039785	1.029907	0.000122
 362	3.5919e+01	14.3803	39.438779	0.000213	2.127849	0.720935	0.000085
 363	3.6019e+01	14.4188	39.519522	0.000203	2.026523	0.686605	0.000081
 364	3.6118e+01	14.4573	39.580079	0.000152	1.519892	0.514953	0.000061
 365	3.6218e+01	14.4926	39.745601	0.000415	4.154373	1.407540	0.000166
 366	3.6318e+01	14.5424	39.830381	0.000213	2.127849	0.720935	0.000085
 367	3.6417e+01	14.5680	39.943421	0.000284	2.837133	0.961247	0.000114
 368	3.6517e+01	14.6194	40.068572	0.000314	3.141111	1.064237	0.000126
 369	3.6616e+01	14.6611	40.181612	0.000284	2.837133	0.961247	0.000114
 370	3.6715e+01	14.7012	40.294652	0.000284	2.837133	0.961247	0.000114
 371	3.6815e+01	14.7349	40.411729	0.000294	2.938459	0.995577	0.000118
 372	3.6914e+01	14.7782	40.500546	0.000223	2.229176	0.755265	0.000089
 373	3.7014e+01	14.8119	40.609548	0.000274	2.735806	0.926916	0.000110
 374	3.7114e+01	14.8520	40.771034	0.000405	4.053047	1.373209	0.000162
 375	3.7213e+01	14.8889	40.847739	0.000193	1.925197	0.652274	0.000077
 376	3.7313e+01	14.9338	40.964816	0.000294	2.938459	0.995577	0.000118
 377	3.7412e+01	14.9691	41.073819	0.000274	2.735806	0.926916	0.000110
 378	3.7511e+01	15.0156	41.211082	0.000345	3.445090	1.167228	0.000138
 379	3.7611e+01	15.0605	41.324121	0.000284	2.837133	0.961247	0.000114
 380	3.7711e+01	15.0926	41.408901	0.000213	2.127849	0.720935	0.000085
 381	3.7810e+01	15.1375	41.538090	0.000324	3.242437	1.098567	0.000130
 382	3.7910e+01	15.1696	41.647092	0.000274	2.735806	0.926916	0.000110
 383	3.8009e+01	15.2145	41.699575	0.000132	1.317240	0.446293	0.000053
 384	3.8108e+01	15.2450	41.901432	0.000507	5.066308	1.716512	0.000203
 385	3.8208e+01	15.2883	41.953915	0.000132	1.317240	0.446293	0.000053
 386	3.8307e+01	15.3284	42.095214	0.000355	3.546416	1.201558	0.000142
 387	3.8407e+01	15.3734	42.188068	0.000233	2.330502	0.789595	0.000093
 388	3.8507e+01	15.4167	42.341480	0.000385	3.850394	1.304549	0.000154
 389	3.8606e+01	15.4584	42.446445	0.000263	2.634480	0.892586	0.000105
 390	3.8706e+01	15.4937	42.519114	0.000182	1.823871	0.617944	0.000073
 391	3.8805e+01	15.5338	42.640228	0.000304	3.039785	1.029907	0.000122
 392	3.8904e+01	15.5707	42.769416	0.000324	3.242437	1.098567	0.000130
 393	3.9004e+01	15.6156	42.870344	0.000253	2.533154	0.858256	0.000101
 394	3.9103e+01	15.6493	42.991458	0.000304	3.039785	1.029907	0.000122
 395	3.9203e+01	15.6926	43.136795	0.000365	3.647742	1.235888	0.000146
 396	3.9303e+01	15.7311	43.237724	0.000253	2.533154	0.858256	0.000101
 397	3.9402e+01	15.7792	43.318466	0.000203	2.026523	0.686605	0.000081
 398	3.9502e+01	15.8129	43.419395	0.000253	2.533154	0.858256	0.000101
 399	3.9601e+01	15.8594	43.597029	0.000446	4.458351	1.510530	0.000179
 400	3.9700e+01	15.8835	43.665660	0.000172	1.722545	0.583614	0.000069
 401	3.9800e+01	15.9268	43.782737	0.000294	2.938459	0.995577	0.000118
 402	3.9900e+01	15.9766	43.875591	0.000233	2.330502	0.789595	0.000093
 403	3.9999e+01	16.0054	44.016891	0.000355	3.546416	1.201558	0.000142
 404	4.0099e+01	16.0536	44.138005	0.000304	3.039785	1.029907	0.000122
 405	4.0198e+01	16.0921	44.206636	0.000172	1.722545	0.583614	0.000069
 406	4.0297e+01	16.1274	44.356010	0.000375	3.749068	1.270219	0.000150
 407	4.0397e+01	16.1803	44.493273	0.000345	3.445090	1.167228	0.000138
 408	4.0496e+01	16.2124	44.598238	0.000263	2.634480	0.892586	0.000105
 409	4.0596e+01	16.2493	44.695130	0.000243	2.431828	0.823926	0.000097
 410	4.0696e+01	16.2910	44.832392	0.000345	3.445090	1.167228	0.000138
 411	4.0795e+01	16.3231	44.925246	0.000233	2.330502	0.789595	0.000093
 412	4.0895e+01	16.3792	45.058472	0.000334	3.343763	1.132898	0.000134
 413	4.0994e+01	16.4097	45.151326	0.000233	2.330502	0.789595	0.000093
 414	4.1093e+01	16.4514	45.268403	0.000294	2.938459	0.995577	0.000118
 415	4.1193e+01	16.4835	45.393554	0.000314	3.141111	1.064237	0.000126
 416	4.1292e+01	16.5364	45.462186	0.000172	1.722545	0.583614	0.000069
 417	4.1392e+01	16.5653	45.567151	0.000263	2.634480	0.892586	0.000105
 418	4.1492e+01	16.6118	45.716525	0.000375	3.749068	1.270219	0.000150
 419	4.1591e+01	16.6455	45.764971	0.000122	1.215914	0.411963	0.000049
 420	4.1691e+01	16.6824	45.873973	0.000274	2.735806	0.926916	0.000110
 421	4.1790e+01	16.7241	46.027385	0.000385	3.850394	1.304549	0.000154
 422	4.1889e+01	16.7723	46.100053	0.000182	1.823871	0.617944	0.000073
 423	4.1989e+01	16.8140	46.269613	0.000426	4.255699	1.441870	0.000170
 424	4.2089e+01	16.8396	46.322095	0.000132	1.317240	0.446293	0.000053
 425	4.2188e+01	16.8765	46.459358	0.000345	3.445090	1.167228	0.000138
 426	4.2288e+01	16.9263	46.588546	0.000324	3.242437	1.098567	0.000130
 427	4.2387e+01	16.9680	46.649103	0.000152	1.519892	0.514953	0.000061
 428	4.2486e+01	17.0097	46.802515	0.000385	3.850394	1.304549	0.000154
 429	4.2586e+01	17.0466	46.887294	0.000213	2.127849	0.720935	0.000085
 430	4.2685e+01	17.0851	46.984186	0.000243	2.431828	0.823926	0.000097
 431	4.2785e+01	17.1316	47.125485	0.000355	3.546416	1.201558	0.000142
 432	4.2885e+01	17.1605	47.246600	0.000304	3.039785	1.029907	0.000122
 433	4.2984e+01	17.2022	47.331379	0.000213	2.127849	0.720935	0.000085
 434	4.3084e+01	17.2487	47.408085	0.000193	1.925197	0.652274	0.000077
 435	4.3183e+01	17.2904	47.517088	0.000274	2.735806	0.926916	0.000110
 436	4.3282e+01	17.3289	47.654350	0.000345	3.445090	1.167228	0.000138
 437	4.3382e+01	17.3738	47.739130	0.000213	2.127849	0.720935	0.000085
 438	4.3481e+01	17.4043	47.864281	0.000314	3.141111	1.064237	0.000126
 439	4.3581e+01	17.4476	47.969247	0.000263	2.634480	0.892586	0.000105
 440	4.3681e+01	17.4845	48.074212	0.000263	2.634480	0.892586	0.000105
 441	4.3780e+01	17.5359	48.138807	0.000162	1.621219	0.549284	0.000065
 442	4.3880e+01	17.5647	48.239735	0.000253	2.533154	0.858256	0.000101
 443	4.3979e+01	17.6081	48.364886	0.000314	3.141111	1.064237	0.000126
 444	4.4078e+01	17.6369	48.477926	0.000284	2.837133	0.961247	0.000114
 445	4.4178e+01	17.6802	48.603077	0.000314	3.141111	1.064237	0.000126
 446	4.4278e+01	17.7204	48.708043	0.000263	2.634480	0.892586	0.000105
 447	4.4377e+01	17.7701	48.849342	0.000355	3.546416	1.201558	0.000142
 448	4.4477e+01	17.8150	48.909899	0.000152	1.519892	0.514953	0.000061
 449	4.4576e+01	17.8407	49.010828	0.000253	2.533154	0.858256	0.000101
 450	4.4675e+01	17.8840	49.063311	0.000132	1.317240	0.446293	0.000053
 451	4.4775e+01	17.9193	49.204610	0.000355	3.546416	1.201558	0.000142
 452	4.4874e+01	17.9578	49.337836	0.000334	3.343763	1.132898	0.000134
 453	4.4974e+01	18.0027	49.462987	0.000314	3.141111	1.064237	0.000126
 454	4.5074e+01	18.0492	49.567953	0.000263	2.634480	0.892586	0.000105
 455	4.5173e+01	18.0797	49.672918	0.000263	2.634480	0.892586	0.000105
 456	4.5273e+01	18.1214	49.769809	0.000243	2.431828	0.823926	0.000097
 457	4.5372e+01	18.1663	49.903035	0.000334	3.343763	1.132898	0.000134
 458	4.5471e+01	18.2145	49.963592	0.000152	1.519892	0.514953	0.000061
 459	4.5571e+01	18.2353	50.112966	0.000375	3.749068	1.270219	0.000150
 460	4.5670e+01	18.2818	50.181597	0.000172	1.722545	0.583614	0.000069
 461	4.5770e+01	18.3300	50.294637	0.000284	2.837133	0.961247	0.000114
 462	4.5870e+01	18.3604	50.403640	0.000274	2.735806	0.926916	0.000110
 463	4.5969e+01	18.4038	50.500531	0.000243	2.431828	0.823926	0.000097
 464	4.6069e+01	18.4455	50.621645	0.000304	3.039785	1.029907	0.000122
 465	4.6168e+01	18.4824	50.722573	0.000253	2.533154	0.858256	0.000101
 466	4.6267e+01	18.5241	50.815428	0.000233	2.330502	0.789595	0.000093
 467	4.6367e+01	18.5610	50.916356	0.000253	2.533154	0.858256	0.000101
 468	4.6467e+01	18.6027	50.956727	0.000101	1.013262	0.343302	0.000041
 469	4.6566e+01	18.6412	51.053619	0.000243	2.431828	0.823926	0.000097
 470	4.6666e+01	18.6845	51.223178	0.000426	4.255699	1.441870	0.000170
 471	4.6765e+01	18.7246	51.344292	0.000304	3.039785	1.029907	0.000122
 472	4.6864e+01	18.7679	51.433109	0.000223	2.229176	0.755265	0.000089
 473	4.6964e+01	18.7920	51.525963	0.000233	2.330502	0.789595	0.000093
 474	4.7063e+01	18.8337	51.639003	0.000284	2.837133	0.961247	0.000114
 475	4.7163e+01	18.8834	51.776266	0.000345	3.445090	1.167228	0.000138
 476	4.7263e+01	18.9267	51.885269	0.000274	2.735806	0.926916	0.000110
 477	4.7362e+01	18.9476	51.970048	0.000213	2.127849	0.720935	0.000085
 478	4.7462e+01	19.0053	52.050791	0.000203	2.026523	0.686605	0.000081
 479	4.7561e+01	19.0374	52.196128	0.000365	3.647742	1.235888	0.000146
 480	4.7660e+01	19.0807	52.288982	0.000233	2.330502	0.789595	0.000093
 481	4.7760e+01	19.1160	52.381836	0.000233	2.330502	0.789595	0.000093
 482	4.7859e+01	19.1545	52.454505	0.000182	1.823871	0.617944	0.000073
 483	4.7959e+01	19.1962	52.551396	0.000243	2.431828	0.823926	0.000097
 484	4.8059e+01	19.2348	52.684621	0.000334	3.343763	1.132898	0.000134
 485	4.8158e+01	19.2797	52.749216	0.000162	1.621219	0.549284	0.000065
 486	4.8258e+01	19.3246	52.829958	0.000203	2.026523	0.686605	0.000081
 487	4.8357e+01	19.3583	52.894552	0.000162	1.621219	0.549284	0.000065
 488	4.8456e+01	19.4048	53.052001	0.000395	3.951720	1.338879	0.000158
 489	4.8556e+01	19.4449	53.189263	0.000345	3.445090	1.167228	0.000138
 490	4.8656e+01	19.4818	53.249820	0.000152	1.519892	0.514953	0.000061
 491	4.8755e+01	19.5171	53.354786	0.000263	2.634480	0.892586	0.000105
 492	4.8855e+01	19.5620	53.488011	0.000334	3.343763	1.132898	0.000134
 493	4.8954e+01	19.5909	53.580866	0.000233	2.330502	0.789595	0.000093
 494	4.9053e+01	19.6406	53.669683	0.000223	2.229176	0.755265	0.000089
 495	4.9153e+01	19.6679	53.770611	0.000253	2.533154	0.858256	0.000101
 496	4.9252e+01	19.7192	53.847316	0.000193	1.925197	0.652274	0.000077
 497	4.9352e+01	19.7577	53.996690	0.000375	3.749068	1.270219	0.000150
 498	4.9452e+01	19.7978	54.089545	0.000233	2.330502	0.789595	0.000093
 499	4.9551e+01	19.8428	54.206622	0.000294	2.938459	0.995577	0.000118
 500	4.9651e+01	19.8732	54.307550	0.000253	2.533154	0.858256	0.000101
 501	4.9750e+01	19.9182	54.432701	0.000314	3.141111	1.064237	0.000126
 502	4.9849e+01	19.9567	54.464998	0.000081	0.810609	0.274642	0.000032
 503	4.9949e+01	20.0048	54.586112	0.000304	3.039785	1.029907	0.000122
 504	5.0048e+01	19.9486	54.452887	0.000334	3.343763	1.132898	-0.000134
 505	5.0148e+01	19.9198	54.388293	0.000162	1.621219	0.549284	-0.000065
 506	5.0248e+01	19.8748	54.295439	0.000233	2.330502	0.789595	-0.000093
 507	5.0347e+01	19.8331	54.263141	0.000081	0.810609	0.274642	-0.000032
 508	5.0447e+01	19.7978	54.210659	0.000132	1.317240	0.446293	-0.000053
 509	5.0546e+01	19.7593	54.089545	0.000304	3.039785	1.029907	-0.000122
 510	5.0645e+01	19.7160	53.988616	0.000253	2.533154	0.858256	-0.000101
 511	5.0745e+01	19.6679	53.924022	0.000162	1.621219	0.549284	-0.000065
 512	5.0844e+01	19.6326	53.843279	0.000203	2.026523	0.686605	-0.000081
 513	5.0944e+01	19.5925	53.742351	0.000253	2.533154	0.858256	-0.000101
 514	5.1044e+01	19.5492	53.633348	0.000274	2.735806	0.926916	-0.000110
 515	5.1143e+01	19.5155	53.540494	0.000233	2.330502	0.789595	-0.000093
 516	5.1242e+01	19.4786	53.443603	0.000243	2.431828	0.823926	-0.000097
 517	5.1342e+01	19.4401	53.370934	0.000182	1.823871	0.617944	-0.000073
 518	5.1441e+01	19.3904	53.278080	0.000233	2.330502	0.789595	-0.000093
 519	5.1541e+01	19.3503	53.189263	0.000223	2.229176	0.755265	-0.000089
 520	5.1641e+01	19.3182	53.112558	0.000193	1.925197	0.652274	-0.000077
 521	5.1740e+01	19.2781	52.979332	0.000334	3.343763	1.132898	-0.000134
 522	5.1840e+01	19.2428	52.878404	0.000253	2.533154	0.858256	-0.000101
 523	5.1939e+01	19.2075	52.765364	0.000284	2.837133	0.961247	-0.000114
 524	5.2038e+01	19.1658	52.700770	0.000162	1.621219	0.549284	-0.000065
 525	5.2138e+01	19.1192	52.636176	0.000162	1.621219	0.549284	-0.000065
 526	5.2237e+01	19.0775	52.539284	0.000243	2.431828	0.823926	-0.000097
 527	5.2337e+01	19.0390	52.430282	0.000274	2.735806	0.926916	-0.000110
 528	5.2437e+01	19.0005	52.341465	0.000223	2.229176	0.755265	-0.000089
 529	5.2536e+01	18.9652	52.272834	0.000172	1.722545	0.583614	-0.000069
 530	5.2636e+01	18.9155	52.163831	0.000274	2.735806	0.926916	-0.000110
 531	5.2735e+01	18.8850	52.066940	0.000243	2.431828	0.823926	-0.000097
 532	5.2834e+01	18.8417	51.982160	0.000213	2.127849	0.720935	-0.000085
 533	5.2934e+01	18.7952	51.893343	0.000223	2.229176	0.755265	-0.000089
 534	5.3033e+01	18.7519	51.772229	0.000304	3.039785	1.029907	-0.000122
 535	5.3133e+01	18.7230	51.727820	0.000111	1.114588	0.377633	-0.000045
 536	5.3233e+01	18.6877	51.614780	0.000284	2.837133	0.961247	-0.000114
 537	5.3332e+01	18.6444	51.509815	0.000263	2.634480	0.892586	-0.000105
 538	5.3431e+01	18.5979	51.384664	0.000314	3.141111	1.064237	-0.000126
 539	5.3531e+01	18.5578	51.267587	0.000294	2.938459	0.995577	-0.000118
 540	5.3630e+01	18.5241	51.166658	0.000253	2.533154	0.858256	-0.000101
 541	5.3730e+01	18.4872	51.102064	0.000162	1.621219	0.549284	-0.000065
 542	5.3830e+01	18.4358	51.049581	0.000132	1.317240	0.446293	-0.000053
 543	5.3929e+01	18.4006	50.940579	0.000274	2.735806	0.926916	-0.000110
 544	5.4029e+01	18.3637	50.871947	0.000172	1.722545	0.583614	-0.000069
 545	5.4128e+01	18.3332	50.758908	0.000284	2.837133	0.961247	-0.000114
 546	5.4227e+01	18.2770	50.690276	0.000172	1.722545	0.583614	-0.000069
 547	5.4327e+01	18.2433	50.605496	0.000213	2.127849	0.720935	-0.000085
 548	5.4426e+01	18.1936	50.480345	0.000314	3.141111	1.064237	-0.000126
 549	5.4526e+01	18.1695	50.387491	0.000233	2.330502	0.789595	-0.000093
 550	5.4626e+01	18.1246	50.282526	0.000263	2.634480	0.892586	-0.000105
 551	5.4725e+01	18.0765	50.221969	0.000152	1.519892	0.514953	-0.000061
 552	5.4825e+01	18.0460	50.112966	0.000274	2.735806	0.926916	-0.000110
 553	5.4924e+01	18.0043	50.024149	0.000223	2.229176	0.755265	-0.000089
 554	5.5023e+01	17.9594	49.886886	0.000345	3.445090	1.167228	-0.000138
 555	5.5123e+01	17.9273	49.822292	0.000162	1.621219	0.549284	-0.000065
 556	5.5222e+01	17.8824	49.656770	0.000415	4.154373	1.407540	-0.000166
 557	5.5322e+01	17.8423	49.555841	0.000253	2.533154	0.858256	-0.000101
 558	5.5422e+01	17.8006	49.495284	0.000152	1.519892	0.514953	-0.000061
 559	5.5521e+01	17.7637	49.370133	0.000314	3.141111	1.064237	-0.000126
 560	5.5620e+01	17.7236	49.345910	0.000061	0.607957	0.205981	-0.000024
 561	5.5720e+01	17.6867	49.228833	0.000294	2.938459	0.995577	-0.000118
 562	5.5819e+01	17.6482	49.152128	0.000193	1.925197	0.652274	-0.000077
 563	5.5919e+01	17.5904	49.059273	0.000233	2.330502	0.789595	-0.000093
 564	5.6019e+01	17.5712	48.942197	0.000294	2.938459	0.995577	-0.000118
 565	5.6118e+01	17.5311	48.873565	0.000172	1.722545	0.583614	-0.000069
 566	5.6218e+01	17.4926	48.792823	0.000203	2.026523	0.686605	-0.000081
 567	5.6317e+01	17.4396	48.683820	0.000274	2.735806	0.926916	-0.000110
 568	5.6416e+01	17.4011	48.607114	0.000193	1.925197	0.652274	-0.000077
 569	5.6516e+01	17.3722	48.498112	0.000274	2.735806	0.926916	-0.000110
 570	5.6615e+01	17.3177	48.429480	0.000172	1.722545	0.583614	-0.000069
 571	5.6715e+01	17.2856	48.328552	0.000253	2.533154	0.858256	-0.000101
 572	5.6815e+01	17.2519	48.215512	0.000284	2.837133	0.961247	-0.000114
 573	5.6914e+01	17.2086	48.090361	0.000314	3.141111	1.064237	-0.000126
 574	5.7014e+01	17.1653	47.965210	0.000314	3.141111	1.064237	-0.000126
 575	5.7113e+01	17.1236	47.844096	0.000304	3.039785	1.029907	-0.000122
 576	5.7212e+01	17.0899	47.783539	0.000152	1.519892	0.514953	-0.000061
 577	5.7312e+01	17.0530	47.694722	0.000223	2.229176	0.755265	-0.000089
 578	5.7411e+01	17.0097	47.622053	0.000182	1.823871	0.617944	-0.000073
 579	5.7511e+01	16.9696	47.569570	0.000132	1.317240	0.446293	-0.000053
 580	5.7611e+01	16.9263	47.436345	0.000334	3.343763	1.132898	-0.000134
 581	5.7710e+01	16.8846	47.359639	0.000193	1.925197	0.652274	-0.000077
 582	5.7809e+01	16.8412	47.258711	0.000253	2.533154	0.858256	-0.000101
 583	5.7909e+01	16.8059	47.182005	0.000193	1.925197	0.652274	-0.000077
 584	5.8008e+01	16.7658	47.097226	0.000213	2.127849	0.720935	-0.000085
 585	5.8108e+01	16.7338	46.976111	0.000304	3.039785	1.029907	-0.000122
 586	5.8208e+01	16.6872	46.854997	0.000304	3.039785	1.029907	-0.000122
 587	5.8307e+01	16.6423	46.713698	0.000355	3.546416	1.201558	-0.000142
 588	5.8407e+01	16.6102	46.673326	0.000101	1.013262	0.343302	-0.000041
 589	5.8506e+01	16.5765	46.536064	0.000345	3.445090	1.167228	-0.000138
 590	5.8605e+01	16.5316	46.447247	0.000223	2.229176	0.755265	-0.000089
 591	5.8705e+01	16.4899	46.314021	0.000334	3.343763	1.132898	-0.000134
 592	5.8804e+01	16.4546	46.200981	0.000284	2.837133	0.961247	-0.000114
 593	5.8904e+01	16.4049	46.144461	0.000142	1.418566	0.480623	-0.000057
 594	5.9004e+01	16.3680	45.987013	0.000395	3.951720	1.338879	-0.000158
 595	5.9103e+01	16.3279	45.918382	0.000172	1.722545	0.583614	-0.000069
 596	5.9203e+01	16.2846	45.829565	0.000223	2.229176	0.755265	-0.000089
 597	5.9302e+01	16.2493	45.789194	0.000101	1.013262	0.343302	-0.000041
 598	5.9401e+01	16.2188	45.672117	0.000294	2.938459	0.995577	-0.000118
 599	5.9501e+01	16.1707	45.538891	0.000334	3.343763	1.132898	-0.000134
 600	5.9600e+01	16.1257	45.474297	0.000162	1.621219	0.549284	-0.000065
 601	5.9700e+01	16.0889	45.345109	0.000324	3.242437	1.098567	-0.000130
 602	5.9800e+01	16.0455	45.276477	0.000172	1.722545	0.583614	-0.000069
 603	5.9899e+01	16.0167	45.163438	0.000284	2.837133	0.961247	-0.000114
 604	5.9998e+01	15.9685	45.066546	0.000243	2.431828	0.823926	-0.000097
 605	6.0098e+01	15.9332	44.937358	0.000324	3.242437	1.098567	-0.000130
 606	6.0197e+01	15.8931	44.852578	0.000213	2.127849	0.720935	-0.000085
 607	6.0297e+01	15.8594	44.711278	0.000355	3.546416	1.201558	-0.000142
 608	6.0397e+01	15.8161	44.610350	0.000253	2.533154	0.858256	-0.000101
 609	6.0496e+01	15.7712	44.505384	0.000263	2.634480	0.892586	-0.000105
 610	6.0596e+01	15.7311	44.372159	0.000334	3.343763	1.132898	-0.000134
 611	6.0695e+01	15.6926	44.279305	0.000233	2.330502	0.789595	-0.000093
 612	6.0794e+01	15.6573	44.178376	0.000253	2.533154	0.858256	-0.000101
 613	6.0894e+01	15.6076	44.133968	0.000111	1.114588	0.377633	-0.000045
 614	6.0993e+01	15.5755	44.004780	0.000324	3.242437	1.098567	-0.000130
 615	6.1093e+01	15.5274	43.915963	0.000223	2.229176	0.755265	-0.000089
 616	6.1193e+01	15.4937	43.827146	0.000223	2.229176	0.755265	-0.000089
 617	6.1292e+01	15.4568	43.710069	0.000294	2.938459	0.995577	-0.000118
 618	6.1392e+01	15.4183	43.605103	0.000263	2.634480	0.892586	-0.000105
 619	6.1491e+01	15.3734	43.528398	0.000193	1.925197	0.652274	-0.000077
 620	6.1590e+01	15.3317	43.383061	0.000365	3.647742	1.235888	-0.000146
 621	6.1690e+01	15.2899	43.354801	0.000071	0.709283	0.240312	-0.000028
 622	6.1789e+01	15.2579	43.213501	0.000355	3.546416	1.201558	-0.000142
 623	6.1889e+01	15.2145	43.108535	0.000263	2.634480	0.892586	-0.000105
 624	6.1989e+01	15.1728	43.031830	0.000193	1.925197	0.652274	-0.000077
 625	6.2088e+01	15.1472	42.846122	0.000466	4.661003	1.579191	-0.000187
 626	6.2188e+01	15.0878	42.785565	0.000152	1.519892	0.514953	-0.000061
 627	6.2287e+01	15.0605	42.632153	0.000385	3.850394	1.304549	-0.000154
 628	6.2386e+01	15.0108	42.527188	0.000263	2.634480	0.892586	-0.000105
 629	6.2486e+01	14.9723	42.442408	0.000213	2.127849	0.720935	-0.000085
 630	6.2586e+01	14.9338	42.309183	0.000334	3.343763	1.132898	-0.000134
 631	6.2685e+01	14.8953	42.228440	0.000203	2.026523	0.686605	-0.000081
 632	6.2785e+01	14.8616	42.151734	0.000193	1.925197	0.652274	-0.000077
 633	6.2884e+01	14.8151	42.050806	0.000253	2.533154	0.858256	-0.000101
 634	6.2983e+01	14.7702	41.982175	0.000172	1.722545	0.583614	-0.000069
 635	6.3083e+01	14.7317	41.869135	0.000284	2.837133	0.961247	-0.000114
 636	6.3182e+01	14.7044	41.731872	0.000345	3.445090	1.167228	-0.000138
 637	6.3282e+01	14.6563	41.659204	0.000182	1.823871	0.617944	-0.000073
 638	6.3382e+01	14.6081	41.530015	0.000324	3.242437	1.098567	-0.000130
 639	6.3481e+01	14.5793	41.425050	0.000263	2.634480	0.892586	-0.000105
 640	6.3581e+01	14.5360	41.344307	0.000203	2.026523	0.686605	-0.000081
 641	6.3680e+01	14.4910	41.239342	0.000263	2.634480	0.892586	-0.000105
 642	6.3779e+01	14.4606	41.118227	0.000304	3.039785	1.029907	-0.000122
 643	6.3879e+01	14.4188	40.980965	0.000345	3.445090	1.167228	-0.000138
 644	6.3978e+01	14.3803	40.847739	0.000334	3.343763	1.132898	-0.000134
 645	6.4078e+01	14.3418	40.771034	0.000193	1.925197	0.652274	-0.000077
 646	6.4177e+01	14.2937	40.629734	0.000355	3.546416	1.201558	-0.000142
 647	6.4277e+01	14.2632	40.512657	0.000294	2.938459	0.995577	-0.000118
 648	6.4376e+01	14.2183	40.403654	0.000274	2.735806	0.926916	-0.000110
 649	6.4476e+01	14.1734	40.314837	0.000223	2.229176	0.755265	-0.000089
 650	6.4576e+01	14.1365	40.254280	0.000152	1.519892	0.514953	-0.000061
 651	6.4675e+01	14.0964	40.145278	0.000274	2.735806	0.926916	-0.000110
 652	6.4775e+01	14.0595	40.068572	0.000193	1.925197	0.652274	-0.000077
 653	6.4874e+01	14.0242	39.955532	0.000284	2.837133	0.961247	-0.000114
 654	6.4974e+01	13.9745	39.806158	0.000375	3.749068	1.270219	-0.000150
 655	6.5073e+01	13.9392	39.701193	0.000263	2.634480	0.892586	-0.000105
 656	6.5172e+01	13.8959	39.648710	0.000132	1.317240	0.446293	-0.000053
 657	6.5272e+01	13.8526	39.527596	0.000304	3.039785	1.029907	-0.000122
 658	6.5371e+01	13.8173	39.402445	0.000314	3.141111	1.064237	-0.000126
 659	6.5471e+01	13.7820	39.297479	0.000263	2.634480	0.892586	-0.000105
 660	6.5570e+01	13.7403	39.164254	0.000334	3.343763	1.132898	-0.000134
 661	6.5670e+01	13.7034	39.075437	0.000223	2.229176	0.755265	-0.000089
 662	6.5769e+01	13.6633	38.901840	0.000436	4.357025	1.476200	-0.000174
 663	6.5869e+01	13.6264	38.800912	0.000253	2.533154	0.858256	-0.000101
 664	6.5969e+01	13.5830	38.699983	0.000253	2.533154	0.858256	-0.000101
 665	6.6068e+01	13.5429	38.595018	0.000263	2.634480	0.892586	-0.000105
 666	6.6168e+01	13.5076	38.481978	0.000284	2.837133	0.961247	-0.000114
 667	6.6267e+01	13.4563	38.393161	0.000223	2.229176	0.755265	-0.000089
 668	6.6367e+01	13.4194	38.280121	0.000284	2.837133	0.961247	-0.000114
 669	6.6466e+01	13.3729	38.203415	0.000193	1.925197	0.652274	-0.000077
 670	6.6566e+01	13.3440	38.150933	0.000132	1.317240	0.446293	-0.000053
 671	6.6665e+01	13.2991	38.029819	0.000304	3.039785	1.029907	-0.000122
 672	6.6764e+01	13.2622	37.888519	0.000355	3.546416	1.201558	-0.000142
 673	6.6864e+01	13.2221	37.815850	0.000182	1.823871	0.617944	-0.000073
 674	6.6963e+01	13.1740	37.702811	0.000284	2.837133	0.961247	-0.000114
 675	6.7063e+01	13.1435	37.601882	0.000253	2.533154	0.858256	-0.000101
 676	6.7162e+01	13.0954	37.496917	0.000263	2.634480	0.892586	-0.000105
 677	6.7262e+01	13.0601	37.387914	0.000274	2.735806	0.926916	-0.000110
 678	6.7362e+01	13.0264	37.278911	0.000274	2.735806	0.926916	-0.000110
 679	6.7461e+01	12.9847	37.129537	0.000375	3.749068	1.270219	-0.000150
 680	6.7561e+01	12.9430	37.008423	0.000304	3.039785	1.029907	-0.000122
 681	6.7660e+01	12.9109	36.879235	0.000324	3.242437	1.098567	-0.000130
 682	6.7760e+01	12.8659	36.794455	0.000213	2.127849	0.720935	-0.000085
 683	6.7859e+01	12.8226	36.701601	0.000233	2.330502	0.789595	-0.000093
 684	6.7959e+01	12.7922	36.592598	0.000274	2.735806	0.926916	-0.000110
 685	6.8058e+01	12.7440	36.495707	0.000243	2.431828	0.823926	-0.000097
 686	6.8157e+01	12.7039	36.423039	0.000182	1.823871	0.617944	-0.000073
 687	6.8257e+01	12.6622	36.342296	0.000203	2.026523	0.686605	-0.000081
 688	6.8356e+01	12.6237	36.225219	0.000294	2.938459	0.995577	-0.000118
 689	6.8456e+01	12.5820	36.108142	0.000294	2.938459	0.995577	-0.000118
 690	6.8555e+01	12.5467	36.043548	0.000162	1.621219	0.549284	-0.000065
 691	6.8655e+01	12.5050	35.938582	0.000263	2.634480	0.892586	-0.000105
 692	6.8754e+01	12.4681	35.801320	0.000345	3.445090	1.167228	-0.000138
 693	6.8854e+01	12.4280	35.700391	0.000253	2.533154	0.858256	-0.000101
 694	6.8954e+01	12.3991	35.575240	0.000314	3.141111	1.064237	-0.000126
 695	6.9053e+01	12.3446	35.494497	0.000203	2.026523	0.686605	-0.000081
 696	6.9153e+01	12.3061	35.401643	0.000233	2.330502	0.789595	-0.000093
 697	6.9252e+01	12.2756	35.256306	0.000365	3.647742	1.235888	-0.000146
 698	6.9352e+01	12.2355	35.139229	0.000294	2.938459	0.995577	-0.000118
 699	6.9451e+01	12.1986	35.038301	0.000253	2.533154	0.858256	-0.000101
 700	6.9550e+01	12.1408	34.905076	0.000334	3.343763	1.132898	-0.000134
 701	6.9650e+01	12.1120	34.787999	0.000294	2.938459	0.995577	-0.000118
 702	6.9749e+01	12.0686	34.687070	0.000253	2.533154	0.858256	-0.000101
 703	6.9849e+01	12.0317	34.610365	0.000193	1.925197	0.652274	-0.000077
 704	6.9948e+01	11.9852	34.513473	0.000243	2.431828	0.823926	-0.000097
 705	7.0048e+01	11.9483	34.444842	0.000172	1.722545	0.583614	-0.000069
 706	7.0147e+01	11.9098	34.343914	0.000253	2.533154	0.858256	-0.000101
 707	7.0247e+01	11.8713	34.234911	0.000274	2.735806	0.926916	-0.000110
 708	7.0347e+01	11.8312	34.121871	0.000284	2.837133	0.961247	-0.000114
 709	7.0446e+01	11.7943	34.008831	0.000284	2.837133	0.961247	-0.000114
 710	7.0546e+01	11.7462	33.895792	0.000284	2.837133	0.961247	-0.000114
 711	7.0645e+01	11.7061	33.823123	0.000182	1.823871	0.617944	-0.000073
 712	7.0745e+01	11.6836	33.697972	0.000314	3.141111	1.064237	-0.000126
 713	7.0844e+01	11.6243	33.593006	0.000263	2.634480	0.892586	-0.000105
 714	7.0944e+01	11.5922	33.471892	0.000304	3.039785	1.029907	-0.000122
 715	7.1043e+01	11.5457	33.383075	0.000223	2.229176	0.755265	-0.000089
 716	7.1142e+01	11.5088	33.237739	0.000365	3.647742	1.235888	-0.000146
 717	7.1242e+01	11.4751	33.140847	0.000243	2.431828	0.823926	-0.000097
 718	7.1341e+01	11.4302	32.983399	0.000395	3.951720	1.338879	-0.000158
 719	7.1441e+01	11.3917	32.910731	0.000182	1.823871	0.617944	-0.000073
 720	7.1540e+01	11.3644	32.797691	0.000284	2.837133	0.961247	-0.000114
 721	7.1640e+01	11.3130	32.700799	0.000243	2.431828	0.823926	-0.000097
 722	7.1740e+01	11.2697	32.640242	0.000152	1.519892	0.514953	-0.000061
 723	7.1839e+01	11.2328	32.515091	0.000314	3.141111	1.064237	-0.000126
 724	7.1939e+01	11.1799	32.410126	0.000263	2.634480	0.892586	-0.000105
 725	7.2038e+01	11.1462	32.280937	0.000324	3.242437	1.098567	-0.000130
 726	7.2138e+01	11.1173	32.220380	0.000152	1.519892	0.514953	-0.000061
 727	7.2237e+01	11.0708	32.123489	0.000243	2.431828	0.823926	-0.000097
 728	7.2337e+01	11.0339	31.986226	0.000345	3.445090	1.167228	-0.000138
 729	7.2436e+01	10.9922	31.937781	0.000122	1.215914	0.411963	-0.000049
 730	7.2535e+01	10.9537	31.800518	0.000345	3.445090	1.167228	-0.000138
 731	7.2635e+01	10.9136	31.703627	0.000243	2.431828	0.823926	-0.000097
 732	7.2734e+01	10.8735	31.586550	0.000294	2.938459	0.995577	-0.000118
 733	7.2834e+01	10.8302	31.505807	0.000203	2.026523	0.686605	-0.000081
 734	7.2933e+01	10.7997	31.364508	0.000355	3.546416	1.201558	-0.000142
 735	7.3033e+01	10.7628	31.263579	0.000253	2.533154	0.858256	-0.000101
 736	7.3132e+01	10.7099	31.110168	0.000385	3.850394	1.304549	-0.000154
 737	7.3232e+01	10.6762	31.013277	0.000243	2.431828	0.823926	-0.000097
 738	7.3332e+01	10.6393	30.900237	0.000284	2.837133	0.961247	-0.000114
 739	7.3431e+01	10.5944	30.819494	0.000203	2.026523	0.686605	-0.000081
 740	7.3531e+01	10.5542	30.742789	0.000193	1.925197	0.652274	-0.000077
 741	7.3630e+01	10.5222	30.637823	0.000263	2.634480	0.892586	-0.000105
 742	7.3730e+01	10.4788	30.524783	0.000284	2.837133	0.961247	-0.000114
 743	7.3829e+01	10.4339	30.448078	0.000193	1.925197	0.652274	-0.000077
 744	7.3928e+01	10.3922	30.347149	0.000253	2.533154	0.858256	-0.000101
 745	7.4028e+01	10.3457	30.226035	0.000304	3.039785	1.029907	-0.000122
 746	7.4127e+01	10.3200	30.112995	0.000284	2.837133	0.961247	-0.000114
 747	7.4227e+01	10.2815	29.995919	0.000294	2.938459	0.995577	-0.000118
 748	7.4326e+01	10.2318	29.858656	0.000345	3.445090	1.167228	-0.000138
 749	7.4426e+01	10.2029	29.753690	0.000263	2.634480	0.892586	-0.000105
 750	7.4525e+01	10.1516	29.668911	0.000213	2.127849	0.720935	-0.000085
 751	7.4625e+01	10.1131	29.580094	0.000223	2.229176	0.755265	-0.000089
 752	7.4725e+01	10.0826	29.438794	0.000355	3.546416	1.201558	-0.000142
 753	7.4824e+01	10.0377	29.325754	0.000284	2.837133	0.961247	-0.000114
 754	7.4924e+01	9.9992	29.176380	0.000375	3.749068	1.270219	-0.000150
 755	7.5023e+01	9.9655	29.047192	0.000324	3.242437	1.098567	-0.000130
 756	7.5123e+01	9.9174	28.978560	0.000172	1.722545	0.583614	-0.000069
 757	7.5222e+01	9.8773	28.849372	0.000324	3.242437	1.098567	-0.000130
 758	7.5322e+01	9.8372	28.776704	0.000182	1.823871	0.617944	-0.000073
 759	7.5421e+01	9.7970	28.712109	0.000162	1.621219	0.549284	-0.000065
 760	7.5520e+01	9.7634	28.574847	0.000345	3.445090	1.167228	-0.000138
 761	7.5620e+01	9.7120	28.445658	0.000324	3.242437	1.098567	-0.000130
 762	7.5719e+01	9.6735	28.360879	0.000213	2.127849	0.720935	-0.000085
 763	7.5819e+01	9.6366	28.231690	0.000324	3.242437	1.098567	-0.000130
 764	7.5918e+01	9.6061	28.159022	0.000182	1.823871	0.617944	-0.000073
 765	7.6018e+01	9.5612	27.989462	0.000426	4.255699	1.441870	-0.000170
 766	7.6118e+01	9.5115	27.896608	0.000233	2.330502	0.789595	-0.000093
 767	7.6217e+01	9.4698	27.775494	0.000304	3.039785	1.029907	-0.000122
 768	7.6317e+01	9.4457	27.694751	0.000203	2.026523	0.686605	-0.000081
 769	7.6416e+01	9.4024	27.565563	0.000324	3.242437	1.098567	-0.000130
 770	7.6516e+01	9.3623	27.444449	0.000304	3.039785	1.029907	-0.000122
 771	7.6615e+01	9.3174	27.323335	0.000304	3.039785	1.029907	-0.000122
 772	7.6715e+01	9.2885	27.157812	0.000415	4.154373	1.407540	-0.000166
 773	7.6814e+01	9.2484	27.064958	0.000233	2.330502	0.789595	-0.000093
 774	7.6913e+01	9.2051	26.992290	0.000182	1.823871	0.617944	-0.000073
 775	7.7013e+01	9.1666	26.895398	0.000243	2.431828	0.823926	-0.000097
 776	7.7112e+01	9.1136	26.786396	0.000274	2.735806	0.926916	-0.000110
 777	7.7212e+01	9.0784	26.669319	0.000294	2.938459	0.995577	-0.000118
 778	7.7311e+01	9.0318	26.592613	0.000193	1.925197	0.652274	-0.000077
 779	7.7411e+01	8.9981	26.447276	0.000365	3.647742	1.235888	-0.000146
 780	7.7510e+01	8.9661	26.326162	0.000304	3.039785	1.029907	-0.000122
 781	7.7610e+01	8.9195	26.233308	0.000233	2.330502	0.789595	-0.000093
 782	7.7710e+01	8.8762	26.087971	0.000365	3.647742	1.235888	-0.000146
 783	7.7809e+01	8.8345	25.991080	0.000243	2.431828	0.823926	-0.000097
 784	7.7909e+01	8.7960	25.922449	0.000172	1.722545	0.583614	-0.000069
 785	7.8008e+01	8.7607	25.785186	0.000345	3.445090	1.167228	-0.000138
 786	7.8108e+01	8.7254	25.639849	0.000365	3.647742	1.235888	-0.000146
 787	7.8207e+01	8.6901	25.530846	0.000274	2.735806	0.926916	-0.000110
 788	7.8306e+01	8.6452	25.381472	0.000375	3.749068	1.270219	-0.000150
 789	7.8406e+01	8.5939	25.260358	0.000304	3.039785	1.029907	-0.000122
 790	7.8505e+01	8.5650	25.151356	0.000274	2.735806	0.926916	-0.000110
 791	7.8605e+01	8.5185	25.030242	0.000304	3.039785	1.029907	-0.000122
 792	7.8704e+01	8.4800	24.913165	0.000294	2.938459	0.995577	-0.000118
 793	7.8804e+01	8.4415	24.836459	0.000193	1.925197	0.652274	-0.000077
 794	7.8903e+01	8.4030	24.747642	0.000223	2.229176	0.755265	-0.000089
 795	7.9003e+01	8.3645	24.634602	0.000284	2.837133	0.961247	-0.000114
 796	7.9103e+01	8.3212	24.509451	0.000314	3.141111	1.064237	-0.000126
 797	7.9202e+01	8.2778	24.412560	0.000243	2.431828	0.823926	-0.000097
 798	7.9302e+01	8.2425	24.315669	0.000243	2.431828	0.823926	-0.000097
 799	7.9401e+01	8.2024	24.174369	0.000355	3.546416	1.201558	-0.000142
 800	7.9501e+01	8.1623	24.049218	0.000314	3.141111	1.064237	-0.000126
 801	7.9600e+01	8.1254	23.936178	0.000284	2.837133	0.961247	-0.000114
 802	7.9700e+01	8.0773	23.855435	0.000203	2.026523	0.686605	-0.000081
 803	7.9799e+01	8.0340	23.714135	0.000355	3.546416	1.201558	-0.000142
 804	7.9898e+01	8.0019	23.593021	0.000304	3.039785	1.029907	-0.000122
 805	7.9998e+01	7.9778	23.471907	0.000304	3.039785	1.029907	-0.000122
 806	8.0097e+01	7.9329	23.310422	0.000405	4.053047	1.373209	-0.000162
 807	8.0197e+01	7.8912	23.213530	0.000243	2.431828	0.823926	-0.000097
 808	8.0296e+01	7.8527	23.056082	0.000395	3.951720	1.338879	-0.000158
 809	8.0396e+01	7.8014	22.939005	0.000294	2.938459	0.995577	-0.000118
 810	8.0496e+01	7.7677	22.846151	0.000233	2.330502	0.789595	-0.000093
 811	8.0595e+01	7.7228	22.753297	0.000233	2.330502	0.789595	-0.000093
 812	8.0695e+01	7.6843	22.700814	0.000132	1.317240	0.446293	-0.000053
 813	8.0794e+01	7.6458	22.567589	0.000334	3.343763	1.132898	-0.000134
 814	8.0894e+01	7.6089	22.418215	0.000375	3.749068	1.270219	-0.000150
 815	8.0993e+01	7.5640	22.313249	0.000263	2.634480	0.892586	-0.000105
 816	8.1093e+01	7.5190	22.184061	0.000324	3.242437	1.098567	-0.000130
 817	8.1192e+01	7.4902	22.071021	0.000284	2.837133	0.961247	-0.000114
 818	8.1291e+01	7.4436	21.953944	0.000294	2.938459	0.995577	-0.000118
 819	8.1391e+01	7.4180	21.893387	0.000152	1.519892	0.514953	-0.000061
 820	8.1490e+01	7.3682	21.719790	0.000436	4.357025	1.476200	-0.000174
 821	8.1590e+01	7.3233	21.594639	0.000314	3.141111	1.064237	-0.000126
 822	8.1689e+01	7.2928	21.477562	0.000294	2.938459	0.995577	-0.000118
 823	8.1789e+01	7.2479	21.348374	0.000324	3.242437	1.098567	-0.000130
 824	8.1888e+01	7.2158	21.223223	0.000314	3.141111	1.064237	-0.000126
 825	8.1988e+01	7.1645	21.102109	0.000304	3.039785	1.029907	-0.000122
 826	8.2088e+01	7.1276	21.009254	0.000233	2.330502	0.789595	-0.000093
 827	8.2187e+01	7.0827	20.843732	0.000415	4.154373	1.407540	-0.000166
 828	8.2287e+01	7.0474	20.730692	0.000284	2.837133	0.961247	-0.000114
 829	8.2386e+01	7.0073	20.662061	0.000172	1.722545	0.583614	-0.000069
 830	8.2486e+01	6.9672	20.561132	0.000253	2.533154	0.858256	-0.000101
 831	8.2585e+01	6.9271	20.431944	0.000324	3.242437	1.098567	-0.000130
 832	8.2684e+01	6.8854	20.314867	0.000294	2.938459	0.995577	-0.000118
 833	8.2784e+01	6.8469	20.230087	0.000213	2.127849	0.720935	-0.000085
 834	8.2883e+01	6.8132	20.108973	0.000304	3.039785	1.029907	-0.000122
 835	8.2983e+01	6.7747	19.963636	0.000365	3.647742	1.235888	-0.000146
 836	8.3082e+01	6.7314	19.878856	0.000213	2.127849	0.720935	-0.000085
 837	8.3182e+01	6.6913	19.745631	0.000334	3.343763	1.132898	-0.000134
 838	8.3281e+01	6.6431	19.620480	0.000314	3.141111	1.064237	-0.000126
 839	8.3381e+01	6.6078	19.515514	0.000263	2.634480	0.892586	-0.000105
 840	8.3481e+01	6.5677	19.374214	0.000355	3.546416	1.201558	-0.000142
 841	8.3580e+01	6.5324	19.240989	0.000334	3.343763	1.132898	-0.000134
 842	8.3680e+01	6.4923	19.111801	0.000324	3.242437	1.098567	-0.000130
 843	8.3779e+01	6.4602	19.035095	0.000193	1.925197	0.652274	-0.000077
 844	8.3879e+01	6.4137	18.873610	0.000405	4.053047	1.373209	-0.000162
 845	8.3978e+01	6.3544	18.764607	0.000274	2.735806	0.926916	-0.000110
 846	8.4078e+01	6.3415	18.700013	0.000162	1.621219	0.549284	-0.000065
 847	8.4177e+01	6.2870	18.631381	0.000172	1.722545	0.583614	-0.000069
 848	8.4276e+01	6.2517	18.514304	0.000294	2.938459	0.995577	-0.000118
 849	8.4376e+01	6.2084	18.348782	0.000415	4.154373	1.407540	-0.000166
 850	8.4475e+01	6.1683	18.227668	0.000304	3.039785	1.029907	-0.000122
 851	8.4575e+01	6.1298	18.146925	0.000203	2.026523	0.686605	-0.000081
 852	8.4674e+01	6.0977	18.025811	0.000304	3.039785	1.029907	-0.000122
 853	8.4774e+01	6.0560	17.900660	0.000314	3.141111	1.064237	-0.000126
 854	8.4874e+01	6.0143	17.811843	0.000223	2.229176	0.755265	-0.000089
 855	8.4973e+01	5.9758	17.678617	0.000334	3.343763	1.132898	-0.000134
 856	8.5073e+01	5.9260	17.553466	0.000314	3.141111	1.064237	-0.000126
 857	8.5172e+01	5.9004	17.412166	0.000355	3.546416	1.201558	-0.000142
 858	8.5272e+01	5.8587	17.295090	0.000294	2.938459	0.995577	-0.000118
 859	8.5371e+01	5.8089	17.153790	0.000355	3.546416	1.201558	-0.000142
 860	8.5471e+01	5.7752	17.056898	0.000243	2.431828	0.823926	-0.000097
 861	8.5570e+01	5.7351	16.951933	0.000263	2.634480	0.892586	-0.000105
 862	8.5669e+01	5.6918	16.830819	0.000304	3.039785	1.029907	-0.000122
 863	8.5769e+01	5.6517	16.697593	0.000334	3.343763	1.132898	-0.000134
 864	8.5868e+01	5.6180	16.604739	0.000233	2.330502	0.789595	-0.000093
 865	8.5968e+01	5.5779	16.544182	0.000152	1.519892	0.514953	-0.000061
 866	8.6067e+01	5.5362	16.386734	0.000395	3.951720	1.338879	-0.000158
 867	8.6167e+01	5.4961	16.326177	0.000152	1.519892	0.514953	-0.000061
 868	8.6266e+01	5.4512	16.176803	0.000375	3.749068	1.270219	-0.000150
 869	8.6366e+01	5.4223	16.039540	0.000345	3.445090	1.167228	-0.000138
 870	8.6466e+01	5.3774	15.954760	0.000213	2.127849	0.720935	-0.000085
 871	8.6565e+01	5.3325	15.837684	0.000294	2.938459	0.995577	-0.000118
 872	8.6665e+01	5.2876	15.724644	0.000284	2.837133	0.961247	-0.000114
 873	8.6764e+01	5.2571	15.607567	0.000294	2.938459	0.995577	-0.000118
 874	8.6864e+01	5.2202	15.490490	0.000294	2.938459	0.995577	-0.000118
 875	8.6963e+01	5.1865	15.373413	0.000294	2.938459	0.995577	-0.000118
 876	8.7063e+01	5.1351	15.215965	0.000395	3.951720	1.338879	-0.000158
 877	8.7162e+01	5.0983	15.054479	0.000405	4.053047	1.373209	-0.000162
 878	8.7261e+01	5.0614	14.973736	0.000203	2.026523	0.686605	-0.000081
 879	8.7361e+01	5.0212	14.876845	0.000243	2.431828	0.823926	-0.000097
 880	8.7460e+01	4.9747	14.751694	0.000314	3.141111	1.064237	-0.000126
 881	8.7560e+01	4.9314	14.590209	0.000405	4.053047	1.373209	-0.000162
 882	8.7659e+01	4.8929	14.582134	0.000020	0.202652	0.068660	-0.000008
 883	8.7759e+01	4.8560	14.428723	0.000385	3.850394	1.304549	-0.000154
 884	8.7859e+01	4.8255	14.364129	0.000162	1.621219	0.549284	-0.000065
 885	8.7958e+01	4.7806	14.206681	0.000395	3.951720	1.338879	-0.000158
 886	8.8058e+01	4.7357	14.085567	0.000304	3.039785	1.029907	-0.000122
 887	8.8157e+01	4.7036	13.996750	0.000223	2.229176	0.755265	-0.000089
 888	8.8257e+01	4.6571	13.895821	0.000253	2.533154	0.858256	-0.000101
 889	8.8356e+01	4.6170	13.754521	0.000355	3.546416	1.201558	-0.000142
 890	8.8456e+01	4.5801	13.661667	0.000233	2.330502	0.789595	-0.000093
 891	8.8555e+01	4.5416	13.528442	0.000334	3.343763	1.132898	-0.000134
 892	8.8654e+01	4.4983	13.419439	0.000274	2.735806	0.926916	-0.000110
 893	8.8754e+01	4.4453	13.249879	0.000426	4.255699	1.441870	-0.000170
 894	8.8853e+01	4.4213	13.136840	0.000284	2.837133	0.961247	-0.000114
 895	8.8953e+01	4.3763	13.003614	0.000334	3.343763	1.132898	-0.000134
 896	8.9052e+01	4.3459	12.886537	0.000294	2.938459	0.995577	-0.000118
 897	8.9152e+01	4.3026	12.785609	0.000253	2.533154	0.858256	-0.000101
 898	8.9251e+01	4.2641	12.692755	0.000233	2.330502	0.789595	-0.000093
 899	8.9351e+01	4.2175	12.567604	0.000314	3.141111	1.064237	-0.000126
 900	8.9451e+01	4.1710	12.478787	0.000223	2.229176	0.755265	-0.000089
 901	8.9550e+01	4.1405	12.406118	0.000182	1.823871	0.617944	-0.000073
 902	8.9650e+01	4.1052	12.305190	0.000253	2.533154	0.858256	-0.000101
 903	8.9749e+01	4.0603	12.163890	0.000355	3.546416	1.201558	-0.000142
 904	8.9849e+01	4.0154	12.010479	0.000385	3.850394	1.304549	-0.000154
 905	8.9948e+01	3.9769	11.941848	0.000172	1.722545	0.583614	-0.000069
 906	9.0047e+01	3.9384	11.804585	0.000345	3.445090	1.167228	-0.000138
 907	9.0147e+01	3.8967	11.727879	0.000193	1.925197	0.652274	-0.000077
 908	9.0246e+01	3.8566	11.534097	0.000486	4.863656	1.647851	-0.000195
 909	9.0346e+01	3.8213	11.457391	0.000193	1.925197	0.652274	-0.000077
 910	9.0445e+01	3.7860	11.303980	0.000385	3.850394	1.304549	-0.000154
 911	9.0545e+01	3.7443	11.186903	0.000294	2.938459	0.995577	-0.000118
 912	9.0644e+01	3.7074	11.069826	0.000294	2.938459	0.995577	-0.000118
 913	9.0744e+01	3.6593	10.940638	0.000324	3.242437	1.098567	-0.000130
 914	9.0844e+01	3.6256	10.827598	0.000284	2.837133	0.961247	-0.000114
 915	9.0943e+01	3.5806	10.730707	0.000243	2.431828	0.823926	-0.000097
 916	9.1043e+01	3.5373	10.645927	0.000213	2.127849	0.720935	-0.000085
 917	9.1142e+01	3.5101	10.468293	0.000446	4.458351	1.510530	-0.000179
 918	9.1242e+01	3.4716	10.391587	0.000193	1.925197	0.652274	-0.000077
 919	9.1341e+01	3.4282	10.326993	0.000162	1.621219	0.549284	-0.000065
 920	9.1441e+01	3.3897	10.222028	0.000263	2.634480	0.892586	-0.000105
 921	9.1540e+01	3.3528	10.052468	0.000426	4.255699	1.441870	-0.000170
 922	9.1639e+01	3.3047	9.975762	0.000193	1.925197	0.652274	-0.000077
 923	9.1739e+01	3.2614	9.834463	0.000355	3.546416	1.201558	-0.000142
 924	9.1838e+01	3.2229	9.717386	0.000294	2.938459	0.995577	-0.000118
 925	9.1938e+01	3.1892	9.616457	0.000253	2.533154	0.858256	-0.000101
 926	9.2037e+01	3.1411	9.507455	0.000274	2.735806	0.926916	-0.000110
 927	9.2137e+01	3.1058	9.321746	0.000466	4.661003	1.579191	-0.000187
 928	9.2237e+01	3.0577	9.208707	0.000284	2.837133	0.961247	-0.000114
 929	9.2336e+01	3.0256	9.091630	0.000294	2.938459	0.995577	-0.000118
 930	9.2436e+01	2.9807	8.970516	0.000304	3.039785	1.029907	-0.000122
 931	9.2535e+01	2.9406	8.809030	0.000405	4.053047	1.373209	-0.000162
 932	9.2635e+01	2.9101	8.687916	0.000304	3.039785	1.029907	-0.000122
 933	9.2734e+01	2.8652	8.607173	0.000203	2.026523	0.686605	-0.000081
 934	9.2834e+01	2.8154	8.510282	0.000243	2.431828	0.823926	-0.000097
 935	9.2933e+01	2.7866	8.381094	0.000324	3.242437	1.098567	-0.000130
 936	9.3032e+01	2.7481	8.276128	0.000263	2.634480	0.892586	-0.000105
 937	9.3132e+01	2.7031	8.199423	0.000193	1.925197	0.652274	-0.000077
 938	9.3231e+01	2.6678	8.054086	0.000365	3.647742	1.235888	-0.000146
 939	9.3331e+01	2.6213	7.965269	0.000223	2.229176	0.755265	-0.000089
 940	9.3430e+01	2.5908	7.828006	0.000345	3.445090	1.167228	-0.000138
 941	9.3530e+01	2.5491	7.706892	0.000304	3.039785	1.029907	-0.000122
 942	9.3629e+01	2.5058	7.569630	0.000345	3.445090	1.167228	-0.000138
 943	9.3729e+01	2.4705	7.460627	0.000274	2.735806	0.926916	-0.000110
 944	9.3829e+01	2.4224	7.339513	0.000304	3.039785	1.029907	-0.000122
 945	9.3928e+01	2.3855	7.178027	0.000405	4.053047	1.373209	-0.000162
 946	9.4028e+01	2.3486	7.020579	0.000395	3.951720	1.338879	-0.000158
 947	9.4127e+01	2.3053	6.927725	0.000233	2.330502	0.789595	-0.000093
 948	9.4227e+01	2.2636	6.818722	0.000274	2.735806	0.926916	-0.000110
 949	9.4326e+01	2.2251	6.661274	0.000395	3.951720	1.338879	-0.000158
 950	9.4425e+01	2.1914	6.560346	0.000253	2.533154	0.858256	-0.000101
 951	9.4525e+01	2.1449	6.406934	0.000385	3.850394	1.304549	-0.000154
 952	9.4624e+01	2.1064	6.330229	0.000193	1.925197	0.652274	-0.000077
 953	9.4724e+01	2.0646	6.213152	0.000294	2.938459	0.995577	-0.000118
 954	9.4823e+01	2.0326	6.088001	0.000314	3.141111	1.064237	-0.000126
 955	9.4923e+01	1.9941	6.015332	0.000182	1.823871	0.617944	-0.000073
 956	9.5022e+01	1.9395	5.878070	0.000345	3.445090	1.167228	-0.000138
 957	9.5122e+01	1.8946	5.752918	0.000314	3.141111	1.064237	-0.000126
 958	9.5222e+01	1.8641	5.680250	0.000182	1.823871	0.617944	-0.000073
 959	9.5321e+01	1.8272	5.567210	0.000284	2.837133	0.961247	-0.000114
 960	9.5421e+01	1.7791	5.401688	0.000415	4.154373	1.407540	-0.000166
 961	9.5520e+01	1.7566	5.296722	0.000263	2.634480	0.892586	-0.000105
 962	9.5620e+01	1.7133	5.135237	0.000405	4.053047	1.373209	-0.000162
 963	9.5719e+01	1.6748	5.010085	0.000314	3.141111	1.064237	-0.000126
 964	9.5819e+01	1.6315	4.848600	0.000405	4.053047	1.373209	-0.000162
 965	9.5918e+01	1.5882	4.687115	0.000405	4.053047	1.373209	-0.000162
 966	9.6017e+01	1.5529	4.602335	0.000213	2.127849	0.720935	-0.000085
 967	9.6117e+01	1.5128	4.505443	0.000243	2.431828	0.823926	-0.000097
 968	9.6216e+01	1.4775	4.380292	0.000314	3.141111	1.064237	-0.000126
 969	9.6316e+01	1.4294	4.210733	0.000426	4.255699	1.441870	-0.000170
 970	9.6415e+01	1.3893	4.109804	0.000253	2.533154	0.858256	-0.000101
 971	9.6515e+01	1.3524	4.016950	0.000233	2.330502	0.789595	-0.000093
 972	9.6615e+01	1.3123	3.940244	0.000193	1.925197	0.652274	-0.000077
 973	9.6714e+01	1.2722	3.811056	0.000324	3.242437	1.098567	-0.000130
 974	9.6814e+01	1.2224	3.702053	0.000274	2.735806	0.926916	-0.000110
 975	9.6913e+01	1.1855	3.580939	0.000304	3.039785	1.029907	-0.000122
 976	9.7013e+01	1.1486	3.455788	0.000314	3.141111	1.064237	-0.000126
 977	9.7112e+01	1.1021	3.314488	0.000355	3.546416	1.201558	-0.000142
 978	9.7212e+01	1.0716	3.205486	0.000274	2.735806	0.926916	-0.000110
 979	9.7311e+01	1.0331	3.072260	0.000334	3.343763	1.132898	-0.000134
 980	9.7410e+01	0.9866	2.910775	0.000405	4.053047	1.373209	-0.000162
 981	9.7510e+01	0.9609	2.765438	0.000365	3.647742	1.235888	-0.000146
 982	9.7609e+01	0.9080	2.628175	0.000345	3.445090	1.167228	-0.000138
 983	9.7709e+01	0.8743	2.527247	0.000253	2.533154	0.858256	-0.000101
 984	9.7808e+01	0.8470	2.402096	0.000314	3.141111	1.064237	-0.000126
 985	9.7908e+01	0.7989	2.256759	0.000365	3.647742	1.235888	-0.000146
 986	9.8007e+01	0.7476	2.151793	0.000263	2.634480	0.892586	-0.000105
 987	9.8107e+01	0.7107	2.030679	0.000304	3.039785	1.029907	-0.000122
 988	9.8207e+01	0.6754	1.873231	0.000395	3.951720	1.338879	-0.000158
 989	9.8306e+01	0.6289	1.796525	0.000193	1.925197	0.652274	-0.000077
 990	9.8406e+01	0.5855	1.679448	0.000294	2.938459	0.995577	-0.000118
 991	9.8505e+01	0.5503	1.566409	0.000284	2.837133	0.961247	-0.000114
 992	9.8605e+01	0.5182	1.477592	0.000223	2.229176	0.755265	-0.000089
 993	9.8704e+01	0.4797	1.356478	0.000304	3.039785	1.029907	-0.000122
 994	9.8803e+01	0.4396	1.207104	0.000375	3.749068	1.270219	-0.000150
 995	9.8903e+01	0.3882	1.053692	0.000385	3.850394	1.304549	-0.000154
 996	9.9002e+01	0.3577	0.952764	0.000253	2.533154	0.858256	-0.000101
 997	9.9102e+01	0.3144	0.876058	0.000193	1.925197	0.652274	-0.000077
 998	9.9201e+01	0.2775	0.742833	0.000334	3.343763	1.132898	-0.000134
 999	9.9301e+01	0.2471	0.577310	0.000415	4.154373	1.407540	-0.000166
1000	9.9400e+01	0.1877	0.415825	0.000405	4.053047	1.373209	-0.000162
1001	9.9500e+01	0.1588	0.314897	0.000253	2.533154	0.858256	-0.000101
1002	9.9600e+01	0.1155	0.201857	0.000284	2.837133	0.961247	-0.000114
1003	9.9699e+01	0.0738	0.040371	0.000405	4.053047	1.373209	-0.000162
1004	9.9799e+01	0.0369	-0.072668	0.000284	2.837133	0.961247	-0.000114
1005	9.9898e+01	0.0032	-0.149374	0.000193	1.925197	0.652274	-0.000077
1006	9.9998e+01	-0.0433	-0.266451	0.000294	2.938459	0.995577	-0.000118
1007	1.0010e+02	-0.0770	-0.403714	0.000345	3.445090	1.167228	-0.000138
1008	1.0020e+02	-0.1123	-0.464271	0.000152	1.519892	0.514953	-0.000061
1009	1.0030e+02	-0.1556	-0.593459	0.000324	3.242437	1.098567	-0.000130
1010	1.0040e+02	-0.2166	-0.694387	0.000253	2.533154	0.858256	-0.000101
1011	1.0050e+02	-0.2278	-0.843761	0.000375	3.749068	1.270219	-0.000150
1012	1.0059e+02	-0.2839	-0.956801	0.000284	2.837133	0.961247	-0.000114
1013	1.0069e+02	-0.3160	-1.049655	0.000233	2.330502	0.789595	-0.000093
1014	1.0079e+02	-0.3481	-1.178844	0.000324	3.242437	1.098567	-0.000130
1015	1.0089e+02	-0.3995	-1.324181	0.000365	3.647742	1.235888	-0.000146
1016	1.0099e+02	-0.4380	-1.356478	0.000081	0.810609	0.274642	-0.000032
1017	1.0109e+02	-0.4716	-1.509889	0.000385	3.850394	1.304549	-0.000154
1018	1.0119e+02	-0.5166	-1.687523	0.000446	4.458351	1.510530	-0.000179
1019	1.0129e+02	-0.5551	-1.832860	0.000365	3.647742	1.235888	-0.000146
1020	1.0139e+02	-0.5936	-1.949937	0.000294	2.938459	0.995577	-0.000118
1021	1.0149e+02	-0.6401	-2.095273	0.000365	3.647742	1.235888	-0.000146
1022	1.0159e+02	-0.6770	-2.228499	0.000334	3.343763	1.132898	-0.000134
1023	1.0169e+02	-0.7155	-2.305205	0.000193	1.925197	0.652274	-0.000077
1024	1.0179e+02	-0.7572	-2.414207	0.000274	2.735806	0.926916	-0.000110
1025	1.0189e+02	-0.7941	-2.527247	0.000284	2.837133	0.961247	-0.000114
1026	1.0199e+02	-0.8422	-2.632213	0.000263	2.634480	0.892586	-0.000105
1027	1.0209e+02	-0.8695	-2.729104	0.000243	2.431828	0.823926	-0.000097
1028	1.0219e+02	-0.9064	-2.821958	0.000233	2.330502	0.789595	-0.000093
1029	1.0229e+02	-0.9577	-2.947109	0.000314	3.141111	1.064237	-0.000126
1030	1.0239e+02	-0.9962	-3.084372	0.000345	3.445090	1.167228	-0.000138
1031	1.0248e+02	-1.0235	-3.209523	0.000314	3.141111	1.064237	-0.000126
1032	1.0258e+02	-1.0652	-3.326600	0.000294	2.938459	0.995577	-0.000118
1033	1.0268e+02	-1.1198	-3.447714	0.000304	3.039785	1.029907	-0.000122
1034	1.0278e+02	-1.1502	-3.548642	0.000253	2.533154	0.858256	-0.000101
1035	1.0288e+02	-1.1855	-3.669756	0.000304	3.039785	1.029907	-0.000122
1036	1.0298e+02	-1.2256	-3.794908	0.000314	3.141111	1.064237	-0.000126
1037	1.0308e+02	-1.2770	-3.952356	0.000395	3.951720	1.338879	-0.000158
1038	1.0318e+02	-1.3091	-4.093656	0.000355	3.546416	1.201558	-0.000142
1039	1.0328e+02	-1.3508	-4.218807	0.000314	3.141111	1.064237	-0.000126
1040	1.0338e+02	-1.3812	-4.372218	0.000385	3.850394	1.304549	-0.000154
1041	1.0348e+02	-1.4342	-4.424701	0.000132	1.317240	0.446293	-0.000053
1042	1.0358e+02	-1.4727	-4.561963	0.000345	3.445090	1.167228	-0.000138
1043	1.0368e+02	-1.5096	-4.662892	0.000253	2.533154	0.858256	-0.000101
1044	1.0378e+02	-1.5401	-4.767857	0.000263	2.634480	0.892586	-0.000105
1045	1.0388e+02	-1.5930	-4.872823	0.000263	2.634480	0.892586	-0.000105
1046	1.0398e+02	-1.6299	-5.002011	0.000324	3.242437	1.098567	-0.000130
1047	1.0408e+02	-1.6716	-5.086791	0.000213	2.127849	0.720935	-0.000085
1048	1.0418e+02	-1.7133	-5.195794	0.000274	2.735806	0.926916	-0.000110
1049	1.0428e+02	-1.7550	-5.320945	0.000314	3.141111	1.064237	-0.000126
1050	1.0438e+02	-1.7903	-5.458208	0.000345	3.445090	1.167228	-0.000138
1051	1.0447e+02	-1.8256	-5.555099	0.000243	2.431828	0.823926	-0.000097
1052	1.0457e+02	-1.8753	-5.692361	0.000345	3.445090	1.167228	-0.000138
1053	1.0467e+02	-1.9138	-5.845773	0.000385	3.850394	1.304549	-0.000154
1054	1.0477e+02	-1.9491	-5.918441	0.000182	1.823871	0.617944	-0.000073
1055	1.0487e+02	-1.9876	-6.079926	0.000405	4.053047	1.373209	-0.000162
1056	1.0497e+02	-2.0406	-6.209115	0.000324	3.242437	1.098567	-0.000130
1057	1.0507e+02	-2.0598	-6.338303	0.000324	3.242437	1.098567	-0.000130
1058	1.0517e+02	-2.1048	-6.467491	0.000324	3.242437	1.098567	-0.000130
1059	1.0527e+02	-2.1400	-6.524011	0.000142	1.418566	0.480623	-0.000057
1060	1.0537e+02	-2.1834	-6.661274	0.000345	3.445090	1.167228	-0.000138
1061	1.0547e+02	-2.2315	-6.786425	0.000314	3.141111	1.064237	-0.000126
1062	1.0557e+02	-2.2764	-6.851019	0.000162	1.621219	0.549284	-0.000065
1063	1.0567e+02	-2.3037	-6.907539	0.000142	1.418566	0.480623	-0.000057
1064	1.0577e+02	-2.3534	-7.081136	0.000436	4.357025	1.476200	-0.000174
1065	1.0587e+02	-2.3871	-7.210324	0.000324	3.242437	1.098567	-0.000130
1066	1.0597e+02	-2.4288	-7.335476	0.000314	3.141111	1.064237	-0.000126
1067	1.0607e+02	-2.4689	-7.412181	0.000193	1.925197	0.652274	-0.000077
1068	1.0617e+02	-2.5122	-7.541370	0.000324	3.242437	1.098567	-0.000130
1069	1.0627e+02	-2.5395	-7.678632	0.000345	3.445090	1.167228	-0.000138
1070	1.0637e+02	-2.5828	-7.755338	0.000193	1.925197	0.652274	-0.000077
1071	1.0647e+02	-2.6229	-7.908749	0.000385	3.850394	1.304549	-0.000154
1072	1.0656e+02	-2.6678	-8.033900	0.000314	3.141111	1.064237	-0.000126
1073	1.0666e+02	-2.7015	-8.167126	0.000334	3.343763	1.132898	-0.000134
1074	1.0676e+02	-2.7432	-8.243831	0.000193	1.925197	0.652274	-0.000077
1075	1.0686e+02	-2.7817	-8.364945	0.000304	3.039785	1.029907	-0.000122
1076	1.0696e+02	-2.8202	-8.526431	0.000405	4.053047	1.373209	-0.000162
1077	1.0706e+02	-2.8636	-8.639470	0.000284	2.837133	0.961247	-0.000114
1078	1.0716e+02	-2.9117	-8.744436	0.000263	2.634480	0.892586	-0.000105
1079	1.0726e+02	-2.9502	-8.821142	0.000193	1.925197	0.652274	-0.000077
1080	1.0736e+02	-2.9887	-8.918033	0.000243	2.431828	0.823926	-0.000097
1081	1.0746e+02	-3.0320	-8.986664	0.000172	1.722545	0.583614	-0.000069
1082	1.0756e+02	-3.0801	-9.111815	0.000314	3.141111	1.064237	-0.000126
1083	1.0766e+02	-3.1042	-9.257152	0.000365	3.647742	1.235888	-0.000146
1084	1.0776e+02	-3.1507	-9.354044	0.000243	2.431828	0.823926	-0.000097
1085	1.0786e+02	-3.1892	-9.491306	0.000345	3.445090	1.167228	-0.000138
1086	1.0796e+02	-3.2197	-9.588197	0.000243	2.431828	0.823926	-0.000097
1087	1.0806e+02	-3.2614	-9.737571	0.000375	3.749068	1.270219	-0.000150
1088	1.0816e+02	-3.2935	-9.874834	0.000345	3.445090	1.167228	-0.000138
1089	1.0826e+02	-3.3368	-10.040357	0.000415	4.154373	1.407540	-0.000166
1090	1.0836e+02	-3.3817	-10.117062	0.000193	1.925197	0.652274	-0.000077
1091	1.0845e+02	-3.4363	-10.270473	0.000385	3.850394	1.304549	-0.000154
1092	1.0855e+02	-3.4700	-10.379476	0.000274	2.735806	0.926916	-0.000110
1093	1.0865e+02	-3.5117	-10.456182	0.000193	1.925197	0.652274	-0.000077
1094	1.0875e+02	-3.5502	-10.613630	0.000395	3.951720	1.338879	-0.000158
1095	1.0885e+02	-3.5855	-10.682261	0.000172	1.722545	0.583614	-0.000069
1096	1.0895e+02	-3.6272	-10.787227	0.000263	2.634480	0.892586	-0.000105
1097	1.0905e+02	-3.6705	-10.888155	0.000253	2.533154	0.858256	-0.000101
1098	1.0915e+02	-3.7042	-11.041566	0.000385	3.850394	1.304549	-0.000154
1099	1.0925e+02	-3.7379	-11.114235	0.000182	1.823871	0.617944	-0.000073
1100	1.0935e+02	-3.7908	-11.235349	0.000304	3.039785	1.029907	-0.000122
1101	1.0945e+02	-3.8181	-11.372611	0.000345	3.445090	1.167228	-0.000138
1102	1.0955e+02	-3.8598	-11.477577	0.000263	2.634480	0.892586	-0.000105
1103	1.0965e+02	-3.9031	-11.570431	0.000233	2.330502	0.789595	-0.000093
1104	1.0975e+02	-3.9416	-11.727879	0.000395	3.951720	1.338879	-0.000158
1105	1.0985e+02	-3.9833	-11.816696	0.000223	2.229176	0.755265	-0.000089
1106	1.0995e+02	-4.0250	-11.990293	0.000436	4.357025	1.476200	-0.000174
1107	1.1005e+02	-4.0651	-12.115444	0.000314	3.141111	1.064237	-0.000126
1108	1.1015e+02	-4.1068	-12.236558	0.000304	3.039785	1.029907	-0.000122
1109	1.1025e+02	-4.1421	-12.317301	0.000203	2.026523	0.686605	-0.000081
1110	1.1035e+02	-4.1951	-12.482824	0.000415	4.154373	1.407540	-0.000166
1111	1.1044e+02	-4.2207	-12.563566	0.000203	2.026523	0.686605	-0.000081
1112	1.1054e+02	-4.2657	-12.729089	0.000415	4.154373	1.407540	-0.000166
1113	1.1064e+02	-4.2897	-12.846166	0.000294	2.938459	0.995577	-0.000118
1114	1.1074e+02	-4.3523	-12.943057	0.000243	2.431828	0.823926	-0.000097
1115	1.1084e+02	-4.3812	-13.027837	0.000213	2.127849	0.720935	-0.000085
1116	1.1094e+02	-4.4229	-13.108580	0.000203	2.026523	0.686605	-0.000081
1117	1.1104e+02	-4.4614	-13.213545	0.000263	2.634480	0.892586	-0.000105
1118	1.1114e+02	-4.5031	-13.350808	0.000345	3.445090	1.167228	-0.000138
1119	1.1124e+02	-4.5448	-13.463848	0.000284	2.837133	0.961247	-0.000114
1120	1.1134e+02	-4.5785	-13.548628	0.000213	2.127849	0.720935	-0.000085
1121	1.1144e+02	-4.6202	-13.706076	0.000395	3.951720	1.338879	-0.000158
1122	1.1154e+02	-4.6635	-13.811041	0.000263	2.634480	0.892586	-0.000105
1123	1.1164e+02	-4.6924	-13.980601	0.000426	4.255699	1.441870	-0.000170
1124	1.1174e+02	-4.7437	-14.105752	0.000314	3.141111	1.064237	-0.000126
1125	1.1184e+02	-4.7710	-14.238978	0.000334	3.343763	1.132898	-0.000134
1126	1.1194e+02	-4.8063	-14.400463	0.000405	4.053047	1.373209	-0.000162
1127	1.1204e+02	-4.8544	-14.473132	0.000182	1.823871	0.617944	-0.000073
1128	1.1214e+02	-4.8977	-14.565986	0.000233	2.330502	0.789595	-0.000093
1129	1.1224e+02	-4.9394	-14.650766	0.000213	2.127849	0.720935	-0.000085
1130	1.1234e+02	-4.9827	-14.779954	0.000324	3.242437	1.098567	-0.000130
1131	1.1244e+02	-5.0148	-14.917217	0.000345	3.445090	1.167228	-0.000138
1132	1.1253e+02	-5.0678	-15.001996	0.000213	2.127849	0.720935	-0.000085
1133	1.1263e+02	-5.1015	-15.086776	0.000213	2.127849	0.720935	-0.000085
1134	1.1273e+02	-5.1432	-15.211927	0.000314	3.141111	1.064237	-0.000126
1135	1.1283e+02	-5.1785	-15.373413	0.000405	4.053047	1.373209	-0.000162
1136	1.1293e+02	-5.2105	-15.462230	0.000223	2.229176	0.755265	-0.000089
1137	1.1303e+02	-5.2571	-15.575270	0.000284	2.837133	0.961247	-0.000114
1138	1.1313e+02	-5.3020	-15.708495	0.000334	3.343763	1.132898	-0.000134
1139	1.1323e+02	-5.3373	-15.829609	0.000304	3.039785	1.029907	-0.000122
1140	1.1333e+02	-5.3726	-15.934575	0.000263	2.634480	0.892586	-0.000105
1141	1.1343e+02	-5.4207	-16.083949	0.000375	3.749068	1.270219	-0.000150
1142	1.1353e+02	-5.4560	-16.192951	0.000274	2.735806	0.926916	-0.000110
1143	1.1363e+02	-5.4961	-16.318103	0.000314	3.141111	1.064237	-0.000126
1144	1.1373e+02	-5.5378	-16.459402	0.000355	3.546416	1.201558	-0.000142
1145	1.1383e+02	-5.5731	-16.576479	0.000294	2.938459	0.995577	-0.000118
1146	1.1393e+02	-5.6132	-16.689519	0.000284	2.837133	0.961247	-0.000114
1147	1.1403e+02	-5.6549	-16.778336	0.000223	2.229176	0.755265	-0.000089
1148	1.1413e+02	-5.6934	-16.887339	0.000274	2.735806	0.926916	-0.000110
1149	1.1423e+02	-5.7432	-17.004416	0.000294	2.938459	0.995577	-0.000118
1150	1.1433e+02	-5.7720	-17.109381	0.000263	2.634480	0.892586	-0.000105
1151	1.1442e+02	-5.8169	-17.214347	0.000263	2.634480	0.892586	-0.000105
1152	1.1452e+02	-5.8442	-17.319312	0.000263	2.634480	0.892586	-0.000105
1153	1.1462e+02	-5.9068	-17.472723	0.000385	3.850394	1.304549	-0.000154
1154	1.1472e+02	-5.9405	-17.601912	0.000324	3.242437	1.098567	-0.000130
1155	1.1482e+02	-5.9710	-17.690729	0.000223	2.229176	0.755265	-0.000089
1156	1.1492e+02	-6.0127	-17.819917	0.000324	3.242437	1.098567	-0.000130
1157	1.1502e+02	-6.0528	-17.941031	0.000304	3.039785	1.029907	-0.000122
1158	1.1512e+02	-6.0929	-18.094442	0.000385	3.850394	1.304549	-0.000154
1159	1.1522e+02	-6.1298	-18.203445	0.000274	2.735806	0.926916	-0.000110
1160	1.1532e+02	-6.1859	-18.377042	0.000436	4.357025	1.476200	-0.000174
1161	1.1542e+02	-6.2132	-18.469896	0.000233	2.330502	0.789595	-0.000093
1162	1.1552e+02	-6.2629	-18.554676	0.000213	2.127849	0.720935	-0.000085
1163	1.1562e+02	-6.2950	-18.683864	0.000324	3.242437	1.098567	-0.000130
1164	1.1572e+02	-6.3415	-18.784793	0.000253	2.533154	0.858256	-0.000101
1165	1.1582e+02	-6.3736	-18.930129	0.000365	3.647742	1.235888	-0.000146
1166	1.1592e+02	-6.4105	-18.970501	0.000101	1.013262	0.343302	-0.000041
1167	1.1602e+02	-6.4586	-19.099689	0.000324	3.242437	1.098567	-0.000130
1168	1.1612e+02	-6.4939	-19.224840	0.000314	3.141111	1.064237	-0.000126
1169	1.1622e+02	-6.5292	-19.301546	0.000193	1.925197	0.652274	-0.000077
1170	1.1632e+02	-6.5758	-19.414586	0.000284	2.837133	0.961247	-0.000114
1171	1.1642e+02	-6.6078	-19.539737	0.000314	3.141111	1.064237	-0.000126
1172	1.1651e+02	-6.6511	-19.660851	0.000304	3.039785	1.029907	-0.000122
1173	1.1661e+02	-6.6897	-19.733519	0.000182	1.823871	0.617944	-0.000073
1174	1.1671e+02	-6.7330	-19.882894	0.000375	3.749068	1.270219	-0.000150
1175	1.1681e+02	-6.7683	-19.959599	0.000193	1.925197	0.652274	-0.000077
1176	1.1691e+02	-6.8100	-20.125122	0.000415	4.154373	1.407540	-0.000166
1177	1.1701e+02	-6.8597	-20.278533	0.000385	3.850394	1.304549	-0.000154
1178	1.1711e+02	-6.8902	-20.343127	0.000162	1.621219	0.549284	-0.000065
1179	1.1721e+02	-6.9255	-20.452130	0.000274	2.735806	0.926916	-0.000110
1180	1.1731e+02	-6.9688	-20.609578	0.000395	3.951720	1.338879	-0.000158
1181	1.1741e+02	-7.0121	-20.746841	0.000345	3.445090	1.167228	-0.000138
1182	1.1751e+02	-7.0442	-20.807398	0.000152	1.519892	0.514953	-0.000061
1183	1.1761e+02	-7.0811	-20.928512	0.000304	3.039785	1.029907	-0.000122
1184	1.1771e+02	-7.1276	-20.980994	0.000132	1.317240	0.446293	-0.000053
1185	1.1781e+02	-7.1725	-21.102109	0.000304	3.039785	1.029907	-0.000122
1186	1.1791e+02	-7.2174	-21.186888	0.000213	2.127849	0.720935	-0.000085
1187	1.1801e+02	-7.2575	-21.336262	0.000375	3.749068	1.270219	-0.000150
1188	1.1811e+02	-7.2880	-21.404894	0.000172	1.722545	0.583614	-0.000069
1189	1.1821e+02	-7.3394	-21.513896	0.000274	2.735806	0.926916	-0.000110
1190	1.1831e+02	-7.3650	-21.651159	0.000345	3.445090	1.167228	-0.000138
1191	1.1841e+02	-7.4148	-21.748050	0.000243	2.431828	0.823926	-0.000097
1192	1.1850e+02	-7.4549	-21.844941	0.000243	2.431828	0.823926	-0.000097
1193	1.1860e+02	-7.4854	-22.014501	0.000426	4.255699	1.441870	-0.000170
1194	1.1870e+02	-7.5239	-22.131578	0.000294	2.938459	0.995577	-0.000118
1195	1.1880e+02	-7.5672	-22.240581	0.000274	2.735806	0.926916	-0.000110
1196	1.1890e+02	-7.5960	-22.385918	0.000365	3.647742	1.235888	-0.000146
1197	1.1900e+02	-7.6458	-22.494920	0.000274	2.735806	0.926916	-0.000110
1198	1.1910e+02	-7.6859	-22.571626	0.000193	1.925197	0.652274	-0.000077
1199	1.1920e+02	-7.7324	-22.696777	0.000314	3.141111	1.064237	-0.000126
1200	1.1930e+02	-7.7565	-22.813854	0.000294	2.938459	0.995577	-0.000118
1201	1.1940e+02	-7.8110	-22.886522	0.000182	1.823871	0.617944	-0.000073
1202	1.1950e+02	-7.8431	-22.959191	0.000182	1.823871	0.617944	-0.000073
1203	1.1960e+02	-7.8864	-23.112602	0.000385	3.850394	1.304549	-0.000154
1204	1.1970e+02	-7.9169	-23.165085	0.000132	1.317240	0.446293	-0.000053
1205	1.1980e+02	-7.9602	-23.286199	0.000304	3.039785	1.029907	-0.000122
1206	1.1990e+02	-8.0083	-23.411350	0.000314	3.141111	1.064237	-0.000126
1207	1.2000e+02	-8.0549	-23.512279	0.000253	2.533154	0.858256	-0.000101
1208	1.2010e+02	-8.0853	-23.572836	0.000152	1.519892	0.514953	-0.000061
1209	1.2020e+02	-8.1270	-23.726247	0.000385	3.850394	1.304549	-0.000154
1210	1.2030e+02	-8.1623	-23.827175	0.000253	2.533154	0.858256	-0.000101
1211	1.2039e+02	-8.2073	-23.980586	0.000385	3.850394	1.304549	-0.000154
1212	1.2049e+02	-8.2442	-24.089589	0.000274	2.735806	0.926916	-0.000110
1213	1.2059e+02	-8.2875	-24.202629	0.000284	2.837133	0.961247	-0.000114
1214	1.2069e+02	-8.3292	-24.335854	0.000334	3.343763	1.132898	-0.000134
1215	1.2079e+02	-8.3629	-24.412560	0.000193	1.925197	0.652274	-0.000077
1216	1.2089e+02	-8.4078	-24.533674	0.000304	3.039785	1.029907	-0.000122
1217	1.2099e+02	-8.4447	-24.634602	0.000253	2.533154	0.858256	-0.000101
1218	1.2109e+02	-8.4800	-24.763791	0.000324	3.242437	1.098567	-0.000130
1219	1.2119e+02	-8.5217	-24.856645	0.000233	2.330502	0.789595	-0.000093
1220	1.2129e+02	-8.5666	-24.949499	0.000233	2.330502	0.789595	-0.000093
1221	1.2139e+02	-8.6051	-25.014093	0.000162	1.621219	0.549284	-0.000065
1222	1.2149e+02	-8.6420	-25.098873	0.000213	2.127849	0.720935	-0.000085
1223	1.2159e+02	-8.6949	-25.195764	0.000243	2.431828	0.823926	-0.000097
1224	1.2169e+02	-8.7222	-25.292655	0.000243	2.431828	0.823926	-0.000097
1225	1.2179e+02	-8.7735	-25.417807	0.000314	3.141111	1.064237	-0.000126
1226	1.2189e+02	-8.7960	-25.563143	0.000365	3.647742	1.235888	-0.000146
1227	1.2199e+02	-8.8425	-25.651960	0.000223	2.229176	0.755265	-0.000089
1228	1.2209e+02	-8.8858	-25.752889	0.000253	2.533154	0.858256	-0.000101
1229	1.2219e+02	-8.9163	-25.882077	0.000324	3.242437	1.098567	-0.000130
1230	1.2229e+02	-8.9500	-26.011266	0.000324	3.242437	1.098567	-0.000130
1231	1.2239e+02	-8.9981	-26.152565	0.000355	3.546416	1.201558	-0.000142
1232	1.2248e+02	-9.0382	-26.201011	0.000122	1.215914	0.411963	-0.000049
1233	1.2258e+02	-9.0848	-26.330199	0.000324	3.242437	1.098567	-0.000130
1234	1.2268e+02	-9.1217	-26.406905	0.000193	1.925197	0.652274	-0.000077
1235	1.2278e+02	-9.1618	-26.507833	0.000253	2.533154	0.858256	-0.000101
1236	1.2288e+02	-9.2019	-26.628947	0.000304	3.039785	1.029907	-0.000122
1237	1.2298e+02	-9.2388	-26.721801	0.000233	2.330502	0.789595	-0.000093
1238	1.2308e+02	-9.2821	-26.802544	0.000203	2.026523	0.686605	-0.000081
1239	1.2318e+02	-9.3238	-26.875213	0.000182	1.823871	0.617944	-0.000073
1240	1.2328e+02	-9.3527	-26.980178	0.000263	2.634480	0.892586	-0.000105
1241	1.2338e+02	-9.4056	-27.101292	0.000304	3.039785	1.029907	-0.000122
1242	1.2348e+02	-9.4393	-27.202221	0.000253	2.533154	0.858256	-0.000101
1243	1.2358e+02	-9.4794	-27.311223	0.000274	2.735806	0.926916	-0.000110
1244	1.2368e+02	-9.5195	-27.412152	0.000253	2.533154	0.858256	-0.000101
1245	1.2378e+02	-9.5596	-27.529229	0.000294	2.938459	0.995577	-0.000118
1246	1.2388e+02	-9.5885	-27.630157	0.000253	2.533154	0.858256	-0.000101
1247	1.2398e+02	-9.6414	-27.767420	0.000345	3.445090	1.167228	-0.000138
1248	1.2408e+02	-9.6735	-27.836051	0.000172	1.722545	0.583614	-0.000069
1249	1.2418e+02	-9.7120	-27.953128	0.000294	2.938459	0.995577	-0.000118
1250	1.2428e+02	-9.7553	-28.074242	0.000304	3.039785	1.029907	-0.000122
1251	1.2438e+02	-9.7922	-28.171133	0.000243	2.431828	0.823926	-0.000097
1252	1.2447e+02	-9.8307	-28.251876	0.000203	2.026523	0.686605	-0.000081
1253	1.2457e+02	-9.8741	-28.385101	0.000334	3.343763	1.132898	-0.000134
1254	1.2467e+02	-9.9110	-28.486030	0.000253	2.533154	0.858256	-0.000101
1255	1.2477e+02	-9.9607	-28.570810	0.000213	2.127849	0.720935	-0.000085
1256	1.2487e+02	-10.0040	-28.667701	0.000243	2.431828	0.823926	-0.000097
1257	1.2497e+02	-10.0409	-28.744406	0.000193	1.925197	0.652274	-0.000077
1258	1.2507e+02	-10.0762	-28.877632	0.000334	3.343763	1.132898	-0.000134
1259	1.2517e+02	-10.1195	-28.954338	0.000193	1.925197	0.652274	-0.000077
1260	1.2527e+02	-10.1580	-29.043154	0.000223	2.229176	0.755265	-0.000089
1261	1.2537e+02	-10.1965	-29.196566	0.000385	3.850394	1.304549	-0.000154
1262	1.2547e+02	-10.2302	-29.309605	0.000284	2.837133	0.961247	-0.000114
1263	1.2557e+02	-10.2767	-29.438794	0.000324	3.242437	1.098567	-0.000130
1264	1.2567e+02	-10.3120	-29.539722	0.000253	2.533154	0.858256	-0.000101
1265	1.2577e+02	-10.3553	-29.620465	0.000203	2.026523	0.686605	-0.000081
1266	1.2587e+02	-10.3938	-29.733505	0.000284	2.837133	0.961247	-0.000114
1267	1.2597e+02	-10.4323	-29.866730	0.000334	3.343763	1.132898	-0.000134
1268	1.2607e+02	-10.4740	-29.947473	0.000203	2.026523	0.686605	-0.000081
1269	1.2617e+02	-10.5093	-30.056476	0.000274	2.735806	0.926916	-0.000110
1270	1.2627e+02	-10.5575	-30.185664	0.000324	3.242437	1.098567	-0.000130
1271	1.2636e+02	-10.5944	-30.254295	0.000172	1.722545	0.583614	-0.000069
1272	1.2646e+02	-10.6361	-30.387521	0.000334	3.343763	1.132898	-0.000134
1273	1.2656e+02	-10.6794	-30.472301	0.000213	2.127849	0.720935	-0.000085
1274	1.2666e+02	-10.7131	-30.573229	0.000253	2.533154	0.858256	-0.000101
1275	1.2676e+02	-10.7548	-30.633786	0.000152	1.519892	0.514953	-0.000061
1276	1.2686e+02	-10.7917	-30.771049	0.000345	3.445090	1.167228	-0.000138
1277	1.2696e+02	-10.8286	-30.851791	0.000203	2.026523	0.686605	-0.000081
1278	1.2706e+02	-10.8591	-31.001165	0.000375	3.749068	1.270219	-0.000150
1279	1.2716e+02	-10.9104	-31.073834	0.000182	1.823871	0.617944	-0.000073
1280	1.2726e+02	-10.9537	-31.182836	0.000274	2.735806	0.926916	-0.000110
1281	1.2736e+02	-10.9858	-31.340285	0.000395	3.951720	1.338879	-0.000158
1282	1.2746e+02	-11.0339	-31.449287	0.000274	2.735806	0.926916	-0.000110
1283	1.2756e+02	-11.0708	-31.542142	0.000233	2.330502	0.789595	-0.000093
1284	1.2766e+02	-11.1029	-31.614810	0.000182	1.823871	0.617944	-0.000073
1285	1.2776e+02	-11.1478	-31.739961	0.000314	3.141111	1.064237	-0.000126
1286	1.2786e+02	-11.1975	-31.869150	0.000324	3.242437	1.098567	-0.000130
1287	1.2796e+02	-11.2377	-31.937781	0.000172	1.722545	0.583614	-0.000069
1288	1.2806e+02	-11.2826	-32.058895	0.000304	3.039785	1.029907	-0.000122
1289	1.2816e+02	-11.3147	-32.147712	0.000223	2.229176	0.755265	-0.000089
1290	1.2826e+02	-11.3467	-32.244603	0.000243	2.431828	0.823926	-0.000097
1291	1.2835e+02	-11.3901	-32.393977	0.000375	3.749068	1.270219	-0.000150
1292	1.2845e+02	-11.4334	-32.458571	0.000162	1.621219	0.549284	-0.000065
1293	1.2855e+02	-11.4751	-32.543351	0.000213	2.127849	0.720935	-0.000085
1294	1.2865e+02	-11.5168	-32.628131	0.000213	2.127849	0.720935	-0.000085
1295	1.2875e+02	-11.5441	-32.745208	0.000294	2.938459	0.995577	-0.000118
1296	1.2885e+02	-11.5794	-32.898619	0.000385	3.850394	1.304549	-0.000154
1297	1.2895e+02	-11.6275	-33.007622	0.000274	2.735806	0.926916	-0.000110
1298	1.2905e+02	-11.6724	-33.120662	0.000284	2.837133	0.961247	-0.000114
1299	1.2915e+02	-11.7077	-33.213516	0.000233	2.330502	0.789595	-0.000093
1300	1.2925e+02	-11.7430	-33.326556	0.000284	2.837133	0.961247	-0.000114
1301	1.2935e+02	-11.7863	-33.366927	0.000101	1.013262	0.343302	-0.000041
1302	1.2945e+02	-11.8264	-33.536487	0.000426	4.255699	1.441870	-0.000170
1303	1.2955e+02	-11.8681	-33.625304	0.000223	2.229176	0.755265	-0.000089
1304	1.2965e+02	-11.9066	-33.742380	0.000294	2.938459	0.995577	-0.000118
1305	1.2975e+02	-11.9387	-33.815049	0.000182	1.823871	0.617944	-0.000073
1306	1.2985e+02	-11.9916	-33.924052	0.000274	2.735806	0.926916	-0.000110
1307	1.2995e+02	-12.0237	-34.016906	0.000233	2.330502	0.789595	-0.000093
1308	1.3005e+02	-12.0735	-34.146094	0.000324	3.242437	1.098567	-0.000130
1309	1.3015e+02	-12.1087	-34.230874	0.000213	2.127849	0.720935	-0.000085
1310	1.3025e+02	-12.1489	-34.323728	0.000233	2.330502	0.789595	-0.000093
1311	1.3034e+02	-12.1874	-34.436768	0.000284	2.837133	0.961247	-0.000114
1312	1.3044e+02	-12.2194	-34.501362	0.000162	1.621219	0.549284	-0.000065
1313	1.3054e+02	-12.2676	-34.650736	0.000375	3.749068	1.270219	-0.000150
1314	1.3064e+02	-12.3045	-34.783962	0.000334	3.343763	1.132898	-0.000134
1315	1.3074e+02	-12.3542	-34.848556	0.000162	1.621219	0.549284	-0.000065
1316	1.3084e+02	-12.3927	-34.961595	0.000284	2.837133	0.961247	-0.000114
1317	1.3094e+02	-12.4344	-35.119044	0.000395	3.951720	1.338879	-0.000158
1318	1.3104e+02	-12.4649	-35.219972	0.000253	2.533154	0.858256	-0.000101
1319	1.3114e+02	-12.5034	-35.300715	0.000203	2.026523	0.686605	-0.000081
1320	1.3124e+02	-12.5387	-35.409718	0.000274	2.735806	0.926916	-0.000110
1321	1.3134e+02	-12.5884	-35.514683	0.000263	2.634480	0.892586	-0.000105
1322	1.3144e+02	-12.6269	-35.603500	0.000223	2.229176	0.755265	-0.000089
1323	1.3154e+02	-12.6574	-35.728651	0.000314	3.141111	1.064237	-0.000126
1324	1.3164e+02	-12.7055	-35.813431	0.000213	2.127849	0.720935	-0.000085
1325	1.3174e+02	-12.7488	-35.934545	0.000304	3.039785	1.029907	-0.000122
1326	1.3184e+02	-12.7905	-36.027399	0.000233	2.330502	0.789595	-0.000093
1327	1.3194e+02	-12.8194	-36.112179	0.000213	2.127849	0.720935	-0.000085
1328	1.3204e+02	-12.8692	-36.225219	0.000284	2.837133	0.961247	-0.000114
1329	1.3214e+02	-12.9012	-36.330185	0.000263	2.634480	0.892586	-0.000105
1330	1.3224e+02	-12.9446	-36.402853	0.000182	1.823871	0.617944	-0.000073
1331	1.3234e+02	-12.9815	-36.560301	0.000395	3.951720	1.338879	-0.000158
1332	1.3243e+02	-13.0280	-36.657193	0.000243	2.431828	0.823926	-0.000097
1333	1.3253e+02	-13.0585	-36.778307	0.000304	3.039785	1.029907	-0.000122
1334	1.3263e+02	-13.1082	-36.855012	0.000193	1.925197	0.652274	-0.000077
1335	1.3273e+02	-13.1387	-36.968052	0.000284	2.837133	0.961247	-0.000114
1336	1.3283e+02	-13.1804	-37.081092	0.000284	2.837133	0.961247	-0.000114
1337	1.3293e+02	-13.2269	-37.169909	0.000223	2.229176	0.755265	-0.000089
1338	1.3303e+02	-13.2574	-37.266800	0.000243	2.431828	0.823926	-0.000097
1339	1.3313e+02	-13.2991	-37.363691	0.000243	2.431828	0.823926	-0.000097
1340	1.3323e+02	-13.3312	-37.484805	0.000304	3.039785	1.029907	-0.000122
1341	1.3333e+02	-13.3873	-37.569585	0.000213	2.127849	0.720935	-0.000085
1342	1.3343e+02	-13.4226	-37.674551	0.000263	2.634480	0.892586	-0.000105
1343	1.3353e+02	-13.4659	-37.759331	0.000213	2.127849	0.720935	-0.000085
1344	1.3363e+02	-13.5044	-37.872370	0.000284	2.837133	0.961247	-0.000114
1345	1.3373e+02	-13.5397	-37.953113	0.000203	2.026523	0.686605	-0.000081
1346	1.3383e+02	-13.5879	-38.033856	0.000203	2.026523	0.686605	-0.000081
1347	1.3393e+02	-13.6280	-38.138821	0.000263	2.634480	0.892586	-0.000105
1348	1.3403e+02	-13.6649	-38.227638	0.000223	2.229176	0.755265	-0.000089
1349	1.3413e+02	-13.7018	-38.372975	0.000365	3.647742	1.235888	-0.000146
1350	1.3423e+02	-13.7322	-38.445644	0.000182	1.823871	0.617944	-0.000073
1351	1.3432e+02	-13.7836	-38.603092	0.000395	3.951720	1.338879	-0.000158
1352	1.3442e+02	-13.8237	-38.663649	0.000152	1.519892	0.514953	-0.000061
1353	1.3452e+02	-13.8590	-38.772652	0.000274	2.735806	0.926916	-0.000110
1354	1.3462e+02	-13.8943	-38.889729	0.000294	2.938459	0.995577	-0.000118
1355	1.3472e+02	-13.9456	-38.978546	0.000223	2.229176	0.755265	-0.000089
1356	1.3482e+02	-13.9825	-39.035065	0.000142	1.418566	0.480623	-0.000057
1357	1.3492e+02	-14.0162	-39.160217	0.000314	3.141111	1.064237	-0.000126
1358	1.3502e+02	-14.0579	-39.261145	0.000253	2.533154	0.858256	-0.000101
1359	1.3512e+02	-14.1060	-39.353999	0.000233	2.330502	0.789595	-0.000093
1360	1.3522e+02	-14.1429	-39.491262	0.000345	3.445090	1.167228	-0.000138
1361	1.3532e+02	-14.1814	-39.491262	-0.000000	-0.000000	-0.000000	0.000000
1362	1.3542e+02	-14.2199	-39.632562	0.000355	3.546416	1.201558	-0.000142
1363	1.3552e+02	-14.2632	-39.713304	0.000203	2.026523	0.686605	-0.000081
1364	1.3562e+02	-14.2985	-39.802121	0.000223	2.229176	0.755265	-0.000089
1365	1.3572e+02	-14.3418	-39.894975	0.000233	2.330502	0.789595	-0.000093
1366	1.3582e+02	-14.3675	-40.024164	0.000324	3.242437	1.098567	-0.000130
1367	1.3592e+02	-14.4221	-40.133166	0.000274	2.735806	0.926916	-0.000110
1368	1.3602e+02	-14.4606	-40.205835	0.000182	1.823871	0.617944	-0.000073
1369	1.3612e+02	-14.5071	-40.326949	0.000304	3.039785	1.029907	-0.000122
1370	1.3622e+02	-14.5392	-40.435952	0.000274	2.735806	0.926916	-0.000110
1371	1.3631e+02	-14.5729	-40.508620	0.000182	1.823871	0.617944	-0.000073
1372	1.3641e+02	-14.6114	-40.609548	0.000253	2.533154	0.858256	-0.000101
1373	1.3651e+02	-14.6611	-40.710477	0.000253	2.533154	0.858256	-0.000101
1374	1.3661e+02	-14.6948	-40.815442	0.000263	2.634480	0.892586	-0.000105
1375	1.3671e+02	-14.7349	-40.924445	0.000274	2.735806	0.926916	-0.000110
1376	1.3681e+02	-14.7782	-41.021336	0.000243	2.431828	0.823926	-0.000097
1377	1.3691e+02	-14.8215	-41.102079	0.000203	2.026523	0.686605	-0.000081
1378	1.3701e+02	-14.8664	-41.162636	0.000152	1.519892	0.514953	-0.000061
1379	1.3711e+02	-14.8937	-41.235304	0.000182	1.823871	0.617944	-0.000073
1380	1.3721e+02	-14.9402	-41.316047	0.000203	2.026523	0.686605	-0.000081
1381	1.3731e+02	-14.9739	-41.429087	0.000284	2.837133	0.961247	-0.000114
1382	1.3741e+02	-15.0172	-41.530015	0.000253	2.533154	0.858256	-0.000101
1383	1.3751e+02	-15.0477	-41.671315	0.000355	3.546416	1.201558	-0.000142
1384	1.3761e+02	-15.0878	-41.764169	0.000233	2.330502	0.789595	-0.000093
1385	1.3771e+02	-15.1407	-41.869135	0.000263	2.634480	0.892586	-0.000105
1386	1.3781e+02	-15.1712	-41.933729	0.000162	1.621219	0.549284	-0.000065
1387	1.3791e+02	-15.2145	-42.022546	0.000223	2.229176	0.755265	-0.000089
1388	1.3801e+02	-15.2418	-42.147697	0.000314	3.141111	1.064237	-0.000126
1389	1.3811e+02	-15.2980	-42.236514	0.000223	2.229176	0.755265	-0.000089
1390	1.3821e+02	-15.3252	-42.309183	0.000182	1.823871	0.617944	-0.000073
1391	1.3831e+02	-15.3814	-42.434334	0.000314	3.141111	1.064237	-0.000126
1392	1.3840e+02	-15.4215	-42.515076	0.000203	2.026523	0.686605	-0.000081
1393	1.3850e+02	-15.4568	-42.595819	0.000203	2.026523	0.686605	-0.000081
1394	1.3860e+02	-15.4937	-42.708859	0.000284	2.837133	0.961247	-0.000114
1395	1.3870e+02	-15.5338	-42.805750	0.000243	2.431828	0.823926	-0.000097
1396	1.3880e+02	-15.5867	-42.882456	0.000193	1.925197	0.652274	-0.000077
1397	1.3890e+02	-15.6124	-42.926864	0.000111	1.114588	0.377633	-0.000045
1398	1.3900e+02	-15.6573	-42.987421	0.000152	1.519892	0.514953	-0.000061
1399	1.3910e+02	-15.6910	-43.116610	0.000324	3.242437	1.098567	-0.000130
1400	1.3920e+02	-15.7343	-43.270021	0.000385	3.850394	1.304549	-0.000154
1401	1.3930e+02	-15.7744	-43.342689	0.000182	1.823871	0.617944	-0.000073
1402	1.3940e+02	-15.8161	-43.427469	0.000213	2.127849	0.720935	-0.000085
1403	1.3950e+02	-15.8514	-43.524360	0.000243	2.431828	0.823926	-0.000097
1404	1.3960e+02	-15.8931	-43.645474	0.000304	3.039785	1.029907	-0.000122
1405	1.3970e+02	-15.9268	-43.706031	0.000152	1.519892	0.514953	-0.000061
1406	1.3980e+02	-15.9766	-43.835220	0.000324	3.242437	1.098567	-0.000130
1407	1.3990e+02	-16.0135	-43.891740	0.000142	1.418566	0.480623	-0.000057
1408	1.4000e+02	-16.0568	-44.004780	0.000284	2.837133	0.961247	-0.000114
1409	1.4010e+02	-16.0889	-44.117819	0.000284	2.837133	0.961247	-0.000114
1410	1.4020e+02	-16.1274	-44.247008	0.000324	3.242437	1.098567	-0.000130
1411	1.4029e+02	-16.1707	-44.307565	0.000152	1.519892	0.514953	-0.000061
1412	1.4039e+02	-16.2028	-44.339862	0.000081	0.810609	0.274642	-0.000032
1413	1.4049e+02	-16.2605	-44.444827	0.000263	2.634480	0.892586	-0.000105
1414	1.4059e+02	-16.2926	-44.517496	0.000182	1.823871	0.617944	-0.000073
1415	1.4069e+02	-16.3391	-44.634573	0.000294	2.938459	0.995577	-0.000118
1416	1.4079e+02	-16.3712	-44.727427	0.000233	2.330502	0.789595	-0.000093
1417	1.4089e+02	-16.4017	-44.840467	0.000284	2.837133	0.961247	-0.000114
1418	1.4099e+02	-16.4562	-44.957544	0.000294	2.938459	0.995577	-0.000118
1419	1.4109e+02	-16.4867	-45.026175	0.000172	1.722545	0.583614	-0.000069
1420	1.4119e+02	-16.5284	-45.155363	0.000324	3.242437	1.098567	-0.000130
1421	1.4129e+02	-16.5765	-45.215920	0.000152	1.519892	0.514953	-0.000061
1422	1.4139e+02	-16.6038	-45.304737	0.000223	2.229176	0.755265	-0.000089
1423	1.4149e+02	-16.6487	-45.454111	0.000375	3.749068	1.270219	-0.000150
1424	1.4159e+02	-16.6872	-45.530817	0.000193	1.925197	0.652274	-0.000077
1425	1.4169e+02	-16.7225	-45.619634	0.000223	2.229176	0.755265	-0.000089
1426	1.4179e+02	-16.7723	-45.712488	0.000233	2.330502	0.789595	-0.000093
1427	1.4189e+02	-16.8059	-45.833602	0.000304	3.039785	1.029907	-0.000122
1428	1.4199e+02	-16.8525	-45.938568	0.000263	2.634480	0.892586	-0.000105
1429	1.4209e+02	-16.8974	-46.027385	0.000223	2.229176	0.755265	-0.000089
1430	1.4219e+02	-16.9279	-46.116202	0.000223	2.229176	0.755265	-0.000089
1431	1.4228e+02	-16.9824	-46.229241	0.000284	2.837133	0.961247	-0.000114
1432	1.4238e+02	-17.0065	-46.273650	0.000111	1.114588	0.377633	-0.000045
1433	1.4248e+02	-17.0466	-46.358430	0.000213	2.127849	0.720935	-0.000085
1434	1.4258e+02	-17.0867	-46.499729	0.000355	3.546416	1.201558	-0.000142
1435	1.4268e+02	-17.1172	-46.596621	0.000243	2.431828	0.823926	-0.000097
1436	1.4278e+02	-17.1637	-46.681401	0.000213	2.127849	0.720935	-0.000085
1437	1.4288e+02	-17.2134	-46.790403	0.000274	2.735806	0.926916	-0.000110
1438	1.4298e+02	-17.2439	-46.899406	0.000274	2.735806	0.926916	-0.000110
1439	1.4308e+02	-17.2840	-47.000334	0.000253	2.533154	0.858256	-0.000101
1440	1.4318e+02	-17.3289	-47.085114	0.000213	2.127849	0.720935	-0.000085
1441	1.4328e+02	-17.3626	-47.198154	0.000284	2.837133	0.961247	-0.000114
1442	1.4338e+02	-17.4059	-47.319268	0.000304	3.039785	1.029907	-0.000122
1443	1.4348e+02	-17.4476	-47.404048	0.000213	2.127849	0.720935	-0.000085
1444	1.4358e+02	-17.4845	-47.500939	0.000243	2.431828	0.823926	-0.000097
1445	1.4368e+02	-17.5262	-47.609942	0.000274	2.735806	0.926916	-0.000110
1446	1.4378e+02	-17.5680	-47.682610	0.000182	1.823871	0.617944	-0.000073
1447	1.4388e+02	-17.6000	-47.791613	0.000274	2.735806	0.926916	-0.000110
1448	1.4398e+02	-17.6450	-47.876393	0.000213	2.127849	0.720935	-0.000085
1449	1.4408e+02	-17.6819	-47.965210	0.000223	2.229176	0.755265	-0.000089
1450	1.4418e+02	-17.7300	-48.025767	0.000152	1.519892	0.514953	-0.000061
1451	1.4428e+02	-17.7701	-48.171104	0.000365	3.647742	1.235888	-0.000146
1452	1.4437e+02	-17.8070	-48.292218	0.000304	3.039785	1.029907	-0.000122
1453	1.4447e+02	-17.8407	-48.433517	0.000355	3.546416	1.201558	-0.000142
1454	1.4457e+02	-17.8808	-48.502149	0.000172	1.722545	0.583614	-0.000069
1455	1.4467e+02	-17.9225	-48.651523	0.000375	3.749068	1.270219	-0.000150
1456	1.4477e+02	-17.9754	-48.728228	0.000193	1.925197	0.652274	-0.000077
1457	1.4487e+02	-18.0043	-48.829157	0.000253	2.533154	0.858256	-0.000101
1458	1.4497e+02	-18.0444	-48.946234	0.000294	2.938459	0.995577	-0.000118
1459	1.4507e+02	-18.0845	-49.051199	0.000263	2.634480	0.892586	-0.000105
1460	1.4517e+02	-18.1310	-49.103682	0.000132	1.317240	0.446293	-0.000053
1461	1.4527e+02	-18.1776	-49.228833	0.000314	3.141111	1.064237	-0.000126
1462	1.4537e+02	-18.2096	-49.337836	0.000274	2.735806	0.926916	-0.000110
1463	1.4547e+02	-18.2449	-49.454913	0.000294	2.938459	0.995577	-0.000118
1464	1.4557e+02	-18.2915	-49.571990	0.000294	2.938459	0.995577	-0.000118
1465	1.4567e+02	-18.3252	-49.672918	0.000253	2.533154	0.858256	-0.000101
1466	1.4577e+02	-18.3765	-49.773847	0.000253	2.533154	0.858256	-0.000101
1467	1.4587e+02	-18.3989	-49.838441	0.000162	1.621219	0.549284	-0.000065
1468	1.4597e+02	-18.4391	-49.967629	0.000324	3.242437	1.098567	-0.000130
1469	1.4607e+02	-18.4776	-50.060483	0.000233	2.330502	0.789595	-0.000093
1470	1.4617e+02	-18.5273	-50.201783	0.000355	3.546416	1.201558	-0.000142
1471	1.4626e+02	-18.5594	-50.314823	0.000284	2.837133	0.961247	-0.000114
1472	1.4636e+02	-18.6043	-50.452085	0.000345	3.445090	1.167228	-0.000138
1473	1.4646e+02	-18.6428	-50.488420	0.000091	0.911935	0.308972	-0.000037
1474	1.4656e+02	-18.6813	-50.625682	0.000345	3.445090	1.167228	-0.000138
1475	1.4666e+02	-18.7230	-50.738722	0.000284	2.837133	0.961247	-0.000114
1476	1.4676e+02	-18.7647	-50.851762	0.000284	2.837133	0.961247	-0.000114
1477	1.4686e+02	-18.8064	-50.924430	0.000182	1.823871	0.617944	-0.000073
1478	1.4696e+02	-18.8417	-51.085916	0.000405	4.053047	1.373209	-0.000162
1479	1.4706e+02	-18.8818	-51.178770	0.000233	2.330502	0.789595	-0.000093
1480	1.4716e+02	-18.9251	-51.251438	0.000182	1.823871	0.617944	-0.000073
1481	1.4726e+02	-18.9636	-51.392738	0.000355	3.546416	1.201558	-0.000142
1482	1.4736e+02	-19.0037	-51.550186	0.000395	3.951720	1.338879	-0.000158
1483	1.4746e+02	-19.0471	-51.687449	0.000345	3.445090	1.167228	-0.000138
1484	1.4756e+02	-19.0791	-51.784340	0.000243	2.431828	0.823926	-0.000097
1485	1.4766e+02	-19.1176	-51.933714	0.000375	3.749068	1.270219	-0.000150
1486	1.4776e+02	-19.1610	-52.026568	0.000233	2.330502	0.789595	-0.000093
1487	1.4786e+02	-19.2011	-52.115385	0.000223	2.229176	0.755265	-0.000089
1488	1.4796e+02	-19.2364	-52.232462	0.000294	2.938459	0.995577	-0.000118
1489	1.4806e+02	-19.2749	-52.329353	0.000243	2.431828	0.823926	-0.000097
1490	1.4816e+02	-19.3150	-52.478727	0.000375	3.749068	1.270219	-0.000150
1491	1.4825e+02	-19.3599	-52.591767	0.000284	2.837133	0.961247	-0.000114
1492	1.4835e+02	-19.3855	-52.716918	0.000314	3.141111	1.064237	-0.000126
1493	1.4845e+02	-19.4417	-52.850144	0.000334	3.343763	1.132898	-0.000134
1494	1.4855e+02	-19.4818	-52.951072	0.000253	2.533154	0.858256	-0.000101
1495	1.4865e+02	-19.5315	-53.056038	0.000263	2.634480	0.892586	-0.000105
1496	1.4875e+02	-19.5620	-53.209449	0.000385	3.850394	1.304549	-0.000154
1497	1.4885e+02	-19.6069	-53.314415	0.000263	2.634480	0.892586	-0.000105
1498	1.4895e+02	-19.6374	-53.427454	0.000284	2.837133	0.961247	-0.000114
1499	1.4905e+02	-19.6727	-53.584903	0.000395	3.951720	1.338879	-0.000158
1500	1.4915e+02	-19.7208	-53.677757	0.000233	2.330502	0.789595	-0.000093
1501	1.4925e+02	-19.7529	-53.875576	0.000496	4.964982	1.682181	-0.000199
1502	1.4935e+02	-19.7946	-54.020913	0.000365	3.647742	1.235888	-0.000146
1503	1.4945e+02	-19.8331	-54.089545	0.000172	1.722545	0.583614	-0.000069
1504	1.4955e+02	-19.8748	-54.218733	0.000324	3.242437	1.098567	-0.000130
1505	1.4965e+02	-19.9133	-54.339847	0.000304	3.039785	1.029907	-0.000122
1506	1.4975e+02	-19.9518	-54.440775	0.000253	2.533154	0.858256	-0.000101
1507	1.4985e+02	-20.0000	-54.586112	0.000365	3.647742	1.235888	-0.000146
1508	1.4995e+02	-19.9502	-54.509407	0.000193	1.925197	0.652274	0.000077
1509	1.5005e+02	-19.9101	-54.509407	0.000000	0.000000	0.000000	0.000000
1510	1.5015e+02	-19.8764	-54.452887	0.000142	1.418566	0.480623	0.000057
1511	1.5025e+02	-19.8412	-54.408478	0.000111	1.114588	0.377633	0.000045
1512	1.5034e+02	-19.7914	-54.384256	0.000061	0.607957	0.205981	0.000024
1513	1.5044e+02	-19.7577	-54.339847	0.000111	1.114588	0.377633	0.000045
1514	1.5054e+02	-19.7160	-54.291401	0.000122	1.215914	0.411963	0.000049
1515	1.5064e+02	-19.6887	-54.234882	0.000142	1.418566	0.480623	0.000057
1516	1.5074e+02	-19.6326	-54.210659	0.000061	0.607957	0.205981	0.000024
1517	1.5084e+02	-19.6021	-54.142027	0.000172	1.722545	0.583614	0.000069
1518	1.5094e+02	-19.5460	-54.129916	0.000030	0.303978	0.102991	0.000012
1519	1.5104e+02	-19.5171	-54.045136	0.000213	2.127849	0.720935	0.000085
1520	1.5114e+02	-19.4738	-53.996690	0.000122	1.215914	0.411963	0.000049
1521	1.5124e+02	-19.4353	-53.984579	0.000030	0.303978	0.102991	0.000012
1522	1.5134e+02	-19.4032	-53.883651	0.000253	2.533154	0.858256	0.000101
1523	1.5144e+02	-19.3567	-53.774648	0.000274	2.735806	0.926916	0.000110
1524	1.5154e+02	-19.3230	-53.681794	0.000233	2.330502	0.789595	0.000093
1525	1.5164e+02	-19.2861	-53.673720	0.000020	0.202652	0.068660	0.000008
1526	1.5174e+02	-19.2444	-53.568754	0.000263	2.634480	0.892586	0.000105
1527	1.5184e+02	-19.2059	-53.471863	0.000243	2.431828	0.823926	0.000097
1528	1.5194e+02	-19.1626	-53.459751	0.000030	0.303978	0.102991	0.000012
1529	1.5204e+02	-19.1209	-53.407269	0.000132	1.317240	0.446293	0.000053
1530	1.5214e+02	-19.0856	-53.334600	0.000182	1.823871	0.617944	0.000073
1531	1.5224e+02	-19.0487	-53.225598	0.000274	2.735806	0.926916	0.000110
1532	1.5233e+02	-19.0053	-53.185226	0.000101	1.013262	0.343302	0.000041
1533	1.5243e+02	-18.9588	-53.136781	0.000122	1.215914	0.411963	0.000049
1534	1.5253e+02	-18.9203	-53.080261	0.000142	1.418566	0.480623	0.000057
1535	1.5263e+02	-18.8834	-53.011629	0.000172	1.722545	0.583614	0.000069
1536	1.5273e+02	-18.8433	-52.959147	0.000132	1.317240	0.446293	0.000053
1537	1.5283e+02	-18.8000	-52.898590	0.000152	1.519892	0.514953	0.000061
1538	1.5293e+02	-18.7615	-52.801698	0.000243	2.431828	0.823926	0.000097
1539	1.5303e+02	-18.7294	-52.708844	0.000233	2.330502	0.789595	0.000093
1540	1.5313e+02	-18.6909	-52.640213	0.000172	1.722545	0.583614	0.000069
1541	1.5323e+02	-18.6460	-52.543322	0.000243	2.431828	0.823926	0.000097
1542	1.5333e+02	-18.6011	-52.470653	0.000182	1.823871	0.617944	0.000073
1543	1.5343e+02	-18.5658	-52.406059	0.000162	1.621219	0.549284	0.000065
1544	1.5353e+02	-18.5305	-52.313205	0.000233	2.330502	0.789595	0.000093
1545	1.5363e+02	-18.4824	-52.232462	0.000203	2.026523	0.686605	0.000081
1546	1.5373e+02	-18.4503	-52.155757	0.000193	1.925197	0.652274	0.000077
1547	1.5383e+02	-18.4118	-52.066940	0.000223	2.229176	0.755265	0.000089
1548	1.5393e+02	-18.3653	-52.038680	0.000071	0.709283	0.240312	0.000028
1549	1.5403e+02	-18.3268	-51.941788	0.000243	2.431828	0.823926	0.000097
1550	1.5413e+02	-18.2883	-51.901417	0.000101	1.013262	0.343302	0.000041
1551	1.5422e+02	-18.2465	-51.820674	0.000203	2.026523	0.686605	0.000081
1552	1.5432e+02	-18.2032	-51.784340	0.000091	0.911935	0.308972	0.000037
1553	1.5442e+02	-18.1647	-51.695523	0.000223	2.229176	0.755265	0.000089
1554	1.5452e+02	-18.1246	-51.558261	0.000345	3.445090	1.167228	0.000138
1555	1.5462e+02	-18.0813	-51.509815	0.000122	1.215914	0.411963	0.000049
1556	1.5472e+02	-18.0412	-51.437146	0.000182	1.823871	0.617944	0.000073
1557	1.5482e+02	-18.0043	-51.311995	0.000314	3.141111	1.064237	0.000126
1558	1.5492e+02	-17.9690	-51.255475	0.000142	1.418566	0.480623	0.000057
1559	1.5502e+02	-17.9225	-51.150510	0.000263	2.634480	0.892586	0.000105
1560	1.5512e+02	-17.8856	-51.069767	0.000203	2.026523	0.686605	0.000081
1561	1.5522e+02	-17.8519	-51.001136	0.000172	1.722545	0.583614	0.000069
1562	1.5532e+02	-17.8086	-50.900207	0.000253	2.533154	0.858256	0.000101
1563	1.5542e+02	-17.7701	-50.819465	0.000203	2.026523	0.686605	0.000081
1564	1.5552e+02	-17.7252	-50.726611	0.000233	2.330502	0.789595	0.000093
1565	1.5562e+02	-17.6835	-50.694313	0.000081	0.810609	0.274642	0.000032
1566	1.5572e+02	-17.6466	-50.609534	0.000213	2.127849	0.720935	0.000085
1567	1.5582e+02	-17.6049	-50.585311	0.000061	0.607957	0.205981	0.000024
1568	1.5592e+02	-17.5647	-50.427863	0.000395	3.951720	1.338879	0.000158
1569	1.5602e+02	-17.5278	-50.391528	0.000091	0.911935	0.308972	0.000037
1570	1.5612e+02	-17.4877	-50.310786	0.000203	2.026523	0.686605	0.000081
1571	1.5622e+02	-17.4444	-50.234080	0.000193	1.925197	0.652274	0.000077
1572	1.5631e+02	-17.4027	-50.133152	0.000253	2.533154	0.858256	0.000101
1573	1.5641e+02	-17.3658	-50.064520	0.000172	1.722545	0.583614	0.000069
1574	1.5651e+02	-17.3257	-49.959555	0.000263	2.634480	0.892586	0.000105
1575	1.5661e+02	-17.2824	-49.826329	0.000334	3.343763	1.132898	0.000134
1576	1.5671e+02	-17.2423	-49.737512	0.000223	2.229176	0.755265	0.000089
1577	1.5681e+02	-17.2134	-49.672918	0.000162	1.621219	0.549284	0.000065
1578	1.5691e+02	-17.1605	-49.559878	0.000284	2.837133	0.961247	0.000114
1579	1.5701e+02	-17.1284	-49.511433	0.000122	1.215914	0.411963	0.000049
1580	1.5711e+02	-17.0931	-49.374170	0.000345	3.445090	1.167228	0.000138
1581	1.5721e+02	-17.0434	-49.353984	0.000051	0.506631	0.171651	0.000020
1582	1.5731e+02	-17.0049	-49.257093	0.000243	2.431828	0.823926	0.000097
1583	1.5741e+02	-16.9664	-49.188462	0.000172	1.722545	0.583614	0.000069
1584	1.5751e+02	-16.9327	-49.148090	0.000101	1.013262	0.343302	0.000041
1585	1.5761e+02	-16.8862	-49.022939	0.000314	3.141111	1.064237	0.000126
1586	1.5771e+02	-16.8477	-48.926048	0.000243	2.431828	0.823926	0.000097
1587	1.5781e+02	-16.8140	-48.881640	0.000111	1.114588	0.377633	0.000045
1588	1.5791e+02	-16.7723	-48.813008	0.000172	1.722545	0.583614	0.000069
1589	1.5801e+02	-16.7289	-48.704006	0.000274	2.735806	0.926916	0.000110
1590	1.5811e+02	-16.6872	-48.647486	0.000142	1.418566	0.480623	0.000057
1591	1.5821e+02	-16.6487	-48.550594	0.000243	2.431828	0.823926	0.000097
1592	1.5830e+02	-16.6102	-48.445629	0.000263	2.634480	0.892586	0.000105
1593	1.5840e+02	-16.5717	-48.328552	0.000294	2.938459	0.995577	0.000118
1594	1.5850e+02	-16.5284	-48.247809	0.000203	2.026523	0.686605	0.000081
1595	1.5860e+02	-16.4931	-48.142844	0.000263	2.634480	0.892586	0.000105
1596	1.5870e+02	-16.4562	-48.086324	0.000142	1.418566	0.480623	0.000057
1597	1.5880e+02	-16.4081	-48.025767	0.000152	1.519892	0.514953	0.000061
1598	1.5890e+02	-16.3632	-47.957135	0.000172	1.722545	0.583614	0.000069
1599	1.5900e+02	-16.3295	-47.864281	0.000233	2.330502	0.789595	0.000093
1600	1.5910e+02	-16.2910	-47.823910	0.000101	1.013262	0.343302	0.000041
1601	1.5920e+02	-16.2541	-47.735093	0.000223	2.229176	0.755265	0.000089
1602	1.5930e+02	-16.2028	-47.670499	0.000162	1.621219	0.549284	0.000065
1603	1.5940e+02	-16.1691	-47.581682	0.000223	2.229176	0.755265	0.000089
1604	1.5950e+02	-16.1402	-47.492865	0.000223	2.229176	0.755265	0.000089
1605	1.5960e+02	-16.0953	-47.387899	0.000263	2.634480	0.892586	0.000105
1606	1.5970e+02	-16.0423	-47.295045	0.000233	2.330502	0.789595	0.000093
1607	1.5980e+02	-16.0167	-47.250637	0.000111	1.114588	0.377633	0.000045
1608	1.5990e+02	-15.9669	-47.129523	0.000304	3.039785	1.029907	0.000122
1609	1.6000e+02	-15.9364	-47.097226	0.000081	0.810609	0.274642	0.000032
1610	1.6010e+02	-15.8883	-46.955926	0.000355	3.546416	1.201558	0.000142
1611	1.6019e+02	-15.8610	-46.826737	0.000324	3.242437	1.098567	0.000130
1612	1.6029e+02	-15.8129	-46.790403	0.000091	0.911935	0.308972	0.000037
1613	1.6039e+02	-15.7632	-46.677363	0.000284	2.837133	0.961247	0.000114
1614	1.6049e+02	-15.7311	-46.608732	0.000172	1.722545	0.583614	0.000069
1615	1.6059e+02	-15.6974	-46.540101	0.000172	1.722545	0.583614	0.000069
1616	1.6069e+02	-15.6477	-46.427061	0.000284	2.837133	0.961247	0.000114
1617	1.6079e+02	-15.6156	-46.346318	0.000203	2.026523	0.686605	0.000081
1618	1.6089e+02	-15.5755	-46.285761	0.000152	1.519892	0.514953	0.000061
1619	1.6099e+02	-15.5258	-46.192907	0.000233	2.330502	0.789595	0.000093
1620	1.6109e+02	-15.4905	-46.059682	0.000334	3.343763	1.132898	0.000134
1621	1.6119e+02	-15.4536	-46.055644	0.000010	0.101326	0.034330	0.000004
1622	1.6129e+02	-15.4167	-45.978939	0.000193	1.925197	0.652274	0.000077
1623	1.6139e+02	-15.3878	-45.882048	0.000243	2.431828	0.823926	0.000097
1624	1.6149e+02	-15.3268	-45.781119	0.000253	2.533154	0.858256	0.000101
1625	1.6159e+02	-15.2899	-45.720562	0.000152	1.519892	0.514953	0.000061
1626	1.6169e+02	-15.2498	-45.639820	0.000203	2.026523	0.686605	0.000081
1627	1.6179e+02	-15.2178	-45.518705	0.000304	3.039785	1.029907	0.000122
1628	1.6189e+02	-15.1712	-45.462186	0.000142	1.418566	0.480623	0.000057
1629	1.6199e+02	-15.1343	-45.381443	0.000203	2.026523	0.686605	0.000081
1630	1.6209e+02	-15.0862	-45.252254	0.000324	3.242437	1.098567	0.000130
1631	1.6219e+02	-15.0541	-45.167475	0.000213	2.127849	0.720935	0.000085
1632	1.6228e+02	-15.0124	-45.062509	0.000263	2.634480	0.892586	0.000105
1633	1.6238e+02	-14.9787	-45.042323	0.000051	0.506631	0.171651	0.000020
1634	1.6248e+02	-14.9370	-44.921209	0.000304	3.039785	1.029907	0.000122
1635	1.6258e+02	-14.8921	-44.844504	0.000193	1.925197	0.652274	0.000077
1636	1.6268e+02	-14.8536	-44.779910	0.000162	1.621219	0.549284	0.000065
1637	1.6278e+02	-14.8215	-44.695130	0.000213	2.127849	0.720935	0.000085
1638	1.6288e+02	-14.7782	-44.578053	0.000294	2.938459	0.995577	0.000118
1639	1.6298e+02	-14.7445	-44.505384	0.000182	1.823871	0.617944	0.000073
1640	1.6308e+02	-14.6932	-44.384270	0.000304	3.039785	1.029907	0.000122
1641	1.6318e+02	-14.6499	-44.327750	0.000142	1.418566	0.480623	0.000057
1642	1.6328e+02	-14.6178	-44.214711	0.000284	2.837133	0.961247	0.000114
1643	1.6338e+02	-14.5825	-44.178376	0.000091	0.911935	0.308972	0.000037
1644	1.6348e+02	-14.5343	-44.057262	0.000304	3.039785	1.029907	0.000122
1645	1.6358e+02	-14.5007	-43.980557	0.000193	1.925197	0.652274	0.000077
1646	1.6368e+02	-14.4557	-43.875591	0.000263	2.634480	0.892586	0.000105
1647	1.6378e+02	-14.4172	-43.875591	0.000000	0.000000	0.000000	0.000000
1648	1.6388e+02	-14.3787	-43.750440	0.000314	3.141111	1.064237	0.000126
1649	1.6398e+02	-14.3450	-43.617215	0.000334	3.343763	1.132898	0.000134
1650	1.6408e+02	-14.3001	-43.548583	0.000172	1.722545	0.583614	0.000069
1651	1.6418e+02	-14.2536	-43.479952	0.000172	1.722545	0.583614	0.000069
1652	1.6427e+02	-14.2103	-43.407283	0.000182	1.823871	0.617944	0.000073
1653	1.6437e+02	-14.1814	-43.314429	0.000233	2.330502	0.789595	0.000093
1654	1.6447e+02	-14.1381	-43.217538	0.000243	2.431828	0.823926	0.000097
1655	1.6457e+02	-14.1028	-43.124684	0.000233	2.330502	0.789595	0.000093
1656	1.6467e+02	-14.0563	-43.060090	0.000162	1.621219	0.549284	0.000065
1657	1.6477e+02	-14.0258	-42.983384	0.000193	1.925197	0.652274	0.000077
1658	1.6487e+02	-13.9857	-42.894567	0.000223	2.229176	0.755265	0.000089
1659	1.6497e+02	-13.9376	-42.809787	0.000213	2.127849	0.720935	0.000085
1660	1.6507e+02	-13.8959	-42.753267	0.000142	1.418566	0.480623	0.000057
1661	1.6517e+02	-13.8686	-42.624079	0.000324	3.242437	1.098567	0.000130
1662	1.6527e+02	-13.8140	-42.579671	0.000111	1.114588	0.377633	0.000045
1663	1.6537e+02	-13.7804	-42.458557	0.000304	3.039785	1.029907	0.000122
1664	1.6547e+02	-13.7419	-42.410111	0.000122	1.215914	0.411963	0.000049
1665	1.6557e+02	-13.7001	-42.333405	0.000193	1.925197	0.652274	0.000077
1666	1.6567e+02	-13.6649	-42.204217	0.000324	3.242437	1.098567	0.000130
1667	1.6577e+02	-13.6231	-42.091177	0.000284	2.837133	0.961247	0.000114
1668	1.6587e+02	-13.5879	-41.998323	0.000233	2.330502	0.789595	0.000093
1669	1.6597e+02	-13.5429	-41.897395	0.000253	2.533154	0.858256	0.000101
1670	1.6607e+02	-13.5060	-41.812615	0.000213	2.127849	0.720935	0.000085
1671	1.6616e+02	-13.4627	-41.699575	0.000284	2.837133	0.961247	0.000114
1672	1.6626e+02	-13.4226	-41.634981	0.000162	1.621219	0.549284	0.000065
1673	1.6636e+02	-13.3761	-41.574424	0.000152	1.519892	0.514953	0.000061
1674	1.6646e+02	-13.3472	-41.457347	0.000294	2.938459	0.995577	0.000118
1675	1.6656e+02	-13.3039	-41.412938	0.000111	1.114588	0.377633	0.000045
1676	1.6666e+02	-13.2654	-41.283750	0.000324	3.242437	1.098567	0.000130
1677	1.6676e+02	-13.2269	-41.207044	0.000193	1.925197	0.652274	0.000077
1678	1.6686e+02	-13.1836	-41.098042	0.000274	2.735806	0.926916	0.000110
1679	1.6696e+02	-13.1451	-41.069782	0.000071	0.709283	0.240312	0.000028
1680	1.6706e+02	-13.0986	-40.972891	0.000243	2.431828	0.823926	0.000097
1681	1.6716e+02	-13.0649	-40.859851	0.000284	2.837133	0.961247	0.000114
1682	1.6726e+02	-13.0151	-40.771034	0.000223	2.229176	0.755265	0.000089
1683	1.6736e+02	-12.9831	-40.682217	0.000223	2.229176	0.755265	0.000089
1684	1.6746e+02	-12.9365	-40.569177	0.000284	2.837133	0.961247	0.000114
1685	1.6756e+02	-12.9044	-40.452100	0.000294	2.938459	0.995577	0.000118
1686	1.6766e+02	-12.8659	-40.347135	0.000263	2.634480	0.892586	0.000105
1687	1.6776e+02	-12.8226	-40.294652	0.000132	1.317240	0.446293	0.000053
1688	1.6786e+02	-12.7841	-40.181612	0.000284	2.837133	0.961247	0.000114
1689	1.6796e+02	-12.7553	-40.117018	0.000162	1.621219	0.549284	0.000065
1690	1.6806e+02	-12.7151	-40.028201	0.000223	2.229176	0.755265	0.000089
1691	1.6816e+02	-12.6686	-39.915161	0.000284	2.837133	0.961247	0.000114
1692	1.6825e+02	-12.6221	-39.850567	0.000162	1.621219	0.549284	0.000065
1693	1.6835e+02	-12.5836	-39.745601	0.000263	2.634480	0.892586	0.000105
1694	1.6845e+02	-12.5579	-39.632562	0.000284	2.837133	0.961247	0.000114
1695	1.6855e+02	-12.4954	-39.543745	0.000223	2.229176	0.755265	0.000089
1696	1.6865e+02	-12.4681	-39.515485	0.000071	0.709283	0.240312	0.000028
1697	1.6875e+02	-12.4328	-39.382259	0.000334	3.343763	1.132898	0.000134
1698	1.6885e+02	-12.3863	-39.333813	0.000122	1.215914	0.411963	0.000049
1699	1.6895e+02	-12.3462	-39.244997	0.000223	2.229176	0.755265	0.000089
1700	1.6905e+02	-12.3045	-39.079474	0.000415	4.154373	1.407540	0.000166
1701	1.6915e+02	-12.2692	-38.970471	0.000274	2.735806	0.926916	0.000110
1702	1.6925e+02	-12.2355	-38.865506	0.000263	2.634480	0.892586	0.000105
1703	1.6935e+02	-12.1858	-38.800912	0.000162	1.621219	0.549284	0.000065
1704	1.6945e+02	-12.1521	-38.679798	0.000304	3.039785	1.029907	0.000122
1705	1.6955e+02	-12.1007	-38.590981	0.000223	2.229176	0.755265	0.000089
1706	1.6965e+02	-12.0670	-38.498126	0.000233	2.330502	0.789595	0.000093
1707	1.6975e+02	-12.0382	-38.425458	0.000182	1.823871	0.617944	0.000073
1708	1.6985e+02	-11.9948	-38.304344	0.000304	3.039785	1.029907	0.000122
1709	1.6995e+02	-11.9435	-38.167081	0.000345	3.445090	1.167228	0.000138
1710	1.7005e+02	-11.9162	-38.130747	0.000091	0.911935	0.308972	0.000037
1711	1.7015e+02	-11.8665	-38.017707	0.000284	2.837133	0.961247	0.000114
1712	1.7024e+02	-11.8248	-37.945039	0.000182	1.823871	0.617944	0.000073
1713	1.7034e+02	-11.7927	-37.864296	0.000203	2.026523	0.686605	0.000081
1714	1.7044e+02	-11.7462	-37.771442	0.000233	2.330502	0.789595	0.000093
1715	1.7054e+02	-11.7109	-37.678588	0.000233	2.330502	0.789595	0.000093
1716	1.7064e+02	-11.6644	-37.549399	0.000324	3.242437	1.098567	0.000130
1717	1.7074e+02	-11.6323	-37.448471	0.000253	2.533154	0.858256	0.000101
1718	1.7084e+02	-11.5874	-37.375803	0.000182	1.823871	0.617944	0.000073
1719	1.7094e+02	-11.5505	-37.222392	0.000385	3.850394	1.304549	0.000154
1720	1.7104e+02	-11.5120	-37.097240	0.000314	3.141111	1.064237	0.000126
1721	1.7114e+02	-11.4638	-37.068980	0.000071	0.709283	0.240312	0.000028
1722	1.7124e+02	-11.4318	-36.951903	0.000294	2.938459	0.995577	0.000118
1723	1.7134e+02	-11.3884	-36.850975	0.000253	2.533154	0.858256	0.000101
1724	1.7144e+02	-11.3548	-36.770232	0.000203	2.026523	0.686605	0.000081
1725	1.7154e+02	-11.3163	-36.637007	0.000334	3.343763	1.132898	0.000134
1726	1.7164e+02	-11.2729	-36.532041	0.000263	2.634480	0.892586	0.000105
1727	1.7174e+02	-11.2393	-36.479559	0.000132	1.317240	0.446293	0.000053
1728	1.7184e+02	-11.1895	-36.358444	0.000304	3.039785	1.029907	0.000122
1729	1.7194e+02	-11.1494	-36.273665	0.000213	2.127849	0.720935	0.000085
1730	1.7204e+02	-11.1093	-36.233293	0.000101	1.013262	0.343302	0.000041
1731	1.7213e+02	-11.0724	-36.112179	0.000304	3.039785	1.029907	0.000122
1732	1.7223e+02	-11.0339	-36.019325	0.000233	2.330502	0.789595	0.000093
1733	1.7233e+02	-10.9874	-35.914360	0.000263	2.634480	0.892586	0.000105
1734	1.7243e+02	-10.9569	-35.837654	0.000193	1.925197	0.652274	0.000077
1735	1.7253e+02	-10.9152	-35.696354	0.000355	3.546416	1.201558	0.000142
1736	1.7263e+02	-10.8751	-35.571203	0.000314	3.141111	1.064237	0.000126
1737	1.7273e+02	-10.8318	-35.442015	0.000324	3.242437	1.098567	0.000130
1738	1.7283e+02	-10.7949	-35.349161	0.000233	2.330502	0.789595	0.000093
1739	1.7293e+02	-10.7516	-35.260344	0.000223	2.229176	0.755265	0.000089
1740	1.7303e+02	-10.7115	-35.110970	0.000375	3.749068	1.270219	0.000150
1741	1.7313e+02	-10.6730	-35.054450	0.000142	1.418566	0.480623	0.000057
1742	1.7323e+02	-10.6329	-34.929298	0.000314	3.141111	1.064237	0.000126
1743	1.7333e+02	-10.6008	-34.824333	0.000263	2.634480	0.892586	0.000105
1744	1.7343e+02	-10.5462	-34.731479	0.000233	2.330502	0.789595	0.000093
1745	1.7353e+02	-10.5109	-34.638625	0.000233	2.330502	0.789595	0.000093
1746	1.7363e+02	-10.4756	-34.565956	0.000182	1.823871	0.617944	0.000073
1747	1.7373e+02	-10.4339	-34.481176	0.000213	2.127849	0.720935	0.000085
1748	1.7383e+02	-10.3906	-34.412545	0.000172	1.722545	0.583614	0.000069
1749	1.7393e+02	-10.3489	-34.271245	0.000355	3.546416	1.201558	0.000142
1750	1.7403e+02	-10.3232	-34.182428	0.000223	2.229176	0.755265	0.000089
1751	1.7413e+02	-10.2751	-34.093611	0.000223	2.229176	0.755265	0.000089
1752	1.7422e+02	-10.2350	-33.968460	0.000314	3.141111	1.064237	0.000126
1753	1.7432e+02	-10.1885	-33.879643	0.000223	2.229176	0.755265	0.000089
1754	1.7442e+02	-10.1596	-33.770640	0.000274	2.735806	0.926916	0.000110
1755	1.7452e+02	-10.1163	-33.629341	0.000355	3.546416	1.201558	0.000142
1756	1.7462e+02	-10.0762	-33.520338	0.000274	2.735806	0.926916	0.000110
1757	1.7472e+02	-10.0441	-33.415373	0.000263	2.634480	0.892586	0.000105
1758	1.7482e+02	-10.0008	-33.306370	0.000274	2.735806	0.926916	0.000110
1759	1.7492e+02	-9.9607	-33.181219	0.000314	3.141111	1.064237	0.000126
1760	1.7502e+02	-9.9142	-33.132773	0.000122	1.215914	0.411963	0.000049
1761	1.7512e+02	-9.8805	-33.011659	0.000304	3.039785	1.029907	0.000122
1762	1.7522e+02	-9.8243	-32.938990	0.000182	1.823871	0.617944	0.000073
1763	1.7532e+02	-9.7970	-32.870359	0.000172	1.722545	0.583614	0.000069
1764	1.7542e+02	-9.7537	-32.801728	0.000172	1.722545	0.583614	0.000069
1765	1.7552e+02	-9.7136	-32.692725	0.000274	2.735806	0.926916	0.000110
1766	1.7562e+02	-9.6815	-32.611982	0.000203	2.026523	0.686605	0.000081
1767	1.7572e+02	-9.6366	-32.454534	0.000395	3.951720	1.338879	0.000158
1768	1.7582e+02	-9.6029	-32.333420	0.000304	3.039785	1.029907	0.000122
1769	1.7592e+02	-9.5532	-32.272863	0.000152	1.519892	0.514953	0.000061
1770	1.7602e+02	-9.5131	-32.171935	0.000253	2.533154	0.858256	0.000101
1771	1.7612e+02	-9.4826	-32.099266	0.000182	1.823871	0.617944	0.000073
1772	1.7621e+02	-9.4361	-31.966041	0.000334	3.343763	1.132898	0.000134
1773	1.7631e+02	-9.3992	-31.820704	0.000365	3.647742	1.235888	0.000146
1774	1.7641e+02	-9.3511	-31.719775	0.000253	2.533154	0.858256	0.000101
1775	1.7651e+02	-9.3174	-31.630959	0.000223	2.229176	0.755265	0.000089
1776	1.7661e+02	-9.2901	-31.465436	0.000415	4.154373	1.407540	0.000166
1777	1.7671e+02	-9.2388	-31.441213	0.000061	0.607957	0.205981	0.000024
1778	1.7681e+02	-9.2019	-31.320099	0.000304	3.039785	1.029907	0.000122
1779	1.7691e+02	-9.1554	-31.247431	0.000182	1.823871	0.617944	0.000073
1780	1.7701e+02	-9.1169	-31.170725	0.000193	1.925197	0.652274	0.000077
1781	1.7711e+02	-9.0832	-31.065760	0.000263	2.634480	0.892586	0.000105
1782	1.7721e+02	-9.0318	-31.009240	0.000142	1.418566	0.480623	0.000057
1783	1.7731e+02	-9.0062	-30.867940	0.000355	3.546416	1.201558	0.000142
1784	1.7741e+02	-8.9580	-30.771049	0.000243	2.431828	0.823926	0.000097
1785	1.7751e+02	-8.9308	-30.690306	0.000203	2.026523	0.686605	0.000081
1786	1.7761e+02	-8.8794	-30.621675	0.000172	1.722545	0.583614	0.000069
1787	1.7771e+02	-8.8409	-30.484412	0.000345	3.445090	1.167228	0.000138
1788	1.7781e+02	-8.8008	-30.375409	0.000274	2.735806	0.926916	0.000110
1789	1.7791e+02	-8.7639	-30.282555	0.000233	2.330502	0.789595	0.000093
1790	1.7801e+02	-8.7222	-30.145293	0.000345	3.445090	1.167228	0.000138
1791	1.7810e+02	-8.6821	-30.024178	0.000304	3.039785	1.029907	0.000122
1792	1.7820e+02	-8.6452	-29.886916	0.000345	3.445090	1.167228	0.000138
1793	1.7830e+02	-8.6003	-29.794062	0.000233	2.330502	0.789595	0.000093
1794	1.7840e+02	-8.5618	-29.725430	0.000172	1.722545	0.583614	0.000069
1795	1.7850e+02	-8.5233	-29.592205	0.000334	3.343763	1.132898	0.000134
1796	1.7860e+02	-8.4784	-29.535685	0.000142	1.418566	0.480623	0.000057
1797	1.7870e+02	-8.4463	-29.418608	0.000294	2.938459	0.995577	0.000118
1798	1.7880e+02	-8.4062	-29.358051	0.000152	1.519892	0.514953	0.000061
1799	1.7890e+02	-8.3581	-29.269234	0.000223	2.229176	0.755265	0.000089
1800	1.7900e+02	-8.3244	-29.144083	0.000314	3.141111	1.064237	0.000126
1801	1.7910e+02	-8.2778	-29.055266	0.000223	2.229176	0.755265	0.000089
1802	1.7920e+02	-8.2377	-28.922040	0.000334	3.343763	1.132898	0.000134
1803	1.7930e+02	-8.2057	-28.845335	0.000193	1.925197	0.652274	0.000077
1804	1.7940e+02	-8.1720	-28.748444	0.000243	2.431828	0.823926	0.000097
1805	1.7950e+02	-8.1270	-28.643478	0.000263	2.634480	0.892586	0.000105
1806	1.7960e+02	-8.0805	-28.530438	0.000284	2.837133	0.961247	0.000114
1807	1.7970e+02	-8.0420	-28.417398	0.000284	2.837133	0.961247	0.000114
1808	1.7980e+02	-8.0019	-28.292247	0.000314	3.141111	1.064237	0.000126
1809	1.7990e+02	-7.9634	-28.183245	0.000274	2.735806	0.926916	0.000110
1810	1.8000e+02	-7.9233	-28.090390	0.000233	2.330502	0.789595	0.000093
1811	1.8009e+02	-7.8784	-27.969276	0.000304	3.039785	1.029907	0.000122
1812	1.8019e+02	-7.8479	-27.852199	0.000294	2.938459	0.995577	0.000118
1813	1.8029e+02	-7.8030	-27.791642	0.000152	1.519892	0.514953	0.000061
1814	1.8039e+02	-7.7597	-27.714937	0.000193	1.925197	0.652274	0.000077
1815	1.8049e+02	-7.7276	-27.601897	0.000284	2.837133	0.961247	0.000114
1816	1.8059e+02	-7.6827	-27.533266	0.000172	1.722545	0.583614	0.000069
1817	1.8069e+02	-7.6442	-27.412152	0.000304	3.039785	1.029907	0.000122
1818	1.8079e+02	-7.6025	-27.319298	0.000233	2.330502	0.789595	0.000093
1819	1.8089e+02	-7.5720	-27.258741	0.000152	1.519892	0.514953	0.000061
1820	1.8099e+02	-7.5303	-27.125515	0.000334	3.343763	1.132898	0.000134
1821	1.8109e+02	-7.4837	-27.020549	0.000263	2.634480	0.892586	0.000105
1822	1.8119e+02	-7.4468	-26.895398	0.000314	3.141111	1.064237	0.000126
1823	1.8129e+02	-7.4100	-26.822730	0.000182	1.823871	0.617944	0.000073
1824	1.8139e+02	-7.3698	-26.681430	0.000355	3.546416	1.201558	0.000142
1825	1.8149e+02	-7.3297	-26.568390	0.000284	2.837133	0.961247	0.000114
1826	1.8159e+02	-7.2944	-26.419016	0.000375	3.749068	1.270219	0.000150
1827	1.8169e+02	-7.2479	-26.366534	0.000132	1.317240	0.446293	0.000053
1828	1.8179e+02	-7.2078	-26.237345	0.000324	3.242437	1.098567	0.000130
1829	1.8189e+02	-7.1693	-26.156602	0.000203	2.026523	0.686605	0.000081
1830	1.8199e+02	-7.1308	-26.071823	0.000213	2.127849	0.720935	0.000085
1831	1.8209e+02	-7.0827	-26.007228	0.000162	1.621219	0.549284	0.000065
1832	1.8218e+02	-7.0442	-25.902263	0.000263	2.634480	0.892586	0.000105
1833	1.8228e+02	-7.0057	-25.769037	0.000334	3.343763	1.132898	0.000134
1834	1.8238e+02	-6.9624	-25.692332	0.000193	1.925197	0.652274	0.000077
1835	1.8248e+02	-6.9287	-25.599478	0.000233	2.330502	0.789595	0.000093
1836	1.8258e+02	-6.8886	-25.458178	0.000355	3.546416	1.201558	0.000142
1837	1.8268e+02	-6.8485	-25.373398	0.000213	2.127849	0.720935	0.000085
1838	1.8278e+02	-6.8100	-25.244210	0.000324	3.242437	1.098567	0.000130
1839	1.8288e+02	-6.7699	-25.171541	0.000182	1.823871	0.617944	0.000073
1840	1.8298e+02	-6.7314	-25.070613	0.000253	2.533154	0.858256	0.000101
1841	1.8308e+02	-6.6848	-24.937387	0.000334	3.343763	1.132898	0.000134
1842	1.8318e+02	-6.6544	-24.816273	0.000304	3.039785	1.029907	0.000122
1843	1.8328e+02	-6.6207	-24.666899	0.000375	3.749068	1.270219	0.000150
1844	1.8338e+02	-6.5725	-24.541748	0.000314	3.141111	1.064237	0.000126
1845	1.8348e+02	-6.5260	-24.456968	0.000213	2.127849	0.720935	0.000085
1846	1.8358e+02	-6.4811	-24.360077	0.000243	2.431828	0.823926	0.000097
1847	1.8368e+02	-6.4506	-24.295483	0.000162	1.621219	0.549284	0.000065
1848	1.8378e+02	-6.4153	-24.218777	0.000193	1.925197	0.652274	0.000077
1849	1.8388e+02	-6.3656	-24.089589	0.000324	3.242437	1.098567	0.000130
1850	1.8398e+02	-6.3271	-23.988661	0.000253	2.533154	0.858256	0.000101
1851	1.8407e+02	-6.2934	-23.875621	0.000284	2.837133	0.961247	0.000114
1852	1.8417e+02	-6.2565	-23.770655	0.000263	2.634480	0.892586	0.000105
1853	1.8427e+02	-6.2132	-23.685875	0.000213	2.127849	0.720935	0.000085
1854	1.8437e+02	-6.1747	-23.552650	0.000334	3.343763	1.132898	0.000134
1855	1.8447e+02	-6.1314	-23.451722	0.000253	2.533154	0.858256	0.000101
1856	1.8457e+02	-6.0961	-23.334645	0.000294	2.938459	0.995577	0.000118
1857	1.8467e+02	-6.0544	-23.205456	0.000324	3.242437	1.098567	0.000130
1858	1.8477e+02	-6.0191	-23.096454	0.000274	2.735806	0.926916	0.000110
1859	1.8487e+02	-5.9726	-22.987451	0.000274	2.735806	0.926916	0.000110
1860	1.8497e+02	-5.9357	-22.830003	0.000395	3.951720	1.338879	0.000158
1861	1.8507e+02	-5.8923	-22.721000	0.000274	2.735806	0.926916	0.000110
1862	1.8517e+02	-5.8490	-22.616034	0.000263	2.634480	0.892586	0.000105
1863	1.8527e+02	-5.8105	-22.502995	0.000284	2.837133	0.961247	0.000114
1864	1.8537e+02	-5.7752	-22.422252	0.000203	2.026523	0.686605	0.000081
1865	1.8547e+02	-5.7383	-22.345546	0.000193	1.925197	0.652274	0.000077
1866	1.8557e+02	-5.6998	-22.236544	0.000274	2.735806	0.926916	0.000110
1867	1.8567e+02	-5.6549	-22.111392	0.000314	3.141111	1.064237	0.000126
1868	1.8577e+02	-5.6052	-22.038724	0.000182	1.823871	0.617944	0.000073
1869	1.8587e+02	-5.5667	-21.885313	0.000385	3.850394	1.304549	0.000154
1870	1.8597e+02	-5.5266	-21.772273	0.000284	2.837133	0.961247	0.000114
1871	1.8606e+02	-5.4993	-21.683456	0.000223	2.229176	0.755265	0.000089
1872	1.8616e+02	-5.4576	-21.521971	0.000405	4.053047	1.373209	0.000162
1873	1.8626e+02	-5.4223	-21.473525	0.000122	1.215914	0.411963	0.000049
1874	1.8636e+02	-5.3886	-21.340300	0.000334	3.343763	1.132898	0.000134
1875	1.8646e+02	-5.3437	-21.207074	0.000334	3.343763	1.132898	0.000134
1876	1.8656e+02	-5.3004	-21.094034	0.000284	2.837133	0.961247	0.000114
1877	1.8666e+02	-5.2683	-20.944660	0.000375	3.749068	1.270219	0.000150
1878	1.8676e+02	-5.2266	-20.827583	0.000294	2.938459	0.995577	0.000118
1879	1.8686e+02	-5.1704	-20.730692	0.000243	2.431828	0.823926	0.000097
1880	1.8696e+02	-5.1384	-20.629764	0.000253	2.533154	0.858256	0.000101
1881	1.8706e+02	-5.0918	-20.524798	0.000263	2.634480	0.892586	0.000105
1882	1.8716e+02	-5.0630	-20.427907	0.000243	2.431828	0.823926	0.000097
1883	1.8726e+02	-5.0212	-20.310830	0.000294	2.938459	0.995577	0.000118
1884	1.8736e+02	-4.9892	-20.157419	0.000385	3.850394	1.304549	0.000154
1885	1.8746e+02	-4.9330	-20.068602	0.000223	2.229176	0.755265	0.000089
1886	1.8756e+02	-4.9057	-19.951525	0.000294	2.938459	0.995577	0.000118
1887	1.8766e+02	-4.8640	-19.870782	0.000203	2.026523	0.686605	0.000081
1888	1.8776e+02	-4.8143	-19.749668	0.000304	3.039785	1.029907	0.000122
1889	1.8786e+02	-4.7726	-19.620480	0.000324	3.242437	1.098567	0.000130
1890	1.8796e+02	-4.7341	-19.531663	0.000223	2.229176	0.755265	0.000089
1891	1.8806e+02	-4.6892	-19.402474	0.000324	3.242437	1.098567	0.000130
1892	1.8815e+02	-4.6667	-19.273286	0.000324	3.242437	1.098567	0.000130
1893	1.8825e+02	-4.6250	-19.156209	0.000294	2.938459	0.995577	0.000118
1894	1.8835e+02	-4.5801	-19.006835	0.000375	3.749068	1.270219	0.000150
1895	1.8845e+02	-4.5368	-18.930129	0.000193	1.925197	0.652274	0.000077
1896	1.8855e+02	-4.4919	-18.776718	0.000385	3.850394	1.304549	0.000154
1897	1.8865e+02	-4.4566	-18.675790	0.000253	2.533154	0.858256	0.000101
1898	1.8875e+02	-4.4277	-18.562750	0.000284	2.837133	0.961247	0.000114
1899	1.8885e+02	-4.3747	-18.461822	0.000253	2.533154	0.858256	0.000101
1900	1.8895e+02	-4.3378	-18.364930	0.000243	2.431828	0.823926	0.000097
1901	1.8905e+02	-4.2945	-18.207482	0.000395	3.951720	1.338879	0.000158
1902	1.8915e+02	-4.2592	-18.122702	0.000213	2.127849	0.720935	0.000085
1903	1.8925e+02	-4.2159	-17.985440	0.000345	3.445090	1.167228	0.000138
1904	1.8935e+02	-4.1870	-17.900660	0.000213	2.127849	0.720935	0.000085
1905	1.8945e+02	-4.1437	-17.755323	0.000365	3.647742	1.235888	0.000146
1906	1.8955e+02	-4.1100	-17.630172	0.000314	3.141111	1.064237	0.000126
1907	1.8965e+02	-4.0635	-17.505021	0.000314	3.141111	1.064237	0.000126
1908	1.8975e+02	-4.0234	-17.420241	0.000213	2.127849	0.720935	0.000085
1909	1.8985e+02	-3.9817	-17.291052	0.000324	3.242437	1.098567	0.000130
1910	1.8995e+02	-3.9432	-17.129567	0.000405	4.053047	1.373209	0.000162
1911	1.9004e+02	-3.9031	-17.040750	0.000223	2.229176	0.755265	0.000089
1912	1.9014e+02	-3.8566	-16.915599	0.000314	3.141111	1.064237	0.000126
1913	1.9024e+02	-3.8229	-16.814670	0.000253	2.533154	0.858256	0.000101
1914	1.9034e+02	-3.7780	-16.665296	0.000375	3.749068	1.270219	0.000150
1915	1.9044e+02	-3.7314	-16.560331	0.000263	2.634480	0.892586	0.000105
1916	1.9054e+02	-3.6945	-16.423068	0.000345	3.445090	1.167228	0.000138
1917	1.9064e+02	-3.6625	-16.362511	0.000152	1.519892	0.514953	0.000061
1918	1.9074e+02	-3.6143	-16.221211	0.000355	3.546416	1.201558	0.000142
1919	1.9084e+02	-3.5951	-16.132394	0.000223	2.229176	0.755265	0.000089
1920	1.9094e+02	-3.5405	-16.043577	0.000223	2.229176	0.755265	0.000089
1921	1.9104e+02	-3.4956	-15.910352	0.000334	3.343763	1.132898	0.000134
1922	1.9114e+02	-3.4667	-15.793275	0.000294	2.938459	0.995577	0.000118
1923	1.9124e+02	-3.4218	-15.647938	0.000365	3.647742	1.235888	0.000146
1924	1.9134e+02	-3.3913	-15.547010	0.000253	2.533154	0.858256	0.000101
1925	1.9144e+02	-3.3480	-15.442044	0.000263	2.634480	0.892586	0.000105
1926	1.9154e+02	-3.3159	-15.304782	0.000345	3.445090	1.167228	0.000138
1927	1.9164e+02	-3.2678	-15.191742	0.000284	2.837133	0.961247	0.000114
1928	1.9174e+02	-3.2277	-15.074665	0.000294	2.938459	0.995577	0.000118
1929	1.9184e+02	-3.1908	-14.937402	0.000345	3.445090	1.167228	0.000138
1930	1.9194e+02	-3.1491	-14.792065	0.000365	3.647742	1.235888	0.000146
1931	1.9203e+02	-3.1122	-14.703248	0.000223	2.229176	0.755265	0.000089
1932	1.9213e+02	-3.0721	-14.561949	0.000355	3.546416	1.201558	0.000142
1933	1.9223e+02	-3.0160	-14.485243	0.000193	1.925197	0.652274	0.000077
1934	1.9233e+02	-2.9887	-14.372203	0.000284	2.837133	0.961247	0.000114
1935	1.9243e+02	-2.9406	-14.287423	0.000213	2.127849	0.720935	0.000085
1936	1.9253e+02	-2.9085	-14.166309	0.000304	3.039785	1.029907	0.000122
1937	1.9263e+02	-2.8652	-14.016935	0.000375	3.749068	1.270219	0.000150
1938	1.9273e+02	-2.8218	-13.932155	0.000213	2.127849	0.720935	0.000085
1939	1.9283e+02	-2.7914	-13.794893	0.000345	3.445090	1.167228	0.000138
1940	1.9293e+02	-2.7464	-13.685890	0.000274	2.735806	0.926916	0.000110
1941	1.9303e+02	-2.7128	-13.544590	0.000355	3.546416	1.201558	0.000142
1942	1.9313e+02	-2.6662	-13.455773	0.000223	2.229176	0.755265	0.000089
1943	1.9323e+02	-2.6293	-13.326585	0.000324	3.242437	1.098567	0.000130
1944	1.9333e+02	-2.5876	-13.225657	0.000253	2.533154	0.858256	0.000101
1945	1.9343e+02	-2.5523	-13.096468	0.000324	3.242437	1.098567	0.000130
1946	1.9353e+02	-2.5106	-12.991503	0.000263	2.634480	0.892586	0.000105
1947	1.9363e+02	-2.4753	-12.862314	0.000324	3.242437	1.098567	0.000130
1948	1.9373e+02	-2.4256	-12.721015	0.000355	3.546416	1.201558	0.000142
1949	1.9383e+02	-2.3887	-12.603938	0.000294	2.938459	0.995577	0.000118
1950	1.9393e+02	-2.3406	-12.519158	0.000213	2.127849	0.720935	0.000085
1951	1.9403e+02	-2.3245	-12.410155	0.000274	2.735806	0.926916	0.000110
1952	1.9412e+02	-2.2652	-12.293078	0.000294	2.938459	0.995577	0.000118
1953	1.9422e+02	-2.2251	-12.180039	0.000284	2.837133	0.961247	0.000114
1954	1.9432e+02	-2.1946	-12.083147	0.000243	2.431828	0.823926	0.000097
1955	1.9442e+02	-2.1449	-11.925699	0.000395	3.951720	1.338879	0.000158
1956	1.9452e+02	-2.1048	-11.812659	0.000284	2.837133	0.961247	0.000114
1957	1.9462e+02	-2.0727	-11.691545	0.000304	3.039785	1.029907	0.000122
1958	1.9472e+02	-2.0342	-11.562357	0.000324	3.242437	1.098567	0.000130
1959	1.9482e+02	-1.9892	-11.441243	0.000304	3.039785	1.029907	0.000122
1960	1.9492e+02	-1.9475	-11.380686	0.000152	1.519892	0.514953	0.000061
1961	1.9502e+02	-1.9155	-11.263609	0.000294	2.938459	0.995577	0.000118
1962	1.9512e+02	-1.8625	-11.118272	0.000365	3.647742	1.235888	0.000146
1963	1.9522e+02	-1.8304	-10.997158	0.000304	3.039785	1.029907	0.000122
1964	1.9532e+02	-1.7983	-10.839709	0.000395	3.951720	1.338879	0.000158
1965	1.9542e+02	-1.7470	-10.763004	0.000193	1.925197	0.652274	0.000077
1966	1.9552e+02	-1.7085	-10.654001	0.000274	2.735806	0.926916	0.000110
1967	1.9562e+02	-1.6652	-10.504627	0.000375	3.749068	1.270219	0.000150
1968	1.9572e+02	-1.6315	-10.407736	0.000243	2.431828	0.823926	0.000097
1969	1.9582e+02	-1.5946	-10.294696	0.000284	2.837133	0.961247	0.000114
1970	1.9592e+02	-1.5401	-10.193768	0.000253	2.533154	0.858256	0.000101
1971	1.9601e+02	-1.5128	-10.084765	0.000274	2.735806	0.926916	0.000110
1972	1.9611e+02	-1.4663	-9.955577	0.000324	3.242437	1.098567	0.000130
1973	1.9621e+02	-1.4326	-9.858685	0.000243	2.431828	0.823926	0.000097
1974	1.9631e+02	-1.3828	-9.757757	0.000253	2.533154	0.858256	0.000101
1975	1.9641e+02	-1.3524	-9.624532	0.000334	3.343763	1.132898	0.000134
1976	1.9651e+02	-1.3107	-9.495343	0.000324	3.242437	1.098567	0.000130
1977	1.9661e+02	-1.2802	-9.337895	0.000395	3.951720	1.338879	0.000158
1978	1.9671e+02	-1.2288	-9.273301	0.000162	1.621219	0.549284	0.000065
1979	1.9681e+02	-1.1935	-9.176410	0.000243	2.431828	0.823926	0.000097
1980	1.9691e+02	-1.1631	-9.047221	0.000324	3.242437	1.098567	0.000130
1981	1.9701e+02	-1.1165	-8.934181	0.000284	2.837133	0.961247	0.000114
1982	1.9711e+02	-1.0716	-8.764622	0.000426	4.255699	1.441870	0.000170
1983	1.9721e+02	-1.0283	-8.623322	0.000355	3.546416	1.201558	0.000142
1984	1.9731e+02	-0.9882	-8.526431	0.000243	2.431828	0.823926	0.000097
1985	1.9741e+02	-0.9529	-8.433577	0.000233	2.330502	0.789595	0.000093
1986	1.9751e+02	-0.9176	-8.328611	0.000263	2.634480	0.892586	0.000105
1987	1.9761e+02	-0.8775	-8.211534	0.000294	2.938459	0.995577	0.000118
1988	1.9771e+02	-0.8310	-8.138866	0.000182	1.823871	0.617944	0.000073
1989	1.9781e+02	-0.7877	-7.993529	0.000365	3.647742	1.235888	0.000146
1990	1.9791e+02	-0.7524	-7.876452	0.000294	2.938459	0.995577	0.000118
1991	1.9800e+02	-0.7027	-7.755338	0.000304	3.039785	1.029907	0.000122
1992	1.9810e+02	-0.6738	-7.654409	0.000253	2.533154	0.858256	0.000101
1993	1.9820e+02	-0.6321	-7.521184	0.000334	3.343763	1.132898	0.000134
1994	1.9830e+02	-0.5952	-7.400070	0.000304	3.039785	1.029907	0.000122
1995	1.9840e+02	-0.5567	-7.295104	0.000263	2.634480	0.892586	0.000105
1996	1.9850e+02	-0.5101	-7.157842	0.000345	3.445090	1.167228	0.000138
1997	1.9860e+02	-0.4845	-7.032690	0.000314	3.141111	1.064237	0.000126
1998	1.9870e+02	-0.4315	-6.883316	0.000375	3.749068	1.270219	0.000150
1999	1.9880e+02	-0.4091	-6.782388	0.000253	2.533154	0.858256	0.000101
2000	1.9890e+02	-0.3577	-6.637051	0.000365	3.647742	1.235888	0.000146
2001	1.9900e+02	-0.3112	-6.564383	0.000182	1.823871	0.617944	0.000073
2002	1.9910e+02	-0.2775	-6.451343	0.000284	2.837133	0.961247	0.000114
2003	1.9920e+02	-0.2374	-6.330229	0.000304	3.039785	1.029907	0.000122
2004	1.9930e+02	-0.1893	-6.249486	0.000203	2.026523	0.686605	0.000081
2005	1.9940e+02	-0.1620	-6.144521	0.000263	2.634480	0.892586	0.000105
2006	1.9950e+02	-0.1155	-6.007258	0.000345	3.445090	1.167228	0.000138
2007	1.9960e+02	-0.0818	-5.878070	0.000324	3.242437	1.098567	0.000130
2008	1.9970e+02	-0.0401	-5.744844	0.000334	3.343763	1.132898	0.000134
2009	1.9980e+02	0.0016	-5.668139	0.000334	3.343763	1.132898	0.000077

PMax (uC/cm2):	5.73e+01
Pr (uC/cm2):	2.59e+00
-Pr (uC/cm2):	-2.92e+00
PLoss (uC/cm2):	-2.85e+00
-Vc:	-8.78e-01
C (Max-Eff) (nF):	2.87e-01
K (Eff):	9.71e+02
Vert. (+/-Pr) Shift (uC/cm2):	-1.64e-01
Offset (uC/cm2):	2.75e+00

A (Loop Area - uC/cm2·Volts):	1.88e-02



Hysteresis Version: 5.48.1 - Radiant Technologies, Inc., 1999 - 9/12/24

