»»»»»»»»»»»»»»»»»»»»»»»»»»»»»»»»»»»» Hysteresis ««««««««««««««««««««««««««««««««««««
»»»  Executed Version:	5.48.1
»»»  Vision Version:	5.48.4 (R)
»»»  Vision Compiled:	9/18/24
»»»  Driver Version:	5.47.0
»»»  Windows Version:	Windows 8 or 8.1
»»»  Processor Information:	x86 (AMD or Intel) - 32 Processors
»»»  Tester Name:	PMF21124-494 (100V)
»»»  Tester S/N:	PMF21124-494
»»»  Internal Amp Type:	100V RevK 270k
»»»  Internal Amp S/N:	iAB2-596/K     
»»»  Execution Count:	1
»»»»»»»»»»»»»»»»»»»»»»»»»»»»»»»»»»»»»»»»»»««««««««««««««««««««««««««««««««««««««««««

Stored:	6/17/2025 - 16:9:29
Configured:	06/17/25 10:39:14 AM
Executed:	06/17/25 04:08:53 PM

»»»»»»»»»»»»»»»»»»»»»»»»»»»»»»»»»»» Sample Info ««««««««««««««««««««««««««««««««««««
Sample Name:	
Lot Name:	
Wafer Name:	
Die Row/Column:	0/0
Capacitor Number:	0
Sample Area (cm2):	1.00e-04
Sample Thickness (microns):	3.00e-01

Amplifier:	Internal

»»»»»»»»»»»»»»»»»»»»»»»»»»»»»»»»»»» Tester Info «««««««««««««««««««««««««««««««««««
Tester Name:	PMF21124-494 (100V)
Tester Serial Number:	PMF21124-494
Return Signal Amp. Level:	0.19 [Index: 3]

»»»»»»»»»»»»»»»»»»»»»»»»»»»»»»»» Hysteresis Info ««««««««««««««««««««««««««««««««««
Task Name:	Hyst-180
Volts:	20.00
Field:	666.67 (kV/cm)
DCBias:	0.00
DCField:	0.00 (kV/cm)
Hysteresis Period (ms):	2.00e+02
Preset:	Enabled
Preset Delay (ms):	1.00e+03
Profile:	Standard Bipolar

»»»»»»»»»»»»»»»»»»»»»»»»»»»»»»»»»»»»»» Data «««««««««««««««««««««««««««««««««««««««
Points:	2009

Valid Data

Point	Time (ms)	Drive Voltage	Measured Polarization (uC/cm2)	Capacitance (uF)	Normalized Capacitance (uF/cm2)	Dielectric Constant	Instantaneous Current (mA)
   1	0.0000e+00	0.0032	-2.616064	0.000041	0.405524	0.137395	0.000016
   2	9.9500e-02	0.0321	-2.599915	0.000041	0.405524	0.137395	0.000016
   3	1.9900e-01	0.0834	-2.446504	0.000385	3.852480	1.305256	0.000154
   4	2.9850e-01	0.1107	-2.398059	0.000122	1.216573	0.412186	0.000049
   5	3.9800e-01	0.1556	-2.272907	0.000314	3.142813	1.064814	0.000126
   6	4.9750e-01	0.1973	-2.171979	0.000253	2.534526	0.858721	0.000101
   7	5.9700e-01	0.2358	-2.034716	0.000345	3.446956	1.167860	0.000138
   8	6.9650e-01	0.2791	-1.953974	0.000203	2.027621	0.686977	0.000081
   9	7.9600e-01	0.3225	-1.820748	0.000335	3.345575	1.133511	0.000134
  10	8.9550e-01	0.3593	-1.699634	0.000304	3.041431	1.030465	0.000122
  11	9.9500e-01	0.3978	-1.546223	0.000385	3.852480	1.305256	0.000154
  12	1.0945e+00	0.4315	-1.437220	0.000274	2.737288	0.927418	0.000110
  13	1.1940e+00	0.4797	-1.308032	0.000324	3.244194	1.099163	0.000130
  14	1.2935e+00	0.5198	-1.207104	0.000253	2.534526	0.858721	0.000101
  15	1.3930e+00	0.5551	-1.126361	0.000203	2.027621	0.686977	0.000081
  16	1.4925e+00	0.5888	-0.972950	0.000385	3.852480	1.305256	0.000154
  17	1.5920e+00	0.6385	-0.863947	0.000274	2.737288	0.927418	0.000110
  18	1.6915e+00	0.6738	-0.750907	0.000284	2.838669	0.961767	0.000114
  19	1.7910e+00	0.7235	-0.641905	0.000274	2.737288	0.927418	0.000110
  20	1.8905e+00	0.7604	-0.516753	0.000314	3.142813	1.064814	0.000126
  21	1.9900e+00	0.7861	-0.427936	0.000223	2.230383	0.755674	0.000089
  22	2.0895e+00	0.8278	-0.343157	0.000213	2.129002	0.721325	0.000085
  23	2.1890e+00	0.8823	-0.266451	0.000193	1.926240	0.652628	0.000077
  24	2.2885e+00	0.9112	-0.117077	0.000375	3.751099	1.270907	0.000150
  25	2.3880e+00	0.9545	0.024223	0.000355	3.548337	1.202209	0.000142
  26	2.4875e+00	0.9930	0.100928	0.000193	1.926240	0.652628	0.000077
  27	2.5870e+00	1.0347	0.234154	0.000335	3.345575	1.133511	0.000134
  28	2.6865e+00	1.0668	0.395639	0.000406	4.055242	1.373953	0.000162
  29	2.7860e+00	1.1053	0.512716	0.000294	2.940050	0.996116	0.000118
  30	2.8855e+00	1.1422	0.641905	0.000324	3.244194	1.099163	0.000130
  31	2.9850e+00	1.1887	0.714573	0.000182	1.824859	0.618279	0.000073
  32	3.0845e+00	1.2272	0.896244	0.000456	4.562147	1.545697	0.000183
  33	3.1840e+00	1.2722	0.972950	0.000193	1.926240	0.652628	0.000077
  34	3.2835e+00	1.3058	1.073878	0.000253	2.534526	0.858721	0.000101
  35	3.3830e+00	1.3556	1.203066	0.000324	3.244194	1.099163	0.000130
  36	3.4825e+00	1.3957	1.320143	0.000294	2.940050	0.996116	0.000118
  37	3.5820e+00	1.4214	1.408960	0.000223	2.230383	0.755674	0.000089
  38	3.6815e+00	1.4807	1.509889	0.000253	2.534526	0.858721	0.000101
  39	3.7810e+00	1.5160	1.582557	0.000182	1.824859	0.618279	0.000073
  40	3.8805e+00	1.5465	1.703671	0.000304	3.041431	1.030465	0.000122
  41	3.9800e+00	1.5994	1.804600	0.000253	2.534526	0.858721	0.000101
  42	4.0795e+00	1.6267	1.958011	0.000385	3.852480	1.305256	0.000154
  43	4.1790e+00	1.6764	2.034716	0.000193	1.926240	0.652628	0.000077
  44	4.2785e+00	1.7149	2.196202	0.000406	4.055242	1.373953	0.000162
  45	4.3780e+00	1.7582	2.313279	0.000294	2.940050	0.996116	0.000118
  46	4.4775e+00	1.7855	2.462653	0.000375	3.751099	1.270907	0.000150
  47	4.5770e+00	1.8304	2.616064	0.000385	3.852480	1.305256	0.000154
  48	4.6765e+00	1.8705	2.737178	0.000304	3.041431	1.030465	0.000122
  49	4.7760e+00	1.9122	2.825995	0.000223	2.230383	0.755674	0.000089
  50	4.8755e+00	1.9427	2.926923	0.000253	2.534526	0.858721	0.000101
  51	4.9750e+00	1.9860	3.076297	0.000375	3.751099	1.270907	0.000150
  52	5.0745e+00	2.0278	3.165114	0.000223	2.230383	0.755674	0.000089
  53	5.1740e+00	2.0727	3.306414	0.000355	3.548337	1.202209	0.000142
  54	5.2735e+00	2.1112	3.395231	0.000223	2.230383	0.755674	0.000089
  55	5.3730e+00	2.1545	3.540568	0.000365	3.649718	1.236558	0.000146
  56	5.4725e+00	2.1930	3.629385	0.000223	2.230383	0.755674	0.000089
  57	5.5720e+00	2.2283	3.706091	0.000193	1.926240	0.652628	0.000077
  58	5.6715e+00	2.2604	3.843353	0.000345	3.446956	1.167860	0.000138
  59	5.7710e+00	2.3085	3.960430	0.000294	2.940050	0.996116	0.000118
  60	5.8705e+00	2.3470	4.109804	0.000375	3.751099	1.270907	0.000150
  61	5.9700e+00	2.3903	4.174398	0.000162	1.622097	0.549581	0.000065
  62	6.0695e+00	2.4320	4.319735	0.000365	3.649718	1.236558	0.000146
  63	6.1690e+00	2.4641	4.424701	0.000264	2.635907	0.893070	0.000105
  64	6.2685e+00	2.4978	4.566001	0.000355	3.548337	1.202209	0.000142
  65	6.3680e+00	2.5475	4.703263	0.000345	3.446956	1.167860	0.000138
  66	6.4675e+00	2.5956	4.844563	0.000355	3.548337	1.202209	0.000142
  67	6.5670e+00	2.6245	4.941454	0.000243	2.433145	0.824372	0.000097
  68	6.6665e+00	2.6694	5.062568	0.000304	3.041431	1.030465	0.000122
  69	6.7660e+00	2.7047	5.175608	0.000284	2.838669	0.961767	0.000114
  70	6.8655e+00	2.7400	5.329019	0.000385	3.852480	1.305256	0.000154
  71	6.9650e+00	2.7962	5.417836	0.000223	2.230383	0.755674	0.000089
  72	7.0645e+00	2.8218	5.510690	0.000233	2.331764	0.790023	0.000093
  73	7.1640e+00	2.8780	5.567210	0.000142	1.419335	0.480884	0.000057
  74	7.2635e+00	2.9133	5.672176	0.000264	2.635907	0.893070	0.000105
  75	7.3630e+00	2.9325	5.825587	0.000385	3.852480	1.305256	0.000154
  76	7.4625e+00	2.9903	5.934590	0.000274	2.737288	0.927418	0.000110
  77	7.5620e+00	3.0240	6.039555	0.000264	2.635907	0.893070	0.000105
  78	7.6615e+00	3.0705	6.128372	0.000223	2.230383	0.755674	0.000089
  79	7.7610e+00	3.1074	6.289857	0.000406	4.055242	1.373953	0.000162
  80	7.8605e+00	3.1379	6.431157	0.000355	3.548337	1.202209	0.000142
  81	7.9600e+00	3.1860	6.588606	0.000395	3.953861	1.339604	0.000158
  82	8.0595e+00	3.2213	6.701645	0.000284	2.838669	0.961767	0.000114
  83	8.1590e+00	3.2694	6.810648	0.000274	2.737288	0.927418	0.000110
  84	8.2585e+00	3.3063	6.907539	0.000243	2.433145	0.824372	0.000097
  85	8.3580e+00	3.3416	7.040765	0.000335	3.345575	1.133511	0.000134
  86	8.4575e+00	3.3753	7.161879	0.000304	3.041431	1.030465	0.000122
  87	8.5570e+00	3.4234	7.274919	0.000284	2.838669	0.961767	0.000114
  88	8.6565e+00	3.4539	7.436404	0.000406	4.055242	1.373953	0.000162
  89	8.7560e+00	3.5101	7.513110	0.000193	1.926240	0.652628	0.000077
  90	8.8555e+00	3.5405	7.610001	0.000243	2.433145	0.824372	0.000097
  91	8.9550e+00	3.5823	7.735152	0.000314	3.142813	1.064814	0.000126
  92	9.0545e+00	3.6256	7.815895	0.000203	2.027621	0.686977	0.000081
  93	9.1540e+00	3.6689	7.928935	0.000284	2.838669	0.961767	0.000114
  94	9.2535e+00	3.6978	8.046012	0.000294	2.940050	0.996116	0.000118
  95	9.3530e+00	3.7379	8.155014	0.000274	2.737288	0.927418	0.000110
  96	9.4525e+00	3.7812	8.324574	0.000426	4.258004	1.442651	0.000170
  97	9.5520e+00	3.8261	8.413391	0.000223	2.230383	0.755674	0.000089
  98	9.6515e+00	3.8630	8.591025	0.000446	4.460766	1.511348	0.000179
  99	9.7510e+00	3.9015	8.732325	0.000355	3.548337	1.202209	0.000142
 100	9.8505e+00	3.9352	8.825179	0.000233	2.331764	0.790023	0.000093
 101	9.9500e+00	3.9833	8.982627	0.000395	3.953861	1.339604	0.000158
 102	1.0050e+01	4.0090	9.140075	0.000395	3.953861	1.339604	0.000158
 103	1.0149e+01	4.0475	9.180447	0.000101	1.013810	0.343488	0.000041
 104	1.0248e+01	4.1052	9.313672	0.000335	3.345575	1.133511	0.000134
 105	1.0348e+01	4.1421	9.467083	0.000385	3.852480	1.305256	0.000154
 106	1.0447e+01	4.1822	9.535715	0.000172	1.723478	0.583930	0.000069
 107	1.0547e+01	4.2175	9.596272	0.000152	1.520716	0.515232	0.000061
 108	1.0646e+01	4.2512	9.733534	0.000345	3.446956	1.167860	0.000138
 109	1.0746e+01	4.3042	9.830426	0.000243	2.433145	0.824372	0.000097
 110	1.0845e+01	4.3427	9.959614	0.000324	3.244194	1.099163	0.000130
 111	1.0945e+01	4.3763	10.076691	0.000294	2.940050	0.996116	0.000118
 112	1.1044e+01	4.4261	10.197805	0.000304	3.041431	1.030465	0.000122
 113	1.1144e+01	4.4598	10.359290	0.000406	4.055242	1.373953	0.000162
 114	1.1243e+01	4.4999	10.435996	0.000193	1.926240	0.652628	0.000077
 115	1.1343e+01	4.5400	10.573258	0.000345	3.446956	1.167860	0.000138
 116	1.1443e+01	4.5817	10.718595	0.000365	3.649718	1.236558	0.000146
 117	1.1542e+01	4.6154	10.863932	0.000365	3.649718	1.236558	0.000146
 118	1.1642e+01	4.6603	11.025418	0.000406	4.055242	1.373953	0.000162
 119	1.1741e+01	4.7020	11.114235	0.000223	2.230383	0.755674	0.000089
 120	1.1841e+01	4.7373	11.182866	0.000172	1.723478	0.583930	0.000069
 121	1.1940e+01	4.7758	11.368574	0.000466	4.663528	1.580046	0.000187
 122	1.2040e+01	4.8191	11.457391	0.000223	2.230383	0.755674	0.000089
 123	1.2139e+01	4.8640	11.578505	0.000304	3.041431	1.030465	0.000122
 124	1.2239e+01	4.8977	11.671359	0.000233	2.331764	0.790023	0.000093
 125	1.2338e+01	4.9426	11.756139	0.000213	2.129002	0.721325	0.000085
 126	1.2438e+01	4.9844	11.865142	0.000274	2.737288	0.927418	0.000110
 127	1.2537e+01	5.0148	12.002405	0.000345	3.446956	1.167860	0.000138
 128	1.2636e+01	5.0630	12.115444	0.000284	2.838669	0.961767	0.000114
 129	1.2736e+01	5.0950	12.272893	0.000395	3.953861	1.339604	0.000158
 130	1.2835e+01	5.1384	12.373821	0.000253	2.534526	0.858721	0.000101
 131	1.2935e+01	5.1737	12.454564	0.000203	2.027621	0.686977	0.000081
 132	1.3034e+01	5.2154	12.624123	0.000426	4.258004	1.442651	0.000170
 133	1.3134e+01	5.2635	12.789646	0.000416	4.156623	1.408302	0.000166
 134	1.3233e+01	5.2940	12.894612	0.000264	2.635907	0.893070	0.000105
 135	1.3333e+01	5.3341	13.003614	0.000274	2.737288	0.927418	0.000110
 136	1.3432e+01	5.3774	13.116654	0.000284	2.838669	0.961767	0.000114
 137	1.3532e+01	5.4079	13.225657	0.000274	2.737288	0.927418	0.000110
 138	1.3632e+01	5.4528	13.354845	0.000324	3.244194	1.099163	0.000130
 139	1.3731e+01	5.4961	13.504219	0.000375	3.751099	1.270907	0.000150
 140	1.3831e+01	5.5346	13.588999	0.000213	2.129002	0.721325	0.000085
 141	1.3930e+01	5.5827	13.706076	0.000294	2.940050	0.996116	0.000118
 142	1.4030e+01	5.6212	13.774707	0.000172	1.723478	0.583930	0.000069
 143	1.4129e+01	5.6549	13.916007	0.000355	3.548337	1.202209	0.000142
 144	1.4229e+01	5.6982	13.980601	0.000162	1.622097	0.549581	0.000065
 145	1.4328e+01	5.7432	14.150161	0.000426	4.258004	1.442651	0.000170
 146	1.4428e+01	5.7720	14.259163	0.000274	2.737288	0.927418	0.000110
 147	1.4527e+01	5.8169	14.343943	0.000213	2.129002	0.721325	0.000085
 148	1.4627e+01	5.8474	14.517540	0.000436	4.359385	1.477000	0.000174
 149	1.4726e+01	5.8907	14.658840	0.000355	3.548337	1.202209	0.000142
 150	1.4825e+01	5.9421	14.771880	0.000284	2.838669	0.961767	0.000114
 151	1.4925e+01	5.9742	14.921254	0.000375	3.751099	1.270907	0.000150
 152	1.5024e+01	6.0191	15.066591	0.000365	3.649718	1.236558	0.000146
 153	1.5124e+01	6.0560	15.167519	0.000253	2.534526	0.858721	0.000101
 154	1.5223e+01	6.0865	15.300744	0.000335	3.345575	1.133511	0.000134
 155	1.5323e+01	6.1266	15.381487	0.000203	2.027621	0.686977	0.000081
 156	1.5422e+01	6.1667	15.518750	0.000345	3.446956	1.167860	0.000138
 157	1.5522e+01	6.2116	15.656012	0.000345	3.446956	1.167860	0.000138
 158	1.5621e+01	6.2613	15.765015	0.000274	2.737288	0.927418	0.000110
 159	1.5721e+01	6.2902	15.882092	0.000294	2.940050	0.996116	0.000118
 160	1.5820e+01	6.3319	15.954760	0.000182	1.824859	0.618279	0.000073
 161	1.5920e+01	6.3736	16.075875	0.000304	3.041431	1.030465	0.000122
 162	1.6020e+01	6.4169	16.192951	0.000294	2.940050	0.996116	0.000118
 163	1.6119e+01	6.4474	16.297917	0.000264	2.635907	0.893070	0.000105
 164	1.6218e+01	6.4907	16.406920	0.000274	2.737288	0.927418	0.000110
 165	1.6318e+01	6.5372	16.580516	0.000436	4.359385	1.477000	0.000174
 166	1.6418e+01	6.5709	16.665296	0.000213	2.129002	0.721325	0.000085
 167	1.6517e+01	6.6143	16.842930	0.000446	4.460766	1.511348	0.000179
 168	1.6616e+01	6.6528	16.951933	0.000274	2.737288	0.927418	0.000110
 169	1.6716e+01	6.6897	17.097270	0.000365	3.649718	1.236558	0.000146
 170	1.6816e+01	6.7201	17.222421	0.000314	3.142813	1.064814	0.000126
 171	1.6915e+01	6.7731	17.311238	0.000223	2.230383	0.755674	0.000089
 172	1.7015e+01	6.8003	17.424278	0.000284	2.838669	0.961767	0.000114
 173	1.7114e+01	6.8404	17.569615	0.000365	3.649718	1.236558	0.000146
 174	1.7213e+01	6.8918	17.731100	0.000406	4.055242	1.373953	0.000162
 175	1.7313e+01	6.9319	17.807806	0.000193	1.926240	0.652628	0.000077
 176	1.7413e+01	6.9624	17.941031	0.000335	3.345575	1.133511	0.000134
 177	1.7512e+01	7.0105	17.997551	0.000142	1.419335	0.480884	0.000057
 178	1.7611e+01	7.0554	18.090405	0.000233	2.331764	0.790023	0.000093
 179	1.7711e+01	7.0923	18.207482	0.000294	2.940050	0.996116	0.000118
 180	1.7811e+01	7.1292	18.328596	0.000304	3.041431	1.030465	0.000122
 181	1.7910e+01	7.1693	18.465859	0.000345	3.446956	1.167860	0.000138
 182	1.8009e+01	7.2046	18.603121	0.000345	3.446956	1.167860	0.000138
 183	1.8109e+01	7.2447	18.683864	0.000203	2.027621	0.686977	0.000081
 184	1.8209e+01	7.2816	18.845350	0.000406	4.055242	1.373953	0.000162
 185	1.8308e+01	7.3313	18.994724	0.000375	3.751099	1.270907	0.000150
 186	1.8407e+01	7.3714	19.123912	0.000324	3.244194	1.099163	0.000130
 187	1.8507e+01	7.4019	19.232915	0.000274	2.737288	0.927418	0.000110
 188	1.8607e+01	7.4388	19.362103	0.000324	3.244194	1.099163	0.000130
 189	1.8706e+01	7.4821	19.467069	0.000264	2.635907	0.893070	0.000105
 190	1.8805e+01	7.5319	19.576071	0.000274	2.737288	0.927418	0.000110
 191	1.8905e+01	7.5704	19.701222	0.000314	3.142813	1.064814	0.000126
 192	1.9005e+01	7.6025	19.854634	0.000385	3.852480	1.305256	0.000154
 193	1.9104e+01	7.6458	19.943451	0.000223	2.230383	0.755674	0.000089
 194	1.9203e+01	7.6875	20.052453	0.000274	2.737288	0.927418	0.000110
 195	1.9303e+01	7.7244	20.133196	0.000203	2.027621	0.686977	0.000081
 196	1.9402e+01	7.7725	20.250273	0.000294	2.940050	0.996116	0.000118
 197	1.9502e+01	7.8014	20.326978	0.000193	1.926240	0.652628	0.000077
 198	1.9602e+01	7.8463	20.460204	0.000335	3.345575	1.133511	0.000134
 199	1.9701e+01	7.8880	20.617652	0.000395	3.953861	1.339604	0.000158
 200	1.9800e+01	7.9265	20.706469	0.000223	2.230383	0.755674	0.000089
 201	1.9900e+01	7.9602	20.843732	0.000345	3.446956	1.167860	0.000138
 202	2.0000e+01	8.0003	20.972920	0.000324	3.244194	1.099163	0.000130
 203	2.0099e+01	8.0452	21.158628	0.000466	4.663528	1.580046	0.000187
 204	2.0198e+01	8.0773	21.275705	0.000294	2.940050	0.996116	0.000118
 205	2.0298e+01	8.1286	21.384708	0.000274	2.737288	0.927418	0.000110
 206	2.0398e+01	8.1559	21.473525	0.000223	2.230383	0.755674	0.000089
 207	2.0497e+01	8.2040	21.590602	0.000294	2.940050	0.996116	0.000118
 208	2.0596e+01	8.2409	21.735939	0.000365	3.649718	1.236558	0.000146
 209	2.0696e+01	8.2843	21.820719	0.000213	2.129002	0.721325	0.000085
 210	2.0796e+01	8.3228	21.962018	0.000355	3.548337	1.202209	0.000142
 211	2.0895e+01	8.3613	22.066984	0.000264	2.635907	0.893070	0.000105
 212	2.0994e+01	8.4078	22.143690	0.000193	1.926240	0.652628	0.000077
 213	2.1094e+01	8.4399	22.228469	0.000213	2.129002	0.721325	0.000085
 214	2.1194e+01	8.4832	22.402066	0.000436	4.359385	1.477000	0.000174
 215	2.1293e+01	8.5217	22.494920	0.000233	2.331764	0.790023	0.000093
 216	2.1392e+01	8.5666	22.616034	0.000304	3.041431	1.030465	0.000122
 217	2.1492e+01	8.6035	22.741186	0.000314	3.142813	1.064814	0.000126
 218	2.1591e+01	8.6452	22.870374	0.000324	3.244194	1.099163	0.000130
 219	2.1691e+01	8.6853	23.011674	0.000355	3.548337	1.202209	0.000142
 220	2.1791e+01	8.7190	23.140862	0.000324	3.244194	1.099163	0.000130
 221	2.1890e+01	8.7543	23.282162	0.000355	3.548337	1.202209	0.000142
 222	2.1989e+01	8.8056	23.419424	0.000345	3.446956	1.167860	0.000138
 223	2.2089e+01	8.8361	23.508241	0.000223	2.230383	0.755674	0.000089
 224	2.2189e+01	8.8858	23.653578	0.000365	3.649718	1.236558	0.000146
 225	2.2288e+01	8.9260	23.766618	0.000284	2.838669	0.961767	0.000114
 226	2.2387e+01	8.9548	23.831212	0.000162	1.622097	0.549581	0.000065
 227	2.2487e+01	9.0014	23.996735	0.000416	4.156623	1.408302	0.000166
 228	2.2587e+01	9.0415	24.073440	0.000193	1.926240	0.652628	0.000077
 229	2.2686e+01	9.0767	24.162257	0.000223	2.230383	0.755674	0.000089
 230	2.2785e+01	9.1169	24.275297	0.000284	2.838669	0.961767	0.000114
 231	2.2885e+01	9.1650	24.404486	0.000324	3.244194	1.099163	0.000130
 232	2.2985e+01	9.1971	24.513488	0.000274	2.737288	0.927418	0.000110
 233	2.3084e+01	9.2436	24.626528	0.000284	2.838669	0.961767	0.000114
 234	2.3183e+01	9.2853	24.751679	0.000314	3.142813	1.064814	0.000126
 235	2.3283e+01	9.3206	24.848570	0.000243	2.433145	0.824372	0.000097
 236	2.3383e+01	9.3543	24.985833	0.000345	3.446956	1.167860	0.000138
 237	2.3482e+01	9.4040	25.147319	0.000406	4.055242	1.373953	0.000162
 238	2.3581e+01	9.4425	25.260358	0.000284	2.838669	0.961767	0.000114
 239	2.3681e+01	9.4794	25.377435	0.000294	2.940050	0.996116	0.000118
 240	2.3780e+01	9.5115	25.510661	0.000335	3.345575	1.133511	0.000134
 241	2.3880e+01	9.5516	25.599478	0.000223	2.230383	0.755674	0.000089
 242	2.3980e+01	9.6029	25.704443	0.000264	2.635907	0.893070	0.000105
 243	2.4079e+01	9.6382	25.817483	0.000284	2.838669	0.961767	0.000114
 244	2.4178e+01	9.6864	25.946671	0.000324	3.244194	1.099163	0.000130
 245	2.4278e+01	9.7104	26.059711	0.000284	2.838669	0.961767	0.000114
 246	2.4378e+01	9.7602	26.144491	0.000213	2.129002	0.721325	0.000085
 247	2.4477e+01	9.8003	26.261568	0.000294	2.940050	0.996116	0.000118
 248	2.4576e+01	9.8372	26.358459	0.000243	2.433145	0.824372	0.000097
 249	2.4676e+01	9.8708	26.455350	0.000243	2.433145	0.824372	0.000097
 250	2.4776e+01	9.9222	26.568390	0.000284	2.838669	0.961767	0.000114
 251	2.4875e+01	9.9623	26.685467	0.000294	2.940050	0.996116	0.000118
 252	2.4974e+01	9.9912	26.802544	0.000294	2.940050	0.996116	0.000118
 253	2.5074e+01	10.0281	26.927695	0.000314	3.142813	1.064814	0.000126
 254	2.5174e+01	10.0746	27.081107	0.000385	3.852480	1.305256	0.000154
 255	2.5273e+01	10.1163	27.250666	0.000426	4.258004	1.442651	0.000170
 256	2.5372e+01	10.1660	27.319298	0.000172	1.723478	0.583930	0.000069
 257	2.5472e+01	10.1901	27.496932	0.000446	4.460766	1.511348	0.000179
 258	2.5572e+01	10.2366	27.573637	0.000193	1.926240	0.652628	0.000077
 259	2.5671e+01	10.2639	27.686677	0.000284	2.838669	0.961767	0.000114
 260	2.5770e+01	10.3136	27.823940	0.000345	3.446956	1.167860	0.000138
 261	2.5870e+01	10.3521	27.928905	0.000264	2.635907	0.893070	0.000105
 262	2.5970e+01	10.3938	28.050019	0.000304	3.041431	1.030465	0.000122
 263	2.6069e+01	10.4307	28.114613	0.000162	1.622097	0.549581	0.000065
 264	2.6169e+01	10.4821	28.211505	0.000243	2.433145	0.824372	0.000097
 265	2.6268e+01	10.5174	28.316470	0.000264	2.635907	0.893070	0.000105
 266	2.6367e+01	10.5623	28.425473	0.000274	2.737288	0.927418	0.000110
 267	2.6467e+01	10.5992	28.542550	0.000294	2.940050	0.996116	0.000118
 268	2.6567e+01	10.6296	28.691924	0.000375	3.751099	1.270907	0.000150
 269	2.6666e+01	10.6681	28.756518	0.000162	1.622097	0.549581	0.000065
 270	2.6765e+01	10.7115	28.893780	0.000345	3.446956	1.167860	0.000138
 271	2.6865e+01	10.7644	29.047192	0.000385	3.852480	1.305256	0.000154
 272	2.6965e+01	10.7901	29.200603	0.000385	3.852480	1.305256	0.000154
 273	2.7064e+01	10.8382	29.289420	0.000223	2.230383	0.755674	0.000089
 274	2.7163e+01	10.8719	29.446868	0.000395	3.953861	1.339604	0.000158
 275	2.7263e+01	10.9056	29.527611	0.000203	2.027621	0.686977	0.000081
 276	2.7363e+01	10.9601	29.664873	0.000345	3.446956	1.167860	0.000138
 277	2.7462e+01	11.0066	29.753690	0.000223	2.230383	0.755674	0.000089
 278	2.7561e+01	11.0339	29.886916	0.000335	3.345575	1.133511	0.000134
 279	2.7661e+01	11.0740	30.012067	0.000314	3.142813	1.064814	0.000126
 280	2.7761e+01	11.1109	30.060513	0.000122	1.216573	0.412186	0.000049
 281	2.7860e+01	11.1494	30.193738	0.000335	3.345575	1.133511	0.000134
 282	2.7959e+01	11.1911	30.230072	0.000091	0.912429	0.309139	0.000037
 283	2.8059e+01	11.2312	30.399632	0.000426	4.258004	1.442651	0.000170
 284	2.8159e+01	11.2681	30.508635	0.000274	2.737288	0.927418	0.000110
 285	2.8258e+01	11.3130	30.633786	0.000314	3.142813	1.064814	0.000126
 286	2.8358e+01	11.3548	30.734714	0.000253	2.534526	0.858721	0.000101
 287	2.8457e+01	11.3933	30.859866	0.000314	3.142813	1.064814	0.000126
 288	2.8556e+01	11.4334	30.993091	0.000335	3.345575	1.133511	0.000134
 289	2.8656e+01	11.4751	31.114205	0.000304	3.041431	1.030465	0.000122
 290	2.8756e+01	11.5168	31.259542	0.000365	3.649718	1.236558	0.000146
 291	2.8855e+01	11.5553	31.360470	0.000253	2.534526	0.858721	0.000101
 292	2.8954e+01	11.6002	31.497733	0.000345	3.446956	1.167860	0.000138
 293	2.9054e+01	11.6403	31.606736	0.000274	2.737288	0.927418	0.000110
 294	2.9154e+01	11.6660	31.719775	0.000284	2.838669	0.961767	0.000114
 295	2.9253e+01	11.7061	31.796481	0.000193	1.926240	0.652628	0.000077
 296	2.9352e+01	11.7478	31.925669	0.000324	3.244194	1.099163	0.000130
 297	2.9452e+01	11.7879	32.030635	0.000264	2.635907	0.893070	0.000105
 298	2.9552e+01	11.8312	32.087155	0.000142	1.419335	0.480884	0.000057
 299	2.9651e+01	11.8809	32.163860	0.000193	1.926240	0.652628	0.000077
 300	2.9750e+01	11.9130	32.280937	0.000294	2.940050	0.996116	0.000118
 301	2.9850e+01	11.9403	32.422237	0.000355	3.548337	1.202209	0.000142
 302	2.9950e+01	11.9884	32.547388	0.000314	3.142813	1.064814	0.000126
 303	3.0049e+01	12.0269	32.664465	0.000294	2.940050	0.996116	0.000118
 304	3.0148e+01	12.0686	32.749245	0.000213	2.129002	0.721325	0.000085
 305	3.0248e+01	12.1055	32.898619	0.000375	3.751099	1.270907	0.000150
 306	3.0348e+01	12.1392	33.023770	0.000314	3.142813	1.064814	0.000126
 307	3.0447e+01	12.1841	33.173144	0.000375	3.751099	1.270907	0.000150
 308	3.0547e+01	12.2307	33.302333	0.000324	3.244194	1.099163	0.000130
 309	3.0646e+01	12.2692	33.383075	0.000203	2.027621	0.686977	0.000081
 310	3.0745e+01	12.3077	33.500152	0.000294	2.940050	0.996116	0.000118
 311	3.0845e+01	12.3478	33.613192	0.000284	2.838669	0.961767	0.000114
 312	3.0945e+01	12.3815	33.778715	0.000416	4.156623	1.408302	0.000166
 313	3.1044e+01	12.4296	33.835235	0.000142	1.419335	0.480884	0.000057
 314	3.1143e+01	12.4729	33.948274	0.000284	2.838669	0.961767	0.000114
 315	3.1243e+01	12.5114	34.045166	0.000243	2.433145	0.824372	0.000097
 316	3.1343e+01	12.5435	34.162243	0.000294	2.940050	0.996116	0.000118
 317	3.1442e+01	12.5852	34.255097	0.000233	2.331764	0.790023	0.000093
 318	3.1541e+01	12.6253	34.368137	0.000284	2.838669	0.961767	0.000114
 319	3.1641e+01	12.6654	34.485213	0.000294	2.940050	0.996116	0.000118
 320	3.1741e+01	12.7071	34.557882	0.000182	1.824859	0.618279	0.000073
 321	3.1840e+01	12.7504	34.723404	0.000416	4.156623	1.408302	0.000166
 322	3.1939e+01	12.7857	34.824333	0.000253	2.534526	0.858721	0.000101
 323	3.2039e+01	12.8274	34.949484	0.000314	3.142813	1.064814	0.000126
 324	3.2139e+01	12.8676	35.106932	0.000395	3.953861	1.339604	0.000158
 325	3.2238e+01	12.9044	35.240158	0.000335	3.345575	1.133511	0.000134
 326	3.2337e+01	12.9430	35.320901	0.000203	2.027621	0.686977	0.000081
 327	3.2437e+01	12.9815	35.466237	0.000365	3.649718	1.236558	0.000146
 328	3.2536e+01	13.0119	35.551017	0.000213	2.129002	0.721325	0.000085
 329	3.2636e+01	13.0649	35.664057	0.000284	2.838669	0.961767	0.000114
 330	3.2736e+01	13.1082	35.793245	0.000324	3.244194	1.099163	0.000130
 331	3.2835e+01	13.1403	35.934545	0.000355	3.548337	1.202209	0.000142
 332	3.2934e+01	13.1932	35.991065	0.000142	1.419335	0.480884	0.000057
 333	3.3034e+01	13.2189	36.059696	0.000172	1.723478	0.583930	0.000069
 334	3.3133e+01	13.2622	36.168699	0.000274	2.737288	0.927418	0.000110
 335	3.3233e+01	13.2991	36.289813	0.000304	3.041431	1.030465	0.000122
 336	3.3333e+01	13.3408	36.419001	0.000324	3.244194	1.099163	0.000130
 337	3.3432e+01	13.3777	36.560301	0.000355	3.548337	1.202209	0.000142
 338	3.3532e+01	13.4162	36.620858	0.000152	1.520716	0.515232	0.000061
 339	3.3631e+01	13.4627	36.725824	0.000264	2.635907	0.893070	0.000105
 340	3.3730e+01	13.5012	36.875198	0.000375	3.751099	1.270907	0.000150
 341	3.3830e+01	13.5445	36.988238	0.000284	2.838669	0.961767	0.000114
 342	3.3929e+01	13.5846	37.109352	0.000304	3.041431	1.030465	0.000122
 343	3.4029e+01	13.6264	37.303134	0.000487	4.866290	1.648744	0.000195
 344	3.4129e+01	13.6536	37.347543	0.000112	1.115192	0.377837	0.000045
 345	3.4228e+01	13.7018	37.496917	0.000375	3.751099	1.270907	0.000150
 346	3.4328e+01	13.7467	37.573622	0.000193	1.926240	0.652628	0.000077
 347	3.4427e+01	13.7707	37.694736	0.000304	3.041431	1.030465	0.000122
 348	3.4526e+01	13.8140	37.799702	0.000264	2.635907	0.893070	0.000105
 349	3.4626e+01	13.8558	37.932927	0.000335	3.345575	1.133511	0.000134
 350	3.4725e+01	13.9071	38.009633	0.000193	1.926240	0.652628	0.000077
 351	3.4825e+01	13.9344	38.118636	0.000274	2.737288	0.927418	0.000110
 352	3.4925e+01	13.9761	38.207453	0.000223	2.230383	0.755674	0.000089
 353	3.5024e+01	14.0178	38.344715	0.000345	3.446956	1.167860	0.000138
 354	3.5123e+01	14.0579	38.433532	0.000223	2.230383	0.755674	0.000089
 355	3.5223e+01	14.0980	38.558683	0.000314	3.142813	1.064814	0.000126
 356	3.5322e+01	14.1429	38.671723	0.000284	2.838669	0.961767	0.000114
 357	3.5422e+01	14.1766	38.784763	0.000284	2.838669	0.961767	0.000114
 358	3.5522e+01	14.2279	38.857431	0.000182	1.824859	0.618279	0.000073
 359	3.5621e+01	14.2568	38.998731	0.000355	3.548337	1.202209	0.000142
 360	3.5721e+01	14.3001	39.148105	0.000375	3.751099	1.270907	0.000150
 361	3.5820e+01	14.3354	39.289405	0.000355	3.548337	1.202209	0.000142
 362	3.5919e+01	14.3787	39.398408	0.000274	2.737288	0.927418	0.000110
 363	3.6019e+01	14.4156	39.527596	0.000324	3.244194	1.099163	0.000130
 364	3.6118e+01	14.4573	39.636599	0.000274	2.737288	0.927418	0.000110
 365	3.6218e+01	14.4942	39.777898	0.000355	3.548337	1.202209	0.000142
 366	3.6318e+01	14.5488	39.870753	0.000233	2.331764	0.790023	0.000093
 367	3.6417e+01	14.5761	39.947458	0.000193	1.926240	0.652628	0.000077
 368	3.6517e+01	14.6130	40.052424	0.000264	2.635907	0.893070	0.000105
 369	3.6616e+01	14.6547	40.145278	0.000233	2.331764	0.790023	0.000093
 370	3.6715e+01	14.6964	40.234095	0.000223	2.230383	0.755674	0.000089
 371	3.6815e+01	14.7397	40.347135	0.000284	2.838669	0.961767	0.000114
 372	3.6914e+01	14.7814	40.448063	0.000253	2.534526	0.858721	0.000101
 373	3.7014e+01	14.8103	40.561103	0.000284	2.838669	0.961767	0.000114
 374	3.7114e+01	14.8552	40.714514	0.000385	3.852480	1.305256	0.000154
 375	3.7213e+01	14.9033	40.775071	0.000152	1.520716	0.515232	0.000061
 376	3.7313e+01	14.9450	40.912334	0.000345	3.446956	1.167860	0.000138
 377	3.7412e+01	14.9707	40.960779	0.000122	1.216573	0.412186	0.000049
 378	3.7511e+01	15.0124	41.122265	0.000406	4.055242	1.373953	0.000162
 379	3.7611e+01	15.0525	41.299899	0.000446	4.460766	1.511348	0.000179
 380	3.7711e+01	15.1119	41.392753	0.000233	2.331764	0.790023	0.000093
 381	3.7810e+01	15.1279	41.497718	0.000264	2.635907	0.893070	0.000105
 382	3.7910e+01	15.1712	41.614795	0.000294	2.940050	0.996116	0.000118
 383	3.8009e+01	15.2145	41.727835	0.000284	2.838669	0.961767	0.000114
 384	3.8108e+01	15.2514	41.836838	0.000274	2.737288	0.927418	0.000110
 385	3.8208e+01	15.2996	41.897395	0.000152	1.520716	0.515232	0.000061
 386	3.8307e+01	15.3397	42.034657	0.000345	3.446956	1.167860	0.000138
 387	3.8407e+01	15.3653	42.143660	0.000274	2.737288	0.927418	0.000110
 388	3.8507e+01	15.4199	42.228440	0.000213	2.129002	0.721325	0.000085
 389	3.8606e+01	15.4584	42.341480	0.000284	2.838669	0.961767	0.000114
 390	3.8706e+01	15.4969	42.466631	0.000314	3.142813	1.064814	0.000126
 391	3.8805e+01	15.5418	42.575633	0.000274	2.737288	0.927418	0.000110
 392	3.8904e+01	15.5739	42.692710	0.000294	2.940050	0.996116	0.000118
 393	3.9004e+01	15.6156	42.789602	0.000243	2.433145	0.824372	0.000097
 394	3.9103e+01	15.6461	42.898604	0.000274	2.737288	0.927418	0.000110
 395	3.9203e+01	15.6862	43.027793	0.000324	3.244194	1.099163	0.000130
 396	3.9303e+01	15.7375	43.136795	0.000274	2.737288	0.927418	0.000110
 397	3.9402e+01	15.7792	43.265984	0.000324	3.244194	1.099163	0.000130
 398	3.9502e+01	15.8065	43.415358	0.000375	3.751099	1.270907	0.000150
 399	3.9601e+01	15.8562	43.536472	0.000304	3.041431	1.030465	0.000122
 400	3.9700e+01	15.8899	43.645474	0.000274	2.737288	0.927418	0.000110
 401	3.9800e+01	15.9284	43.730254	0.000213	2.129002	0.721325	0.000085
 402	3.9900e+01	15.9750	43.851368	0.000304	3.041431	1.030465	0.000122
 403	3.9999e+01	16.0183	43.940185	0.000223	2.230383	0.755674	0.000089
 404	4.0099e+01	16.0552	44.041114	0.000253	2.534526	0.858721	0.000101
 405	4.0198e+01	16.0905	44.129931	0.000223	2.230383	0.755674	0.000089
 406	4.0297e+01	16.1290	44.222785	0.000233	2.331764	0.790023	0.000093
 407	4.0397e+01	16.1771	44.303528	0.000203	2.027621	0.686977	0.000081
 408	4.0496e+01	16.2044	44.404456	0.000253	2.534526	0.858721	0.000101
 409	4.0596e+01	16.2525	44.525570	0.000304	3.041431	1.030465	0.000122
 410	4.0696e+01	16.2894	44.630536	0.000264	2.635907	0.893070	0.000105
 411	4.0795e+01	16.3295	44.715315	0.000213	2.129002	0.721325	0.000085
 412	4.0895e+01	16.3712	44.840467	0.000314	3.142813	1.064814	0.000126
 413	4.0994e+01	16.4049	44.965618	0.000314	3.142813	1.064814	0.000126
 414	4.1093e+01	16.4450	45.070583	0.000264	2.635907	0.893070	0.000105
 415	4.1193e+01	16.4883	45.203809	0.000335	3.345575	1.133511	0.000134
 416	4.1292e+01	16.5316	45.316849	0.000284	2.838669	0.961767	0.000114
 417	4.1392e+01	16.5717	45.417777	0.000253	2.534526	0.858721	0.000101
 418	4.1492e+01	16.6070	45.563114	0.000365	3.649718	1.236558	0.000146
 419	4.1591e+01	16.6519	45.660005	0.000243	2.433145	0.824372	0.000097
 420	4.1691e+01	16.6872	45.825528	0.000416	4.156623	1.408302	0.000166
 421	4.1790e+01	16.7354	45.886085	0.000152	1.520716	0.515232	0.000061
 422	4.1889e+01	16.7674	45.950679	0.000162	1.622097	0.549581	0.000065
 423	4.1989e+01	16.8092	46.079867	0.000324	3.244194	1.099163	0.000130
 424	4.2089e+01	16.8477	46.160610	0.000203	2.027621	0.686977	0.000081
 425	4.2188e+01	16.8829	46.269613	0.000274	2.737288	0.927418	0.000110
 426	4.2288e+01	16.9263	46.378615	0.000274	2.737288	0.927418	0.000110
 427	4.2387e+01	16.9728	46.507804	0.000324	3.244194	1.099163	0.000130
 428	4.2486e+01	17.0017	46.612769	0.000264	2.635907	0.893070	0.000105
 429	4.2586e+01	17.0402	46.701586	0.000223	2.230383	0.755674	0.000089
 430	4.2685e+01	17.0899	46.818663	0.000294	2.940050	0.996116	0.000118
 431	4.2785e+01	17.1188	46.931703	0.000284	2.838669	0.961767	0.000114
 432	4.2885e+01	17.1717	47.028594	0.000243	2.433145	0.824372	0.000097
 433	4.2984e+01	17.2038	47.169894	0.000355	3.548337	1.202209	0.000142
 434	4.3084e+01	17.2503	47.274859	0.000264	2.635907	0.893070	0.000105
 435	4.3183e+01	17.2840	47.408085	0.000335	3.345575	1.133511	0.000134
 436	4.3282e+01	17.3241	47.533236	0.000314	3.142813	1.064814	0.000126
 437	4.3382e+01	17.3722	47.626090	0.000233	2.331764	0.790023	0.000093
 438	4.3481e+01	17.4107	47.706833	0.000203	2.027621	0.686977	0.000081
 439	4.3581e+01	17.4460	47.807761	0.000253	2.534526	0.858721	0.000101
 440	4.3681e+01	17.4797	47.904653	0.000243	2.433145	0.824372	0.000097
 441	4.3780e+01	17.5246	48.017692	0.000284	2.838669	0.961767	0.000114
 442	4.3880e+01	17.5696	48.082287	0.000162	1.622097	0.549581	0.000065
 443	4.3979e+01	17.6016	48.227624	0.000365	3.649718	1.236558	0.000146
 444	4.4078e+01	17.6417	48.316441	0.000223	2.230383	0.755674	0.000089
 445	4.4178e+01	17.6835	48.409295	0.000233	2.331764	0.790023	0.000093
 446	4.4278e+01	17.7252	48.522334	0.000284	2.838669	0.961767	0.000114
 447	4.4377e+01	17.7573	48.663634	0.000355	3.548337	1.202209	0.000142
 448	4.4477e+01	17.7925	48.740340	0.000193	1.926240	0.652628	0.000077
 449	4.4576e+01	17.8423	48.881640	0.000355	3.548337	1.202209	0.000142
 450	4.4675e+01	17.8840	48.990642	0.000274	2.737288	0.927418	0.000110
 451	4.4775e+01	17.9225	49.107719	0.000294	2.940050	0.996116	0.000118
 452	4.4874e+01	17.9562	49.240945	0.000335	3.345575	1.133511	0.000134
 453	4.4974e+01	18.0075	49.297464	0.000142	1.419335	0.480884	0.000057
 454	4.5074e+01	18.0540	49.438764	0.000355	3.548337	1.202209	0.000142
 455	4.5173e+01	18.0861	49.596213	0.000395	3.953861	1.339604	0.000158
 456	4.5273e+01	18.1214	49.648695	0.000132	1.317954	0.446535	0.000053
 457	4.5372e+01	18.1663	49.725401	0.000193	1.926240	0.652628	0.000077
 458	4.5471e+01	18.2064	49.810181	0.000213	2.129002	0.721325	0.000085
 459	4.5571e+01	18.2401	49.915146	0.000264	2.635907	0.893070	0.000105
 460	4.5670e+01	18.2754	50.040297	0.000314	3.142813	1.064814	0.000126
 461	4.5770e+01	18.3235	50.153337	0.000284	2.838669	0.961767	0.000114
 462	4.5870e+01	18.3669	50.278488	0.000314	3.142813	1.064814	0.000126
 463	4.5969e+01	18.3957	50.395565	0.000294	2.940050	0.996116	0.000118
 464	4.6069e+01	18.4487	50.488420	0.000233	2.331764	0.790023	0.000093
 465	4.6168e+01	18.4840	50.573199	0.000213	2.129002	0.721325	0.000085
 466	4.6267e+01	18.5193	50.706425	0.000335	3.345575	1.133511	0.000134
 467	4.6367e+01	18.5642	50.795242	0.000223	2.230383	0.755674	0.000089
 468	4.6467e+01	18.6027	50.892133	0.000243	2.433145	0.824372	0.000097
 469	4.6566e+01	18.6396	51.049581	0.000395	3.953861	1.339604	0.000158
 470	4.6666e+01	18.6765	51.158584	0.000274	2.737288	0.927418	0.000110
 471	4.6765e+01	18.7246	51.247401	0.000223	2.230383	0.755674	0.000089
 472	4.6864e+01	18.7471	51.344292	0.000243	2.433145	0.824372	0.000097
 473	4.6964e+01	18.7984	51.461369	0.000294	2.940050	0.996116	0.000118
 474	4.7063e+01	18.8417	51.530001	0.000172	1.723478	0.583930	0.000069
 475	4.7163e+01	18.8866	51.639003	0.000274	2.737288	0.927418	0.000110
 476	4.7263e+01	18.9187	51.739932	0.000253	2.534526	0.858721	0.000101
 477	4.7362e+01	18.9588	51.824711	0.000213	2.129002	0.721325	0.000085
 478	4.7462e+01	19.0070	51.949863	0.000314	3.142813	1.064814	0.000126
 479	4.7561e+01	19.0374	52.066940	0.000294	2.940050	0.996116	0.000118
 480	4.7660e+01	19.0872	52.167868	0.000253	2.534526	0.858721	0.000101
 481	4.7760e+01	19.1241	52.252648	0.000213	2.129002	0.721325	0.000085
 482	4.7859e+01	19.1642	52.357613	0.000264	2.635907	0.893070	0.000105
 483	4.7959e+01	19.2011	52.486802	0.000324	3.244194	1.099163	0.000130
 484	4.8059e+01	19.2396	52.599842	0.000284	2.838669	0.961767	0.000114
 485	4.8158e+01	19.2861	52.720956	0.000304	3.041431	1.030465	0.000122
 486	4.8258e+01	19.3102	52.801698	0.000203	2.027621	0.686977	0.000081
 487	4.8357e+01	19.3551	52.975295	0.000436	4.359385	1.477000	0.000174
 488	4.8456e+01	19.4000	53.064112	0.000223	2.230383	0.755674	0.000089
 489	4.8556e+01	19.4433	53.165041	0.000253	2.534526	0.858721	0.000101
 490	4.8656e+01	19.4786	53.282117	0.000294	2.940050	0.996116	0.000118
 491	4.8755e+01	19.5123	53.342675	0.000152	1.520716	0.515232	0.000061
 492	4.8855e+01	19.5572	53.451677	0.000274	2.737288	0.927418	0.000110
 493	4.8954e+01	19.6069	53.552606	0.000253	2.534526	0.858721	0.000101
 494	4.9053e+01	19.6390	53.673720	0.000304	3.041431	1.030465	0.000122
 495	4.9153e+01	19.6743	53.766574	0.000233	2.331764	0.790023	0.000093
 496	4.9252e+01	19.7224	53.875576	0.000274	2.737288	0.927418	0.000110
 497	4.9352e+01	19.7561	54.020913	0.000365	3.649718	1.236558	0.000146
 498	4.9452e+01	19.7914	54.061285	0.000101	1.013810	0.343488	0.000041
 499	4.9551e+01	19.8379	54.154139	0.000233	2.331764	0.790023	0.000093
 500	4.9651e+01	19.8845	54.291401	0.000345	3.446956	1.167860	0.000138
 501	4.9750e+01	19.9085	54.396367	0.000264	2.635907	0.893070	0.000105
 502	4.9849e+01	19.9502	54.529592	0.000335	3.345575	1.133511	0.000134
 503	4.9949e+01	19.9887	54.646669	0.000294	2.940050	0.996116	0.000118
 504	5.0048e+01	19.9567	54.521518	0.000314	3.142813	1.064814	-0.000126
 505	5.0148e+01	19.9230	54.517481	0.000010	0.101381	0.034349	-0.000004
 506	5.0248e+01	19.8797	54.432701	0.000213	2.129002	0.721325	-0.000085
 507	5.0347e+01	19.8395	54.323698	0.000274	2.737288	0.927418	-0.000110
 508	5.0447e+01	19.7978	54.218733	0.000264	2.635907	0.893070	-0.000105
 509	5.0546e+01	19.7561	54.158176	0.000152	1.520716	0.515232	-0.000061
 510	5.0645e+01	19.7128	54.024950	0.000335	3.345575	1.133511	-0.000134
 511	5.0745e+01	19.6839	53.976505	0.000122	1.216573	0.412186	-0.000049
 512	5.0844e+01	19.6374	53.875576	0.000253	2.534526	0.858721	-0.000101
 513	5.0944e+01	19.5957	53.794834	0.000203	2.027621	0.686977	-0.000081
 514	5.1044e+01	19.5524	53.701980	0.000233	2.331764	0.790023	-0.000093
 515	5.1143e+01	19.5155	53.669683	0.000081	0.811048	0.274791	-0.000032
 516	5.1242e+01	19.4786	53.500123	0.000426	4.258004	1.442651	-0.000170
 517	5.1342e+01	19.4385	53.455714	0.000112	1.115192	0.377837	-0.000045
 518	5.1441e+01	19.3952	53.362860	0.000233	2.331764	0.790023	-0.000093
 519	5.1541e+01	19.3551	53.274043	0.000223	2.230383	0.755674	-0.000089
 520	5.1641e+01	19.3214	53.165041	0.000274	2.737288	0.927418	-0.000110
 521	5.1740e+01	19.2797	53.108521	0.000142	1.419335	0.480884	-0.000057
 522	5.1840e+01	19.2364	53.007592	0.000253	2.534526	0.858721	-0.000101
 523	5.1939e+01	19.1962	52.971258	0.000091	0.912429	0.309139	-0.000037
 524	5.2038e+01	19.1626	52.870330	0.000253	2.534526	0.858721	-0.000101
 525	5.2138e+01	19.1241	52.753253	0.000294	2.940050	0.996116	-0.000118
 526	5.2237e+01	19.0791	52.636176	0.000294	2.940050	0.996116	-0.000118
 527	5.2337e+01	19.0438	52.535247	0.000253	2.534526	0.858721	-0.000101
 528	5.2437e+01	19.0086	52.454505	0.000203	2.027621	0.686977	-0.000081
 529	5.2536e+01	18.9604	52.369725	0.000213	2.129002	0.721325	-0.000085
 530	5.2636e+01	18.9139	52.280908	0.000223	2.230383	0.755674	-0.000089
 531	5.2735e+01	18.8914	52.171905	0.000274	2.737288	0.927418	-0.000110
 532	5.2834e+01	18.8449	52.079051	0.000233	2.331764	0.790023	-0.000093
 533	5.2934e+01	18.8048	51.978123	0.000253	2.534526	0.858721	-0.000101
 534	5.3033e+01	18.7599	51.929677	0.000122	1.216573	0.412186	-0.000049
 535	5.3133e+01	18.7166	51.804526	0.000314	3.142813	1.064814	-0.000126
 536	5.3233e+01	18.6861	51.743969	0.000152	1.520716	0.515232	-0.000061
 537	5.3332e+01	18.6412	51.622855	0.000304	3.041431	1.030465	-0.000122
 538	5.3431e+01	18.5947	51.546149	0.000193	1.926240	0.652628	-0.000077
 539	5.3531e+01	18.5578	51.493666	0.000132	1.317954	0.446535	-0.000053
 540	5.3630e+01	18.5128	51.392738	0.000253	2.534526	0.858721	-0.000101
 541	5.3730e+01	18.4808	51.316032	0.000193	1.926240	0.652628	-0.000077
 542	5.3830e+01	18.4599	51.219141	0.000243	2.433145	0.824372	-0.000097
 543	5.3929e+01	18.4006	51.081878	0.000345	3.446956	1.167860	-0.000138
 544	5.4029e+01	18.3637	50.976913	0.000264	2.635907	0.893070	-0.000105
 545	5.4128e+01	18.3139	50.863873	0.000284	2.838669	0.961767	-0.000114
 546	5.4227e+01	18.2754	50.783130	0.000203	2.027621	0.686977	-0.000081
 547	5.4327e+01	18.2433	50.702388	0.000203	2.027621	0.686977	-0.000081
 548	5.4426e+01	18.2032	50.613571	0.000223	2.230383	0.755674	-0.000089
 549	5.4526e+01	18.1663	50.500531	0.000284	2.838669	0.961767	-0.000114
 550	5.4626e+01	18.1246	50.435937	0.000162	1.622097	0.549581	-0.000065
 551	5.4725e+01	18.0797	50.282526	0.000385	3.852480	1.305256	-0.000154
 552	5.4825e+01	18.0332	50.250229	0.000081	0.811048	0.274791	-0.000032
 553	5.4924e+01	17.9995	50.133152	0.000294	2.940050	0.996116	-0.000118
 554	5.5023e+01	17.9578	50.072595	0.000152	1.520716	0.515232	-0.000061
 555	5.5123e+01	17.9289	49.971666	0.000253	2.534526	0.858721	-0.000101
 556	5.5222e+01	17.8792	49.898998	0.000182	1.824859	0.618279	-0.000073
 557	5.5322e+01	17.8423	49.777884	0.000304	3.041431	1.030465	-0.000122
 558	5.5422e+01	17.8054	49.733475	0.000112	1.115192	0.377837	-0.000045
 559	5.5521e+01	17.7621	49.624472	0.000274	2.737288	0.927418	-0.000110
 560	5.5620e+01	17.7268	49.503358	0.000304	3.041431	1.030465	-0.000122
 561	5.5720e+01	17.6963	49.422616	0.000203	2.027621	0.686977	-0.000081
 562	5.5819e+01	17.6417	49.293427	0.000324	3.244194	1.099163	-0.000130
 563	5.5919e+01	17.6081	49.232870	0.000152	1.520716	0.515232	-0.000061
 564	5.6019e+01	17.5728	49.103682	0.000324	3.244194	1.099163	-0.000130
 565	5.6118e+01	17.5246	48.970457	0.000335	3.345575	1.133511	-0.000134
 566	5.6218e+01	17.4910	48.897788	0.000182	1.824859	0.618279	-0.000073
 567	5.6317e+01	17.4460	48.788785	0.000274	2.737288	0.927418	-0.000110
 568	5.6416e+01	17.4011	48.708043	0.000203	2.027621	0.686977	-0.000081
 569	5.6516e+01	17.3674	48.623263	0.000213	2.129002	0.721325	-0.000085
 570	5.6615e+01	17.3289	48.518297	0.000264	2.635907	0.893070	-0.000105
 571	5.6715e+01	17.2840	48.421406	0.000243	2.433145	0.824372	-0.000097
 572	5.6815e+01	17.2455	48.312403	0.000274	2.737288	0.927418	-0.000110
 573	5.6914e+01	17.2102	48.276069	0.000091	0.912429	0.309139	-0.000037
 574	5.7014e+01	17.1653	48.207438	0.000172	1.723478	0.583930	-0.000069
 575	5.7113e+01	17.1204	48.106509	0.000253	2.534526	0.858721	-0.000101
 576	5.7212e+01	17.0899	47.969247	0.000345	3.446956	1.167860	-0.000138
 577	5.7312e+01	17.0498	47.872356	0.000243	2.433145	0.824372	-0.000097
 578	5.7411e+01	17.0145	47.795650	0.000193	1.926240	0.652628	-0.000077
 579	5.7511e+01	16.9728	47.658387	0.000345	3.446956	1.167860	-0.000138
 580	5.7611e+01	16.9231	47.553422	0.000264	2.635907	0.893070	-0.000105
 581	5.7710e+01	16.8765	47.391936	0.000406	4.055242	1.373953	-0.000162
 582	5.7809e+01	16.8477	47.319268	0.000182	1.824859	0.618279	-0.000073
 583	5.7909e+01	16.8156	47.230451	0.000223	2.230383	0.755674	-0.000089
 584	5.8008e+01	16.7739	47.133560	0.000243	2.433145	0.824372	-0.000097
 585	5.8108e+01	16.7273	47.000334	0.000335	3.345575	1.133511	-0.000134
 586	5.8208e+01	16.6904	46.903443	0.000243	2.433145	0.824372	-0.000097
 587	5.8307e+01	16.6535	46.826737	0.000193	1.926240	0.652628	-0.000077
 588	5.8407e+01	16.6054	46.762143	0.000162	1.622097	0.549581	-0.000065
 589	5.8506e+01	16.5733	46.632955	0.000324	3.244194	1.099163	-0.000130
 590	5.8605e+01	16.5300	46.532027	0.000253	2.534526	0.858721	-0.000101
 591	5.8705e+01	16.4835	46.475507	0.000142	1.419335	0.480884	-0.000057
 592	5.8804e+01	16.4594	46.406875	0.000172	1.723478	0.583930	-0.000069
 593	5.8904e+01	16.4097	46.281724	0.000314	3.142813	1.064814	-0.000126
 594	5.9004e+01	16.3712	46.213093	0.000172	1.723478	0.583930	-0.000069
 595	5.9103e+01	16.3279	46.116202	0.000243	2.433145	0.824372	-0.000097
 596	5.9203e+01	16.2942	46.003162	0.000284	2.838669	0.961767	-0.000114
 597	5.9302e+01	16.2525	45.865899	0.000345	3.446956	1.167860	-0.000138
 598	5.9401e+01	16.2204	45.728637	0.000345	3.446956	1.167860	-0.000138
 599	5.9501e+01	16.1771	45.623671	0.000264	2.635907	0.893070	-0.000105
 600	5.9600e+01	16.1274	45.555040	0.000172	1.723478	0.583930	-0.000069
 601	5.9700e+01	16.0872	45.450074	0.000264	2.635907	0.893070	-0.000105
 602	5.9800e+01	16.0568	45.337034	0.000284	2.838669	0.961767	-0.000114
 603	5.9899e+01	16.0086	45.232069	0.000264	2.635907	0.893070	-0.000105
 604	5.9998e+01	15.9733	45.143252	0.000223	2.230383	0.755674	-0.000089
 605	6.0098e+01	15.9381	45.038286	0.000264	2.635907	0.893070	-0.000105
 606	6.0197e+01	15.8979	44.969655	0.000172	1.723478	0.583930	-0.000069
 607	6.0297e+01	15.8578	44.880838	0.000223	2.230383	0.755674	-0.000089
 608	6.0397e+01	15.8129	44.759724	0.000304	3.041431	1.030465	-0.000122
 609	6.0496e+01	15.7696	44.703204	0.000142	1.419335	0.480884	-0.000057
 610	6.0596e+01	15.7343	44.610350	0.000233	2.331764	0.790023	-0.000093
 611	6.0695e+01	15.6958	44.473087	0.000345	3.446956	1.167860	-0.000138
 612	6.0794e+01	15.6605	44.440790	0.000081	0.811048	0.274791	-0.000032
 613	6.0894e+01	15.6092	44.327750	0.000284	2.838669	0.961767	-0.000114
 614	6.0993e+01	15.5723	44.214711	0.000284	2.838669	0.961767	-0.000114
 615	6.1093e+01	15.5274	44.093597	0.000304	3.041431	1.030465	-0.000122
 616	6.1193e+01	15.5017	43.956334	0.000345	3.446956	1.167860	-0.000138
 617	6.1292e+01	15.4456	43.899814	0.000142	1.419335	0.480884	-0.000057
 618	6.1392e+01	15.4231	43.726217	0.000436	4.359385	1.477000	-0.000174
 619	6.1491e+01	15.3766	43.641437	0.000213	2.129002	0.721325	-0.000085
 620	6.1590e+01	15.3300	43.532435	0.000274	2.737288	0.927418	-0.000110
 621	6.1690e+01	15.2964	43.431506	0.000253	2.534526	0.858721	-0.000101
 622	6.1789e+01	15.2498	43.338652	0.000233	2.331764	0.790023	-0.000093
 623	6.1889e+01	15.2161	43.253872	0.000213	2.129002	0.721325	-0.000085
 624	6.1989e+01	15.1760	43.136795	0.000294	2.940050	0.996116	-0.000118
 625	6.2088e+01	15.1311	43.027793	0.000274	2.737288	0.927418	-0.000110
 626	6.2188e+01	15.0990	42.959161	0.000172	1.723478	0.583930	-0.000069
 627	6.2287e+01	15.0477	42.914753	0.000112	1.115192	0.377837	-0.000045
 628	6.2386e+01	15.0108	42.797676	0.000294	2.940050	0.996116	-0.000118
 629	6.2486e+01	14.9643	42.712896	0.000213	2.129002	0.721325	-0.000085
 630	6.2586e+01	14.9354	42.579671	0.000335	3.345575	1.133511	-0.000134
 631	6.2685e+01	14.8969	42.519114	0.000152	1.520716	0.515232	-0.000061
 632	6.2785e+01	14.8600	42.385888	0.000335	3.345575	1.133511	-0.000134
 633	6.2884e+01	14.8183	42.293034	0.000233	2.331764	0.790023	-0.000093
 634	6.2983e+01	14.7734	42.159809	0.000335	3.345575	1.133511	-0.000134
 635	6.3083e+01	14.7381	42.038694	0.000304	3.041431	1.030465	-0.000122
 636	6.3182e+01	14.6964	41.929692	0.000274	2.737288	0.927418	-0.000110
 637	6.3282e+01	14.6515	41.792429	0.000345	3.446956	1.167860	-0.000138
 638	6.3382e+01	14.6146	41.707649	0.000213	2.129002	0.721325	-0.000085
 639	6.3481e+01	14.5777	41.598647	0.000274	2.737288	0.927418	-0.000110
 640	6.3581e+01	14.5392	41.481570	0.000294	2.940050	0.996116	-0.000118
 641	6.3680e+01	14.4975	41.368530	0.000284	2.838669	0.961767	-0.000114
 642	6.3779e+01	14.4590	41.316047	0.000132	1.317954	0.446535	-0.000053
 643	6.3879e+01	14.4188	41.190896	0.000314	3.142813	1.064814	-0.000126
 644	6.3978e+01	14.3739	41.098042	0.000233	2.331764	0.790023	-0.000093
 645	6.4078e+01	14.3306	41.037485	0.000152	1.520716	0.515232	-0.000061
 646	6.4177e+01	14.2905	40.936556	0.000253	2.534526	0.858721	-0.000101
 647	6.4277e+01	14.2536	40.863888	0.000182	1.824859	0.618279	-0.000073
 648	6.4376e+01	14.2199	40.718551	0.000365	3.649718	1.236558	-0.000146
 649	6.4476e+01	14.1718	40.682217	0.000091	0.912429	0.309139	-0.000037
 650	6.4576e+01	14.1397	40.508620	0.000436	4.359385	1.477000	-0.000174
 651	6.4675e+01	14.0964	40.407692	0.000253	2.534526	0.858721	-0.000101
 652	6.4775e+01	14.0611	40.330986	0.000193	1.926240	0.652628	-0.000077
 653	6.4874e+01	14.0194	40.197761	0.000335	3.345575	1.133511	-0.000134
 654	6.4974e+01	13.9793	40.068572	0.000324	3.244194	1.099163	-0.000130
 655	6.5073e+01	13.9424	39.963607	0.000264	2.635907	0.893070	-0.000105
 656	6.5172e+01	13.8943	39.858641	0.000264	2.635907	0.893070	-0.000105
 657	6.5272e+01	13.8574	39.781936	0.000193	1.926240	0.652628	-0.000077
 658	6.5371e+01	13.8237	39.664859	0.000294	2.940050	0.996116	-0.000118
 659	6.5471e+01	13.7868	39.580079	0.000213	2.129002	0.721325	-0.000085
 660	6.5570e+01	13.7370	39.499336	0.000203	2.027621	0.686977	-0.000081
 661	6.5670e+01	13.6985	39.345925	0.000385	3.852480	1.305256	-0.000154
 662	6.5769e+01	13.6616	39.301516	0.000112	1.115192	0.377837	-0.000045
 663	6.5869e+01	13.6264	39.228848	0.000182	1.824859	0.618279	-0.000073
 664	6.5969e+01	13.5798	39.127920	0.000253	2.534526	0.858721	-0.000101
 665	6.6068e+01	13.5349	39.002768	0.000314	3.142813	1.064814	-0.000126
 666	6.6168e+01	13.5157	38.905877	0.000243	2.433145	0.824372	-0.000097
 667	6.6267e+01	13.4595	38.808986	0.000243	2.433145	0.824372	-0.000097
 668	6.6367e+01	13.4178	38.712095	0.000243	2.433145	0.824372	-0.000097
 669	6.6466e+01	13.3777	38.595018	0.000294	2.940050	0.996116	-0.000118
 670	6.6566e+01	13.3472	38.473904	0.000304	3.041431	1.030465	-0.000122
 671	6.6665e+01	13.3039	38.304344	0.000426	4.258004	1.442651	-0.000170
 672	6.6764e+01	13.2654	38.215527	0.000223	2.230383	0.755674	-0.000089
 673	6.6864e+01	13.2189	38.114599	0.000253	2.534526	0.858721	-0.000101
 674	6.6963e+01	13.1884	37.997522	0.000294	2.940050	0.996116	-0.000118
 675	6.7063e+01	13.1467	37.924853	0.000182	1.824859	0.618279	-0.000073
 676	6.7162e+01	13.1002	37.819888	0.000264	2.635907	0.893070	-0.000105
 677	6.7262e+01	13.0649	37.678588	0.000355	3.548337	1.202209	-0.000142
 678	6.7362e+01	13.0183	37.569585	0.000274	2.737288	0.927418	-0.000110
 679	6.7461e+01	12.9766	37.504991	0.000162	1.622097	0.549581	-0.000065
 680	6.7561e+01	12.9510	37.404063	0.000253	2.534526	0.858721	-0.000101
 681	6.7660e+01	12.9061	37.367728	0.000091	0.912429	0.309139	-0.000037
 682	6.7760e+01	12.8659	37.270837	0.000243	2.433145	0.824372	-0.000097
 683	6.7859e+01	12.8210	37.133575	0.000345	3.446956	1.167860	-0.000138
 684	6.7959e+01	12.7873	37.081092	0.000132	1.317954	0.446535	-0.000053
 685	6.8058e+01	12.7440	36.964015	0.000294	2.940050	0.996116	-0.000118
 686	6.8157e+01	12.7039	36.855012	0.000274	2.737288	0.927418	-0.000110
 687	6.8257e+01	12.6702	36.717750	0.000345	3.446956	1.167860	-0.000138
 688	6.8356e+01	12.6301	36.620858	0.000243	2.433145	0.824372	-0.000097
 689	6.8456e+01	12.5900	36.423039	0.000497	4.967671	1.683093	-0.000199
 690	6.8555e+01	12.5451	36.326147	0.000243	2.433145	0.824372	-0.000097
 691	6.8655e+01	12.5082	36.233293	0.000233	2.331764	0.790023	-0.000093
 692	6.8754e+01	12.4713	36.144476	0.000223	2.230383	0.755674	-0.000089
 693	6.8854e+01	12.4248	36.023362	0.000304	3.041431	1.030465	-0.000122
 694	6.8954e+01	12.3863	35.906285	0.000294	2.940050	0.996116	-0.000118
 695	6.9053e+01	12.3494	35.833617	0.000182	1.824859	0.618279	-0.000073
 696	6.9153e+01	12.3157	35.732688	0.000253	2.534526	0.858721	-0.000101
 697	6.9252e+01	12.2612	35.643871	0.000223	2.230383	0.755674	-0.000089
 698	6.9352e+01	12.2243	35.538906	0.000264	2.635907	0.893070	-0.000105
 699	6.9451e+01	12.1793	35.450089	0.000223	2.230383	0.755674	-0.000089
 700	6.9550e+01	12.1424	35.369346	0.000203	2.027621	0.686977	-0.000081
 701	6.9650e+01	12.0975	35.272455	0.000243	2.433145	0.824372	-0.000097
 702	6.9749e+01	12.0606	35.139229	0.000335	3.345575	1.133511	-0.000134
 703	6.9849e+01	12.0269	35.062524	0.000193	1.926240	0.652628	-0.000077
 704	6.9948e+01	11.9884	34.921224	0.000355	3.548337	1.202209	-0.000142
 705	7.0048e+01	11.9435	34.808184	0.000284	2.838669	0.961767	-0.000114
 706	7.0147e+01	11.9098	34.691107	0.000294	2.940050	0.996116	-0.000118
 707	7.0247e+01	11.8697	34.582105	0.000274	2.737288	0.927418	-0.000110
 708	7.0347e+01	11.8344	34.477139	0.000264	2.635907	0.893070	-0.000105
 709	7.0446e+01	11.8007	34.311617	0.000416	4.156623	1.408302	-0.000166
 710	7.0546e+01	11.7526	34.222800	0.000223	2.230383	0.755674	-0.000089
 711	7.0645e+01	11.7029	34.117834	0.000264	2.635907	0.893070	-0.000105
 712	7.0745e+01	11.6740	34.024980	0.000233	2.331764	0.790023	-0.000093
 713	7.0844e+01	11.6211	33.907903	0.000294	2.940050	0.996116	-0.000118
 714	7.0944e+01	11.5922	33.811012	0.000243	2.433145	0.824372	-0.000097
 715	7.1043e+01	11.5441	33.730269	0.000203	2.027621	0.686977	-0.000081
 716	7.1142e+01	11.5056	33.645489	0.000213	2.129002	0.721325	-0.000085
 717	7.1242e+01	11.4719	33.516301	0.000324	3.244194	1.099163	-0.000130
 718	7.1341e+01	11.4253	33.403261	0.000284	2.838669	0.961767	-0.000114
 719	7.1441e+01	11.3836	33.302333	0.000253	2.534526	0.858721	-0.000101
 720	7.1540e+01	11.3516	33.225627	0.000193	1.926240	0.652628	-0.000077
 721	7.1640e+01	11.2986	33.108550	0.000294	2.940050	0.996116	-0.000118
 722	7.1740e+01	11.2713	32.995510	0.000284	2.838669	0.961767	-0.000114
 723	7.1839e+01	11.2280	32.898619	0.000243	2.433145	0.824372	-0.000097
 724	7.1939e+01	11.2104	32.761357	0.000345	3.446956	1.167860	-0.000138
 725	7.2038e+01	11.1462	32.648317	0.000284	2.838669	0.961767	-0.000114
 726	7.2138e+01	11.1077	32.551425	0.000243	2.433145	0.824372	-0.000097
 727	7.2237e+01	11.0724	32.402051	0.000375	3.751099	1.270907	-0.000150
 728	7.2337e+01	11.0387	32.329383	0.000182	1.824859	0.618279	-0.000073
 729	7.2436e+01	10.9954	32.184046	0.000365	3.649718	1.236558	-0.000146
 730	7.2535e+01	10.9569	32.103303	0.000203	2.027621	0.686977	-0.000081
 731	7.2635e+01	10.9120	31.966041	0.000345	3.446956	1.167860	-0.000138
 732	7.2734e+01	10.8751	31.853001	0.000284	2.838669	0.961767	-0.000114
 733	7.2834e+01	10.8398	31.772258	0.000203	2.027621	0.686977	-0.000081
 734	7.2933e+01	10.7981	31.711701	0.000152	1.520716	0.515232	-0.000061
 735	7.3033e+01	10.7516	31.606736	0.000264	2.635907	0.893070	-0.000105
 736	7.3132e+01	10.7131	31.517919	0.000223	2.230383	0.755674	-0.000089
 737	7.3232e+01	10.6681	31.412953	0.000264	2.635907	0.893070	-0.000105
 738	7.3332e+01	10.6425	31.279728	0.000335	3.345575	1.133511	-0.000134
 739	7.3431e+01	10.5895	31.190911	0.000223	2.230383	0.755674	-0.000089
 740	7.3531e+01	10.5478	31.057685	0.000335	3.345575	1.133511	-0.000134
 741	7.3630e+01	10.5190	30.972905	0.000213	2.129002	0.721325	-0.000085
 742	7.3730e+01	10.4788	30.815457	0.000395	3.953861	1.339604	-0.000158
 743	7.3829e+01	10.4291	30.674157	0.000355	3.548337	1.202209	-0.000142
 744	7.3928e+01	10.3986	30.565155	0.000274	2.737288	0.927418	-0.000110
 745	7.4028e+01	10.3569	30.431929	0.000335	3.345575	1.133511	-0.000134
 746	7.4127e+01	10.3184	30.335038	0.000243	2.433145	0.824372	-0.000097
 747	7.4227e+01	10.2815	30.242184	0.000233	2.331764	0.790023	-0.000093
 748	7.4326e+01	10.2398	30.100884	0.000355	3.548337	1.202209	-0.000142
 749	7.4426e+01	10.1949	29.995919	0.000264	2.635907	0.893070	-0.000105
 750	7.4525e+01	10.1596	29.866730	0.000324	3.244194	1.099163	-0.000130
 751	7.4625e+01	10.1147	29.794062	0.000182	1.824859	0.618279	-0.000073
 752	7.4725e+01	10.0682	29.749653	0.000112	1.115192	0.377837	-0.000045
 753	7.4824e+01	10.0345	29.620465	0.000324	3.244194	1.099163	-0.000130
 754	7.4924e+01	10.0008	29.527611	0.000233	2.331764	0.790023	-0.000093
 755	7.5023e+01	9.9543	29.402460	0.000314	3.142813	1.064814	-0.000126
 756	7.5123e+01	9.9190	29.285383	0.000294	2.940050	0.996116	-0.000118
 757	7.5222e+01	9.8708	29.196566	0.000223	2.230383	0.755674	-0.000089
 758	7.5322e+01	9.8291	29.071414	0.000314	3.142813	1.064814	-0.000126
 759	7.5421e+01	9.8067	28.922040	0.000375	3.751099	1.270907	-0.000150
 760	7.5520e+01	9.7666	28.809001	0.000284	2.838669	0.961767	-0.000114
 761	7.5620e+01	9.7184	28.675775	0.000335	3.345575	1.133511	-0.000134
 762	7.5719e+01	9.6799	28.550624	0.000314	3.142813	1.064814	-0.000126
 763	7.5819e+01	9.6446	28.453733	0.000243	2.433145	0.824372	-0.000097
 764	7.5918e+01	9.5933	28.381064	0.000182	1.824859	0.618279	-0.000073
 765	7.6018e+01	9.5644	28.247839	0.000335	3.345575	1.133511	-0.000134
 766	7.6118e+01	9.5163	28.163059	0.000213	2.129002	0.721325	-0.000085
 767	7.6217e+01	9.4858	27.993499	0.000426	4.258004	1.442651	-0.000170
 768	7.6317e+01	9.4361	27.936979	0.000142	1.419335	0.480884	-0.000057
 769	7.6416e+01	9.3976	27.856237	0.000203	2.027621	0.686977	-0.000081
 770	7.6516e+01	9.3671	27.735123	0.000304	3.041431	1.030465	-0.000122
 771	7.6615e+01	9.3206	27.626120	0.000274	2.737288	0.927418	-0.000110
 772	7.6715e+01	9.2837	27.541340	0.000213	2.129002	0.721325	-0.000085
 773	7.6814e+01	9.2404	27.400040	0.000355	3.548337	1.202209	-0.000142
 774	7.6913e+01	9.2051	27.311223	0.000223	2.230383	0.755674	-0.000089
 775	7.7013e+01	9.1666	27.230481	0.000203	2.027621	0.686977	-0.000081
 776	7.7112e+01	9.1185	27.052847	0.000446	4.460766	1.511348	-0.000179
 777	7.7212e+01	9.0896	26.939807	0.000284	2.838669	0.961767	-0.000114
 778	7.7311e+01	9.0431	26.850990	0.000223	2.230383	0.755674	-0.000089
 779	7.7411e+01	8.9965	26.717764	0.000335	3.345575	1.133511	-0.000134
 780	7.7510e+01	8.9628	26.560316	0.000395	3.953861	1.339604	-0.000158
 781	7.7610e+01	8.9179	26.475536	0.000213	2.129002	0.721325	-0.000085
 782	7.7710e+01	8.8939	26.362496	0.000284	2.838669	0.961767	-0.000114
 783	7.7809e+01	8.8441	26.213122	0.000375	3.751099	1.270907	-0.000150
 784	7.7909e+01	8.8024	26.108157	0.000264	2.635907	0.893070	-0.000105
 785	7.8008e+01	8.7607	26.023377	0.000213	2.129002	0.721325	-0.000085
 786	7.8108e+01	8.7222	25.914374	0.000274	2.737288	0.927418	-0.000110
 787	7.8207e+01	8.6821	25.845743	0.000172	1.723478	0.583930	-0.000069
 788	7.8306e+01	8.6388	25.720592	0.000314	3.142813	1.064814	-0.000126
 789	7.8406e+01	8.6051	25.627738	0.000233	2.331764	0.790023	-0.000093
 790	7.8505e+01	8.5554	25.551032	0.000193	1.926240	0.652628	-0.000077
 791	7.8605e+01	8.5201	25.397621	0.000385	3.852480	1.305256	-0.000154
 792	7.8704e+01	8.4832	25.276507	0.000304	3.041431	1.030465	-0.000122
 793	7.8804e+01	8.4335	25.135207	0.000355	3.548337	1.202209	-0.000142
 794	7.8903e+01	8.3966	25.034279	0.000253	2.534526	0.858721	-0.000101
 795	7.9003e+01	8.3645	24.949499	0.000213	2.129002	0.721325	-0.000085
 796	7.9103e+01	8.3196	24.840496	0.000274	2.737288	0.927418	-0.000110
 797	7.9202e+01	8.2794	24.703234	0.000345	3.446956	1.167860	-0.000138
 798	7.9302e+01	8.2474	24.561934	0.000355	3.548337	1.202209	-0.000142
 799	7.9401e+01	8.2040	24.456968	0.000264	2.635907	0.893070	-0.000105
 800	7.9501e+01	8.1688	24.323743	0.000335	3.345575	1.133511	-0.000134
 801	7.9600e+01	8.1270	24.238963	0.000213	2.129002	0.721325	-0.000085
 802	7.9700e+01	8.0837	24.121886	0.000294	2.940050	0.996116	-0.000118
 803	7.9799e+01	8.0484	24.016921	0.000264	2.635907	0.893070	-0.000105
 804	7.9898e+01	7.9971	23.899844	0.000294	2.940050	0.996116	-0.000118
 805	7.9998e+01	7.9682	23.782767	0.000294	2.940050	0.996116	-0.000118
 806	8.0097e+01	7.9169	23.681838	0.000253	2.534526	0.858721	-0.000101
 807	8.0197e+01	7.8832	23.580910	0.000253	2.534526	0.858721	-0.000101
 808	8.0296e+01	7.8463	23.467870	0.000284	2.838669	0.961767	-0.000114
 809	8.0396e+01	7.8094	23.350793	0.000294	2.940050	0.996116	-0.000118
 810	8.0496e+01	7.7629	23.249865	0.000253	2.534526	0.858721	-0.000101
 811	8.0595e+01	7.7244	23.128751	0.000304	3.041431	1.030465	-0.000122
 812	8.0695e+01	7.6859	23.007637	0.000304	3.041431	1.030465	-0.000122
 813	8.0794e+01	7.6490	22.830003	0.000446	4.460766	1.511348	-0.000179
 814	8.0894e+01	7.6057	22.769446	0.000152	1.520716	0.515232	-0.000061
 815	8.0993e+01	7.5527	22.624109	0.000365	3.649718	1.236558	-0.000146
 816	8.1093e+01	7.5222	22.474735	0.000375	3.751099	1.270907	-0.000150
 817	8.1192e+01	7.4870	22.365732	0.000274	2.737288	0.927418	-0.000110
 818	8.1291e+01	7.4404	22.268841	0.000243	2.433145	0.824372	-0.000097
 819	8.1391e+01	7.4035	22.151764	0.000294	2.940050	0.996116	-0.000118
 820	8.1490e+01	7.3618	22.066984	0.000213	2.129002	0.721325	-0.000085
 821	8.1590e+01	7.3297	21.966056	0.000253	2.534526	0.858721	-0.000101
 822	8.1689e+01	7.2832	21.877239	0.000223	2.230383	0.755674	-0.000089
 823	8.1789e+01	7.2399	21.760162	0.000294	2.940050	0.996116	-0.000118
 824	8.1888e+01	7.1998	21.651159	0.000274	2.737288	0.927418	-0.000110
 825	8.1988e+01	7.1597	21.521971	0.000324	3.244194	1.099163	-0.000130
 826	8.2088e+01	7.1228	21.425079	0.000243	2.433145	0.824372	-0.000097
 827	8.2187e+01	7.0907	21.299928	0.000314	3.142813	1.064814	-0.000126
 828	8.2287e+01	7.0490	21.154591	0.000365	3.649718	1.236558	-0.000146
 829	8.2386e+01	7.0025	21.069811	0.000213	2.129002	0.721325	-0.000085
 830	8.2486e+01	6.9656	21.005217	0.000162	1.622097	0.549581	-0.000065
 831	8.2585e+01	6.9319	20.871992	0.000335	3.345575	1.133511	-0.000134
 832	8.2684e+01	6.8950	20.775101	0.000243	2.433145	0.824372	-0.000097
 833	8.2784e+01	6.8581	20.609578	0.000416	4.156623	1.408302	-0.000166
 834	8.2883e+01	6.8100	20.456167	0.000385	3.852480	1.305256	-0.000154
 835	8.2983e+01	6.7747	20.375424	0.000203	2.027621	0.686977	-0.000081
 836	8.3082e+01	6.7362	20.270459	0.000264	2.635907	0.893070	-0.000105
 837	8.3182e+01	6.6832	20.153382	0.000294	2.940050	0.996116	-0.000118
 838	8.3281e+01	6.6479	20.076676	0.000193	1.926240	0.652628	-0.000077
 839	8.3381e+01	6.6110	19.935376	0.000355	3.548337	1.202209	-0.000142
 840	8.3481e+01	6.5741	19.806188	0.000324	3.244194	1.099163	-0.000130
 841	8.3580e+01	6.5340	19.749668	0.000142	1.419335	0.480884	-0.000057
 842	8.3680e+01	6.4923	19.620480	0.000324	3.244194	1.099163	-0.000130
 843	8.3779e+01	6.4554	19.487254	0.000335	3.345575	1.133511	-0.000134
 844	8.3879e+01	6.4169	19.358066	0.000324	3.244194	1.099163	-0.000130
 845	8.3978e+01	6.3688	19.285397	0.000182	1.824859	0.618279	-0.000073
 846	8.4078e+01	6.3287	19.136023	0.000375	3.751099	1.270907	-0.000150
 847	8.4177e+01	6.2822	19.031058	0.000264	2.635907	0.893070	-0.000105
 848	8.4276e+01	6.2597	18.938204	0.000233	2.331764	0.790023	-0.000093
 849	8.4376e+01	6.2180	18.809015	0.000324	3.244194	1.099163	-0.000130
 850	8.4475e+01	6.1763	18.631381	0.000446	4.460766	1.511348	-0.000179
 851	8.4575e+01	6.1410	18.518342	0.000284	2.838669	0.961767	-0.000114
 852	8.4674e+01	6.0849	18.413376	0.000264	2.635907	0.893070	-0.000105
 853	8.4774e+01	6.0496	18.264002	0.000375	3.751099	1.270907	-0.000150
 854	8.4874e+01	6.0127	18.179222	0.000213	2.129002	0.721325	-0.000085
 855	8.4973e+01	5.9694	18.082331	0.000243	2.433145	0.824372	-0.000097
 856	8.5073e+01	5.9357	18.037922	0.000112	1.115192	0.377837	-0.000045
 857	8.5172e+01	5.8859	17.900660	0.000345	3.446956	1.167860	-0.000138
 858	8.5272e+01	5.8619	17.787620	0.000284	2.838669	0.961767	-0.000114
 859	8.5371e+01	5.8202	17.694766	0.000233	2.331764	0.790023	-0.000093
 860	8.5471e+01	5.7720	17.593838	0.000253	2.534526	0.858721	-0.000101
 861	8.5570e+01	5.7351	17.448501	0.000365	3.649718	1.236558	-0.000146
 862	8.5669e+01	5.6902	17.319312	0.000324	3.244194	1.099163	-0.000130
 863	8.5769e+01	5.6581	17.202235	0.000294	2.940050	0.996116	-0.000118
 864	8.5868e+01	5.6132	17.093233	0.000274	2.737288	0.927418	-0.000110
 865	8.5968e+01	5.5763	16.955970	0.000345	3.446956	1.167860	-0.000138
 866	8.6067e+01	5.5346	16.782373	0.000436	4.359385	1.477000	-0.000174
 867	8.6167e+01	5.4849	16.693556	0.000223	2.230383	0.755674	-0.000089
 868	8.6266e+01	5.4576	16.540145	0.000385	3.852480	1.305256	-0.000154
 869	8.6366e+01	5.4207	16.455365	0.000213	2.129002	0.721325	-0.000085
 870	8.6466e+01	5.3726	16.297917	0.000395	3.953861	1.339604	-0.000158
 871	8.6565e+01	5.3453	16.237360	0.000152	1.520716	0.515232	-0.000061
 872	8.6665e+01	5.2827	16.112209	0.000314	3.142813	1.064814	-0.000126
 873	8.6764e+01	5.2555	16.003206	0.000274	2.737288	0.927418	-0.000110
 874	8.6864e+01	5.2057	15.894203	0.000274	2.737288	0.927418	-0.000110
 875	8.6963e+01	5.1737	15.813461	0.000203	2.027621	0.686977	-0.000081
 876	8.7063e+01	5.1335	15.696384	0.000294	2.940050	0.996116	-0.000118
 877	8.7162e+01	5.0934	15.587381	0.000274	2.737288	0.927418	-0.000110
 878	8.7261e+01	5.0581	15.466267	0.000304	3.041431	1.030465	-0.000122
 879	8.7361e+01	5.0100	15.349190	0.000294	2.940050	0.996116	-0.000118
 880	8.7460e+01	4.9811	15.236150	0.000284	2.838669	0.961767	-0.000114
 881	8.7560e+01	4.9410	15.127148	0.000274	2.737288	0.927418	-0.000110
 882	8.7659e+01	4.8961	14.981811	0.000365	3.649718	1.236558	-0.000146
 883	8.7759e+01	4.8592	14.836474	0.000365	3.649718	1.236558	-0.000146
 884	8.7859e+01	4.8191	14.731508	0.000264	2.635907	0.893070	-0.000105
 885	8.7958e+01	4.7742	14.582134	0.000375	3.751099	1.270907	-0.000150
 886	8.8058e+01	4.7357	14.509466	0.000182	1.824859	0.618279	-0.000073
 887	8.8157e+01	4.7036	14.347980	0.000406	4.055242	1.373953	-0.000162
 888	8.8257e+01	4.6683	14.230903	0.000294	2.940050	0.996116	-0.000118
 889	8.8356e+01	4.6154	14.109789	0.000304	3.041431	1.030465	-0.000122
 890	8.8456e+01	4.5753	14.020972	0.000223	2.230383	0.755674	-0.000089
 891	8.8555e+01	4.5384	13.916007	0.000264	2.635907	0.893070	-0.000105
 892	8.8654e+01	4.4951	13.823153	0.000233	2.331764	0.790023	-0.000093
 893	8.8754e+01	4.4566	13.742410	0.000203	2.027621	0.686977	-0.000081
 894	8.8853e+01	4.4165	13.613222	0.000324	3.244194	1.099163	-0.000130
 895	8.8953e+01	4.3731	13.508256	0.000264	2.635907	0.893070	-0.000105
 896	8.9052e+01	4.3330	13.395216	0.000284	2.838669	0.961767	-0.000114
 897	8.9152e+01	4.3009	13.270065	0.000314	3.142813	1.064814	-0.000126
 898	8.9251e+01	4.2560	13.112617	0.000395	3.953861	1.339604	-0.000158
 899	8.9351e+01	4.2159	13.023800	0.000223	2.230383	0.755674	-0.000089
 900	8.9451e+01	4.1903	12.882500	0.000355	3.548337	1.202209	-0.000142
 901	8.9550e+01	4.1373	12.716978	0.000416	4.156623	1.408302	-0.000166
 902	8.9650e+01	4.0972	12.612012	0.000264	2.635907	0.893070	-0.000105
 903	8.9749e+01	4.0619	12.494935	0.000294	2.940050	0.996116	-0.000118
 904	8.9849e+01	4.0218	12.361710	0.000335	3.345575	1.133511	-0.000134
 905	8.9948e+01	3.9817	12.204261	0.000395	3.953861	1.339604	-0.000158
 906	9.0047e+01	3.9384	12.163890	0.000101	1.013810	0.343488	-0.000041
 907	9.0147e+01	3.8935	11.994330	0.000426	4.258004	1.442651	-0.000170
 908	9.0246e+01	3.8582	11.905513	0.000223	2.230383	0.755674	-0.000089
 909	9.0346e+01	3.8277	11.816696	0.000223	2.230383	0.755674	-0.000089
 910	9.0445e+01	3.7796	11.715768	0.000253	2.534526	0.858721	-0.000101
 911	9.0545e+01	3.7411	11.602728	0.000284	2.838669	0.961767	-0.000114
 912	9.0644e+01	3.6929	11.465465	0.000345	3.446956	1.167860	-0.000138
 913	9.0744e+01	3.6641	11.352426	0.000284	2.838669	0.961767	-0.000114
 914	9.0844e+01	3.6224	11.239386	0.000284	2.838669	0.961767	-0.000114
 915	9.0943e+01	3.5919	11.114235	0.000314	3.142813	1.064814	-0.000126
 916	9.1043e+01	3.5405	10.952749	0.000406	4.055242	1.373953	-0.000162
 917	9.1142e+01	3.5052	10.892192	0.000152	1.520716	0.515232	-0.000061
 918	9.1242e+01	3.4684	10.670150	0.000558	5.575958	1.889186	-0.000223
 919	9.1341e+01	3.4266	10.585370	0.000213	2.129002	0.721325	-0.000085
 920	9.1441e+01	3.3849	10.468293	0.000294	2.940050	0.996116	-0.000118
 921	9.1540e+01	3.3416	10.339105	0.000324	3.244194	1.099163	-0.000130
 922	9.1639e+01	3.3047	10.197805	0.000355	3.548337	1.202209	-0.000142
 923	9.1739e+01	3.2678	10.104951	0.000233	2.331764	0.790023	-0.000093
 924	9.1838e+01	3.2293	10.016134	0.000223	2.230383	0.755674	-0.000089
 925	9.1938e+01	3.1860	9.899057	0.000294	2.940050	0.996116	-0.000118
 926	9.2037e+01	3.1459	9.741609	0.000395	3.953861	1.339604	-0.000158
 927	9.2137e+01	3.1010	9.652792	0.000223	2.230383	0.755674	-0.000089
 928	9.2237e+01	3.0609	9.531677	0.000304	3.041431	1.030465	-0.000122
 929	9.2336e+01	3.0288	9.434786	0.000243	2.433145	0.824372	-0.000097
 930	9.2436e+01	2.9759	9.305598	0.000324	3.244194	1.099163	-0.000130
 931	9.2535e+01	2.9470	9.204669	0.000253	2.534526	0.858721	-0.000101
 932	9.2635e+01	2.9069	9.071444	0.000335	3.345575	1.133511	-0.000134
 933	9.2734e+01	2.8571	8.970516	0.000253	2.534526	0.858721	-0.000101
 934	9.2834e+01	2.8154	8.861513	0.000274	2.737288	0.927418	-0.000110
 935	9.2933e+01	2.7914	8.756547	0.000264	2.635907	0.893070	-0.000105
 936	9.3032e+01	2.7513	8.558728	0.000497	4.967671	1.683093	-0.000199
 937	9.3132e+01	2.7047	8.433577	0.000314	3.142813	1.064814	-0.000126
 938	9.3231e+01	2.6759	8.320537	0.000284	2.838669	0.961767	-0.000114
 939	9.3331e+01	2.6293	8.195386	0.000314	3.142813	1.064814	-0.000126
 940	9.3430e+01	2.5844	8.090420	0.000264	2.635907	0.893070	-0.000105
 941	9.3530e+01	2.5443	7.957195	0.000335	3.345575	1.133511	-0.000134
 942	9.3629e+01	2.5026	7.836080	0.000304	3.041431	1.030465	-0.000122
 943	9.3729e+01	2.4657	7.710929	0.000314	3.142813	1.064814	-0.000126
 944	9.3829e+01	2.4304	7.597889	0.000284	2.838669	0.961767	-0.000114
 945	9.3928e+01	2.3855	7.513110	0.000213	2.129002	0.721325	-0.000085
 946	9.4028e+01	2.3454	7.404107	0.000274	2.737288	0.927418	-0.000110
 947	9.4127e+01	2.3021	7.270881	0.000335	3.345575	1.133511	-0.000134
 948	9.4227e+01	2.2700	7.198213	0.000182	1.824859	0.618279	-0.000073
 949	9.4326e+01	2.2219	7.060950	0.000345	3.446956	1.167860	-0.000138
 950	9.4425e+01	2.1930	6.939836	0.000304	3.041431	1.030465	-0.000122
 951	9.4525e+01	2.1465	6.814685	0.000314	3.142813	1.064814	-0.000126
 952	9.4624e+01	2.1048	6.693571	0.000304	3.041431	1.030465	-0.000122
 953	9.4724e+01	2.0614	6.519974	0.000436	4.359385	1.477000	-0.000174
 954	9.4823e+01	2.0342	6.410972	0.000274	2.737288	0.927418	-0.000110
 955	9.4923e+01	1.9925	6.273709	0.000345	3.446956	1.167860	-0.000138
 956	9.5022e+01	1.9524	6.148558	0.000314	3.142813	1.064814	-0.000126
 957	9.5122e+01	1.9010	6.011295	0.000345	3.446956	1.167860	-0.000138
 958	9.5222e+01	1.8721	5.938627	0.000182	1.824859	0.618279	-0.000073
 959	9.5321e+01	1.8208	5.801364	0.000345	3.446956	1.167860	-0.000138
 960	9.5421e+01	1.7855	5.672176	0.000324	3.244194	1.099163	-0.000130
 961	9.5520e+01	1.7518	5.547025	0.000314	3.142813	1.064814	-0.000126
 962	9.5620e+01	1.7101	5.478393	0.000172	1.723478	0.583930	-0.000069
 963	9.5719e+01	1.6604	5.341131	0.000345	3.446956	1.167860	-0.000138
 964	9.5819e+01	1.6251	5.236165	0.000264	2.635907	0.893070	-0.000105
 965	9.5918e+01	1.5818	5.163497	0.000182	1.824859	0.618279	-0.000073
 966	9.6017e+01	1.5529	4.985863	0.000446	4.460766	1.511348	-0.000179
 967	9.6117e+01	1.5080	4.925306	0.000152	1.520716	0.515232	-0.000061
 968	9.6216e+01	1.4711	4.779969	0.000365	3.649718	1.236558	-0.000146
 969	9.6316e+01	1.4262	4.666929	0.000284	2.838669	0.961767	-0.000114
 970	9.6415e+01	1.3925	4.561963	0.000264	2.635907	0.893070	-0.000105
 971	9.6515e+01	1.3476	4.380292	0.000456	4.562147	1.545697	-0.000183
 972	9.6615e+01	1.3187	4.226881	0.000385	3.852480	1.305256	-0.000154
 973	9.6714e+01	1.2754	4.125953	0.000253	2.534526	0.858721	-0.000101
 974	9.6814e+01	1.2304	3.992727	0.000335	3.345575	1.133511	-0.000134
 975	9.6913e+01	1.1935	3.907947	0.000213	2.129002	0.721325	-0.000085
 976	9.7013e+01	1.1486	3.750499	0.000395	3.953861	1.339604	-0.000158
 977	9.7112e+01	1.1182	3.621311	0.000324	3.244194	1.099163	-0.000130
 978	9.7212e+01	1.0700	3.532494	0.000223	2.230383	0.755674	-0.000089
 979	9.7311e+01	1.0395	3.415417	0.000294	2.940050	0.996116	-0.000118
 980	9.7410e+01	0.9914	3.302377	0.000284	2.838669	0.961767	-0.000114
 981	9.7510e+01	0.9529	3.157040	0.000365	3.649718	1.236558	-0.000146
 982	9.7609e+01	0.9080	3.068223	0.000223	2.230383	0.755674	-0.000089
 983	9.7709e+01	0.8695	2.979406	0.000223	2.230383	0.755674	-0.000089
 984	9.7808e+01	0.8278	2.834069	0.000365	3.649718	1.236558	-0.000146
 985	9.7908e+01	0.7909	2.769475	0.000162	1.622097	0.549581	-0.000065
 986	9.8007e+01	0.7540	2.624138	0.000365	3.649718	1.236558	-0.000146
 987	9.8107e+01	0.7123	2.474764	0.000375	3.751099	1.270907	-0.000150
 988	9.8207e+01	0.6882	2.377873	0.000243	2.433145	0.824372	-0.000097
 989	9.8306e+01	0.6353	2.212350	0.000416	4.156623	1.408302	-0.000166
 990	9.8406e+01	0.5984	2.087199	0.000314	3.142813	1.064814	-0.000126
 991	9.8505e+01	0.5599	1.970122	0.000294	2.940050	0.996116	-0.000118
 992	9.8605e+01	0.5214	1.840934	0.000324	3.244194	1.099163	-0.000130
 993	9.8704e+01	0.4700	1.740006	0.000253	2.534526	0.858721	-0.000101
 994	9.8803e+01	0.4299	1.639077	0.000253	2.534526	0.858721	-0.000101
 995	9.8903e+01	0.3834	1.445295	0.000487	4.866290	1.648744	-0.000195
 996	9.9002e+01	0.3449	1.388775	0.000142	1.419335	0.480884	-0.000057
 997	9.9102e+01	0.3096	1.255549	0.000335	3.345575	1.133511	-0.000134
 998	9.9201e+01	0.2775	1.146547	0.000274	2.737288	0.927418	-0.000110
 999	9.9301e+01	0.2310	1.021395	0.000314	3.142813	1.064814	-0.000126
1000	9.9400e+01	0.1893	0.960838	0.000152	1.520716	0.515232	-0.000061
1001	9.9500e+01	0.1508	0.884133	0.000193	1.926240	0.652628	-0.000077
1002	9.9600e+01	0.1171	0.734759	0.000375	3.751099	1.270907	-0.000150
1003	9.9699e+01	0.0754	0.593459	0.000355	3.548337	1.202209	-0.000142
1004	9.9799e+01	0.0353	0.480419	0.000284	2.838669	0.961767	-0.000114
1005	9.9898e+01	0.0080	0.411788	0.000172	1.723478	0.583930	-0.000069
1006	9.9998e+01	-0.0321	0.230117	0.000456	4.562147	1.545697	-0.000183
1007	1.0010e+02	-0.0786	0.133225	0.000243	2.433145	0.824372	-0.000097
1008	1.0020e+02	-0.1139	-0.020186	0.000385	3.852480	1.305256	-0.000154
1009	1.0030e+02	-0.1492	-0.141300	0.000304	3.041431	1.030465	-0.000122
1010	1.0040e+02	-0.1925	-0.246265	0.000264	2.635907	0.893070	-0.000105
1011	1.0050e+02	-0.2406	-0.367379	0.000304	3.041431	1.030465	-0.000122
1012	1.0059e+02	-0.2791	-0.500605	0.000335	3.345575	1.133511	-0.000134
1013	1.0069e+02	-0.3208	-0.601533	0.000253	2.534526	0.858721	-0.000101
1014	1.0079e+02	-0.3610	-0.754944	0.000385	3.852480	1.305256	-0.000154
1015	1.0089e+02	-0.3930	-0.847799	0.000233	2.331764	0.790023	-0.000093
1016	1.0099e+02	-0.4364	-0.960838	0.000284	2.838669	0.961767	-0.000114
1017	1.0109e+02	-0.4749	-1.045618	0.000213	2.129002	0.721325	-0.000085
1018	1.0119e+02	-0.5182	-1.130398	0.000213	2.129002	0.721325	-0.000085
1019	1.0129e+02	-0.5519	-1.267661	0.000345	3.446956	1.167860	-0.000138
1020	1.0139e+02	-0.5936	-1.356478	0.000223	2.230383	0.755674	-0.000089
1021	1.0149e+02	-0.6337	-1.517963	0.000406	4.055242	1.373953	-0.000162
1022	1.0159e+02	-0.6802	-1.635040	0.000294	2.940050	0.996116	-0.000118
1023	1.0169e+02	-0.7139	-1.715783	0.000203	2.027621	0.686977	-0.000081
1024	1.0179e+02	-0.7572	-1.917639	0.000507	5.069052	1.717441	-0.000203
1025	1.0189e+02	-0.8005	-2.046828	0.000324	3.244194	1.099163	-0.000130
1026	1.0199e+02	-0.8278	-2.180053	0.000335	3.345575	1.133511	-0.000134
1027	1.0209e+02	-0.8743	-2.301167	0.000304	3.041431	1.030465	-0.000122
1028	1.0219e+02	-0.9176	-2.422281	0.000304	3.041431	1.030465	-0.000122
1029	1.0229e+02	-0.9513	-2.523210	0.000253	2.534526	0.858721	-0.000101
1030	1.0239e+02	-0.9962	-2.636250	0.000284	2.838669	0.961767	-0.000114
1031	1.0248e+02	-1.0331	-2.741215	0.000264	2.635907	0.893070	-0.000105
1032	1.0258e+02	-1.0668	-2.894626	0.000385	3.852480	1.305256	-0.000154
1033	1.0268e+02	-1.1117	-3.007666	0.000284	2.838669	0.961767	-0.000114
1034	1.0278e+02	-1.1534	-3.124743	0.000294	2.940050	0.996116	-0.000118
1035	1.0288e+02	-1.2016	-3.185300	0.000152	1.520716	0.515232	-0.000061
1036	1.0298e+02	-1.2353	-3.306414	0.000304	3.041431	1.030465	-0.000122
1037	1.0308e+02	-1.2722	-3.423491	0.000294	2.940050	0.996116	-0.000118
1038	1.0318e+02	-1.3091	-3.524419	0.000253	2.534526	0.858721	-0.000101
1039	1.0328e+02	-1.3540	-3.665719	0.000355	3.548337	1.202209	-0.000142
1040	1.0338e+02	-1.4005	-3.770685	0.000264	2.635907	0.893070	-0.000105
1041	1.0348e+02	-1.4326	-3.907947	0.000345	3.446956	1.167860	-0.000138
1042	1.0358e+02	-1.4711	-4.029061	0.000304	3.041431	1.030465	-0.000122
1043	1.0368e+02	-1.5176	-4.218807	0.000476	4.764909	1.614395	-0.000191
1044	1.0378e+02	-1.5529	-4.311661	0.000233	2.331764	0.790023	-0.000093
1045	1.0388e+02	-1.5962	-4.412589	0.000253	2.534526	0.858721	-0.000101
1046	1.0398e+02	-1.6315	-4.517555	0.000264	2.635907	0.893070	-0.000105
1047	1.0408e+02	-1.6668	-4.638669	0.000304	3.041431	1.030465	-0.000122
1048	1.0418e+02	-1.7085	-4.784006	0.000365	3.649718	1.236558	-0.000146
1049	1.0428e+02	-1.7390	-4.909157	0.000314	3.142813	1.064814	-0.000126
1050	1.0438e+02	-1.7855	-5.006048	0.000243	2.433145	0.824372	-0.000097
1051	1.0447e+02	-1.8288	-5.094865	0.000223	2.230383	0.755674	-0.000089
1052	1.0457e+02	-1.8737	-5.220017	0.000314	3.142813	1.064814	-0.000126
1053	1.0467e+02	-1.9138	-5.320945	0.000253	2.534526	0.858721	-0.000101
1054	1.0477e+02	-1.9540	-5.433985	0.000284	2.838669	0.961767	-0.000114
1055	1.0487e+02	-1.9876	-5.555099	0.000304	3.041431	1.030465	-0.000122
1056	1.0497e+02	-2.0294	-5.664101	0.000274	2.737288	0.927418	-0.000110
1057	1.0507e+02	-2.0679	-5.781178	0.000294	2.940050	0.996116	-0.000118
1058	1.0517e+02	-2.0967	-5.874032	0.000233	2.331764	0.790023	-0.000093
1059	1.0527e+02	-2.1561	-6.035518	0.000406	4.055242	1.373953	-0.000162
1060	1.0537e+02	-2.1914	-6.168743	0.000335	3.345575	1.133511	-0.000134
1061	1.0547e+02	-2.2315	-6.318117	0.000375	3.751099	1.270907	-0.000150
1062	1.0557e+02	-2.2748	-6.406934	0.000223	2.230383	0.755674	-0.000089
1063	1.0567e+02	-2.3085	-6.540160	0.000335	3.345575	1.133511	-0.000134
1064	1.0577e+02	-2.3502	-6.661274	0.000304	3.041431	1.030465	-0.000122
1065	1.0587e+02	-2.3839	-6.766239	0.000264	2.635907	0.893070	-0.000105
1066	1.0597e+02	-2.4272	-6.903502	0.000345	3.446956	1.167860	-0.000138
1067	1.0607e+02	-2.4769	-7.004431	0.000253	2.534526	0.858721	-0.000101
1068	1.0617e+02	-2.5154	-7.157842	0.000385	3.852480	1.305256	-0.000154
1069	1.0627e+02	-2.5491	-7.206287	0.000122	1.216573	0.412186	-0.000049
1070	1.0637e+02	-2.5973	-7.315290	0.000274	2.737288	0.927418	-0.000110
1071	1.0647e+02	-2.6390	-7.428330	0.000284	2.838669	0.961767	-0.000114
1072	1.0656e+02	-2.6646	-7.553481	0.000314	3.142813	1.064814	-0.000126
1073	1.0666e+02	-2.7095	-7.646335	0.000233	2.331764	0.790023	-0.000093
1074	1.0676e+02	-2.7464	-7.799746	0.000385	3.852480	1.305256	-0.000154
1075	1.0686e+02	-2.7898	-7.941046	0.000355	3.548337	1.202209	-0.000142
1076	1.0696e+02	-2.8267	-8.029863	0.000223	2.230383	0.755674	-0.000089
1077	1.0706e+02	-2.8587	-8.171163	0.000355	3.548337	1.202209	-0.000142
1078	1.0716e+02	-2.9101	-8.304388	0.000335	3.345575	1.133511	-0.000134
1079	1.0726e+02	-2.9390	-8.441651	0.000345	3.446956	1.167860	-0.000138
1080	1.0736e+02	-2.9839	-8.591025	0.000375	3.751099	1.270907	-0.000150
1081	1.0746e+02	-3.0336	-8.687916	0.000243	2.433145	0.824372	-0.000097
1082	1.0756e+02	-3.0577	-8.784807	0.000243	2.433145	0.824372	-0.000097
1083	1.0766e+02	-3.0962	-8.901884	0.000294	2.940050	0.996116	-0.000118
1084	1.0776e+02	-3.1459	-9.075481	0.000436	4.359385	1.477000	-0.000174
1085	1.0786e+02	-3.1876	-9.188521	0.000284	2.838669	0.961767	-0.000114
1086	1.0796e+02	-3.2277	-9.281375	0.000233	2.331764	0.790023	-0.000093
1087	1.0806e+02	-3.2598	-9.370192	0.000223	2.230383	0.755674	-0.000089
1088	1.0816e+02	-3.3063	-9.499380	0.000324	3.244194	1.099163	-0.000130
1089	1.0826e+02	-3.3432	-9.584160	0.000213	2.129002	0.721325	-0.000085
1090	1.0836e+02	-3.3881	-9.705274	0.000304	3.041431	1.030465	-0.000122
1091	1.0845e+02	-3.4282	-9.773906	0.000172	1.723478	0.583930	-0.000069
1092	1.0855e+02	-3.4684	-9.919243	0.000365	3.649718	1.236558	-0.000146
1093	1.0865e+02	-3.5036	-10.040357	0.000304	3.041431	1.030465	-0.000122
1094	1.0875e+02	-3.5421	-10.197805	0.000395	3.953861	1.339604	-0.000158
1095	1.0885e+02	-3.5790	-10.310845	0.000284	2.838669	0.961767	-0.000114
1096	1.0895e+02	-3.6127	-10.391587	0.000203	2.027621	0.686977	-0.000081
1097	1.0905e+02	-3.6528	-10.540961	0.000375	3.751099	1.270907	-0.000150
1098	1.0915e+02	-3.6962	-10.670150	0.000324	3.244194	1.099163	-0.000130
1099	1.0925e+02	-3.7443	-10.811450	0.000355	3.548337	1.202209	-0.000142
1100	1.0935e+02	-3.7828	-10.892192	0.000203	2.027621	0.686977	-0.000081
1101	1.0945e+02	-3.8261	-11.029455	0.000345	3.446956	1.167860	-0.000138
1102	1.0955e+02	-3.8582	-11.130383	0.000253	2.534526	0.858721	-0.000101
1103	1.0965e+02	-3.9031	-11.255534	0.000314	3.142813	1.064814	-0.000126
1104	1.0975e+02	-3.9336	-11.380686	0.000314	3.142813	1.064814	-0.000126
1105	1.0985e+02	-3.9849	-11.489688	0.000274	2.737288	0.927418	-0.000110
1106	1.0995e+02	-4.0218	-11.586580	0.000243	2.433145	0.824372	-0.000097
1107	1.1005e+02	-4.0683	-11.675397	0.000223	2.230383	0.755674	-0.000089
1108	1.1015e+02	-4.1020	-11.796511	0.000304	3.041431	1.030465	-0.000122
1109	1.1025e+02	-4.1421	-11.921662	0.000314	3.142813	1.064814	-0.000126
1110	1.1035e+02	-4.1870	-12.010479	0.000223	2.230383	0.755674	-0.000089
1111	1.1044e+02	-4.2191	-12.176001	0.000416	4.156623	1.408302	-0.000166
1112	1.1054e+02	-4.2560	-12.293078	0.000294	2.940050	0.996116	-0.000118
1113	1.1064e+02	-4.2993	-12.434378	0.000355	3.548337	1.202209	-0.000142
1114	1.1074e+02	-4.3459	-12.555492	0.000304	3.041431	1.030465	-0.000122
1115	1.1084e+02	-4.3780	-12.660458	0.000264	2.635907	0.893070	-0.000105
1116	1.1094e+02	-4.4213	-12.789646	0.000324	3.244194	1.099163	-0.000130
1117	1.1104e+02	-4.4550	-12.922871	0.000335	3.345575	1.133511	-0.000134
1118	1.1114e+02	-4.5063	-13.019763	0.000243	2.433145	0.824372	-0.000097
1119	1.1124e+02	-4.5400	-13.136840	0.000294	2.940050	0.996116	-0.000118
1120	1.1134e+02	-4.5785	-13.241805	0.000264	2.635907	0.893070	-0.000105
1121	1.1144e+02	-4.6298	-13.350808	0.000274	2.737288	0.927418	-0.000110
1122	1.1154e+02	-4.6587	-13.455773	0.000264	2.635907	0.893070	-0.000105
1123	1.1164e+02	-4.7052	-13.548628	0.000233	2.331764	0.790023	-0.000093
1124	1.1174e+02	-4.7453	-13.605147	0.000142	1.419335	0.480884	-0.000057
1125	1.1184e+02	-4.7886	-13.774707	0.000426	4.258004	1.442651	-0.000170
1126	1.1194e+02	-4.8287	-13.899858	0.000314	3.142813	1.064814	-0.000126
1127	1.1204e+02	-4.8592	-14.025010	0.000314	3.142813	1.064814	-0.000126
1128	1.1214e+02	-4.9009	-14.129975	0.000264	2.635907	0.893070	-0.000105
1129	1.1224e+02	-4.9378	-14.238978	0.000274	2.737288	0.927418	-0.000110
1130	1.1234e+02	-4.9827	-14.396426	0.000395	3.953861	1.339604	-0.000158
1131	1.1244e+02	-5.0148	-14.477169	0.000203	2.027621	0.686977	-0.000081
1132	1.1253e+02	-5.0646	-14.622506	0.000365	3.649718	1.236558	-0.000146
1133	1.1263e+02	-5.0966	-14.775917	0.000385	3.852480	1.305256	-0.000154
1134	1.1273e+02	-5.1400	-14.856660	0.000203	2.027621	0.686977	-0.000081
1135	1.1283e+02	-5.1753	-15.006034	0.000375	3.751099	1.270907	-0.000150
1136	1.1293e+02	-5.2089	-15.115036	0.000274	2.737288	0.927418	-0.000110
1137	1.1303e+02	-5.2651	-15.211927	0.000243	2.433145	0.824372	-0.000097
1138	1.1313e+02	-5.3020	-15.312856	0.000253	2.534526	0.858721	-0.000101
1139	1.1323e+02	-5.3373	-15.389561	0.000193	1.926240	0.652628	-0.000077
1140	1.1333e+02	-5.3822	-15.522787	0.000335	3.345575	1.133511	-0.000134
1141	1.1343e+02	-5.4207	-15.571233	0.000122	1.216573	0.412186	-0.000049
1142	1.1353e+02	-5.4560	-15.724644	0.000385	3.852480	1.305256	-0.000154
1143	1.1363e+02	-5.5057	-15.829609	0.000264	2.635907	0.893070	-0.000105
1144	1.1373e+02	-5.5346	-15.983020	0.000385	3.852480	1.305256	-0.000154
1145	1.1383e+02	-5.5731	-16.055689	0.000182	1.824859	0.618279	-0.000073
1146	1.1393e+02	-5.6116	-16.188914	0.000335	3.345575	1.133511	-0.000134
1147	1.1403e+02	-5.6565	-16.362511	0.000436	4.359385	1.477000	-0.000174
1148	1.1413e+02	-5.6966	-16.487662	0.000314	3.142813	1.064814	-0.000126
1149	1.1423e+02	-5.7303	-16.637036	0.000375	3.751099	1.270907	-0.000150
1150	1.1433e+02	-5.7768	-16.737965	0.000253	2.534526	0.858721	-0.000101
1151	1.1442e+02	-5.8169	-16.822745	0.000213	2.129002	0.721325	-0.000085
1152	1.1452e+02	-5.8619	-16.919636	0.000243	2.433145	0.824372	-0.000097
1153	1.1462e+02	-5.9004	-17.081121	0.000406	4.055242	1.373953	-0.000162
1154	1.1472e+02	-5.9373	-17.182050	0.000253	2.534526	0.858721	-0.000101
1155	1.1482e+02	-5.9726	-17.282978	0.000253	2.534526	0.858721	-0.000101
1156	1.1492e+02	-6.0159	-17.400055	0.000294	2.940050	0.996116	-0.000118
1157	1.1502e+02	-6.0512	-17.492909	0.000233	2.331764	0.790023	-0.000093
1158	1.1512e+02	-6.0977	-17.573652	0.000203	2.027621	0.686977	-0.000081
1159	1.1522e+02	-6.1378	-17.702840	0.000324	3.244194	1.099163	-0.000130
1160	1.1532e+02	-6.1667	-17.755323	0.000132	1.317954	0.446535	-0.000053
1161	1.1542e+02	-6.2228	-17.888548	0.000335	3.345575	1.133511	-0.000134
1162	1.1552e+02	-6.2549	-18.001588	0.000284	2.838669	0.961767	-0.000114
1163	1.1562e+02	-6.2870	-18.130777	0.000324	3.244194	1.099163	-0.000130
1164	1.1572e+02	-6.3287	-18.272076	0.000355	3.548337	1.202209	-0.000142
1165	1.1582e+02	-6.3768	-18.360893	0.000223	2.230383	0.755674	-0.000089
1166	1.1592e+02	-6.4169	-18.477970	0.000294	2.940050	0.996116	-0.000118
1167	1.1602e+02	-6.4442	-18.578899	0.000253	2.534526	0.858721	-0.000101
1168	1.1612e+02	-6.4859	-18.732310	0.000385	3.852480	1.305256	-0.000154
1169	1.1622e+02	-6.5308	-18.792867	0.000152	1.520716	0.515232	-0.000061
1170	1.1632e+02	-6.5661	-18.938204	0.000365	3.649718	1.236558	-0.000146
1171	1.1642e+02	-6.6175	-19.079503	0.000355	3.548337	1.202209	-0.000142
1172	1.1651e+02	-6.6447	-19.156209	0.000193	1.926240	0.652628	-0.000077
1173	1.1661e+02	-6.6945	-19.281360	0.000314	3.142813	1.064814	-0.000126
1174	1.1671e+02	-6.7249	-19.382289	0.000253	2.534526	0.858721	-0.000101
1175	1.1681e+02	-6.7763	-19.479180	0.000243	2.433145	0.824372	-0.000097
1176	1.1691e+02	-6.8164	-19.515514	0.000091	0.912429	0.309139	-0.000037
1177	1.1701e+02	-6.8421	-19.652777	0.000345	3.446956	1.167860	-0.000138
1178	1.1711e+02	-6.8886	-19.794077	0.000355	3.548337	1.202209	-0.000142
1179	1.1721e+02	-6.9207	-19.870782	0.000193	1.926240	0.652628	-0.000077
1180	1.1731e+02	-6.9816	-20.016119	0.000365	3.649718	1.236558	-0.000146
1181	1.1741e+02	-7.0041	-20.125122	0.000274	2.737288	0.927418	-0.000110
1182	1.1751e+02	-7.0522	-20.258347	0.000335	3.345575	1.133511	-0.000134
1183	1.1761e+02	-7.0843	-20.379461	0.000304	3.041431	1.030465	-0.000122
1184	1.1771e+02	-7.1276	-20.528835	0.000375	3.751099	1.270907	-0.000150
1185	1.1781e+02	-7.1629	-20.621689	0.000233	2.331764	0.790023	-0.000093
1186	1.1791e+02	-7.1982	-20.686284	0.000162	1.622097	0.549581	-0.000065
1187	1.1801e+02	-7.2447	-20.863917	0.000446	4.460766	1.511348	-0.000179
1188	1.1811e+02	-7.2896	-20.964846	0.000253	2.534526	0.858721	-0.000101
1189	1.1821e+02	-7.3201	-21.073849	0.000274	2.737288	0.927418	-0.000110
1190	1.1831e+02	-7.3650	-21.162666	0.000223	2.230383	0.755674	-0.000089
1191	1.1841e+02	-7.4067	-21.251483	0.000223	2.230383	0.755674	-0.000089
1192	1.1850e+02	-7.4485	-21.360485	0.000274	2.737288	0.927418	-0.000110
1193	1.1860e+02	-7.4837	-21.425079	0.000162	1.622097	0.549581	-0.000065
1194	1.1870e+02	-7.5255	-21.562342	0.000345	3.446956	1.167860	-0.000138
1195	1.1880e+02	-7.5656	-21.647122	0.000213	2.129002	0.721325	-0.000085
1196	1.1890e+02	-7.6137	-21.764199	0.000294	2.940050	0.996116	-0.000118
1197	1.1900e+02	-7.6506	-21.885313	0.000304	3.041431	1.030465	-0.000122
1198	1.1910e+02	-7.6827	-21.998353	0.000284	2.838669	0.961767	-0.000114
1199	1.1920e+02	-7.7340	-22.139652	0.000355	3.548337	1.202209	-0.000142
1200	1.1930e+02	-7.7581	-22.248655	0.000274	2.737288	0.927418	-0.000110
1201	1.1940e+02	-7.8046	-22.365732	0.000294	2.940050	0.996116	-0.000118
1202	1.1950e+02	-7.8431	-22.458586	0.000233	2.331764	0.790023	-0.000093
1203	1.1960e+02	-7.8912	-22.607960	0.000375	3.751099	1.270907	-0.000150
1204	1.1970e+02	-7.9217	-22.741186	0.000335	3.345575	1.133511	-0.000134
1205	1.1980e+02	-7.9650	-22.830003	0.000223	2.230383	0.755674	-0.000089
1206	1.1990e+02	-8.0067	-22.910745	0.000203	2.027621	0.686977	-0.000081
1207	1.2000e+02	-8.0388	-23.052045	0.000355	3.548337	1.202209	-0.000142
1208	1.2010e+02	-8.0901	-23.148936	0.000243	2.433145	0.824372	-0.000097
1209	1.2020e+02	-8.1254	-23.282162	0.000335	3.345575	1.133511	-0.000134
1210	1.2030e+02	-8.1736	-23.330607	0.000122	1.216573	0.412186	-0.000049
1211	1.2039e+02	-8.2057	-23.423462	0.000233	2.331764	0.790023	-0.000093
1212	1.2049e+02	-8.2506	-23.508241	0.000213	2.129002	0.721325	-0.000085
1213	1.2059e+02	-8.2843	-23.597058	0.000223	2.230383	0.755674	-0.000089
1214	1.2069e+02	-8.3308	-23.774692	0.000446	4.460766	1.511348	-0.000179
1215	1.2079e+02	-8.3581	-23.863509	0.000223	2.230383	0.755674	-0.000089
1216	1.2089e+02	-8.4046	-24.037106	0.000436	4.359385	1.477000	-0.000174
1217	1.2099e+02	-8.4367	-24.093626	0.000142	1.419335	0.480884	-0.000057
1218	1.2109e+02	-8.4784	-24.222814	0.000324	3.244194	1.099163	-0.000130
1219	1.2119e+02	-8.5153	-24.364114	0.000355	3.548337	1.202209	-0.000142
1220	1.2129e+02	-8.5538	-24.424671	0.000152	1.520716	0.515232	-0.000061
1221	1.2139e+02	-8.6067	-24.549822	0.000314	3.142813	1.064814	-0.000126
1222	1.2149e+02	-8.6404	-24.622491	0.000182	1.824859	0.618279	-0.000073
1223	1.2159e+02	-8.6821	-24.763791	0.000355	3.548337	1.202209	-0.000142
1224	1.2169e+02	-8.7270	-24.872793	0.000274	2.737288	0.927418	-0.000110
1225	1.2179e+02	-8.7639	-24.973722	0.000253	2.534526	0.858721	-0.000101
1226	1.2189e+02	-8.7896	-25.054464	0.000203	2.027621	0.686977	-0.000081
1227	1.2199e+02	-8.8425	-25.167504	0.000284	2.838669	0.961767	-0.000114
1228	1.2209e+02	-8.8826	-25.292655	0.000314	3.142813	1.064814	-0.000126
1229	1.2219e+02	-8.9211	-25.353212	0.000152	1.520716	0.515232	-0.000061
1230	1.2229e+02	-8.9612	-25.442029	0.000223	2.230383	0.755674	-0.000089
1231	1.2239e+02	-8.9917	-25.563143	0.000304	3.041431	1.030465	-0.000122
1232	1.2248e+02	-9.0302	-25.643886	0.000203	2.027621	0.686977	-0.000081
1233	1.2258e+02	-9.0880	-25.809409	0.000416	4.156623	1.408302	-0.000166
1234	1.2268e+02	-9.1169	-25.950709	0.000355	3.548337	1.202209	-0.000142
1235	1.2278e+02	-9.1618	-26.031451	0.000203	2.027621	0.686977	-0.000081
1236	1.2288e+02	-9.1955	-26.120268	0.000223	2.230383	0.755674	-0.000089
1237	1.2298e+02	-9.2452	-26.261568	0.000355	3.548337	1.202209	-0.000142
1238	1.2308e+02	-9.2853	-26.398831	0.000345	3.446956	1.167860	-0.000138
1239	1.2318e+02	-9.3206	-26.479573	0.000203	2.027621	0.686977	-0.000081
1240	1.2328e+02	-9.3559	-26.608762	0.000324	3.244194	1.099163	-0.000130
1241	1.2338e+02	-9.4056	-26.713727	0.000264	2.635907	0.893070	-0.000105
1242	1.2348e+02	-9.4345	-26.782358	0.000172	1.723478	0.583930	-0.000069
1243	1.2358e+02	-9.4746	-26.903473	0.000304	3.041431	1.030465	-0.000122
1244	1.2368e+02	-9.5195	-27.016512	0.000284	2.838669	0.961767	-0.000114
1245	1.2378e+02	-9.5644	-27.105329	0.000223	2.230383	0.755674	-0.000089
1246	1.2388e+02	-9.5965	-27.190109	0.000213	2.129002	0.721325	-0.000085
1247	1.2398e+02	-9.6366	-27.262778	0.000182	1.824859	0.618279	-0.000073
1248	1.2408e+02	-9.6783	-27.412152	0.000375	3.751099	1.270907	-0.000150
1249	1.2418e+02	-9.7184	-27.525191	0.000284	2.838669	0.961767	-0.000114
1250	1.2428e+02	-9.7650	-27.618046	0.000233	2.331764	0.790023	-0.000093
1251	1.2438e+02	-9.8003	-27.771457	0.000385	3.852480	1.305256	-0.000154
1252	1.2447e+02	-9.8243	-27.888534	0.000294	2.940050	0.996116	-0.000118
1253	1.2457e+02	-9.8789	-27.957165	0.000172	1.723478	0.583930	-0.000069
1254	1.2467e+02	-9.9093	-28.074242	0.000294	2.940050	0.996116	-0.000118
1255	1.2477e+02	-9.9543	-28.251876	0.000446	4.460766	1.511348	-0.000179
1256	1.2487e+02	-9.9944	-28.276099	0.000061	0.608286	0.206093	-0.000024
1257	1.2497e+02	-10.0441	-28.401250	0.000314	3.142813	1.064814	-0.000126
1258	1.2507e+02	-10.0698	-28.546587	0.000365	3.649718	1.236558	-0.000146
1259	1.2517e+02	-10.1259	-28.651552	0.000264	2.635907	0.893070	-0.000105
1260	1.2527e+02	-10.1500	-28.724221	0.000182	1.824859	0.618279	-0.000073
1261	1.2537e+02	-10.1917	-28.841298	0.000294	2.940050	0.996116	-0.000118
1262	1.2547e+02	-10.2382	-28.930115	0.000223	2.230383	0.755674	-0.000089
1263	1.2557e+02	-10.2735	-29.010857	0.000203	2.027621	0.686977	-0.000081
1264	1.2567e+02	-10.3200	-29.111786	0.000253	2.534526	0.858721	-0.000101
1265	1.2577e+02	-10.3537	-29.168306	0.000142	1.419335	0.480884	-0.000057
1266	1.2587e+02	-10.3970	-29.329791	0.000406	4.055242	1.373953	-0.000162
1267	1.2597e+02	-10.4323	-29.475128	0.000365	3.649718	1.236558	-0.000146
1268	1.2607e+02	-10.4676	-29.592205	0.000294	2.940050	0.996116	-0.000118
1269	1.2617e+02	-10.5029	-29.701208	0.000274	2.737288	0.927418	-0.000110
1270	1.2627e+02	-10.5478	-29.785987	0.000213	2.129002	0.721325	-0.000085
1271	1.2636e+02	-10.5944	-29.882879	0.000243	2.433145	0.824372	-0.000097
1272	1.2646e+02	-10.6361	-30.008030	0.000314	3.142813	1.064814	-0.000126
1273	1.2656e+02	-10.6698	-30.121070	0.000284	2.838669	0.961767	-0.000114
1274	1.2666e+02	-10.7147	-30.230072	0.000274	2.737288	0.927418	-0.000110
1275	1.2676e+02	-10.7484	-30.306778	0.000193	1.926240	0.652628	-0.000077
1276	1.2686e+02	-10.7933	-30.448078	0.000355	3.548337	1.202209	-0.000142
1277	1.2696e+02	-10.8382	-30.516709	0.000172	1.723478	0.583930	-0.000069
1278	1.2706e+02	-10.8751	-30.625712	0.000274	2.737288	0.927418	-0.000110
1279	1.2716e+02	-10.9088	-30.706454	0.000203	2.027621	0.686977	-0.000081
1280	1.2726e+02	-10.9553	-30.807383	0.000253	2.534526	0.858721	-0.000101
1281	1.2736e+02	-10.9938	-30.884088	0.000193	1.926240	0.652628	-0.000077
1282	1.2746e+02	-11.0291	-31.017314	0.000335	3.345575	1.133511	-0.000134
1283	1.2756e+02	-11.0708	-31.110168	0.000233	2.331764	0.790023	-0.000093
1284	1.2766e+02	-11.1109	-31.263579	0.000385	3.852480	1.305256	-0.000154
1285	1.2776e+02	-11.1590	-31.340285	0.000193	1.926240	0.652628	-0.000077
1286	1.2786e+02	-11.1911	-31.441213	0.000253	2.534526	0.858721	-0.000101
1287	1.2796e+02	-11.2248	-31.590587	0.000375	3.751099	1.270907	-0.000150
1288	1.2806e+02	-11.2697	-31.695553	0.000264	2.635907	0.893070	-0.000105
1289	1.2816e+02	-11.3082	-31.788407	0.000233	2.331764	0.790023	-0.000093
1290	1.2826e+02	-11.3483	-31.857038	0.000172	1.723478	0.583930	-0.000069
1291	1.2835e+02	-11.3852	-31.970078	0.000284	2.838669	0.961767	-0.000114
1292	1.2845e+02	-11.4237	-32.095229	0.000314	3.142813	1.064814	-0.000126
1293	1.2855e+02	-11.4687	-32.188083	0.000233	2.331764	0.790023	-0.000093
1294	1.2865e+02	-11.5136	-32.280937	0.000233	2.331764	0.790023	-0.000093
1295	1.2875e+02	-11.5537	-32.385903	0.000264	2.635907	0.893070	-0.000105
1296	1.2885e+02	-11.5858	-32.470683	0.000213	2.129002	0.721325	-0.000085
1297	1.2895e+02	-11.6355	-32.599871	0.000324	3.244194	1.099163	-0.000130
1298	1.2905e+02	-11.6708	-32.668502	0.000172	1.723478	0.583930	-0.000069
1299	1.2915e+02	-11.7157	-32.737134	0.000172	1.723478	0.583930	-0.000069
1300	1.2925e+02	-11.7446	-32.878433	0.000355	3.548337	1.202209	-0.000142
1301	1.2935e+02	-11.7847	-32.991473	0.000284	2.838669	0.961767	-0.000114
1302	1.2945e+02	-11.8248	-33.096439	0.000264	2.635907	0.893070	-0.000105
1303	1.2955e+02	-11.8729	-33.201404	0.000264	2.635907	0.893070	-0.000105
1304	1.2965e+02	-11.9114	-33.354815	0.000385	3.852480	1.305256	-0.000154
1305	1.2975e+02	-11.9515	-33.471892	0.000294	2.940050	0.996116	-0.000118
1306	1.2985e+02	-11.9900	-33.508227	0.000091	0.912429	0.309139	-0.000037
1307	1.2995e+02	-12.0317	-33.657601	0.000375	3.751099	1.270907	-0.000150
1308	1.3005e+02	-12.0686	-33.758529	0.000253	2.534526	0.858721	-0.000101
1309	1.3015e+02	-12.1071	-33.851383	0.000233	2.331764	0.790023	-0.000093
1310	1.3025e+02	-12.1505	-33.932126	0.000203	2.027621	0.686977	-0.000081
1311	1.3034e+02	-12.1938	-34.065351	0.000335	3.345575	1.133511	-0.000134
1312	1.3044e+02	-12.2339	-34.178391	0.000284	2.838669	0.961767	-0.000114
1313	1.3054e+02	-12.2740	-34.251060	0.000182	1.824859	0.618279	-0.000073
1314	1.3064e+02	-12.3125	-34.364099	0.000284	2.838669	0.961767	-0.000114
1315	1.3074e+02	-12.3542	-34.424656	0.000152	1.520716	0.515232	-0.000061
1316	1.3084e+02	-12.3943	-34.529622	0.000264	2.635907	0.893070	-0.000105
1317	1.3094e+02	-12.4360	-34.602290	0.000182	1.824859	0.618279	-0.000073
1318	1.3104e+02	-12.4601	-34.743590	0.000355	3.548337	1.202209	-0.000142
1319	1.3114e+02	-12.5050	-34.852593	0.000274	2.737288	0.927418	-0.000110
1320	1.3124e+02	-12.5435	-34.969670	0.000294	2.940050	0.996116	-0.000118
1321	1.3134e+02	-12.5900	-35.058487	0.000223	2.230383	0.755674	-0.000089
1322	1.3144e+02	-12.6269	-35.187675	0.000324	3.244194	1.099163	-0.000130
1323	1.3154e+02	-12.6638	-35.284566	0.000243	2.433145	0.824372	-0.000097
1324	1.3164e+02	-12.7071	-35.409718	0.000314	3.142813	1.064814	-0.000126
1325	1.3174e+02	-12.7569	-35.437978	0.000071	0.709667	0.240442	-0.000028
1326	1.3184e+02	-12.7873	-35.583314	0.000365	3.649718	1.236558	-0.000146
1327	1.3194e+02	-12.8226	-35.716540	0.000335	3.345575	1.133511	-0.000134
1328	1.3204e+02	-12.8627	-35.777097	0.000152	1.520716	0.515232	-0.000061
1329	1.3214e+02	-12.9012	-35.849765	0.000182	1.824859	0.618279	-0.000073
1330	1.3224e+02	-12.9510	-35.954731	0.000264	2.635907	0.893070	-0.000105
1331	1.3234e+02	-12.9815	-36.067771	0.000284	2.838669	0.961767	-0.000114
1332	1.3243e+02	-13.0200	-36.087956	0.000051	0.506905	0.171744	-0.000020
1333	1.3253e+02	-13.0633	-36.213108	0.000314	3.142813	1.064814	-0.000126
1334	1.3263e+02	-13.1066	-36.277702	0.000162	1.622097	0.549581	-0.000065
1335	1.3273e+02	-13.1483	-36.362482	0.000213	2.129002	0.721325	-0.000085
1336	1.3283e+02	-13.1740	-36.519930	0.000395	3.953861	1.339604	-0.000158
1337	1.3293e+02	-13.2205	-36.645081	0.000314	3.142813	1.064814	-0.000126
1338	1.3303e+02	-13.2558	-36.754084	0.000274	2.737288	0.927418	-0.000110
1339	1.3313e+02	-13.2975	-36.883272	0.000324	3.244194	1.099163	-0.000130
1340	1.3323e+02	-13.3360	-36.943829	0.000152	1.520716	0.515232	-0.000061
1341	1.3333e+02	-13.3809	-37.081092	0.000345	3.446956	1.167860	-0.000138
1342	1.3343e+02	-13.4226	-37.133575	0.000132	1.317954	0.446535	-0.000053
1343	1.3353e+02	-13.4515	-37.311208	0.000446	4.460766	1.511348	-0.000179
1344	1.3363e+02	-13.4996	-37.339468	0.000071	0.709667	0.240442	-0.000028
1345	1.3373e+02	-13.5510	-37.484805	0.000365	3.649718	1.236558	-0.000146
1346	1.3383e+02	-13.5814	-37.525177	0.000101	1.013810	0.343488	-0.000041
1347	1.3393e+02	-13.6215	-37.634179	0.000274	2.737288	0.927418	-0.000110
1348	1.3403e+02	-13.6665	-37.795665	0.000406	4.055242	1.373953	-0.000162
1349	1.3413e+02	-13.7001	-37.823925	0.000071	0.709667	0.240442	-0.000028
1350	1.3423e+02	-13.7467	-37.896593	0.000182	1.824859	0.618279	-0.000073
1351	1.3432e+02	-13.7884	-37.989447	0.000233	2.331764	0.790023	-0.000093
1352	1.3442e+02	-13.8221	-38.062116	0.000182	1.824859	0.618279	-0.000073
1353	1.3452e+02	-13.8606	-38.203415	0.000355	3.548337	1.202209	-0.000142
1354	1.3462e+02	-13.8975	-38.324530	0.000304	3.041431	1.030465	-0.000122
1355	1.3472e+02	-13.9392	-38.461792	0.000345	3.446956	1.167860	-0.000138
1356	1.3482e+02	-13.9793	-38.578869	0.000294	2.940050	0.996116	-0.000118
1357	1.3492e+02	-14.0146	-38.671723	0.000233	2.331764	0.790023	-0.000093
1358	1.3502e+02	-14.0547	-38.720169	0.000122	1.216573	0.412186	-0.000049
1359	1.3512e+02	-14.0980	-38.825134	0.000264	2.635907	0.893070	-0.000105
1360	1.3522e+02	-14.1445	-38.950286	0.000314	3.142813	1.064814	-0.000126
1361	1.3532e+02	-14.1734	-39.039103	0.000223	2.230383	0.755674	-0.000089
1362	1.3542e+02	-14.2279	-39.164254	0.000314	3.142813	1.064814	-0.000126
1363	1.3552e+02	-14.2600	-39.244997	0.000203	2.027621	0.686977	-0.000081
1364	1.3562e+02	-14.3049	-39.333813	0.000223	2.230383	0.755674	-0.000089
1365	1.3572e+02	-14.3386	-39.446853	0.000284	2.838669	0.961767	-0.000114
1366	1.3582e+02	-14.3723	-39.523559	0.000193	1.926240	0.652628	-0.000077
1367	1.3592e+02	-14.4269	-39.600264	0.000193	1.926240	0.652628	-0.000077
1368	1.3602e+02	-14.4541	-39.697156	0.000243	2.433145	0.824372	-0.000097
1369	1.3612e+02	-14.4958	-39.741564	0.000112	1.115192	0.377837	-0.000045
1370	1.3622e+02	-14.5327	-39.874790	0.000335	3.345575	1.133511	-0.000134
1371	1.3631e+02	-14.5745	-39.979755	0.000264	2.635907	0.893070	-0.000105
1372	1.3641e+02	-14.6130	-40.096832	0.000294	2.940050	0.996116	-0.000118
1373	1.3651e+02	-14.6643	-40.221983	0.000314	3.142813	1.064814	-0.000126
1374	1.3661e+02	-14.6996	-40.351172	0.000324	3.244194	1.099163	-0.000130
1375	1.3671e+02	-14.7397	-40.399617	0.000122	1.216573	0.412186	-0.000049
1376	1.3681e+02	-14.7862	-40.544954	0.000365	3.649718	1.236558	-0.000146
1377	1.3691e+02	-14.8167	-40.609548	0.000162	1.622097	0.549581	-0.000065
1378	1.3701e+02	-14.8472	-40.710477	0.000253	2.534526	0.858721	-0.000101
1379	1.3711e+02	-14.9017	-40.811405	0.000253	2.534526	0.858721	-0.000101
1380	1.3721e+02	-14.9402	-40.900222	0.000223	2.230383	0.755674	-0.000089
1381	1.3731e+02	-14.9723	-41.025373	0.000314	3.142813	1.064814	-0.000126
1382	1.3741e+02	-15.0156	-41.118227	0.000233	2.331764	0.790023	-0.000093
1383	1.3751e+02	-15.0541	-41.174747	0.000142	1.419335	0.480884	-0.000057
1384	1.3761e+02	-15.0990	-41.291824	0.000294	2.940050	0.996116	-0.000118
1385	1.3771e+02	-15.1375	-41.360456	0.000172	1.723478	0.583930	-0.000069
1386	1.3781e+02	-15.1728	-41.429087	0.000172	1.723478	0.583930	-0.000069
1387	1.3791e+02	-15.2194	-41.610758	0.000456	4.562147	1.545697	-0.000183
1388	1.3801e+02	-15.2546	-41.679389	0.000172	1.723478	0.583930	-0.000069
1389	1.3811e+02	-15.2883	-41.780318	0.000253	2.534526	0.858721	-0.000101
1390	1.3821e+02	-15.3317	-41.901432	0.000304	3.041431	1.030465	-0.000122
1391	1.3831e+02	-15.3750	-41.966026	0.000162	1.622097	0.549581	-0.000065
1392	1.3840e+02	-15.4103	-42.002360	0.000091	0.912429	0.309139	-0.000037
1393	1.3850e+02	-15.4552	-42.143660	0.000355	3.548337	1.202209	-0.000142
1394	1.3860e+02	-15.4937	-42.236514	0.000233	2.331764	0.790023	-0.000093
1395	1.3870e+02	-15.5370	-42.381851	0.000365	3.649718	1.236558	-0.000146
1396	1.3880e+02	-15.5691	-42.422222	0.000101	1.013810	0.343488	-0.000041
1397	1.3890e+02	-15.6076	-42.551411	0.000324	3.244194	1.099163	-0.000130
1398	1.3900e+02	-15.6445	-42.603893	0.000132	1.317954	0.446535	-0.000053
1399	1.3910e+02	-15.6974	-42.753267	0.000375	3.751099	1.270907	-0.000150
1400	1.3920e+02	-15.7359	-42.817862	0.000162	1.622097	0.549581	-0.000065
1401	1.3930e+02	-15.7744	-42.922827	0.000264	2.635907	0.893070	-0.000105
1402	1.3940e+02	-15.8081	-42.999533	0.000193	1.926240	0.652628	-0.000077
1403	1.3950e+02	-15.8514	-43.120647	0.000304	3.041431	1.030465	-0.000122
1404	1.3960e+02	-15.8835	-43.185241	0.000162	1.622097	0.549581	-0.000065
1405	1.3970e+02	-15.9220	-43.290207	0.000264	2.635907	0.893070	-0.000105
1406	1.3980e+02	-15.9701	-43.399209	0.000274	2.737288	0.927418	-0.000110
1407	1.3990e+02	-16.0038	-43.520323	0.000304	3.041431	1.030465	-0.000122
1408	1.4000e+02	-16.0455	-43.645474	0.000314	3.142813	1.064814	-0.000126
1409	1.4010e+02	-16.0921	-43.693920	0.000122	1.216573	0.412186	-0.000049
1410	1.4020e+02	-16.1322	-43.802923	0.000274	2.737288	0.927418	-0.000110
1411	1.4029e+02	-16.1675	-43.895777	0.000233	2.331764	0.790023	-0.000093
1412	1.4039e+02	-16.2060	-44.037077	0.000355	3.548337	1.202209	-0.000142
1413	1.4049e+02	-16.2477	-44.129931	0.000233	2.331764	0.790023	-0.000093
1414	1.4059e+02	-16.2910	-44.210673	0.000203	2.027621	0.686977	-0.000081
1415	1.4069e+02	-16.3279	-44.307565	0.000243	2.433145	0.824372	-0.000097
1416	1.4079e+02	-16.3792	-44.392345	0.000213	2.129002	0.721325	-0.000085
1417	1.4089e+02	-16.4081	-44.485199	0.000233	2.331764	0.790023	-0.000093
1418	1.4099e+02	-16.4498	-44.602276	0.000294	2.940050	0.996116	-0.000118
1419	1.4109e+02	-16.4995	-44.707241	0.000264	2.635907	0.893070	-0.000105
1420	1.4119e+02	-16.5300	-44.812207	0.000264	2.635907	0.893070	-0.000105
1421	1.4129e+02	-16.5605	-44.901024	0.000223	2.230383	0.755674	-0.000089
1422	1.4139e+02	-16.6070	-45.026175	0.000314	3.142813	1.064814	-0.000126
1423	1.4149e+02	-16.6487	-45.123066	0.000243	2.433145	0.824372	-0.000097
1424	1.4159e+02	-16.6856	-45.179586	0.000142	1.419335	0.480884	-0.000057
1425	1.4169e+02	-16.7241	-45.320886	0.000355	3.548337	1.202209	-0.000142
1426	1.4179e+02	-16.7658	-45.421814	0.000253	2.534526	0.858721	-0.000101
1427	1.4189e+02	-16.8172	-45.506594	0.000213	2.129002	0.721325	-0.000085
1428	1.4199e+02	-16.8541	-45.635782	0.000324	3.244194	1.099163	-0.000130
1429	1.4209e+02	-16.8894	-45.708451	0.000182	1.824859	0.618279	-0.000073
1430	1.4219e+02	-16.9359	-45.813416	0.000264	2.635907	0.893070	-0.000105
1431	1.4228e+02	-16.9664	-45.878011	0.000162	1.622097	0.549581	-0.000065
1432	1.4238e+02	-17.0161	-45.995087	0.000294	2.940050	0.996116	-0.000118
1433	1.4248e+02	-17.0498	-46.091979	0.000243	2.433145	0.824372	-0.000097
1434	1.4258e+02	-17.0867	-46.209056	0.000294	2.940050	0.996116	-0.000118
1435	1.4268e+02	-17.1396	-46.289798	0.000203	2.027621	0.686977	-0.000081
1436	1.4278e+02	-17.1701	-46.410912	0.000304	3.041431	1.030465	-0.000122
1437	1.4288e+02	-17.2070	-46.519915	0.000274	2.737288	0.927418	-0.000110
1438	1.4298e+02	-17.2439	-46.641029	0.000304	3.041431	1.030465	-0.000122
1439	1.4308e+02	-17.2888	-46.725809	0.000213	2.129002	0.721325	-0.000085
1440	1.4318e+02	-17.3241	-46.818663	0.000233	2.331764	0.790023	-0.000093
1441	1.4328e+02	-17.3626	-46.899406	0.000203	2.027621	0.686977	-0.000081
1442	1.4338e+02	-17.4059	-47.004371	0.000264	2.635907	0.893070	-0.000105
1443	1.4348e+02	-17.4460	-47.149708	0.000365	3.649718	1.236558	-0.000146
1444	1.4358e+02	-17.4877	-47.250637	0.000253	2.534526	0.858721	-0.000101
1445	1.4368e+02	-17.5230	-47.327342	0.000193	1.926240	0.652628	-0.000077
1446	1.4378e+02	-17.5663	-47.436345	0.000274	2.737288	0.927418	-0.000110
1447	1.4388e+02	-17.6097	-47.553422	0.000294	2.940050	0.996116	-0.000118
1448	1.4398e+02	-17.6401	-47.634165	0.000203	2.027621	0.686977	-0.000081
1449	1.4408e+02	-17.6899	-47.727019	0.000233	2.331764	0.790023	-0.000093
1450	1.4418e+02	-17.7268	-47.852170	0.000314	3.142813	1.064814	-0.000126
1451	1.4428e+02	-17.7573	-47.949061	0.000243	2.433145	0.824372	-0.000097
1452	1.4437e+02	-17.8070	-48.041915	0.000233	2.331764	0.790023	-0.000093
1453	1.4447e+02	-17.8455	-48.138807	0.000243	2.433145	0.824372	-0.000097
1454	1.4457e+02	-17.8856	-48.280106	0.000355	3.548337	1.202209	-0.000142
1455	1.4467e+02	-17.9193	-48.360849	0.000203	2.027621	0.686977	-0.000081
1456	1.4477e+02	-17.9562	-48.506186	0.000365	3.649718	1.236558	-0.000146
1457	1.4487e+02	-18.0075	-48.590966	0.000213	2.129002	0.721325	-0.000085
1458	1.4497e+02	-18.0364	-48.691894	0.000253	2.534526	0.858721	-0.000101
1459	1.4507e+02	-18.0829	-48.760525	0.000172	1.723478	0.583930	-0.000069
1460	1.4517e+02	-18.1230	-48.897788	0.000345	3.446956	1.167860	-0.000138
1461	1.4527e+02	-18.1711	-49.010828	0.000284	2.838669	0.961767	-0.000114
1462	1.4537e+02	-18.2064	-49.180388	0.000426	4.258004	1.442651	-0.000170
1463	1.4547e+02	-18.2401	-49.232870	0.000132	1.317954	0.446535	-0.000053
1464	1.4557e+02	-18.2899	-49.325724	0.000233	2.331764	0.790023	-0.000093
1465	1.4567e+02	-18.3203	-49.471061	0.000365	3.649718	1.236558	-0.000146
1466	1.4577e+02	-18.3637	-49.588138	0.000294	2.940050	0.996116	-0.000118
1467	1.4587e+02	-18.4006	-49.685030	0.000243	2.433145	0.824372	-0.000097
1468	1.4597e+02	-18.4439	-49.777884	0.000233	2.331764	0.790023	-0.000093
1469	1.4607e+02	-18.4888	-49.894961	0.000294	2.940050	0.996116	-0.000118
1470	1.4617e+02	-18.5161	-49.995889	0.000253	2.534526	0.858721	-0.000101
1471	1.4626e+02	-18.5578	-50.137189	0.000355	3.548337	1.202209	-0.000142
1472	1.4636e+02	-18.6059	-50.270414	0.000335	3.345575	1.133511	-0.000134
1473	1.4646e+02	-18.6412	-50.326934	0.000142	1.419335	0.480884	-0.000057
1474	1.4656e+02	-18.6797	-50.492457	0.000416	4.156623	1.408302	-0.000166
1475	1.4666e+02	-18.7214	-50.573199	0.000203	2.027621	0.686977	-0.000081
1476	1.4676e+02	-18.7519	-50.722573	0.000375	3.751099	1.270907	-0.000150
1477	1.4686e+02	-18.7984	-50.855799	0.000335	3.345575	1.133511	-0.000134
1478	1.4696e+02	-18.8353	-50.948653	0.000233	2.331764	0.790023	-0.000093
1479	1.4706e+02	-18.8834	-51.069767	0.000304	3.041431	1.030465	-0.000122
1480	1.4716e+02	-18.9235	-51.174733	0.000264	2.635907	0.893070	-0.000105
1481	1.4726e+02	-18.9652	-51.336218	0.000406	4.055242	1.373953	-0.000162
1482	1.4736e+02	-18.9973	-51.441184	0.000264	2.635907	0.893070	-0.000105
1483	1.4746e+02	-19.0422	-51.558261	0.000294	2.940050	0.996116	-0.000118
1484	1.4756e+02	-19.0856	-51.699560	0.000355	3.548337	1.202209	-0.000142
1485	1.4766e+02	-19.1257	-51.788377	0.000223	2.230383	0.755674	-0.000089
1486	1.4776e+02	-19.1577	-51.925640	0.000345	3.446956	1.167860	-0.000138
1487	1.4786e+02	-19.2059	-52.038680	0.000284	2.838669	0.961767	-0.000114
1488	1.4796e+02	-19.2524	-52.163831	0.000314	3.142813	1.064814	-0.000126
1489	1.4806e+02	-19.2845	-52.297056	0.000335	3.345575	1.133511	-0.000134
1490	1.4816e+02	-19.3262	-52.418170	0.000304	3.041431	1.030465	-0.000122
1491	1.4825e+02	-19.3470	-52.555433	0.000345	3.446956	1.167860	-0.000138
1492	1.4835e+02	-19.4000	-52.624064	0.000172	1.723478	0.583930	-0.000069
1493	1.4845e+02	-19.4337	-52.773438	0.000375	3.751099	1.270907	-0.000150
1494	1.4855e+02	-19.4754	-52.906664	0.000335	3.345575	1.133511	-0.000134
1495	1.4865e+02	-19.5091	-53.003555	0.000243	2.433145	0.824372	-0.000097
1496	1.4875e+02	-19.5540	-53.132743	0.000324	3.244194	1.099163	-0.000130
1497	1.4885e+02	-19.6021	-53.290192	0.000395	3.953861	1.339604	-0.000158
1498	1.4895e+02	-19.6326	-53.387083	0.000243	2.433145	0.824372	-0.000097
1499	1.4905e+02	-19.6791	-53.520308	0.000335	3.345575	1.133511	-0.000134
1500	1.4915e+02	-19.7176	-53.701980	0.000456	4.562147	1.545697	-0.000183
1501	1.4925e+02	-19.7625	-53.790797	0.000223	2.230383	0.755674	-0.000089
1502	1.4935e+02	-19.7898	-53.944208	0.000385	3.852480	1.305256	-0.000154
1503	1.4945e+02	-19.8428	-54.049173	0.000264	2.635907	0.893070	-0.000105
1504	1.4955e+02	-19.8700	-54.198547	0.000375	3.751099	1.270907	-0.000150
1505	1.4965e+02	-19.9230	-54.360033	0.000406	4.055242	1.373953	-0.000162
1506	1.4975e+02	-19.9551	-54.513444	0.000385	3.852480	1.305256	-0.000154
1507	1.4985e+02	-19.9919	-54.646669	0.000335	3.345575	1.133511	-0.000134
1508	1.4995e+02	-19.9567	-54.646669	0.000000	0.000000	0.000000	0.000000
1509	1.5005e+02	-19.9198	-54.614372	0.000081	0.811048	0.274791	0.000032
1510	1.5015e+02	-19.8732	-54.569964	0.000112	1.115192	0.377837	0.000045
1511	1.5025e+02	-19.8283	-54.537667	0.000081	0.811048	0.274791	0.000032
1512	1.5034e+02	-19.7898	-54.505370	0.000081	0.811048	0.274791	0.000032
1513	1.5044e+02	-19.7529	-54.469035	0.000091	0.912429	0.309139	0.000037
1514	1.5054e+02	-19.7240	-54.424627	0.000112	1.115192	0.377837	0.000045
1515	1.5064e+02	-19.6727	-54.396367	0.000071	0.709667	0.240442	0.000028
1516	1.5074e+02	-19.6390	-54.368107	0.000071	0.709667	0.240442	0.000028
1517	1.5084e+02	-19.5957	-54.335810	0.000081	0.811048	0.274791	0.000032
1518	1.5094e+02	-19.5604	-54.255067	0.000203	2.027621	0.686977	0.000081
1519	1.5104e+02	-19.5235	-54.234882	0.000051	0.506905	0.171744	0.000020
1520	1.5114e+02	-19.4690	-54.202584	0.000081	0.811048	0.274791	0.000032
1521	1.5124e+02	-19.4337	-54.133953	0.000172	1.723478	0.583930	0.000069
1522	1.5134e+02	-19.4048	-54.089545	0.000112	1.115192	0.377837	0.000045
1523	1.5144e+02	-19.3599	-54.016876	0.000182	1.824859	0.618279	0.000073
1524	1.5154e+02	-19.3198	-54.037062	-0.000051	-0.506905	-0.171744	-0.000020
1525	1.5164e+02	-19.2716	-53.968431	0.000172	1.723478	0.583930	0.000069
1526	1.5174e+02	-19.2364	-53.932096	0.000091	0.912429	0.309139	0.000037
1527	1.5184e+02	-19.1979	-53.823094	0.000274	2.737288	0.927418	0.000110
1528	1.5194e+02	-19.1610	-53.774648	0.000122	1.216573	0.412186	0.000049
1529	1.5204e+02	-19.1289	-53.710054	0.000162	1.622097	0.549581	0.000065
1530	1.5214e+02	-19.0759	-53.685831	0.000061	0.608286	0.206093	0.000024
1531	1.5224e+02	-19.0438	-53.592977	0.000233	2.331764	0.790023	0.000093
1532	1.5233e+02	-18.9925	-53.512234	0.000203	2.027621	0.686977	0.000081
1533	1.5243e+02	-18.9636	-53.475900	0.000091	0.912429	0.309139	0.000037
1534	1.5253e+02	-18.9267	-53.407269	0.000172	1.723478	0.583930	0.000069
1535	1.5263e+02	-18.8786	-53.294229	0.000284	2.838669	0.961767	0.000114
1536	1.5273e+02	-18.8353	-53.261932	0.000081	0.811048	0.274791	0.000032
1537	1.5283e+02	-18.8048	-53.217523	0.000112	1.115192	0.377837	0.000045
1538	1.5293e+02	-18.7679	-53.181189	0.000091	0.912429	0.309139	0.000037
1539	1.5303e+02	-18.7262	-53.072186	0.000274	2.737288	0.927418	0.000110
1540	1.5313e+02	-18.6781	-53.011629	0.000152	1.520716	0.515232	0.000061
1541	1.5323e+02	-18.6492	-52.959147	0.000132	1.317954	0.446535	0.000053
1542	1.5333e+02	-18.6027	-52.906664	0.000132	1.317954	0.446535	0.000053
1543	1.5343e+02	-18.5562	-52.862255	0.000112	1.115192	0.377837	0.000045
1544	1.5353e+02	-18.5225	-52.789587	0.000182	1.824859	0.618279	0.000073
1545	1.5363e+02	-18.4743	-52.696733	0.000233	2.331764	0.790023	0.000093
1546	1.5373e+02	-18.4423	-52.640213	0.000142	1.419335	0.480884	0.000057
1547	1.5383e+02	-18.3989	-52.571582	0.000172	1.723478	0.583930	0.000069
1548	1.5393e+02	-18.3685	-52.502950	0.000172	1.723478	0.583930	0.000069
1549	1.5403e+02	-18.3332	-52.466616	0.000091	0.912429	0.309139	0.000037
1550	1.5413e+02	-18.2834	-52.333391	0.000335	3.345575	1.133511	0.000134
1551	1.5422e+02	-18.2449	-52.272834	0.000152	1.520716	0.515232	0.000061
1552	1.5432e+02	-18.2048	-52.196128	0.000193	1.926240	0.652628	0.000077
1553	1.5442e+02	-18.1647	-52.159794	0.000091	0.912429	0.309139	0.000037
1554	1.5452e+02	-18.1214	-52.070977	0.000223	2.230383	0.755674	0.000089
1555	1.5462e+02	-18.0829	-51.990234	0.000203	2.027621	0.686977	0.000081
1556	1.5472e+02	-18.0492	-51.905454	0.000213	2.129002	0.721325	0.000085
1557	1.5482e+02	-17.9995	-51.869120	0.000091	0.912429	0.309139	0.000037
1558	1.5492e+02	-17.9626	-51.808563	0.000152	1.520716	0.515232	0.000061
1559	1.5502e+02	-17.9209	-51.731857	0.000193	1.926240	0.652628	0.000077
1560	1.5512e+02	-17.8888	-51.663226	0.000172	1.723478	0.583930	0.000069
1561	1.5522e+02	-17.8423	-51.558261	0.000264	2.635907	0.893070	0.000105
1562	1.5532e+02	-17.8006	-51.449258	0.000274	2.737288	0.927418	0.000110
1563	1.5542e+02	-17.7605	-51.400812	0.000122	1.216573	0.412186	0.000049
1564	1.5552e+02	-17.7220	-51.316032	0.000213	2.129002	0.721325	0.000085
1565	1.5562e+02	-17.6819	-51.259512	0.000142	1.419335	0.480884	0.000057
1566	1.5572e+02	-17.6417	-51.186844	0.000182	1.824859	0.618279	0.000073
1567	1.5582e+02	-17.6081	-51.126287	0.000152	1.520716	0.515232	0.000061
1568	1.5592e+02	-17.5599	-51.061693	0.000162	1.622097	0.549581	0.000065
1569	1.5602e+02	-17.5246	-50.952690	0.000274	2.737288	0.927418	0.000110
1570	1.5612e+02	-17.4861	-50.896170	0.000142	1.419335	0.480884	0.000057
1571	1.5622e+02	-17.4492	-50.742759	0.000385	3.852480	1.305256	0.000154
1572	1.5631e+02	-17.4075	-50.718536	0.000061	0.608286	0.206093	0.000024
1573	1.5641e+02	-17.3658	-50.686239	0.000081	0.811048	0.274791	0.000032
1574	1.5651e+02	-17.3257	-50.569162	0.000294	2.940050	0.996116	0.000118
1575	1.5661e+02	-17.2792	-50.508605	0.000152	1.520716	0.515232	0.000061
1576	1.5671e+02	-17.2503	-50.444011	0.000162	1.622097	0.549581	0.000065
1577	1.5681e+02	-17.2118	-50.363268	0.000203	2.027621	0.686977	0.000081
1578	1.5691e+02	-17.1669	-50.262340	0.000253	2.534526	0.858721	0.000101
1579	1.5701e+02	-17.1284	-50.230043	0.000081	0.811048	0.274791	0.000032
1580	1.5711e+02	-17.0787	-50.145263	0.000213	2.129002	0.721325	0.000085
1581	1.5721e+02	-17.0418	-50.040297	0.000264	2.635907	0.893070	0.000105
1582	1.5731e+02	-17.0145	-49.983778	0.000142	1.419335	0.480884	0.000057
1583	1.5741e+02	-16.9632	-49.854589	0.000324	3.244194	1.099163	0.000130
1584	1.5751e+02	-16.9327	-49.802106	0.000132	1.317954	0.446535	0.000053
1585	1.5761e+02	-16.8878	-49.761735	0.000101	1.013810	0.343488	0.000041
1586	1.5771e+02	-16.8525	-49.672918	0.000223	2.230383	0.755674	0.000089
1587	1.5781e+02	-16.8188	-49.563915	0.000274	2.737288	0.927418	0.000110
1588	1.5791e+02	-16.7626	-49.515470	0.000122	1.216573	0.412186	0.000049
1589	1.5801e+02	-16.7305	-49.390319	0.000314	3.142813	1.064814	0.000126
1590	1.5811e+02	-16.6904	-49.353984	0.000091	0.912429	0.309139	0.000037
1591	1.5821e+02	-16.6439	-49.273242	0.000203	2.027621	0.686977	0.000081
1592	1.5830e+02	-16.6054	-49.240945	0.000081	0.811048	0.274791	0.000032
1593	1.5840e+02	-16.5653	-49.152128	0.000223	2.230383	0.755674	0.000089
1594	1.5850e+02	-16.5316	-49.067348	0.000213	2.129002	0.721325	0.000085
1595	1.5860e+02	-16.4963	-48.990642	0.000193	1.926240	0.652628	0.000077
1596	1.5870e+02	-16.4498	-48.865491	0.000314	3.142813	1.064814	0.000126
1597	1.5880e+02	-16.3985	-48.792823	0.000182	1.824859	0.618279	0.000073
1598	1.5890e+02	-16.3664	-48.708043	0.000213	2.129002	0.721325	0.000085
1599	1.5900e+02	-16.3295	-48.671708	0.000091	0.912429	0.309139	0.000037
1600	1.5910e+02	-16.2958	-48.562706	0.000274	2.737288	0.927418	0.000110
1601	1.5920e+02	-16.2557	-48.461777	0.000253	2.534526	0.858721	0.000101
1602	1.5930e+02	-16.2156	-48.381035	0.000203	2.027621	0.686977	0.000081
1603	1.5940e+02	-16.1755	-48.344700	0.000091	0.912429	0.309139	0.000037
1604	1.5950e+02	-16.1402	-48.272032	0.000182	1.824859	0.618279	0.000073
1605	1.5960e+02	-16.0953	-48.187252	0.000213	2.129002	0.721325	0.000085
1606	1.5970e+02	-16.0536	-48.074212	0.000284	2.838669	0.961767	0.000114
1607	1.5980e+02	-16.0183	-48.021730	0.000132	1.317954	0.446535	0.000053
1608	1.5990e+02	-15.9653	-47.916764	0.000264	2.635907	0.893070	0.000105
1609	1.6000e+02	-15.9252	-47.880430	0.000091	0.912429	0.309139	0.000037
1610	1.6010e+02	-15.8899	-47.763353	0.000294	2.940050	0.996116	0.000118
1611	1.6019e+02	-15.8530	-47.674536	0.000223	2.230383	0.755674	0.000089
1612	1.6029e+02	-15.8113	-47.589756	0.000213	2.129002	0.721325	0.000085
1613	1.6039e+02	-15.7664	-47.521125	0.000172	1.723478	0.583930	0.000069
1614	1.6049e+02	-15.7279	-47.436345	0.000213	2.129002	0.721325	0.000085
1615	1.6059e+02	-15.6974	-47.359639	0.000193	1.926240	0.652628	0.000077
1616	1.6069e+02	-15.6573	-47.286971	0.000182	1.824859	0.618279	0.000073
1617	1.6079e+02	-15.6124	-47.117411	0.000426	4.258004	1.442651	0.000170
1618	1.6089e+02	-15.5819	-47.085114	0.000081	0.811048	0.274791	0.000032
1619	1.6099e+02	-15.5338	-46.996297	0.000223	2.230383	0.755674	0.000089
1620	1.6109e+02	-15.4985	-46.943814	0.000132	1.317954	0.446535	0.000053
1621	1.6119e+02	-15.4568	-46.842886	0.000253	2.534526	0.858721	0.000101
1622	1.6129e+02	-15.4119	-46.794440	0.000122	1.216573	0.412186	0.000049
1623	1.6139e+02	-15.3766	-46.693512	0.000253	2.534526	0.858721	0.000101
1624	1.6149e+02	-15.3300	-46.608732	0.000213	2.129002	0.721325	0.000085
1625	1.6159e+02	-15.2980	-46.511841	0.000243	2.433145	0.824372	0.000097
1626	1.6169e+02	-15.2482	-46.471469	0.000101	1.013810	0.343488	0.000041
1627	1.6179e+02	-15.2113	-46.362467	0.000274	2.737288	0.927418	0.000110
1628	1.6189e+02	-15.1793	-46.293836	0.000172	1.723478	0.583930	0.000069
1629	1.6199e+02	-15.1295	-46.148499	0.000365	3.649718	1.236558	0.000146
1630	1.6209e+02	-15.0910	-46.100053	0.000122	1.216573	0.412186	0.000049
1631	1.6219e+02	-15.0477	-45.999125	0.000253	2.534526	0.858721	0.000101
1632	1.6228e+02	-15.0156	-45.942605	0.000142	1.419335	0.480884	0.000057
1633	1.6238e+02	-14.9851	-45.857825	0.000213	2.129002	0.721325	0.000085
1634	1.6248e+02	-14.9370	-45.728637	0.000324	3.244194	1.099163	0.000130
1635	1.6258e+02	-14.8985	-45.716525	0.000030	0.304143	0.103046	0.000012
1636	1.6268e+02	-14.8568	-45.591374	0.000314	3.142813	1.064814	0.000126
1637	1.6278e+02	-14.8183	-45.522743	0.000172	1.723478	0.583930	0.000069
1638	1.6288e+02	-14.7814	-45.413740	0.000274	2.737288	0.927418	0.000110
1639	1.6298e+02	-14.7413	-45.332997	0.000203	2.027621	0.686977	0.000081
1640	1.6308e+02	-14.6996	-45.272440	0.000152	1.520716	0.515232	0.000061
1641	1.6318e+02	-14.6675	-45.183623	0.000223	2.230383	0.755674	0.000089
1642	1.6328e+02	-14.6065	-45.090769	0.000233	2.331764	0.790023	0.000093
1643	1.6338e+02	-14.5729	-45.026175	0.000162	1.622097	0.549581	0.000065
1644	1.6348e+02	-14.5327	-44.961581	0.000162	1.622097	0.549581	0.000065
1645	1.6358e+02	-14.4910	-44.828355	0.000335	3.345575	1.133511	0.000134
1646	1.6368e+02	-14.4573	-44.751650	0.000193	1.926240	0.652628	0.000077
1647	1.6378e+02	-14.4076	-44.630536	0.000304	3.041431	1.030465	0.000122
1648	1.6388e+02	-14.3852	-44.578053	0.000132	1.317954	0.446535	0.000053
1649	1.6398e+02	-14.3322	-44.477124	0.000253	2.534526	0.858721	0.000101
1650	1.6408e+02	-14.2969	-44.396382	0.000203	2.027621	0.686977	0.000081
1651	1.6418e+02	-14.2616	-44.287379	0.000274	2.737288	0.927418	0.000110
1652	1.6427e+02	-14.2087	-44.198562	0.000223	2.230383	0.755674	0.000089
1653	1.6437e+02	-14.1862	-44.113782	0.000213	2.129002	0.721325	0.000085
1654	1.6447e+02	-14.1477	-44.069374	0.000112	1.115192	0.377837	0.000045
1655	1.6457e+02	-14.1028	-43.980557	0.000223	2.230383	0.755674	0.000089
1656	1.6467e+02	-14.0579	-43.887703	0.000233	2.331764	0.790023	0.000093
1657	1.6477e+02	-14.0178	-43.798886	0.000223	2.230383	0.755674	0.000089
1658	1.6487e+02	-13.9841	-43.714106	0.000213	2.129002	0.721325	0.000085
1659	1.6497e+02	-13.9392	-43.641437	0.000182	1.824859	0.618279	0.000073
1660	1.6507e+02	-13.8943	-43.556657	0.000213	2.129002	0.721325	0.000085
1661	1.6517e+02	-13.8590	-43.475915	0.000203	2.027621	0.686977	0.000081
1662	1.6527e+02	-13.8108	-43.346726	0.000324	3.244194	1.099163	0.000130
1663	1.6537e+02	-13.7804	-43.241761	0.000264	2.635907	0.893070	0.000105
1664	1.6547e+02	-13.7354	-43.128721	0.000284	2.838669	0.961767	0.000114
1665	1.6557e+02	-13.6985	-43.080275	0.000122	1.216573	0.412186	0.000049
1666	1.6567e+02	-13.6584	-42.963199	0.000294	2.940050	0.996116	0.000118
1667	1.6577e+02	-13.6280	-42.898604	0.000162	1.622097	0.549581	0.000065
1668	1.6587e+02	-13.5766	-42.793639	0.000264	2.635907	0.893070	0.000105
1669	1.6597e+02	-13.5477	-42.696748	0.000243	2.433145	0.824372	0.000097
1670	1.6607e+02	-13.5012	-42.660413	0.000091	0.912429	0.309139	0.000037
1671	1.6616e+02	-13.4643	-42.543336	0.000294	2.940050	0.996116	0.000118
1672	1.6626e+02	-13.4258	-42.410111	0.000335	3.345575	1.133511	0.000134
1673	1.6636e+02	-13.3777	-42.345517	0.000162	1.622097	0.549581	0.000065
1674	1.6646e+02	-13.3456	-42.252663	0.000233	2.331764	0.790023	0.000093
1675	1.6656e+02	-13.3007	-42.163846	0.000223	2.230383	0.755674	0.000089
1676	1.6666e+02	-13.2622	-42.075029	0.000223	2.230383	0.755674	0.000089
1677	1.6676e+02	-13.2157	-42.026583	0.000122	1.216573	0.412186	0.000049
1678	1.6686e+02	-13.1836	-41.921618	0.000264	2.635907	0.893070	0.000105
1679	1.6696e+02	-13.1403	-41.832801	0.000223	2.230383	0.755674	0.000089
1680	1.6706e+02	-13.1034	-41.727835	0.000264	2.635907	0.893070	0.000105
1681	1.6716e+02	-13.0633	-41.606721	0.000304	3.041431	1.030465	0.000122
1682	1.6726e+02	-13.0200	-41.578461	0.000071	0.709667	0.240442	0.000028
1683	1.6736e+02	-12.9798	-41.461384	0.000294	2.940050	0.996116	0.000118
1684	1.6746e+02	-12.9462	-41.388716	0.000182	1.824859	0.618279	0.000073
1685	1.6756e+02	-12.8948	-41.263564	0.000314	3.142813	1.064814	0.000126
1686	1.6766e+02	-12.8627	-41.190896	0.000182	1.824859	0.618279	0.000073
1687	1.6776e+02	-12.8274	-41.122265	0.000172	1.723478	0.583930	0.000069
1688	1.6786e+02	-12.7841	-41.001151	0.000304	3.041431	1.030465	0.000122
1689	1.6796e+02	-12.7488	-40.928482	0.000182	1.824859	0.618279	0.000073
1690	1.6806e+02	-12.7135	-40.811405	0.000294	2.940050	0.996116	0.000118
1691	1.6816e+02	-12.6686	-40.718551	0.000233	2.331764	0.790023	0.000093
1692	1.6825e+02	-12.6301	-40.653957	0.000162	1.622097	0.549581	0.000065
1693	1.6835e+02	-12.5868	-40.553028	0.000253	2.534526	0.858721	0.000101
1694	1.6845e+02	-12.5419	-40.500546	0.000132	1.317954	0.446535	0.000053
1695	1.6855e+02	-12.5018	-40.403654	0.000243	2.433145	0.824372	0.000097
1696	1.6865e+02	-12.4633	-40.286578	0.000294	2.940050	0.996116	0.000118
1697	1.6875e+02	-12.4248	-40.213909	0.000182	1.824859	0.618279	0.000073
1698	1.6885e+02	-12.3767	-40.112981	0.000253	2.534526	0.858721	0.000101
1699	1.6895e+02	-12.3414	-39.963607	0.000375	3.751099	1.270907	0.000150
1700	1.6905e+02	-12.3077	-39.894975	0.000172	1.723478	0.583930	0.000069
1701	1.6915e+02	-12.2644	-39.794047	0.000253	2.534526	0.858721	0.000101
1702	1.6925e+02	-12.2275	-39.681007	0.000284	2.838669	0.961767	0.000114
1703	1.6935e+02	-12.1858	-39.592190	0.000223	2.230383	0.755674	0.000089
1704	1.6945e+02	-12.1521	-39.507410	0.000213	2.129002	0.721325	0.000085
1705	1.6955e+02	-12.1136	-39.418593	0.000223	2.230383	0.755674	0.000089
1706	1.6965e+02	-12.0783	-39.337851	0.000203	2.027621	0.686977	0.000081
1707	1.6975e+02	-12.0334	-39.253071	0.000213	2.129002	0.721325	0.000085
1708	1.6985e+02	-11.9868	-39.119845	0.000335	3.345575	1.133511	0.000134
1709	1.6995e+02	-11.9531	-39.047177	0.000182	1.824859	0.618279	0.000073
1710	1.7005e+02	-11.9002	-38.958360	0.000223	2.230383	0.755674	0.000089
1711	1.7015e+02	-11.8745	-38.901840	0.000142	1.419335	0.480884	0.000057
1712	1.7024e+02	-11.8200	-38.821097	0.000203	2.027621	0.686977	0.000081
1713	1.7034e+02	-11.7975	-38.744392	0.000193	1.926240	0.652628	0.000077
1714	1.7044e+02	-11.7462	-38.627315	0.000294	2.940050	0.996116	0.000118
1715	1.7054e+02	-11.7077	-38.506201	0.000304	3.041431	1.030465	0.000122
1716	1.7064e+02	-11.6660	-38.397198	0.000274	2.737288	0.927418	0.000110
1717	1.7074e+02	-11.6291	-38.332604	0.000162	1.622097	0.549581	0.000065
1718	1.7084e+02	-11.5874	-38.243787	0.000223	2.230383	0.755674	0.000089
1719	1.7094e+02	-11.5473	-38.130747	0.000284	2.838669	0.961767	0.000114
1720	1.7104e+02	-11.5152	-38.021744	0.000274	2.737288	0.927418	0.000110
1721	1.7114e+02	-11.4655	-37.904667	0.000294	2.940050	0.996116	0.000118
1722	1.7124e+02	-11.4318	-37.836036	0.000172	1.723478	0.583930	0.000069
1723	1.7134e+02	-11.3933	-37.751256	0.000213	2.129002	0.721325	0.000085
1724	1.7144e+02	-11.3596	-37.650328	0.000253	2.534526	0.858721	0.000101
1725	1.7154e+02	-11.3147	-37.553437	0.000243	2.433145	0.824372	0.000097
1726	1.7164e+02	-11.2810	-37.432323	0.000304	3.041431	1.030465	0.000122
1727	1.7174e+02	-11.2296	-37.375803	0.000142	1.419335	0.480884	0.000057
1728	1.7184e+02	-11.1911	-37.270837	0.000264	2.635907	0.893070	0.000105
1729	1.7194e+02	-11.1542	-37.234503	0.000091	0.912429	0.309139	0.000037
1730	1.7204e+02	-11.1109	-37.129537	0.000264	2.635907	0.893070	0.000105
1731	1.7213e+02	-11.0708	-36.988238	0.000355	3.548337	1.202209	0.000142
1732	1.7223e+02	-11.0355	-36.899421	0.000223	2.230383	0.755674	0.000089
1733	1.7233e+02	-10.9922	-36.790418	0.000274	2.737288	0.927418	0.000110
1734	1.7243e+02	-10.9569	-36.705638	0.000213	2.129002	0.721325	0.000085
1735	1.7253e+02	-10.9072	-36.604710	0.000253	2.534526	0.858721	0.000101
1736	1.7263e+02	-10.8639	-36.471484	0.000335	3.345575	1.133511	0.000134
1737	1.7273e+02	-10.8334	-36.402853	0.000172	1.723478	0.583930	0.000069
1738	1.7283e+02	-10.7901	-36.297887	0.000264	2.635907	0.893070	0.000105
1739	1.7293e+02	-10.7580	-36.168699	0.000324	3.244194	1.099163	0.000130
1740	1.7303e+02	-10.7179	-36.124291	0.000112	1.115192	0.377837	0.000045
1741	1.7313e+02	-10.6730	-35.995102	0.000324	3.244194	1.099163	0.000130
1742	1.7323e+02	-10.6393	-35.922434	0.000182	1.824859	0.618279	0.000073
1743	1.7333e+02	-10.5960	-35.841691	0.000203	2.027621	0.686977	0.000081
1744	1.7343e+02	-10.5494	-35.764986	0.000193	1.926240	0.652628	0.000077
1745	1.7353e+02	-10.5029	-35.660020	0.000264	2.635907	0.893070	0.000105
1746	1.7363e+02	-10.4788	-35.567166	0.000233	2.331764	0.790023	0.000093
1747	1.7373e+02	-10.4291	-35.482386	0.000213	2.129002	0.721325	0.000085
1748	1.7383e+02	-10.3826	-35.409718	0.000182	1.824859	0.618279	0.000073
1749	1.7393e+02	-10.3537	-35.264381	0.000365	3.649718	1.236558	0.000146
1750	1.7403e+02	-10.3056	-35.179601	0.000213	2.129002	0.721325	0.000085
1751	1.7413e+02	-10.2751	-35.050412	0.000324	3.244194	1.099163	0.000130
1752	1.7422e+02	-10.2414	-34.957558	0.000233	2.331764	0.790023	0.000093
1753	1.7432e+02	-10.1869	-34.856630	0.000253	2.534526	0.858721	0.000101
1754	1.7442e+02	-10.1628	-34.771850	0.000213	2.129002	0.721325	0.000085
1755	1.7452e+02	-10.1067	-34.670922	0.000253	2.534526	0.858721	0.000101
1756	1.7462e+02	-10.0762	-34.561919	0.000274	2.737288	0.927418	0.000110
1757	1.7472e+02	-10.0297	-34.525585	0.000091	0.912429	0.309139	0.000037
1758	1.7482e+02	-9.9944	-34.392359	0.000335	3.345575	1.133511	0.000134
1759	1.7492e+02	-9.9655	-34.263171	0.000324	3.244194	1.099163	0.000130
1760	1.7502e+02	-9.9158	-34.170317	0.000233	2.331764	0.790023	0.000093
1761	1.7512e+02	-9.8757	-34.121871	0.000122	1.216573	0.412186	0.000049
1762	1.7522e+02	-9.8372	-33.988646	0.000335	3.345575	1.133511	0.000134
1763	1.7532e+02	-9.7987	-33.920014	0.000172	1.723478	0.583930	0.000069
1764	1.7542e+02	-9.7505	-33.835235	0.000213	2.129002	0.721325	0.000085
1765	1.7552e+02	-9.7233	-33.782752	0.000132	1.317954	0.446535	0.000053
1766	1.7562e+02	-9.6751	-33.645489	0.000345	3.446956	1.167860	0.000138
1767	1.7572e+02	-9.6334	-33.512264	0.000335	3.345575	1.133511	0.000134
1768	1.7582e+02	-9.5933	-33.423447	0.000223	2.230383	0.755674	0.000089
1769	1.7592e+02	-9.5660	-33.314444	0.000274	2.737288	0.927418	0.000110
1770	1.7602e+02	-9.5243	-33.217553	0.000243	2.433145	0.824372	0.000097
1771	1.7612e+02	-9.4858	-33.080290	0.000345	3.446956	1.167860	0.000138
1772	1.7621e+02	-9.4393	-32.995510	0.000213	2.129002	0.721325	0.000085
1773	1.7631e+02	-9.3976	-32.910731	0.000213	2.129002	0.721325	0.000085
1774	1.7641e+02	-9.3559	-32.789616	0.000304	3.041431	1.030465	0.000122
1775	1.7651e+02	-9.3222	-32.733097	0.000142	1.419335	0.480884	0.000057
1776	1.7661e+02	-9.2837	-32.636205	0.000243	2.433145	0.824372	0.000097
1777	1.7671e+02	-9.2372	-32.535277	0.000253	2.534526	0.858721	0.000101
1778	1.7681e+02	-9.2035	-32.402051	0.000335	3.345575	1.133511	0.000134
1779	1.7691e+02	-9.1586	-32.337457	0.000162	1.622097	0.549581	0.000065
1780	1.7701e+02	-9.1185	-32.264789	0.000182	1.824859	0.618279	0.000073
1781	1.7711e+02	-9.0719	-32.147712	0.000294	2.940050	0.996116	0.000118
1782	1.7721e+02	-9.0495	-32.066969	0.000203	2.027621	0.686977	0.000081
1783	1.7731e+02	-8.9965	-31.949892	0.000294	2.940050	0.996116	0.000118
1784	1.7741e+02	-8.9532	-31.840890	0.000274	2.737288	0.927418	0.000110
1785	1.7751e+02	-8.9260	-31.735924	0.000264	2.635907	0.893070	0.000105
1786	1.7761e+02	-8.8810	-31.606736	0.000324	3.244194	1.099163	0.000130
1787	1.7771e+02	-8.8425	-31.513882	0.000233	2.331764	0.790023	0.000093
1788	1.7781e+02	-8.8008	-31.376619	0.000345	3.446956	1.167860	0.000138
1789	1.7791e+02	-8.7527	-31.328173	0.000122	1.216573	0.412186	0.000049
1790	1.7801e+02	-8.7238	-31.231282	0.000243	2.433145	0.824372	0.000097
1791	1.7810e+02	-8.6741	-31.122279	0.000274	2.737288	0.927418	0.000110
1792	1.7820e+02	-8.6468	-30.993091	0.000324	3.244194	1.099163	0.000130
1793	1.7830e+02	-8.6035	-30.884088	0.000274	2.737288	0.927418	0.000110
1794	1.7840e+02	-8.5618	-30.771049	0.000284	2.838669	0.961767	0.000114
1795	1.7850e+02	-8.5185	-30.742789	0.000071	0.709667	0.240442	0.000028
1796	1.7860e+02	-8.4832	-30.658009	0.000213	2.129002	0.721325	0.000085
1797	1.7870e+02	-8.4335	-30.532858	0.000314	3.142813	1.064814	0.000126
1798	1.7880e+02	-8.3982	-30.419818	0.000284	2.838669	0.961767	0.000114
1799	1.7890e+02	-8.3564	-30.383484	0.000091	0.912429	0.309139	0.000037
1800	1.7900e+02	-8.3292	-30.238147	0.000365	3.649718	1.236558	0.000146
1801	1.7910e+02	-8.2778	-30.137218	0.000253	2.534526	0.858721	0.000101
1802	1.7920e+02	-8.2474	-30.024178	0.000284	2.838669	0.961767	0.000114
1803	1.7930e+02	-8.2008	-29.874804	0.000375	3.751099	1.270907	0.000150
1804	1.7940e+02	-8.1639	-29.773876	0.000253	2.534526	0.858721	0.000101
1805	1.7950e+02	-8.1238	-29.648725	0.000314	3.142813	1.064814	0.000126
1806	1.7960e+02	-8.0789	-29.576056	0.000182	1.824859	0.618279	0.000073
1807	1.7970e+02	-8.0452	-29.454942	0.000304	3.041431	1.030465	0.000122
1808	1.7980e+02	-8.0067	-29.398422	0.000142	1.419335	0.480884	0.000057
1809	1.7990e+02	-7.9650	-29.257123	0.000355	3.548337	1.202209	0.000142
1810	1.8000e+02	-7.9153	-29.164269	0.000233	2.331764	0.790023	0.000093
1811	1.8009e+02	-7.8816	-29.063340	0.000253	2.534526	0.858721	0.000101
1812	1.8019e+02	-7.8367	-29.002783	0.000152	1.520716	0.515232	0.000061
1813	1.8029e+02	-7.8014	-28.922040	0.000203	2.027621	0.686977	0.000081
1814	1.8039e+02	-7.7613	-28.829186	0.000233	2.331764	0.790023	0.000093
1815	1.8049e+02	-7.7228	-28.699998	0.000324	3.244194	1.099163	0.000130
1816	1.8059e+02	-7.6811	-28.595032	0.000264	2.635907	0.893070	0.000105
1817	1.8069e+02	-7.6522	-28.498141	0.000243	2.433145	0.824372	0.000097
1818	1.8079e+02	-7.6073	-28.389139	0.000274	2.737288	0.927418	0.000110
1819	1.8089e+02	-7.5704	-28.308396	0.000203	2.027621	0.686977	0.000081
1820	1.8099e+02	-7.5351	-28.130762	0.000446	4.460766	1.511348	0.000179
1821	1.8109e+02	-7.4854	-28.078279	0.000132	1.317954	0.446535	0.000053
1822	1.8119e+02	-7.4436	-27.912756	0.000416	4.156623	1.408302	0.000166
1823	1.8129e+02	-7.4100	-27.848162	0.000162	1.622097	0.549581	0.000065
1824	1.8139e+02	-7.3634	-27.698788	0.000375	3.751099	1.270907	0.000150
1825	1.8149e+02	-7.3378	-27.581711	0.000294	2.940050	0.996116	0.000118
1826	1.8159e+02	-7.2816	-27.480783	0.000253	2.534526	0.858721	0.000101
1827	1.8169e+02	-7.2463	-27.404077	0.000193	1.926240	0.652628	0.000077
1828	1.8179e+02	-7.2030	-27.339483	0.000162	1.622097	0.549581	0.000065
1829	1.8189e+02	-7.1661	-27.202221	0.000345	3.446956	1.167860	0.000138
1830	1.8199e+02	-7.1260	-27.097255	0.000264	2.635907	0.893070	0.000105
1831	1.8209e+02	-7.0891	-27.008438	0.000223	2.230383	0.755674	0.000089
1832	1.8218e+02	-7.0490	-26.911547	0.000243	2.433145	0.824372	0.000097
1833	1.8228e+02	-7.0089	-26.798507	0.000284	2.838669	0.961767	0.000114
1834	1.8238e+02	-6.9640	-26.729876	0.000172	1.723478	0.583930	0.000069
1835	1.8248e+02	-6.9319	-26.564353	0.000416	4.156623	1.408302	0.000166
1836	1.8258e+02	-6.8806	-26.443239	0.000304	3.041431	1.030465	0.000122
1837	1.8268e+02	-6.8485	-26.310014	0.000335	3.345575	1.133511	0.000134
1838	1.8278e+02	-6.8036	-26.225234	0.000213	2.129002	0.721325	0.000085
1839	1.8288e+02	-6.7731	-26.132380	0.000233	2.331764	0.790023	0.000093
1840	1.8298e+02	-6.7265	-25.995117	0.000345	3.446956	1.167860	0.000138
1841	1.8308e+02	-6.6864	-25.910337	0.000213	2.129002	0.721325	0.000085
1842	1.8318e+02	-6.6528	-25.833632	0.000193	1.926240	0.652628	0.000077
1843	1.8328e+02	-6.6094	-25.655998	0.000446	4.460766	1.511348	0.000179
1844	1.8338e+02	-6.5677	-25.571218	0.000213	2.129002	0.721325	0.000085
1845	1.8348e+02	-6.5212	-25.510661	0.000152	1.520716	0.515232	0.000061
1846	1.8358e+02	-6.4827	-25.381472	0.000324	3.244194	1.099163	0.000130
1847	1.8368e+02	-6.4442	-25.324952	0.000142	1.419335	0.480884	0.000057
1848	1.8378e+02	-6.4089	-25.203838	0.000304	3.041431	1.030465	0.000122
1849	1.8388e+02	-6.3640	-25.110984	0.000233	2.331764	0.790023	0.000093
1850	1.8398e+02	-6.3303	-25.006019	0.000264	2.635907	0.893070	0.000105
1851	1.8407e+02	-6.2918	-24.913165	0.000233	2.331764	0.790023	0.000093
1852	1.8417e+02	-6.2469	-24.783976	0.000324	3.244194	1.099163	0.000130
1853	1.8427e+02	-6.2084	-24.630565	0.000385	3.852480	1.305256	0.000154
1854	1.8437e+02	-6.1763	-24.497340	0.000335	3.345575	1.133511	0.000134
1855	1.8447e+02	-6.1314	-24.432745	0.000162	1.622097	0.549581	0.000065
1856	1.8457e+02	-6.0913	-24.291446	0.000355	3.548337	1.202209	0.000142
1857	1.8467e+02	-6.0512	-24.198592	0.000233	2.331764	0.790023	0.000093
1858	1.8477e+02	-6.0143	-24.105737	0.000233	2.331764	0.790023	0.000093
1859	1.8487e+02	-5.9758	-23.968475	0.000345	3.446956	1.167860	0.000138
1860	1.8497e+02	-5.9357	-23.863509	0.000264	2.635907	0.893070	0.000105
1861	1.8507e+02	-5.8940	-23.754507	0.000274	2.737288	0.927418	0.000110
1862	1.8517e+02	-5.8587	-23.584947	0.000426	4.258004	1.442651	0.000170
1863	1.8527e+02	-5.8153	-23.528427	0.000142	1.419335	0.480884	0.000057
1864	1.8537e+02	-5.7752	-23.459796	0.000172	1.723478	0.583930	0.000069
1865	1.8547e+02	-5.7335	-23.375016	0.000213	2.129002	0.721325	0.000085
1866	1.8557e+02	-5.6966	-23.257939	0.000294	2.940050	0.996116	0.000118
1867	1.8567e+02	-5.6549	-23.144899	0.000284	2.838669	0.961767	0.000114
1868	1.8577e+02	-5.6052	-23.064156	0.000203	2.027621	0.686977	0.000081
1869	1.8587e+02	-5.5827	-22.910745	0.000385	3.852480	1.305256	0.000154
1870	1.8597e+02	-5.5314	-22.805780	0.000264	2.635907	0.893070	0.000105
1871	1.8606e+02	-5.4833	-22.716963	0.000223	2.230383	0.755674	0.000089
1872	1.8616e+02	-5.4544	-22.547403	0.000426	4.258004	1.442651	0.000170
1873	1.8626e+02	-5.4127	-22.430326	0.000294	2.940050	0.996116	0.000118
1874	1.8636e+02	-5.3886	-22.309212	0.000304	3.041431	1.030465	0.000122
1875	1.8646e+02	-5.3341	-22.240581	0.000172	1.723478	0.583930	0.000069
1876	1.8656e+02	-5.2956	-22.111392	0.000324	3.244194	1.099163	0.000130
1877	1.8666e+02	-5.2555	-21.998353	0.000284	2.838669	0.961767	0.000114
1878	1.8676e+02	-5.2202	-21.844941	0.000385	3.852480	1.305256	0.000154
1879	1.8686e+02	-5.1945	-21.788422	0.000142	1.419335	0.480884	0.000057
1880	1.8696e+02	-5.1319	-21.683456	0.000264	2.635907	0.893070	0.000105
1881	1.8706e+02	-5.0983	-21.598676	0.000213	2.129002	0.721325	0.000085
1882	1.8716e+02	-5.0501	-21.461414	0.000345	3.446956	1.167860	0.000138
1883	1.8726e+02	-5.0132	-21.356448	0.000264	2.635907	0.893070	0.000105
1884	1.8736e+02	-4.9827	-21.283780	0.000182	1.824859	0.618279	0.000073
1885	1.8746e+02	-4.9442	-21.182851	0.000253	2.534526	0.858721	0.000101
1886	1.8756e+02	-4.8897	-21.061737	0.000304	3.041431	1.030465	0.000122
1887	1.8766e+02	-4.8592	-20.904289	0.000395	3.953861	1.339604	0.000158
1888	1.8776e+02	-4.8175	-20.859880	0.000112	1.115192	0.377837	0.000045
1889	1.8786e+02	-4.7854	-20.714543	0.000365	3.649718	1.236558	0.000146
1890	1.8796e+02	-4.7437	-20.549021	0.000416	4.156623	1.408302	0.000166
1891	1.8806e+02	-4.7020	-20.440018	0.000274	2.737288	0.927418	0.000110
1892	1.8815e+02	-4.6635	-20.343127	0.000243	2.433145	0.824372	0.000097
1893	1.8825e+02	-4.6218	-20.189716	0.000385	3.852480	1.305256	0.000154
1894	1.8835e+02	-4.5721	-20.104936	0.000213	2.129002	0.721325	0.000085
1895	1.8845e+02	-4.5384	-19.963636	0.000355	3.548337	1.202209	0.000142
1896	1.8855e+02	-4.4967	-19.890968	0.000182	1.824859	0.618279	0.000073
1897	1.8865e+02	-4.4550	-19.798114	0.000233	2.331764	0.790023	0.000093
1898	1.8875e+02	-4.4261	-19.681037	0.000294	2.940050	0.996116	0.000118
1899	1.8885e+02	-4.3796	-19.559923	0.000304	3.041431	1.030465	0.000122
1900	1.8895e+02	-4.3394	-19.503403	0.000142	1.419335	0.480884	0.000057
1901	1.8905e+02	-4.2929	-19.394400	0.000274	2.737288	0.927418	0.000110
1902	1.8915e+02	-4.2528	-19.261175	0.000335	3.345575	1.133511	0.000134
1903	1.8925e+02	-4.2111	-19.103726	0.000395	3.953861	1.339604	0.000158
1904	1.8935e+02	-4.1758	-19.031058	0.000182	1.824859	0.618279	0.000073
1905	1.8945e+02	-4.1453	-18.913981	0.000294	2.940050	0.996116	0.000118
1906	1.8955e+02	-4.1036	-18.792867	0.000304	3.041431	1.030465	0.000122
1907	1.8965e+02	-4.0555	-18.647530	0.000365	3.649718	1.236558	0.000146
1908	1.8975e+02	-4.0282	-18.582936	0.000162	1.622097	0.549581	0.000065
1909	1.8985e+02	-3.9833	-18.417413	0.000416	4.156623	1.408302	0.000166
1910	1.8995e+02	-3.9480	-18.292262	0.000314	3.142813	1.064814	0.000126
1911	1.9004e+02	-3.9079	-18.159037	0.000335	3.345575	1.133511	0.000134
1912	1.9014e+02	-3.8646	-18.078294	0.000203	2.027621	0.686977	0.000081
1913	1.9024e+02	-3.8229	-17.989477	0.000223	2.230383	0.755674	0.000089
1914	1.9034e+02	-3.7780	-17.856251	0.000335	3.345575	1.133511	0.000134
1915	1.9044e+02	-3.7411	-17.743212	0.000284	2.838669	0.961767	0.000114
1916	1.9054e+02	-3.6978	-17.666506	0.000193	1.926240	0.652628	0.000077
1917	1.9064e+02	-3.6721	-17.569615	0.000243	2.433145	0.824372	0.000097
1918	1.9074e+02	-3.6191	-17.444464	0.000314	3.142813	1.064814	0.000126
1919	1.9084e+02	-3.5774	-17.363721	0.000203	2.027621	0.686977	0.000081
1920	1.9094e+02	-3.5421	-17.206273	0.000395	3.953861	1.339604	0.000158
1921	1.9104e+02	-3.5004	-17.161864	0.000112	1.115192	0.377837	0.000045
1922	1.9114e+02	-3.4635	-17.004416	0.000395	3.953861	1.339604	0.000158
1923	1.9124e+02	-3.4218	-16.919636	0.000213	2.129002	0.721325	0.000085
1924	1.9134e+02	-3.3817	-16.786410	0.000335	3.345575	1.133511	0.000134
1925	1.9144e+02	-3.3512	-16.665296	0.000304	3.041431	1.030465	0.000122
1926	1.9154e+02	-3.2999	-16.544182	0.000304	3.041431	1.030465	0.000122
1927	1.9164e+02	-3.2662	-16.419031	0.000314	3.142813	1.064814	0.000126
1928	1.9174e+02	-3.2197	-16.257546	0.000406	4.055242	1.373953	0.000162
1929	1.9184e+02	-3.1924	-16.140469	0.000294	2.940050	0.996116	0.000118
1930	1.9194e+02	-3.1475	-16.059726	0.000203	2.027621	0.686977	0.000081
1931	1.9203e+02	-3.1074	-15.958798	0.000253	2.534526	0.858721	0.000101
1932	1.9213e+02	-3.0721	-15.797312	0.000406	4.055242	1.373953	0.000162
1933	1.9223e+02	-3.0288	-15.708495	0.000223	2.230383	0.755674	0.000089
1934	1.9233e+02	-2.9871	-15.603530	0.000264	2.635907	0.893070	0.000105
1935	1.9243e+02	-2.9390	-15.563158	0.000101	1.013810	0.343488	0.000041
1936	1.9253e+02	-2.9021	-15.401673	0.000406	4.055242	1.373953	0.000162
1937	1.9263e+02	-2.8620	-15.288633	0.000284	2.838669	0.961767	0.000114
1938	1.9273e+02	-2.8202	-15.167519	0.000304	3.041431	1.030465	0.000122
1939	1.9283e+02	-2.7898	-15.082739	0.000213	2.129002	0.721325	0.000085
1940	1.9293e+02	-2.7416	-15.001996	0.000203	2.027621	0.686977	0.000081
1941	1.9303e+02	-2.7063	-14.832437	0.000426	4.258004	1.442651	0.000170
1942	1.9313e+02	-2.6630	-14.731508	0.000253	2.534526	0.858721	0.000101
1943	1.9323e+02	-2.6245	-14.598283	0.000335	3.345575	1.133511	0.000134
1944	1.9333e+02	-2.5892	-14.420649	0.000446	4.460766	1.511348	0.000179
1945	1.9343e+02	-2.5459	-14.307609	0.000284	2.838669	0.961767	0.000114
1946	1.9353e+02	-2.5042	-14.251089	0.000142	1.419335	0.480884	0.000057
1947	1.9363e+02	-2.4657	-14.081529	0.000426	4.258004	1.442651	0.000170
1948	1.9373e+02	-2.4240	-14.016935	0.000162	1.622097	0.549581	0.000065
1949	1.9383e+02	-2.3871	-13.823153	0.000487	4.866290	1.648744	0.000195
1950	1.9393e+02	-2.3550	-13.762596	0.000152	1.520716	0.515232	0.000061
1951	1.9403e+02	-2.3037	-13.657630	0.000264	2.635907	0.893070	0.000105
1952	1.9412e+02	-2.2684	-13.540553	0.000294	2.940050	0.996116	0.000118
1953	1.9422e+02	-2.2283	-13.463848	0.000193	1.926240	0.652628	0.000077
1954	1.9432e+02	-2.1914	-13.346771	0.000294	2.940050	0.996116	0.000118
1955	1.9442e+02	-2.1465	-13.241805	0.000264	2.635907	0.893070	0.000105
1956	1.9452e+02	-2.1128	-13.132803	0.000274	2.737288	0.927418	0.000110
1957	1.9462e+02	-2.0646	-12.995540	0.000345	3.446956	1.167860	0.000138
1958	1.9472e+02	-2.0358	-12.894612	0.000253	2.534526	0.858721	0.000101
1959	1.9482e+02	-1.9812	-12.769460	0.000314	3.142813	1.064814	0.000126
1960	1.9492e+02	-1.9572	-12.616049	0.000385	3.852480	1.305256	0.000154
1961	1.9502e+02	-1.9074	-12.462638	0.000385	3.852480	1.305256	0.000154
1962	1.9512e+02	-1.8657	-12.361710	0.000253	2.534526	0.858721	0.000101
1963	1.9522e+02	-1.8352	-12.184076	0.000446	4.460766	1.511348	0.000179
1964	1.9532e+02	-1.7855	-12.087184	0.000243	2.433145	0.824372	0.000097
1965	1.9542e+02	-1.7534	-12.006442	0.000203	2.027621	0.686977	0.000081
1966	1.9552e+02	-1.7085	-11.885328	0.000304	3.041431	1.030465	0.000122
1967	1.9562e+02	-1.6780	-11.760176	0.000314	3.142813	1.064814	0.000126
1968	1.9572e+02	-1.6251	-11.675397	0.000213	2.129002	0.721325	0.000085
1969	1.9582e+02	-1.5930	-11.554282	0.000304	3.041431	1.030465	0.000122
1970	1.9592e+02	-1.5449	-11.404908	0.000375	3.751099	1.270907	0.000150
1971	1.9601e+02	-1.5096	-11.324166	0.000203	2.027621	0.686977	0.000081
1972	1.9611e+02	-1.4695	-11.239386	0.000213	2.129002	0.721325	0.000085
1973	1.9621e+02	-1.4262	-11.118272	0.000304	3.041431	1.030465	0.000122
1974	1.9631e+02	-1.3925	-11.029455	0.000223	2.230383	0.755674	0.000089
1975	1.9641e+02	-1.3572	-10.884118	0.000365	3.649718	1.236558	0.000146
1976	1.9651e+02	-1.3107	-10.787227	0.000243	2.433145	0.824372	0.000097
1977	1.9661e+02	-1.2625	-10.625741	0.000406	4.055242	1.373953	0.000162
1978	1.9671e+02	-1.2272	-10.512701	0.000284	2.838669	0.961767	0.000114
1979	1.9681e+02	-1.1887	-10.375439	0.000345	3.446956	1.167860	0.000138
1980	1.9691e+02	-1.1534	-10.254325	0.000304	3.041431	1.030465	0.000122
1981	1.9701e+02	-1.1069	-10.108988	0.000365	3.649718	1.236558	0.000146
1982	1.9711e+02	-1.0829	-10.012097	0.000243	2.433145	0.824372	0.000097
1983	1.9721e+02	-1.0283	-9.890983	0.000304	3.041431	1.030465	0.000122
1984	1.9731e+02	-1.0010	-9.773906	0.000294	2.940050	0.996116	0.000118
1985	1.9741e+02	-0.9593	-9.664903	0.000274	2.737288	0.927418	0.000110
1986	1.9751e+02	-0.9064	-9.519566	0.000365	3.649718	1.236558	0.000146
1987	1.9761e+02	-0.8743	-9.398452	0.000304	3.041431	1.030465	0.000122
1988	1.9771e+02	-0.8406	-9.321746	0.000193	1.926240	0.652628	0.000077
1989	1.9781e+02	-0.7925	-9.208707	0.000284	2.838669	0.961767	0.000114
1990	1.9791e+02	-0.7652	-9.119890	0.000223	2.230383	0.755674	0.000089
1991	1.9800e+02	-0.7107	-8.958404	0.000406	4.055242	1.373953	0.000162
1992	1.9810e+02	-0.6738	-8.873624	0.000213	2.129002	0.721325	0.000085
1993	1.9820e+02	-0.6353	-8.748473	0.000314	3.142813	1.064814	0.000126
1994	1.9830e+02	-0.5904	-8.627359	0.000304	3.041431	1.030465	0.000122
1995	1.9840e+02	-0.5535	-8.494134	0.000335	3.345575	1.133511	0.000134
1996	1.9850e+02	-0.5166	-8.393205	0.000253	2.534526	0.858721	0.000101
1997	1.9860e+02	-0.4716	-8.247868	0.000365	3.649718	1.236558	0.000146
1998	1.9870e+02	-0.4380	-8.130791	0.000294	2.940050	0.996116	0.000118
1999	1.9880e+02	-0.3962	-8.001603	0.000324	3.244194	1.099163	0.000130
2000	1.9890e+02	-0.3545	-7.880489	0.000304	3.041431	1.030465	0.000122
2001	1.9900e+02	-0.3225	-7.735152	0.000365	3.649718	1.236558	0.000146
2002	1.9910e+02	-0.2759	-7.585778	0.000375	3.751099	1.270907	0.000150
2003	1.9920e+02	-0.2374	-7.521184	0.000162	1.622097	0.549581	0.000065
2004	1.9930e+02	-0.1925	-7.387958	0.000335	3.345575	1.133511	0.000134
2005	1.9940e+02	-0.1556	-7.242622	0.000365	3.649718	1.236558	0.000146
2006	1.9950e+02	-0.1299	-7.133619	0.000274	2.737288	0.927418	0.000110
2007	1.9960e+02	-0.0690	-7.081136	0.000132	1.317954	0.446535	0.000053
2008	1.9970e+02	-0.0417	-6.947911	0.000335	3.345575	1.133511	0.000134
2009	1.9980e+02	0.0032	-6.822759	0.000335	3.345575	1.133511	0.000126

PMax (uC/cm2):	5.73e+01
Pr (uC/cm2):	3.02e+00
-Pr (uC/cm2):	-4.18e+00
PLoss (uC/cm2):	-4.21e+00
-Vc:	-9.98e-01
C (Max-Eff) (nF):	2.87e-01
K (Eff):	9.71e+02
Vert. (+/-Pr) Shift (uC/cm2):	-5.83e-01
Offset (uC/cm2):	2.64e+00

A (Loop Area - uC/cm2·Volts):	5.72e-02



Hysteresis Version: 5.48.1 - Radiant Technologies, Inc., 1999 - 9/12/24

