»»»»»»»»»»»»»»»»»»»»»»»»»»»»»»»»»»»» Hysteresis ««««««««««««««««««««««««««««««««««««
»»»  Executed Version:	5.48.1
»»»  Vision Version:	5.48.4 (R)
»»»  Vision Compiled:	9/18/24
»»»  Driver Version:	5.47.0
»»»  Windows Version:	Windows 8 or 8.1
»»»  Processor Information:	x86 (AMD or Intel) - 32 Processors
»»»  Tester Name:	PMF21124-494 (100V)
»»»  Tester S/N:	PMF21124-494
»»»  Internal Amp Type:	100V RevK 270k
»»»  Internal Amp S/N:	iAB2-596/K     
»»»  Execution Count:	1
»»»»»»»»»»»»»»»»»»»»»»»»»»»»»»»»»»»»»»»»»»««««««««««««««««««««««««««««««««««««««««««

Stored:	6/17/2025 - 16:19:7
Configured:	06/17/25 10:39:14 AM
Executed:	06/17/25 04:18:30 PM

»»»»»»»»»»»»»»»»»»»»»»»»»»»»»»»»»»» Sample Info ««««««««««««««««««««««««««««««««««««
Sample Name:	
Lot Name:	
Wafer Name:	
Die Row/Column:	0/0
Capacitor Number:	0
Sample Area (cm2):	1.00e-04
Sample Thickness (microns):	3.00e-01

Amplifier:	Internal

»»»»»»»»»»»»»»»»»»»»»»»»»»»»»»»»»»» Tester Info «««««««««««««««««««««««««««««««««««
Tester Name:	PMF21124-494 (100V)
Tester Serial Number:	PMF21124-494
Return Signal Amp. Level:	0.19 [Index: 3]

»»»»»»»»»»»»»»»»»»»»»»»»»»»»»»»» Hysteresis Info ««««««««««««««««««««««««««««««««««
Task Name:	Hyst-180
Volts:	20.00
Field:	666.67 (kV/cm)
DCBias:	0.00
DCField:	0.00 (kV/cm)
Hysteresis Period (ms):	2.00e+02
Preset:	Enabled
Preset Delay (ms):	1.00e+03
Profile:	Standard Bipolar

»»»»»»»»»»»»»»»»»»»»»»»»»»»»»»»»»»»»»» Data «««««««««««««««««««««««««««««««««««««««
Points:	2009

Valid Data

Point	Time (ms)	Drive Voltage	Measured Polarization (uC/cm2)	Capacitance (uF)	Normalized Capacitance (uF/cm2)	Dielectric Constant	Instantaneous Current (mA)
   1	0.0000e+00	0.0032	-2.813884	0.000314	3.142056	1.064557	0.000126
   2	9.9500e-02	0.0289	-2.688732	0.000314	3.142056	1.064557	0.000126
   3	1.9900e-01	0.0722	-2.563581	0.000314	3.142056	1.064557	0.000126
   4	2.9850e-01	0.1091	-2.470727	0.000233	2.331203	0.789833	0.000093
   5	3.9800e-01	0.1492	-2.337502	0.000334	3.344769	1.133239	0.000134
   6	4.9750e-01	0.1909	-2.192165	0.000365	3.648839	1.236260	0.000146
   7	5.9700e-01	0.2342	-2.058939	0.000334	3.344769	1.133239	0.000134
   8	6.9650e-01	0.2807	-1.945899	0.000284	2.837986	0.961536	0.000114
   9	7.9600e-01	0.3112	-1.877268	0.000172	1.723063	0.583790	0.000069
  10	8.9550e-01	0.3593	-1.735968	0.000355	3.547483	1.201920	0.000142
  11	9.9500e-01	0.3946	-1.582557	0.000385	3.851553	1.304941	0.000154
  12	1.0945e+00	0.4347	-1.505852	0.000193	1.925776	0.652471	0.000077
  13	1.1940e+00	0.4749	-1.408960	0.000243	2.432560	0.824173	0.000097
  14	1.2935e+00	0.5150	-1.255549	0.000385	3.851553	1.304941	0.000154
  15	1.3930e+00	0.5567	-1.158658	0.000243	2.432560	0.824173	0.000097
  16	1.4925e+00	0.5855	-1.013321	0.000365	3.648839	1.236260	0.000146
  17	1.5920e+00	0.6289	-0.916430	0.000243	2.432560	0.824173	0.000097
  18	1.6915e+00	0.6850	-0.799353	0.000294	2.939343	0.995876	0.000118
  19	1.7910e+00	0.7123	-0.641905	0.000395	3.952909	1.339282	0.000158
  20	1.8905e+00	0.7620	-0.545013	0.000243	2.432560	0.824173	0.000097
  21	1.9900e+00	0.7925	-0.403714	0.000355	3.547483	1.201920	0.000142
  22	2.0895e+00	0.8390	-0.318934	0.000213	2.128490	0.721152	0.000085
  23	2.1890e+00	0.8679	-0.145337	0.000436	4.358336	1.476644	0.000174
  24	2.2885e+00	0.9080	-0.020186	0.000314	3.142056	1.064557	0.000126
  25	2.3880e+00	0.9465	0.068631	0.000223	2.229846	0.755492	0.000089
  26	2.4875e+00	0.9882	0.181671	0.000284	2.837986	0.961536	0.000114
  27	2.5870e+00	1.0251	0.298748	0.000294	2.939343	0.995876	0.000118
  28	2.6865e+00	1.0668	0.415825	0.000294	2.939343	0.995876	0.000118
  29	2.7860e+00	1.1182	0.573273	0.000395	3.952909	1.339282	0.000158
  30	2.8855e+00	1.1599	0.666127	0.000233	2.331203	0.789833	0.000093
  31	2.9850e+00	1.1823	0.835687	0.000426	4.256979	1.442304	0.000170
  32	3.0845e+00	1.2304	0.932578	0.000243	2.432560	0.824173	0.000097
  33	3.1840e+00	1.2673	1.025432	0.000233	2.331203	0.789833	0.000093
  34	3.2835e+00	1.3091	1.154621	0.000324	3.243413	1.098898	0.000130
  35	3.3830e+00	1.3540	1.324181	0.000426	4.256979	1.442304	0.000170
  36	3.4825e+00	1.3877	1.425109	0.000253	2.533916	0.858514	0.000101
  37	3.5820e+00	1.4246	1.534112	0.000274	2.736630	0.927195	0.000110
  38	3.6815e+00	1.4663	1.647151	0.000284	2.837986	0.961536	0.000114
  39	3.7810e+00	1.5032	1.792488	0.000365	3.648839	1.236260	0.000146
  40	3.8805e+00	1.5529	1.897454	0.000264	2.635273	0.892855	0.000105
  41	3.9800e+00	1.5818	2.038754	0.000355	3.547483	1.201920	0.000142
  42	4.0795e+00	1.6219	2.188128	0.000375	3.750196	1.270601	0.000150
  43	4.1790e+00	1.6668	2.252722	0.000162	1.621706	0.549449	0.000065
  44	4.2785e+00	1.7101	2.385947	0.000334	3.344769	1.133239	0.000134
  45	4.3780e+00	1.7470	2.519173	0.000334	3.344769	1.133239	0.000134
  46	4.4775e+00	1.7887	2.612027	0.000233	2.331203	0.789833	0.000093
  47	4.5770e+00	1.8256	2.777549	0.000416	4.155623	1.407963	0.000166
  48	4.6765e+00	1.8737	2.874441	0.000243	2.432560	0.824173	0.000097
  49	4.7760e+00	1.9074	2.991518	0.000294	2.939343	0.995876	0.000118
  50	4.8755e+00	1.9443	3.088409	0.000243	2.432560	0.824173	0.000097
  51	4.9750e+00	1.9844	3.253931	0.000416	4.155623	1.407963	0.000166
  52	5.0745e+00	2.0294	3.366971	0.000284	2.837986	0.961536	0.000114
  53	5.1740e+00	2.0646	3.504234	0.000345	3.446126	1.167579	0.000138
  54	5.2735e+00	2.1031	3.593051	0.000223	2.229846	0.755492	0.000089
  55	5.3730e+00	2.1449	3.746462	0.000385	3.851553	1.304941	0.000154
  56	5.4725e+00	2.1850	3.827205	0.000203	2.027133	0.686811	0.000081
  57	5.5720e+00	2.2299	4.008876	0.000456	4.561049	1.545325	0.000183
  58	5.6715e+00	2.2716	4.138064	0.000324	3.243413	1.098898	0.000130
  59	5.7710e+00	2.3053	4.210733	0.000182	1.824420	0.618130	0.000073
  60	5.8705e+00	2.3454	4.360107	0.000375	3.750196	1.270601	0.000150
  61	5.9700e+00	2.3903	4.513518	0.000385	3.851553	1.304941	0.000154
  62	6.0695e+00	2.4128	4.638669	0.000314	3.142056	1.064557	0.000126
  63	6.1690e+00	2.4641	4.747672	0.000274	2.736630	0.927195	0.000110
  64	6.2685e+00	2.5138	4.868786	0.000304	3.040699	1.030217	0.000122
  65	6.3680e+00	2.5427	4.981826	0.000284	2.837986	0.961536	0.000114
  66	6.4675e+00	2.5908	5.139274	0.000395	3.952909	1.339282	0.000158
  67	6.5670e+00	2.6293	5.236165	0.000243	2.432560	0.824173	0.000097
  68	6.6665e+00	2.6646	5.349205	0.000284	2.837986	0.961536	0.000114
  69	6.7660e+00	2.7112	5.490505	0.000355	3.547483	1.201920	0.000142
  70	6.8655e+00	2.7464	5.619693	0.000324	3.243413	1.098898	0.000130
  71	6.9650e+00	2.7849	5.797327	0.000446	4.459693	1.510985	0.000179
  72	7.0645e+00	2.8251	5.865958	0.000172	1.723063	0.583790	0.000069
  73	7.1640e+00	2.8636	5.991109	0.000314	3.142056	1.064557	0.000126
  74	7.2635e+00	2.9037	6.132409	0.000355	3.547483	1.201920	0.000142
  75	7.3630e+00	2.9454	6.265635	0.000334	3.344769	1.133239	0.000134
  76	7.4625e+00	2.9919	6.410972	0.000365	3.648839	1.236260	0.000146
  77	7.5620e+00	3.0288	6.515937	0.000264	2.635273	0.892855	0.000105
  78	7.6615e+00	3.0737	6.628977	0.000284	2.837986	0.961536	0.000114
  79	7.7610e+00	3.0994	6.798537	0.000426	4.256979	1.442304	0.000170
  80	7.8605e+00	3.1411	6.899465	0.000253	2.533916	0.858514	0.000101
  81	7.9600e+00	3.1732	6.996356	0.000243	2.432560	0.824173	0.000097
  82	8.0595e+00	3.2261	7.145730	0.000375	3.750196	1.270601	0.000150
  83	8.1590e+00	3.2550	7.238584	0.000233	2.331203	0.789833	0.000093
  84	8.2585e+00	3.3047	7.383921	0.000365	3.648839	1.236260	0.000146
  85	8.3580e+00	3.3448	7.500998	0.000294	2.939343	0.995876	0.000118
  86	8.4575e+00	3.3753	7.610001	0.000274	2.736630	0.927195	0.000110
  87	8.5570e+00	3.4315	7.771486	0.000405	4.054266	1.373622	0.000162
  88	8.6565e+00	3.4667	7.880489	0.000274	2.736630	0.927195	0.000110
  89	8.7560e+00	3.5036	7.993529	0.000284	2.837986	0.961536	0.000114
  90	8.8555e+00	3.5502	8.102531	0.000274	2.736630	0.927195	0.000110
  91	8.9550e+00	3.5758	8.276128	0.000436	4.358336	1.476644	0.000174
  92	9.0545e+00	3.6079	8.368982	0.000233	2.331203	0.789833	0.000093
  93	9.1540e+00	3.6641	8.514319	0.000365	3.648839	1.236260	0.000146
  94	9.2535e+00	3.7090	8.611211	0.000243	2.432560	0.824173	0.000097
  95	9.3530e+00	3.7395	8.720213	0.000274	2.736630	0.927195	0.000110
  96	9.4525e+00	3.7764	8.857476	0.000345	3.446126	1.167579	0.000138
  97	9.5520e+00	3.8261	9.006850	0.000375	3.750196	1.270601	0.000150
  98	9.6515e+00	3.8630	9.107778	0.000253	2.533916	0.858514	0.000101
  99	9.7510e+00	3.9079	9.236967	0.000324	3.243413	1.098898	0.000130
 100	9.8505e+00	3.9416	9.358081	0.000304	3.040699	1.030217	0.000122
 101	9.9500e+00	3.9881	9.495343	0.000345	3.446126	1.167579	0.000138
 102	1.0050e+01	4.0218	9.588197	0.000233	2.331203	0.789833	0.000093
 103	1.0149e+01	4.0539	9.765831	0.000446	4.459693	1.510985	0.000179
 104	1.0248e+01	4.0988	9.854648	0.000223	2.229846	0.755492	0.000089
 105	1.0348e+01	4.1373	9.995948	0.000355	3.547483	1.201920	0.000142
 106	1.0447e+01	4.1742	10.108988	0.000284	2.837986	0.961536	0.000114
 107	1.0547e+01	4.2159	10.234139	0.000314	3.142056	1.064557	0.000126
 108	1.0646e+01	4.2624	10.359290	0.000314	3.142056	1.064557	0.000126
 109	1.0746e+01	4.3042	10.500590	0.000355	3.547483	1.201920	0.000142
 110	1.0845e+01	4.3362	10.617667	0.000294	2.939343	0.995876	0.000118
 111	1.0945e+01	4.3812	10.738781	0.000304	3.040699	1.030217	0.000122
 112	1.1044e+01	4.4229	10.843747	0.000264	2.635273	0.892855	0.000105
 113	1.1144e+01	4.4598	10.972935	0.000324	3.243413	1.098898	0.000130
 114	1.1243e+01	4.4951	11.122309	0.000375	3.750196	1.270601	0.000150
 115	1.1343e+01	4.5368	11.227274	0.000264	2.635273	0.892855	0.000105
 116	1.1443e+01	4.5929	11.364537	0.000345	3.446126	1.167579	0.000138
 117	1.1542e+01	4.6170	11.505837	0.000355	3.547483	1.201920	0.000142
 118	1.1642e+01	4.6635	11.639062	0.000334	3.344769	1.133239	0.000134
 119	1.1741e+01	4.6924	11.756139	0.000294	2.939343	0.995876	0.000118
 120	1.1841e+01	4.7309	11.889365	0.000334	3.344769	1.133239	0.000134
 121	1.1940e+01	4.7742	12.006442	0.000294	2.939343	0.995876	0.000118
 122	1.2040e+01	4.8127	12.119481	0.000284	2.837986	0.961536	0.000114
 123	1.2139e+01	4.8576	12.252707	0.000334	3.344769	1.133239	0.000134
 124	1.2239e+01	4.8977	12.402081	0.000375	3.750196	1.270601	0.000150
 125	1.2338e+01	4.9394	12.490898	0.000223	2.229846	0.755492	0.000089
 126	1.2438e+01	4.9731	12.648346	0.000395	3.952909	1.339282	0.000158
 127	1.2537e+01	5.0132	12.733126	0.000213	2.128490	0.721152	0.000085
 128	1.2636e+01	5.0630	12.934983	0.000507	5.067832	1.717028	0.000203
 129	1.2736e+01	5.0918	13.011688	0.000193	1.925776	0.652471	0.000077
 130	1.2835e+01	5.1432	13.169137	0.000395	3.952909	1.339282	0.000158
 131	1.2935e+01	5.1817	13.257954	0.000223	2.229846	0.755492	0.000089
 132	1.3034e+01	5.2154	13.350808	0.000233	2.331203	0.789833	0.000093
 133	1.3134e+01	5.2555	13.500182	0.000375	3.750196	1.270601	0.000150
 134	1.3233e+01	5.2908	13.673779	0.000436	4.358336	1.476644	0.000174
 135	1.3333e+01	5.3341	13.786819	0.000284	2.837986	0.961536	0.000114
 136	1.3432e+01	5.3742	13.899858	0.000284	2.837986	0.961536	0.000114
 137	1.3532e+01	5.4095	14.041158	0.000355	3.547483	1.201920	0.000142
 138	1.3632e+01	5.4576	14.146124	0.000264	2.635273	0.892855	0.000105
 139	1.3731e+01	5.4961	14.259163	0.000284	2.837986	0.961536	0.000114
 140	1.3831e+01	5.5282	14.380277	0.000304	3.040699	1.030217	0.000122
 141	1.3930e+01	5.5731	14.513503	0.000334	3.344769	1.133239	0.000134
 142	1.4030e+01	5.6148	14.662877	0.000375	3.750196	1.270601	0.000150
 143	1.4129e+01	5.6485	14.767843	0.000264	2.635273	0.892855	0.000105
 144	1.4229e+01	5.6918	14.880882	0.000284	2.837986	0.961536	0.000114
 145	1.4328e+01	5.7335	15.022182	0.000355	3.547483	1.201920	0.000142
 146	1.4428e+01	5.7752	15.135222	0.000284	2.837986	0.961536	0.000114
 147	1.4527e+01	5.8169	15.248262	0.000284	2.837986	0.961536	0.000114
 148	1.4627e+01	5.8619	15.361301	0.000284	2.837986	0.961536	0.000114
 149	1.4726e+01	5.8940	15.534898	0.000436	4.358336	1.476644	0.000174
 150	1.4825e+01	5.9341	15.676198	0.000355	3.547483	1.201920	0.000142
 151	1.4925e+01	5.9806	15.785201	0.000274	2.736630	0.927195	0.000110
 152	1.5024e+01	6.0191	15.902278	0.000294	2.939343	0.995876	0.000118
 153	1.5124e+01	6.0528	16.027429	0.000314	3.142056	1.064557	0.000126
 154	1.5223e+01	6.0945	16.192951	0.000416	4.155623	1.407963	0.000166
 155	1.5323e+01	6.1362	16.249471	0.000142	1.418993	0.480768	0.000057
 156	1.5422e+01	6.1715	16.406920	0.000395	3.952909	1.339282	0.000158
 157	1.5522e+01	6.2116	16.515922	0.000274	2.736630	0.927195	0.000110
 158	1.5621e+01	6.2581	16.657222	0.000355	3.547483	1.201920	0.000142
 159	1.5721e+01	6.2822	16.758150	0.000253	2.533916	0.858514	0.000101
 160	1.5820e+01	6.3335	16.895413	0.000345	3.446126	1.167579	0.000138
 161	1.5920e+01	6.3640	17.052861	0.000395	3.952909	1.339282	0.000158
 162	1.6020e+01	6.4137	17.161864	0.000274	2.736630	0.927195	0.000110
 163	1.6119e+01	6.4586	17.282978	0.000304	3.040699	1.030217	0.000122
 164	1.6218e+01	6.4987	17.383906	0.000253	2.533916	0.858514	0.000101
 165	1.6318e+01	6.5276	17.553466	0.000426	4.256979	1.442304	0.000170
 166	1.6418e+01	6.5709	17.626135	0.000182	1.824420	0.618130	0.000073
 167	1.6517e+01	6.6030	17.787620	0.000405	4.054266	1.373622	0.000162
 168	1.6616e+01	6.6479	17.908734	0.000304	3.040699	1.030217	0.000122
 169	1.6716e+01	6.6864	18.037922	0.000324	3.243413	1.098898	0.000130
 170	1.6816e+01	6.7282	18.159037	0.000304	3.040699	1.030217	0.000122
 171	1.6915e+01	6.7795	18.280151	0.000304	3.040699	1.030217	0.000122
 172	1.7015e+01	6.8132	18.469896	0.000476	4.763762	1.614006	0.000191
 173	1.7114e+01	6.8469	18.570824	0.000253	2.533916	0.858514	0.000101
 174	1.7213e+01	6.8870	18.708087	0.000345	3.446126	1.167579	0.000138
 175	1.7313e+01	6.9255	18.792867	0.000213	2.128490	0.721152	0.000085
 176	1.7413e+01	6.9624	18.901870	0.000274	2.736630	0.927195	0.000110
 177	1.7512e+01	7.0009	19.083541	0.000456	4.561049	1.545325	0.000183
 178	1.7611e+01	7.0410	19.208692	0.000314	3.142056	1.064557	0.000126
 179	1.7711e+01	7.0859	19.325769	0.000294	2.939343	0.995876	0.000118
 180	1.7811e+01	7.1244	19.463031	0.000345	3.446126	1.167579	0.000138
 181	1.7910e+01	7.1693	19.551848	0.000223	2.229846	0.755492	0.000089
 182	1.8009e+01	7.2110	19.681037	0.000324	3.243413	1.098898	0.000130
 183	1.8109e+01	7.2511	19.806188	0.000314	3.142056	1.064557	0.000126
 184	1.8209e+01	7.2896	19.947488	0.000355	3.547483	1.201920	0.000142
 185	1.8308e+01	7.3265	20.084750	0.000345	3.446126	1.167579	0.000138
 186	1.8407e+01	7.3666	20.209902	0.000314	3.142056	1.064557	0.000126
 187	1.8507e+01	7.4035	20.375424	0.000416	4.155623	1.407963	0.000166
 188	1.8607e+01	7.4565	20.472315	0.000243	2.432560	0.824173	0.000097
 189	1.8706e+01	7.4886	20.589392	0.000294	2.939343	0.995876	0.000118
 190	1.8805e+01	7.5271	20.734729	0.000365	3.648839	1.236260	0.000146
 191	1.8905e+01	7.5656	20.855843	0.000304	3.040699	1.030217	0.000122
 192	1.9005e+01	7.6073	20.968883	0.000284	2.837986	0.961536	0.000114
 193	1.9104e+01	7.6426	21.094034	0.000314	3.142056	1.064557	0.000126
 194	1.9203e+01	7.6843	21.251483	0.000395	3.952909	1.339282	0.000158
 195	1.9303e+01	7.7212	21.336262	0.000213	2.128490	0.721152	0.000085
 196	1.9402e+01	7.7693	21.481599	0.000365	3.648839	1.236260	0.000146
 197	1.9502e+01	7.7982	21.594639	0.000284	2.837986	0.961536	0.000114
 198	1.9602e+01	7.8415	21.760162	0.000416	4.155623	1.407963	0.000166
 199	1.9701e+01	7.8880	21.877239	0.000294	2.939343	0.995876	0.000118
 200	1.9800e+01	7.9217	21.978167	0.000253	2.533916	0.858514	0.000101
 201	1.9900e+01	7.9650	22.119467	0.000355	3.547483	1.201920	0.000142
 202	2.0000e+01	8.0212	22.228469	0.000274	2.736630	0.927195	0.000110
 203	2.0099e+01	8.0484	22.353621	0.000314	3.142056	1.064557	0.000126
 204	2.0198e+01	8.0853	22.482809	0.000324	3.243413	1.098898	0.000130
 205	2.0298e+01	8.1190	22.603923	0.000304	3.040699	1.030217	0.000122
 206	2.0398e+01	8.1623	22.725037	0.000304	3.040699	1.030217	0.000122
 207	2.0497e+01	8.1976	22.838077	0.000284	2.837986	0.961536	0.000114
 208	2.0596e+01	8.2506	22.999562	0.000405	4.054266	1.373622	0.000162
 209	2.0696e+01	8.2827	23.140862	0.000355	3.547483	1.201920	0.000142
 210	2.0796e+01	8.3292	23.217568	0.000193	1.925776	0.652471	0.000077
 211	2.0895e+01	8.3645	23.391164	0.000436	4.358336	1.476644	0.000174
 212	2.0994e+01	8.4062	23.508241	0.000294	2.939343	0.995876	0.000118
 213	2.1094e+01	8.4447	23.576873	0.000172	1.723063	0.583790	0.000069
 214	2.1194e+01	8.4832	23.734321	0.000395	3.952909	1.339282	0.000158
 215	2.1293e+01	8.5217	23.839287	0.000264	2.635273	0.892855	0.000105
 216	2.1392e+01	8.5650	23.956363	0.000294	2.939343	0.995876	0.000118
 217	2.1492e+01	8.5939	24.129960	0.000436	4.358336	1.476644	0.000174
 218	2.1591e+01	8.6500	24.255112	0.000314	3.142056	1.064557	0.000126
 219	2.1691e+01	8.6789	24.376226	0.000304	3.040699	1.030217	0.000122
 220	2.1791e+01	8.7238	24.493303	0.000294	2.939343	0.995876	0.000118
 221	2.1890e+01	8.7623	24.614417	0.000304	3.040699	1.030217	0.000122
 222	2.1989e+01	8.8024	24.739568	0.000314	3.142056	1.064557	0.000126
 223	2.2089e+01	8.8345	24.848570	0.000274	2.736630	0.927195	0.000110
 224	2.2189e+01	8.8746	24.985833	0.000345	3.446126	1.167579	0.000138
 225	2.2288e+01	8.9115	25.110984	0.000314	3.142056	1.064557	0.000126
 226	2.2387e+01	8.9548	25.248247	0.000345	3.446126	1.167579	0.000138
 227	2.2487e+01	8.9901	25.349175	0.000253	2.533916	0.858514	0.000101
 228	2.2587e+01	9.0463	25.458178	0.000274	2.736630	0.927195	0.000110
 229	2.2686e+01	9.0751	25.619663	0.000405	4.054266	1.373622	0.000162
 230	2.2785e+01	9.1185	25.748852	0.000324	3.243413	1.098898	0.000130
 231	2.2885e+01	9.1586	25.874003	0.000314	3.142056	1.064557	0.000126
 232	2.2985e+01	9.2003	25.995117	0.000304	3.040699	1.030217	0.000122
 233	2.3084e+01	9.2372	26.096045	0.000253	2.533916	0.858514	0.000101
 234	2.3183e+01	9.2709	26.253494	0.000395	3.952909	1.339282	0.000158
 235	2.3283e+01	9.3238	26.370571	0.000294	2.939343	0.995876	0.000118
 236	2.3383e+01	9.3655	26.471499	0.000253	2.533916	0.858514	0.000101
 237	2.3482e+01	9.4056	26.612799	0.000355	3.547483	1.201920	0.000142
 238	2.3581e+01	9.4425	26.729876	0.000294	2.939343	0.995876	0.000118
 239	2.3681e+01	9.4826	26.850990	0.000304	3.040699	1.030217	0.000122
 240	2.3780e+01	9.5211	26.968067	0.000294	2.939343	0.995876	0.000118
 241	2.3880e+01	9.5564	27.113404	0.000365	3.648839	1.236260	0.000146
 242	2.3980e+01	9.6061	27.258741	0.000365	3.648839	1.236260	0.000146
 243	2.4079e+01	9.6334	27.379855	0.000304	3.040699	1.030217	0.000122
 244	2.4178e+01	9.6751	27.476746	0.000243	2.432560	0.824173	0.000097
 245	2.4278e+01	9.7249	27.609971	0.000334	3.344769	1.133239	0.000134
 246	2.4378e+01	9.7553	27.714937	0.000264	2.635273	0.892855	0.000105
 247	2.4477e+01	9.8051	27.827977	0.000284	2.837986	0.961536	0.000114
 248	2.4576e+01	9.8372	27.981388	0.000385	3.851553	1.304941	0.000154
 249	2.4676e+01	9.8789	28.090390	0.000274	2.736630	0.927195	0.000110
 250	2.4776e+01	9.9206	28.227653	0.000345	3.446126	1.167579	0.000138
 251	2.4875e+01	9.9575	28.340693	0.000284	2.837986	0.961536	0.000114
 252	2.4974e+01	9.9960	28.437584	0.000243	2.432560	0.824173	0.000097
 253	2.5074e+01	10.0361	28.558698	0.000304	3.040699	1.030217	0.000122
 254	2.5174e+01	10.0714	28.679812	0.000304	3.040699	1.030217	0.000122
 255	2.5273e+01	10.1163	28.804963	0.000314	3.142056	1.064557	0.000126
 256	2.5372e+01	10.1516	28.922040	0.000294	2.939343	0.995876	0.000118
 257	2.5472e+01	10.1981	29.027006	0.000264	2.635273	0.892855	0.000105
 258	2.5572e+01	10.2350	29.152157	0.000314	3.142056	1.064557	0.000126
 259	2.5671e+01	10.2831	29.321717	0.000426	4.256979	1.442304	0.000170
 260	2.5770e+01	10.3216	29.418608	0.000243	2.432560	0.824173	0.000097
 261	2.5870e+01	10.3617	29.535685	0.000294	2.939343	0.995876	0.000118
 262	2.5970e+01	10.3938	29.652762	0.000294	2.939343	0.995876	0.000118
 263	2.6069e+01	10.4355	29.733505	0.000203	2.027133	0.686811	0.000081
 264	2.6169e+01	10.4756	29.894990	0.000405	4.054266	1.373622	0.000162
 265	2.6268e+01	10.5174	30.036290	0.000355	3.547483	1.201920	0.000142
 266	2.6367e+01	10.5510	30.145293	0.000274	2.736630	0.927195	0.000110
 267	2.6467e+01	10.5960	30.254295	0.000274	2.736630	0.927195	0.000110
 268	2.6567e+01	10.6296	30.411744	0.000395	3.952909	1.339282	0.000158
 269	2.6666e+01	10.6762	30.528820	0.000294	2.939343	0.995876	0.000118
 270	2.6765e+01	10.7211	30.625712	0.000243	2.432560	0.824173	0.000097
 271	2.6865e+01	10.7532	30.710492	0.000213	2.128490	0.721152	0.000085
 272	2.6965e+01	10.7933	30.835643	0.000314	3.142056	1.064557	0.000126
 273	2.7064e+01	10.8398	30.985017	0.000375	3.750196	1.270601	0.000150
 274	2.7163e+01	10.8703	31.114205	0.000324	3.243413	1.098898	0.000130
 275	2.7263e+01	10.9120	31.227245	0.000284	2.837986	0.961536	0.000114
 276	2.7363e+01	10.9601	31.336248	0.000274	2.736630	0.927195	0.000110
 277	2.7462e+01	10.9874	31.453325	0.000294	2.939343	0.995876	0.000118
 278	2.7561e+01	11.0275	31.566364	0.000284	2.837986	0.961536	0.000114
 279	2.7661e+01	11.0644	31.727850	0.000405	4.054266	1.373622	0.000162
 280	2.7761e+01	11.1109	31.832815	0.000264	2.635273	0.892855	0.000105
 281	2.7860e+01	11.1542	31.945855	0.000284	2.837986	0.961536	0.000114
 282	2.7959e+01	11.1911	32.058895	0.000284	2.837986	0.961536	0.000114
 283	2.8059e+01	11.2232	32.216343	0.000395	3.952909	1.339282	0.000158
 284	2.8159e+01	11.2729	32.357643	0.000355	3.547483	1.201920	0.000142
 285	2.8258e+01	11.3130	32.454534	0.000243	2.432560	0.824173	0.000097
 286	2.8358e+01	11.3532	32.575648	0.000304	3.040699	1.030217	0.000122
 287	2.8457e+01	11.3901	32.696762	0.000304	3.040699	1.030217	0.000122
 288	2.8556e+01	11.4302	32.817876	0.000304	3.040699	1.030217	0.000122
 289	2.8656e+01	11.4655	32.918805	0.000253	2.533916	0.858514	0.000101
 290	2.8756e+01	11.5216	33.047993	0.000324	3.243413	1.098898	0.000130
 291	2.8855e+01	11.5553	33.185256	0.000345	3.446126	1.167579	0.000138
 292	2.8954e+01	11.5826	33.249850	0.000162	1.621706	0.549449	0.000065
 293	2.9054e+01	11.6307	33.387113	0.000345	3.446126	1.167579	0.000138
 294	2.9154e+01	11.6660	33.520338	0.000334	3.344769	1.133239	0.000134
 295	2.9253e+01	11.7077	33.621266	0.000253	2.533916	0.858514	0.000101
 296	2.9352e+01	11.7494	33.742380	0.000304	3.040699	1.030217	0.000122
 297	2.9452e+01	11.7895	33.891755	0.000375	3.750196	1.270601	0.000150
 298	2.9552e+01	11.8232	34.000757	0.000274	2.736630	0.927195	0.000110
 299	2.9651e+01	11.8713	34.138020	0.000345	3.446126	1.167579	0.000138
 300	2.9750e+01	11.9034	34.218763	0.000203	2.027133	0.686811	0.000081
 301	2.9850e+01	11.9371	34.351988	0.000334	3.344769	1.133239	0.000134
 302	2.9950e+01	11.9868	34.444842	0.000233	2.331203	0.789833	0.000093
 303	3.0049e+01	12.0334	34.598253	0.000385	3.851553	1.304941	0.000154
 304	3.0148e+01	12.0735	34.715330	0.000294	2.939343	0.995876	0.000118
 305	3.0248e+01	12.1087	34.856630	0.000355	3.547483	1.201920	0.000142
 306	3.0348e+01	12.1440	34.933336	0.000193	1.925776	0.652471	0.000077
 307	3.0447e+01	12.1874	35.102895	0.000426	4.256979	1.442304	0.000170
 308	3.0547e+01	12.2275	35.236121	0.000334	3.344769	1.133239	0.000134
 309	3.0646e+01	12.2756	35.320901	0.000213	2.128490	0.721152	0.000085
 310	3.0745e+01	12.3109	35.458163	0.000345	3.446126	1.167579	0.000138
 311	3.0845e+01	12.3446	35.603500	0.000365	3.648839	1.236260	0.000146
 312	3.0945e+01	12.3911	35.696354	0.000233	2.331203	0.789833	0.000093
 313	3.1044e+01	12.4248	35.801320	0.000264	2.635273	0.892855	0.000105
 314	3.1143e+01	12.4665	35.918397	0.000294	2.939343	0.995876	0.000118
 315	3.1243e+01	12.5002	36.019325	0.000253	2.533916	0.858514	0.000101
 316	3.1343e+01	12.5499	36.132365	0.000284	2.837986	0.961536	0.000114
 317	3.1442e+01	12.5820	36.253479	0.000304	3.040699	1.030217	0.000122
 318	3.1541e+01	12.6285	36.410927	0.000395	3.952909	1.339282	0.000158
 319	3.1641e+01	12.6590	36.503781	0.000233	2.331203	0.789833	0.000093
 320	3.1741e+01	12.7119	36.612784	0.000274	2.736630	0.927195	0.000110
 321	3.1840e+01	12.7504	36.754084	0.000355	3.547483	1.201920	0.000142
 322	3.1939e+01	12.7938	36.863086	0.000274	2.736630	0.927195	0.000110
 323	3.2039e+01	12.8210	36.964015	0.000253	2.533916	0.858514	0.000101
 324	3.2139e+01	12.8643	37.077055	0.000284	2.837986	0.961536	0.000114
 325	3.2238e+01	12.9028	37.214317	0.000345	3.446126	1.167579	0.000138
 326	3.2337e+01	12.9494	37.327357	0.000284	2.837986	0.961536	0.000114
 327	3.2437e+01	12.9782	37.428285	0.000253	2.533916	0.858514	0.000101
 328	3.2536e+01	13.0183	37.622068	0.000487	4.865119	1.648347	0.000195
 329	3.2636e+01	13.0520	37.678588	0.000142	1.418993	0.480768	0.000057
 330	3.2736e+01	13.1098	37.827962	0.000375	3.750196	1.270601	0.000150
 331	3.2835e+01	13.1419	37.924853	0.000243	2.432560	0.824173	0.000097
 332	3.2934e+01	13.1804	38.045967	0.000304	3.040699	1.030217	0.000122
 333	3.3034e+01	13.2173	38.179193	0.000334	3.344769	1.133239	0.000134
 334	3.3133e+01	13.2590	38.292232	0.000284	2.837986	0.961536	0.000114
 335	3.3233e+01	13.2943	38.433532	0.000355	3.547483	1.201920	0.000142
 336	3.3333e+01	13.3392	38.566758	0.000334	3.344769	1.133239	0.000134
 337	3.3432e+01	13.3809	38.647500	0.000203	2.027133	0.686811	0.000081
 338	3.3532e+01	13.4194	38.796874	0.000375	3.750196	1.270601	0.000150
 339	3.3631e+01	13.4691	38.893766	0.000243	2.432560	0.824173	0.000097
 340	3.3730e+01	13.5076	38.990657	0.000243	2.432560	0.824173	0.000097
 341	3.3830e+01	13.5397	39.127920	0.000345	3.446126	1.167579	0.000138
 342	3.3929e+01	13.5702	39.244997	0.000294	2.939343	0.995876	0.000118
 343	3.4029e+01	13.6183	39.374185	0.000324	3.243413	1.098898	0.000130
 344	3.4129e+01	13.6616	39.495299	0.000304	3.040699	1.030217	0.000122
 345	3.4228e+01	13.6937	39.640636	0.000365	3.648839	1.236260	0.000146
 346	3.4328e+01	13.7354	39.725416	0.000213	2.128490	0.721152	0.000085
 347	3.4427e+01	13.7675	39.870753	0.000365	3.648839	1.236260	0.000146
 348	3.4526e+01	13.8173	39.983792	0.000284	2.837986	0.961536	0.000114
 349	3.4626e+01	13.8509	40.100869	0.000294	2.939343	0.995876	0.000118
 350	3.4725e+01	13.9039	40.246206	0.000365	3.648839	1.236260	0.000146
 351	3.4825e+01	13.9392	40.371357	0.000314	3.142056	1.064557	0.000126
 352	3.4925e+01	13.9745	40.492471	0.000304	3.040699	1.030217	0.000122
 353	3.5024e+01	14.0242	40.613586	0.000304	3.040699	1.030217	0.000122
 354	3.5123e+01	14.0531	40.702403	0.000223	2.229846	0.755492	0.000089
 355	3.5223e+01	14.1108	40.799294	0.000243	2.432560	0.824173	0.000097
 356	3.5322e+01	14.1301	40.908296	0.000274	2.736630	0.927195	0.000110
 357	3.5422e+01	14.1638	41.025373	0.000294	2.939343	0.995876	0.000118
 358	3.5522e+01	14.2247	41.186859	0.000405	4.054266	1.373622	0.000162
 359	3.5621e+01	14.2584	41.291824	0.000264	2.635273	0.892855	0.000105
 360	3.5721e+01	14.3001	41.437161	0.000365	3.648839	1.236260	0.000146
 361	3.5820e+01	14.3386	41.546164	0.000274	2.736630	0.927195	0.000110
 362	3.5919e+01	14.3691	41.651129	0.000264	2.635273	0.892855	0.000105
 363	3.6019e+01	14.4140	41.776281	0.000314	3.142056	1.064557	0.000126
 364	3.6118e+01	14.4557	41.905469	0.000324	3.243413	1.098898	0.000130
 365	3.6218e+01	14.4894	42.026583	0.000304	3.040699	1.030217	0.000122
 366	3.6318e+01	14.5343	42.159809	0.000334	3.344769	1.133239	0.000134
 367	3.6417e+01	14.5729	42.268811	0.000274	2.736630	0.927195	0.000110
 368	3.6517e+01	14.6146	42.361665	0.000233	2.331203	0.789833	0.000093
 369	3.6616e+01	14.6627	42.494891	0.000334	3.344769	1.133239	0.000134
 370	3.6715e+01	14.6900	42.583708	0.000223	2.229846	0.755492	0.000089
 371	3.6815e+01	14.7381	42.729045	0.000365	3.648839	1.236260	0.000146
 372	3.6914e+01	14.7702	42.838047	0.000274	2.736630	0.927195	0.000110
 373	3.7014e+01	14.8199	42.947050	0.000274	2.736630	0.927195	0.000110
 374	3.7114e+01	14.8568	43.064127	0.000294	2.939343	0.995876	0.000118
 375	3.7213e+01	14.8937	43.185241	0.000304	3.040699	1.030217	0.000122
 376	3.7313e+01	14.9306	43.330578	0.000365	3.648839	1.236260	0.000146
 377	3.7412e+01	14.9675	43.439581	0.000274	2.736630	0.927195	0.000110
 378	3.7511e+01	15.0156	43.532435	0.000233	2.331203	0.789833	0.000093
 379	3.7611e+01	15.0589	43.677772	0.000365	3.648839	1.236260	0.000146
 380	3.7711e+01	15.0990	43.815034	0.000345	3.446126	1.167579	0.000138
 381	3.7810e+01	15.1247	43.891740	0.000193	1.925776	0.652471	0.000077
 382	3.7910e+01	15.1728	43.988631	0.000243	2.432560	0.824173	0.000097
 383	3.8009e+01	15.2178	44.174339	0.000466	4.662406	1.579666	0.000187
 384	3.8108e+01	15.2563	44.238933	0.000162	1.621706	0.549449	0.000065
 385	3.8208e+01	15.2883	44.343899	0.000264	2.635273	0.892855	0.000105
 386	3.8307e+01	15.3300	44.513459	0.000426	4.256979	1.442304	0.000170
 387	3.8407e+01	15.3798	44.569979	0.000142	1.418993	0.480768	0.000057
 388	3.8507e+01	15.4071	44.747613	0.000446	4.459693	1.510985	0.000179
 389	3.8606e+01	15.4520	44.852578	0.000264	2.635273	0.892855	0.000105
 390	3.8706e+01	15.4969	44.961581	0.000274	2.736630	0.927195	0.000110
 391	3.8805e+01	15.5354	45.078658	0.000294	2.939343	0.995876	0.000118
 392	3.8904e+01	15.5787	45.215920	0.000345	3.446126	1.167579	0.000138
 393	3.9004e+01	15.6156	45.296663	0.000203	2.027133	0.686811	0.000081
 394	3.9103e+01	15.6589	45.437963	0.000355	3.547483	1.201920	0.000142
 395	3.9203e+01	15.6894	45.579262	0.000355	3.547483	1.201920	0.000142
 396	3.9303e+01	15.7343	45.668079	0.000223	2.229846	0.755492	0.000089
 397	3.9402e+01	15.7680	45.785156	0.000294	2.939343	0.995876	0.000118
 398	3.9502e+01	15.8113	45.886085	0.000253	2.533916	0.858514	0.000101
 399	3.9601e+01	15.8482	46.023347	0.000345	3.446126	1.167579	0.000138
 400	3.9700e+01	15.8915	46.120239	0.000243	2.432560	0.824173	0.000097
 401	3.9800e+01	15.9300	46.233278	0.000284	2.837986	0.961536	0.000114
 402	3.9900e+01	15.9637	46.362467	0.000324	3.243413	1.098898	0.000130
 403	3.9999e+01	16.0183	46.475507	0.000284	2.837986	0.961536	0.000114
 404	4.0099e+01	16.0600	46.620844	0.000365	3.648839	1.236260	0.000146
 405	4.0198e+01	16.0921	46.709660	0.000223	2.229846	0.755492	0.000089
 406	4.0297e+01	16.1306	46.822700	0.000284	2.837986	0.961536	0.000114
 407	4.0397e+01	16.1707	46.951889	0.000324	3.243413	1.098898	0.000130
 408	4.0496e+01	16.2060	47.097226	0.000365	3.648839	1.236260	0.000146
 409	4.0596e+01	16.2557	47.186043	0.000223	2.229846	0.755492	0.000089
 410	4.0696e+01	16.2958	47.291008	0.000264	2.635273	0.892855	0.000105
 411	4.0795e+01	16.3279	47.383862	0.000233	2.331203	0.789833	0.000093
 412	4.0895e+01	16.3728	47.521125	0.000345	3.446126	1.167579	0.000138
 413	4.0994e+01	16.4033	47.634165	0.000284	2.837986	0.961536	0.000114
 414	4.1093e+01	16.4466	47.747204	0.000284	2.837986	0.961536	0.000114
 415	4.1193e+01	16.4851	47.908690	0.000405	4.054266	1.373622	0.000162
 416	4.1292e+01	16.5348	47.961173	0.000132	1.317636	0.446427	0.000053
 417	4.1392e+01	16.5605	48.082287	0.000304	3.040699	1.030217	0.000122
 418	4.1492e+01	16.6022	48.191289	0.000274	2.736630	0.927195	0.000110
 419	4.1591e+01	16.6487	48.320478	0.000324	3.243413	1.098898	0.000130
 420	4.1691e+01	16.6888	48.429480	0.000274	2.736630	0.927195	0.000110
 421	4.1790e+01	16.7273	48.530409	0.000253	2.533916	0.858514	0.000101
 422	4.1889e+01	16.7626	48.671708	0.000355	3.547483	1.201920	0.000142
 423	4.1989e+01	16.8043	48.784748	0.000284	2.837986	0.961536	0.000114
 424	4.2089e+01	16.8573	48.881640	0.000243	2.432560	0.824173	0.000097
 425	4.2188e+01	16.8894	49.022939	0.000355	3.547483	1.201920	0.000142
 426	4.2288e+01	16.9279	49.172313	0.000375	3.750196	1.270601	0.000150
 427	4.2387e+01	16.9744	49.249019	0.000193	1.925776	0.652471	0.000077
 428	4.2486e+01	17.0097	49.353984	0.000264	2.635273	0.892855	0.000105
 429	4.2586e+01	17.0514	49.462987	0.000274	2.736630	0.927195	0.000110
 430	4.2685e+01	17.0851	49.551804	0.000223	2.229846	0.755492	0.000089
 431	4.2785e+01	17.1236	49.709252	0.000395	3.952909	1.339282	0.000158
 432	4.2885e+01	17.1653	49.794032	0.000213	2.128490	0.721152	0.000085
 433	4.2984e+01	17.2022	49.886886	0.000233	2.331203	0.789833	0.000093
 434	4.3084e+01	17.2471	50.032223	0.000365	3.648839	1.236260	0.000146
 435	4.3183e+01	17.2840	50.141226	0.000274	2.736630	0.927195	0.000110
 436	4.3282e+01	17.3257	50.226006	0.000213	2.128490	0.721152	0.000085
 437	4.3382e+01	17.3594	50.339046	0.000284	2.837986	0.961536	0.000114
 438	4.3481e+01	17.4027	50.500531	0.000405	4.054266	1.373622	0.000162
 439	4.3581e+01	17.4412	50.581274	0.000203	2.027133	0.686811	0.000081
 440	4.3681e+01	17.4845	50.674128	0.000233	2.331203	0.789833	0.000093
 441	4.3780e+01	17.5359	50.835613	0.000405	4.054266	1.373622	0.000162
 442	4.3880e+01	17.5663	50.924430	0.000223	2.229846	0.755492	0.000089
 443	4.3979e+01	17.6000	51.029396	0.000264	2.635273	0.892855	0.000105
 444	4.4078e+01	17.6482	51.178770	0.000375	3.750196	1.270601	0.000150
 445	4.4178e+01	17.6915	51.291810	0.000284	2.837986	0.961536	0.000114
 446	4.4278e+01	17.7220	51.404849	0.000284	2.837986	0.961536	0.000114
 447	4.4377e+01	17.7556	51.481555	0.000193	1.925776	0.652471	0.000077
 448	4.4477e+01	17.8102	51.578446	0.000243	2.432560	0.824173	0.000097
 449	4.4576e+01	17.8439	51.703597	0.000314	3.142056	1.064557	0.000126
 450	4.4675e+01	17.8776	51.816637	0.000284	2.837986	0.961536	0.000114
 451	4.4775e+01	17.9321	51.937751	0.000304	3.040699	1.030217	0.000122
 452	4.4874e+01	17.9658	52.046754	0.000274	2.736630	0.927195	0.000110
 453	4.4974e+01	18.0059	52.155757	0.000274	2.736630	0.927195	0.000110
 454	4.5074e+01	18.0396	52.288982	0.000334	3.344769	1.133239	0.000134
 455	4.5173e+01	18.0893	52.389910	0.000253	2.533916	0.858514	0.000101
 456	4.5273e+01	18.1278	52.482765	0.000233	2.331203	0.789833	0.000093
 457	4.5372e+01	18.1679	52.603879	0.000304	3.040699	1.030217	0.000122
 458	4.5471e+01	18.1984	52.716918	0.000284	2.837986	0.961536	0.000114
 459	4.5571e+01	18.2369	52.878404	0.000405	4.054266	1.373622	0.000162
 460	4.5670e+01	18.2834	52.926850	0.000122	1.216280	0.412087	0.000049
 461	4.5770e+01	18.3252	53.108521	0.000456	4.561049	1.545325	0.000183
 462	4.5870e+01	18.3620	53.205412	0.000243	2.432560	0.824173	0.000097
 463	4.5969e+01	18.3973	53.334600	0.000324	3.243413	1.098898	0.000130
 464	4.6069e+01	18.4551	53.423417	0.000223	2.229846	0.755492	0.000089
 465	4.6168e+01	18.4808	53.516271	0.000233	2.331203	0.789833	0.000093
 466	4.6267e+01	18.5273	53.629311	0.000284	2.837986	0.961536	0.000114
 467	4.6367e+01	18.5674	53.742351	0.000284	2.837986	0.961536	0.000114
 468	4.6467e+01	18.6043	53.847316	0.000264	2.635273	0.892855	0.000105
 469	4.6566e+01	18.6476	53.964393	0.000294	2.939343	0.995876	0.000118
 470	4.6666e+01	18.6765	54.065322	0.000253	2.533916	0.858514	0.000101
 471	4.6765e+01	18.7262	54.226807	0.000405	4.054266	1.373622	0.000162
 472	4.6864e+01	18.7615	54.311587	0.000213	2.128490	0.721152	0.000085
 473	4.6964e+01	18.8048	54.404441	0.000233	2.331203	0.789833	0.000093
 474	4.7063e+01	18.8417	54.529592	0.000314	3.142056	1.064557	0.000126
 475	4.7163e+01	18.8738	54.638595	0.000274	2.736630	0.927195	0.000110
 476	4.7263e+01	18.9235	54.735486	0.000243	2.432560	0.824173	0.000097
 477	4.7362e+01	18.9540	54.864675	0.000324	3.243413	1.098898	0.000130
 478	4.7462e+01	19.0005	54.969640	0.000264	2.635273	0.892855	0.000105
 479	4.7561e+01	19.0390	55.098829	0.000324	3.243413	1.098898	0.000130
 480	4.7660e+01	19.0840	55.232054	0.000334	3.344769	1.133239	0.000134
 481	4.7760e+01	19.1096	55.357205	0.000314	3.142056	1.064557	0.000126
 482	4.7859e+01	19.1545	55.462171	0.000264	2.635273	0.892855	0.000105
 483	4.7959e+01	19.1898	55.530802	0.000172	1.723063	0.583790	0.000069
 484	4.8059e+01	19.2412	55.696325	0.000416	4.155623	1.407963	0.000166
 485	4.8158e+01	19.2813	55.773030	0.000193	1.925776	0.652471	0.000077
 486	4.8258e+01	19.3166	55.882033	0.000274	2.736630	0.927195	0.000110
 487	4.8357e+01	19.3535	55.950664	0.000172	1.723063	0.583790	0.000069
 488	4.8456e+01	19.3904	56.083890	0.000334	3.344769	1.133239	0.000134
 489	4.8556e+01	19.4305	56.209041	0.000314	3.142056	1.064557	0.000126
 490	4.8656e+01	19.4722	56.314006	0.000264	2.635273	0.892855	0.000105
 491	4.8755e+01	19.5171	56.406861	0.000233	2.331203	0.789833	0.000093
 492	4.8855e+01	19.5620	56.540086	0.000334	3.344769	1.133239	0.000134
 493	4.8954e+01	19.5989	56.624866	0.000213	2.128490	0.721152	0.000085
 494	4.9053e+01	19.6310	56.766166	0.000355	3.547483	1.201920	0.000142
 495	4.9153e+01	19.6663	56.846908	0.000203	2.027133	0.686811	0.000081
 496	4.9252e+01	19.7240	57.004357	0.000395	3.952909	1.339282	0.000158
 497	4.9352e+01	19.7609	57.093174	0.000223	2.229846	0.755492	0.000089
 498	4.9452e+01	19.7930	57.230436	0.000345	3.446126	1.167579	0.000138
 499	4.9551e+01	19.8267	57.363662	0.000334	3.344769	1.133239	0.000134
 500	4.9651e+01	19.8797	57.448442	0.000213	2.128490	0.721152	0.000085
 501	4.9750e+01	19.9149	57.549370	0.000253	2.533916	0.858514	0.000101
 502	4.9849e+01	19.9615	57.662410	0.000284	2.837986	0.961536	0.000114
 503	4.9949e+01	19.9952	57.755264	0.000233	2.331203	0.789833	0.000093
 504	5.0048e+01	19.9679	57.686633	0.000172	1.723063	0.583790	-0.000069
 505	5.0148e+01	19.9182	57.593778	0.000233	2.331203	0.789833	-0.000093
 506	5.0248e+01	19.8716	57.537259	0.000142	1.418993	0.480768	-0.000057
 507	5.0347e+01	19.8395	57.444404	0.000233	2.331203	0.789833	-0.000093
 508	5.0447e+01	19.7914	57.347513	0.000243	2.432560	0.824173	-0.000097
 509	5.0546e+01	19.7577	57.286956	0.000152	1.520350	0.515108	-0.000061
 510	5.0645e+01	19.7176	57.206213	0.000203	2.027133	0.686811	-0.000081
 511	5.0745e+01	19.6807	57.085099	0.000304	3.040699	1.030217	-0.000122
 512	5.0844e+01	19.6406	57.028579	0.000142	1.418993	0.480768	-0.000057
 513	5.0944e+01	19.5941	56.947837	0.000203	2.027133	0.686811	-0.000081
 514	5.1044e+01	19.5572	56.863057	0.000213	2.128490	0.721152	-0.000085
 515	5.1143e+01	19.5235	56.762128	0.000253	2.533916	0.858514	-0.000101
 516	5.1242e+01	19.4786	56.741943	0.000051	0.506783	0.171703	-0.000020
 517	5.1342e+01	19.4433	56.653126	0.000223	2.229846	0.755492	-0.000089
 518	5.1441e+01	19.3968	56.463380	0.000476	4.763762	1.614006	-0.000191
 519	5.1541e+01	19.3503	56.402823	0.000152	1.520350	0.515108	-0.000061
 520	5.1641e+01	19.3246	56.297858	0.000264	2.635273	0.892855	-0.000105
 521	5.1740e+01	19.2749	56.245375	0.000132	1.317636	0.446427	-0.000053
 522	5.1840e+01	19.2396	56.120224	0.000314	3.142056	1.064557	-0.000126
 523	5.1939e+01	19.1979	56.031407	0.000223	2.229846	0.755492	-0.000089
 524	5.2038e+01	19.1626	55.958738	0.000182	1.824420	0.618130	-0.000073
 525	5.2138e+01	19.1192	55.829550	0.000324	3.243413	1.098898	-0.000130
 526	5.2237e+01	19.0775	55.740733	0.000223	2.229846	0.755492	-0.000089
 527	5.2337e+01	19.0342	55.635768	0.000264	2.635273	0.892855	-0.000105
 528	5.2437e+01	18.9893	55.575211	0.000152	1.520350	0.515108	-0.000061
 529	5.2536e+01	18.9620	55.450059	0.000314	3.142056	1.064557	-0.000126
 530	5.2636e+01	18.9155	55.397577	0.000132	1.317636	0.446427	-0.000053
 531	5.2735e+01	18.8786	55.280500	0.000294	2.939343	0.995876	-0.000118
 532	5.2834e+01	18.8305	55.236091	0.000111	1.114923	0.377746	-0.000045
 533	5.2934e+01	18.8016	55.155348	0.000203	2.027133	0.686811	-0.000081
 534	5.3033e+01	18.7583	55.042309	0.000284	2.837986	0.961536	-0.000114
 535	5.3133e+01	18.7230	54.917157	0.000314	3.142056	1.064557	-0.000126
 536	5.3233e+01	18.6845	54.832378	0.000213	2.128490	0.721152	-0.000085
 537	5.3332e+01	18.6428	54.735486	0.000243	2.432560	0.824173	-0.000097
 538	5.3431e+01	18.6011	54.586112	0.000375	3.750196	1.270601	-0.000150
 539	5.3531e+01	18.5594	54.529592	0.000142	1.418993	0.480768	-0.000057
 540	5.3630e+01	18.5257	54.408478	0.000304	3.040699	1.030217	-0.000122
 541	5.3730e+01	18.4888	54.319661	0.000223	2.229846	0.755492	-0.000089
 542	5.3830e+01	18.4439	54.230844	0.000223	2.229846	0.755492	-0.000089
 543	5.3929e+01	18.3925	54.113767	0.000294	2.939343	0.995876	-0.000118
 544	5.4029e+01	18.3653	54.020913	0.000233	2.331203	0.789833	-0.000093
 545	5.4128e+01	18.3219	53.932096	0.000223	2.229846	0.755492	-0.000089
 546	5.4227e+01	18.2850	53.839242	0.000233	2.331203	0.789833	-0.000093
 547	5.4327e+01	18.2401	53.718128	0.000304	3.040699	1.030217	-0.000122
 548	5.4426e+01	18.2080	53.637385	0.000203	2.027133	0.686811	-0.000081
 549	5.4526e+01	18.1695	53.536457	0.000253	2.533916	0.858514	-0.000101
 550	5.4626e+01	18.1278	53.459751	0.000193	1.925776	0.652471	-0.000077
 551	5.4725e+01	18.0797	53.403232	0.000142	1.418993	0.480768	-0.000057
 552	5.4825e+01	18.0460	53.294229	0.000274	2.736630	0.927195	-0.000110
 553	5.4924e+01	18.0027	53.197338	0.000243	2.432560	0.824173	-0.000097
 554	5.5023e+01	17.9610	53.072186	0.000314	3.142056	1.064557	-0.000126
 555	5.5123e+01	17.9241	52.959147	0.000284	2.837986	0.961536	-0.000114
 556	5.5222e+01	17.8776	52.825921	0.000334	3.344769	1.133239	-0.000134
 557	5.5322e+01	17.8407	52.729030	0.000243	2.432560	0.824173	-0.000097
 558	5.5422e+01	17.8038	52.664436	0.000162	1.621706	0.549449	-0.000065
 559	5.5521e+01	17.7621	52.515062	0.000375	3.750196	1.270601	-0.000150
 560	5.5620e+01	17.7236	52.450468	0.000162	1.621706	0.549449	-0.000065
 561	5.5720e+01	17.6883	52.365688	0.000213	2.128490	0.721152	-0.000085
 562	5.5819e+01	17.6530	52.264759	0.000253	2.533916	0.858514	-0.000101
 563	5.5919e+01	17.6065	52.167868	0.000243	2.432560	0.824173	-0.000097
 564	5.6019e+01	17.5647	52.066940	0.000253	2.533916	0.858514	-0.000101
 565	5.6118e+01	17.5246	51.994271	0.000182	1.824420	0.618130	-0.000073
 566	5.6218e+01	17.4877	51.877194	0.000294	2.939343	0.995876	-0.000118
 567	5.6317e+01	17.4508	51.772229	0.000264	2.635273	0.892855	-0.000105
 568	5.6416e+01	17.4091	51.711672	0.000152	1.520350	0.515108	-0.000061
 569	5.6516e+01	17.3674	51.618818	0.000233	2.331203	0.789833	-0.000093
 570	5.6615e+01	17.3273	51.534038	0.000213	2.128490	0.721152	-0.000085
 571	5.6715e+01	17.2952	51.396775	0.000345	3.446126	1.167579	-0.000138
 572	5.6815e+01	17.2487	51.295847	0.000253	2.533916	0.858514	-0.000101
 573	5.6914e+01	17.2054	51.190881	0.000264	2.635273	0.892855	-0.000105
 574	5.7014e+01	17.1669	51.057656	0.000334	3.344769	1.133239	-0.000134
 575	5.7113e+01	17.1268	50.976913	0.000203	2.027133	0.686811	-0.000081
 576	5.7212e+01	17.0819	50.880022	0.000243	2.432560	0.824173	-0.000097
 577	5.7312e+01	17.0482	50.750833	0.000324	3.243413	1.098898	-0.000130
 578	5.7411e+01	17.0049	50.649905	0.000253	2.533916	0.858514	-0.000101
 579	5.7511e+01	16.9776	50.553014	0.000243	2.432560	0.824173	-0.000097
 580	5.7611e+01	16.9311	50.452085	0.000253	2.533916	0.858514	-0.000101
 581	5.7710e+01	16.8894	50.367305	0.000213	2.128490	0.721152	-0.000085
 582	5.7809e+01	16.8477	50.262340	0.000264	2.635273	0.892855	-0.000105
 583	5.7909e+01	16.8027	50.161412	0.000253	2.533916	0.858514	-0.000101
 584	5.8008e+01	16.7723	50.028186	0.000334	3.344769	1.133239	-0.000134
 585	5.8108e+01	16.7305	49.959555	0.000172	1.723063	0.583790	-0.000069
 586	5.8208e+01	16.6888	49.858626	0.000253	2.533916	0.858514	-0.000101
 587	5.8307e+01	16.6487	49.765772	0.000233	2.331203	0.789833	-0.000093
 588	5.8407e+01	16.6150	49.668881	0.000243	2.432560	0.824173	-0.000097
 589	5.8506e+01	16.5717	49.580064	0.000223	2.229846	0.755492	-0.000089
 590	5.8605e+01	16.5252	49.438764	0.000355	3.547483	1.201920	-0.000142
 591	5.8705e+01	16.4835	49.321687	0.000294	2.939343	0.995876	-0.000118
 592	5.8804e+01	16.4498	49.228833	0.000233	2.331203	0.789833	-0.000093
 593	5.8904e+01	16.4065	49.091571	0.000345	3.446126	1.167579	-0.000138
 594	5.9004e+01	16.3680	49.026976	0.000162	1.621706	0.549449	-0.000065
 595	5.9103e+01	16.3231	48.922011	0.000264	2.635273	0.892855	-0.000105
 596	5.9203e+01	16.2878	48.796860	0.000314	3.142056	1.064557	-0.000126
 597	5.9302e+01	16.2477	48.683820	0.000284	2.837986	0.961536	-0.000114
 598	5.9401e+01	16.2108	48.586929	0.000243	2.432560	0.824173	-0.000097
 599	5.9501e+01	16.1675	48.469852	0.000294	2.939343	0.995876	-0.000118
 600	5.9600e+01	16.1322	48.409295	0.000152	1.520350	0.515108	-0.000061
 601	5.9700e+01	16.0921	48.296255	0.000284	2.837986	0.961536	-0.000114
 602	5.9800e+01	16.0503	48.191289	0.000264	2.635273	0.892855	-0.000105
 603	5.9899e+01	16.0167	48.074212	0.000294	2.939343	0.995876	-0.000118
 604	5.9998e+01	15.9717	48.025767	0.000122	1.216280	0.412087	-0.000049
 605	6.0098e+01	15.9284	47.908690	0.000294	2.939343	0.995876	-0.000118
 606	6.0197e+01	15.8899	47.803724	0.000264	2.635273	0.892855	-0.000105
 607	6.0297e+01	15.8562	47.662425	0.000355	3.547483	1.201920	-0.000142
 608	6.0397e+01	15.8145	47.517088	0.000365	3.648839	1.236260	-0.000146
 609	6.0496e+01	15.7744	47.428271	0.000223	2.229846	0.755492	-0.000089
 610	6.0596e+01	15.7359	47.359639	0.000172	1.723063	0.583790	-0.000069
 611	6.0695e+01	15.6798	47.210265	0.000375	3.750196	1.270601	-0.000150
 612	6.0794e+01	15.6573	47.077040	0.000334	3.344769	1.133239	-0.000134
 613	6.0894e+01	15.6204	47.004371	0.000182	1.824420	0.618130	-0.000073
 614	6.0993e+01	15.5771	46.895369	0.000274	2.736630	0.927195	-0.000110
 615	6.1093e+01	15.5322	46.766180	0.000324	3.243413	1.098898	-0.000130
 616	6.1193e+01	15.4921	46.701586	0.000162	1.621706	0.549449	-0.000065
 617	6.1292e+01	15.4407	46.556249	0.000365	3.648839	1.236260	-0.000146
 618	6.1392e+01	15.4119	46.495692	0.000152	1.520350	0.515108	-0.000061
 619	6.1491e+01	15.3686	46.414950	0.000203	2.027133	0.686811	-0.000081
 620	6.1590e+01	15.3349	46.289798	0.000314	3.142056	1.064557	-0.000126
 621	6.1690e+01	15.2899	46.168684	0.000304	3.040699	1.030217	-0.000122
 622	6.1789e+01	15.2643	46.071793	0.000243	2.432560	0.824173	-0.000097
 623	6.1889e+01	15.2210	45.987013	0.000213	2.128490	0.721152	-0.000085
 624	6.1989e+01	15.1793	45.869936	0.000294	2.939343	0.995876	-0.000118
 625	6.2088e+01	15.1295	45.712488	0.000395	3.952909	1.339282	-0.000158
 626	6.2188e+01	15.0974	45.607522	0.000264	2.635273	0.892855	-0.000105
 627	6.2287e+01	15.0525	45.498520	0.000274	2.736630	0.927195	-0.000110
 628	6.2386e+01	15.0268	45.385480	0.000284	2.837986	0.961536	-0.000114
 629	6.2486e+01	14.9739	45.288589	0.000243	2.432560	0.824173	-0.000097
 630	6.2586e+01	14.9274	45.195735	0.000233	2.331203	0.789833	-0.000093
 631	6.2685e+01	14.9017	45.082695	0.000284	2.837986	0.961536	-0.000114
 632	6.2785e+01	14.8584	44.993878	0.000223	2.229846	0.755492	-0.000089
 633	6.2884e+01	14.8151	44.864689	0.000324	3.243413	1.098898	-0.000130
 634	6.2983e+01	14.7718	44.751650	0.000284	2.837986	0.961536	-0.000114
 635	6.3083e+01	14.7285	44.650721	0.000253	2.533916	0.858514	-0.000101
 636	6.3182e+01	14.7044	44.561904	0.000223	2.229846	0.755492	-0.000089
 637	6.3282e+01	14.6531	44.460976	0.000253	2.533916	0.858514	-0.000101
 638	6.3382e+01	14.6130	44.404456	0.000142	1.418993	0.480768	-0.000057
 639	6.3481e+01	14.5777	44.283342	0.000304	3.040699	1.030217	-0.000122
 640	6.3581e+01	14.5408	44.194525	0.000223	2.229846	0.755492	-0.000089
 641	6.3680e+01	14.4942	44.069374	0.000314	3.142056	1.064557	-0.000126
 642	6.3779e+01	14.4477	43.996705	0.000182	1.824420	0.618130	-0.000073
 643	6.3879e+01	14.4140	43.847331	0.000375	3.750196	1.270601	-0.000150
 644	6.3978e+01	14.3691	43.701994	0.000365	3.648839	1.236260	-0.000146
 645	6.4078e+01	14.3306	43.560695	0.000355	3.547483	1.201920	-0.000142
 646	6.4177e+01	14.3033	43.496100	0.000162	1.621706	0.549449	-0.000065
 647	6.4277e+01	14.2632	43.374986	0.000304	3.040699	1.030217	-0.000122
 648	6.4376e+01	14.2231	43.257909	0.000294	2.939343	0.995876	-0.000118
 649	6.4476e+01	14.1798	43.169092	0.000223	2.229846	0.755492	-0.000089
 650	6.4576e+01	14.1413	43.035867	0.000334	3.344769	1.133239	-0.000134
 651	6.4675e+01	14.0996	42.938976	0.000243	2.432560	0.824173	-0.000097
 652	6.4775e+01	14.0531	42.829973	0.000274	2.736630	0.927195	-0.000110
 653	6.4874e+01	14.0194	42.725008	0.000264	2.635273	0.892855	-0.000105
 654	6.4974e+01	13.9761	42.595819	0.000324	3.243413	1.098898	-0.000130
 655	6.5073e+01	13.9408	42.511039	0.000213	2.128490	0.721152	-0.000085
 656	6.5172e+01	13.8991	42.446445	0.000162	1.621706	0.549449	-0.000065
 657	6.5272e+01	13.8606	42.353591	0.000233	2.331203	0.789833	-0.000093
 658	6.5371e+01	13.8221	42.208254	0.000365	3.648839	1.236260	-0.000146
 659	6.5471e+01	13.7788	42.095214	0.000284	2.837986	0.961536	-0.000114
 660	6.5570e+01	13.7370	42.002360	0.000233	2.331203	0.789833	-0.000093
 661	6.5670e+01	13.6937	41.897395	0.000264	2.635273	0.892855	-0.000105
 662	6.5769e+01	13.6600	41.723798	0.000436	4.358336	1.476644	-0.000174
 663	6.5869e+01	13.6183	41.582498	0.000355	3.547483	1.201920	-0.000142
 664	6.5969e+01	13.5830	41.509830	0.000182	1.824420	0.618130	-0.000073
 665	6.6068e+01	13.5461	41.400827	0.000274	2.736630	0.927195	-0.000110
 666	6.6168e+01	13.5060	41.271639	0.000324	3.243413	1.098898	-0.000130
 667	6.6267e+01	13.4595	41.203007	0.000172	1.723063	0.583790	-0.000069
 668	6.6367e+01	13.4226	41.085930	0.000294	2.939343	0.995876	-0.000118
 669	6.6466e+01	13.3809	40.932519	0.000385	3.851553	1.304941	-0.000154
 670	6.6566e+01	13.3360	40.835628	0.000243	2.432560	0.824173	-0.000097
 671	6.6665e+01	13.3007	40.762960	0.000182	1.824420	0.618130	-0.000073
 672	6.6764e+01	13.2574	40.706440	0.000142	1.418993	0.480768	-0.000057
 673	6.6864e+01	13.2093	40.536880	0.000426	4.256979	1.442304	-0.000170
 674	6.6963e+01	13.1756	40.448063	0.000223	2.229846	0.755492	-0.000089
 675	6.7063e+01	13.1387	40.363283	0.000213	2.128490	0.721152	-0.000085
 676	6.7162e+01	13.1002	40.258318	0.000264	2.635273	0.892855	-0.000105
 677	6.7262e+01	13.0585	40.149315	0.000274	2.736630	0.927195	-0.000110
 678	6.7362e+01	13.0183	40.072609	0.000193	1.925776	0.652471	-0.000077
 679	6.7461e+01	12.9847	39.947458	0.000314	3.142056	1.064557	-0.000126
 680	6.7561e+01	12.9494	39.802121	0.000365	3.648839	1.236260	-0.000146
 681	6.7660e+01	12.8996	39.656784	0.000365	3.648839	1.236260	-0.000146
 682	6.7760e+01	12.8676	39.559893	0.000243	2.432560	0.824173	-0.000097
 683	6.7859e+01	12.8226	39.475113	0.000213	2.128490	0.721152	-0.000085
 684	6.7959e+01	12.7905	39.345925	0.000324	3.243413	1.098898	-0.000130
 685	6.8058e+01	12.7537	39.216737	0.000324	3.243413	1.098898	-0.000130
 686	6.8157e+01	12.7071	39.140031	0.000193	1.925776	0.652471	-0.000077
 687	6.8257e+01	12.6670	39.014880	0.000314	3.142056	1.064557	-0.000126
 688	6.8356e+01	12.6269	38.901840	0.000284	2.837986	0.961536	-0.000114
 689	6.8456e+01	12.5868	38.837246	0.000162	1.621706	0.549449	-0.000065
 690	6.8555e+01	12.5483	38.740355	0.000243	2.432560	0.824173	-0.000097
 691	6.8655e+01	12.5066	38.627315	0.000284	2.837986	0.961536	-0.000114
 692	6.8754e+01	12.4745	38.550609	0.000193	1.925776	0.652471	-0.000077
 693	6.8854e+01	12.4280	38.421421	0.000324	3.243413	1.098898	-0.000130
 694	6.8954e+01	12.3815	38.304344	0.000294	2.939343	0.995876	-0.000118
 695	6.9053e+01	12.3526	38.187267	0.000294	2.939343	0.995876	-0.000118
 696	6.9153e+01	12.3077	38.078264	0.000274	2.736630	0.927195	-0.000110
 697	6.9252e+01	12.2740	37.953113	0.000314	3.142056	1.064557	-0.000126
 698	6.9352e+01	12.2226	37.815850	0.000345	3.446126	1.167579	-0.000138
 699	6.9451e+01	12.1841	37.755293	0.000152	1.520350	0.515108	-0.000061
 700	6.9550e+01	12.1489	37.593808	0.000405	4.054266	1.373622	-0.000162
 701	6.9650e+01	12.1087	37.492880	0.000253	2.533916	0.858514	-0.000101
 702	6.9749e+01	12.0719	37.367728	0.000314	3.142056	1.064557	-0.000126
 703	6.9849e+01	12.0301	37.266800	0.000253	2.533916	0.858514	-0.000101
 704	6.9948e+01	11.9916	37.125500	0.000355	3.547483	1.201920	-0.000142
 705	7.0048e+01	11.9644	37.048795	0.000193	1.925776	0.652471	-0.000077
 706	7.0147e+01	11.9082	36.959978	0.000223	2.229846	0.755492	-0.000089
 707	7.0247e+01	11.8681	36.846938	0.000284	2.837986	0.961536	-0.000114
 708	7.0347e+01	11.8328	36.750047	0.000243	2.432560	0.824173	-0.000097
 709	7.0446e+01	11.7927	36.645081	0.000264	2.635273	0.892855	-0.000105
 710	7.0546e+01	11.7510	36.548190	0.000243	2.432560	0.824173	-0.000097
 711	7.0645e+01	11.7093	36.390742	0.000395	3.952909	1.339282	-0.000158
 712	7.0745e+01	11.6612	36.322110	0.000172	1.723063	0.583790	-0.000069
 713	7.0844e+01	11.6275	36.184848	0.000345	3.446126	1.167579	-0.000138
 714	7.0944e+01	11.5906	36.059696	0.000314	3.142056	1.064557	-0.000126
 715	7.1043e+01	11.5585	35.934545	0.000314	3.142056	1.064557	-0.000126
 716	7.1142e+01	11.5136	35.769023	0.000416	4.155623	1.407963	-0.000166
 717	7.1242e+01	11.4783	35.704428	0.000162	1.621706	0.549449	-0.000065
 718	7.1341e+01	11.4382	35.575240	0.000324	3.243413	1.098898	-0.000130
 719	7.1441e+01	11.3917	35.458163	0.000294	2.939343	0.995876	-0.000118
 720	7.1540e+01	11.3580	35.377420	0.000203	2.027133	0.686811	-0.000081
 721	7.1640e+01	11.3130	35.228046	0.000375	3.750196	1.270601	-0.000150
 722	7.1740e+01	11.2601	35.143267	0.000213	2.128490	0.721152	-0.000085
 723	7.1839e+01	11.2264	35.014078	0.000324	3.243413	1.098898	-0.000130
 724	7.1939e+01	11.1975	34.937373	0.000193	1.925776	0.652471	-0.000077
 725	7.2038e+01	11.1494	34.804147	0.000334	3.344769	1.133239	-0.000134
 726	7.2138e+01	11.1061	34.739553	0.000162	1.621706	0.549449	-0.000065
 727	7.2237e+01	11.0660	34.626513	0.000284	2.837986	0.961536	-0.000114
 728	7.2337e+01	11.0291	34.533659	0.000233	2.331203	0.789833	-0.000093
 729	7.2436e+01	10.9906	34.412545	0.000304	3.040699	1.030217	-0.000122
 730	7.2535e+01	10.9617	34.279320	0.000334	3.344769	1.133239	-0.000134
 731	7.2635e+01	10.9136	34.174354	0.000264	2.635273	0.892855	-0.000105
 732	7.2734e+01	10.8719	34.057277	0.000294	2.939343	0.995876	-0.000118
 733	7.2834e+01	10.8366	33.907903	0.000375	3.750196	1.270601	-0.000150
 734	7.2933e+01	10.7933	33.794863	0.000284	2.837986	0.961536	-0.000114
 735	7.3033e+01	10.7532	33.645489	0.000375	3.750196	1.270601	-0.000150
 736	7.3132e+01	10.7115	33.544561	0.000253	2.533916	0.858514	-0.000101
 737	7.3232e+01	10.6681	33.431521	0.000284	2.837986	0.961536	-0.000114
 738	7.3332e+01	10.6248	33.330593	0.000253	2.533916	0.858514	-0.000101
 739	7.3431e+01	10.5960	33.221590	0.000274	2.736630	0.927195	-0.000110
 740	7.3531e+01	10.5542	33.108550	0.000284	2.837986	0.961536	-0.000114
 741	7.3630e+01	10.5174	33.031845	0.000193	1.925776	0.652471	-0.000077
 742	7.3730e+01	10.4805	32.898619	0.000334	3.344769	1.133239	-0.000134
 743	7.3829e+01	10.4387	32.793654	0.000264	2.635273	0.892855	-0.000105
 744	7.3928e+01	10.3970	32.696762	0.000243	2.432560	0.824173	-0.000097
 745	7.4028e+01	10.3489	32.563537	0.000334	3.344769	1.133239	-0.000134
 746	7.4127e+01	10.3088	32.474720	0.000223	2.229846	0.755492	-0.000089
 747	7.4227e+01	10.2703	32.377829	0.000243	2.432560	0.824173	-0.000097
 748	7.4326e+01	10.2334	32.252677	0.000314	3.142056	1.064557	-0.000126
 749	7.4426e+01	10.1997	32.119452	0.000334	3.344769	1.133239	-0.000134
 750	7.4525e+01	10.1564	31.978152	0.000355	3.547483	1.201920	-0.000142
 751	7.4625e+01	10.1147	31.848964	0.000324	3.243413	1.098898	-0.000130
 752	7.4725e+01	10.0746	31.723813	0.000314	3.142056	1.064557	-0.000126
 753	7.4824e+01	10.0345	31.586550	0.000345	3.446126	1.167579	-0.000138
 754	7.4924e+01	9.9944	31.473510	0.000284	2.837986	0.961536	-0.000114
 755	7.5023e+01	9.9623	31.360470	0.000284	2.837986	0.961536	-0.000114
 756	7.5123e+01	9.9206	31.255505	0.000264	2.635273	0.892855	-0.000105
 757	7.5222e+01	9.8789	31.130354	0.000314	3.142056	1.064557	-0.000126
 758	7.5322e+01	9.8372	31.013277	0.000294	2.939343	0.995876	-0.000118
 759	7.5421e+01	9.7987	30.924460	0.000223	2.229846	0.755492	-0.000089
 760	7.5520e+01	9.7505	30.827568	0.000243	2.432560	0.824173	-0.000097
 761	7.5620e+01	9.7200	30.714529	0.000284	2.837986	0.961536	-0.000114
 762	7.5719e+01	9.6848	30.569192	0.000365	3.648839	1.236260	-0.000146
 763	7.5819e+01	9.6414	30.476338	0.000233	2.331203	0.789833	-0.000093
 764	7.5918e+01	9.5917	30.379446	0.000243	2.432560	0.824173	-0.000097
 765	7.6018e+01	9.5596	30.238147	0.000355	3.547483	1.201920	-0.000142
 766	7.6118e+01	9.5243	30.141255	0.000243	2.432560	0.824173	-0.000097
 767	7.6217e+01	9.4746	30.016104	0.000314	3.142056	1.064557	-0.000126
 768	7.6317e+01	9.4457	29.894990	0.000304	3.040699	1.030217	-0.000122
 769	7.6416e+01	9.4072	29.713319	0.000456	4.561049	1.545325	-0.000183
 770	7.6516e+01	9.3559	29.563945	0.000375	3.750196	1.270601	-0.000150
 771	7.6615e+01	9.3254	29.475128	0.000223	2.229846	0.755492	-0.000089
 772	7.6715e+01	9.2757	29.378237	0.000243	2.432560	0.824173	-0.000097
 773	7.6814e+01	9.2468	29.196566	0.000456	4.561049	1.545325	-0.000183
 774	7.6913e+01	9.2035	29.115823	0.000203	2.027133	0.686811	-0.000081
 775	7.7013e+01	9.1602	28.978560	0.000345	3.446126	1.167579	-0.000138
 776	7.7112e+01	9.1153	28.893780	0.000213	2.128490	0.721152	-0.000085
 777	7.7212e+01	9.0767	28.788815	0.000264	2.635273	0.892855	-0.000105
 778	7.7311e+01	9.0479	28.704035	0.000213	2.128490	0.721152	-0.000085
 779	7.7411e+01	9.0014	28.623292	0.000203	2.027133	0.686811	-0.000081
 780	7.7510e+01	8.9564	28.481993	0.000355	3.547483	1.201920	-0.000142
 781	7.7610e+01	8.9131	28.340693	0.000355	3.547483	1.201920	-0.000142
 782	7.7710e+01	8.8826	28.259950	0.000203	2.027133	0.686811	-0.000081
 783	7.7809e+01	8.8489	28.114613	0.000365	3.648839	1.236260	-0.000146
 784	7.7909e+01	8.8040	28.009648	0.000264	2.635273	0.892855	-0.000105
 785	7.8008e+01	8.7575	27.880459	0.000324	3.243413	1.098898	-0.000130
 786	7.8108e+01	8.7238	27.755308	0.000314	3.142056	1.064557	-0.000126
 787	7.8207e+01	8.6853	27.638231	0.000294	2.939343	0.995876	-0.000118
 788	7.8306e+01	8.6388	27.484820	0.000385	3.851553	1.304941	-0.000154
 789	7.8406e+01	8.5891	27.319298	0.000416	4.155623	1.407963	-0.000166
 790	7.8505e+01	8.5586	27.226443	0.000233	2.331203	0.789833	-0.000093
 791	7.8605e+01	8.5233	27.085144	0.000355	3.547483	1.201920	-0.000142
 792	7.8704e+01	8.4832	26.968067	0.000294	2.939343	0.995876	-0.000118
 793	7.8804e+01	8.4431	26.887324	0.000203	2.027133	0.686811	-0.000081
 794	7.8903e+01	8.4030	26.746024	0.000355	3.547483	1.201920	-0.000142
 795	7.9003e+01	8.3677	26.685467	0.000152	1.520350	0.515108	-0.000061
 796	7.9103e+01	8.3147	26.560316	0.000314	3.142056	1.064557	-0.000126
 797	7.9202e+01	8.2762	26.431128	0.000324	3.243413	1.098898	-0.000130
 798	7.9302e+01	8.2458	26.342311	0.000223	2.229846	0.755492	-0.000089
 799	7.9401e+01	8.2073	26.221197	0.000304	3.040699	1.030217	-0.000122
 800	7.9501e+01	8.1623	26.083934	0.000345	3.446126	1.167579	-0.000138
 801	7.9600e+01	8.1270	26.007228	0.000193	1.925776	0.652471	-0.000077
 802	7.9700e+01	8.0757	25.845743	0.000405	4.054266	1.373622	-0.000162
 803	7.9799e+01	8.0404	25.769037	0.000193	1.925776	0.652471	-0.000077
 804	7.9898e+01	8.0131	25.579292	0.000476	4.763762	1.614006	-0.000191
 805	7.9998e+01	7.9586	25.450104	0.000324	3.243413	1.098898	-0.000130
 806	8.0097e+01	7.9233	25.312841	0.000345	3.446126	1.167579	-0.000138
 807	8.0197e+01	7.8832	25.195764	0.000294	2.939343	0.995876	-0.000118
 808	8.0296e+01	7.8447	25.098873	0.000243	2.432560	0.824173	-0.000097
 809	8.0396e+01	7.7950	24.957573	0.000355	3.547483	1.201920	-0.000142
 810	8.0496e+01	7.7693	24.856645	0.000253	2.533916	0.858514	-0.000101
 811	8.0595e+01	7.7228	24.723419	0.000334	3.344769	1.133239	-0.000134
 812	8.0695e+01	7.6923	24.638639	0.000213	2.128490	0.721152	-0.000085
 813	8.0794e+01	7.6394	24.525600	0.000284	2.837986	0.961536	-0.000114
 814	8.0894e+01	7.6041	24.432745	0.000233	2.331203	0.789833	-0.000093
 815	8.0993e+01	7.5640	24.307594	0.000314	3.142056	1.064557	-0.000126
 816	8.1093e+01	7.5239	24.178406	0.000324	3.243413	1.098898	-0.000130
 817	8.1192e+01	7.4837	24.016921	0.000405	4.054266	1.373622	-0.000162
 818	8.1291e+01	7.4452	23.928104	0.000223	2.229846	0.755492	-0.000089
 819	8.1391e+01	7.4067	23.831212	0.000243	2.432560	0.824173	-0.000097
 820	8.1490e+01	7.3682	23.665690	0.000416	4.155623	1.407963	-0.000166
 821	8.1590e+01	7.3249	23.576873	0.000223	2.229846	0.755492	-0.000089
 822	8.1689e+01	7.2880	23.467870	0.000274	2.736630	0.927195	-0.000110
 823	8.1789e+01	7.2495	23.306385	0.000405	4.054266	1.373622	-0.000162
 824	8.1888e+01	7.2014	23.161048	0.000365	3.648839	1.236260	-0.000146
 825	8.1988e+01	7.1629	23.039934	0.000304	3.040699	1.030217	-0.000122
 826	8.2088e+01	7.1308	22.898634	0.000355	3.547483	1.201920	-0.000142
 827	8.2187e+01	7.0843	22.753297	0.000365	3.648839	1.236260	-0.000146
 828	8.2287e+01	7.0410	22.688703	0.000162	1.621706	0.549449	-0.000065
 829	8.2386e+01	7.0105	22.535292	0.000385	3.851553	1.304941	-0.000154
 830	8.2486e+01	6.9656	22.430326	0.000264	2.635273	0.892855	-0.000105
 831	8.2585e+01	6.9239	22.280952	0.000375	3.750196	1.270601	-0.000150
 832	8.2684e+01	6.8838	22.196172	0.000213	2.128490	0.721152	-0.000085
 833	8.2784e+01	6.8517	22.127541	0.000172	1.723063	0.583790	-0.000069
 834	8.2883e+01	6.8084	22.022575	0.000264	2.635273	0.892855	-0.000105
 835	8.2983e+01	6.7747	21.881276	0.000355	3.547483	1.201920	-0.000142
 836	8.3082e+01	6.7249	21.768236	0.000284	2.837986	0.961536	-0.000114
 837	8.3182e+01	6.6800	21.659233	0.000274	2.736630	0.927195	-0.000110
 838	8.3281e+01	6.6447	21.497748	0.000405	4.054266	1.373622	-0.000162
 839	8.3381e+01	6.6046	21.449302	0.000122	1.216280	0.412087	-0.000049
 840	8.3481e+01	6.5806	21.271668	0.000446	4.459693	1.510985	-0.000179
 841	8.3580e+01	6.5340	21.134406	0.000345	3.446126	1.167579	-0.000138
 842	8.3680e+01	6.4811	21.001180	0.000334	3.344769	1.133239	-0.000134
 843	8.3779e+01	6.4538	20.884103	0.000294	2.939343	0.995876	-0.000118
 844	8.3879e+01	6.4137	20.762989	0.000304	3.040699	1.030217	-0.000122
 845	8.3978e+01	6.3768	20.658024	0.000264	2.635273	0.892855	-0.000105
 846	8.4078e+01	6.3319	20.540947	0.000294	2.939343	0.995876	-0.000118
 847	8.4177e+01	6.2966	20.403684	0.000345	3.446126	1.167579	-0.000138
 848	8.4276e+01	6.2629	20.290644	0.000284	2.837986	0.961536	-0.000114
 849	8.4376e+01	6.2148	20.169530	0.000304	3.040699	1.030217	-0.000122
 850	8.4475e+01	6.1763	20.096862	0.000182	1.824420	0.618130	-0.000073
 851	8.4575e+01	6.1298	19.987859	0.000274	2.736630	0.927195	-0.000110
 852	8.4674e+01	6.0897	19.886931	0.000253	2.533916	0.858514	-0.000101
 853	8.4774e+01	6.0447	19.761779	0.000314	3.142056	1.064557	-0.000126
 854	8.4874e+01	6.0046	19.652777	0.000274	2.736630	0.927195	-0.000110
 855	8.4973e+01	5.9758	19.507440	0.000365	3.648839	1.236260	-0.000146
 856	8.5073e+01	5.9341	19.386326	0.000304	3.040699	1.030217	-0.000122
 857	8.5172e+01	5.8891	19.277323	0.000274	2.736630	0.927195	-0.000110
 858	8.5272e+01	5.8619	19.095652	0.000456	4.561049	1.545325	-0.000183
 859	8.5371e+01	5.8105	18.974538	0.000304	3.040699	1.030217	-0.000122
 860	8.5471e+01	5.7752	18.893795	0.000203	2.027133	0.686811	-0.000081
 861	8.5570e+01	5.7351	18.728273	0.000416	4.155623	1.407963	-0.000166
 862	8.5669e+01	5.6966	18.554676	0.000436	4.358336	1.476644	-0.000174
 863	8.5769e+01	5.6613	18.482007	0.000182	1.824420	0.618130	-0.000073
 864	8.5868e+01	5.6132	18.332633	0.000375	3.750196	1.270601	-0.000150
 865	8.5968e+01	5.5715	18.247854	0.000213	2.128490	0.721152	-0.000085
 866	8.6067e+01	5.5362	18.126739	0.000304	3.040699	1.030217	-0.000122
 867	8.6167e+01	5.4929	18.009663	0.000294	2.939343	0.995876	-0.000118
 868	8.6266e+01	5.4592	17.920846	0.000223	2.229846	0.755492	-0.000089
 869	8.6366e+01	5.4127	17.811843	0.000274	2.736630	0.927195	-0.000110
 870	8.6466e+01	5.3678	17.666506	0.000365	3.648839	1.236260	-0.000146
 871	8.6565e+01	5.3277	17.585763	0.000203	2.027133	0.686811	-0.000081
 872	8.6665e+01	5.2988	17.460612	0.000314	3.142056	1.064557	-0.000126
 873	8.6764e+01	5.2555	17.347572	0.000284	2.837986	0.961536	-0.000114
 874	8.6864e+01	5.2138	17.169938	0.000446	4.459693	1.510985	-0.000179
 875	8.6963e+01	5.1720	17.077084	0.000233	2.331203	0.789833	-0.000093
 876	8.7063e+01	5.1335	16.935784	0.000355	3.547483	1.201920	-0.000142
 877	8.7162e+01	5.0886	16.782373	0.000385	3.851553	1.304941	-0.000154
 878	8.7261e+01	5.0662	16.645111	0.000345	3.446126	1.167579	-0.000138
 879	8.7361e+01	5.0132	16.519959	0.000314	3.142056	1.064557	-0.000126
 880	8.7460e+01	4.9795	16.402883	0.000294	2.939343	0.995876	-0.000118
 881	8.7560e+01	4.9362	16.241397	0.000405	4.054266	1.373622	-0.000162
 882	8.7659e+01	4.9073	16.168729	0.000182	1.824420	0.618130	-0.000073
 883	8.7759e+01	4.8576	16.023392	0.000365	3.648839	1.236260	-0.000146
 884	8.7859e+01	4.8111	15.906315	0.000294	2.939343	0.995876	-0.000118
 885	8.7958e+01	4.7806	15.857869	0.000122	1.216280	0.412087	-0.000049
 886	8.8058e+01	4.7341	15.700421	0.000395	3.952909	1.339282	-0.000158
 887	8.8157e+01	4.6940	15.603530	0.000243	2.432560	0.824173	-0.000097
 888	8.8257e+01	4.6555	15.478378	0.000314	3.142056	1.064557	-0.000126
 889	8.8356e+01	4.6074	15.333042	0.000365	3.648839	1.236260	-0.000146
 890	8.8456e+01	4.5753	15.207890	0.000314	3.142056	1.064557	-0.000126
 891	8.8555e+01	4.5368	15.123110	0.000213	2.128490	0.721152	-0.000085
 892	8.8654e+01	4.4999	14.957588	0.000416	4.155623	1.407963	-0.000166
 893	8.8754e+01	4.4550	14.808214	0.000375	3.750196	1.270601	-0.000150
 894	8.8853e+01	4.4181	14.670951	0.000345	3.446126	1.167579	-0.000138
 895	8.8953e+01	4.3763	14.525614	0.000365	3.648839	1.236260	-0.000146
 896	8.9052e+01	4.3330	14.416612	0.000274	2.736630	0.927195	-0.000110
 897	8.9152e+01	4.2913	14.319720	0.000243	2.432560	0.824173	-0.000097
 898	8.9251e+01	4.2705	14.178421	0.000355	3.547483	1.201920	-0.000142
 899	8.9351e+01	4.2159	14.069418	0.000274	2.736630	0.927195	-0.000110
 900	8.9451e+01	4.1838	13.916007	0.000385	3.851553	1.304941	-0.000154
 901	8.9550e+01	4.1389	13.831227	0.000213	2.128490	0.721152	-0.000085
 902	8.9650e+01	4.1036	13.738373	0.000233	2.331203	0.789833	-0.000093
 903	8.9749e+01	4.0571	13.633407	0.000264	2.635273	0.892855	-0.000105
 904	8.9849e+01	4.0218	13.536516	0.000243	2.432560	0.824173	-0.000097
 905	8.9948e+01	3.9833	13.403291	0.000334	3.344769	1.133239	-0.000134
 906	9.0047e+01	3.9352	13.274102	0.000324	3.243413	1.098898	-0.000130
 907	9.0147e+01	3.8935	13.144914	0.000324	3.243413	1.098898	-0.000130
 908	9.0246e+01	3.8630	13.056097	0.000223	2.229846	0.755492	-0.000089
 909	9.0346e+01	3.8245	12.910760	0.000365	3.648839	1.236260	-0.000146
 910	9.0445e+01	3.7812	12.749275	0.000405	4.054266	1.373622	-0.000162
 911	9.0545e+01	3.7379	12.616049	0.000334	3.344769	1.133239	-0.000134
 912	9.0644e+01	3.7074	12.426304	0.000476	4.763762	1.614006	-0.000191
 913	9.0744e+01	3.6657	12.381895	0.000111	1.114923	0.377746	-0.000045
 914	9.0844e+01	3.6208	12.248670	0.000334	3.344769	1.133239	-0.000134
 915	9.0943e+01	3.5774	12.139667	0.000274	2.736630	0.927195	-0.000110
 916	9.1043e+01	3.5405	11.998367	0.000355	3.547483	1.201920	-0.000142
 917	9.1142e+01	3.5085	11.889365	0.000274	2.736630	0.927195	-0.000110
 918	9.1242e+01	3.4651	11.719805	0.000426	4.256979	1.442304	-0.000170
 919	9.1341e+01	3.4186	11.622914	0.000243	2.432560	0.824173	-0.000097
 920	9.1441e+01	3.3946	11.481614	0.000355	3.547483	1.201920	-0.000142
 921	9.1540e+01	3.3416	11.412983	0.000172	1.723063	0.583790	-0.000069
 922	9.1639e+01	3.3015	11.316091	0.000243	2.432560	0.824173	-0.000097
 923	9.1739e+01	3.2630	11.134420	0.000456	4.561049	1.545325	-0.000183
 924	9.1838e+01	3.2245	11.053678	0.000203	2.027133	0.686811	-0.000081
 925	9.1938e+01	3.1844	10.896229	0.000395	3.952909	1.339282	-0.000158
 926	9.2037e+01	3.1475	10.767041	0.000324	3.243413	1.098898	-0.000130
 927	9.2137e+01	3.1074	10.613630	0.000385	3.851553	1.304941	-0.000154
 928	9.2237e+01	3.0641	10.508664	0.000264	2.635273	0.892855	-0.000105
 929	9.2336e+01	3.0208	10.294696	0.000537	5.371902	1.820050	-0.000215
 930	9.2436e+01	2.9903	10.173582	0.000304	3.040699	1.030217	-0.000122
 931	9.2535e+01	2.9374	10.072654	0.000253	2.533916	0.858514	-0.000101
 932	9.2635e+01	2.9069	9.923280	0.000375	3.750196	1.270601	-0.000150
 933	9.2734e+01	2.8571	9.798128	0.000314	3.142056	1.064557	-0.000126
 934	9.2834e+01	2.8234	9.681051	0.000294	2.939343	0.995876	-0.000118
 935	9.2933e+01	2.7914	9.584160	0.000243	2.432560	0.824173	-0.000097
 936	9.3032e+01	2.7432	9.450935	0.000334	3.344769	1.133239	-0.000134
 937	9.3132e+01	2.7079	9.362118	0.000223	2.229846	0.755492	-0.000089
 938	9.3231e+01	2.6743	9.204669	0.000395	3.952909	1.339282	-0.000158
 939	9.3331e+01	2.6261	9.103741	0.000253	2.533916	0.858514	-0.000101
 940	9.3430e+01	2.5940	9.002813	0.000253	2.533916	0.858514	-0.000101
 941	9.3530e+01	2.5459	8.901884	0.000253	2.533916	0.858514	-0.000101
 942	9.3629e+01	2.5010	8.784807	0.000294	2.939343	0.995876	-0.000118
 943	9.3729e+01	2.4609	8.635433	0.000375	3.750196	1.270601	-0.000150
 944	9.3829e+01	2.4272	8.518356	0.000294	2.939343	0.995876	-0.000118
 945	9.3928e+01	2.3871	8.360908	0.000395	3.952909	1.339282	-0.000158
 946	9.4028e+01	2.3438	8.179237	0.000456	4.561049	1.545325	-0.000183
 947	9.4127e+01	2.2941	8.029863	0.000375	3.750196	1.270601	-0.000150
 948	9.4227e+01	2.2652	7.916823	0.000284	2.837986	0.961536	-0.000114
 949	9.4326e+01	2.2187	7.795709	0.000304	3.040699	1.030217	-0.000122
 950	9.4425e+01	2.1914	7.654409	0.000355	3.547483	1.201920	-0.000142
 951	9.4525e+01	2.1497	7.549444	0.000264	2.635273	0.892855	-0.000105
 952	9.4624e+01	2.1015	7.424293	0.000314	3.142056	1.064557	-0.000126
 953	9.4724e+01	2.0614	7.307216	0.000294	2.939343	0.995876	-0.000118
 954	9.4823e+01	2.0229	7.194176	0.000284	2.837986	0.961536	-0.000114
 955	9.4923e+01	1.9941	7.048839	0.000365	3.648839	1.236260	-0.000146
 956	9.5022e+01	1.9491	6.915614	0.000334	3.344769	1.133239	-0.000134
 957	9.5122e+01	1.9138	6.842945	0.000182	1.824420	0.618130	-0.000073
 958	9.5222e+01	1.8737	6.737980	0.000264	2.635273	0.892855	-0.000105
 959	9.5321e+01	1.8320	6.596680	0.000355	3.547483	1.201920	-0.000142
 960	9.5421e+01	1.7855	6.455380	0.000355	3.547483	1.201920	-0.000142
 961	9.5520e+01	1.7534	6.342340	0.000284	2.837986	0.961536	-0.000114
 962	9.5620e+01	1.7053	6.201040	0.000355	3.547483	1.201920	-0.000142
 963	9.5719e+01	1.6700	6.112224	0.000223	2.229846	0.755492	-0.000089
 964	9.5819e+01	1.6203	5.902292	0.000527	5.270546	1.785709	-0.000211
 965	9.5918e+01	1.5850	5.736770	0.000416	4.155623	1.407963	-0.000166
 966	9.6017e+01	1.5529	5.664101	0.000182	1.824420	0.618130	-0.000073
 967	9.6117e+01	1.5176	5.466282	0.000497	4.966476	1.682688	-0.000199
 968	9.6216e+01	1.4647	5.373428	0.000233	2.331203	0.789833	-0.000093
 969	9.6316e+01	1.4294	5.248276	0.000314	3.142056	1.064557	-0.000126
 970	9.6415e+01	1.3828	5.119088	0.000324	3.243413	1.098898	-0.000130
 971	9.6515e+01	1.3476	5.026234	0.000233	2.331203	0.789833	-0.000093
 972	9.6615e+01	1.3155	4.864749	0.000405	4.054266	1.373622	-0.000162
 973	9.6714e+01	1.2689	4.784006	0.000203	2.027133	0.686811	-0.000081
 974	9.6814e+01	1.2256	4.675003	0.000274	2.736630	0.927195	-0.000110
 975	9.6913e+01	1.1871	4.582149	0.000233	2.331203	0.789833	-0.000093
 976	9.7013e+01	1.1470	4.448924	0.000334	3.344769	1.133239	-0.000134
 977	9.7112e+01	1.1101	4.343958	0.000264	2.635273	0.892855	-0.000105
 978	9.7212e+01	1.0700	4.182473	0.000405	4.054266	1.373622	-0.000162
 979	9.7311e+01	1.0219	4.069433	0.000284	2.837986	0.961536	-0.000114
 980	9.7410e+01	0.9898	3.916022	0.000385	3.851553	1.304941	-0.000154
 981	9.7510e+01	0.9465	3.774722	0.000355	3.547483	1.201920	-0.000142
 982	9.7609e+01	0.9192	3.621311	0.000385	3.851553	1.304941	-0.000154
 983	9.7709e+01	0.8695	3.471937	0.000375	3.750196	1.270601	-0.000150
 984	9.7808e+01	0.8390	3.391194	0.000203	2.027133	0.686811	-0.000081
 985	9.7908e+01	0.7877	3.225671	0.000416	4.155623	1.407963	-0.000166
 986	9.8007e+01	0.7460	3.112632	0.000284	2.837986	0.961536	-0.000114
 987	9.8107e+01	0.7123	2.975369	0.000345	3.446126	1.167579	-0.000138
 988	9.8207e+01	0.6690	2.842144	0.000334	3.344769	1.133239	-0.000134
 989	9.8306e+01	0.6337	2.692770	0.000375	3.750196	1.270601	-0.000150
 990	9.8406e+01	0.5952	2.612027	0.000203	2.027133	0.686811	-0.000081
 991	9.8505e+01	0.5438	2.490913	0.000304	3.040699	1.030217	-0.000122
 992	9.8605e+01	0.5085	2.398059	0.000233	2.331203	0.789833	-0.000093
 993	9.8704e+01	0.4732	2.240610	0.000395	3.952909	1.339282	-0.000158
 994	9.8803e+01	0.4299	2.135645	0.000264	2.635273	0.892855	-0.000105
 995	9.8903e+01	0.3946	2.030679	0.000264	2.635273	0.892855	-0.000105
 996	9.9002e+01	0.3497	1.905528	0.000314	3.142056	1.064557	-0.000126
 997	9.9102e+01	0.3128	1.772303	0.000334	3.344769	1.133239	-0.000134
 998	9.9201e+01	0.2743	1.614854	0.000395	3.952909	1.339282	-0.000158
 999	9.9301e+01	0.2326	1.501814	0.000284	2.837986	0.961536	-0.000114
1000	9.9400e+01	0.2053	1.344366	0.000395	3.952909	1.339282	-0.000158
1001	9.9500e+01	0.1508	1.190955	0.000385	3.851553	1.304941	-0.000154
1002	9.9600e+01	0.1123	1.061767	0.000324	3.243413	1.098898	-0.000130
1003	9.9699e+01	0.0754	0.932578	0.000324	3.243413	1.098898	-0.000130
1004	9.9799e+01	0.0369	0.823576	0.000274	2.736630	0.927195	-0.000110
1005	9.9898e+01	0.0064	0.730722	0.000233	2.331203	0.789833	-0.000093
1006	9.9998e+01	-0.0321	0.573273	0.000395	3.952909	1.339282	-0.000158
1007	1.0010e+02	-0.0690	0.468308	0.000264	2.635273	0.892855	-0.000105
1008	1.0020e+02	-0.1235	0.351231	0.000294	2.939343	0.995876	-0.000118
1009	1.0030e+02	-0.1540	0.258377	0.000233	2.331203	0.789833	-0.000093
1010	1.0040e+02	-0.1941	0.129188	0.000324	3.243413	1.098898	-0.000130
1011	1.0050e+02	-0.2374	0.032297	0.000243	2.432560	0.824173	-0.000097
1012	1.0059e+02	-0.2743	-0.084780	0.000294	2.939343	0.995876	-0.000118
1013	1.0069e+02	-0.3225	-0.218005	0.000334	3.344769	1.133239	-0.000134
1014	1.0079e+02	-0.3626	-0.351231	0.000334	3.344769	1.133239	-0.000134
1015	1.0089e+02	-0.3978	-0.468308	0.000294	2.939343	0.995876	-0.000118
1016	1.0099e+02	-0.4396	-0.605570	0.000345	3.446126	1.167579	-0.000138
1017	1.0109e+02	-0.4781	-0.710536	0.000264	2.635273	0.892855	-0.000105
1018	1.0119e+02	-0.5118	-0.843761	0.000334	3.344769	1.133239	-0.000134
1019	1.0129e+02	-0.5503	-1.037544	0.000487	4.865119	1.648347	-0.000195
1020	1.0139e+02	-0.5888	-1.146547	0.000274	2.736630	0.927195	-0.000110
1021	1.0149e+02	-0.6305	-1.239401	0.000233	2.331203	0.789833	-0.000093
1022	1.0159e+02	-0.6738	-1.412998	0.000436	4.358336	1.476644	-0.000174
1023	1.0169e+02	-0.7123	-1.534112	0.000304	3.040699	1.030217	-0.000122
1024	1.0179e+02	-0.7588	-1.610817	0.000193	1.925776	0.652471	-0.000077
1025	1.0189e+02	-0.7909	-1.727894	0.000294	2.939343	0.995876	-0.000118
1026	1.0199e+02	-0.8358	-1.889380	0.000405	4.054266	1.373622	-0.000162
1027	1.0209e+02	-0.8695	-1.970122	0.000203	2.027133	0.686811	-0.000081
1028	1.0219e+02	-0.9192	-2.107385	0.000345	3.446126	1.167579	-0.000138
1029	1.0229e+02	-0.9625	-2.212350	0.000264	2.635273	0.892855	-0.000105
1030	1.0239e+02	-0.9930	-2.325390	0.000284	2.837986	0.961536	-0.000114
1031	1.0248e+02	-1.0347	-2.418244	0.000233	2.331203	0.789833	-0.000093
1032	1.0258e+02	-1.0732	-2.603953	0.000466	4.662406	1.579666	-0.000187
1033	1.0268e+02	-1.1246	-2.716992	0.000284	2.837986	0.961536	-0.000114
1034	1.0278e+02	-1.1679	-2.846181	0.000324	3.243413	1.098898	-0.000130
1035	1.0288e+02	-1.1935	-2.947109	0.000253	2.533916	0.858514	-0.000101
1036	1.0298e+02	-1.2321	-3.112632	0.000416	4.155623	1.407963	-0.000166
1037	1.0308e+02	-1.2738	-3.241820	0.000324	3.243413	1.098898	-0.000130
1038	1.0318e+02	-1.3091	-3.366971	0.000314	3.142056	1.064557	-0.000126
1039	1.0328e+02	-1.3556	-3.532494	0.000416	4.155623	1.407963	-0.000166
1040	1.0338e+02	-1.3989	-3.633422	0.000253	2.533916	0.858514	-0.000101
1041	1.0348e+02	-1.4262	-3.782796	0.000375	3.750196	1.270601	-0.000150
1042	1.0358e+02	-1.4791	-3.879687	0.000243	2.432560	0.824173	-0.000097
1043	1.0368e+02	-1.5112	-4.025024	0.000365	3.648839	1.236260	-0.000146
1044	1.0378e+02	-1.5529	-4.182473	0.000395	3.952909	1.339282	-0.000158
1045	1.0388e+02	-1.5914	-4.267252	0.000213	2.128490	0.721152	-0.000085
1046	1.0398e+02	-1.6427	-4.360107	0.000233	2.331203	0.789833	-0.000093
1047	1.0408e+02	-1.6812	-4.465072	0.000264	2.635273	0.892855	-0.000105
1048	1.0418e+02	-1.7069	-4.574075	0.000274	2.736630	0.927195	-0.000110
1049	1.0428e+02	-1.7582	-4.727486	0.000385	3.851553	1.304941	-0.000154
1050	1.0438e+02	-1.7903	-4.820340	0.000233	2.331203	0.789833	-0.000093
1051	1.0447e+02	-1.8240	-4.981826	0.000405	4.054266	1.373622	-0.000162
1052	1.0457e+02	-1.8689	-5.127162	0.000365	3.648839	1.236260	-0.000146
1053	1.0467e+02	-1.9042	-5.256351	0.000324	3.243413	1.098898	-0.000130
1054	1.0477e+02	-1.9475	-5.373428	0.000294	2.939343	0.995876	-0.000118
1055	1.0487e+02	-1.9925	-5.542987	0.000426	4.256979	1.442304	-0.000170
1056	1.0497e+02	-2.0342	-5.660064	0.000294	2.939343	0.995876	-0.000118
1057	1.0507e+02	-2.0727	-5.760993	0.000253	2.533916	0.858514	-0.000101
1058	1.0517e+02	-2.1080	-5.874032	0.000284	2.837986	0.961536	-0.000114
1059	1.0527e+02	-2.1497	-6.059741	0.000466	4.662406	1.579666	-0.000187
1060	1.0537e+02	-2.1914	-6.160669	0.000253	2.533916	0.858514	-0.000101
1061	1.0547e+02	-2.2379	-6.285820	0.000314	3.142056	1.064557	-0.000126
1062	1.0557e+02	-2.2684	-6.415009	0.000324	3.243413	1.098898	-0.000130
1063	1.0567e+02	-2.3069	-6.499789	0.000213	2.128490	0.721152	-0.000085
1064	1.0577e+02	-2.3454	-6.588606	0.000223	2.229846	0.755492	-0.000089
1065	1.0587e+02	-2.3903	-6.689534	0.000253	2.533916	0.858514	-0.000101
1066	1.0597e+02	-2.4272	-6.806611	0.000294	2.939343	0.995876	-0.000118
1067	1.0607e+02	-2.4705	-6.939836	0.000334	3.344769	1.133239	-0.000134
1068	1.0617e+02	-2.5074	-7.101322	0.000405	4.054266	1.373622	-0.000162
1069	1.0627e+02	-2.5475	-7.226473	0.000314	3.142056	1.064557	-0.000126
1070	1.0637e+02	-2.5908	-7.375847	0.000375	3.750196	1.270601	-0.000150
1071	1.0647e+02	-2.6293	-7.517147	0.000355	3.547483	1.201920	-0.000142
1072	1.0656e+02	-2.6678	-7.605964	0.000223	2.229846	0.755492	-0.000089
1073	1.0666e+02	-2.7015	-7.771486	0.000416	4.155623	1.407963	-0.000166
1074	1.0676e+02	-2.7448	-7.888563	0.000294	2.939343	0.995876	-0.000118
1075	1.0686e+02	-2.7866	-8.033900	0.000365	3.648839	1.236260	-0.000146
1076	1.0696e+02	-2.8251	-8.110606	0.000193	1.925776	0.652471	-0.000077
1077	1.0706e+02	-2.8571	-8.235757	0.000314	3.142056	1.064557	-0.000126
1078	1.0716e+02	-2.9101	-8.373020	0.000345	3.446126	1.167579	-0.000138
1079	1.0726e+02	-2.9486	-8.490096	0.000294	2.939343	0.995876	-0.000118
1080	1.0736e+02	-2.9903	-8.578913	0.000223	2.229846	0.755492	-0.000089
1081	1.0746e+02	-3.0336	-8.716176	0.000345	3.446126	1.167579	-0.000138
1082	1.0756e+02	-3.0657	-8.817104	0.000253	2.533916	0.858514	-0.000101
1083	1.0766e+02	-3.1106	-8.926107	0.000274	2.736630	0.927195	-0.000110
1084	1.0776e+02	-3.1507	-9.103741	0.000446	4.459693	1.510985	-0.000179
1085	1.0786e+02	-3.1908	-9.212744	0.000274	2.736630	0.927195	-0.000110
1086	1.0796e+02	-3.2245	-9.337895	0.000314	3.142056	1.064557	-0.000126
1087	1.0806e+02	-3.2614	-9.523603	0.000466	4.662406	1.579666	-0.000187
1088	1.0816e+02	-3.3063	-9.636643	0.000284	2.837986	0.961536	-0.000114
1089	1.0826e+02	-3.3368	-9.786017	0.000375	3.750196	1.270601	-0.000150
1090	1.0836e+02	-3.3865	-9.842537	0.000142	1.418993	0.480768	-0.000057
1091	1.0845e+02	-3.4266	-9.999985	0.000395	3.952909	1.339282	-0.000158
1092	1.0855e+02	-3.4619	-10.125136	0.000314	3.142056	1.064557	-0.000126
1093	1.0865e+02	-3.4988	-10.250288	0.000314	3.142056	1.064557	-0.000126
1094	1.0875e+02	-3.5421	-10.403699	0.000385	3.851553	1.304941	-0.000154
1095	1.0885e+02	-3.5903	-10.508664	0.000264	2.635273	0.892855	-0.000105
1096	1.0895e+02	-3.6175	-10.609593	0.000253	2.533916	0.858514	-0.000101
1097	1.0905e+02	-3.6657	-10.742818	0.000334	3.344769	1.133239	-0.000134
1098	1.0915e+02	-3.6962	-10.872007	0.000324	3.243413	1.098898	-0.000130
1099	1.0925e+02	-3.7395	-10.948712	0.000193	1.925776	0.652471	-0.000077
1100	1.0935e+02	-3.7860	-11.090012	0.000355	3.547483	1.201920	-0.000142
1101	1.0945e+02	-3.8325	-11.174792	0.000213	2.128490	0.721152	-0.000085
1102	1.0955e+02	-3.8614	-11.312054	0.000345	3.446126	1.167579	-0.000138
1103	1.0965e+02	-3.9015	-11.473540	0.000405	4.054266	1.373622	-0.000162
1104	1.0975e+02	-3.9368	-11.618877	0.000365	3.648839	1.236260	-0.000146
1105	1.0985e+02	-3.9753	-11.768251	0.000375	3.750196	1.270601	-0.000150
1106	1.0995e+02	-4.0170	-11.865142	0.000243	2.432560	0.824173	-0.000097
1107	1.1005e+02	-4.0683	-12.006442	0.000355	3.547483	1.201920	-0.000142
1108	1.1015e+02	-4.1084	-12.115444	0.000274	2.736630	0.927195	-0.000110
1109	1.1025e+02	-4.1389	-12.240596	0.000314	3.142056	1.064557	-0.000126
1110	1.1035e+02	-4.1790	-12.369784	0.000324	3.243413	1.098898	-0.000130
1111	1.1044e+02	-4.2223	-12.511084	0.000355	3.547483	1.201920	-0.000142
1112	1.1054e+02	-4.2705	-12.652383	0.000355	3.547483	1.201920	-0.000142
1113	1.1064e+02	-4.3009	-12.725052	0.000182	1.824420	0.618130	-0.000073
1114	1.1074e+02	-4.3459	-12.866352	0.000355	3.547483	1.201920	-0.000142
1115	1.1084e+02	-4.3876	-12.934983	0.000172	1.723063	0.583790	-0.000069
1116	1.1094e+02	-4.4261	-13.072246	0.000345	3.446126	1.167579	-0.000138
1117	1.1104e+02	-4.4662	-13.197397	0.000314	3.142056	1.064557	-0.000126
1118	1.1114e+02	-4.4967	-13.310437	0.000284	2.837986	0.961536	-0.000114
1119	1.1124e+02	-4.5400	-13.459811	0.000375	3.750196	1.270601	-0.000150
1120	1.1134e+02	-4.5849	-13.524405	0.000162	1.621706	0.549449	-0.000065
1121	1.1144e+02	-4.6202	-13.698002	0.000436	4.358336	1.476644	-0.000174
1122	1.1154e+02	-4.6539	-13.831227	0.000334	3.344769	1.133239	-0.000134
1123	1.1164e+02	-4.6924	-13.996750	0.000416	4.155623	1.407963	-0.000166
1124	1.1174e+02	-4.7421	-14.138049	0.000355	3.547483	1.201920	-0.000142
1125	1.1184e+02	-4.7774	-14.234941	0.000243	2.432560	0.824173	-0.000097
1126	1.1194e+02	-4.8239	-14.356055	0.000304	3.040699	1.030217	-0.000122
1127	1.1204e+02	-4.8640	-14.489280	0.000334	3.344769	1.133239	-0.000134
1128	1.1214e+02	-4.8929	-14.606357	0.000294	2.939343	0.995876	-0.000118
1129	1.1224e+02	-4.9410	-14.715360	0.000274	2.736630	0.927195	-0.000110
1130	1.1234e+02	-4.9747	-14.840511	0.000314	3.142056	1.064557	-0.000126
1131	1.1244e+02	-5.0196	-14.965662	0.000314	3.142056	1.064557	-0.000126
1132	1.1253e+02	-5.0630	-15.086776	0.000304	3.040699	1.030217	-0.000122
1133	1.1263e+02	-5.0966	-15.203853	0.000294	2.939343	0.995876	-0.000118
1134	1.1273e+02	-5.1432	-15.292670	0.000223	2.229846	0.755492	-0.000089
1135	1.1283e+02	-5.1785	-15.425896	0.000334	3.344769	1.133239	-0.000134
1136	1.1293e+02	-5.2154	-15.518750	0.000233	2.331203	0.789833	-0.000093
1137	1.1303e+02	-5.2555	-15.676198	0.000395	3.952909	1.339282	-0.000158
1138	1.1313e+02	-5.2956	-15.773089	0.000243	2.432560	0.824173	-0.000097
1139	1.1323e+02	-5.3405	-15.926500	0.000385	3.851553	1.304941	-0.000154
1140	1.1333e+02	-5.3742	-16.043577	0.000294	2.939343	0.995876	-0.000118
1141	1.1343e+02	-5.4175	-16.172766	0.000324	3.243413	1.098898	-0.000130
1142	1.1353e+02	-5.4512	-16.293880	0.000304	3.040699	1.030217	-0.000122
1143	1.1363e+02	-5.4961	-16.459402	0.000416	4.155623	1.407963	-0.000166
1144	1.1373e+02	-5.5426	-16.552257	0.000233	2.331203	0.789833	-0.000093
1145	1.1383e+02	-5.5715	-16.653185	0.000253	2.533916	0.858514	-0.000101
1146	1.1393e+02	-5.6228	-16.822745	0.000426	4.256979	1.442304	-0.000170
1147	1.1403e+02	-5.6613	-16.903487	0.000203	2.027133	0.686811	-0.000081
1148	1.1413e+02	-5.6918	-17.016527	0.000284	2.837986	0.961536	-0.000114
1149	1.1423e+02	-5.7319	-17.117456	0.000253	2.533916	0.858514	-0.000101
1150	1.1433e+02	-5.7736	-17.250681	0.000334	3.344769	1.133239	-0.000134
1151	1.1442e+02	-5.8105	-17.351609	0.000253	2.533916	0.858514	-0.000101
1152	1.1452e+02	-5.8699	-17.496946	0.000365	3.648839	1.236260	-0.000146
1153	1.1462e+02	-5.9020	-17.609986	0.000284	2.837986	0.961536	-0.000114
1154	1.1472e+02	-5.9373	-17.686692	0.000193	1.925776	0.652471	-0.000077
1155	1.1482e+02	-5.9790	-17.807806	0.000304	3.040699	1.030217	-0.000122
1156	1.1492e+02	-6.0175	-17.949105	0.000355	3.547483	1.201920	-0.000142
1157	1.1502e+02	-6.0544	-18.106554	0.000395	3.952909	1.339282	-0.000158
1158	1.1512e+02	-6.0849	-18.219594	0.000284	2.837986	0.961536	-0.000114
1159	1.1522e+02	-6.1234	-18.368968	0.000375	3.750196	1.270601	-0.000150
1160	1.1532e+02	-6.1715	-18.530453	0.000405	4.054266	1.373622	-0.000162
1161	1.1542e+02	-6.2164	-18.651567	0.000304	3.040699	1.030217	-0.000122
1162	1.1552e+02	-6.2517	-18.744421	0.000233	2.331203	0.789833	-0.000093
1163	1.1562e+02	-6.2966	-18.865535	0.000304	3.040699	1.030217	-0.000122
1164	1.1572e+02	-6.3271	-18.990687	0.000314	3.142056	1.064557	-0.000126
1165	1.1582e+02	-6.3656	-19.136023	0.000365	3.648839	1.236260	-0.000146
1166	1.1592e+02	-6.4153	-19.220803	0.000213	2.128490	0.721152	-0.000085
1167	1.1602e+02	-6.4506	-19.313657	0.000233	2.331203	0.789833	-0.000093
1168	1.1612e+02	-6.4971	-19.410549	0.000243	2.432560	0.824173	-0.000097
1169	1.1622e+02	-6.5260	-19.507440	0.000243	2.432560	0.824173	-0.000097
1170	1.1632e+02	-6.5677	-19.640665	0.000334	3.344769	1.133239	-0.000134
1171	1.1642e+02	-6.6110	-19.753705	0.000284	2.837986	0.961536	-0.000114
1172	1.1651e+02	-6.6495	-19.895005	0.000355	3.547483	1.201920	-0.000142
1173	1.1661e+02	-6.6864	-19.991896	0.000243	2.432560	0.824173	-0.000097
1174	1.1671e+02	-6.7185	-20.108973	0.000294	2.939343	0.995876	-0.000118
1175	1.1681e+02	-6.7570	-20.230087	0.000304	3.040699	1.030217	-0.000122
1176	1.1691e+02	-6.8019	-20.359276	0.000324	3.243413	1.098898	-0.000130
1177	1.1701e+02	-6.8501	-20.512687	0.000385	3.851553	1.304941	-0.000154
1178	1.1711e+02	-6.8854	-20.653986	0.000355	3.547483	1.201920	-0.000142
1179	1.1721e+02	-6.9255	-20.771063	0.000294	2.939343	0.995876	-0.000118
1180	1.1731e+02	-6.9624	-20.851806	0.000203	2.027133	0.686811	-0.000081
1181	1.1741e+02	-7.0153	-21.001180	0.000375	3.750196	1.270601	-0.000150
1182	1.1751e+02	-7.0442	-21.094034	0.000233	2.331203	0.789833	-0.000093
1183	1.1761e+02	-7.0891	-21.194963	0.000253	2.533916	0.858514	-0.000101
1184	1.1771e+02	-7.1276	-21.295891	0.000253	2.533916	0.858514	-0.000101
1185	1.1781e+02	-7.1629	-21.376634	0.000203	2.027133	0.686811	-0.000081
1186	1.1791e+02	-7.2110	-21.461414	0.000213	2.128490	0.721152	-0.000085
1187	1.1801e+02	-7.2479	-21.614825	0.000385	3.851553	1.304941	-0.000154
1188	1.1811e+02	-7.2912	-21.756124	0.000355	3.547483	1.201920	-0.000142
1189	1.1821e+02	-7.3265	-21.844941	0.000223	2.229846	0.755492	-0.000089
1190	1.1831e+02	-7.3634	-21.982204	0.000345	3.446126	1.167579	-0.000138
1191	1.1841e+02	-7.4083	-22.091207	0.000274	2.736630	0.927195	-0.000110
1192	1.1850e+02	-7.4436	-22.192135	0.000253	2.533916	0.858514	-0.000101
1193	1.1860e+02	-7.4902	-22.349583	0.000395	3.952909	1.339282	-0.000158
1194	1.1870e+02	-7.5335	-22.478772	0.000324	3.243413	1.098898	-0.000130
1195	1.1880e+02	-7.5672	-22.599886	0.000304	3.040699	1.030217	-0.000122
1196	1.1890e+02	-7.6025	-22.721000	0.000304	3.040699	1.030217	-0.000122
1197	1.1900e+02	-7.6410	-22.842114	0.000304	3.040699	1.030217	-0.000122
1198	1.1910e+02	-7.6923	-22.959191	0.000294	2.939343	0.995876	-0.000118
1199	1.1920e+02	-7.7260	-23.060119	0.000253	2.533916	0.858514	-0.000101
1200	1.1930e+02	-7.7645	-23.169122	0.000274	2.736630	0.927195	-0.000110
1201	1.1940e+02	-7.8014	-23.282162	0.000284	2.837986	0.961536	-0.000114
1202	1.1950e+02	-7.8415	-23.379053	0.000243	2.432560	0.824173	-0.000097
1203	1.1960e+02	-7.8832	-23.484019	0.000264	2.635273	0.892855	-0.000105
1204	1.1970e+02	-7.9281	-23.584947	0.000253	2.533916	0.858514	-0.000101
1205	1.1980e+02	-7.9730	-23.693950	0.000274	2.736630	0.927195	-0.000110
1206	1.1990e+02	-8.0115	-23.798915	0.000264	2.635273	0.892855	-0.000105
1207	1.2000e+02	-8.0500	-23.952326	0.000385	3.851553	1.304941	-0.000154
1208	1.2010e+02	-8.0869	-24.057292	0.000264	2.635273	0.892855	-0.000105
1209	1.2020e+02	-8.1303	-24.210703	0.000385	3.851553	1.304941	-0.000154
1210	1.2030e+02	-8.1704	-24.319706	0.000274	2.736630	0.927195	-0.000110
1211	1.2039e+02	-8.2008	-24.477154	0.000395	3.952909	1.339282	-0.000158
1212	1.2049e+02	-8.2490	-24.561934	0.000213	2.128490	0.721152	-0.000085
1213	1.2059e+02	-8.2843	-24.687085	0.000314	3.142056	1.064557	-0.000126
1214	1.2069e+02	-8.3212	-24.775902	0.000223	2.229846	0.755492	-0.000089
1215	1.2079e+02	-8.3613	-24.897016	0.000304	3.040699	1.030217	-0.000122
1216	1.2089e+02	-8.4030	-25.042353	0.000365	3.648839	1.236260	-0.000146
1217	1.2099e+02	-8.4415	-25.143281	0.000253	2.533916	0.858514	-0.000101
1218	1.2109e+02	-8.4784	-25.252284	0.000274	2.736630	0.927195	-0.000110
1219	1.2119e+02	-8.5233	-25.365324	0.000284	2.837986	0.961536	-0.000114
1220	1.2129e+02	-8.5682	-25.385510	0.000051	0.506783	0.171703	-0.000020
1221	1.2139e+02	-8.6051	-25.530846	0.000365	3.648839	1.236260	-0.000146
1222	1.2149e+02	-8.6404	-25.676183	0.000365	3.648839	1.236260	-0.000146
1223	1.2159e+02	-8.6805	-25.805372	0.000324	3.243413	1.098898	-0.000130
1224	1.2169e+02	-8.7206	-25.918411	0.000284	2.837986	0.961536	-0.000114
1225	1.2179e+02	-8.7639	-26.015303	0.000243	2.432560	0.824173	-0.000097
1226	1.2189e+02	-8.7976	-26.128342	0.000284	2.837986	0.961536	-0.000114
1227	1.2199e+02	-8.8489	-26.277717	0.000375	3.750196	1.270601	-0.000150
1228	1.2209e+02	-8.8762	-26.423053	0.000365	3.648839	1.236260	-0.000146
1229	1.2219e+02	-8.9243	-26.515908	0.000233	2.331203	0.789833	-0.000093
1230	1.2229e+02	-8.9548	-26.616836	0.000253	2.533916	0.858514	-0.000101
1231	1.2239e+02	-8.9917	-26.750061	0.000334	3.344769	1.133239	-0.000134
1232	1.2248e+02	-9.0318	-26.895398	0.000365	3.648839	1.236260	-0.000146
1233	1.2258e+02	-9.0896	-27.028624	0.000334	3.344769	1.133239	-0.000134
1234	1.2268e+02	-9.1120	-27.105329	0.000193	1.925776	0.652471	-0.000077
1235	1.2278e+02	-9.1682	-27.177998	0.000182	1.824420	0.618130	-0.000073
1236	1.2288e+02	-9.2003	-27.339483	0.000405	4.054266	1.373622	-0.000162
1237	1.2298e+02	-9.2372	-27.387929	0.000122	1.216280	0.412087	-0.000049
1238	1.2308e+02	-9.2821	-27.468672	0.000203	2.027133	0.686811	-0.000081
1239	1.2318e+02	-9.3206	-27.593823	0.000314	3.142056	1.064557	-0.000126
1240	1.2328e+02	-9.3655	-27.666491	0.000182	1.824420	0.618130	-0.000073
1241	1.2338e+02	-9.4024	-27.815865	0.000375	3.750196	1.270601	-0.000150
1242	1.2348e+02	-9.4425	-27.965239	0.000375	3.750196	1.270601	-0.000150
1243	1.2358e+02	-9.4714	-28.086353	0.000304	3.040699	1.030217	-0.000122
1244	1.2368e+02	-9.5131	-28.191319	0.000264	2.635273	0.892855	-0.000105
1245	1.2378e+02	-9.5500	-28.316470	0.000314	3.142056	1.064557	-0.000126
1246	1.2388e+02	-9.6029	-28.461807	0.000365	3.648839	1.236260	-0.000146
1247	1.2398e+02	-9.6366	-28.518327	0.000142	1.418993	0.480768	-0.000057
1248	1.2408e+02	-9.6751	-28.635404	0.000294	2.939343	0.995876	-0.000118
1249	1.2418e+02	-9.7168	-28.740369	0.000264	2.635273	0.892855	-0.000105
1250	1.2428e+02	-9.7537	-28.901855	0.000405	4.054266	1.373622	-0.000162
1251	1.2438e+02	-9.7970	-29.022969	0.000304	3.040699	1.030217	-0.000122
1252	1.2447e+02	-9.8291	-29.119860	0.000243	2.432560	0.824173	-0.000097
1253	1.2457e+02	-9.8741	-29.188491	0.000172	1.723063	0.583790	-0.000069
1254	1.2467e+02	-9.9238	-29.313643	0.000314	3.142056	1.064557	-0.000126
1255	1.2477e+02	-9.9591	-29.410534	0.000243	2.432560	0.824173	-0.000097
1256	1.2487e+02	-9.9863	-29.503388	0.000233	2.331203	0.789833	-0.000093
1257	1.2497e+02	-10.0377	-29.628539	0.000314	3.142056	1.064557	-0.000126
1258	1.2507e+02	-10.0842	-29.717356	0.000223	2.229846	0.755492	-0.000089
1259	1.2517e+02	-10.1227	-29.838470	0.000304	3.040699	1.030217	-0.000122
1260	1.2527e+02	-10.1692	-29.995919	0.000395	3.952909	1.339282	-0.000158
1261	1.2537e+02	-10.1917	-30.076661	0.000203	2.027133	0.686811	-0.000081
1262	1.2547e+02	-10.2302	-30.181627	0.000264	2.635273	0.892855	-0.000105
1263	1.2557e+02	-10.2719	-30.363298	0.000456	4.561049	1.545325	-0.000183
1264	1.2567e+02	-10.3104	-30.476338	0.000284	2.837986	0.961536	-0.000114
1265	1.2577e+02	-10.3569	-30.565155	0.000223	2.229846	0.755492	-0.000089
1266	1.2587e+02	-10.3906	-30.686269	0.000304	3.040699	1.030217	-0.000122
1267	1.2597e+02	-10.4339	-30.795271	0.000274	2.736630	0.927195	-0.000110
1268	1.2607e+02	-10.4805	-30.920423	0.000314	3.142056	1.064557	-0.000126
1269	1.2617e+02	-10.5125	-31.041537	0.000304	3.040699	1.030217	-0.000122
1270	1.2627e+02	-10.5623	-31.130354	0.000223	2.229846	0.755492	-0.000089
1271	1.2636e+02	-10.5927	-31.259542	0.000324	3.243413	1.098898	-0.000130
1272	1.2646e+02	-10.6264	-31.368545	0.000274	2.736630	0.927195	-0.000110
1273	1.2656e+02	-10.6794	-31.461399	0.000233	2.331203	0.789833	-0.000093
1274	1.2666e+02	-10.7211	-31.546179	0.000213	2.128490	0.721152	-0.000085
1275	1.2676e+02	-10.7484	-31.651144	0.000264	2.635273	0.892855	-0.000105
1276	1.2686e+02	-10.7933	-31.784370	0.000334	3.344769	1.133239	-0.000134
1277	1.2696e+02	-10.8350	-31.832815	0.000122	1.216280	0.412087	-0.000049
1278	1.2706e+02	-10.8751	-31.998338	0.000416	4.155623	1.407963	-0.000166
1279	1.2716e+02	-10.9248	-32.115415	0.000294	2.939343	0.995876	-0.000118
1280	1.2726e+02	-10.9521	-32.220380	0.000264	2.635273	0.892855	-0.000105
1281	1.2736e+02	-10.9842	-32.353606	0.000334	3.344769	1.133239	-0.000134
1282	1.2746e+02	-11.0211	-32.482794	0.000324	3.243413	1.098898	-0.000130
1283	1.2756e+02	-11.0708	-32.595834	0.000284	2.837986	0.961536	-0.000114
1284	1.2766e+02	-11.1141	-32.700799	0.000264	2.635273	0.892855	-0.000105
1285	1.2776e+02	-11.1542	-32.870359	0.000426	4.256979	1.442304	-0.000170
1286	1.2786e+02	-11.1991	-32.955139	0.000213	2.128490	0.721152	-0.000085
1287	1.2796e+02	-11.2248	-33.023770	0.000172	1.723063	0.583790	-0.000069
1288	1.2806e+02	-11.2713	-33.152959	0.000324	3.243413	1.098898	-0.000130
1289	1.2816e+02	-11.3130	-33.282147	0.000324	3.243413	1.098898	-0.000130
1290	1.2826e+02	-11.3532	-33.366927	0.000213	2.128490	0.721152	-0.000085
1291	1.2835e+02	-11.3949	-33.443632	0.000193	1.925776	0.652471	-0.000077
1292	1.2845e+02	-11.4318	-33.524375	0.000203	2.027133	0.686811	-0.000081
1293	1.2855e+02	-11.4847	-33.673749	0.000375	3.750196	1.270601	-0.000150
1294	1.2865e+02	-11.5168	-33.762566	0.000223	2.229846	0.755492	-0.000089
1295	1.2875e+02	-11.5537	-33.871569	0.000274	2.736630	0.927195	-0.000110
1296	1.2885e+02	-11.5938	-34.029017	0.000395	3.952909	1.339282	-0.000158
1297	1.2895e+02	-11.6387	-34.129946	0.000253	2.533916	0.858514	-0.000101
1298	1.2905e+02	-11.6612	-34.247022	0.000294	2.939343	0.995876	-0.000118
1299	1.2915e+02	-11.7157	-34.372174	0.000314	3.142056	1.064557	-0.000126
1300	1.2925e+02	-11.7414	-34.465028	0.000233	2.331203	0.789833	-0.000093
1301	1.2935e+02	-11.7911	-34.529622	0.000162	1.621706	0.549449	-0.000065
1302	1.2945e+02	-11.8312	-34.695145	0.000416	4.155623	1.407963	-0.000166
1303	1.2955e+02	-11.8649	-34.779924	0.000213	2.128490	0.721152	-0.000085
1304	1.2965e+02	-11.9130	-34.888927	0.000274	2.736630	0.927195	-0.000110
1305	1.2975e+02	-11.9483	-35.022153	0.000334	3.344769	1.133239	-0.000134
1306	1.2985e+02	-11.9852	-35.115007	0.000233	2.331203	0.789833	-0.000093
1307	1.2995e+02	-12.0317	-35.207861	0.000233	2.331203	0.789833	-0.000093
1308	1.3005e+02	-12.0767	-35.316863	0.000274	2.736630	0.927195	-0.000110
1309	1.3015e+02	-12.1152	-35.377420	0.000152	1.520350	0.515108	-0.000061
1310	1.3025e+02	-12.1521	-35.534869	0.000395	3.952909	1.339282	-0.000158
1311	1.3034e+02	-12.1954	-35.615611	0.000203	2.027133	0.686811	-0.000081
1312	1.3044e+02	-12.2339	-35.748837	0.000334	3.344769	1.133239	-0.000134
1313	1.3054e+02	-12.2660	-35.817468	0.000172	1.723063	0.583790	-0.000069
1314	1.3064e+02	-12.3029	-35.954731	0.000345	3.446126	1.167579	-0.000138
1315	1.3074e+02	-12.3462	-36.083919	0.000324	3.243413	1.098898	-0.000130
1316	1.3084e+02	-12.3718	-36.196959	0.000284	2.837986	0.961536	-0.000114
1317	1.3094e+02	-12.4200	-36.301925	0.000264	2.635273	0.892855	-0.000105
1318	1.3104e+02	-12.4601	-36.451299	0.000375	3.750196	1.270601	-0.000150
1319	1.3114e+02	-12.5130	-36.552227	0.000253	2.533916	0.858514	-0.000101
1320	1.3124e+02	-12.5387	-36.669304	0.000294	2.939343	0.995876	-0.000118
1321	1.3134e+02	-12.5836	-36.766195	0.000243	2.432560	0.824173	-0.000097
1322	1.3144e+02	-12.6253	-36.871161	0.000264	2.635273	0.892855	-0.000105
1323	1.3154e+02	-12.6622	-36.976126	0.000264	2.635273	0.892855	-0.000105
1324	1.3164e+02	-12.7103	-37.077055	0.000253	2.533916	0.858514	-0.000101
1325	1.3174e+02	-12.7472	-37.157797	0.000203	2.027133	0.686811	-0.000081
1326	1.3184e+02	-12.7761	-37.258726	0.000253	2.533916	0.858514	-0.000101
1327	1.3194e+02	-12.8242	-37.347543	0.000223	2.229846	0.755492	-0.000089
1328	1.3204e+02	-12.8659	-37.456545	0.000274	2.736630	0.927195	-0.000110
1329	1.3214e+02	-12.9077	-37.545362	0.000223	2.229846	0.755492	-0.000089
1330	1.3224e+02	-12.9478	-37.690699	0.000365	3.648839	1.236260	-0.000146
1331	1.3234e+02	-12.9831	-37.795665	0.000264	2.635273	0.892855	-0.000105
1332	1.3243e+02	-13.0248	-37.953113	0.000395	3.952909	1.339282	-0.000158
1333	1.3253e+02	-13.0665	-38.037893	0.000213	2.128490	0.721152	-0.000085
1334	1.3263e+02	-13.1226	-38.142858	0.000264	2.635273	0.892855	-0.000105
1335	1.3273e+02	-13.1258	-38.276084	0.000334	3.344769	1.133239	-0.000134
1336	1.3283e+02	-13.1804	-38.336641	0.000152	1.520350	0.515108	-0.000061
1337	1.3293e+02	-13.2269	-38.457755	0.000304	3.040699	1.030217	-0.000122
1338	1.3303e+02	-13.2638	-38.578869	0.000304	3.040699	1.030217	-0.000122
1339	1.3313e+02	-13.3023	-38.639426	0.000152	1.520350	0.515108	-0.000061
1340	1.3323e+02	-13.3472	-38.752466	0.000284	2.837986	0.961536	-0.000114
1341	1.3333e+02	-13.3937	-38.865506	0.000284	2.837986	0.961536	-0.000114
1342	1.3343e+02	-13.4194	-38.954323	0.000223	2.229846	0.755492	-0.000089
1343	1.3353e+02	-13.4675	-39.059288	0.000264	2.635273	0.892855	-0.000105
1344	1.3363e+02	-13.5076	-39.168291	0.000274	2.736630	0.927195	-0.000110
1345	1.3373e+02	-13.5397	-39.224811	0.000142	1.418993	0.480768	-0.000057
1346	1.3383e+02	-13.5862	-39.349962	0.000314	3.142056	1.064557	-0.000126
1347	1.3393e+02	-13.6231	-39.479150	0.000324	3.243413	1.098898	-0.000130
1348	1.3403e+02	-13.6649	-39.576042	0.000243	2.432560	0.824173	-0.000097
1349	1.3413e+02	-13.6969	-39.668896	0.000233	2.331203	0.789833	-0.000093
1350	1.3423e+02	-13.7386	-39.781936	0.000284	2.837986	0.961536	-0.000114
1351	1.3432e+02	-13.7707	-39.911124	0.000324	3.243413	1.098898	-0.000130
1352	1.3442e+02	-13.8237	-40.020127	0.000274	2.736630	0.927195	-0.000110
1353	1.3452e+02	-13.8558	-40.141241	0.000304	3.040699	1.030217	-0.000122
1354	1.3462e+02	-13.8894	-40.238132	0.000243	2.432560	0.824173	-0.000097
1355	1.3472e+02	-13.9392	-40.363283	0.000314	3.142056	1.064557	-0.000126
1356	1.3482e+02	-13.9777	-40.452100	0.000223	2.229846	0.755492	-0.000089
1357	1.3492e+02	-14.0178	-40.520731	0.000172	1.723063	0.583790	-0.000069
1358	1.3502e+02	-14.0595	-40.637808	0.000294	2.939343	0.995876	-0.000118
1359	1.3512e+02	-14.0900	-40.734700	0.000243	2.432560	0.824173	-0.000097
1360	1.3522e+02	-14.1397	-40.795257	0.000152	1.520350	0.515108	-0.000061
1361	1.3532e+02	-14.1846	-40.875999	0.000203	2.027133	0.686811	-0.000081
1362	1.3542e+02	-14.2119	-40.968853	0.000233	2.331203	0.789833	-0.000093
1363	1.3552e+02	-14.2632	-41.098042	0.000324	3.243413	1.098898	-0.000130
1364	1.3562e+02	-14.3049	-41.211082	0.000284	2.837986	0.961536	-0.000114
1365	1.3572e+02	-14.3370	-41.328159	0.000294	2.939343	0.995876	-0.000118
1366	1.3582e+02	-14.3787	-41.457347	0.000324	3.243413	1.098898	-0.000130
1367	1.3592e+02	-14.4060	-41.546164	0.000223	2.229846	0.755492	-0.000089
1368	1.3602e+02	-14.4541	-41.643055	0.000243	2.432560	0.824173	-0.000097
1369	1.3612e+02	-14.4878	-41.800503	0.000395	3.952909	1.339282	-0.000158
1370	1.3622e+02	-14.5392	-41.869135	0.000172	1.723063	0.583790	-0.000069
1371	1.3631e+02	-14.5809	-42.006397	0.000345	3.446126	1.167579	-0.000138
1372	1.3641e+02	-14.6114	-42.103289	0.000243	2.432560	0.824173	-0.000097
1373	1.3651e+02	-14.6627	-42.196143	0.000233	2.331203	0.789833	-0.000093
1374	1.3661e+02	-14.7044	-42.333405	0.000345	3.446126	1.167579	-0.000138
1375	1.3671e+02	-14.7365	-42.353591	0.000051	0.506783	0.171703	-0.000020
1376	1.3681e+02	-14.7846	-42.511039	0.000395	3.952909	1.339282	-0.000158
1377	1.3691e+02	-14.8199	-42.591782	0.000203	2.027133	0.686811	-0.000081
1378	1.3701e+02	-14.8568	-42.680599	0.000223	2.229846	0.755492	-0.000089
1379	1.3711e+02	-14.8921	-42.753267	0.000182	1.824420	0.618130	-0.000073
1380	1.3721e+02	-14.9370	-42.850159	0.000243	2.432560	0.824173	-0.000097
1381	1.3731e+02	-14.9867	-42.979347	0.000324	3.243413	1.098898	-0.000130
1382	1.3741e+02	-15.0076	-43.064127	0.000213	2.128490	0.721152	-0.000085
1383	1.3751e+02	-15.0557	-43.193315	0.000324	3.243413	1.098898	-0.000130
1384	1.3761e+02	-15.0958	-43.306355	0.000284	2.837986	0.961536	-0.000114
1385	1.3771e+02	-15.1327	-43.435543	0.000324	3.243413	1.098898	-0.000130
1386	1.3781e+02	-15.1696	-43.520323	0.000213	2.128490	0.721152	-0.000085
1387	1.3791e+02	-15.2081	-43.633363	0.000284	2.837986	0.961536	-0.000114
1388	1.3801e+02	-15.2546	-43.718143	0.000213	2.128490	0.721152	-0.000085
1389	1.3811e+02	-15.2932	-43.835220	0.000294	2.939343	0.995876	-0.000118
1390	1.3821e+02	-15.3349	-43.948260	0.000284	2.837986	0.961536	-0.000114
1391	1.3831e+02	-15.3766	-44.024965	0.000193	1.925776	0.652471	-0.000077
1392	1.3840e+02	-15.4215	-44.142042	0.000294	2.939343	0.995876	-0.000118
1393	1.3850e+02	-15.4600	-44.230859	0.000223	2.229846	0.755492	-0.000089
1394	1.3860e+02	-15.4921	-44.384270	0.000385	3.851553	1.304941	-0.000154
1395	1.3870e+02	-15.5338	-44.436753	0.000132	1.317636	0.446427	-0.000053
1396	1.3880e+02	-15.5755	-44.501347	0.000162	1.621706	0.549449	-0.000065
1397	1.3890e+02	-15.6124	-44.586127	0.000213	2.128490	0.721152	-0.000085
1398	1.3900e+02	-15.6509	-44.735501	0.000375	3.750196	1.270601	-0.000150
1399	1.3910e+02	-15.6926	-44.804132	0.000172	1.723063	0.583790	-0.000069
1400	1.3920e+02	-15.7327	-44.933321	0.000324	3.243413	1.098898	-0.000130
1401	1.3930e+02	-15.7728	-45.062509	0.000324	3.243413	1.098898	-0.000130
1402	1.3940e+02	-15.8145	-45.143252	0.000203	2.027133	0.686811	-0.000081
1403	1.3950e+02	-15.8482	-45.268403	0.000314	3.142056	1.064557	-0.000126
1404	1.3960e+02	-15.8963	-45.373369	0.000264	2.635273	0.892855	-0.000105
1405	1.3970e+02	-15.9236	-45.490445	0.000294	2.939343	0.995876	-0.000118
1406	1.3980e+02	-15.9750	-45.571188	0.000203	2.027133	0.686811	-0.000081
1407	1.3990e+02	-16.0102	-45.680191	0.000274	2.736630	0.927195	-0.000110
1408	1.4000e+02	-16.0439	-45.785156	0.000264	2.635273	0.892855	-0.000105
1409	1.4010e+02	-16.0937	-45.910308	0.000314	3.142056	1.064557	-0.000126
1410	1.4020e+02	-16.1370	-46.007199	0.000243	2.432560	0.824173	-0.000097
1411	1.4029e+02	-16.1755	-46.071793	0.000162	1.621706	0.549449	-0.000065
1412	1.4039e+02	-16.2172	-46.217130	0.000365	3.648839	1.236260	-0.000146
1413	1.4049e+02	-16.2589	-46.261538	0.000111	1.114923	0.377746	-0.000045
1414	1.4059e+02	-16.3006	-46.378615	0.000294	2.939343	0.995876	-0.000118
1415	1.4069e+02	-16.3327	-46.423024	0.000111	1.114923	0.377746	-0.000045
1416	1.4079e+02	-16.3712	-46.564324	0.000355	3.547483	1.201920	-0.000142
1417	1.4089e+02	-16.4065	-46.653141	0.000223	2.229846	0.755492	-0.000089
1418	1.4099e+02	-16.4434	-46.770218	0.000294	2.939343	0.995876	-0.000118
1419	1.4109e+02	-16.4867	-46.895369	0.000314	3.142056	1.064557	-0.000126
1420	1.4119e+02	-16.5220	-47.020520	0.000314	3.142056	1.064557	-0.000126
1421	1.4129e+02	-16.5701	-47.089151	0.000172	1.723063	0.583790	-0.000069
1422	1.4139e+02	-16.6038	-47.242562	0.000385	3.851553	1.304941	-0.000154
1423	1.4149e+02	-16.6503	-47.363676	0.000304	3.040699	1.030217	-0.000122
1424	1.4159e+02	-16.6856	-47.408085	0.000111	1.114923	0.377746	-0.000045
1425	1.4169e+02	-16.7241	-47.533236	0.000314	3.142056	1.064557	-0.000126
1426	1.4179e+02	-16.7739	-47.626090	0.000233	2.331203	0.789833	-0.000093
1427	1.4189e+02	-16.8172	-47.735093	0.000274	2.736630	0.927195	-0.000110
1428	1.4199e+02	-16.8557	-47.852170	0.000294	2.939343	0.995876	-0.000118
1429	1.4209e+02	-16.8894	-47.961173	0.000274	2.736630	0.927195	-0.000110
1430	1.4219e+02	-16.9166	-48.045952	0.000213	2.128490	0.721152	-0.000085
1431	1.4228e+02	-16.9680	-48.183215	0.000345	3.446126	1.167579	-0.000138
1432	1.4238e+02	-17.0081	-48.239735	0.000142	1.418993	0.480768	-0.000057
1433	1.4248e+02	-17.0498	-48.340663	0.000253	2.533916	0.858514	-0.000101
1434	1.4258e+02	-17.0803	-48.449666	0.000274	2.736630	0.927195	-0.000110
1435	1.4268e+02	-17.1188	-48.586929	0.000345	3.446126	1.167579	-0.000138
1436	1.4278e+02	-17.1557	-48.728228	0.000355	3.547483	1.201920	-0.000142
1437	1.4288e+02	-17.2086	-48.817045	0.000223	2.229846	0.755492	-0.000089
1438	1.4298e+02	-17.2407	-48.966419	0.000375	3.750196	1.270601	-0.000150
1439	1.4308e+02	-17.2872	-49.055236	0.000223	2.229846	0.755492	-0.000089
1440	1.4318e+02	-17.3337	-49.135979	0.000203	2.027133	0.686811	-0.000081
1441	1.4328e+02	-17.3690	-49.281316	0.000365	3.648839	1.236260	-0.000146
1442	1.4338e+02	-17.4011	-49.390319	0.000274	2.736630	0.927195	-0.000110
1443	1.4348e+02	-17.4476	-49.507396	0.000294	2.939343	0.995876	-0.000118
1444	1.4358e+02	-17.4861	-49.600250	0.000233	2.331203	0.789833	-0.000093
1445	1.4368e+02	-17.5311	-49.745587	0.000365	3.648839	1.236260	-0.000146
1446	1.4378e+02	-17.5631	-49.826329	0.000203	2.027133	0.686811	-0.000081
1447	1.4388e+02	-17.6097	-49.947443	0.000304	3.040699	1.030217	-0.000122
1448	1.4398e+02	-17.6514	-50.056446	0.000274	2.736630	0.927195	-0.000110
1449	1.4408e+02	-17.6851	-50.108929	0.000132	1.317636	0.446427	-0.000053
1450	1.4418e+02	-17.7332	-50.226006	0.000294	2.939343	0.995876	-0.000118
1451	1.4428e+02	-17.7653	-50.395565	0.000426	4.256979	1.442304	-0.000170
1452	1.4437e+02	-17.8038	-50.484382	0.000223	2.229846	0.755492	-0.000089
1453	1.4447e+02	-17.8407	-50.585311	0.000253	2.533916	0.858514	-0.000101
1454	1.4457e+02	-17.8776	-50.726611	0.000355	3.547483	1.201920	-0.000142
1455	1.4467e+02	-17.9337	-50.843687	0.000294	2.939343	0.995876	-0.000118
1456	1.4477e+02	-17.9690	-50.960764	0.000294	2.939343	0.995876	-0.000118
1457	1.4487e+02	-17.9995	-51.085916	0.000314	3.142056	1.064557	-0.000126
1458	1.4497e+02	-18.0460	-51.166658	0.000203	2.027133	0.686811	-0.000081
1459	1.4507e+02	-18.0829	-51.295847	0.000324	3.243413	1.098898	-0.000130
1460	1.4517e+02	-18.1214	-51.412924	0.000294	2.939343	0.995876	-0.000118
1461	1.4527e+02	-18.1583	-51.570372	0.000395	3.952909	1.339282	-0.000158
1462	1.4537e+02	-18.2048	-51.647077	0.000193	1.925776	0.652471	-0.000077
1463	1.4547e+02	-18.2481	-51.796452	0.000375	3.750196	1.270601	-0.000150
1464	1.4557e+02	-18.2866	-51.865083	0.000172	1.723063	0.583790	-0.000069
1465	1.4567e+02	-18.3252	-51.974085	0.000274	2.736630	0.927195	-0.000110
1466	1.4577e+02	-18.3588	-52.115385	0.000355	3.547483	1.201920	-0.000142
1467	1.4587e+02	-18.4006	-52.196128	0.000203	2.027133	0.686811	-0.000081
1468	1.4597e+02	-18.4519	-52.313205	0.000294	2.939343	0.995876	-0.000118
1469	1.4607e+02	-18.4808	-52.442393	0.000324	3.243413	1.098898	-0.000130
1470	1.4617e+02	-18.5225	-52.583693	0.000355	3.547483	1.201920	-0.000142
1471	1.4626e+02	-18.5610	-52.785550	0.000507	5.067832	1.717028	-0.000203
1472	1.4636e+02	-18.6011	-52.874367	0.000223	2.229846	0.755492	-0.000089
1473	1.4646e+02	-18.6412	-52.991444	0.000294	2.939343	0.995876	-0.000118
1474	1.4656e+02	-18.6845	-53.112558	0.000304	3.040699	1.030217	-0.000122
1475	1.4666e+02	-18.7230	-53.249820	0.000345	3.446126	1.167579	-0.000138
1476	1.4676e+02	-18.7551	-53.326526	0.000193	1.925776	0.652471	-0.000077
1477	1.4686e+02	-18.8032	-53.516271	0.000476	4.763762	1.614006	-0.000191
1478	1.4696e+02	-18.8417	-53.629311	0.000284	2.837986	0.961536	-0.000114
1479	1.4706e+02	-18.8882	-53.770611	0.000355	3.547483	1.201920	-0.000142
1480	1.4716e+02	-18.9235	-53.903836	0.000334	3.344769	1.133239	-0.000134
1481	1.4726e+02	-18.9620	-54.008802	0.000264	2.635273	0.892855	-0.000105
1482	1.4736e+02	-18.9989	-54.170287	0.000405	4.054266	1.373622	-0.000162
1483	1.4746e+02	-19.0438	-54.251030	0.000203	2.027133	0.686811	-0.000081
1484	1.4756e+02	-19.0872	-54.364070	0.000284	2.837986	0.961536	-0.000114
1485	1.4766e+02	-19.1241	-54.489221	0.000314	3.142056	1.064557	-0.000126
1486	1.4776e+02	-19.1658	-54.654744	0.000416	4.155623	1.407963	-0.000166
1487	1.4786e+02	-19.1962	-54.767783	0.000284	2.837986	0.961536	-0.000114
1488	1.4796e+02	-19.2396	-54.957529	0.000476	4.763762	1.614006	-0.000191
1489	1.4806e+02	-19.2765	-55.114977	0.000395	3.952909	1.339282	-0.000158
1490	1.4816e+02	-19.3262	-55.211868	0.000243	2.432560	0.824173	-0.000097
1491	1.4825e+02	-19.3551	-55.365280	0.000385	3.851553	1.304941	-0.000154
1492	1.4835e+02	-19.3952	-55.486394	0.000304	3.040699	1.030217	-0.000122
1493	1.4845e+02	-19.4369	-55.643842	0.000395	3.952909	1.339282	-0.000158
1494	1.4855e+02	-19.4834	-55.813402	0.000426	4.256979	1.442304	-0.000170
1495	1.4865e+02	-19.5219	-55.986998	0.000436	4.358336	1.476644	-0.000174
1496	1.4875e+02	-19.5540	-56.112150	0.000314	3.142056	1.064557	-0.000126
1497	1.4885e+02	-19.5925	-56.249412	0.000345	3.446126	1.167579	-0.000138
1498	1.4895e+02	-19.6358	-56.406861	0.000395	3.952909	1.339282	-0.000158
1499	1.4905e+02	-19.6823	-56.519900	0.000284	2.837986	0.961536	-0.000114
1500	1.4915e+02	-19.7080	-56.677349	0.000395	3.952909	1.339282	-0.000158
1501	1.4925e+02	-19.7577	-56.806537	0.000324	3.243413	1.098898	-0.000130
1502	1.4935e+02	-19.8010	-56.927651	0.000304	3.040699	1.030217	-0.000122
1503	1.4945e+02	-19.8395	-57.125471	0.000497	4.966476	1.682688	-0.000199
1504	1.4955e+02	-19.8829	-57.270808	0.000365	3.648839	1.236260	-0.000146
1505	1.4965e+02	-19.9198	-57.444404	0.000436	4.358336	1.476644	-0.000174
1506	1.4975e+02	-19.9583	-57.557444	0.000284	2.837986	0.961536	-0.000114
1507	1.4985e+02	-19.9968	-57.755264	0.000497	4.966476	1.682688	-0.000199
1508	1.4995e+02	-19.9518	-57.751227	0.000010	0.101357	0.034341	0.000004
1509	1.5005e+02	-19.9101	-57.735078	0.000041	0.405427	0.137362	0.000016
1510	1.5015e+02	-19.8748	-57.714893	0.000051	0.506783	0.171703	0.000020
1511	1.5025e+02	-19.8331	-57.678558	0.000091	0.912210	0.309065	0.000037
1512	1.5034e+02	-19.7994	-57.658373	0.000051	0.506783	0.171703	0.000020
1513	1.5044e+02	-19.7593	-57.678558	-0.000051	-0.506783	-0.171703	-0.000020
1514	1.5054e+02	-19.7192	-57.597816	0.000203	2.027133	0.686811	0.000081
1515	1.5064e+02	-19.6807	-57.569556	0.000071	0.709497	0.240384	0.000028
1516	1.5074e+02	-19.6438	-57.557444	0.000030	0.304070	0.103022	0.000012
1517	1.5084e+02	-19.6005	-57.464590	0.000233	2.331203	0.789833	0.000093
1518	1.5094e+02	-19.5572	-57.399996	0.000162	1.621706	0.549449	0.000065
1519	1.5104e+02	-19.5123	-57.359625	0.000101	1.013566	0.343406	0.000041
1520	1.5114e+02	-19.4754	-57.339439	0.000051	0.506783	0.171703	0.000020
1521	1.5124e+02	-19.4401	-57.355587	-0.000041	-0.405427	-0.137362	-0.000016
1522	1.5134e+02	-19.3984	-57.282919	0.000182	1.824420	0.618130	0.000073
1523	1.5144e+02	-19.3599	-57.206213	0.000193	1.925776	0.652471	0.000077
1524	1.5154e+02	-19.3182	-57.186028	0.000051	0.506783	0.171703	0.000020
1525	1.5164e+02	-19.2829	-57.141619	0.000111	1.114923	0.377746	0.000045
1526	1.5174e+02	-19.2380	-57.089136	0.000132	1.317636	0.446427	0.000053
1527	1.5184e+02	-19.2123	-57.024542	0.000162	1.621706	0.549449	0.000065
1528	1.5194e+02	-19.1610	-56.959948	0.000162	1.621706	0.549449	0.000065
1529	1.5204e+02	-19.1192	-56.883243	0.000193	1.925776	0.652471	0.000077
1530	1.5214e+02	-19.0872	-56.850945	0.000081	0.810853	0.274724	0.000032
1531	1.5224e+02	-19.0422	-56.770203	0.000203	2.027133	0.686811	0.000081
1532	1.5233e+02	-19.0037	-56.685423	0.000213	2.128490	0.721152	0.000085
1533	1.5243e+02	-18.9636	-56.665237	0.000051	0.506783	0.171703	0.000020
1534	1.5253e+02	-18.9283	-56.560272	0.000264	2.635273	0.892855	0.000105
1535	1.5263e+02	-18.8850	-56.540086	0.000051	0.506783	0.171703	0.000020
1536	1.5273e+02	-18.8449	-56.414935	0.000314	3.142056	1.064557	0.000126
1537	1.5283e+02	-18.8048	-56.358415	0.000142	1.418993	0.480768	0.000057
1538	1.5293e+02	-18.7535	-56.350341	0.000020	0.202713	0.068681	0.000008
1539	1.5303e+02	-18.7118	-56.249412	0.000253	2.533916	0.858514	0.000101
1540	1.5313e+02	-18.6893	-56.205004	0.000111	1.114923	0.377746	0.000045
1541	1.5323e+02	-18.6396	-56.132335	0.000182	1.824420	0.618130	0.000073
1542	1.5333e+02	-18.5995	-56.071778	0.000152	1.520350	0.515108	0.000061
1543	1.5343e+02	-18.5690	-55.982961	0.000223	2.229846	0.755492	0.000089
1544	1.5353e+02	-18.5225	-55.918367	0.000162	1.621706	0.549449	0.000065
1545	1.5363e+02	-18.4856	-55.861847	0.000142	1.418993	0.480768	0.000057
1546	1.5373e+02	-18.4423	-55.768993	0.000233	2.331203	0.789833	0.000093
1547	1.5383e+02	-18.4054	-55.692288	0.000193	1.925776	0.652471	0.000077
1548	1.5393e+02	-18.3637	-55.668065	0.000061	0.608140	0.206043	0.000024
1549	1.5403e+02	-18.3171	-55.579248	0.000223	2.229846	0.755492	0.000089
1550	1.5413e+02	-18.2915	-55.502542	0.000193	1.925776	0.652471	0.000077
1551	1.5422e+02	-18.2465	-55.429874	0.000182	1.824420	0.618130	0.000073
1552	1.5432e+02	-18.1952	-55.349131	0.000203	2.027133	0.686811	0.000081
1553	1.5442e+02	-18.1695	-55.260314	0.000223	2.229846	0.755492	0.000089
1554	1.5452e+02	-18.1166	-55.195720	0.000162	1.621706	0.549449	0.000065
1555	1.5462e+02	-18.0829	-55.127089	0.000172	1.723063	0.583790	0.000069
1556	1.5472e+02	-18.0380	-55.090754	0.000091	0.912210	0.309065	0.000037
1557	1.5482e+02	-17.9947	-54.977714	0.000284	2.837986	0.961536	0.000114
1558	1.5492e+02	-17.9722	-54.917157	0.000152	1.520350	0.515108	0.000061
1559	1.5502e+02	-17.9161	-54.836415	0.000203	2.027133	0.686811	0.000081
1560	1.5512e+02	-17.8904	-54.783932	0.000132	1.317636	0.446427	0.000053
1561	1.5522e+02	-17.8471	-54.695115	0.000223	2.229846	0.755492	0.000089
1562	1.5532e+02	-17.8022	-54.646669	0.000122	1.216280	0.412087	0.000049
1563	1.5542e+02	-17.7573	-54.557852	0.000223	2.229846	0.755492	0.000089
1564	1.5552e+02	-17.7220	-54.481147	0.000193	1.925776	0.652471	0.000077
1565	1.5562e+02	-17.6915	-54.388293	0.000233	2.331203	0.789833	0.000093
1566	1.5572e+02	-17.6530	-54.303513	0.000213	2.128490	0.721152	0.000085
1567	1.5582e+02	-17.6129	-54.234882	0.000172	1.723063	0.583790	0.000069
1568	1.5592e+02	-17.5680	-54.162213	0.000182	1.824420	0.618130	0.000073
1569	1.5602e+02	-17.5230	-54.028988	0.000334	3.344769	1.133239	0.000134
1570	1.5612e+02	-17.4877	-53.928059	0.000253	2.533916	0.858514	0.000101
1571	1.5622e+02	-17.4492	-53.887688	0.000101	1.013566	0.343406	0.000041
1572	1.5631e+02	-17.4043	-53.843279	0.000111	1.114923	0.377746	0.000045
1573	1.5641e+02	-17.3658	-53.758499	0.000213	2.128490	0.721152	0.000085
1574	1.5651e+02	-17.3225	-53.665645	0.000233	2.331203	0.789833	0.000093
1575	1.5661e+02	-17.2856	-53.609125	0.000142	1.418993	0.480768	0.000057
1576	1.5671e+02	-17.2487	-53.508197	0.000253	2.533916	0.858514	0.000101
1577	1.5681e+02	-17.2086	-53.451677	0.000142	1.418993	0.480768	0.000057
1578	1.5691e+02	-17.1637	-53.330563	0.000304	3.040699	1.030217	0.000122
1579	1.5701e+02	-17.1284	-53.294229	0.000091	0.912210	0.309065	0.000037
1580	1.5711e+02	-17.0915	-53.185226	0.000274	2.736630	0.927195	0.000110
1581	1.5721e+02	-17.0482	-53.108521	0.000193	1.925776	0.652471	0.000077
1582	1.5731e+02	-17.0209	-53.027778	0.000203	2.027133	0.686811	0.000081
1583	1.5741e+02	-16.9648	-52.942998	0.000213	2.128490	0.721152	0.000085
1584	1.5751e+02	-16.9343	-52.862255	0.000203	2.027133	0.686811	0.000081
1585	1.5761e+02	-16.8942	-52.769401	0.000233	2.331203	0.789833	0.000093
1586	1.5771e+02	-16.8460	-52.672510	0.000243	2.432560	0.824173	0.000097
1587	1.5781e+02	-16.8108	-52.599842	0.000182	1.824420	0.618130	0.000073
1588	1.5791e+02	-16.7642	-52.506987	0.000233	2.331203	0.789833	0.000093
1589	1.5801e+02	-16.7225	-52.494876	0.000030	0.304070	0.103022	0.000012
1590	1.5811e+02	-16.6840	-52.385873	0.000274	2.736630	0.927195	0.000110
1591	1.5821e+02	-16.6503	-52.276871	0.000274	2.736630	0.927195	0.000110
1592	1.5830e+02	-16.6006	-52.224388	0.000132	1.317636	0.446427	0.000053
1593	1.5840e+02	-16.5669	-52.123460	0.000253	2.533916	0.858514	0.000101
1594	1.5850e+02	-16.5220	-52.062902	0.000152	1.520350	0.515108	0.000061
1595	1.5860e+02	-16.4851	-51.966011	0.000243	2.432560	0.824173	0.000097
1596	1.5870e+02	-16.4514	-51.881231	0.000213	2.128490	0.721152	0.000085
1597	1.5880e+02	-16.4193	-51.812600	0.000172	1.723063	0.583790	0.000069
1598	1.5890e+02	-16.3680	-51.715709	0.000243	2.432560	0.824173	0.000097
1599	1.5900e+02	-16.3359	-51.675337	0.000101	1.013566	0.343406	0.000041
1600	1.5910e+02	-16.2958	-51.578446	0.000243	2.432560	0.824173	0.000097
1601	1.5920e+02	-16.2573	-51.445221	0.000334	3.344769	1.133239	0.000134
1602	1.5930e+02	-16.2204	-51.392738	0.000132	1.317636	0.446427	0.000053
1603	1.5940e+02	-16.1723	-51.263550	0.000324	3.243413	1.098898	0.000130
1604	1.5950e+02	-16.1306	-51.215104	0.000122	1.216280	0.412087	0.000049
1605	1.5960e+02	-16.0921	-51.182807	0.000081	0.810853	0.274724	0.000032
1606	1.5970e+02	-16.0568	-51.081878	0.000253	2.533916	0.858514	0.000101
1607	1.5980e+02	-16.0086	-50.948653	0.000334	3.344769	1.133239	0.000134
1608	1.5990e+02	-15.9733	-50.859836	0.000223	2.229846	0.755492	0.000089
1609	1.6000e+02	-15.9268	-50.799279	0.000152	1.520350	0.515108	0.000061
1610	1.6010e+02	-15.8979	-50.686239	0.000284	2.837986	0.961536	0.000114
1611	1.6019e+02	-15.8530	-50.625682	0.000152	1.520350	0.515108	0.000061
1612	1.6029e+02	-15.8193	-50.593385	0.000081	0.810853	0.274724	0.000032
1613	1.6039e+02	-15.7824	-50.456122	0.000345	3.446126	1.167579	0.000138
1614	1.6049e+02	-15.7327	-50.391528	0.000162	1.621706	0.549449	0.000065
1615	1.6059e+02	-15.6974	-50.274451	0.000294	2.939343	0.995876	0.000118
1616	1.6069e+02	-15.6525	-50.169486	0.000264	2.635273	0.892855	0.000105
1617	1.6079e+02	-15.6124	-50.125077	0.000111	1.114923	0.377746	0.000045
1618	1.6089e+02	-15.5771	-50.044335	0.000203	2.027133	0.686811	0.000081
1619	1.6099e+02	-15.5322	-49.919183	0.000314	3.142056	1.064557	0.000126
1620	1.6109e+02	-15.4953	-49.870738	0.000122	1.216280	0.412087	0.000049
1621	1.6119e+02	-15.4552	-49.802106	0.000172	1.723063	0.583790	0.000069
1622	1.6129e+02	-15.4215	-49.717327	0.000213	2.128490	0.721152	0.000085
1623	1.6139e+02	-15.3734	-49.563915	0.000385	3.851553	1.304941	0.000154
1624	1.6149e+02	-15.3317	-49.519507	0.000111	1.114923	0.377746	0.000045
1625	1.6159e+02	-15.2948	-49.430690	0.000223	2.229846	0.755492	0.000089
1626	1.6169e+02	-15.2595	-49.358022	0.000182	1.824420	0.618130	0.000073
1627	1.6179e+02	-15.2194	-49.261130	0.000243	2.432560	0.824173	0.000097
1628	1.6189e+02	-15.1776	-49.212685	0.000122	1.216280	0.412087	0.000049
1629	1.6199e+02	-15.1375	-49.111756	0.000253	2.533916	0.858514	0.000101
1630	1.6209e+02	-15.0894	-48.994679	0.000294	2.939343	0.995876	0.000118
1631	1.6219e+02	-15.0670	-48.917974	0.000193	1.925776	0.652471	0.000077
1632	1.6228e+02	-15.0188	-48.784748	0.000334	3.344769	1.133239	0.000134
1633	1.6238e+02	-14.9787	-48.736303	0.000122	1.216280	0.412087	0.000049
1634	1.6248e+02	-14.9386	-48.631337	0.000264	2.635273	0.892855	0.000105
1635	1.6258e+02	-14.8985	-48.538483	0.000233	2.331203	0.789833	0.000093
1636	1.6268e+02	-14.8600	-48.461777	0.000193	1.925776	0.652471	0.000077
1637	1.6278e+02	-14.8167	-48.409295	0.000132	1.317636	0.446427	0.000053
1638	1.6288e+02	-14.7766	-48.308366	0.000253	2.533916	0.858514	0.000101
1639	1.6298e+02	-14.7349	-48.207438	0.000253	2.533916	0.858514	0.000101
1640	1.6308e+02	-14.6996	-48.142844	0.000162	1.621706	0.549449	0.000065
1641	1.6318e+02	-14.6482	-47.985395	0.000395	3.952909	1.339282	0.000158
1642	1.6328e+02	-14.6274	-47.908690	0.000193	1.925776	0.652471	0.000077
1643	1.6338e+02	-14.5921	-47.791613	0.000294	2.939343	0.995876	0.000118
1644	1.6348e+02	-14.5392	-47.731056	0.000152	1.520350	0.515108	0.000061
1645	1.6358e+02	-14.5007	-47.666462	0.000162	1.621706	0.549449	0.000065
1646	1.6368e+02	-14.4525	-47.581682	0.000213	2.128490	0.721152	0.000085
1647	1.6378e+02	-14.4156	-47.468642	0.000284	2.837986	0.961536	0.000114
1648	1.6388e+02	-14.3739	-47.367714	0.000253	2.533916	0.858514	0.000101
1649	1.6398e+02	-14.3450	-47.291008	0.000193	1.925776	0.652471	0.000077
1650	1.6408e+02	-14.3065	-47.194117	0.000243	2.432560	0.824173	0.000097
1651	1.6418e+02	-14.2616	-47.121448	0.000182	1.824420	0.618130	0.000073
1652	1.6427e+02	-14.2167	-47.000334	0.000304	3.040699	1.030217	0.000122
1653	1.6437e+02	-14.1782	-46.964000	0.000091	0.912210	0.309065	0.000037
1654	1.6447e+02	-14.1413	-46.915554	0.000122	1.216280	0.412087	0.000049
1655	1.6457e+02	-14.0996	-46.798477	0.000294	2.939343	0.995876	0.000118
1656	1.6467e+02	-14.0579	-46.741958	0.000142	1.418993	0.480768	0.000057
1657	1.6477e+02	-14.0162	-46.568361	0.000436	4.358336	1.476644	0.000174
1658	1.6487e+02	-13.9793	-46.471469	0.000243	2.432560	0.824173	0.000097
1659	1.6497e+02	-13.9376	-46.390727	0.000203	2.027133	0.686811	0.000081
1660	1.6507e+02	-13.9071	-46.269613	0.000304	3.040699	1.030217	0.000122
1661	1.6517e+02	-13.8574	-46.205019	0.000162	1.621706	0.549449	0.000065
1662	1.6527e+02	-13.8253	-46.067756	0.000345	3.446126	1.167579	0.000138
1663	1.6537e+02	-13.7836	-46.051607	0.000041	0.405427	0.137362	0.000016
1664	1.6547e+02	-13.7338	-45.930493	0.000304	3.040699	1.030217	0.000122
1665	1.6557e+02	-13.7130	-45.813416	0.000294	2.939343	0.995876	0.000118
1666	1.6567e+02	-13.6633	-45.728637	0.000213	2.128490	0.721152	0.000085
1667	1.6577e+02	-13.6264	-45.684228	0.000111	1.114923	0.377746	0.000045
1668	1.6587e+02	-13.5846	-45.603485	0.000203	2.027133	0.686811	0.000081
1669	1.6597e+02	-13.5445	-45.518705	0.000213	2.128490	0.721152	0.000085
1670	1.6607e+02	-13.5012	-45.401629	0.000294	2.939343	0.995876	0.000118
1671	1.6616e+02	-13.4707	-45.308774	0.000233	2.331203	0.789833	0.000093
1672	1.6626e+02	-13.4178	-45.215920	0.000233	2.331203	0.789833	0.000093
1673	1.6636e+02	-13.3841	-45.131140	0.000213	2.128490	0.721152	0.000085
1674	1.6646e+02	-13.3456	-45.058472	0.000182	1.824420	0.618130	0.000073
1675	1.6656e+02	-13.3007	-44.880838	0.000446	4.459693	1.510985	0.000179
1676	1.6666e+02	-13.2654	-44.787984	0.000233	2.331203	0.789833	0.000093
1677	1.6676e+02	-13.2189	-44.703204	0.000213	2.128490	0.721152	0.000085
1678	1.6686e+02	-13.1836	-44.594201	0.000274	2.736630	0.927195	0.000110
1679	1.6696e+02	-13.1483	-44.497310	0.000243	2.432560	0.824173	0.000097
1680	1.6706e+02	-13.1034	-44.432716	0.000162	1.621706	0.549449	0.000065
1681	1.6716e+02	-13.0665	-44.311602	0.000304	3.040699	1.030217	0.000122
1682	1.6726e+02	-13.0296	-44.194525	0.000294	2.939343	0.995876	0.000118
1683	1.6736e+02	-12.9815	-44.089559	0.000264	2.635273	0.892855	0.000105
1684	1.6746e+02	-12.9542	-44.020928	0.000172	1.723063	0.583790	0.000069
1685	1.6756e+02	-12.8948	-43.956334	0.000162	1.621706	0.549449	0.000065
1686	1.6766e+02	-12.8611	-43.911925	0.000111	1.114923	0.377746	0.000045
1687	1.6776e+02	-12.8323	-43.774663	0.000345	3.446126	1.167579	0.000138
1688	1.6786e+02	-12.7922	-43.701994	0.000182	1.824420	0.618130	0.000073
1689	1.6796e+02	-12.7456	-43.592992	0.000274	2.736630	0.927195	0.000110
1690	1.6806e+02	-12.7023	-43.500138	0.000233	2.331203	0.789833	0.000093
1691	1.6816e+02	-12.6574	-43.407283	0.000233	2.331203	0.789833	0.000093
1692	1.6825e+02	-12.6285	-43.265984	0.000355	3.547483	1.201920	0.000142
1693	1.6835e+02	-12.5884	-43.152944	0.000284	2.837986	0.961536	0.000114
1694	1.6845e+02	-12.5435	-43.056053	0.000243	2.432560	0.824173	0.000097
1695	1.6855e+02	-12.5114	-42.938976	0.000294	2.939343	0.995876	0.000118
1696	1.6865e+02	-12.4745	-42.866307	0.000182	1.824420	0.618130	0.000073
1697	1.6875e+02	-12.4328	-42.769416	0.000243	2.432560	0.824173	0.000097
1698	1.6885e+02	-12.3879	-42.660413	0.000274	2.736630	0.927195	0.000110
1699	1.6895e+02	-12.3590	-42.559485	0.000253	2.533916	0.858514	0.000101
1700	1.6905e+02	-12.3125	-42.466631	0.000233	2.331203	0.789833	0.000093
1701	1.6915e+02	-12.2547	-42.393962	0.000182	1.824420	0.618130	0.000073
1702	1.6925e+02	-12.2355	-42.293034	0.000253	2.533916	0.858514	0.000101
1703	1.6935e+02	-12.1841	-42.220366	0.000182	1.824420	0.618130	0.000073
1704	1.6945e+02	-12.1440	-42.119437	0.000253	2.533916	0.858514	0.000101
1705	1.6955e+02	-12.1104	-42.022546	0.000243	2.432560	0.824173	0.000097
1706	1.6965e+02	-12.0606	-41.933729	0.000223	2.229846	0.755492	0.000089
1707	1.6975e+02	-12.0301	-41.848949	0.000213	2.128490	0.721152	0.000085
1708	1.6985e+02	-11.9772	-41.711686	0.000345	3.446126	1.167579	0.000138
1709	1.6995e+02	-11.9419	-41.647092	0.000162	1.621706	0.549449	0.000065
1710	1.7005e+02	-11.9130	-41.509830	0.000345	3.446126	1.167579	0.000138
1711	1.7015e+02	-11.8697	-41.429087	0.000203	2.027133	0.686811	0.000081
1712	1.7024e+02	-11.8280	-41.312010	0.000294	2.939343	0.995876	0.000118
1713	1.7034e+02	-11.7863	-41.182822	0.000324	3.243413	1.098898	0.000130
1714	1.7044e+02	-11.7574	-41.085930	0.000243	2.432560	0.824173	0.000097
1715	1.7054e+02	-11.7125	-40.968853	0.000294	2.939343	0.995876	0.000118
1716	1.7064e+02	-11.6660	-40.892148	0.000193	1.925776	0.652471	0.000077
1717	1.7074e+02	-11.6243	-40.819479	0.000182	1.824420	0.618130	0.000073
1718	1.7084e+02	-11.5810	-40.722588	0.000243	2.432560	0.824173	0.000097
1719	1.7094e+02	-11.5649	-40.633771	0.000223	2.229846	0.755492	0.000089
1720	1.7104e+02	-11.5104	-40.553028	0.000203	2.027133	0.686811	0.000081
1721	1.7114e+02	-11.4638	-40.448063	0.000264	2.635273	0.892855	0.000105
1722	1.7124e+02	-11.4237	-40.339060	0.000274	2.736630	0.927195	0.000110
1723	1.7134e+02	-11.3997	-40.209872	0.000324	3.243413	1.098898	0.000130
1724	1.7144e+02	-11.3467	-40.149315	0.000152	1.520350	0.515108	0.000061
1725	1.7154e+02	-11.3179	-40.012052	0.000345	3.446126	1.167579	0.000138
1726	1.7164e+02	-11.2633	-39.927272	0.000213	2.128490	0.721152	0.000085
1727	1.7174e+02	-11.2328	-39.854604	0.000182	1.824420	0.618130	0.000073
1728	1.7184e+02	-11.1975	-39.693119	0.000405	4.054266	1.373622	0.000162
1729	1.7194e+02	-11.1542	-39.588153	0.000264	2.635273	0.892855	0.000105
1730	1.7204e+02	-11.1125	-39.479150	0.000274	2.736630	0.927195	0.000110
1731	1.7213e+02	-11.0756	-39.394371	0.000213	2.128490	0.721152	0.000085
1732	1.7223e+02	-11.0339	-39.301516	0.000233	2.331203	0.789833	0.000093
1733	1.7233e+02	-10.9842	-39.216737	0.000213	2.128490	0.721152	0.000085
1734	1.7243e+02	-10.9473	-39.103697	0.000284	2.837986	0.961536	0.000114
1735	1.7253e+02	-10.9120	-39.014880	0.000223	2.229846	0.755492	0.000089
1736	1.7263e+02	-10.8719	-38.885691	0.000324	3.243413	1.098898	0.000130
1737	1.7273e+02	-10.8270	-38.825134	0.000152	1.520350	0.515108	0.000061
1738	1.7283e+02	-10.7917	-38.740355	0.000213	2.128490	0.721152	0.000085
1739	1.7293e+02	-10.7628	-38.623278	0.000294	2.939343	0.995876	0.000118
1740	1.7303e+02	-10.7034	-38.538498	0.000213	2.128490	0.721152	0.000085
1741	1.7313e+02	-10.6778	-38.437569	0.000253	2.533916	0.858514	0.000101
1742	1.7323e+02	-10.6377	-38.324530	0.000284	2.837986	0.961536	0.000114
1743	1.7333e+02	-10.5879	-38.187267	0.000345	3.446126	1.167579	0.000138
1744	1.7343e+02	-10.5462	-38.054041	0.000334	3.344769	1.133239	0.000134
1745	1.7353e+02	-10.5157	-37.981373	0.000182	1.824420	0.618130	0.000073
1746	1.7363e+02	-10.4676	-37.864296	0.000294	2.939343	0.995876	0.000118
1747	1.7373e+02	-10.4387	-37.751256	0.000284	2.837986	0.961536	0.000114
1748	1.7383e+02	-10.3954	-37.609957	0.000355	3.547483	1.201920	0.000142
1749	1.7393e+02	-10.3585	-37.525177	0.000213	2.128490	0.721152	0.000085
1750	1.7403e+02	-10.3120	-37.420211	0.000264	2.635273	0.892855	0.000105
1751	1.7413e+02	-10.2671	-37.375803	0.000111	1.114923	0.377746	0.000045
1752	1.7422e+02	-10.2302	-37.274874	0.000253	2.533916	0.858514	0.000101
1753	1.7432e+02	-10.1965	-37.182020	0.000233	2.331203	0.789833	0.000093
1754	1.7442e+02	-10.1532	-37.097240	0.000213	2.128490	0.721152	0.000085
1755	1.7452e+02	-10.1195	-36.992275	0.000264	2.635273	0.892855	0.000105
1756	1.7462e+02	-10.0842	-36.867124	0.000314	3.142056	1.064557	0.000126
1757	1.7472e+02	-10.0409	-36.774269	0.000233	2.331203	0.789833	0.000093
1758	1.7482e+02	-10.0040	-36.661230	0.000284	2.837986	0.961536	0.000114
1759	1.7492e+02	-9.9527	-36.572413	0.000223	2.229846	0.755492	0.000089
1760	1.7502e+02	-9.9190	-36.455336	0.000294	2.939343	0.995876	0.000118
1761	1.7512e+02	-9.8757	-36.342296	0.000284	2.837986	0.961536	0.000114
1762	1.7522e+02	-9.8307	-36.237330	0.000264	2.635273	0.892855	0.000105
1763	1.7532e+02	-9.8003	-36.124291	0.000284	2.837986	0.961536	0.000114
1764	1.7542e+02	-9.7666	-36.007214	0.000294	2.939343	0.995876	0.000118
1765	1.7552e+02	-9.7200	-35.894174	0.000284	2.837986	0.961536	0.000114
1766	1.7562e+02	-9.6655	-35.849765	0.000111	1.114923	0.377746	0.000045
1767	1.7572e+02	-9.6334	-35.756911	0.000233	2.331203	0.789833	0.000093
1768	1.7582e+02	-9.6013	-35.643871	0.000284	2.837986	0.961536	0.000114
1769	1.7592e+02	-9.5596	-35.583314	0.000152	1.520350	0.515108	0.000061
1770	1.7602e+02	-9.5179	-35.494497	0.000223	2.229846	0.755492	0.000089
1771	1.7612e+02	-9.4778	-35.316863	0.000446	4.459693	1.510985	0.000179
1772	1.7621e+02	-9.4473	-35.224009	0.000233	2.331203	0.789833	0.000093
1773	1.7631e+02	-9.4120	-35.175564	0.000122	1.216280	0.412087	0.000049
1774	1.7641e+02	-9.3655	-35.018115	0.000395	3.952909	1.339282	0.000158
1775	1.7651e+02	-9.3190	-34.925261	0.000233	2.331203	0.789833	0.000093
1776	1.7661e+02	-9.2789	-34.812221	0.000284	2.837986	0.961536	0.000114
1777	1.7671e+02	-9.2452	-34.755702	0.000142	1.418993	0.480768	0.000057
1778	1.7681e+02	-9.2003	-34.630550	0.000314	3.142056	1.064557	0.000126
1779	1.7691e+02	-9.1570	-34.497325	0.000334	3.344769	1.133239	0.000134
1780	1.7701e+02	-9.1201	-34.380248	0.000294	2.939343	0.995876	0.000118
1781	1.7711e+02	-9.0880	-34.263171	0.000294	2.939343	0.995876	0.000118
1782	1.7721e+02	-9.0350	-34.142057	0.000304	3.040699	1.030217	0.000122
1783	1.7731e+02	-8.9949	-34.029017	0.000284	2.837986	0.961536	0.000114
1784	1.7741e+02	-8.9548	-33.980572	0.000122	1.216280	0.412087	0.000049
1785	1.7751e+02	-8.9227	-33.887717	0.000233	2.331203	0.789833	0.000093
1786	1.7761e+02	-8.8826	-33.806975	0.000203	2.027133	0.686811	0.000081
1787	1.7771e+02	-8.8409	-33.653564	0.000385	3.851553	1.304941	0.000154
1788	1.7781e+02	-8.7960	-33.556672	0.000243	2.432560	0.824173	0.000097
1789	1.7791e+02	-8.7623	-33.451707	0.000264	2.635273	0.892855	0.000105
1790	1.7801e+02	-8.7222	-33.338667	0.000284	2.837986	0.961536	0.000114
1791	1.7810e+02	-8.6821	-33.229664	0.000274	2.736630	0.927195	0.000110
1792	1.7820e+02	-8.6388	-33.161033	0.000172	1.723063	0.583790	0.000069
1793	1.7830e+02	-8.6019	-33.076253	0.000213	2.128490	0.721152	0.000085
1794	1.7840e+02	-8.5650	-32.926879	0.000375	3.750196	1.270601	0.000150
1795	1.7850e+02	-8.5233	-32.805765	0.000304	3.040699	1.030217	0.000122
1796	1.7860e+02	-8.4832	-32.684651	0.000304	3.040699	1.030217	0.000122
1797	1.7870e+02	-8.4495	-32.595834	0.000223	2.229846	0.755492	0.000089
1798	1.7880e+02	-8.4078	-32.450497	0.000365	3.648839	1.236260	0.000146
1799	1.7890e+02	-8.3581	-32.373791	0.000193	1.925776	0.652471	0.000077
1800	1.7900e+02	-8.3212	-32.252677	0.000304	3.040699	1.030217	0.000122
1801	1.7910e+02	-8.2810	-32.200195	0.000132	1.317636	0.446427	0.000053
1802	1.7920e+02	-8.2458	-32.030635	0.000426	4.256979	1.442304	0.000170
1803	1.7930e+02	-8.2008	-31.937781	0.000233	2.331203	0.789833	0.000093
1804	1.7940e+02	-8.1688	-31.853001	0.000213	2.128490	0.721152	0.000085
1805	1.7950e+02	-8.1319	-31.768221	0.000213	2.128490	0.721152	0.000085
1806	1.7960e+02	-8.0837	-31.663256	0.000264	2.635273	0.892855	0.000105
1807	1.7970e+02	-8.0372	-31.546179	0.000294	2.939343	0.995876	0.000118
1808	1.7980e+02	-8.0115	-31.441213	0.000264	2.635273	0.892855	0.000105
1809	1.7990e+02	-7.9682	-31.324136	0.000294	2.939343	0.995876	0.000118
1810	1.8000e+02	-7.9281	-31.219171	0.000264	2.635273	0.892855	0.000105
1811	1.8009e+02	-7.8800	-31.106131	0.000284	2.837986	0.961536	0.000114
1812	1.8019e+02	-7.8447	-30.980980	0.000314	3.142056	1.064557	0.000126
1813	1.8029e+02	-7.8158	-30.888126	0.000233	2.331203	0.789833	0.000093
1814	1.8039e+02	-7.7693	-30.795271	0.000233	2.331203	0.789833	0.000093
1815	1.8049e+02	-7.7324	-30.633786	0.000405	4.054266	1.373622	0.000162
1816	1.8059e+02	-7.6923	-30.508635	0.000314	3.142056	1.064557	0.000126
1817	1.8069e+02	-7.6522	-30.415781	0.000233	2.331203	0.789833	0.000093
1818	1.8079e+02	-7.5976	-30.278518	0.000345	3.446126	1.167579	0.000138
1819	1.8089e+02	-7.5575	-30.234110	0.000111	1.114923	0.377746	0.000045
1820	1.8099e+02	-7.5271	-30.108958	0.000314	3.142056	1.064557	0.000126
1821	1.8109e+02	-7.4886	-29.995919	0.000284	2.837986	0.961536	0.000114
1822	1.8119e+02	-7.4452	-29.899027	0.000243	2.432560	0.824173	0.000097
1823	1.8129e+02	-7.3987	-29.806173	0.000233	2.331203	0.789833	0.000093
1824	1.8139e+02	-7.3682	-29.660836	0.000365	3.648839	1.236260	0.000146
1825	1.8149e+02	-7.3217	-29.563945	0.000243	2.432560	0.824173	0.000097
1826	1.8159e+02	-7.2848	-29.507425	0.000142	1.418993	0.480768	0.000057
1827	1.8169e+02	-7.2431	-29.378237	0.000324	3.243413	1.098898	0.000130
1828	1.8179e+02	-7.2030	-29.240974	0.000345	3.446126	1.167579	0.000138
1829	1.8189e+02	-7.1725	-29.140046	0.000253	2.533916	0.858514	0.000101
1830	1.8199e+02	-7.1308	-29.014895	0.000314	3.142056	1.064557	0.000126
1831	1.8209e+02	-7.0875	-28.966449	0.000122	1.216280	0.412087	0.000049
1832	1.8218e+02	-7.0522	-28.809001	0.000395	3.952909	1.339282	0.000158
1833	1.8228e+02	-7.0073	-28.667701	0.000355	3.547483	1.201920	0.000142
1834	1.8238e+02	-6.9720	-28.558698	0.000274	2.736630	0.927195	0.000110
1835	1.8248e+02	-6.9447	-28.437584	0.000304	3.040699	1.030217	0.000122
1836	1.8258e+02	-6.8773	-28.385101	0.000132	1.317636	0.446427	0.000053
1837	1.8268e+02	-6.8517	-28.247839	0.000345	3.446126	1.167579	0.000138
1838	1.8278e+02	-6.8100	-28.159022	0.000223	2.229846	0.755492	0.000089
1839	1.8288e+02	-6.7602	-28.017722	0.000355	3.547483	1.201920	0.000142
1840	1.8298e+02	-6.7265	-27.920831	0.000243	2.432560	0.824173	0.000097
1841	1.8308e+02	-6.6832	-27.815865	0.000264	2.635273	0.892855	0.000105
1842	1.8318e+02	-6.6511	-27.735123	0.000203	2.027133	0.686811	0.000081
1843	1.8328e+02	-6.6062	-27.585748	0.000375	3.750196	1.270601	0.000150
1844	1.8338e+02	-6.5677	-27.509043	0.000193	1.925776	0.652471	0.000077
1845	1.8348e+02	-6.5340	-27.371780	0.000345	3.446126	1.167579	0.000138
1846	1.8358e+02	-6.4875	-27.242592	0.000324	3.243413	1.098898	0.000130
1847	1.8368e+02	-6.4570	-27.149738	0.000233	2.331203	0.789833	0.000093
1848	1.8378e+02	-6.4185	-27.024587	0.000314	3.142056	1.064557	0.000126
1849	1.8388e+02	-6.3688	-26.846953	0.000446	4.459693	1.510985	0.000179
1850	1.8398e+02	-6.3335	-26.758136	0.000223	2.229846	0.755492	0.000089
1851	1.8407e+02	-6.2918	-26.628947	0.000324	3.243413	1.098898	0.000130
1852	1.8417e+02	-6.2501	-26.483610	0.000365	3.648839	1.236260	0.000146
1853	1.8427e+02	-6.2100	-26.386719	0.000243	2.432560	0.824173	0.000097
1854	1.8437e+02	-6.1715	-26.293865	0.000233	2.331203	0.789833	0.000093
1855	1.8447e+02	-6.1346	-26.180825	0.000284	2.837986	0.961536	0.000114
1856	1.8457e+02	-6.0961	-26.112194	0.000172	1.723063	0.583790	0.000069
1857	1.8467e+02	-6.0480	-25.966857	0.000365	3.648839	1.236260	0.000146
1858	1.8477e+02	-6.0207	-25.882077	0.000213	2.128490	0.721152	0.000085
1859	1.8487e+02	-5.9774	-25.744815	0.000345	3.446126	1.167579	0.000138
1860	1.8497e+02	-5.9405	-25.664072	0.000203	2.027133	0.686811	0.000081
1861	1.8507e+02	-5.9052	-25.534884	0.000324	3.243413	1.098898	0.000130
1862	1.8517e+02	-5.8554	-25.413769	0.000304	3.040699	1.030217	0.000122
1863	1.8527e+02	-5.8153	-25.312841	0.000253	2.533916	0.858514	0.000101
1864	1.8537e+02	-5.7801	-25.163467	0.000375	3.750196	1.270601	0.000150
1865	1.8547e+02	-5.7383	-25.066576	0.000243	2.432560	0.824173	0.000097
1866	1.8557e+02	-5.6966	-24.929313	0.000345	3.446126	1.167579	0.000138
1867	1.8567e+02	-5.6533	-24.792051	0.000345	3.446126	1.167579	0.000138
1868	1.8577e+02	-5.6068	-24.650751	0.000355	3.547483	1.201920	0.000142
1869	1.8587e+02	-5.5747	-24.537711	0.000284	2.837986	0.961536	0.000114
1870	1.8597e+02	-5.5346	-24.440820	0.000243	2.432560	0.824173	0.000097
1871	1.8606e+02	-5.4945	-24.299520	0.000355	3.547483	1.201920	0.000142
1872	1.8616e+02	-5.4560	-24.214740	0.000213	2.128490	0.721152	0.000085
1873	1.8626e+02	-5.4207	-24.146109	0.000172	1.723063	0.583790	0.000069
1874	1.8636e+02	-5.3742	-24.008846	0.000345	3.446126	1.167579	0.000138
1875	1.8646e+02	-5.3421	-23.887732	0.000304	3.040699	1.030217	0.000122
1876	1.8656e+02	-5.2924	-23.806989	0.000203	2.027133	0.686811	0.000081
1877	1.8666e+02	-5.2603	-23.681838	0.000314	3.142056	1.064557	0.000126
1878	1.8676e+02	-5.2154	-23.528427	0.000385	3.851553	1.304941	0.000154
1879	1.8686e+02	-5.1785	-23.427499	0.000253	2.533916	0.858514	0.000101
1880	1.8696e+02	-5.1400	-23.314459	0.000284	2.837986	0.961536	0.000114
1881	1.8706e+02	-5.0983	-23.189308	0.000314	3.142056	1.064557	0.000126
1882	1.8716e+02	-5.0565	-23.088379	0.000253	2.533916	0.858514	0.000101
1883	1.8726e+02	-5.0196	-22.979377	0.000274	2.736630	0.927195	0.000110
1884	1.8736e+02	-4.9747	-22.858263	0.000304	3.040699	1.030217	0.000122
1885	1.8746e+02	-4.9378	-22.652369	0.000517	5.169189	1.751369	0.000207
1886	1.8756e+02	-4.8977	-22.543366	0.000274	2.736630	0.927195	0.000110
1887	1.8766e+02	-4.8592	-22.438400	0.000264	2.635273	0.892855	0.000105
1888	1.8776e+02	-4.8191	-22.345546	0.000233	2.331203	0.789833	0.000093
1889	1.8786e+02	-4.7710	-22.236544	0.000274	2.736630	0.927195	0.000110
1890	1.8796e+02	-4.7309	-22.131578	0.000264	2.635273	0.892855	0.000105
1891	1.8806e+02	-4.6988	-22.010464	0.000304	3.040699	1.030217	0.000122
1892	1.8815e+02	-4.6587	-21.901461	0.000274	2.736630	0.927195	0.000110
1893	1.8825e+02	-4.6202	-21.776310	0.000314	3.142056	1.064557	0.000126
1894	1.8835e+02	-4.5785	-21.675382	0.000253	2.533916	0.858514	0.000101
1895	1.8845e+02	-4.5384	-21.566379	0.000274	2.736630	0.927195	0.000110
1896	1.8855e+02	-4.4999	-21.445265	0.000304	3.040699	1.030217	0.000122
1897	1.8865e+02	-4.4646	-21.320114	0.000314	3.142056	1.064557	0.000126
1898	1.8875e+02	-4.4245	-21.199000	0.000304	3.040699	1.030217	0.000122
1899	1.8885e+02	-4.3812	-21.110183	0.000223	2.229846	0.755492	0.000089
1900	1.8895e+02	-4.3475	-20.997143	0.000284	2.837986	0.961536	0.000114
1901	1.8905e+02	-4.3106	-20.847769	0.000375	3.750196	1.270601	0.000150
1902	1.8915e+02	-4.2576	-20.670135	0.000446	4.459693	1.510985	0.000179
1903	1.8925e+02	-4.2223	-20.536909	0.000334	3.344769	1.133239	0.000134
1904	1.8935e+02	-4.1806	-20.456167	0.000203	2.027133	0.686811	0.000081
1905	1.8945e+02	-4.1421	-20.322941	0.000334	3.344769	1.133239	0.000134
1906	1.8955e+02	-4.0988	-20.234124	0.000223	2.229846	0.755492	0.000089
1907	1.8965e+02	-4.0555	-20.117047	0.000294	2.939343	0.995876	0.000118
1908	1.8975e+02	-4.0250	-19.995933	0.000304	3.040699	1.030217	0.000122
1909	1.8985e+02	-3.9753	-19.919228	0.000193	1.925776	0.652471	0.000077
1910	1.8995e+02	-3.9384	-19.798114	0.000304	3.040699	1.030217	0.000122
1911	1.9004e+02	-3.9063	-19.677000	0.000304	3.040699	1.030217	0.000122
1912	1.9014e+02	-3.8630	-19.527626	0.000375	3.750196	1.270601	0.000150
1913	1.9024e+02	-3.8245	-19.398437	0.000324	3.243413	1.098898	0.000130
1914	1.9034e+02	-3.7828	-19.281360	0.000294	2.939343	0.995876	0.000118
1915	1.9044e+02	-3.7443	-19.176395	0.000264	2.635273	0.892855	0.000105
1916	1.9054e+02	-3.7090	-19.035095	0.000355	3.547483	1.201920	0.000142
1917	1.9064e+02	-3.6721	-18.922055	0.000284	2.837986	0.961536	0.000114
1918	1.9074e+02	-3.6224	-18.800941	0.000304	3.040699	1.030217	0.000122
1919	1.9084e+02	-3.5887	-18.663679	0.000345	3.446126	1.167579	0.000138
1920	1.9094e+02	-3.5470	-18.522379	0.000355	3.547483	1.201920	0.000142
1921	1.9104e+02	-3.5069	-18.381079	0.000355	3.547483	1.201920	0.000142
1922	1.9114e+02	-3.4667	-18.251891	0.000324	3.243413	1.098898	0.000130
1923	1.9124e+02	-3.4234	-18.134814	0.000294	2.939343	0.995876	0.000118
1924	1.9134e+02	-3.3849	-18.078294	0.000142	1.418993	0.480768	0.000057
1925	1.9144e+02	-3.3528	-17.969291	0.000274	2.736630	0.927195	0.000110
1926	1.9154e+02	-3.2999	-17.836066	0.000334	3.344769	1.133239	0.000134
1927	1.9164e+02	-3.2646	-17.706877	0.000324	3.243413	1.098898	0.000130
1928	1.9174e+02	-3.2197	-17.589800	0.000294	2.939343	0.995876	0.000118
1929	1.9184e+02	-3.1908	-17.500983	0.000223	2.229846	0.755492	0.000089
1930	1.9194e+02	-3.1475	-17.367758	0.000334	3.344769	1.133239	0.000134
1931	1.9203e+02	-3.1122	-17.278941	0.000223	2.229846	0.755492	0.000089
1932	1.9213e+02	-3.0705	-17.113418	0.000416	4.155623	1.407963	0.000166
1933	1.9223e+02	-3.0192	-17.032676	0.000203	2.027133	0.686811	0.000081
1934	1.9233e+02	-2.9823	-16.867153	0.000416	4.155623	1.407963	0.000166
1935	1.9243e+02	-2.9406	-16.818707	0.000122	1.216280	0.412087	0.000049
1936	1.9253e+02	-2.9149	-16.653185	0.000416	4.155623	1.407963	0.000166
1937	1.9263e+02	-2.8636	-16.507848	0.000365	3.648839	1.236260	0.000146
1938	1.9273e+02	-2.8267	-16.390771	0.000294	2.939343	0.995876	0.000118
1939	1.9283e+02	-2.7817	-16.241397	0.000375	3.750196	1.270601	0.000150
1940	1.9293e+02	-2.7448	-16.128357	0.000284	2.837986	0.961536	0.000114
1941	1.9303e+02	-2.7079	-16.039540	0.000223	2.229846	0.755492	0.000089
1942	1.9313e+02	-2.6710	-15.934575	0.000264	2.635273	0.892855	0.000105
1943	1.9323e+02	-2.6261	-15.809424	0.000314	3.142056	1.064557	0.000126
1944	1.9333e+02	-2.5828	-15.660050	0.000375	3.750196	1.270601	0.000150
1945	1.9343e+02	-2.5507	-15.583344	0.000193	1.925776	0.652471	0.000077
1946	1.9353e+02	-2.4994	-15.429933	0.000385	3.851553	1.304941	0.000154
1947	1.9363e+02	-2.4737	-15.333042	0.000243	2.432560	0.824173	0.000097
1948	1.9373e+02	-2.4320	-15.207890	0.000314	3.142056	1.064557	0.000126
1949	1.9383e+02	-2.3759	-15.078702	0.000324	3.243413	1.098898	0.000130
1950	1.9393e+02	-2.3470	-14.969699	0.000274	2.736630	0.927195	0.000110
1951	1.9403e+02	-2.3069	-14.816288	0.000385	3.851553	1.304941	0.000154
1952	1.9412e+02	-2.2716	-14.735545	0.000203	2.027133	0.686811	0.000081
1953	1.9422e+02	-2.2347	-14.610394	0.000314	3.142056	1.064557	0.000126
1954	1.9432e+02	-2.1978	-14.489280	0.000304	3.040699	1.030217	0.000122
1955	1.9442e+02	-2.1513	-14.347980	0.000355	3.547483	1.201920	0.000142
1956	1.9452e+02	-2.1080	-14.158235	0.000476	4.763762	1.614006	0.000191
1957	1.9462e+02	-2.0711	-14.069418	0.000223	2.229846	0.755492	0.000089
1958	1.9472e+02	-2.0261	-13.980601	0.000223	2.229846	0.755492	0.000089
1959	1.9482e+02	-1.9876	-13.847376	0.000334	3.344769	1.133239	0.000134
1960	1.9492e+02	-1.9459	-13.734336	0.000284	2.837986	0.961536	0.000114
1961	1.9502e+02	-1.9171	-13.609185	0.000314	3.142056	1.064557	0.000126
1962	1.9512e+02	-1.8641	-13.528442	0.000203	2.027133	0.686811	0.000081
1963	1.9522e+02	-1.8272	-13.342734	0.000466	4.662406	1.579666	0.000187
1964	1.9532e+02	-1.7823	-13.245842	0.000243	2.432560	0.824173	0.000097
1965	1.9542e+02	-1.7454	-13.116654	0.000324	3.243413	1.098898	0.000130
1966	1.9552e+02	-1.7165	-12.991503	0.000314	3.142056	1.064557	0.000126
1967	1.9562e+02	-1.6716	-12.882500	0.000274	2.736630	0.927195	0.000110
1968	1.9572e+02	-1.6363	-12.749275	0.000334	3.344769	1.133239	0.000134
1969	1.9582e+02	-1.5882	-12.648346	0.000253	2.533916	0.858514	0.000101
1970	1.9592e+02	-1.5465	-12.490898	0.000395	3.952909	1.339282	0.000158
1971	1.9601e+02	-1.5192	-12.377858	0.000284	2.837986	0.961536	0.000114
1972	1.9611e+02	-1.4647	-12.256744	0.000304	3.040699	1.030217	0.000122
1973	1.9621e+02	-1.4326	-12.131593	0.000314	3.142056	1.064557	0.000126
1974	1.9631e+02	-1.3909	-11.990293	0.000355	3.547483	1.201920	0.000142
1975	1.9641e+02	-1.3556	-11.877253	0.000284	2.837986	0.961536	0.000114
1976	1.9651e+02	-1.3219	-11.776325	0.000253	2.533916	0.858514	0.000101
1977	1.9661e+02	-1.2818	-11.610802	0.000416	4.155623	1.407963	0.000166
1978	1.9671e+02	-1.2224	-11.534097	0.000193	1.925776	0.652471	0.000077
1979	1.9681e+02	-1.1935	-11.396834	0.000345	3.446126	1.167579	0.000138
1980	1.9691e+02	-1.1502	-11.231312	0.000416	4.155623	1.407963	0.000166
1981	1.9701e+02	-1.1294	-11.122309	0.000274	2.736630	0.927195	0.000110
1982	1.9711e+02	-1.0668	-11.017343	0.000264	2.635273	0.892855	0.000105
1983	1.9721e+02	-1.0411	-10.908341	0.000274	2.736630	0.927195	0.000110
1984	1.9731e+02	-0.9898	-10.722633	0.000466	4.662406	1.579666	0.000187
1985	1.9741e+02	-0.9577	-10.625741	0.000243	2.432560	0.824173	0.000097
1986	1.9751e+02	-0.9048	-10.504627	0.000304	3.040699	1.030217	0.000122
1987	1.9761e+02	-0.8711	-10.403699	0.000253	2.533916	0.858514	0.000101
1988	1.9771e+02	-0.8342	-10.242213	0.000405	4.054266	1.373622	0.000162
1989	1.9781e+02	-0.7893	-10.145322	0.000243	2.432560	0.824173	0.000097
1990	1.9791e+02	-0.7508	-9.995948	0.000375	3.750196	1.270601	0.000150
1991	1.9800e+02	-0.7155	-9.846574	0.000375	3.750196	1.270601	0.000150
1992	1.9810e+02	-0.6754	-9.693163	0.000385	3.851553	1.304941	0.000154
1993	1.9820e+02	-0.6353	-9.604346	0.000223	2.229846	0.755492	0.000089
1994	1.9830e+02	-0.6016	-9.507455	0.000243	2.432560	0.824173	0.000097
1995	1.9840e+02	-0.5567	-9.386341	0.000304	3.040699	1.030217	0.000122
1996	1.9850e+02	-0.5198	-9.281375	0.000264	2.635273	0.892855	0.000105
1997	1.9860e+02	-0.4732	-9.168335	0.000284	2.837986	0.961536	0.000114
1998	1.9870e+02	-0.4412	-9.022998	0.000365	3.648839	1.236260	0.000146
1999	1.9880e+02	-0.3978	-8.922070	0.000253	2.533916	0.858514	0.000101
2000	1.9890e+02	-0.3577	-8.752510	0.000426	4.256979	1.442304	0.000170
2001	1.9900e+02	-0.3208	-8.647545	0.000264	2.635273	0.892855	0.000105
2002	1.9910e+02	-0.2791	-8.506245	0.000355	3.547483	1.201920	0.000142
2003	1.9920e+02	-0.2422	-8.401279	0.000264	2.635273	0.892855	0.000105
2004	1.9930e+02	-0.2069	-8.264017	0.000345	3.446126	1.167579	0.000138
2005	1.9940e+02	-0.1492	-8.122717	0.000355	3.547483	1.201920	0.000142
2006	1.9950e+02	-0.1155	-8.009677	0.000284	2.837986	0.961536	0.000114
2007	1.9960e+02	-0.0786	-7.868378	0.000355	3.547483	1.201920	0.000142
2008	1.9970e+02	-0.0273	-7.719004	0.000375	3.750196	1.270601	0.000150
2009	1.9980e+02	0.0000	-7.605964	0.000375	3.750196	1.270601	0.000114

PMax (uC/cm2):	6.06e+01
Pr (uC/cm2):	3.51e+00
-Pr (uC/cm2):	-4.80e+00
PLoss (uC/cm2):	-4.79e+00
-Vc:	-1.15e+00
C (Max-Eff) (nF):	3.03e-01
K (Eff):	1.03e+03
Vert. (+/-Pr) Shift (uC/cm2):	-6.49e-01
Offset (uC/cm2):	2.80e+00

A (Loop Area - uC/cm2·Volts):	5.16e-02



Hysteresis Version: 5.48.1 - Radiant Technologies, Inc., 1999 - 9/12/24

