»»»»»»»»»»»»»»»»»»»»»»»»»»»»»»»»»»»» Hysteresis ««««««««««««««««««««««««««««««««««««
»»»  Executed Version:	5.48.1
»»»  Vision Version:	5.48.4 (R)
»»»  Vision Compiled:	9/18/24
»»»  Driver Version:	5.47.0
»»»  Windows Version:	Windows 8 or 8.1
»»»  Processor Information:	x86 (AMD or Intel) - 32 Processors
»»»  Tester Name:	PMF21124-494 (100V)
»»»  Tester S/N:	PMF21124-494
»»»  Internal Amp Type:	100V RevK 270k
»»»  Internal Amp S/N:	iAB2-596/K     
»»»  Execution Count:	1
»»»»»»»»»»»»»»»»»»»»»»»»»»»»»»»»»»»»»»»»»»««««««««««««««««««««««««««««««««««««««««««

Stored:	6/17/2025 - 16:14:46
Configured:	06/17/25 10:39:14 AM
Executed:	06/17/25 04:14:00 PM

»»»»»»»»»»»»»»»»»»»»»»»»»»»»»»»»»»» Sample Info ««««««««««««««««««««««««««««««««««««
Sample Name:	
Lot Name:	
Wafer Name:	
Die Row/Column:	0/0
Capacitor Number:	0
Sample Area (cm2):	1.00e-04
Sample Thickness (microns):	3.00e-01

Amplifier:	Internal

»»»»»»»»»»»»»»»»»»»»»»»»»»»»»»»»»»» Tester Info «««««««««««««««««««««««««««««««««««
Tester Name:	PMF21124-494 (100V)
Tester Serial Number:	PMF21124-494
Return Signal Amp. Level:	0.19 [Index: 3]

»»»»»»»»»»»»»»»»»»»»»»»»»»»»»»»» Hysteresis Info ««««««««««««««««««««««««««««««««««
Task Name:	Hyst-180
Volts:	20.00
Field:	666.67 (kV/cm)
DCBias:	0.00
DCField:	0.00 (kV/cm)
Hysteresis Period (ms):	2.00e+02
Preset:	Enabled
Preset Delay (ms):	1.00e+03
Profile:	Standard Bipolar

»»»»»»»»»»»»»»»»»»»»»»»»»»»»»»»»»»»»»» Data «««««««««««««««««««««««««««««««««««««««
Points:	2009

Valid Data

Point	Time (ms)	Drive Voltage	Measured Polarization (uC/cm2)	Capacitance (uF)	Normalized Capacitance (uF/cm2)	Dielectric Constant	Instantaneous Current (mA)
   1	0.0000e+00	0.0032	-2.389984	0.000010	0.101346	0.034337	0.000004
   2	9.9500e-02	0.0369	-2.385947	0.000010	0.101346	0.034337	0.000004
   3	1.9900e-01	0.0722	-2.216388	0.000426	4.256552	1.442159	0.000170
   4	2.9850e-01	0.1091	-2.131608	0.000213	2.128276	0.721079	0.000085
   5	3.9800e-01	0.1460	-2.018568	0.000284	2.837702	0.961439	0.000114
   6	4.9750e-01	0.1973	-1.897454	0.000304	3.040395	1.030114	0.000122
   7	5.9700e-01	0.2358	-1.800563	0.000243	2.432316	0.824091	0.000097
   8	6.9650e-01	0.2695	-1.699634	0.000253	2.533662	0.858428	0.000101
   9	7.9600e-01	0.3112	-1.590631	0.000274	2.736355	0.927102	0.000110
  10	8.9550e-01	0.3513	-1.453369	0.000345	3.445780	1.167462	0.000138
  11	9.9500e-01	0.3978	-1.352440	0.000253	2.533662	0.858428	0.000101
  12	1.0945e+00	0.4444	-1.235364	0.000294	2.939048	0.995776	0.000118
  13	1.1940e+00	0.4781	-1.085990	0.000375	3.749820	1.270473	0.000150
  14	1.2935e+00	0.5166	-0.940653	0.000365	3.648473	1.236136	0.000146
  15	1.3930e+00	0.5599	-0.847799	0.000233	2.330969	0.789754	0.000093
  16	1.4925e+00	0.5968	-0.698424	0.000375	3.749820	1.270473	0.000150
  17	1.5920e+00	0.6337	-0.613645	0.000213	2.128276	0.721079	0.000085
  18	1.6915e+00	0.6738	-0.472345	0.000355	3.547127	1.201799	0.000142
  19	1.7910e+00	0.7123	-0.427936	0.000111	1.114811	0.377708	0.000045
  20	1.8905e+00	0.7604	-0.314897	0.000284	2.837702	0.961439	0.000114
  21	1.9900e+00	0.7989	-0.185708	0.000324	3.243087	1.098788	0.000130
  22	2.0895e+00	0.8358	-0.088817	0.000243	2.432316	0.824091	0.000097
  23	2.1890e+00	0.8711	0.008074	0.000243	2.432316	0.824091	0.000097
  24	2.2885e+00	0.9160	0.133225	0.000314	3.141741	1.064451	0.000126
  25	2.3880e+00	0.9529	0.258377	0.000314	3.141741	1.064451	0.000126
  26	2.4875e+00	0.9898	0.335082	0.000193	1.925583	0.652405	0.000077
  27	2.5870e+00	1.0299	0.488493	0.000385	3.851166	1.304810	0.000154
  28	2.6865e+00	1.0716	0.589422	0.000253	2.533662	0.858428	0.000101
  29	2.7860e+00	1.1101	0.694387	0.000264	2.635009	0.892765	0.000105
  30	2.8855e+00	1.1518	0.855873	0.000405	4.053859	1.373485	0.000162
  31	2.9850e+00	1.1968	1.001210	0.000365	3.648473	1.236136	0.000146
  32	3.0845e+00	1.2208	1.126361	0.000314	3.141741	1.064451	0.000126
  33	3.1840e+00	1.2786	1.223252	0.000243	2.432316	0.824091	0.000097
  34	3.2835e+00	1.3171	1.376663	0.000385	3.851166	1.304810	0.000154
  35	3.3830e+00	1.3492	1.449332	0.000182	1.824237	0.618068	0.000073
  36	3.4825e+00	1.4005	1.574483	0.000314	3.141741	1.064451	0.000126
  37	3.5820e+00	1.4374	1.622929	0.000122	1.216158	0.412045	0.000049
  38	3.6815e+00	1.4647	1.772303	0.000375	3.749820	1.270473	0.000150
  39	3.7810e+00	1.5064	1.889380	0.000294	2.939048	0.995776	0.000118
  40	3.8805e+00	1.5449	1.982234	0.000233	2.330969	0.789754	0.000093
  41	3.9800e+00	1.5898	2.107385	0.000314	3.141741	1.064451	0.000126
  42	4.0795e+00	1.6347	2.200239	0.000233	2.330969	0.789754	0.000093
  43	4.1790e+00	1.6796	2.333464	0.000334	3.344434	1.133125	0.000134
  44	4.2785e+00	1.7101	2.450541	0.000294	2.939048	0.995776	0.000118
  45	4.3780e+00	1.7486	2.575693	0.000314	3.141741	1.064451	0.000126
  46	4.4775e+00	1.7791	2.696807	0.000304	3.040395	1.030114	0.000122
  47	4.5770e+00	1.8304	2.797735	0.000253	2.533662	0.858428	0.000101
  48	4.6765e+00	1.8705	2.955183	0.000395	3.952513	1.339148	0.000158
  49	4.7760e+00	1.9138	3.068223	0.000284	2.837702	0.961439	0.000114
  50	4.8755e+00	1.9475	3.181263	0.000284	2.837702	0.961439	0.000114
  51	4.9750e+00	1.9909	3.326600	0.000365	3.648473	1.236136	0.000146
  52	5.0745e+00	2.0261	3.419454	0.000233	2.330969	0.789754	0.000093
  53	5.1740e+00	2.0679	3.536531	0.000294	2.939048	0.995776	0.000118
  54	5.2735e+00	2.1080	3.641496	0.000264	2.635009	0.892765	0.000105
  55	5.3730e+00	2.1513	3.726276	0.000213	2.128276	0.721079	0.000085
  56	5.4725e+00	2.1930	3.875650	0.000375	3.749820	1.270473	0.000150
  57	5.5720e+00	2.2251	3.960430	0.000213	2.128276	0.721079	0.000085
  58	5.6715e+00	2.2748	4.081544	0.000304	3.040395	1.030114	0.000122
  59	5.7710e+00	2.2973	4.230918	0.000375	3.749820	1.270473	0.000150
  60	5.8705e+00	2.3518	4.356069	0.000314	3.141741	1.064451	0.000126
  61	5.9700e+00	2.3839	4.448924	0.000233	2.330969	0.789754	0.000093
  62	6.0695e+00	2.4272	4.566001	0.000294	2.939048	0.995776	0.000118
  63	6.1690e+00	2.4577	4.666929	0.000253	2.533662	0.858428	0.000101
  64	6.2685e+00	2.5026	4.804192	0.000345	3.445780	1.167462	0.000138
  65	6.3680e+00	2.5411	4.933380	0.000324	3.243087	1.098788	0.000130
  66	6.4675e+00	2.5828	5.090828	0.000395	3.952513	1.339148	0.000158
  67	6.5670e+00	2.6213	5.183682	0.000233	2.330969	0.789754	0.000093
  68	6.6665e+00	2.6759	5.312871	0.000324	3.243087	1.098788	0.000130
  69	6.7660e+00	2.7031	5.417836	0.000264	2.635009	0.892765	0.000105
  70	6.8655e+00	2.7481	5.522802	0.000264	2.635009	0.892765	0.000105
  71	6.9650e+00	2.7978	5.643916	0.000304	3.040395	1.030114	0.000122
  72	7.0645e+00	2.8299	5.736770	0.000233	2.330969	0.789754	0.000093
  73	7.1640e+00	2.8700	5.878070	0.000355	3.547127	1.201799	0.000142
  74	7.2635e+00	2.9117	6.007258	0.000324	3.243087	1.098788	0.000130
  75	7.3630e+00	2.9518	6.096075	0.000223	2.229623	0.755417	0.000089
  76	7.4625e+00	2.9871	6.221226	0.000314	3.141741	1.064451	0.000126
  77	7.5620e+00	3.0272	6.370600	0.000375	3.749820	1.270473	0.000150
  78	7.6615e+00	3.0641	6.467491	0.000243	2.432316	0.824091	0.000097
  79	7.7610e+00	3.0994	6.592643	0.000314	3.141741	1.064451	0.000126
  80	7.8605e+00	3.1395	6.669348	0.000193	1.925583	0.652405	0.000077
  81	7.9600e+00	3.1796	6.830834	0.000405	4.053859	1.373485	0.000162
  82	8.0595e+00	3.2277	6.947911	0.000294	2.939048	0.995776	0.000118
  83	8.1590e+00	3.2598	7.089210	0.000355	3.547127	1.201799	0.000142
  84	8.2585e+00	3.2983	7.246659	0.000395	3.952513	1.339148	0.000158
  85	8.3580e+00	3.3336	7.331439	0.000213	2.128276	0.721079	0.000085
  86	8.4575e+00	3.3946	7.472738	0.000355	3.547127	1.201799	0.000142
  87	8.5570e+00	3.4266	7.573667	0.000253	2.533662	0.858428	0.000101
  88	8.6565e+00	3.4667	7.658446	0.000213	2.128276	0.721079	0.000085
  89	8.7560e+00	3.4924	7.771486	0.000284	2.837702	0.961439	0.000114
  90	8.8555e+00	3.5486	7.896638	0.000314	3.141741	1.064451	0.000126
  91	8.9550e+00	3.5855	8.013714	0.000294	2.939048	0.995776	0.000118
  92	9.0545e+00	3.6240	8.138866	0.000314	3.141741	1.064451	0.000126
  93	9.1540e+00	3.6577	8.235757	0.000243	2.432316	0.824091	0.000097
  94	9.2535e+00	3.7010	8.340722	0.000264	2.635009	0.892765	0.000105
  95	9.3530e+00	3.7282	8.482022	0.000355	3.547127	1.201799	0.000142
  96	9.4525e+00	3.7860	8.623322	0.000355	3.547127	1.201799	0.000142
  97	9.5520e+00	3.8229	8.728287	0.000264	2.635009	0.892765	0.000105
  98	9.6515e+00	3.8598	8.829216	0.000253	2.533662	0.858428	0.000101
  99	9.7510e+00	3.9079	8.974553	0.000365	3.648473	1.236136	0.000146
 100	9.8505e+00	3.9336	9.107778	0.000334	3.344434	1.133125	0.000134
 101	9.9500e+00	3.9769	9.265227	0.000395	3.952513	1.339148	0.000158
 102	1.0050e+01	4.0250	9.414601	0.000375	3.749820	1.270473	0.000150
 103	1.0149e+01	4.0571	9.499380	0.000213	2.128276	0.721079	0.000085
 104	1.0248e+01	4.1052	9.628569	0.000324	3.243087	1.098788	0.000130
 105	1.0348e+01	4.1389	9.693163	0.000162	1.621544	0.549394	0.000065
 106	1.0447e+01	4.1838	9.822351	0.000324	3.243087	1.098788	0.000130
 107	1.0547e+01	4.2191	9.935391	0.000284	2.837702	0.961439	0.000114
 108	1.0646e+01	4.2592	10.024208	0.000223	2.229623	0.755417	0.000089
 109	1.0746e+01	4.2977	10.209916	0.000466	4.661938	1.579507	0.000187
 110	1.0845e+01	4.3394	10.294696	0.000213	2.128276	0.721079	0.000085
 111	1.0945e+01	4.3796	10.403699	0.000274	2.736355	0.927102	0.000110
 112	1.1044e+01	4.4213	10.565184	0.000405	4.053859	1.373485	0.000162
 113	1.1144e+01	4.4582	10.637853	0.000182	1.824237	0.618068	0.000073
 114	1.1243e+01	4.5015	10.754930	0.000294	2.939048	0.995776	0.000118
 115	1.1343e+01	4.5400	10.892192	0.000345	3.445780	1.167462	0.000138
 116	1.1443e+01	4.5769	11.029455	0.000345	3.445780	1.167462	0.000138
 117	1.1542e+01	4.6234	11.122309	0.000233	2.330969	0.789754	0.000093
 118	1.1642e+01	4.6603	11.299943	0.000446	4.459245	1.510833	0.000179
 119	1.1741e+01	4.6924	11.425094	0.000314	3.141741	1.064451	0.000126
 120	1.1841e+01	4.7421	11.513911	0.000223	2.229623	0.755417	0.000089
 121	1.1940e+01	4.7790	11.635025	0.000304	3.040395	1.030114	0.000122
 122	1.2040e+01	4.8223	11.723842	0.000223	2.229623	0.755417	0.000089
 123	1.2139e+01	4.8608	11.869179	0.000365	3.648473	1.236136	0.000146
 124	1.2239e+01	4.9041	11.990293	0.000304	3.040395	1.030114	0.000122
 125	1.2338e+01	4.9314	12.095259	0.000264	2.635009	0.892765	0.000105
 126	1.2438e+01	4.9763	12.220410	0.000314	3.141741	1.064451	0.000126
 127	1.2537e+01	5.0164	12.321338	0.000253	2.533662	0.858428	0.000101
 128	1.2636e+01	5.0565	12.438415	0.000294	2.939048	0.995776	0.000118
 129	1.2736e+01	5.0870	12.567604	0.000324	3.243087	1.098788	0.000130
 130	1.2835e+01	5.1287	12.684680	0.000294	2.939048	0.995776	0.000118
 131	1.2935e+01	5.1753	12.821943	0.000345	3.445780	1.167462	0.000138
 132	1.3034e+01	5.2122	12.930946	0.000274	2.736355	0.927102	0.000110
 133	1.3134e+01	5.2619	13.060134	0.000324	3.243087	1.098788	0.000130
 134	1.3233e+01	5.2988	13.185285	0.000314	3.141741	1.064451	0.000126
 135	1.3333e+01	5.3341	13.350808	0.000416	4.155206	1.407822	0.000166
 136	1.3432e+01	5.3822	13.467885	0.000294	2.939048	0.995776	0.000118
 137	1.3532e+01	5.4127	13.588999	0.000304	3.040395	1.030114	0.000122
 138	1.3632e+01	5.4560	13.689927	0.000253	2.533662	0.858428	0.000101
 139	1.3731e+01	5.4913	13.794893	0.000264	2.635009	0.892765	0.000105
 140	1.3831e+01	5.5378	13.948304	0.000385	3.851166	1.304810	0.000154
 141	1.3930e+01	5.5699	14.025010	0.000193	1.925583	0.652405	0.000077
 142	1.4030e+01	5.6164	14.138049	0.000284	2.837702	0.961439	0.000114
 143	1.4129e+01	5.6485	14.271275	0.000334	3.344434	1.133125	0.000134
 144	1.4229e+01	5.6854	14.384315	0.000284	2.837702	0.961439	0.000114
 145	1.4328e+01	5.7367	14.537726	0.000385	3.851166	1.304810	0.000154
 146	1.4428e+01	5.7720	14.630580	0.000233	2.330969	0.789754	0.000093
 147	1.4527e+01	5.8169	14.743620	0.000284	2.837702	0.961439	0.000114
 148	1.4627e+01	5.8458	14.848585	0.000264	2.635009	0.892765	0.000105
 149	1.4726e+01	5.8891	15.022182	0.000436	4.357899	1.476496	0.000174
 150	1.4825e+01	5.9357	15.127148	0.000264	2.635009	0.892765	0.000105
 151	1.4925e+01	5.9774	15.244225	0.000294	2.939048	0.995776	0.000118
 152	1.5024e+01	6.0207	15.393599	0.000375	3.749820	1.270473	0.000150
 153	1.5124e+01	6.0528	15.510676	0.000294	2.939048	0.995776	0.000118
 154	1.5223e+01	6.0977	15.668124	0.000395	3.952513	1.339148	0.000158
 155	1.5323e+01	6.1426	15.777126	0.000274	2.736355	0.927102	0.000110
 156	1.5422e+01	6.1715	15.874018	0.000243	2.432316	0.824091	0.000097
 157	1.5522e+01	6.2244	15.966872	0.000233	2.330969	0.789754	0.000093
 158	1.5621e+01	6.2485	16.092023	0.000314	3.141741	1.064451	0.000126
 159	1.5721e+01	6.3014	16.168729	0.000193	1.925583	0.652405	0.000077
 160	1.5820e+01	6.3335	16.354437	0.000466	4.661938	1.579507	0.000187
 161	1.5920e+01	6.3704	16.475551	0.000304	3.040395	1.030114	0.000122
 162	1.6020e+01	6.4153	16.564368	0.000223	2.229623	0.755417	0.000089
 163	1.6119e+01	6.4570	16.677408	0.000284	2.837702	0.961439	0.000114
 164	1.6218e+01	6.4843	16.790448	0.000284	2.837702	0.961439	0.000114
 165	1.6318e+01	6.5196	16.907524	0.000294	2.939048	0.995776	0.000118
 166	1.6418e+01	6.5709	17.040750	0.000334	3.344434	1.133125	0.000134
 167	1.6517e+01	6.6110	17.133604	0.000233	2.330969	0.789754	0.000093
 168	1.6616e+01	6.6528	17.299127	0.000416	4.155206	1.407822	0.000166
 169	1.6716e+01	6.6864	17.448501	0.000375	3.749820	1.270473	0.000150
 170	1.6816e+01	6.7362	17.573652	0.000314	3.141741	1.064451	0.000126
 171	1.6915e+01	6.7602	17.710914	0.000345	3.445780	1.167462	0.000138
 172	1.7015e+01	6.8132	17.832029	0.000304	3.040395	1.030114	0.000122
 173	1.7114e+01	6.8453	17.932957	0.000253	2.533662	0.858428	0.000101
 174	1.7213e+01	6.8982	18.041960	0.000274	2.736355	0.927102	0.000110
 175	1.7313e+01	6.9335	18.146925	0.000264	2.635009	0.892765	0.000105
 176	1.7413e+01	6.9720	18.239779	0.000233	2.330969	0.789754	0.000093
 177	1.7512e+01	7.0153	18.385116	0.000365	3.648473	1.236136	0.000146
 178	1.7611e+01	7.0426	18.494119	0.000274	2.736355	0.927102	0.000110
 179	1.7711e+01	7.0827	18.615233	0.000304	3.040395	1.030114	0.000122
 180	1.7811e+01	7.1340	18.732310	0.000294	2.939048	0.995776	0.000118
 181	1.7910e+01	7.1661	18.841312	0.000274	2.736355	0.927102	0.000110
 182	1.8009e+01	7.2046	18.942241	0.000253	2.533662	0.858428	0.000101
 183	1.8109e+01	7.2527	19.099689	0.000395	3.952513	1.339148	0.000158
 184	1.8209e+01	7.2880	19.204655	0.000264	2.635009	0.892765	0.000105
 185	1.8308e+01	7.3169	19.313657	0.000274	2.736355	0.927102	0.000110
 186	1.8407e+01	7.3698	19.442846	0.000324	3.243087	1.098788	0.000130
 187	1.8507e+01	7.4164	19.604331	0.000405	4.053859	1.373485	0.000162
 188	1.8607e+01	7.4468	19.697185	0.000233	2.330969	0.789754	0.000093
 189	1.8706e+01	7.4805	19.862708	0.000416	4.155206	1.407822	0.000166
 190	1.8805e+01	7.5271	19.983822	0.000304	3.040395	1.030114	0.000122
 191	1.8905e+01	7.5656	20.060527	0.000193	1.925583	0.652405	0.000077
 192	1.9005e+01	7.5976	20.189716	0.000324	3.243087	1.098788	0.000130
 193	1.9104e+01	7.6426	20.266421	0.000193	1.925583	0.652405	0.000077
 194	1.9203e+01	7.6827	20.399647	0.000334	3.344434	1.133125	0.000134
 195	1.9303e+01	7.7148	20.520761	0.000304	3.040395	1.030114	0.000122
 196	1.9402e+01	7.7645	20.633801	0.000284	2.837702	0.961439	0.000114
 197	1.9502e+01	7.8078	20.791249	0.000395	3.952513	1.339148	0.000158
 198	1.9602e+01	7.8367	20.888140	0.000243	2.432316	0.824091	0.000097
 199	1.9701e+01	7.8832	20.993106	0.000264	2.635009	0.892765	0.000105
 200	1.9800e+01	7.9281	21.130368	0.000345	3.445780	1.167462	0.000138
 201	1.9900e+01	7.9586	21.231297	0.000253	2.533662	0.858428	0.000101
 202	2.0000e+01	8.0003	21.368559	0.000345	3.445780	1.167462	0.000138
 203	2.0099e+01	8.0468	21.481599	0.000284	2.837702	0.961439	0.000114
 204	2.0198e+01	8.0837	21.622899	0.000355	3.547127	1.201799	0.000142
 205	2.0298e+01	8.1158	21.735939	0.000284	2.837702	0.961439	0.000114
 206	2.0398e+01	8.1655	21.889350	0.000385	3.851166	1.304810	0.000154
 207	2.0497e+01	8.2073	22.010464	0.000304	3.040395	1.030114	0.000122
 208	2.0596e+01	8.2458	22.115430	0.000264	2.635009	0.892765	0.000105
 209	2.0696e+01	8.2730	22.240581	0.000314	3.141741	1.064451	0.000126
 210	2.0796e+01	8.3276	22.333435	0.000233	2.330969	0.789754	0.000093
 211	2.0895e+01	8.3597	22.418215	0.000213	2.128276	0.721079	0.000085
 212	2.0994e+01	8.4094	22.632183	0.000537	5.371364	1.819867	0.000215
 213	2.1094e+01	8.4367	22.716963	0.000213	2.128276	0.721079	0.000085
 214	2.1194e+01	8.4864	22.789631	0.000182	1.824237	0.618068	0.000073
 215	2.1293e+01	8.5265	22.955154	0.000416	4.155206	1.407822	0.000166
 216	2.1392e+01	8.5634	23.031859	0.000193	1.925583	0.652405	0.000077
 217	2.1492e+01	8.6067	23.181233	0.000375	3.749820	1.270473	0.000150
 218	2.1591e+01	8.6436	23.322533	0.000355	3.547127	1.201799	0.000142
 219	2.1691e+01	8.6773	23.391164	0.000172	1.722890	0.583731	0.000069
 220	2.1791e+01	8.7174	23.488056	0.000243	2.432316	0.824091	0.000097
 221	2.1890e+01	8.7543	23.613207	0.000314	3.141741	1.064451	0.000126
 222	2.1989e+01	8.8056	23.770655	0.000395	3.952513	1.339148	0.000158
 223	2.2089e+01	8.8393	23.851398	0.000203	2.026930	0.686742	0.000081
 224	2.2189e+01	8.8907	24.037106	0.000466	4.661938	1.579507	0.000187
 225	2.2288e+01	8.9260	24.154183	0.000294	2.939048	0.995776	0.000118
 226	2.2387e+01	8.9677	24.255112	0.000253	2.533662	0.858428	0.000101
 227	2.2487e+01	8.9965	24.335854	0.000203	2.026930	0.686742	0.000081
 228	2.2587e+01	9.0463	24.461005	0.000314	3.141741	1.064451	0.000126
 229	2.2686e+01	9.0735	24.602305	0.000355	3.547127	1.201799	0.000142
 230	2.2785e+01	9.1217	24.683048	0.000203	2.026930	0.686742	0.000081
 231	2.2885e+01	9.1650	24.832422	0.000375	3.749820	1.270473	0.000150
 232	2.2985e+01	9.1939	24.929313	0.000243	2.432316	0.824091	0.000097
 233	2.3084e+01	9.2436	25.070613	0.000355	3.547127	1.201799	0.000142
 234	2.3183e+01	9.2853	25.171541	0.000253	2.533662	0.858428	0.000101
 235	2.3283e+01	9.3174	25.320915	0.000375	3.749820	1.270473	0.000150
 236	2.3383e+01	9.3623	25.417807	0.000243	2.432316	0.824091	0.000097
 237	2.3482e+01	9.3960	25.551032	0.000334	3.344434	1.133125	0.000134
 238	2.3581e+01	9.4297	25.615626	0.000162	1.621544	0.549394	0.000065
 239	2.3681e+01	9.4826	25.756926	0.000355	3.547127	1.201799	0.000142
 240	2.3780e+01	9.5211	25.882077	0.000314	3.141741	1.064451	0.000126
 241	2.3880e+01	9.5628	26.043563	0.000405	4.053859	1.373485	0.000162
 242	2.3980e+01	9.5885	26.184862	0.000355	3.547127	1.201799	0.000142
 243	2.4079e+01	9.6318	26.301939	0.000294	2.939048	0.995776	0.000118
 244	2.4178e+01	9.6767	26.322125	0.000051	0.506732	0.171686	0.000020
 245	2.4278e+01	9.7104	26.431128	0.000274	2.736355	0.927102	0.000110
 246	2.4378e+01	9.7553	26.580502	0.000375	3.749820	1.270473	0.000150
 247	2.4477e+01	9.8035	26.701616	0.000304	3.040395	1.030114	0.000122
 248	2.4576e+01	9.8388	26.818693	0.000294	2.939048	0.995776	0.000118
 249	2.4676e+01	9.8741	26.943844	0.000314	3.141741	1.064451	0.000126
 250	2.4776e+01	9.9126	27.060921	0.000294	2.939048	0.995776	0.000118
 251	2.4875e+01	9.9623	27.169924	0.000274	2.736355	0.927102	0.000110
 252	2.4974e+01	9.9976	27.299112	0.000324	3.243087	1.098788	0.000130
 253	2.5074e+01	10.0361	27.420226	0.000304	3.040395	1.030114	0.000122
 254	2.5174e+01	10.0666	27.505006	0.000213	2.128276	0.721079	0.000085
 255	2.5273e+01	10.1211	27.642268	0.000345	3.445780	1.167462	0.000138
 256	2.5372e+01	10.1580	27.751271	0.000274	2.736355	0.927102	0.000110
 257	2.5472e+01	10.1981	27.884497	0.000334	3.344434	1.133125	0.000134
 258	2.5572e+01	10.2366	27.985425	0.000253	2.533662	0.858428	0.000101
 259	2.5671e+01	10.2703	28.150948	0.000416	4.155206	1.407822	0.000166
 260	2.5770e+01	10.3200	28.280136	0.000324	3.243087	1.098788	0.000130
 261	2.5870e+01	10.3473	28.348767	0.000172	1.722890	0.583731	0.000069
 262	2.5970e+01	10.3938	28.457770	0.000274	2.736355	0.927102	0.000110
 263	2.6069e+01	10.4387	28.566772	0.000274	2.736355	0.927102	0.000110
 264	2.6169e+01	10.4788	28.671738	0.000264	2.635009	0.892765	0.000105
 265	2.6268e+01	10.5174	28.796889	0.000314	3.141741	1.064451	0.000126
 266	2.6367e+01	10.5559	28.942226	0.000365	3.648473	1.236136	0.000146
 267	2.6467e+01	10.5976	29.051229	0.000274	2.736355	0.927102	0.000110
 268	2.6567e+01	10.6409	29.172343	0.000304	3.040395	1.030114	0.000122
 269	2.6666e+01	10.6746	29.273271	0.000253	2.533662	0.858428	0.000101
 270	2.6765e+01	10.7099	29.386311	0.000284	2.837702	0.961439	0.000114
 271	2.6865e+01	10.7419	29.567982	0.000456	4.560592	1.545170	0.000183
 272	2.6965e+01	10.7933	29.632576	0.000162	1.621544	0.549394	0.000065
 273	2.7064e+01	10.8334	29.761765	0.000324	3.243087	1.098788	0.000130
 274	2.7163e+01	10.8751	29.882879	0.000304	3.040395	1.030114	0.000122
 275	2.7263e+01	10.9104	30.003993	0.000304	3.040395	1.030114	0.000122
 276	2.7363e+01	10.9537	30.129144	0.000314	3.141741	1.064451	0.000126
 277	2.7462e+01	10.9842	30.266407	0.000345	3.445780	1.167462	0.000138
 278	2.7561e+01	11.0339	30.367335	0.000253	2.533662	0.858428	0.000101
 279	2.7661e+01	11.0708	30.468263	0.000253	2.533662	0.858428	0.000101
 280	2.7761e+01	11.1157	30.565155	0.000243	2.432316	0.824091	0.000097
 281	2.7860e+01	11.1510	30.629749	0.000162	1.621544	0.549394	0.000065
 282	2.7959e+01	11.1943	30.771049	0.000355	3.547127	1.201799	0.000142
 283	2.8059e+01	11.2296	30.892163	0.000304	3.040395	1.030114	0.000122
 284	2.8159e+01	11.2745	31.057685	0.000416	4.155206	1.407822	0.000166
 285	2.8258e+01	11.3082	31.138428	0.000203	2.026930	0.686742	0.000081
 286	2.8358e+01	11.3596	31.223208	0.000213	2.128276	0.721079	0.000085
 287	2.8457e+01	11.3852	31.364508	0.000355	3.547127	1.201799	0.000142
 288	2.8556e+01	11.4334	31.497733	0.000334	3.344434	1.133125	0.000134
 289	2.8656e+01	11.4799	31.639033	0.000355	3.547127	1.201799	0.000142
 290	2.8756e+01	11.5072	31.739961	0.000253	2.533662	0.858428	0.000101
 291	2.8855e+01	11.5633	31.832815	0.000233	2.330969	0.789754	0.000093
 292	2.8954e+01	11.5842	31.957967	0.000314	3.141741	1.064451	0.000126
 293	2.9054e+01	11.6307	32.107341	0.000375	3.749820	1.270473	0.000150
 294	2.9154e+01	11.6708	32.220380	0.000284	2.837702	0.961439	0.000114
 295	2.9253e+01	11.7125	32.361680	0.000355	3.547127	1.201799	0.000142
 296	2.9352e+01	11.7494	32.454534	0.000233	2.330969	0.789754	0.000093
 297	2.9452e+01	11.7847	32.547388	0.000233	2.330969	0.789754	0.000093
 298	2.9552e+01	11.8328	32.632168	0.000213	2.128276	0.721079	0.000085
 299	2.9651e+01	11.8649	32.741171	0.000274	2.736355	0.927102	0.000110
 300	2.9750e+01	11.9098	32.870359	0.000324	3.243087	1.098788	0.000130
 301	2.9850e+01	11.9483	32.963213	0.000233	2.330969	0.789754	0.000093
 302	2.9950e+01	11.9900	33.116624	0.000385	3.851166	1.304810	0.000154
 303	3.0049e+01	12.0350	33.225627	0.000274	2.736355	0.927102	0.000110
 304	3.0148e+01	12.0719	33.362890	0.000345	3.445780	1.167462	0.000138
 305	3.0248e+01	12.1039	33.467855	0.000264	2.635009	0.892765	0.000105
 306	3.0348e+01	12.1521	33.552635	0.000213	2.128276	0.721079	0.000085
 307	3.0447e+01	12.1825	33.722195	0.000426	4.256552	1.442159	0.000170
 308	3.0547e+01	12.2291	33.798900	0.000193	1.925583	0.652405	0.000077
 309	3.0646e+01	12.2692	33.920014	0.000304	3.040395	1.030114	0.000122
 310	3.0745e+01	12.3093	34.024980	0.000264	2.635009	0.892765	0.000105
 311	3.0845e+01	12.3510	34.182428	0.000395	3.952513	1.339148	0.000158
 312	3.0945e+01	12.3815	34.291431	0.000274	2.736355	0.927102	0.000110
 313	3.1044e+01	12.4344	34.444842	0.000385	3.851166	1.304810	0.000154
 314	3.1143e+01	12.4633	34.505399	0.000152	1.520197	0.515057	0.000061
 315	3.1243e+01	12.5098	34.626513	0.000304	3.040395	1.030114	0.000122
 316	3.1343e+01	12.5435	34.743590	0.000294	2.939048	0.995776	0.000118
 317	3.1442e+01	12.5948	34.868741	0.000314	3.141741	1.064451	0.000126
 318	3.1541e+01	12.6365	34.945447	0.000193	1.925583	0.652405	0.000077
 319	3.1641e+01	12.6622	35.074635	0.000324	3.243087	1.098788	0.000130
 320	3.1741e+01	12.7087	35.175564	0.000253	2.533662	0.858428	0.000101
 321	3.1840e+01	12.7408	35.304752	0.000324	3.243087	1.098788	0.000130
 322	3.1939e+01	12.7841	35.429903	0.000314	3.141741	1.064451	0.000126
 323	3.2039e+01	12.8307	35.563129	0.000334	3.344434	1.133125	0.000134
 324	3.2139e+01	12.8692	35.643871	0.000203	2.026930	0.686742	0.000081
 325	3.2238e+01	12.9125	35.744800	0.000253	2.533662	0.858428	0.000101
 326	3.2337e+01	12.9526	35.886100	0.000355	3.547127	1.201799	0.000142
 327	3.2437e+01	12.9766	36.007214	0.000304	3.040395	1.030114	0.000122
 328	3.2536e+01	13.0151	36.091993	0.000213	2.128276	0.721079	0.000085
 329	3.2636e+01	13.0713	36.213108	0.000304	3.040395	1.030114	0.000122
 330	3.2736e+01	13.1034	36.322110	0.000274	2.736355	0.927102	0.000110
 331	3.2835e+01	13.1355	36.447261	0.000314	3.141741	1.064451	0.000126
 332	3.2934e+01	13.1868	36.548190	0.000253	2.533662	0.858428	0.000101
 333	3.3034e+01	13.2141	36.697564	0.000375	3.749820	1.270473	0.000150
 334	3.3133e+01	13.2590	36.814641	0.000294	2.939048	0.995776	0.000118
 335	3.3233e+01	13.2911	36.891346	0.000193	1.925583	0.652405	0.000077
 336	3.3333e+01	13.3424	36.968052	0.000193	1.925583	0.652405	0.000077
 337	3.3432e+01	13.3873	37.141649	0.000436	4.357899	1.476496	0.000174
 338	3.3532e+01	13.4242	37.246614	0.000264	2.635009	0.892765	0.000105
 339	3.3631e+01	13.4723	37.359654	0.000284	2.837702	0.961439	0.000114
 340	3.3730e+01	13.5012	37.460583	0.000253	2.533662	0.858428	0.000101
 341	3.3830e+01	13.5429	37.541325	0.000203	2.026930	0.686742	0.000081
 342	3.3929e+01	13.5814	37.727033	0.000466	4.661938	1.579507	0.000187
 343	3.4029e+01	13.6199	37.811813	0.000213	2.128276	0.721079	0.000085
 344	3.4129e+01	13.6584	37.920816	0.000274	2.736355	0.927102	0.000110
 345	3.4228e+01	13.7066	37.997522	0.000193	1.925583	0.652405	0.000077
 346	3.4328e+01	13.7403	38.159007	0.000405	4.053859	1.373485	0.000162
 347	3.4427e+01	13.7820	38.211490	0.000132	1.317504	0.446383	0.000053
 348	3.4526e+01	13.8221	38.340678	0.000324	3.243087	1.098788	0.000130
 349	3.4626e+01	13.8654	38.486015	0.000365	3.648473	1.236136	0.000146
 350	3.4725e+01	13.8975	38.599055	0.000284	2.837702	0.961439	0.000114
 351	3.4825e+01	13.9392	38.736317	0.000345	3.445780	1.167462	0.000138
 352	3.4925e+01	13.9793	38.829172	0.000233	2.330969	0.789754	0.000093
 353	3.5024e+01	14.0146	38.938174	0.000274	2.736355	0.927102	0.000110
 354	3.5123e+01	14.0467	39.051214	0.000284	2.837702	0.961439	0.000114
 355	3.5223e+01	14.1108	39.196551	0.000365	3.648473	1.236136	0.000146
 356	3.5322e+01	14.1365	39.293442	0.000243	2.432316	0.824091	0.000097
 357	3.5422e+01	14.1734	39.402445	0.000274	2.736355	0.927102	0.000110
 358	3.5522e+01	14.2119	39.503373	0.000253	2.533662	0.858428	0.000101
 359	3.5621e+01	14.2520	39.592190	0.000223	2.229623	0.755417	0.000089
 360	3.5721e+01	14.2921	39.753676	0.000405	4.053859	1.373485	0.000162
 361	3.5820e+01	14.3290	39.834418	0.000203	2.026930	0.686742	0.000081
 362	3.5919e+01	14.3803	39.951495	0.000294	2.939048	0.995776	0.000118
 363	3.6019e+01	14.4140	40.084721	0.000334	3.344434	1.133125	0.000134
 364	3.6118e+01	14.4541	40.165463	0.000203	2.026930	0.686742	0.000081
 365	3.6218e+01	14.5039	40.250243	0.000213	2.128276	0.721079	0.000085
 366	3.6318e+01	14.5424	40.391543	0.000355	3.547127	1.201799	0.000142
 367	3.6417e+01	14.5745	40.496509	0.000264	2.635009	0.892765	0.000105
 368	3.6517e+01	14.6178	40.666068	0.000426	4.256552	1.442159	0.000170
 369	3.6616e+01	14.6595	40.746811	0.000203	2.026930	0.686742	0.000081
 370	3.6715e+01	14.6948	40.851777	0.000264	2.635009	0.892765	0.000105
 371	3.6815e+01	14.7333	40.985002	0.000334	3.344434	1.133125	0.000134
 372	3.6914e+01	14.7605	41.122265	0.000345	3.445780	1.167462	0.000138
 373	3.7014e+01	14.8103	41.182822	0.000152	1.520197	0.515057	0.000061
 374	3.7114e+01	14.8648	41.307973	0.000314	3.141741	1.064451	0.000126
 375	3.7213e+01	14.8905	41.425050	0.000294	2.939048	0.995776	0.000118
 376	3.7313e+01	14.9386	41.562312	0.000345	3.445780	1.167462	0.000138
 377	3.7412e+01	14.9771	41.647092	0.000213	2.128276	0.721079	0.000085
 378	3.7511e+01	15.0076	41.784355	0.000345	3.445780	1.167462	0.000138
 379	3.7611e+01	15.0557	41.844912	0.000152	1.520197	0.515057	0.000061
 380	3.7711e+01	15.0910	41.994286	0.000375	3.749820	1.270473	0.000150
 381	3.7810e+01	15.1375	42.103289	0.000274	2.736355	0.927102	0.000110
 382	3.7910e+01	15.1809	42.216328	0.000284	2.837702	0.961439	0.000114
 383	3.8009e+01	15.2049	42.301108	0.000213	2.128276	0.721079	0.000085
 384	3.8108e+01	15.2563	42.414148	0.000284	2.837702	0.961439	0.000114
 385	3.8208e+01	15.2899	42.543336	0.000324	3.243087	1.098788	0.000130
 386	3.8307e+01	15.3284	42.676562	0.000334	3.344434	1.133125	0.000134
 387	3.8407e+01	15.3669	42.781527	0.000264	2.635009	0.892765	0.000105
 388	3.8507e+01	15.4119	42.898604	0.000294	2.939048	0.995776	0.000118
 389	3.8606e+01	15.4472	42.999533	0.000253	2.533662	0.858428	0.000101
 390	3.8706e+01	15.4905	43.140832	0.000355	3.547127	1.201799	0.000142
 391	3.8805e+01	15.5370	43.209464	0.000172	1.722890	0.583731	0.000069
 392	3.8904e+01	15.5723	43.354801	0.000365	3.648473	1.236136	0.000146
 393	3.9004e+01	15.6172	43.447655	0.000233	2.330969	0.789754	0.000093
 394	3.9103e+01	15.6541	43.544546	0.000243	2.432316	0.824091	0.000097
 395	3.9203e+01	15.6926	43.592992	0.000122	1.216158	0.412045	0.000049
 396	3.9303e+01	15.7311	43.758514	0.000416	4.155206	1.407822	0.000166
 397	3.9402e+01	15.7696	43.924037	0.000416	4.155206	1.407822	0.000166
 398	3.9502e+01	15.8129	43.972482	0.000122	1.216158	0.412045	0.000049
 399	3.9601e+01	15.8498	44.077448	0.000264	2.635009	0.892765	0.000105
 400	3.9700e+01	15.8899	44.186451	0.000274	2.736355	0.927102	0.000110
 401	3.9800e+01	15.9268	44.299490	0.000284	2.837702	0.961439	0.000114
 402	3.9900e+01	15.9685	44.424642	0.000314	3.141741	1.064451	0.000126
 403	3.9999e+01	16.0118	44.569979	0.000365	3.648473	1.236136	0.000146
 404	4.0099e+01	16.0487	44.654758	0.000213	2.128276	0.721079	0.000085
 405	4.0198e+01	16.0840	44.755687	0.000253	2.533662	0.858428	0.000101
 406	4.0297e+01	16.1290	44.864689	0.000274	2.736355	0.927102	0.000110
 407	4.0397e+01	16.1755	44.957544	0.000233	2.330969	0.789754	0.000093
 408	4.0496e+01	16.2060	45.078658	0.000304	3.040395	1.030114	0.000122
 409	4.0596e+01	16.2445	45.211883	0.000334	3.344434	1.133125	0.000134
 410	4.0696e+01	16.2894	45.324923	0.000284	2.837702	0.961439	0.000114
 411	4.0795e+01	16.3247	45.437963	0.000284	2.837702	0.961439	0.000114
 412	4.0895e+01	16.3696	45.530817	0.000233	2.330969	0.789754	0.000093
 413	4.0994e+01	16.4113	45.643857	0.000284	2.837702	0.961439	0.000114
 414	4.1093e+01	16.4530	45.748822	0.000264	2.635009	0.892765	0.000105
 415	4.1193e+01	16.4899	45.853788	0.000264	2.635009	0.892765	0.000105
 416	4.1292e+01	16.5300	45.966828	0.000284	2.837702	0.961439	0.000114
 417	4.1392e+01	16.5637	46.043533	0.000193	1.925583	0.652405	0.000077
 418	4.1492e+01	16.6070	46.196944	0.000385	3.851166	1.304810	0.000154
 419	4.1591e+01	16.6423	46.245390	0.000122	1.216158	0.412045	0.000049
 420	4.1691e+01	16.6760	46.390727	0.000365	3.648473	1.236136	0.000146
 421	4.1790e+01	16.7193	46.519915	0.000324	3.243087	1.098788	0.000130
 422	4.1889e+01	16.7723	46.620844	0.000253	2.533662	0.858428	0.000101
 423	4.1989e+01	16.8011	46.721772	0.000253	2.533662	0.858428	0.000101
 424	4.2089e+01	16.8444	46.867109	0.000365	3.648473	1.236136	0.000146
 425	4.2188e+01	16.8813	46.976111	0.000274	2.736355	0.927102	0.000110
 426	4.2288e+01	16.9295	47.064928	0.000223	2.229623	0.755417	0.000089
 427	4.2387e+01	16.9632	47.157783	0.000233	2.330969	0.789754	0.000093
 428	4.2486e+01	17.0049	47.254674	0.000243	2.432316	0.824091	0.000097
 429	4.2586e+01	17.0498	47.416159	0.000405	4.053859	1.373485	0.000162
 430	4.2685e+01	17.0931	47.525162	0.000274	2.736355	0.927102	0.000110
 431	4.2785e+01	17.1268	47.626090	0.000253	2.533662	0.858428	0.000101
 432	4.2885e+01	17.1797	47.755279	0.000324	3.243087	1.098788	0.000130
 433	4.2984e+01	17.1990	47.815836	0.000152	1.520197	0.515057	0.000061
 434	4.3084e+01	17.2407	47.940987	0.000314	3.141741	1.064451	0.000126
 435	4.3183e+01	17.2824	48.041915	0.000253	2.533662	0.858428	0.000101
 436	4.3282e+01	17.3241	48.106509	0.000162	1.621544	0.549394	0.000065
 437	4.3382e+01	17.3642	48.231661	0.000314	3.141741	1.064451	0.000126
 438	4.3481e+01	17.4027	48.344700	0.000284	2.837702	0.961439	0.000114
 439	4.3581e+01	17.4476	48.494074	0.000375	3.749820	1.270473	0.000150
 440	4.3681e+01	17.4861	48.607114	0.000284	2.837702	0.961439	0.000114
 441	4.3780e+01	17.5327	48.732265	0.000314	3.141741	1.064451	0.000126
 442	4.3880e+01	17.5680	48.821082	0.000223	2.229623	0.755417	0.000089
 443	4.3979e+01	17.6032	48.950271	0.000324	3.243087	1.098788	0.000130
 444	4.4078e+01	17.6401	49.063311	0.000284	2.837702	0.961439	0.000114
 445	4.4178e+01	17.6867	49.168276	0.000264	2.635009	0.892765	0.000105
 446	4.4278e+01	17.7155	49.257093	0.000223	2.229623	0.755417	0.000089
 447	4.4377e+01	17.7653	49.366096	0.000274	2.736355	0.927102	0.000110
 448	4.4477e+01	17.8054	49.450876	0.000213	2.128276	0.721079	0.000085
 449	4.4576e+01	17.8455	49.592175	0.000355	3.547127	1.201799	0.000142
 450	4.4675e+01	17.8904	49.717327	0.000314	3.141741	1.064451	0.000126
 451	4.4775e+01	17.9241	49.806144	0.000223	2.229623	0.755417	0.000089
 452	4.4874e+01	17.9786	49.898998	0.000233	2.330969	0.789754	0.000093
 453	4.4974e+01	18.0027	49.999926	0.000253	2.533662	0.858428	0.000101
 454	4.5074e+01	18.0476	50.076632	0.000193	1.925583	0.652405	0.000077
 455	4.5173e+01	18.0765	50.221969	0.000365	3.648473	1.236136	0.000146
 456	4.5273e+01	18.1278	50.343083	0.000304	3.040395	1.030114	0.000122
 457	4.5372e+01	18.1679	50.460160	0.000294	2.939048	0.995776	0.000118
 458	4.5471e+01	18.2080	50.589348	0.000324	3.243087	1.098788	0.000130
 459	4.5571e+01	18.2385	50.682202	0.000233	2.330969	0.789754	0.000093
 460	4.5670e+01	18.2834	50.779093	0.000243	2.432316	0.824091	0.000097
 461	4.5770e+01	18.3300	50.839650	0.000152	1.520197	0.515057	0.000061
 462	4.5870e+01	18.3572	50.993062	0.000385	3.851166	1.304810	0.000154
 463	4.5969e+01	18.4070	51.118213	0.000314	3.141741	1.064451	0.000126
 464	4.6069e+01	18.4423	51.211067	0.000233	2.330969	0.789754	0.000093
 465	4.6168e+01	18.4808	51.324107	0.000284	2.837702	0.961439	0.000114
 466	4.6267e+01	18.5209	51.412924	0.000223	2.229623	0.755417	0.000089
 467	4.6367e+01	18.5610	51.530001	0.000294	2.939048	0.995776	0.000118
 468	4.6467e+01	18.5995	51.655152	0.000314	3.141741	1.064451	0.000126
 469	4.6566e+01	18.6364	51.796452	0.000355	3.547127	1.201799	0.000142
 470	4.6666e+01	18.6797	51.881231	0.000213	2.128276	0.721079	0.000085
 471	4.6765e+01	18.7214	51.966011	0.000213	2.128276	0.721079	0.000085
 472	4.6864e+01	18.7455	52.066940	0.000253	2.533662	0.858428	0.000101
 473	4.6964e+01	18.8016	52.184017	0.000294	2.939048	0.995776	0.000118
 474	4.7063e+01	18.8417	52.276871	0.000233	2.330969	0.789754	0.000093
 475	4.7163e+01	18.8754	52.426245	0.000375	3.749820	1.270473	0.000150
 476	4.7263e+01	18.9171	52.502950	0.000193	1.925583	0.652405	0.000077
 477	4.7362e+01	18.9604	52.587730	0.000213	2.128276	0.721079	0.000085
 478	4.7462e+01	18.9989	52.716918	0.000324	3.243087	1.098788	0.000130
 479	4.7561e+01	19.0358	52.850144	0.000334	3.344434	1.133125	0.000134
 480	4.7660e+01	19.0823	52.930887	0.000203	2.026930	0.686742	0.000081
 481	4.7760e+01	19.1209	53.052001	0.000304	3.040395	1.030114	0.000122
 482	4.7859e+01	19.1642	53.193300	0.000355	3.547127	1.201799	0.000142
 483	4.7959e+01	19.1962	53.270006	0.000193	1.925583	0.652405	0.000077
 484	4.8059e+01	19.2412	53.379009	0.000274	2.736355	0.927102	0.000110
 485	4.8158e+01	19.2893	53.496086	0.000294	2.939048	0.995776	0.000118
 486	4.8258e+01	19.3214	53.613163	0.000294	2.939048	0.995776	0.000118
 487	4.8357e+01	19.3599	53.714091	0.000253	2.533662	0.858428	0.000101
 488	4.8456e+01	19.3952	53.810982	0.000243	2.432316	0.824091	0.000097
 489	4.8556e+01	19.4417	53.919985	0.000274	2.736355	0.927102	0.000110
 490	4.8656e+01	19.4786	54.024950	0.000264	2.635009	0.892765	0.000105
 491	4.8755e+01	19.5155	54.146065	0.000304	3.040395	1.030114	0.000122
 492	4.8855e+01	19.5588	54.242956	0.000243	2.432316	0.824091	0.000097
 493	4.8954e+01	19.5925	54.339847	0.000243	2.432316	0.824091	0.000097
 494	4.9053e+01	19.6278	54.448850	0.000274	2.736355	0.927102	0.000110
 495	4.9153e+01	19.6743	54.529592	0.000203	2.026930	0.686742	0.000081
 496	4.9252e+01	19.7096	54.654744	0.000314	3.141741	1.064451	0.000126
 497	4.9352e+01	19.7561	54.779895	0.000314	3.141741	1.064451	0.000126
 498	4.9452e+01	19.7898	54.888897	0.000274	2.736355	0.927102	0.000110
 499	4.9551e+01	19.8379	54.961566	0.000182	1.824237	0.618068	0.000073
 500	4.9651e+01	19.8684	55.114977	0.000385	3.851166	1.304810	0.000154
 501	4.9750e+01	19.9166	55.199757	0.000213	2.128276	0.721079	0.000085
 502	4.9849e+01	19.9663	55.316834	0.000294	2.939048	0.995776	0.000118
 503	4.9949e+01	19.9984	55.381428	0.000162	1.621544	0.549394	0.000065
 504	5.0048e+01	19.9518	55.337020	0.000111	1.114811	0.377708	-0.000045
 505	5.0148e+01	19.9214	55.284537	0.000132	1.317504	0.446383	-0.000053
 506	5.0248e+01	19.8716	55.195720	0.000223	2.229623	0.755417	-0.000089
 507	5.0347e+01	19.8331	55.110940	0.000213	2.128276	0.721079	-0.000085
 508	5.0447e+01	19.8010	54.977714	0.000334	3.344434	1.133125	-0.000134
 509	5.0546e+01	19.7577	54.913120	0.000162	1.621544	0.549394	-0.000065
 510	5.0645e+01	19.7112	54.832378	0.000203	2.026930	0.686742	-0.000081
 511	5.0745e+01	19.6759	54.775858	0.000142	1.418851	0.480720	-0.000057
 512	5.0844e+01	19.6390	54.674929	0.000253	2.533662	0.858428	-0.000101
 513	5.0944e+01	19.5989	54.590149	0.000213	2.128276	0.721079	-0.000085
 514	5.1044e+01	19.5524	54.477110	0.000284	2.837702	0.961439	-0.000114
 515	5.1143e+01	19.5235	54.396367	0.000203	2.026930	0.686742	-0.000081
 516	5.1242e+01	19.4722	54.319661	0.000193	1.925583	0.652405	-0.000077
 517	5.1342e+01	19.4353	54.210659	0.000274	2.736355	0.927102	-0.000110
 518	5.1441e+01	19.3984	54.101656	0.000274	2.736355	0.927102	-0.000110
 519	5.1541e+01	19.3615	54.024950	0.000193	1.925583	0.652405	-0.000077
 520	5.1641e+01	19.3182	53.980542	0.000111	1.114811	0.377708	-0.000045
 521	5.1740e+01	19.2765	53.919985	0.000152	1.520197	0.515057	-0.000061
 522	5.1840e+01	19.2380	53.827131	0.000233	2.330969	0.789754	-0.000093
 523	5.1939e+01	19.1946	53.754462	0.000182	1.824237	0.618068	-0.000073
 524	5.2038e+01	19.1674	53.653534	0.000253	2.533662	0.858428	-0.000101
 525	5.2138e+01	19.1241	53.500123	0.000385	3.851166	1.304810	-0.000154
 526	5.2237e+01	19.0840	53.399194	0.000253	2.533662	0.858428	-0.000101
 527	5.2337e+01	19.0422	53.314415	0.000213	2.128276	0.721079	-0.000085
 528	5.2437e+01	19.0037	53.233672	0.000203	2.026930	0.686742	-0.000081
 529	5.2536e+01	18.9572	53.124669	0.000274	2.736355	0.927102	-0.000110
 530	5.2636e+01	18.9283	53.011629	0.000284	2.837702	0.961439	-0.000114
 531	5.2735e+01	18.8834	52.967221	0.000111	1.114811	0.377708	-0.000045
 532	5.2834e+01	18.8385	52.890515	0.000193	1.925583	0.652405	-0.000077
 533	5.2934e+01	18.8032	52.753253	0.000345	3.445780	1.167462	-0.000138
 534	5.3033e+01	18.7631	52.700770	0.000132	1.317504	0.446383	-0.000053
 535	5.3133e+01	18.7214	52.567544	0.000334	3.344434	1.133125	-0.000134
 536	5.3233e+01	18.6797	52.466616	0.000253	2.533662	0.858428	-0.000101
 537	5.3332e+01	18.6348	52.414133	0.000132	1.317504	0.446383	-0.000053
 538	5.3431e+01	18.6107	52.353576	0.000152	1.520197	0.515057	-0.000061
 539	5.3531e+01	18.5626	52.309168	0.000111	1.114811	0.377708	-0.000045
 540	5.3630e+01	18.5177	52.167868	0.000355	3.547127	1.201799	-0.000142
 541	5.3730e+01	18.4824	52.066940	0.000253	2.533662	0.858428	-0.000101
 542	5.3830e+01	18.4471	51.974085	0.000233	2.330969	0.789754	-0.000093
 543	5.3929e+01	18.4038	51.857009	0.000294	2.939048	0.995776	-0.000118
 544	5.4029e+01	18.3604	51.760117	0.000243	2.432316	0.824091	-0.000097
 545	5.4128e+01	18.3252	51.651115	0.000274	2.736355	0.927102	-0.000110
 546	5.4227e+01	18.2834	51.513852	0.000345	3.445780	1.167462	-0.000138
 547	5.4327e+01	18.2465	51.481555	0.000081	0.810772	0.274697	-0.000032
 548	5.4426e+01	18.1952	51.368515	0.000284	2.837702	0.961439	-0.000114
 549	5.4526e+01	18.1647	51.255475	0.000284	2.837702	0.961439	-0.000114
 550	5.4626e+01	18.1214	51.162621	0.000233	2.330969	0.789754	-0.000093
 551	5.4725e+01	18.0781	51.093990	0.000172	1.722890	0.583731	-0.000069
 552	5.4825e+01	18.0444	50.984987	0.000274	2.736355	0.927102	-0.000110
 553	5.4924e+01	17.9979	50.916356	0.000172	1.722890	0.583731	-0.000069
 554	5.5023e+01	17.9594	50.819465	0.000243	2.432316	0.824091	-0.000097
 555	5.5123e+01	17.9161	50.738722	0.000203	2.026930	0.686742	-0.000081
 556	5.5222e+01	17.8824	50.633756	0.000264	2.635009	0.892765	-0.000105
 557	5.5322e+01	17.8487	50.565125	0.000172	1.722890	0.583731	-0.000069
 558	5.5422e+01	17.8022	50.468234	0.000243	2.432316	0.824091	-0.000097
 559	5.5521e+01	17.7589	50.355194	0.000284	2.837702	0.961439	-0.000114
 560	5.5620e+01	17.7236	50.262340	0.000233	2.330969	0.789754	-0.000093
 561	5.5720e+01	17.6883	50.153337	0.000274	2.736355	0.927102	-0.000110
 562	5.5819e+01	17.6434	50.012038	0.000355	3.547127	1.201799	-0.000142
 563	5.5919e+01	17.6145	49.907072	0.000264	2.635009	0.892765	-0.000105
 564	5.6019e+01	17.5680	49.810181	0.000243	2.432316	0.824091	-0.000097
 565	5.6118e+01	17.5246	49.737512	0.000182	1.824237	0.618068	-0.000073
 566	5.6218e+01	17.4813	49.640621	0.000243	2.432316	0.824091	-0.000097
 567	5.6317e+01	17.4460	49.531618	0.000274	2.736355	0.927102	-0.000110
 568	5.6416e+01	17.4059	49.426653	0.000264	2.635009	0.892765	-0.000105
 569	5.6516e+01	17.3626	49.329762	0.000243	2.432316	0.824091	-0.000097
 570	5.6615e+01	17.3209	49.236907	0.000233	2.330969	0.789754	-0.000093
 571	5.6715e+01	17.2824	49.220759	0.000041	0.405386	0.137348	-0.000016
 572	5.6815e+01	17.2439	49.111756	0.000274	2.736355	0.927102	-0.000110
 573	5.6914e+01	17.2038	49.014865	0.000243	2.432316	0.824091	-0.000097
 574	5.7014e+01	17.1685	48.926048	0.000223	2.229623	0.755417	-0.000089
 575	5.7113e+01	17.1188	48.813008	0.000284	2.837702	0.961439	-0.000114
 576	5.7212e+01	17.0947	48.720154	0.000233	2.330969	0.789754	-0.000093
 577	5.7312e+01	17.0466	48.611151	0.000274	2.736355	0.927102	-0.000110
 578	5.7411e+01	17.0097	48.490037	0.000304	3.040395	1.030114	-0.000122
 579	5.7511e+01	16.9744	48.393146	0.000243	2.432316	0.824091	-0.000097
 580	5.7611e+01	16.9198	48.239735	0.000385	3.851166	1.304810	-0.000154
 581	5.7710e+01	16.8894	48.130732	0.000274	2.736355	0.927102	-0.000110
 582	5.7809e+01	16.8525	48.045952	0.000213	2.128276	0.721079	-0.000085
 583	5.7909e+01	16.8059	47.928875	0.000294	2.939048	0.995776	-0.000118
 584	5.8008e+01	16.7658	47.860244	0.000172	1.722890	0.583731	-0.000069
 585	5.8108e+01	16.7177	47.763353	0.000243	2.432316	0.824091	-0.000097
 586	5.8208e+01	16.6969	47.686647	0.000193	1.925583	0.652405	-0.000077
 587	5.8307e+01	16.6584	47.597830	0.000223	2.229623	0.755417	-0.000089
 588	5.8407e+01	16.6086	47.500939	0.000243	2.432316	0.824091	-0.000097
 589	5.8506e+01	16.5701	47.440382	0.000152	1.520197	0.515057	-0.000061
 590	5.8605e+01	16.5300	47.323305	0.000294	2.939048	0.995776	-0.000118
 591	5.8705e+01	16.4883	47.234488	0.000223	2.229623	0.755417	-0.000089
 592	5.8804e+01	16.4546	47.101263	0.000334	3.344434	1.133125	-0.000134
 593	5.8904e+01	16.4001	47.008409	0.000233	2.330969	0.789754	-0.000093
 594	5.9004e+01	16.3744	46.895369	0.000284	2.837702	0.961439	-0.000114
 595	5.9103e+01	16.3311	46.826737	0.000172	1.722890	0.583731	-0.000069
 596	5.9203e+01	16.2846	46.717735	0.000274	2.736355	0.927102	-0.000110
 597	5.9302e+01	16.2605	46.628918	0.000223	2.229623	0.755417	-0.000089
 598	5.9401e+01	16.2172	46.471469	0.000395	3.952513	1.339148	-0.000158
 599	5.9501e+01	16.1755	46.374578	0.000243	2.432316	0.824091	-0.000097
 600	5.9600e+01	16.1338	46.225204	0.000375	3.749820	1.270473	-0.000150
 601	5.9700e+01	16.0889	46.156573	0.000172	1.722890	0.583731	-0.000069
 602	5.9800e+01	16.0471	46.043533	0.000284	2.837702	0.961439	-0.000114
 603	5.9899e+01	16.0135	45.938568	0.000264	2.635009	0.892765	-0.000105
 604	5.9998e+01	15.9717	45.918382	0.000051	0.506732	0.171686	-0.000020
 605	6.0098e+01	15.9204	45.809379	0.000274	2.736355	0.927102	-0.000110
 606	6.0197e+01	15.8851	45.700377	0.000274	2.736355	0.927102	-0.000110
 607	6.0297e+01	15.8578	45.599448	0.000253	2.533662	0.858428	-0.000101
 608	6.0397e+01	15.8049	45.510631	0.000223	2.229623	0.755417	-0.000089
 609	6.0496e+01	15.7632	45.405666	0.000264	2.635009	0.892765	-0.000105
 610	6.0596e+01	15.7407	45.284552	0.000304	3.040395	1.030114	-0.000122
 611	6.0695e+01	15.7022	45.191697	0.000233	2.330969	0.789754	-0.000093
 612	6.0794e+01	15.6509	45.106918	0.000213	2.128276	0.721079	-0.000085
 613	6.0894e+01	15.6156	45.010026	0.000243	2.432316	0.824091	-0.000097
 614	6.0993e+01	15.5771	44.880838	0.000324	3.243087	1.098788	-0.000130
 615	6.1093e+01	15.5322	44.820281	0.000152	1.520197	0.515057	-0.000061
 616	6.1193e+01	15.4857	44.642647	0.000446	4.459245	1.510833	-0.000179
 617	6.1292e+01	15.4472	44.561904	0.000203	2.026930	0.686742	-0.000081
 618	6.1392e+01	15.4087	44.412530	0.000375	3.749820	1.270473	-0.000150
 619	6.1491e+01	15.3798	44.347936	0.000162	1.621544	0.549394	-0.000065
 620	6.1590e+01	15.3429	44.222785	0.000314	3.141741	1.064451	-0.000126
 621	6.1690e+01	15.2899	44.146079	0.000193	1.925583	0.652405	-0.000077
 622	6.1789e+01	15.2466	44.049188	0.000243	2.432316	0.824091	-0.000097
 623	6.1889e+01	15.2145	43.948260	0.000253	2.533662	0.858428	-0.000101
 624	6.1989e+01	15.1728	43.891740	0.000142	1.418851	0.480720	-0.000057
 625	6.2088e+01	15.1359	43.734291	0.000395	3.952513	1.339148	-0.000158
 626	6.2188e+01	15.0942	43.697957	0.000091	0.912118	0.309034	-0.000037
 627	6.2287e+01	15.0509	43.601066	0.000243	2.432316	0.824091	-0.000097
 628	6.2386e+01	15.0204	43.479952	0.000304	3.040395	1.030114	-0.000122
 629	6.2486e+01	14.9771	43.407283	0.000182	1.824237	0.618068	-0.000073
 630	6.2586e+01	14.9450	43.286169	0.000304	3.040395	1.030114	-0.000122
 631	6.2685e+01	14.8985	43.165055	0.000304	3.040395	1.030114	-0.000122
 632	6.2785e+01	14.8520	43.088350	0.000193	1.925583	0.652405	-0.000077
 633	6.2884e+01	14.8199	42.947050	0.000355	3.547127	1.201799	-0.000142
 634	6.2983e+01	14.7782	42.825936	0.000304	3.040395	1.030114	-0.000122
 635	6.3083e+01	14.7253	42.684636	0.000355	3.547127	1.201799	-0.000142
 636	6.3182e+01	14.7028	42.620042	0.000162	1.621544	0.549394	-0.000065
 637	6.3282e+01	14.6531	42.486817	0.000334	3.344434	1.133125	-0.000134
 638	6.3382e+01	14.6178	42.381851	0.000264	2.635009	0.892765	-0.000105
 639	6.3481e+01	14.5841	42.293034	0.000223	2.229623	0.755417	-0.000089
 640	6.3581e+01	14.5376	42.224403	0.000172	1.722890	0.583731	-0.000069
 641	6.3680e+01	14.4958	42.143660	0.000203	2.026930	0.686742	-0.000081
 642	6.3779e+01	14.4670	42.014472	0.000324	3.243087	1.098788	-0.000130
 643	6.3879e+01	14.4253	41.925655	0.000223	2.229623	0.755417	-0.000089
 644	6.3978e+01	14.3771	41.832801	0.000233	2.330969	0.789754	-0.000093
 645	6.4078e+01	14.3370	41.707649	0.000314	3.141741	1.064451	-0.000126
 646	6.4177e+01	14.2969	41.614795	0.000233	2.330969	0.789754	-0.000093
 647	6.4277e+01	14.2616	41.517904	0.000243	2.432316	0.824091	-0.000097
 648	6.4376e+01	14.2167	41.425050	0.000233	2.330969	0.789754	-0.000093
 649	6.4476e+01	14.1782	41.324121	0.000253	2.533662	0.858428	-0.000101
 650	6.4576e+01	14.1365	41.203007	0.000304	3.040395	1.030114	-0.000122
 651	6.4675e+01	14.1028	41.073819	0.000324	3.243087	1.098788	-0.000130
 652	6.4775e+01	14.0595	40.956742	0.000294	2.939048	0.995776	-0.000118
 653	6.4874e+01	14.0146	40.839665	0.000294	2.939048	0.995776	-0.000118
 654	6.4974e+01	13.9729	40.722588	0.000294	2.939048	0.995776	-0.000118
 655	6.5073e+01	13.9344	40.662031	0.000152	1.520197	0.515057	-0.000061
 656	6.5172e+01	13.8943	40.536880	0.000314	3.141741	1.064451	-0.000126
 657	6.5272e+01	13.8526	40.480360	0.000142	1.418851	0.480720	-0.000057
 658	6.5371e+01	13.8157	40.343097	0.000345	3.445780	1.167462	-0.000138
 659	6.5471e+01	13.7820	40.254280	0.000223	2.229623	0.755417	-0.000089
 660	6.5570e+01	13.7354	40.169501	0.000213	2.128276	0.721079	-0.000085
 661	6.5670e+01	13.7050	40.060498	0.000274	2.736355	0.927102	-0.000110
 662	6.5769e+01	13.6488	39.971681	0.000223	2.229623	0.755417	-0.000089
 663	6.5869e+01	13.6199	39.862678	0.000274	2.736355	0.927102	-0.000110
 664	6.5969e+01	13.5830	39.749638	0.000284	2.837702	0.961439	-0.000114
 665	6.6068e+01	13.5365	39.668896	0.000203	2.026930	0.686742	-0.000081
 666	6.6168e+01	13.5125	39.527596	0.000355	3.547127	1.201799	-0.000142
 667	6.6267e+01	13.4611	39.446853	0.000203	2.026930	0.686742	-0.000081
 668	6.6367e+01	13.4242	39.305554	0.000355	3.547127	1.201799	-0.000142
 669	6.6466e+01	13.3825	39.208662	0.000243	2.432316	0.824091	-0.000097
 670	6.6566e+01	13.3424	39.079474	0.000324	3.243087	1.098788	-0.000130
 671	6.6665e+01	13.3071	38.958360	0.000304	3.040395	1.030114	-0.000122
 672	6.6764e+01	13.2606	38.821097	0.000345	3.445780	1.167462	-0.000138
 673	6.6864e+01	13.2333	38.764577	0.000142	1.418851	0.480720	-0.000057
 674	6.6963e+01	13.1916	38.691909	0.000182	1.824237	0.618068	-0.000073
 675	6.7063e+01	13.1467	38.570795	0.000304	3.040395	1.030114	-0.000122
 676	6.7162e+01	13.1066	38.477941	0.000233	2.330969	0.789754	-0.000093
 677	6.7262e+01	13.0633	38.372975	0.000264	2.635009	0.892765	-0.000105
 678	6.7362e+01	13.0280	38.259935	0.000284	2.837702	0.961439	-0.000114
 679	6.7461e+01	12.9831	38.183230	0.000193	1.925583	0.652405	-0.000077
 680	6.7561e+01	12.9494	38.058079	0.000314	3.141741	1.064451	-0.000126
 681	6.7660e+01	12.9093	37.957150	0.000253	2.533662	0.858428	-0.000101
 682	6.7760e+01	12.8579	37.844110	0.000284	2.837702	0.961439	-0.000114
 683	6.7859e+01	12.8162	37.727033	0.000294	2.939048	0.995776	-0.000118
 684	6.7959e+01	12.7905	37.638216	0.000223	2.229623	0.755417	-0.000089
 685	6.8058e+01	12.7456	37.529214	0.000274	2.736355	0.927102	-0.000110
 686	6.8157e+01	12.7023	37.460583	0.000172	1.722890	0.583731	-0.000069
 687	6.8257e+01	12.6702	37.331394	0.000324	3.243087	1.098788	-0.000130
 688	6.8356e+01	12.6285	37.194132	0.000345	3.445780	1.167462	-0.000138
 689	6.8456e+01	12.5964	37.056869	0.000345	3.445780	1.167462	-0.000138
 690	6.8555e+01	12.5467	36.955941	0.000253	2.533662	0.858428	-0.000101
 691	6.8655e+01	12.5082	36.923643	0.000081	0.810772	0.274697	-0.000032
 692	6.8754e+01	12.4681	36.782344	0.000355	3.547127	1.201799	-0.000142
 693	6.8854e+01	12.4312	36.653155	0.000324	3.243087	1.098788	-0.000130
 694	6.8954e+01	12.3815	36.532041	0.000304	3.040395	1.030114	-0.000122
 695	6.9053e+01	12.3462	36.467447	0.000162	1.621544	0.549394	-0.000065
 696	6.9153e+01	12.3077	36.326147	0.000355	3.547127	1.201799	-0.000142
 697	6.9252e+01	12.2692	36.225219	0.000253	2.533662	0.858428	-0.000101
 698	6.9352e+01	12.2307	36.132365	0.000233	2.330969	0.789754	-0.000093
 699	6.9451e+01	12.1841	36.027399	0.000264	2.635009	0.892765	-0.000105
 700	6.9550e+01	12.1424	35.918397	0.000274	2.736355	0.927102	-0.000110
 701	6.9650e+01	12.1087	35.825543	0.000233	2.330969	0.789754	-0.000093
 702	6.9749e+01	12.0686	35.716540	0.000274	2.736355	0.927102	-0.000110
 703	6.9849e+01	12.0285	35.619649	0.000243	2.432316	0.824091	-0.000097
 704	6.9948e+01	11.9740	35.498535	0.000304	3.040395	1.030114	-0.000122
 705	7.0048e+01	11.9467	35.377420	0.000304	3.040395	1.030114	-0.000122
 706	7.0147e+01	11.9162	35.280529	0.000243	2.432316	0.824091	-0.000097
 707	7.0247e+01	11.8761	35.143267	0.000345	3.445780	1.167462	-0.000138
 708	7.0347e+01	11.8264	35.074635	0.000172	1.722890	0.583731	-0.000069
 709	7.0446e+01	11.7863	34.969670	0.000264	2.635009	0.892765	-0.000105
 710	7.0546e+01	11.7574	34.880853	0.000223	2.229623	0.755417	-0.000089
 711	7.0645e+01	11.7077	34.699182	0.000456	4.560592	1.545170	-0.000183
 712	7.0745e+01	11.6740	34.630550	0.000172	1.722890	0.583731	-0.000069
 713	7.0844e+01	11.6275	34.533659	0.000243	2.432316	0.824091	-0.000097
 714	7.0944e+01	11.5986	34.404471	0.000324	3.243087	1.098788	-0.000130
 715	7.1043e+01	11.5425	34.331802	0.000182	1.824237	0.618068	-0.000073
 716	7.1142e+01	11.5152	34.242985	0.000223	2.229623	0.755417	-0.000089
 717	7.1242e+01	11.4799	34.085537	0.000395	3.952513	1.339148	-0.000158
 718	7.1341e+01	11.4286	34.029017	0.000142	1.418851	0.480720	-0.000057
 719	7.1441e+01	11.3949	33.875606	0.000385	3.851166	1.304810	-0.000154
 720	7.1540e+01	11.3499	33.778715	0.000243	2.432316	0.824091	-0.000097
 721	7.1640e+01	11.3130	33.657601	0.000304	3.040395	1.030114	-0.000122
 722	7.1740e+01	11.2794	33.528412	0.000324	3.243087	1.098788	-0.000130
 723	7.1839e+01	11.2216	33.423447	0.000264	2.635009	0.892765	-0.000105
 724	7.1939e+01	11.1879	33.326556	0.000243	2.432316	0.824091	-0.000097
 725	7.2038e+01	11.1574	33.197367	0.000324	3.243087	1.098788	-0.000130
 726	7.2138e+01	11.1093	33.112587	0.000213	2.128276	0.721079	-0.000085
 727	7.2237e+01	11.0740	33.003585	0.000274	2.736355	0.927102	-0.000110
 728	7.2337e+01	11.0259	32.886508	0.000294	2.939048	0.995776	-0.000118
 729	7.2436e+01	10.9938	32.749245	0.000345	3.445780	1.167462	-0.000138
 730	7.2535e+01	10.9601	32.656391	0.000233	2.330969	0.789754	-0.000093
 731	7.2635e+01	10.9136	32.539314	0.000294	2.939048	0.995776	-0.000118
 732	7.2734e+01	10.8767	32.426274	0.000284	2.837702	0.961439	-0.000114
 733	7.2834e+01	10.8318	32.365717	0.000152	1.520197	0.515057	-0.000061
 734	7.2933e+01	10.7885	32.232492	0.000334	3.344434	1.133125	-0.000134
 735	7.3033e+01	10.7468	32.127526	0.000264	2.635009	0.892765	-0.000105
 736	7.3132e+01	10.7099	32.006412	0.000304	3.040395	1.030114	-0.000122
 737	7.3232e+01	10.6681	31.889335	0.000294	2.939048	0.995776	-0.000118
 738	7.3332e+01	10.6296	31.796481	0.000233	2.330969	0.789754	-0.000093
 739	7.3431e+01	10.5911	31.639033	0.000395	3.952513	1.339148	-0.000158
 740	7.3531e+01	10.5623	31.574439	0.000162	1.621544	0.549394	-0.000065
 741	7.3630e+01	10.5174	31.441213	0.000334	3.344434	1.133125	-0.000134
 742	7.3730e+01	10.4756	31.384693	0.000142	1.418851	0.480720	-0.000057
 743	7.3829e+01	10.4339	31.223208	0.000405	4.053859	1.373485	-0.000162
 744	7.3928e+01	10.4018	31.102094	0.000304	3.040395	1.030114	-0.000122
 745	7.4028e+01	10.3473	30.989054	0.000284	2.837702	0.961439	-0.000114
 746	7.4127e+01	10.3184	30.900237	0.000223	2.229623	0.755417	-0.000089
 747	7.4227e+01	10.2767	30.775086	0.000314	3.141741	1.064451	-0.000126
 748	7.4326e+01	10.2334	30.658009	0.000294	2.939048	0.995776	-0.000118
 749	7.4426e+01	10.1901	30.565155	0.000233	2.330969	0.789754	-0.000093
 750	7.4525e+01	10.1500	30.464226	0.000253	2.533662	0.858428	-0.000101
 751	7.4625e+01	10.1179	30.335038	0.000324	3.243087	1.098788	-0.000130
 752	7.4725e+01	10.0794	30.217961	0.000294	2.939048	0.995776	-0.000118
 753	7.4824e+01	10.0393	30.117033	0.000253	2.533662	0.858428	-0.000101
 754	7.4924e+01	9.9976	30.032253	0.000213	2.128276	0.721079	-0.000085
 755	7.5023e+01	9.9495	29.907102	0.000314	3.141741	1.064451	-0.000126
 756	7.5123e+01	9.9174	29.777913	0.000324	3.243087	1.098788	-0.000130
 757	7.5222e+01	9.8757	29.689096	0.000223	2.229623	0.755417	-0.000089
 758	7.5322e+01	9.8372	29.563945	0.000314	3.141741	1.064451	-0.000126
 759	7.5421e+01	9.8067	29.483202	0.000203	2.026930	0.686742	-0.000081
 760	7.5520e+01	9.7537	29.406497	0.000193	1.925583	0.652405	-0.000077
 761	7.5620e+01	9.7200	29.232900	0.000436	4.357899	1.476496	-0.000174
 762	7.5719e+01	9.6799	29.079489	0.000385	3.851166	1.304810	-0.000154
 763	7.5819e+01	9.6398	29.002783	0.000193	1.925583	0.652405	-0.000077
 764	7.5918e+01	9.5965	28.893780	0.000274	2.736355	0.927102	-0.000110
 765	7.6018e+01	9.5516	28.764592	0.000324	3.243087	1.098788	-0.000130
 766	7.6118e+01	9.5211	28.704035	0.000152	1.520197	0.515057	-0.000061
 767	7.6217e+01	9.4778	28.582921	0.000304	3.040395	1.030114	-0.000122
 768	7.6317e+01	9.4377	28.433547	0.000375	3.749820	1.270473	-0.000150
 769	7.6416e+01	9.3960	28.320507	0.000284	2.837702	0.961439	-0.000114
 770	7.6516e+01	9.3623	28.227653	0.000233	2.330969	0.789754	-0.000093
 771	7.6615e+01	9.3174	28.098465	0.000324	3.243087	1.098788	-0.000130
 772	7.6715e+01	9.2660	28.021759	0.000193	1.925583	0.652405	-0.000077
 773	7.6814e+01	9.2356	27.884497	0.000345	3.445780	1.167462	-0.000138
 774	7.6913e+01	9.2019	27.747234	0.000345	3.445780	1.167462	-0.000138
 775	7.7013e+01	9.1602	27.686677	0.000152	1.520197	0.515057	-0.000061
 776	7.7112e+01	9.1281	27.614008	0.000182	1.824237	0.618068	-0.000073
 777	7.7212e+01	9.0880	27.480783	0.000334	3.344434	1.133125	-0.000134
 778	7.7311e+01	9.0463	27.387929	0.000233	2.330969	0.789754	-0.000093
 779	7.7411e+01	9.0094	27.258741	0.000324	3.243087	1.098788	-0.000130
 780	7.7510e+01	8.9596	27.105329	0.000385	3.851166	1.304810	-0.000154
 781	7.7610e+01	8.9163	26.992290	0.000284	2.837702	0.961439	-0.000114
 782	7.7710e+01	8.8778	26.891361	0.000253	2.533662	0.858428	-0.000101
 783	7.7809e+01	8.8377	26.754099	0.000345	3.445780	1.167462	-0.000138
 784	7.7909e+01	8.7992	26.628947	0.000314	3.141741	1.064451	-0.000126
 785	7.8008e+01	8.7575	26.536093	0.000233	2.330969	0.789754	-0.000093
 786	7.8108e+01	8.7206	26.431128	0.000264	2.635009	0.892765	-0.000105
 787	7.8207e+01	8.6901	26.273679	0.000395	3.952513	1.339148	-0.000158
 788	7.8306e+01	8.6548	26.184862	0.000223	2.229623	0.755417	-0.000089
 789	7.8406e+01	8.5987	26.043563	0.000355	3.547127	1.201799	-0.000142
 790	7.8505e+01	8.5602	25.966857	0.000193	1.925583	0.652405	-0.000077
 791	7.8605e+01	8.5121	25.845743	0.000304	3.040395	1.030114	-0.000122
 792	7.8704e+01	8.4848	25.724629	0.000304	3.040395	1.030114	-0.000122
 793	7.8804e+01	8.4463	25.676183	0.000122	1.216158	0.412045	-0.000049
 794	7.8903e+01	8.4062	25.559106	0.000294	2.939048	0.995776	-0.000118
 795	7.9003e+01	8.3661	25.405695	0.000385	3.851166	1.304810	-0.000154
 796	7.9103e+01	8.3196	25.328990	0.000193	1.925583	0.652405	-0.000077
 797	7.9202e+01	8.2778	25.215950	0.000284	2.837702	0.961439	-0.000114
 798	7.9302e+01	8.2442	25.086761	0.000324	3.243087	1.098788	-0.000130
 799	7.9401e+01	8.1976	24.945462	0.000355	3.547127	1.201799	-0.000142
 800	7.9501e+01	8.1623	24.816273	0.000324	3.243087	1.098788	-0.000130
 801	7.9600e+01	8.1222	24.658825	0.000395	3.952513	1.339148	-0.000158
 802	7.9700e+01	8.0805	24.598268	0.000152	1.520197	0.515057	-0.000061
 803	7.9799e+01	8.0452	24.469080	0.000324	3.243087	1.098788	-0.000130
 804	7.9898e+01	8.0051	24.319706	0.000375	3.749820	1.270473	-0.000150
 805	7.9998e+01	7.9570	24.234926	0.000213	2.128276	0.721079	-0.000085
 806	8.0097e+01	7.9153	24.142072	0.000233	2.330969	0.789754	-0.000093
 807	8.0197e+01	7.8912	24.033069	0.000274	2.736355	0.927102	-0.000110
 808	8.0296e+01	7.8495	23.948289	0.000213	2.128276	0.721079	-0.000085
 809	8.0396e+01	7.7982	23.819101	0.000324	3.243087	1.098788	-0.000130
 810	8.0496e+01	7.7693	23.742395	0.000193	1.925583	0.652405	-0.000077
 811	8.0595e+01	7.7244	23.629355	0.000284	2.837702	0.961439	-0.000114
 812	8.0695e+01	7.6763	23.467870	0.000405	4.053859	1.373485	-0.000162
 813	8.0794e+01	7.6426	23.407313	0.000152	1.520197	0.515057	-0.000061
 814	8.0894e+01	7.6025	23.266013	0.000355	3.547127	1.201799	-0.000142
 815	8.0993e+01	7.5607	23.148936	0.000294	2.939048	0.995776	-0.000118
 816	8.1093e+01	7.5303	22.979377	0.000426	4.256552	1.442159	-0.000170
 817	8.1192e+01	7.4902	22.854225	0.000314	3.141741	1.064451	-0.000126
 818	8.1291e+01	7.4404	22.733111	0.000304	3.040395	1.030114	-0.000122
 819	8.1391e+01	7.4148	22.656406	0.000193	1.925583	0.652405	-0.000077
 820	8.1490e+01	7.3666	22.498957	0.000395	3.952513	1.339148	-0.000158
 821	8.1590e+01	7.3281	22.422252	0.000193	1.925583	0.652405	-0.000077
 822	8.1689e+01	7.2816	22.293064	0.000324	3.243087	1.098788	-0.000130
 823	8.1789e+01	7.2431	22.204247	0.000223	2.229623	0.755417	-0.000089
 824	8.1888e+01	7.2014	22.058910	0.000365	3.648473	1.236136	-0.000146
 825	8.1988e+01	7.1677	21.978167	0.000203	2.026930	0.686742	-0.000081
 826	8.2088e+01	7.1244	21.873201	0.000264	2.635009	0.892765	-0.000105
 827	8.2187e+01	7.0859	21.776310	0.000243	2.432316	0.824091	-0.000097
 828	8.2287e+01	7.0490	21.671345	0.000264	2.635009	0.892765	-0.000105
 829	8.2386e+01	7.0073	21.554268	0.000294	2.939048	0.995776	-0.000118
 830	8.2486e+01	6.9608	21.417005	0.000345	3.445780	1.167462	-0.000138
 831	8.2585e+01	6.9303	21.320114	0.000243	2.432316	0.824091	-0.000097
 832	8.2684e+01	6.8870	21.199000	0.000304	3.040395	1.030114	-0.000122
 833	8.2784e+01	6.8501	21.045589	0.000385	3.851166	1.304810	-0.000154
 834	8.2883e+01	6.8084	20.908326	0.000345	3.445780	1.167462	-0.000138
 835	8.2983e+01	6.7715	20.799323	0.000274	2.736355	0.927102	-0.000110
 836	8.3082e+01	6.7233	20.702432	0.000243	2.432316	0.824091	-0.000097
 837	8.3182e+01	6.6784	20.581318	0.000304	3.040395	1.030114	-0.000122
 838	8.3281e+01	6.6479	20.423870	0.000395	3.952513	1.339148	-0.000158
 839	8.3381e+01	6.6094	20.322941	0.000253	2.533662	0.858428	-0.000101
 840	8.3481e+01	6.5790	20.217976	0.000264	2.635009	0.892765	-0.000105
 841	8.3580e+01	6.5244	20.113010	0.000264	2.635009	0.892765	-0.000105
 842	8.3680e+01	6.4779	20.020156	0.000233	2.330969	0.789754	-0.000093
 843	8.3779e+01	6.4458	19.907116	0.000284	2.837702	0.961439	-0.000114
 844	8.3879e+01	6.4169	19.814262	0.000233	2.330969	0.789754	-0.000093
 845	8.3978e+01	6.3656	19.725445	0.000223	2.229623	0.755417	-0.000089
 846	8.4078e+01	6.3335	19.608368	0.000294	2.939048	0.995776	-0.000118
 847	8.4177e+01	6.2950	19.507440	0.000253	2.533662	0.858428	-0.000101
 848	8.4276e+01	6.2565	19.374214	0.000334	3.344434	1.133125	-0.000134
 849	8.4376e+01	6.2084	19.253100	0.000304	3.040395	1.030114	-0.000122
 850	8.4475e+01	6.1747	19.095652	0.000395	3.952513	1.339148	-0.000158
 851	8.4575e+01	6.1394	18.966464	0.000324	3.243087	1.098788	-0.000130
 852	8.4674e+01	6.0945	18.821127	0.000365	3.648473	1.236136	-0.000146
 853	8.4774e+01	6.0592	18.728273	0.000233	2.330969	0.789754	-0.000093
 854	8.4874e+01	6.0143	18.570824	0.000395	3.952513	1.339148	-0.000158
 855	8.4973e+01	5.9742	18.465859	0.000264	2.635009	0.892765	-0.000105
 856	8.5073e+01	5.9421	18.356856	0.000274	2.736355	0.927102	-0.000110
 857	8.5172e+01	5.9036	18.247854	0.000274	2.736355	0.927102	-0.000110
 858	8.5272e+01	5.8554	18.150962	0.000243	2.432316	0.824091	-0.000097
 859	8.5371e+01	5.8121	18.041960	0.000274	2.736355	0.927102	-0.000110
 860	8.5471e+01	5.7704	17.949105	0.000233	2.330969	0.789754	-0.000093
 861	8.5570e+01	5.7335	17.836066	0.000284	2.837702	0.961439	-0.000114
 862	8.5669e+01	5.6902	17.714952	0.000304	3.040395	1.030114	-0.000122
 863	8.5769e+01	5.6501	17.597875	0.000294	2.939048	0.995776	-0.000118
 864	8.5868e+01	5.6100	17.513095	0.000213	2.128276	0.721079	-0.000085
 865	8.5968e+01	5.5603	17.383906	0.000324	3.243087	1.098788	-0.000130
 866	8.6067e+01	5.5362	17.230495	0.000385	3.851166	1.304810	-0.000154
 867	8.6167e+01	5.4961	17.133604	0.000243	2.432316	0.824091	-0.000097
 868	8.6266e+01	5.4608	17.016527	0.000294	2.939048	0.995776	-0.000118
 869	8.6366e+01	5.4175	16.863116	0.000385	3.851166	1.304810	-0.000154
 870	8.6466e+01	5.3758	16.729890	0.000334	3.344434	1.133125	-0.000134
 871	8.6565e+01	5.3373	16.612814	0.000294	2.939048	0.995776	-0.000118
 872	8.6665e+01	5.2956	16.495737	0.000294	2.939048	0.995776	-0.000118
 873	8.6764e+01	5.2667	16.366548	0.000324	3.243087	1.098788	-0.000130
 874	8.6864e+01	5.2186	16.257546	0.000274	2.736355	0.927102	-0.000110
 875	8.6963e+01	5.1753	16.140469	0.000294	2.939048	0.995776	-0.000118
 876	8.7063e+01	5.1400	16.027429	0.000284	2.837702	0.961439	-0.000114
 877	8.7162e+01	5.0870	15.898241	0.000324	3.243087	1.098788	-0.000130
 878	8.7261e+01	5.0662	15.825572	0.000182	1.824237	0.618068	-0.000073
 879	8.7361e+01	5.0261	15.712532	0.000284	2.837702	0.961439	-0.000114
 880	8.7460e+01	4.9827	15.615641	0.000243	2.432316	0.824091	-0.000097
 881	8.7560e+01	4.9298	15.470304	0.000365	3.648473	1.236136	-0.000146
 882	8.7659e+01	4.8929	15.397636	0.000182	1.824237	0.618068	-0.000073
 883	8.7759e+01	4.8592	15.284596	0.000284	2.837702	0.961439	-0.000114
 884	8.7859e+01	4.8175	15.139259	0.000365	3.648473	1.236136	-0.000146
 885	8.7958e+01	4.7806	14.981811	0.000395	3.952513	1.339148	-0.000158
 886	8.8058e+01	4.7373	14.848585	0.000334	3.344434	1.133125	-0.000134
 887	8.8157e+01	4.6956	14.723434	0.000314	3.141741	1.064451	-0.000126
 888	8.8257e+01	4.6667	14.598283	0.000314	3.141741	1.064451	-0.000126
 889	8.8356e+01	4.6202	14.489280	0.000274	2.736355	0.927102	-0.000110
 890	8.8456e+01	4.5737	14.364129	0.000314	3.141741	1.064451	-0.000126
 891	8.8555e+01	4.5368	14.271275	0.000233	2.330969	0.789754	-0.000093
 892	8.8654e+01	4.4999	14.150161	0.000304	3.040395	1.030114	-0.000122
 893	8.8754e+01	4.4534	14.033084	0.000294	2.939048	0.995776	-0.000118
 894	8.8853e+01	4.4229	13.916007	0.000294	2.939048	0.995776	-0.000118
 895	8.8953e+01	4.3731	13.819116	0.000243	2.432316	0.824091	-0.000097
 896	8.9052e+01	4.3394	13.702039	0.000294	2.939048	0.995776	-0.000118
 897	8.9152e+01	4.2929	13.605147	0.000243	2.432316	0.824091	-0.000097
 898	8.9251e+01	4.2512	13.484033	0.000304	3.040395	1.030114	-0.000122
 899	8.9351e+01	4.2143	13.334659	0.000375	3.749820	1.270473	-0.000150
 900	8.9451e+01	4.1806	13.225657	0.000274	2.736355	0.927102	-0.000110
 901	8.9550e+01	4.1405	13.100505	0.000314	3.141741	1.064451	-0.000126
 902	8.9650e+01	4.1036	12.979391	0.000304	3.040395	1.030114	-0.000122
 903	8.9749e+01	4.0603	12.830017	0.000375	3.749820	1.270473	-0.000150
 904	8.9849e+01	4.0138	12.696792	0.000334	3.344434	1.133125	-0.000134
 905	8.9948e+01	3.9721	12.579715	0.000294	2.939048	0.995776	-0.000118
 906	9.0047e+01	3.9448	12.442452	0.000345	3.445780	1.167462	-0.000138
 907	9.0147e+01	3.8951	12.365747	0.000193	1.925583	0.652405	-0.000077
 908	9.0246e+01	3.8502	12.232521	0.000334	3.344434	1.133125	-0.000134
 909	9.0346e+01	3.8245	12.087184	0.000365	3.648473	1.236136	-0.000146
 910	9.0445e+01	3.7844	11.978182	0.000274	2.736355	0.927102	-0.000110
 911	9.0545e+01	3.7395	11.937810	0.000101	1.013465	0.343371	-0.000041
 912	9.0644e+01	3.7090	11.800548	0.000345	3.445780	1.167462	-0.000138
 913	9.0744e+01	3.6609	11.703657	0.000243	2.432316	0.824091	-0.000097
 914	9.0844e+01	3.6191	11.550245	0.000385	3.851166	1.304810	-0.000154
 915	9.0943e+01	3.5823	11.441243	0.000274	2.736355	0.927102	-0.000110
 916	9.1043e+01	3.5405	11.328203	0.000284	2.837702	0.961439	-0.000114
 917	9.1142e+01	3.4956	11.247460	0.000203	2.026930	0.686742	-0.000081
 918	9.1242e+01	3.4635	11.114235	0.000334	3.344434	1.133125	-0.000134
 919	9.1341e+01	3.4170	10.940638	0.000436	4.357899	1.476496	-0.000174
 920	9.1441e+01	3.3817	10.758967	0.000456	4.560592	1.545170	-0.000183
 921	9.1540e+01	3.3448	10.690335	0.000172	1.722890	0.583731	-0.000069
 922	9.1639e+01	3.2999	10.565184	0.000314	3.141741	1.064451	-0.000126
 923	9.1739e+01	3.2566	10.427922	0.000345	3.445780	1.167462	-0.000138
 924	9.1838e+01	3.2261	10.298733	0.000324	3.243087	1.098788	-0.000130
 925	9.1938e+01	3.1860	10.230102	0.000172	1.722890	0.583731	-0.000069
 926	9.2037e+01	3.1491	10.068617	0.000405	4.053859	1.373485	-0.000162
 927	9.2137e+01	3.0962	9.975762	0.000233	2.330969	0.789754	-0.000093
 928	9.2237e+01	3.0641	9.903094	0.000182	1.824237	0.618068	-0.000073
 929	9.2336e+01	3.0256	9.777943	0.000314	3.141741	1.064451	-0.000126
 930	9.2436e+01	2.9839	9.640680	0.000345	3.445780	1.167462	-0.000138
 931	9.2535e+01	2.9566	9.563975	0.000193	1.925583	0.652405	-0.000077
 932	9.2635e+01	2.9069	9.422675	0.000355	3.547127	1.201799	-0.000142
 933	9.2734e+01	2.8555	9.281375	0.000355	3.547127	1.201799	-0.000142
 934	9.2834e+01	2.8299	9.172372	0.000274	2.736355	0.927102	-0.000110
 935	9.2933e+01	2.7849	9.051258	0.000304	3.040395	1.030114	-0.000122
 936	9.3032e+01	2.7464	8.938219	0.000284	2.837702	0.961439	-0.000114
 937	9.3132e+01	2.7063	8.764622	0.000436	4.357899	1.476496	-0.000174
 938	9.3231e+01	2.6598	8.635433	0.000324	3.243087	1.098788	-0.000130
 939	9.3331e+01	2.6261	8.502208	0.000334	3.344434	1.133125	-0.000134
 940	9.3430e+01	2.5908	8.405317	0.000243	2.432316	0.824091	-0.000097
 941	9.3530e+01	2.5427	8.276128	0.000324	3.243087	1.098788	-0.000130
 942	9.3629e+01	2.5074	8.142903	0.000334	3.344434	1.133125	-0.000134
 943	9.3729e+01	2.4625	8.050049	0.000233	2.330969	0.789754	-0.000093
 944	9.3829e+01	2.4272	7.924897	0.000314	3.141741	1.064451	-0.000126
 945	9.3928e+01	2.3887	7.836080	0.000223	2.229623	0.755417	-0.000089
 946	9.4028e+01	2.3454	7.719004	0.000294	2.939048	0.995776	-0.000118
 947	9.4127e+01	2.3069	7.614038	0.000264	2.635009	0.892765	-0.000105
 948	9.4227e+01	2.2620	7.513110	0.000253	2.533662	0.858428	-0.000101
 949	9.4326e+01	2.2283	7.371810	0.000355	3.547127	1.201799	-0.000142
 950	9.4425e+01	2.1834	7.258770	0.000284	2.837702	0.961439	-0.000114
 951	9.4525e+01	2.1449	7.117470	0.000355	3.547127	1.201799	-0.000142
 952	9.4624e+01	2.1031	7.004431	0.000284	2.837702	0.961439	-0.000114
 953	9.4724e+01	2.0711	6.879279	0.000314	3.141741	1.064451	-0.000126
 954	9.4823e+01	2.0261	6.689534	0.000476	4.763285	1.613845	-0.000191
 955	9.4923e+01	1.9828	6.596680	0.000233	2.330969	0.789754	-0.000093
 956	9.5022e+01	1.9524	6.451343	0.000365	3.648473	1.236136	-0.000146
 957	9.5122e+01	1.9187	6.342340	0.000274	2.736355	0.927102	-0.000110
 958	9.5222e+01	1.8593	6.249486	0.000233	2.330969	0.789754	-0.000093
 959	9.5321e+01	1.8272	6.120298	0.000324	3.243087	1.098788	-0.000130
 960	9.5421e+01	1.7919	5.978998	0.000355	3.547127	1.201799	-0.000142
 961	9.5520e+01	1.7454	5.890181	0.000223	2.229623	0.755417	-0.000089
 962	9.5620e+01	1.7117	5.801364	0.000223	2.229623	0.755417	-0.000089
 963	9.5719e+01	1.6652	5.664101	0.000345	3.445780	1.167462	-0.000138
 964	9.5819e+01	1.6299	5.575284	0.000223	2.229623	0.755417	-0.000089
 965	9.5918e+01	1.5818	5.462245	0.000284	2.837702	0.961439	-0.000114
 966	9.6017e+01	1.5513	5.316908	0.000365	3.648473	1.236136	-0.000146
 967	9.6117e+01	1.5048	5.215979	0.000253	2.533662	0.858428	-0.000101
 968	9.6216e+01	1.4743	5.058531	0.000395	3.952513	1.339148	-0.000158
 969	9.6316e+01	1.4262	4.937417	0.000304	3.040395	1.030114	-0.000122
 970	9.6415e+01	1.3893	4.788043	0.000375	3.749820	1.270473	-0.000150
 971	9.6515e+01	1.3588	4.662892	0.000314	3.141741	1.064451	-0.000126
 972	9.6615e+01	1.3123	4.541778	0.000304	3.040395	1.030114	-0.000122
 973	9.6714e+01	1.2706	4.372218	0.000426	4.256552	1.442159	-0.000170
 974	9.6814e+01	1.2369	4.291475	0.000203	2.026930	0.686742	-0.000081
 975	9.6913e+01	1.1903	4.182473	0.000274	2.736355	0.927102	-0.000110
 976	9.7013e+01	1.1583	4.065396	0.000294	2.939048	0.995776	-0.000118
 977	9.7112e+01	1.1053	3.952356	0.000284	2.837702	0.961439	-0.000114
 978	9.7212e+01	1.0780	3.875650	0.000193	1.925583	0.652405	-0.000077
 979	9.7311e+01	1.0315	3.762611	0.000284	2.837702	0.961439	-0.000114
 980	9.7410e+01	0.9850	3.625348	0.000345	3.445780	1.167462	-0.000138
 981	9.7510e+01	0.9481	3.540568	0.000213	2.128276	0.721079	-0.000085
 982	9.7609e+01	0.9144	3.395231	0.000365	3.648473	1.236136	-0.000146
 983	9.7709e+01	0.8711	3.237783	0.000395	3.952513	1.339148	-0.000158
 984	9.7808e+01	0.8342	3.157040	0.000203	2.026930	0.686742	-0.000081
 985	9.7908e+01	0.7925	3.064186	0.000233	2.330969	0.789754	-0.000093
 986	9.8007e+01	0.7668	2.874441	0.000476	4.763285	1.613845	-0.000191
 987	9.8107e+01	0.7027	2.757364	0.000294	2.939048	0.995776	-0.000118
 988	9.8207e+01	0.6802	2.644324	0.000284	2.837702	0.961439	-0.000114
 989	9.8306e+01	0.6401	2.507061	0.000345	3.445780	1.167462	-0.000138
 990	9.8406e+01	0.5888	2.377873	0.000324	3.243087	1.098788	-0.000130
 991	9.8505e+01	0.5583	2.240610	0.000345	3.445780	1.167462	-0.000138
 992	9.8605e+01	0.5118	2.099311	0.000355	3.547127	1.201799	-0.000142
 993	9.8704e+01	0.4813	1.966085	0.000334	3.344434	1.133125	-0.000134
 994	9.8803e+01	0.4380	1.921677	0.000111	1.114811	0.377708	-0.000045
 995	9.8903e+01	0.3962	1.800563	0.000304	3.040395	1.030114	-0.000122
 996	9.9002e+01	0.3561	1.715783	0.000213	2.128276	0.721079	-0.000085
 997	9.9102e+01	0.3144	1.562372	0.000385	3.851166	1.304810	-0.000154
 998	9.9201e+01	0.2791	1.497777	0.000162	1.621544	0.549394	-0.000065
 999	9.9301e+01	0.2310	1.368589	0.000324	3.243087	1.098788	-0.000130
1000	9.9400e+01	0.1941	1.247475	0.000304	3.040395	1.030114	-0.000122
1001	9.9500e+01	0.1508	1.118287	0.000324	3.243087	1.098788	-0.000130
1002	9.9600e+01	0.1187	1.005247	0.000284	2.837702	0.961439	-0.000114
1003	9.9699e+01	0.0802	0.851836	0.000385	3.851166	1.304810	-0.000154
1004	9.9799e+01	0.0321	0.718610	0.000334	3.344434	1.133125	-0.000134
1005	9.9898e+01	0.0064	0.585385	0.000334	3.344434	1.133125	-0.000134
1006	9.9998e+01	-0.0321	0.496568	0.000223	2.229623	0.755417	-0.000089
1007	1.0010e+02	-0.0754	0.363342	0.000334	3.344434	1.133125	-0.000134
1008	1.0020e+02	-0.1203	0.230117	0.000334	3.344434	1.133125	-0.000134
1009	1.0030e+02	-0.1540	0.076706	0.000385	3.851166	1.304810	-0.000154
1010	1.0040e+02	-0.1925	0.024223	0.000132	1.317504	0.446383	-0.000053
1011	1.0050e+02	-0.2342	-0.088817	0.000284	2.837702	0.961439	-0.000114
1012	1.0059e+02	-0.2839	-0.189745	0.000253	2.533662	0.858428	-0.000101
1013	1.0069e+02	-0.3225	-0.302785	0.000284	2.837702	0.961439	-0.000114
1014	1.0079e+02	-0.3577	-0.419862	0.000294	2.939048	0.995776	-0.000118
1015	1.0089e+02	-0.3866	-0.565199	0.000365	3.648473	1.236136	-0.000146
1016	1.0099e+02	-0.4380	-0.641905	0.000193	1.925583	0.652405	-0.000077
1017	1.0109e+02	-0.4877	-0.787241	0.000365	3.648473	1.236136	-0.000146
1018	1.0119e+02	-0.5166	-0.896244	0.000274	2.736355	0.927102	-0.000110
1019	1.0129e+02	-0.5454	-1.021395	0.000314	3.141741	1.064451	-0.000126
1020	1.0139e+02	-0.5920	-1.130398	0.000274	2.736355	0.927102	-0.000110
1021	1.0149e+02	-0.6369	-1.295921	0.000416	4.155206	1.407822	-0.000166
1022	1.0159e+02	-0.6706	-1.465480	0.000426	4.256552	1.442159	-0.000170
1023	1.0169e+02	-0.7075	-1.513926	0.000122	1.216158	0.412045	-0.000049
1024	1.0179e+02	-0.7492	-1.679448	0.000416	4.155206	1.407822	-0.000166
1025	1.0189e+02	-0.7893	-1.796525	0.000294	2.939048	0.995776	-0.000118
1026	1.0199e+02	-0.8342	-1.893417	0.000243	2.432316	0.824091	-0.000097
1027	1.0209e+02	-0.8711	-2.034716	0.000355	3.547127	1.201799	-0.000142
1028	1.0219e+02	-0.9160	-2.196202	0.000405	4.053859	1.373485	-0.000162
1029	1.0229e+02	-0.9497	-2.236573	0.000101	1.013465	0.343371	-0.000041
1030	1.0239e+02	-0.9882	-2.398059	0.000405	4.053859	1.373485	-0.000162
1031	1.0248e+02	-1.0379	-2.454579	0.000142	1.418851	0.480720	-0.000057
1032	1.0258e+02	-1.0748	-2.587804	0.000334	3.344434	1.133125	-0.000134
1033	1.0268e+02	-1.1198	-2.704881	0.000294	2.939048	0.995776	-0.000118
1034	1.0278e+02	-1.1454	-2.793698	0.000223	2.229623	0.755417	-0.000089
1035	1.0288e+02	-1.2016	-2.963258	0.000426	4.256552	1.442159	-0.000170
1036	1.0298e+02	-1.2272	-3.076297	0.000284	2.837702	0.961439	-0.000114
1037	1.0308e+02	-1.2786	-3.185300	0.000274	2.736355	0.927102	-0.000110
1038	1.0318e+02	-1.3155	-3.322563	0.000345	3.445780	1.167462	-0.000138
1039	1.0328e+02	-1.3492	-3.488085	0.000416	4.155206	1.407822	-0.000166
1040	1.0338e+02	-1.3845	-3.576902	0.000223	2.229623	0.755417	-0.000089
1041	1.0348e+02	-1.4230	-3.689942	0.000284	2.837702	0.961439	-0.000114
1042	1.0358e+02	-1.4791	-3.823168	0.000334	3.344434	1.133125	-0.000134
1043	1.0368e+02	-1.5144	-3.984653	0.000405	4.053859	1.373485	-0.000162
1044	1.0378e+02	-1.5401	-4.105767	0.000304	3.040395	1.030114	-0.000122
1045	1.0388e+02	-1.6042	-4.174398	0.000172	1.722890	0.583731	-0.000069
1046	1.0398e+02	-1.6315	-4.287438	0.000284	2.837702	0.961439	-0.000114
1047	1.0408e+02	-1.6764	-4.380292	0.000233	2.330969	0.789754	-0.000093
1048	1.0418e+02	-1.7053	-4.501406	0.000304	3.040395	1.030114	-0.000122
1049	1.0428e+02	-1.7550	-4.654818	0.000385	3.851166	1.304810	-0.000154
1050	1.0438e+02	-1.7951	-4.735560	0.000203	2.026930	0.686742	-0.000081
1051	1.0447e+02	-1.8256	-4.888971	0.000385	3.851166	1.304810	-0.000154
1052	1.0457e+02	-1.8689	-4.985863	0.000243	2.432316	0.824091	-0.000097
1053	1.0467e+02	-1.9090	-5.102940	0.000294	2.939048	0.995776	-0.000118
1054	1.0477e+02	-1.9556	-5.211942	0.000274	2.736355	0.927102	-0.000110
1055	1.0487e+02	-1.9909	-5.353242	0.000355	3.547127	1.201799	-0.000142
1056	1.0497e+02	-2.0278	-5.542987	0.000476	4.763285	1.613845	-0.000191
1057	1.0507e+02	-2.0743	-5.660064	0.000294	2.939048	0.995776	-0.000118
1058	1.0517e+02	-2.1096	-5.769067	0.000274	2.736355	0.927102	-0.000110
1059	1.0527e+02	-2.1449	-5.886144	0.000294	2.939048	0.995776	-0.000118
1060	1.0537e+02	-2.1834	-5.974961	0.000223	2.229623	0.755417	-0.000089
1061	1.0547e+02	-2.2315	-6.124335	0.000375	3.749820	1.270473	-0.000150
1062	1.0557e+02	-2.2764	-6.209115	0.000213	2.128276	0.721079	-0.000085
1063	1.0567e+02	-2.3101	-6.318117	0.000274	2.736355	0.927102	-0.000110
1064	1.0577e+02	-2.3470	-6.487677	0.000426	4.256552	1.442159	-0.000170
1065	1.0587e+02	-2.3855	-6.580531	0.000233	2.330969	0.789754	-0.000093
1066	1.0597e+02	-2.4288	-6.689534	0.000274	2.736355	0.927102	-0.000110
1067	1.0607e+02	-2.4673	-6.810648	0.000304	3.040395	1.030114	-0.000122
1068	1.0617e+02	-2.5106	-6.891391	0.000203	2.026930	0.686742	-0.000081
1069	1.0627e+02	-2.5507	-6.976171	0.000213	2.128276	0.721079	-0.000085
1070	1.0637e+02	-2.5844	-7.149767	0.000436	4.357899	1.476496	-0.000174
1071	1.0647e+02	-2.6245	-7.282993	0.000334	3.344434	1.133125	-0.000134
1072	1.0656e+02	-2.6775	-7.396033	0.000284	2.837702	0.961439	-0.000114
1073	1.0666e+02	-2.7047	-7.525221	0.000324	3.243087	1.098788	-0.000130
1074	1.0676e+02	-2.7593	-7.678632	0.000385	3.851166	1.304810	-0.000154
1075	1.0686e+02	-2.7914	-7.803783	0.000314	3.141741	1.064451	-0.000126
1076	1.0696e+02	-2.8251	-7.892600	0.000223	2.229623	0.755417	-0.000089
1077	1.0706e+02	-2.8668	-8.009677	0.000294	2.939048	0.995776	-0.000118
1078	1.0716e+02	-2.9053	-8.159051	0.000375	3.749820	1.270473	-0.000150
1079	1.0726e+02	-2.9502	-8.268054	0.000274	2.736355	0.927102	-0.000110
1080	1.0736e+02	-2.9871	-8.364945	0.000243	2.432316	0.824091	-0.000097
1081	1.0746e+02	-3.0352	-8.486059	0.000304	3.040395	1.030114	-0.000122
1082	1.0756e+02	-3.0641	-8.599099	0.000284	2.837702	0.961439	-0.000114
1083	1.0766e+02	-3.1010	-8.679842	0.000203	2.026930	0.686742	-0.000081
1084	1.0776e+02	-3.1507	-8.817104	0.000345	3.445780	1.167462	-0.000138
1085	1.0786e+02	-3.1828	-8.918033	0.000253	2.533662	0.858428	-0.000101
1086	1.0796e+02	-3.2309	-9.031073	0.000284	2.837702	0.961439	-0.000114
1087	1.0806e+02	-3.2742	-9.148150	0.000294	2.939048	0.995776	-0.000118
1088	1.0816e+02	-3.3031	-9.305598	0.000395	3.952513	1.339148	-0.000158
1089	1.0826e+02	-3.3368	-9.390378	0.000213	2.128276	0.721079	-0.000085
1090	1.0836e+02	-3.3817	-9.503418	0.000284	2.837702	0.961439	-0.000114
1091	1.0845e+02	-3.4282	-9.660866	0.000395	3.952513	1.339148	-0.000158
1092	1.0855e+02	-3.4587	-9.777943	0.000294	2.939048	0.995776	-0.000118
1093	1.0865e+02	-3.4988	-9.951540	0.000436	4.357899	1.476496	-0.000174
1094	1.0875e+02	-3.5421	-10.064579	0.000284	2.837702	0.961439	-0.000114
1095	1.0885e+02	-3.5758	-10.185693	0.000304	3.040395	1.030114	-0.000122
1096	1.0895e+02	-3.6288	-10.282585	0.000243	2.432316	0.824091	-0.000097
1097	1.0905e+02	-3.6625	-10.387550	0.000264	2.635009	0.892765	-0.000105
1098	1.0915e+02	-3.7154	-10.480404	0.000233	2.330969	0.789754	-0.000093
1099	1.0925e+02	-3.7491	-10.641890	0.000405	4.053859	1.373485	-0.000162
1100	1.0935e+02	-3.7876	-10.730707	0.000223	2.229623	0.755417	-0.000089
1101	1.0945e+02	-3.8325	-10.815487	0.000213	2.128276	0.721079	-0.000085
1102	1.0955e+02	-3.8678	-10.936601	0.000304	3.040395	1.030114	-0.000122
1103	1.0965e+02	-3.9111	-11.049641	0.000284	2.837702	0.961439	-0.000114
1104	1.0975e+02	-3.9464	-11.170755	0.000304	3.040395	1.030114	-0.000122
1105	1.0985e+02	-3.9833	-11.271683	0.000253	2.533662	0.858428	-0.000101
1106	1.0995e+02	-4.0282	-11.400871	0.000324	3.243087	1.098788	-0.000130
1107	1.1005e+02	-4.0667	-11.530060	0.000324	3.243087	1.098788	-0.000130
1108	1.1015e+02	-4.1004	-11.687508	0.000395	3.952513	1.339148	-0.000158
1109	1.1025e+02	-4.1357	-11.812659	0.000314	3.141741	1.064451	-0.000126
1110	1.1035e+02	-4.1774	-11.921662	0.000274	2.736355	0.927102	-0.000110
1111	1.1044e+02	-4.2159	-12.034702	0.000284	2.837702	0.961439	-0.000114
1112	1.1054e+02	-4.2560	-12.171964	0.000345	3.445780	1.167462	-0.000138
1113	1.1064e+02	-4.3042	-12.264818	0.000233	2.330969	0.789754	-0.000093
1114	1.1074e+02	-4.3475	-12.373821	0.000274	2.736355	0.927102	-0.000110
1115	1.1084e+02	-4.3876	-12.515121	0.000355	3.547127	1.201799	-0.000142
1116	1.1094e+02	-4.4181	-12.607975	0.000233	2.330969	0.789754	-0.000093
1117	1.1104e+02	-4.4598	-12.688718	0.000203	2.026930	0.686742	-0.000081
1118	1.1114e+02	-4.4951	-12.817906	0.000324	3.243087	1.098788	-0.000130
1119	1.1124e+02	-4.5336	-12.959206	0.000355	3.547127	1.201799	-0.000142
1120	1.1134e+02	-4.5897	-13.039948	0.000203	2.026930	0.686742	-0.000081
1121	1.1144e+02	-4.6186	-13.181248	0.000355	3.547127	1.201799	-0.000142
1122	1.1154e+02	-4.6651	-13.237768	0.000142	1.418851	0.480720	-0.000057
1123	1.1164e+02	-4.6988	-13.383105	0.000365	3.648473	1.236136	-0.000146
1124	1.1174e+02	-4.7421	-13.524405	0.000355	3.547127	1.201799	-0.000142
1125	1.1184e+02	-4.7774	-13.593036	0.000172	1.722890	0.583731	-0.000069
1126	1.1194e+02	-4.8175	-13.746447	0.000385	3.851166	1.304810	-0.000154
1127	1.1204e+02	-4.8576	-13.891784	0.000365	3.648473	1.236136	-0.000146
1128	1.1214e+02	-4.9041	-14.041158	0.000375	3.749820	1.270473	-0.000150
1129	1.1224e+02	-4.9298	-14.138049	0.000243	2.432316	0.824091	-0.000097
1130	1.1234e+02	-4.9795	-14.238978	0.000253	2.533662	0.858428	-0.000101
1131	1.1244e+02	-5.0196	-14.356055	0.000294	2.939048	0.995776	-0.000118
1132	1.1253e+02	-5.0614	-14.489280	0.000334	3.344434	1.133125	-0.000134
1133	1.1263e+02	-5.1031	-14.618469	0.000324	3.243087	1.098788	-0.000130
1134	1.1273e+02	-5.1384	-14.711323	0.000233	2.330969	0.789754	-0.000093
1135	1.1283e+02	-5.1801	-14.824362	0.000284	2.837702	0.961439	-0.000114
1136	1.1293e+02	-5.2170	-14.925291	0.000253	2.533662	0.858428	-0.000101
1137	1.1303e+02	-5.2635	-15.022182	0.000243	2.432316	0.824091	-0.000097
1138	1.1313e+02	-5.2972	-15.102925	0.000203	2.026930	0.686742	-0.000081
1139	1.1323e+02	-5.3405	-15.252299	0.000375	3.749820	1.270473	-0.000150
1140	1.1333e+02	-5.3742	-15.333042	0.000203	2.026930	0.686742	-0.000081
1141	1.1343e+02	-5.4127	-15.486453	0.000385	3.851166	1.304810	-0.000154
1142	1.1353e+02	-5.4528	-15.575270	0.000223	2.229623	0.755417	-0.000089
1143	1.1363e+02	-5.4977	-15.728681	0.000385	3.851166	1.304810	-0.000154
1144	1.1373e+02	-5.5346	-15.894203	0.000416	4.155206	1.407822	-0.000166
1145	1.1383e+02	-5.5699	-16.003206	0.000274	2.736355	0.927102	-0.000110
1146	1.1393e+02	-5.6132	-16.067800	0.000162	1.621544	0.549394	-0.000065
1147	1.1403e+02	-5.6533	-16.213137	0.000365	3.648473	1.236136	-0.000146
1148	1.1413e+02	-5.7030	-16.318103	0.000264	2.635009	0.892765	-0.000105
1149	1.1423e+02	-5.7319	-16.423068	0.000264	2.635009	0.892765	-0.000105
1150	1.1433e+02	-5.7704	-16.552257	0.000324	3.243087	1.098788	-0.000130
1151	1.1442e+02	-5.8137	-16.665296	0.000284	2.837702	0.961439	-0.000114
1152	1.1452e+02	-5.8603	-16.758150	0.000233	2.330969	0.789754	-0.000093
1153	1.1462e+02	-5.8891	-16.846967	0.000223	2.229623	0.755417	-0.000089
1154	1.1472e+02	-5.9373	-16.964044	0.000294	2.939048	0.995776	-0.000118
1155	1.1482e+02	-5.9742	-17.097270	0.000334	3.344434	1.133125	-0.000134
1156	1.1492e+02	-6.0062	-17.178013	0.000203	2.026930	0.686742	-0.000081
1157	1.1502e+02	-6.0560	-17.254718	0.000193	1.925583	0.652405	-0.000077
1158	1.1512e+02	-6.0993	-17.408129	0.000385	3.851166	1.304810	-0.000154
1159	1.1522e+02	-6.1282	-17.569615	0.000405	4.053859	1.373485	-0.000162
1160	1.1532e+02	-6.1763	-17.658432	0.000223	2.229623	0.755417	-0.000089
1161	1.1542e+02	-6.2164	-17.811843	0.000385	3.851166	1.304810	-0.000154
1162	1.1552e+02	-6.2533	-17.941031	0.000324	3.243087	1.098788	-0.000130
1163	1.1562e+02	-6.2966	-18.009663	0.000172	1.722890	0.583731	-0.000069
1164	1.1572e+02	-6.3319	-18.179222	0.000426	4.256552	1.442159	-0.000170
1165	1.1582e+02	-6.3768	-18.251891	0.000182	1.824237	0.618068	-0.000073
1166	1.1592e+02	-6.4137	-18.409339	0.000395	3.952513	1.339148	-0.000158
1167	1.1602e+02	-6.4522	-18.482007	0.000182	1.824237	0.618068	-0.000073
1168	1.1612e+02	-6.4955	-18.603121	0.000304	3.040395	1.030114	-0.000122
1169	1.1622e+02	-6.5276	-18.720198	0.000294	2.939048	0.995776	-0.000118
1170	1.1632e+02	-6.5693	-18.800941	0.000203	2.026930	0.686742	-0.000081
1171	1.1642e+02	-6.6062	-18.865535	0.000162	1.621544	0.549394	-0.000065
1172	1.1651e+02	-6.6463	-18.982612	0.000294	2.939048	0.995776	-0.000118
1173	1.1661e+02	-6.6977	-19.119875	0.000345	3.445780	1.167462	-0.000138
1174	1.1671e+02	-6.7330	-19.172358	0.000132	1.317504	0.446383	-0.000053
1175	1.1681e+02	-6.7570	-19.329806	0.000395	3.952513	1.339148	-0.000158
1176	1.1691e+02	-6.8148	-19.475143	0.000365	3.648473	1.236136	-0.000146
1177	1.1701e+02	-6.8453	-19.588183	0.000284	2.837702	0.961439	-0.000114
1178	1.1711e+02	-6.8838	-19.733519	0.000365	3.648473	1.236136	-0.000146
1179	1.1721e+02	-6.9239	-19.830411	0.000243	2.432316	0.824091	-0.000097
1180	1.1731e+02	-6.9656	-19.967673	0.000345	3.445780	1.167462	-0.000138
1181	1.1741e+02	-7.0089	-20.056490	0.000223	2.229623	0.755417	-0.000089
1182	1.1751e+02	-7.0426	-20.177604	0.000304	3.040395	1.030114	-0.000122
1183	1.1761e+02	-7.0843	-20.298718	0.000304	3.040395	1.030114	-0.000122
1184	1.1771e+02	-7.1308	-20.407721	0.000274	2.736355	0.927102	-0.000110
1185	1.1781e+02	-7.1661	-20.524798	0.000294	2.939048	0.995776	-0.000118
1186	1.1791e+02	-7.2062	-20.605541	0.000203	2.026930	0.686742	-0.000081
1187	1.1801e+02	-7.2495	-20.698395	0.000233	2.330969	0.789754	-0.000093
1188	1.1811e+02	-7.2848	-20.795286	0.000243	2.432316	0.824091	-0.000097
1189	1.1821e+02	-7.3281	-20.916400	0.000304	3.040395	1.030114	-0.000122
1190	1.1831e+02	-7.3650	-21.001180	0.000213	2.128276	0.721079	-0.000085
1191	1.1841e+02	-7.4148	-21.130368	0.000324	3.243087	1.098788	-0.000130
1192	1.1850e+02	-7.4485	-21.283780	0.000385	3.851166	1.304810	-0.000154
1193	1.1860e+02	-7.4886	-21.412968	0.000324	3.243087	1.098788	-0.000130
1194	1.1870e+02	-7.5255	-21.509859	0.000243	2.432316	0.824091	-0.000097
1195	1.1880e+02	-7.5591	-21.602713	0.000233	2.330969	0.789754	-0.000093
1196	1.1890e+02	-7.6089	-21.731902	0.000324	3.243087	1.098788	-0.000130
1197	1.1900e+02	-7.6410	-21.824756	0.000233	2.330969	0.789754	-0.000093
1198	1.1910e+02	-7.6891	-21.945870	0.000304	3.040395	1.030114	-0.000122
1199	1.1920e+02	-7.7180	-22.075058	0.000324	3.243087	1.098788	-0.000130
1200	1.1930e+02	-7.7693	-22.163875	0.000223	2.229623	0.755417	-0.000089
1201	1.1940e+02	-7.8094	-22.293064	0.000324	3.243087	1.098788	-0.000130
1202	1.1950e+02	-7.8479	-22.410140	0.000294	2.939048	0.995776	-0.000118
1203	1.1960e+02	-7.8800	-22.498957	0.000223	2.229623	0.755417	-0.000089
1204	1.1970e+02	-7.9217	-22.575663	0.000193	1.925583	0.652405	-0.000077
1205	1.1980e+02	-7.9666	-22.680629	0.000264	2.635009	0.892765	-0.000105
1206	1.1990e+02	-8.0067	-22.797706	0.000294	2.939048	0.995776	-0.000118
1207	1.2000e+02	-8.0388	-22.914782	0.000294	2.939048	0.995776	-0.000118
1208	1.2010e+02	-8.0789	-23.031859	0.000294	2.939048	0.995776	-0.000118
1209	1.2020e+02	-8.1206	-23.189308	0.000395	3.952513	1.339148	-0.000158
1210	1.2030e+02	-8.1655	-23.278125	0.000223	2.229623	0.755417	-0.000089
1211	1.2039e+02	-8.2040	-23.403276	0.000314	3.141741	1.064451	-0.000126
1212	1.2049e+02	-8.2570	-23.532464	0.000324	3.243087	1.098788	-0.000130
1213	1.2059e+02	-8.2875	-23.605133	0.000182	1.824237	0.618068	-0.000073
1214	1.2069e+02	-8.3308	-23.722210	0.000294	2.939048	0.995776	-0.000118
1215	1.2079e+02	-8.3532	-23.802952	0.000203	2.026930	0.686742	-0.000081
1216	1.2089e+02	-8.4046	-23.911955	0.000274	2.736355	0.927102	-0.000110
1217	1.2099e+02	-8.4447	-24.020958	0.000274	2.736355	0.927102	-0.000110
1218	1.2109e+02	-8.4944	-24.150146	0.000324	3.243087	1.098788	-0.000130
1219	1.2119e+02	-8.5281	-24.255112	0.000264	2.635009	0.892765	-0.000105
1220	1.2129e+02	-8.5666	-24.364114	0.000274	2.736355	0.927102	-0.000110
1221	1.2139e+02	-8.6051	-24.440820	0.000193	1.925583	0.652405	-0.000077
1222	1.2149e+02	-8.6340	-24.557897	0.000294	2.939048	0.995776	-0.000118
1223	1.2159e+02	-8.6837	-24.695159	0.000345	3.445780	1.167462	-0.000138
1224	1.2169e+02	-8.7254	-24.796088	0.000253	2.533662	0.858428	-0.000101
1225	1.2179e+02	-8.7623	-24.880868	0.000213	2.128276	0.721079	-0.000085
1226	1.2189e+02	-8.8040	-25.066576	0.000466	4.661938	1.579507	-0.000187
1227	1.2199e+02	-8.8313	-25.119059	0.000132	1.317504	0.446383	-0.000053
1228	1.2209e+02	-8.8778	-25.268433	0.000375	3.749820	1.270473	-0.000150
1229	1.2219e+02	-8.9324	-25.397621	0.000324	3.243087	1.098788	-0.000130
1230	1.2229e+02	-8.9532	-25.458178	0.000152	1.520197	0.515057	-0.000061
1231	1.2239e+02	-9.0110	-25.567181	0.000274	2.736355	0.927102	-0.000110
1232	1.2248e+02	-9.0366	-25.676183	0.000274	2.736355	0.927102	-0.000110
1233	1.2258e+02	-9.0767	-25.805372	0.000324	3.243087	1.098788	-0.000130
1234	1.2268e+02	-9.1281	-25.902263	0.000243	2.432316	0.824091	-0.000097
1235	1.2278e+02	-9.1618	-26.015303	0.000284	2.837702	0.961439	-0.000114
1236	1.2288e+02	-9.2003	-26.124305	0.000274	2.736355	0.927102	-0.000110
1237	1.2298e+02	-9.2468	-26.253494	0.000324	3.243087	1.098788	-0.000130
1238	1.2308e+02	-9.2757	-26.354422	0.000253	2.533662	0.858428	-0.000101
1239	1.2318e+02	-9.3238	-26.439202	0.000213	2.128276	0.721079	-0.000085
1240	1.2328e+02	-9.3607	-26.580502	0.000355	3.547127	1.201799	-0.000142
1241	1.2338e+02	-9.3976	-26.657207	0.000193	1.925583	0.652405	-0.000077
1242	1.2348e+02	-9.4409	-26.770247	0.000284	2.837702	0.961439	-0.000114
1243	1.2358e+02	-9.4714	-26.891361	0.000304	3.040395	1.030114	-0.000122
1244	1.2368e+02	-9.5195	-26.980178	0.000223	2.229623	0.755417	-0.000089
1245	1.2378e+02	-9.5596	-27.101292	0.000304	3.040395	1.030114	-0.000122
1246	1.2388e+02	-9.5981	-27.198183	0.000243	2.432316	0.824091	-0.000097
1247	1.2398e+02	-9.6398	-27.303149	0.000264	2.635009	0.892765	-0.000105
1248	1.2408e+02	-9.6799	-27.412152	0.000274	2.736355	0.927102	-0.000110
1249	1.2418e+02	-9.7200	-27.500969	0.000223	2.229623	0.755417	-0.000089
1250	1.2428e+02	-9.7569	-27.642268	0.000355	3.547127	1.201799	-0.000142
1251	1.2438e+02	-9.8083	-27.702825	0.000152	1.520197	0.515057	-0.000061
1252	1.2447e+02	-9.8356	-27.811828	0.000274	2.736355	0.927102	-0.000110
1253	1.2457e+02	-9.8853	-27.936979	0.000314	3.141741	1.064451	-0.000126
1254	1.2467e+02	-9.9126	-28.086353	0.000375	3.749820	1.270473	-0.000150
1255	1.2477e+02	-9.9462	-28.175170	0.000223	2.229623	0.755417	-0.000089
1256	1.2487e+02	-9.9928	-28.304359	0.000324	3.243087	1.098788	-0.000130
1257	1.2497e+02	-10.0361	-28.372990	0.000172	1.722890	0.583731	-0.000069
1258	1.2507e+02	-10.0762	-28.486030	0.000284	2.837702	0.961439	-0.000114
1259	1.2517e+02	-10.1211	-28.578884	0.000233	2.330969	0.789754	-0.000093
1260	1.2527e+02	-10.1596	-28.643478	0.000162	1.621544	0.549394	-0.000065
1261	1.2537e+02	-10.1933	-28.772666	0.000324	3.243087	1.098788	-0.000130
1262	1.2547e+02	-10.2382	-28.893780	0.000304	3.040395	1.030114	-0.000122
1263	1.2557e+02	-10.2863	-29.051229	0.000395	3.952513	1.339148	-0.000158
1264	1.2567e+02	-10.3184	-29.160231	0.000274	2.736355	0.927102	-0.000110
1265	1.2577e+02	-10.3505	-29.220788	0.000152	1.520197	0.515057	-0.000061
1266	1.2587e+02	-10.3938	-29.337865	0.000294	2.939048	0.995776	-0.000118
1267	1.2597e+02	-10.4403	-29.438794	0.000253	2.533662	0.858428	-0.000101
1268	1.2607e+02	-10.4885	-29.559908	0.000304	3.040395	1.030114	-0.000122
1269	1.2617e+02	-10.5190	-29.640651	0.000203	2.026930	0.686742	-0.000081
1270	1.2627e+02	-10.5510	-29.757728	0.000294	2.939048	0.995776	-0.000118
1271	1.2636e+02	-10.5879	-29.870767	0.000284	2.837702	0.961439	-0.000114
1272	1.2646e+02	-10.6313	-29.999956	0.000324	3.243087	1.098788	-0.000130
1273	1.2656e+02	-10.6810	-30.108958	0.000274	2.736355	0.927102	-0.000110
1274	1.2666e+02	-10.7195	-30.157404	0.000122	1.216158	0.412045	-0.000049
1275	1.2676e+02	-10.7500	-30.306778	0.000375	3.749820	1.270473	-0.000150
1276	1.2686e+02	-10.7997	-30.347149	0.000101	1.013465	0.343371	-0.000041
1277	1.2696e+02	-10.8254	-30.468263	0.000304	3.040395	1.030114	-0.000122
1278	1.2706e+02	-10.8815	-30.605526	0.000345	3.445780	1.167462	-0.000138
1279	1.2716e+02	-10.9088	-30.694343	0.000223	2.229623	0.755417	-0.000089
1280	1.2726e+02	-10.9489	-30.819494	0.000314	3.141741	1.064451	-0.000126
1281	1.2736e+02	-10.9922	-30.912348	0.000233	2.330969	0.789754	-0.000093
1282	1.2746e+02	-11.0371	-31.005202	0.000233	2.330969	0.789754	-0.000093
1283	1.2756e+02	-11.0788	-31.138428	0.000334	3.344434	1.133125	-0.000134
1284	1.2766e+02	-11.1157	-31.223208	0.000213	2.128276	0.721079	-0.000085
1285	1.2776e+02	-11.1558	-31.320099	0.000243	2.432316	0.824091	-0.000097
1286	1.2786e+02	-11.1863	-31.469473	0.000375	3.749820	1.270473	-0.000150
1287	1.2796e+02	-11.2296	-31.550216	0.000203	2.026930	0.686742	-0.000081
1288	1.2806e+02	-11.2681	-31.679404	0.000324	3.243087	1.098788	-0.000130
1289	1.2816e+02	-11.3098	-31.784370	0.000264	2.635009	0.892765	-0.000105
1290	1.2826e+02	-11.3580	-31.905484	0.000304	3.040395	1.030114	-0.000122
1291	1.2835e+02	-11.3868	-31.966041	0.000152	1.520197	0.515057	-0.000061
1292	1.2845e+02	-11.4221	-32.083118	0.000294	2.939048	0.995776	-0.000118
1293	1.2855e+02	-11.4751	-32.167898	0.000213	2.128276	0.721079	-0.000085
1294	1.2865e+02	-11.5088	-32.268826	0.000253	2.533662	0.858428	-0.000101
1295	1.2875e+02	-11.5569	-32.385903	0.000294	2.939048	0.995776	-0.000118
1296	1.2885e+02	-11.5954	-32.482794	0.000243	2.432316	0.824091	-0.000097
1297	1.2895e+02	-11.6355	-32.567574	0.000213	2.128276	0.721079	-0.000085
1298	1.2905e+02	-11.6724	-32.704837	0.000345	3.445780	1.167462	-0.000138
1299	1.2915e+02	-11.7141	-32.797691	0.000233	2.330969	0.789754	-0.000093
1300	1.2925e+02	-11.7510	-32.894582	0.000243	2.432316	0.824091	-0.000097
1301	1.2935e+02	-11.7943	-33.019733	0.000314	3.141741	1.064451	-0.000126
1302	1.2945e+02	-11.8328	-33.124699	0.000264	2.635009	0.892765	-0.000105
1303	1.2955e+02	-11.8681	-33.217553	0.000233	2.330969	0.789754	-0.000093
1304	1.2965e+02	-11.9066	-33.362890	0.000365	3.648473	1.236136	-0.000146
1305	1.2975e+02	-11.9547	-33.459781	0.000243	2.432316	0.824091	-0.000097
1306	1.2985e+02	-11.9868	-33.576858	0.000294	2.939048	0.995776	-0.000118
1307	1.2995e+02	-12.0285	-33.657601	0.000203	2.026930	0.686742	-0.000081
1308	1.3005e+02	-12.0670	-33.714121	0.000142	1.418851	0.480720	-0.000057
1309	1.3015e+02	-12.0991	-33.831197	0.000294	2.939048	0.995776	-0.000118
1310	1.3025e+02	-12.1473	-33.899829	0.000172	1.722890	0.583731	-0.000069
1311	1.3034e+02	-12.1954	-34.045166	0.000365	3.648473	1.236136	-0.000146
1312	1.3044e+02	-12.2323	-34.125908	0.000203	2.026930	0.686742	-0.000081
1313	1.3054e+02	-12.2660	-34.226837	0.000253	2.533662	0.858428	-0.000101
1314	1.3064e+02	-12.3045	-34.351988	0.000314	3.141741	1.064451	-0.000126
1315	1.3074e+02	-12.3398	-34.416582	0.000162	1.621544	0.549394	-0.000065
1316	1.3084e+02	-12.3879	-34.529622	0.000284	2.837702	0.961439	-0.000114
1317	1.3094e+02	-12.4344	-34.654773	0.000314	3.141741	1.064451	-0.000126
1318	1.3104e+02	-12.4665	-34.735516	0.000203	2.026930	0.686742	-0.000081
1319	1.3114e+02	-12.5066	-34.868741	0.000334	3.344434	1.133125	-0.000134
1320	1.3124e+02	-12.5531	-34.993893	0.000314	3.141741	1.064451	-0.000126
1321	1.3134e+02	-12.5916	-35.110970	0.000294	2.939048	0.995776	-0.000118
1322	1.3144e+02	-12.6221	-35.215935	0.000264	2.635009	0.892765	-0.000105
1323	1.3154e+02	-12.6526	-35.312826	0.000243	2.432316	0.824091	-0.000097
1324	1.3164e+02	-12.7103	-35.421829	0.000274	2.736355	0.927102	-0.000110
1325	1.3174e+02	-12.7488	-35.450089	0.000071	0.709425	0.240360	-0.000028
1326	1.3184e+02	-12.7954	-35.555054	0.000264	2.635009	0.892765	-0.000105
1327	1.3194e+02	-12.8242	-35.643871	0.000223	2.229623	0.755417	-0.000089
1328	1.3204e+02	-12.8756	-35.720577	0.000193	1.925583	0.652405	-0.000077
1329	1.3214e+02	-12.9125	-35.849765	0.000324	3.243087	1.098788	-0.000130
1330	1.3224e+02	-12.9381	-35.942619	0.000233	2.330969	0.789754	-0.000093
1331	1.3234e+02	-12.9750	-36.019325	0.000193	1.925583	0.652405	-0.000077
1332	1.3243e+02	-13.0216	-36.104105	0.000213	2.128276	0.721079	-0.000085
1333	1.3253e+02	-13.0633	-36.241368	0.000345	3.445780	1.167462	-0.000138
1334	1.3263e+02	-13.0986	-36.370556	0.000324	3.243087	1.098788	-0.000130
1335	1.3273e+02	-13.1306	-36.511856	0.000355	3.547127	1.201799	-0.000142
1336	1.3283e+02	-13.1756	-36.604710	0.000233	2.330969	0.789754	-0.000093
1337	1.3293e+02	-13.2269	-36.709675	0.000264	2.635009	0.892765	-0.000105
1338	1.3303e+02	-13.2686	-36.814641	0.000264	2.635009	0.892765	-0.000105
1339	1.3313e+02	-13.3007	-36.895384	0.000203	2.026930	0.686742	-0.000081
1340	1.3323e+02	-13.3392	-37.028609	0.000334	3.344434	1.133125	-0.000134
1341	1.3333e+02	-13.3793	-37.113389	0.000213	2.128276	0.721079	-0.000085
1342	1.3343e+02	-13.4178	-37.157797	0.000111	1.114811	0.377708	-0.000045
1343	1.3353e+02	-13.4531	-37.274874	0.000294	2.939048	0.995776	-0.000118
1344	1.3363e+02	-13.5012	-37.400025	0.000314	3.141741	1.064451	-0.000126
1345	1.3373e+02	-13.5461	-37.476731	0.000193	1.925583	0.652405	-0.000077
1346	1.3383e+02	-13.5814	-37.549399	0.000182	1.824237	0.618068	-0.000073
1347	1.3393e+02	-13.6264	-37.650328	0.000253	2.533662	0.858428	-0.000101
1348	1.3403e+02	-13.6729	-37.759331	0.000274	2.736355	0.927102	-0.000110
1349	1.3413e+02	-13.7082	-37.900630	0.000355	3.547127	1.201799	-0.000142
1350	1.3423e+02	-13.7354	-37.969262	0.000172	1.722890	0.583731	-0.000069
1351	1.3432e+02	-13.7852	-38.066153	0.000243	2.432316	0.824091	-0.000097
1352	1.3442e+02	-13.8124	-38.203415	0.000345	3.445780	1.167462	-0.000138
1353	1.3452e+02	-13.8574	-38.316455	0.000284	2.837702	0.961439	-0.000114
1354	1.3462e+02	-13.8959	-38.421421	0.000264	2.635009	0.892765	-0.000105
1355	1.3472e+02	-13.9360	-38.534461	0.000284	2.837702	0.961439	-0.000114
1356	1.3482e+02	-13.9745	-38.643463	0.000274	2.736355	0.927102	-0.000110
1357	1.3492e+02	-14.0162	-38.764577	0.000304	3.040395	1.030114	-0.000122
1358	1.3502e+02	-14.0595	-38.800912	0.000091	0.912118	0.309034	-0.000037
1359	1.3512e+02	-14.1044	-38.857431	0.000142	1.418851	0.480720	-0.000057
1360	1.3522e+02	-14.1429	-38.954323	0.000243	2.432316	0.824091	-0.000097
1361	1.3532e+02	-14.1798	-39.067363	0.000284	2.837702	0.961439	-0.000114
1362	1.3542e+02	-14.2199	-39.168291	0.000253	2.533662	0.858428	-0.000101
1363	1.3552e+02	-14.2616	-39.277294	0.000274	2.736355	0.927102	-0.000110
1364	1.3562e+02	-14.3017	-39.394371	0.000294	2.939048	0.995776	-0.000118
1365	1.3572e+02	-14.3434	-39.467039	0.000182	1.824237	0.618068	-0.000073
1366	1.3582e+02	-14.3771	-39.563930	0.000243	2.432316	0.824091	-0.000097
1367	1.3592e+02	-14.4172	-39.672933	0.000274	2.736355	0.927102	-0.000110
1368	1.3602e+02	-14.4590	-39.781936	0.000274	2.736355	0.927102	-0.000110
1369	1.3612e+02	-14.4975	-39.850567	0.000172	1.722890	0.583731	-0.000069
1370	1.3622e+02	-14.5392	-39.935347	0.000213	2.128276	0.721079	-0.000085
1371	1.3631e+02	-14.5825	-40.088758	0.000385	3.851166	1.304810	-0.000154
1372	1.3641e+02	-14.6178	-40.177575	0.000223	2.229623	0.755417	-0.000089
1373	1.3651e+02	-14.6515	-40.310800	0.000334	3.344434	1.133125	-0.000134
1374	1.3661e+02	-14.6980	-40.399617	0.000223	2.229623	0.755417	-0.000089
1375	1.3671e+02	-14.7317	-40.464212	0.000162	1.621544	0.549394	-0.000065
1376	1.3681e+02	-14.7782	-40.609548	0.000365	3.648473	1.236136	-0.000146
1377	1.3691e+02	-14.8295	-40.633771	0.000061	0.608079	0.206023	-0.000024
1378	1.3701e+02	-14.8600	-40.787182	0.000385	3.851166	1.304810	-0.000154
1379	1.3711e+02	-14.8937	-40.847739	0.000152	1.520197	0.515057	-0.000061
1380	1.3721e+02	-14.9322	-40.952705	0.000264	2.635009	0.892765	-0.000105
1381	1.3731e+02	-14.9755	-41.053633	0.000253	2.533662	0.858428	-0.000101
1382	1.3741e+02	-15.0220	-41.166673	0.000284	2.837702	0.961439	-0.000114
1383	1.3751e+02	-15.0621	-41.231267	0.000162	1.621544	0.549394	-0.000065
1384	1.3761e+02	-15.1006	-41.352381	0.000304	3.040395	1.030114	-0.000122
1385	1.3771e+02	-15.1375	-41.481570	0.000324	3.243087	1.098788	-0.000130
1386	1.3781e+02	-15.1776	-41.570387	0.000223	2.229623	0.755417	-0.000089
1387	1.3791e+02	-15.2161	-41.675352	0.000264	2.635009	0.892765	-0.000105
1388	1.3801e+02	-15.2530	-41.768206	0.000233	2.330969	0.789754	-0.000093
1389	1.3811e+02	-15.2915	-41.909506	0.000355	3.547127	1.201799	-0.000142
1390	1.3821e+02	-15.3349	-41.986212	0.000193	1.925583	0.652405	-0.000077
1391	1.3831e+02	-15.3702	-42.062917	0.000193	1.925583	0.652405	-0.000077
1392	1.3840e+02	-15.4151	-42.200180	0.000345	3.445780	1.167462	-0.000138
1393	1.3850e+02	-15.4536	-42.280923	0.000203	2.026930	0.686742	-0.000081
1394	1.3860e+02	-15.4921	-42.341480	0.000152	1.520197	0.515057	-0.000061
1395	1.3870e+02	-15.5402	-42.458557	0.000294	2.939048	0.995776	-0.000118
1396	1.3880e+02	-15.5675	-42.527188	0.000172	1.722890	0.583731	-0.000069
1397	1.3890e+02	-15.6172	-42.616005	0.000223	2.229623	0.755417	-0.000089
1398	1.3900e+02	-15.6525	-42.745193	0.000324	3.243087	1.098788	-0.000130
1399	1.3910e+02	-15.6974	-42.805750	0.000152	1.520197	0.515057	-0.000061
1400	1.3920e+02	-15.7407	-42.934939	0.000324	3.243087	1.098788	-0.000130
1401	1.3930e+02	-15.7744	-43.043941	0.000274	2.736355	0.927102	-0.000110
1402	1.3940e+02	-15.8161	-43.124684	0.000203	2.026930	0.686742	-0.000081
1403	1.3950e+02	-15.8482	-43.217538	0.000233	2.330969	0.789754	-0.000093
1404	1.3960e+02	-15.8931	-43.342689	0.000314	3.141741	1.064451	-0.000126
1405	1.3970e+02	-15.9284	-43.492063	0.000375	3.749820	1.270473	-0.000150
1406	1.3980e+02	-15.9766	-43.556657	0.000162	1.621544	0.549394	-0.000065
1407	1.3990e+02	-16.0135	-43.681809	0.000314	3.141741	1.064451	-0.000126
1408	1.4000e+02	-16.0503	-43.738329	0.000142	1.418851	0.480720	-0.000057
1409	1.4010e+02	-16.0905	-43.847331	0.000274	2.736355	0.927102	-0.000110
1410	1.4020e+02	-16.1241	-43.980557	0.000334	3.344434	1.133125	-0.000134
1411	1.4029e+02	-16.1675	-44.041114	0.000152	1.520197	0.515057	-0.000061
1412	1.4039e+02	-16.2028	-44.109745	0.000172	1.722890	0.583731	-0.000069
1413	1.4049e+02	-16.2477	-44.202599	0.000233	2.330969	0.789754	-0.000093
1414	1.4059e+02	-16.2990	-44.295453	0.000233	2.330969	0.789754	-0.000093
1415	1.4069e+02	-16.3311	-44.420605	0.000314	3.141741	1.064451	-0.000126
1416	1.4079e+02	-16.3648	-44.517496	0.000243	2.432316	0.824091	-0.000097
1417	1.4089e+02	-16.4081	-44.602276	0.000213	2.128276	0.721079	-0.000085
1418	1.4099e+02	-16.4498	-44.747613	0.000365	3.648473	1.236136	-0.000146
1419	1.4109e+02	-16.4867	-44.832392	0.000213	2.128276	0.721079	-0.000085
1420	1.4119e+02	-16.5284	-44.909098	0.000193	1.925583	0.652405	-0.000077
1421	1.4129e+02	-16.5701	-45.054435	0.000365	3.648473	1.236136	-0.000146
1422	1.4139e+02	-16.6038	-45.163438	0.000274	2.736355	0.927102	-0.000110
1423	1.4149e+02	-16.6535	-45.240143	0.000193	1.925583	0.652405	-0.000077
1424	1.4159e+02	-16.6872	-45.357220	0.000294	2.939048	0.995776	-0.000118
1425	1.4169e+02	-16.7321	-45.474297	0.000294	2.939048	0.995776	-0.000118
1426	1.4179e+02	-16.7674	-45.563114	0.000223	2.229623	0.755417	-0.000089
1427	1.4189e+02	-16.8075	-45.647894	0.000213	2.128276	0.721079	-0.000085
1428	1.4199e+02	-16.8477	-45.740748	0.000233	2.330969	0.789754	-0.000093
1429	1.4209e+02	-16.8878	-45.793231	0.000132	1.317504	0.446383	-0.000053
1430	1.4219e+02	-16.9327	-45.922419	0.000324	3.243087	1.098788	-0.000130
1431	1.4228e+02	-16.9648	-46.027385	0.000264	2.635009	0.892765	-0.000105
1432	1.4238e+02	-17.0129	-46.124276	0.000243	2.432316	0.824091	-0.000097
1433	1.4248e+02	-17.0562	-46.205019	0.000203	2.026930	0.686742	-0.000081
1434	1.4258e+02	-17.0947	-46.342281	0.000345	3.445780	1.167462	-0.000138
1435	1.4268e+02	-17.1300	-46.443210	0.000253	2.533662	0.858428	-0.000101
1436	1.4278e+02	-17.1621	-46.536064	0.000233	2.330969	0.789754	-0.000093
1437	1.4288e+02	-17.2006	-46.681401	0.000365	3.648473	1.236136	-0.000146
1438	1.4298e+02	-17.2439	-46.802515	0.000304	3.040395	1.030114	-0.000122
1439	1.4308e+02	-17.2856	-46.931703	0.000324	3.243087	1.098788	-0.000130
1440	1.4318e+02	-17.3273	-47.016483	0.000213	2.128276	0.721079	-0.000085
1441	1.4328e+02	-17.3690	-47.129523	0.000284	2.837702	0.961439	-0.000114
1442	1.4338e+02	-17.4156	-47.226414	0.000243	2.432316	0.824091	-0.000097
1443	1.4348e+02	-17.4476	-47.323305	0.000243	2.432316	0.824091	-0.000097
1444	1.4358e+02	-17.4877	-47.408085	0.000213	2.128276	0.721079	-0.000085
1445	1.4368e+02	-17.5246	-47.492865	0.000213	2.128276	0.721079	-0.000085
1446	1.4378e+02	-17.5599	-47.569570	0.000193	1.925583	0.652405	-0.000077
1447	1.4388e+02	-17.6097	-47.735093	0.000416	4.155206	1.407822	-0.000166
1448	1.4398e+02	-17.6466	-47.783539	0.000122	1.216158	0.412045	-0.000049
1449	1.4408e+02	-17.6851	-47.945024	0.000405	4.053859	1.373485	-0.000162
1450	1.4418e+02	-17.7300	-47.977321	0.000081	0.810772	0.274697	-0.000032
1451	1.4428e+02	-17.7637	-48.094398	0.000294	2.939048	0.995776	-0.000118
1452	1.4437e+02	-17.8054	-48.207438	0.000284	2.837702	0.961439	-0.000114
1453	1.4447e+02	-17.8407	-48.360849	0.000385	3.851166	1.304810	-0.000154
1454	1.4457e+02	-17.8856	-48.498112	0.000345	3.445780	1.167462	-0.000138
1455	1.4467e+02	-17.9273	-48.586929	0.000223	2.229623	0.755417	-0.000089
1456	1.4477e+02	-17.9626	-48.716117	0.000324	3.243087	1.098788	-0.000130
1457	1.4487e+02	-18.0027	-48.877602	0.000405	4.053859	1.373485	-0.000162
1458	1.4497e+02	-18.0460	-48.958345	0.000203	2.026930	0.686742	-0.000081
1459	1.4507e+02	-18.0845	-49.087533	0.000324	3.243087	1.098788	-0.000130
1460	1.4517e+02	-18.1150	-49.184425	0.000243	2.432316	0.824091	-0.000097
1461	1.4527e+02	-18.1663	-49.297464	0.000284	2.837702	0.961439	-0.000114
1462	1.4537e+02	-18.2032	-49.378207	0.000203	2.026930	0.686742	-0.000081
1463	1.4547e+02	-18.2417	-49.523544	0.000365	3.648473	1.236136	-0.000146
1464	1.4557e+02	-18.2866	-49.563915	0.000101	1.013465	0.343371	-0.000041
1465	1.4567e+02	-18.3332	-49.693104	0.000324	3.243087	1.098788	-0.000130
1466	1.4577e+02	-18.3637	-49.785958	0.000233	2.330969	0.789754	-0.000093
1467	1.4587e+02	-18.4070	-49.919183	0.000334	3.344434	1.133125	-0.000134
1468	1.4597e+02	-18.4471	-50.048372	0.000324	3.243087	1.098788	-0.000130
1469	1.4607e+02	-18.4792	-50.177560	0.000324	3.243087	1.098788	-0.000130
1470	1.4617e+02	-18.5257	-50.326934	0.000375	3.749820	1.270473	-0.000150
1471	1.4626e+02	-18.5642	-50.508605	0.000456	4.560592	1.545170	-0.000183
1472	1.4636e+02	-18.6091	-50.569162	0.000152	1.520197	0.515057	-0.000061
1473	1.4646e+02	-18.6460	-50.686239	0.000294	2.939048	0.995776	-0.000118
1474	1.4656e+02	-18.6813	-50.835613	0.000375	3.749820	1.270473	-0.000150
1475	1.4666e+02	-18.7246	-50.997099	0.000405	4.053859	1.373485	-0.000162
1476	1.4676e+02	-18.7631	-51.057656	0.000152	1.520197	0.515057	-0.000061
1477	1.4686e+02	-18.8016	-51.207030	0.000375	3.749820	1.270473	-0.000150
1478	1.4696e+02	-18.8353	-51.328144	0.000304	3.040395	1.030114	-0.000122
1479	1.4706e+02	-18.8818	-51.437146	0.000274	2.736355	0.927102	-0.000110
1480	1.4716e+02	-18.9203	-51.550186	0.000284	2.837702	0.961439	-0.000114
1481	1.4726e+02	-18.9636	-51.663226	0.000284	2.837702	0.961439	-0.000114
1482	1.4736e+02	-19.0118	-51.796452	0.000334	3.344434	1.133125	-0.000134
1483	1.4746e+02	-19.0326	-51.933714	0.000345	3.445780	1.167462	-0.000138
1484	1.4756e+02	-19.0711	-52.030605	0.000243	2.432316	0.824091	-0.000097
1485	1.4766e+02	-19.1305	-52.135571	0.000264	2.635009	0.892765	-0.000105
1486	1.4776e+02	-19.1481	-52.341465	0.000517	5.168671	1.751193	-0.000207
1487	1.4786e+02	-19.2091	-52.466616	0.000314	3.141741	1.064451	-0.000126
1488	1.4796e+02	-19.2396	-52.615990	0.000375	3.749820	1.270473	-0.000150
1489	1.4806e+02	-19.2716	-52.741141	0.000314	3.141741	1.064451	-0.000126
1490	1.4816e+02	-19.3182	-52.898590	0.000395	3.952513	1.339148	-0.000158
1491	1.4825e+02	-19.3535	-53.039889	0.000355	3.547127	1.201799	-0.000142
1492	1.4835e+02	-19.3968	-53.193300	0.000385	3.851166	1.304810	-0.000154
1493	1.4845e+02	-19.4369	-53.278080	0.000213	2.128276	0.721079	-0.000085
1494	1.4855e+02	-19.4802	-53.463789	0.000466	4.661938	1.579507	-0.000187
1495	1.4865e+02	-19.5283	-53.605088	0.000355	3.547127	1.201799	-0.000142
1496	1.4875e+02	-19.5588	-53.706017	0.000253	2.533662	0.858428	-0.000101
1497	1.4885e+02	-19.6021	-53.835205	0.000324	3.243087	1.098788	-0.000130
1498	1.4895e+02	-19.6374	-53.968431	0.000334	3.344434	1.133125	-0.000134
1499	1.4905e+02	-19.6839	-54.105693	0.000345	3.445780	1.167462	-0.000138
1500	1.4915e+02	-19.7192	-54.259104	0.000385	3.851166	1.304810	-0.000154
1501	1.4925e+02	-19.7545	-54.392330	0.000334	3.344434	1.133125	-0.000134
1502	1.4935e+02	-19.7962	-54.553815	0.000405	4.053859	1.373485	-0.000162
1503	1.4945e+02	-19.8428	-54.695115	0.000355	3.547127	1.201799	-0.000142
1504	1.4955e+02	-19.8748	-54.876786	0.000456	4.560592	1.545170	-0.000183
1505	1.4965e+02	-19.9133	-55.022123	0.000365	3.648473	1.236136	-0.000146
1506	1.4975e+02	-19.9599	-55.191683	0.000426	4.256552	1.442159	-0.000170
1507	1.4985e+02	-19.9936	-55.345094	0.000385	3.851166	1.304810	-0.000154
1508	1.4995e+02	-19.9518	-55.349131	-0.000010	-0.101346	-0.034337	-0.000004
1509	1.5005e+02	-19.9166	-55.381428	-0.000081	-0.810772	-0.274697	-0.000032
1510	1.5015e+02	-19.8716	-55.369317	0.000030	0.304039	0.103011	0.000012
1511	1.5025e+02	-19.8412	-55.341057	0.000071	0.709425	0.240360	0.000028
1512	1.5034e+02	-19.7946	-55.316834	0.000061	0.608079	0.206023	0.000024
1513	1.5044e+02	-19.7513	-55.280500	0.000091	0.912118	0.309034	0.000037
1514	1.5054e+02	-19.7224	-55.252240	0.000071	0.709425	0.240360	0.000028
1515	1.5064e+02	-19.6711	-55.248203	0.000010	0.101346	0.034337	0.000004
1516	1.5074e+02	-19.6342	-55.159386	0.000223	2.229623	0.755417	0.000089
1517	1.5084e+02	-19.5941	-55.139200	0.000051	0.506732	0.171686	0.000020
1518	1.5094e+02	-19.5524	-55.110940	0.000071	0.709425	0.240360	0.000028
1519	1.5104e+02	-19.5219	-55.030197	0.000203	2.026930	0.686742	0.000081
1520	1.5114e+02	-19.4722	-55.046346	-0.000041	-0.405386	-0.137348	-0.000016
1521	1.5124e+02	-19.4305	-54.985789	0.000152	1.520197	0.515057	0.000061
1522	1.5134e+02	-19.4000	-54.969640	0.000041	0.405386	0.137348	0.000016
1523	1.5144e+02	-19.3470	-54.933306	0.000091	0.912118	0.309034	0.000037
1524	1.5154e+02	-19.3214	-54.892935	0.000101	1.013465	0.343371	0.000041
1525	1.5164e+02	-19.2749	-54.852563	0.000101	1.013465	0.343371	0.000041
1526	1.5174e+02	-19.2492	-54.792006	0.000152	1.520197	0.515057	0.000061
1527	1.5184e+02	-19.2059	-54.767783	0.000061	0.608079	0.206023	0.000024
1528	1.5194e+02	-19.1658	-54.703189	0.000162	1.621544	0.549394	0.000065
1529	1.5204e+02	-19.1273	-54.582075	0.000304	3.040395	1.030114	0.000122
1530	1.5214e+02	-19.0791	-54.549778	0.000081	0.810772	0.274697	0.000032
1531	1.5224e+02	-19.0422	-54.513444	0.000091	0.912118	0.309034	0.000037
1532	1.5233e+02	-19.0086	-54.456924	0.000142	1.418851	0.480720	0.000057
1533	1.5243e+02	-18.9604	-54.364070	0.000233	2.330969	0.789754	0.000093
1534	1.5253e+02	-18.9235	-54.279290	0.000213	2.128276	0.721079	0.000085
1535	1.5263e+02	-18.8786	-54.226807	0.000132	1.317504	0.446383	0.000053
1536	1.5273e+02	-18.8401	-54.170287	0.000142	1.418851	0.480720	0.000057
1537	1.5283e+02	-18.7920	-54.158176	0.000030	0.304039	0.103011	0.000012
1538	1.5293e+02	-18.7583	-54.085507	0.000182	1.824237	0.618068	0.000073
1539	1.5303e+02	-18.7262	-54.012839	0.000182	1.824237	0.618068	0.000073
1540	1.5313e+02	-18.6861	-53.988616	0.000061	0.608079	0.206023	0.000024
1541	1.5323e+02	-18.6380	-53.915948	0.000182	1.824237	0.618068	0.000073
1542	1.5333e+02	-18.6011	-53.875576	0.000101	1.013465	0.343371	0.000041
1543	1.5343e+02	-18.5626	-53.750425	0.000314	3.141741	1.064451	0.000126
1544	1.5353e+02	-18.5241	-53.722165	0.000071	0.709425	0.240360	0.000028
1545	1.5363e+02	-18.4904	-53.657571	0.000162	1.621544	0.549394	0.000065
1546	1.5373e+02	-18.4439	-53.556643	0.000253	2.533662	0.858428	0.000101
1547	1.5383e+02	-18.4054	-53.492049	0.000162	1.621544	0.549394	0.000065
1548	1.5393e+02	-18.3701	-53.512234	-0.000051	-0.506732	-0.171686	-0.000020
1549	1.5403e+02	-18.3252	-53.362860	0.000375	3.749820	1.270473	0.000150
1550	1.5413e+02	-18.2883	-53.306340	0.000142	1.418851	0.480720	0.000057
1551	1.5422e+02	-18.2433	-53.177152	0.000324	3.243087	1.098788	0.000130
1552	1.5432e+02	-18.1968	-53.152929	0.000061	0.608079	0.206023	0.000024
1553	1.5442e+02	-18.1615	-53.096409	0.000142	1.418851	0.480720	0.000057
1554	1.5452e+02	-18.1166	-53.039889	0.000142	1.418851	0.480720	0.000057
1555	1.5462e+02	-18.0781	-52.991444	0.000122	1.216158	0.412045	0.000049
1556	1.5472e+02	-18.0460	-52.890515	0.000253	2.533662	0.858428	0.000101
1557	1.5482e+02	-18.0027	-52.797661	0.000233	2.330969	0.789754	0.000093
1558	1.5492e+02	-17.9658	-52.716918	0.000203	2.026930	0.686742	0.000081
1559	1.5502e+02	-17.9177	-52.688659	0.000071	0.709425	0.240360	0.000028
1560	1.5512e+02	-17.8776	-52.603879	0.000213	2.128276	0.721079	0.000085
1561	1.5522e+02	-17.8487	-52.519099	0.000213	2.128276	0.721079	0.000085
1562	1.5532e+02	-17.7990	-52.454505	0.000162	1.621544	0.549394	0.000065
1563	1.5542e+02	-17.7701	-52.406059	0.000122	1.216158	0.412045	0.000049
1564	1.5552e+02	-17.7188	-52.317242	0.000223	2.229623	0.755417	0.000089
1565	1.5562e+02	-17.6899	-52.256685	0.000152	1.520197	0.515057	0.000061
1566	1.5572e+02	-17.6385	-52.175942	0.000203	2.026930	0.686742	0.000081
1567	1.5582e+02	-17.6113	-52.123460	0.000132	1.317504	0.446383	0.000053
1568	1.5592e+02	-17.5583	-52.026568	0.000243	2.432316	0.824091	0.000097
1569	1.5602e+02	-17.5198	-51.966011	0.000152	1.520197	0.515057	0.000061
1570	1.5612e+02	-17.4829	-51.848934	0.000294	2.939048	0.995776	0.000118
1571	1.5622e+02	-17.4412	-51.816637	0.000081	0.810772	0.274697	0.000032
1572	1.5631e+02	-17.4043	-51.723783	0.000233	2.330969	0.789754	0.000093
1573	1.5641e+02	-17.3674	-51.639003	0.000213	2.128276	0.721079	0.000085
1574	1.5651e+02	-17.3305	-51.614780	0.000061	0.608079	0.206023	0.000024
1575	1.5661e+02	-17.2888	-51.477518	0.000345	3.445780	1.167462	0.000138
1576	1.5671e+02	-17.2423	-51.416961	0.000152	1.520197	0.515057	0.000061
1577	1.5681e+02	-17.2102	-51.364478	0.000132	1.317504	0.446383	0.000053
1578	1.5691e+02	-17.1669	-51.247401	0.000294	2.939048	0.995776	0.000118
1579	1.5701e+02	-17.1412	-51.174733	0.000182	1.824237	0.618068	0.000073
1580	1.5711e+02	-17.0867	-51.166658	0.000020	0.202693	0.068674	0.000008
1581	1.5721e+02	-17.0530	-51.073804	0.000233	2.330969	0.789754	0.000093
1582	1.5731e+02	-17.0113	-50.944616	0.000324	3.243087	1.098788	0.000130
1583	1.5741e+02	-16.9632	-50.859836	0.000213	2.128276	0.721079	0.000085
1584	1.5751e+02	-16.9231	-50.795242	0.000162	1.621544	0.549394	0.000065
1585	1.5761e+02	-16.8829	-50.730648	0.000162	1.621544	0.549394	0.000065
1586	1.5771e+02	-16.8460	-50.694313	0.000091	0.912118	0.309034	0.000037
1587	1.5781e+02	-16.8075	-50.613571	0.000203	2.026930	0.686742	0.000081
1588	1.5791e+02	-16.7594	-50.476308	0.000345	3.445780	1.167462	0.000138
1589	1.5801e+02	-16.7273	-50.395565	0.000203	2.026930	0.686742	0.000081
1590	1.5811e+02	-16.7017	-50.326934	0.000172	1.722890	0.583731	0.000069
1591	1.5821e+02	-16.6519	-50.250229	0.000193	1.925583	0.652405	0.000077
1592	1.5830e+02	-16.6134	-50.169486	0.000203	2.026930	0.686742	0.000081
1593	1.5840e+02	-16.5637	-50.080669	0.000223	2.229623	0.755417	0.000089
1594	1.5850e+02	-16.5284	-50.020112	0.000152	1.520197	0.515057	0.000061
1595	1.5860e+02	-16.4899	-49.931295	0.000223	2.229623	0.755417	0.000089
1596	1.5870e+02	-16.4578	-49.874775	0.000142	1.418851	0.480720	0.000057
1597	1.5880e+02	-16.4097	-49.749624	0.000314	3.141741	1.064451	0.000126
1598	1.5890e+02	-16.3696	-49.689067	0.000152	1.520197	0.515057	0.000061
1599	1.5900e+02	-16.3263	-49.584101	0.000264	2.635009	0.892765	0.000105
1600	1.5910e+02	-16.2974	-49.580064	0.000010	0.101346	0.034337	0.000004
1601	1.5920e+02	-16.2557	-49.479136	0.000253	2.533662	0.858428	0.000101
1602	1.5930e+02	-16.2124	-49.366096	0.000284	2.837702	0.961439	0.000114
1603	1.5940e+02	-16.1771	-49.333799	0.000081	0.810772	0.274697	0.000032
1604	1.5950e+02	-16.1290	-49.200573	0.000334	3.344434	1.133125	0.000134
1605	1.5960e+02	-16.0905	-49.119831	0.000203	2.026930	0.686742	0.000081
1606	1.5970e+02	-16.0520	-49.035051	0.000213	2.128276	0.721079	0.000085
1607	1.5980e+02	-16.0118	-48.974494	0.000152	1.520197	0.515057	0.000061
1608	1.5990e+02	-15.9717	-48.873565	0.000253	2.533662	0.858428	0.000101
1609	1.6000e+02	-15.9300	-48.804934	0.000172	1.722890	0.583731	0.000069
1610	1.6010e+02	-15.8947	-48.663634	0.000355	3.547127	1.201799	0.000142
1611	1.6019e+02	-15.8546	-48.599040	0.000162	1.621544	0.549394	0.000065
1612	1.6029e+02	-15.8145	-48.562706	0.000091	0.912118	0.309034	0.000037
1613	1.6039e+02	-15.7744	-48.429480	0.000334	3.344434	1.133125	0.000134
1614	1.6049e+02	-15.7375	-48.385072	0.000111	1.114811	0.377708	0.000045
1615	1.6059e+02	-15.6926	-48.324515	0.000152	1.520197	0.515057	0.000061
1616	1.6069e+02	-15.6493	-48.211475	0.000284	2.837702	0.961439	0.000114
1617	1.6079e+02	-15.6124	-48.126695	0.000213	2.128276	0.721079	0.000085
1618	1.6089e+02	-15.5643	-48.094398	0.000081	0.810772	0.274697	0.000032
1619	1.6099e+02	-15.5274	-48.017692	0.000193	1.925583	0.652405	0.000077
1620	1.6109e+02	-15.4921	-47.936950	0.000203	2.026930	0.686742	0.000081
1621	1.6119e+02	-15.4488	-47.848133	0.000223	2.229623	0.755417	0.000089
1622	1.6129e+02	-15.4199	-47.722982	0.000314	3.141741	1.064451	0.000126
1623	1.6139e+02	-15.3798	-47.650313	0.000182	1.824237	0.618068	0.000073
1624	1.6149e+02	-15.3300	-47.537273	0.000284	2.837702	0.961439	0.000114
1625	1.6159e+02	-15.2948	-47.456531	0.000203	2.026930	0.686742	0.000081
1626	1.6169e+02	-15.2691	-47.359639	0.000243	2.432316	0.824091	0.000097
1627	1.6179e+02	-15.2161	-47.291008	0.000172	1.722890	0.583731	0.000069
1628	1.6189e+02	-15.1776	-47.202191	0.000223	2.229623	0.755417	0.000089
1629	1.6199e+02	-15.1440	-47.149708	0.000132	1.317504	0.446383	0.000053
1630	1.6209e+02	-15.0942	-47.073003	0.000193	1.925583	0.652405	0.000077
1631	1.6219e+02	-15.0654	-46.964000	0.000274	2.736355	0.927102	0.000110
1632	1.6228e+02	-15.0236	-46.875183	0.000223	2.229623	0.755417	0.000089
1633	1.6238e+02	-14.9771	-46.806552	0.000172	1.722890	0.583731	0.000069
1634	1.6248e+02	-14.9450	-46.721772	0.000213	2.128276	0.721079	0.000085
1635	1.6258e+02	-14.8921	-46.653141	0.000172	1.722890	0.583731	0.000069
1636	1.6268e+02	-14.8536	-46.552212	0.000253	2.533662	0.858428	0.000101
1637	1.6278e+02	-14.8119	-46.499729	0.000132	1.317504	0.446383	0.000053
1638	1.6288e+02	-14.7798	-46.390727	0.000274	2.736355	0.927102	0.000110
1639	1.6298e+02	-14.7333	-46.297873	0.000233	2.330969	0.789754	0.000093
1640	1.6308e+02	-14.7012	-46.164647	0.000334	3.344434	1.133125	0.000134
1641	1.6318e+02	-14.6611	-46.108127	0.000142	1.418851	0.480720	0.000057
1642	1.6328e+02	-14.6081	-45.991050	0.000294	2.939048	0.995776	0.000118
1643	1.6338e+02	-14.5841	-45.886085	0.000264	2.635009	0.892765	0.000105
1644	1.6348e+02	-14.5311	-45.833602	0.000132	1.317504	0.446383	0.000053
1645	1.6358e+02	-14.5023	-45.700377	0.000334	3.344434	1.133125	0.000134
1646	1.6368e+02	-14.4573	-45.660005	0.000101	1.013465	0.343371	0.000041
1647	1.6378e+02	-14.4253	-45.551003	0.000274	2.736355	0.927102	0.000110
1648	1.6388e+02	-14.3836	-45.474297	0.000193	1.925583	0.652405	0.000077
1649	1.6398e+02	-14.3402	-45.397591	0.000193	1.925583	0.652405	0.000077
1650	1.6408e+02	-14.2969	-45.345109	0.000132	1.317504	0.446383	0.000053
1651	1.6418e+02	-14.2648	-45.264366	0.000203	2.026930	0.686742	0.000081
1652	1.6427e+02	-14.2247	-45.183623	0.000203	2.026930	0.686742	0.000081
1653	1.6437e+02	-14.1766	-45.094806	0.000223	2.229623	0.755417	0.000089
1654	1.6447e+02	-14.1349	-45.018101	0.000193	1.925583	0.652405	0.000077
1655	1.6457e+02	-14.1028	-44.925246	0.000233	2.330969	0.789754	0.000093
1656	1.6467e+02	-14.0595	-44.771835	0.000385	3.851166	1.304810	0.000154
1657	1.6477e+02	-14.0162	-44.695130	0.000193	1.925583	0.652405	0.000077
1658	1.6487e+02	-13.9761	-44.594201	0.000253	2.533662	0.858428	0.000101
1659	1.6497e+02	-13.9440	-44.521533	0.000182	1.824237	0.618068	0.000073
1660	1.6507e+02	-13.9055	-44.404456	0.000294	2.939048	0.995776	0.000118
1661	1.6517e+02	-13.8590	-44.323713	0.000203	2.026930	0.686742	0.000081
1662	1.6527e+02	-13.8189	-44.226822	0.000243	2.432316	0.824091	0.000097
1663	1.6537e+02	-13.7916	-44.129931	0.000243	2.432316	0.824091	0.000097
1664	1.6547e+02	-13.7403	-44.053225	0.000193	1.925583	0.652405	0.000077
1665	1.6557e+02	-13.7001	-43.980557	0.000182	1.824237	0.618068	0.000073
1666	1.6567e+02	-13.6600	-43.932111	0.000122	1.216158	0.412045	0.000049
1667	1.6577e+02	-13.6247	-43.839257	0.000233	2.330969	0.789754	0.000093
1668	1.6587e+02	-13.5798	-43.770626	0.000172	1.722890	0.583731	0.000069
1669	1.6597e+02	-13.5429	-43.645474	0.000314	3.141741	1.064451	0.000126
1670	1.6607e+02	-13.4996	-43.580880	0.000162	1.621544	0.549394	0.000065
1671	1.6616e+02	-13.4643	-43.439581	0.000355	3.547127	1.201799	0.000142
1672	1.6626e+02	-13.4210	-43.391135	0.000122	1.216158	0.412045	0.000049
1673	1.6636e+02	-13.3841	-43.294244	0.000243	2.432316	0.824091	0.000097
1674	1.6646e+02	-13.3456	-43.185241	0.000274	2.736355	0.927102	0.000110
1675	1.6656e+02	-13.3167	-43.084313	0.000253	2.533662	0.858428	0.000101
1676	1.6666e+02	-13.2510	-42.987421	0.000243	2.432316	0.824091	0.000097
1677	1.6676e+02	-13.2157	-42.874382	0.000284	2.837702	0.961439	0.000114
1678	1.6686e+02	-13.1788	-42.801713	0.000182	1.824237	0.618068	0.000073
1679	1.6696e+02	-13.1467	-42.704822	0.000243	2.432316	0.824091	0.000097
1680	1.6706e+02	-13.1018	-42.599856	0.000264	2.635009	0.892765	0.000105
1681	1.6716e+02	-13.0665	-42.498928	0.000253	2.533662	0.858428	0.000101
1682	1.6726e+02	-13.0200	-42.466631	0.000081	0.810772	0.274697	0.000032
1683	1.6736e+02	-12.9863	-42.377814	0.000223	2.229623	0.755417	0.000089
1684	1.6746e+02	-12.9349	-42.268811	0.000274	2.736355	0.927102	0.000110
1685	1.6756e+02	-12.8980	-42.196143	0.000182	1.824237	0.618068	0.000073
1686	1.6766e+02	-12.8676	-42.123474	0.000182	1.824237	0.618068	0.000073
1687	1.6776e+02	-12.8226	-42.010434	0.000284	2.837702	0.961439	0.000114
1688	1.6786e+02	-12.7841	-41.949877	0.000152	1.520197	0.515057	0.000061
1689	1.6796e+02	-12.7424	-41.824726	0.000314	3.141741	1.064451	0.000126
1690	1.6806e+02	-12.7103	-41.780318	0.000111	1.114811	0.377708	0.000045
1691	1.6816e+02	-12.6718	-41.663241	0.000294	2.939048	0.995776	0.000118
1692	1.6825e+02	-12.6205	-41.538090	0.000314	3.141741	1.064451	0.000126
1693	1.6835e+02	-12.5868	-41.400827	0.000345	3.445780	1.167462	0.000138
1694	1.6845e+02	-12.5483	-41.312010	0.000223	2.229623	0.755417	0.000089
1695	1.6855e+02	-12.5098	-41.251453	0.000152	1.520197	0.515057	0.000061
1696	1.6865e+02	-12.4713	-41.122265	0.000324	3.243087	1.098788	0.000130
1697	1.6875e+02	-12.4216	-41.065745	0.000142	1.418851	0.480720	0.000057
1698	1.6885e+02	-12.3863	-40.985002	0.000203	2.026930	0.686742	0.000081
1699	1.6895e+02	-12.3430	-40.940594	0.000111	1.114811	0.377708	0.000045
1700	1.6905e+02	-12.3077	-40.823517	0.000294	2.939048	0.995776	0.000118
1701	1.6915e+02	-12.2676	-40.750848	0.000182	1.824237	0.618068	0.000073
1702	1.6925e+02	-12.2178	-40.653957	0.000243	2.432316	0.824091	0.000097
1703	1.6935e+02	-12.1858	-40.573214	0.000203	2.026930	0.686742	0.000081
1704	1.6945e+02	-12.1408	-40.431914	0.000355	3.547127	1.201799	0.000142
1705	1.6955e+02	-12.1104	-40.326949	0.000264	2.635009	0.892765	0.000105
1706	1.6965e+02	-12.0719	-40.262355	0.000162	1.621544	0.549394	0.000065
1707	1.6975e+02	-12.0301	-40.153352	0.000274	2.736355	0.927102	0.000110
1708	1.6985e+02	-11.9884	-40.076646	0.000193	1.925583	0.652405	0.000077
1709	1.6995e+02	-11.9580	-39.939384	0.000345	3.445780	1.167462	0.000138
1710	1.7005e+02	-11.9050	-39.814233	0.000314	3.141741	1.064451	0.000126
1711	1.7015e+02	-11.8697	-39.709267	0.000264	2.635009	0.892765	0.000105
1712	1.7024e+02	-11.8264	-39.685044	0.000061	0.608079	0.206023	0.000024
1713	1.7034e+02	-11.8007	-39.547782	0.000345	3.445780	1.167462	0.000138
1714	1.7044e+02	-11.7510	-39.438779	0.000274	2.736355	0.927102	0.000110
1715	1.7054e+02	-11.7045	-39.374185	0.000162	1.621544	0.549394	0.000065
1716	1.7064e+02	-11.6692	-39.321702	0.000132	1.317504	0.446383	0.000053
1717	1.7074e+02	-11.6243	-39.228848	0.000233	2.330969	0.789754	0.000093
1718	1.7084e+02	-11.5842	-39.131957	0.000243	2.432316	0.824091	0.000097
1719	1.7094e+02	-11.5521	-39.022954	0.000274	2.736355	0.927102	0.000110
1720	1.7104e+02	-11.5023	-38.934137	0.000223	2.229623	0.755417	0.000089
1721	1.7114e+02	-11.4831	-38.849357	0.000213	2.128276	0.721079	0.000085
1722	1.7124e+02	-11.4270	-38.768614	0.000203	2.026930	0.686742	0.000081
1723	1.7134e+02	-11.3965	-38.655575	0.000284	2.837702	0.961439	0.000114
1724	1.7144e+02	-11.3548	-38.538498	0.000294	2.939048	0.995776	0.000118
1725	1.7154e+02	-11.3211	-38.469866	0.000172	1.722890	0.583731	0.000069
1726	1.7164e+02	-11.2729	-38.368938	0.000253	2.533662	0.858428	0.000101
1727	1.7174e+02	-11.2296	-38.263973	0.000264	2.635009	0.892765	0.000105
1728	1.7184e+02	-11.1927	-38.146896	0.000294	2.939048	0.995776	0.000118
1729	1.7194e+02	-11.1574	-38.037893	0.000274	2.736355	0.927102	0.000110
1730	1.7204e+02	-11.1077	-37.904667	0.000334	3.344434	1.133125	0.000134
1731	1.7213e+02	-11.0724	-37.803739	0.000253	2.533662	0.858428	0.000101
1732	1.7223e+02	-11.0259	-37.771442	0.000081	0.810772	0.274697	0.000032
1733	1.7233e+02	-10.9938	-37.710885	0.000152	1.520197	0.515057	0.000061
1734	1.7243e+02	-10.9521	-37.597845	0.000284	2.837702	0.961439	0.000114
1735	1.7253e+02	-10.9104	-37.496917	0.000253	2.533662	0.858428	0.000101
1736	1.7263e+02	-10.8751	-37.391951	0.000264	2.635009	0.892765	0.000105
1737	1.7273e+02	-10.8398	-37.315246	0.000193	1.925583	0.652405	0.000077
1738	1.7283e+02	-10.7933	-37.218354	0.000243	2.432316	0.824091	0.000097
1739	1.7293e+02	-10.7596	-37.149723	0.000172	1.722890	0.583731	0.000069
1740	1.7303e+02	-10.7066	-37.044758	0.000264	2.635009	0.892765	0.000105
1741	1.7313e+02	-10.6698	-36.899421	0.000365	3.648473	1.236136	0.000146
1742	1.7323e+02	-10.6393	-36.818678	0.000203	2.026930	0.686742	0.000081
1743	1.7333e+02	-10.5879	-36.725824	0.000233	2.330969	0.789754	0.000093
1744	1.7343e+02	-10.5430	-36.616821	0.000274	2.736355	0.927102	0.000110
1745	1.7353e+02	-10.5125	-36.507818	0.000274	2.736355	0.927102	0.000110
1746	1.7363e+02	-10.4772	-36.386704	0.000304	3.040395	1.030114	0.000122
1747	1.7373e+02	-10.4387	-36.297887	0.000223	2.229623	0.755417	0.000089
1748	1.7383e+02	-10.3938	-36.229256	0.000172	1.722890	0.583731	0.000069
1749	1.7393e+02	-10.3521	-36.112179	0.000294	2.939048	0.995776	0.000118
1750	1.7403e+02	-10.3136	-36.047585	0.000162	1.621544	0.549394	0.000065
1751	1.7413e+02	-10.2799	-35.934545	0.000284	2.837702	0.961439	0.000114
1752	1.7422e+02	-10.2366	-35.857840	0.000193	1.925583	0.652405	0.000077
1753	1.7432e+02	-10.1933	-35.740763	0.000294	2.939048	0.995776	0.000118
1754	1.7442e+02	-10.1596	-35.660020	0.000203	2.026930	0.686742	0.000081
1755	1.7452e+02	-10.1227	-35.579277	0.000203	2.026930	0.686742	0.000081
1756	1.7462e+02	-10.0762	-35.482386	0.000243	2.432316	0.824091	0.000097
1757	1.7472e+02	-10.0377	-35.381458	0.000253	2.533662	0.858428	0.000101
1758	1.7482e+02	-9.9896	-35.248232	0.000334	3.344434	1.133125	0.000134
1759	1.7492e+02	-9.9559	-35.155378	0.000233	2.330969	0.789754	0.000093
1760	1.7502e+02	-9.9126	-35.082710	0.000182	1.824237	0.618068	0.000073
1761	1.7512e+02	-9.8773	-34.977744	0.000264	2.635009	0.892765	0.000105
1762	1.7522e+02	-9.8356	-34.832407	0.000365	3.648473	1.236136	0.000146
1763	1.7532e+02	-9.8067	-34.703219	0.000324	3.243087	1.098788	0.000130
1764	1.7542e+02	-9.7650	-34.606328	0.000243	2.432316	0.824091	0.000097
1765	1.7552e+02	-9.7249	-34.521548	0.000213	2.128276	0.721079	0.000085
1766	1.7562e+02	-9.6671	-34.440805	0.000203	2.026930	0.686742	0.000081
1767	1.7572e+02	-9.6446	-34.327765	0.000284	2.837702	0.961439	0.000114
1768	1.7582e+02	-9.5901	-34.267208	0.000152	1.520197	0.515057	0.000061
1769	1.7592e+02	-9.5660	-34.162243	0.000264	2.635009	0.892765	0.000105
1770	1.7602e+02	-9.5099	-34.049203	0.000284	2.837702	0.961439	0.000114
1771	1.7612e+02	-9.4858	-33.980572	0.000172	1.722890	0.583731	0.000069
1772	1.7621e+02	-9.4361	-33.883680	0.000243	2.432316	0.824091	0.000097
1773	1.7631e+02	-9.4008	-33.742380	0.000355	3.547127	1.201799	0.000142
1774	1.7641e+02	-9.3639	-33.669712	0.000182	1.824237	0.618068	0.000073
1775	1.7651e+02	-9.3190	-33.564747	0.000264	2.635009	0.892765	0.000105
1776	1.7661e+02	-9.2805	-33.451707	0.000284	2.837702	0.961439	0.000114
1777	1.7671e+02	-9.2388	-33.387113	0.000162	1.621544	0.549394	0.000065
1778	1.7681e+02	-9.2099	-33.290221	0.000243	2.432316	0.824091	0.000097
1779	1.7691e+02	-9.1618	-33.136810	0.000385	3.851166	1.304810	0.000154
1780	1.7701e+02	-9.1297	-33.007622	0.000324	3.243087	1.098788	0.000130
1781	1.7711e+02	-9.0848	-32.947065	0.000152	1.520197	0.515057	0.000061
1782	1.7721e+02	-9.0382	-32.829988	0.000294	2.939048	0.995776	0.000118
1783	1.7731e+02	-8.9917	-32.737134	0.000233	2.330969	0.789754	0.000093
1784	1.7741e+02	-8.9612	-32.672540	0.000162	1.621544	0.549394	0.000065
1785	1.7751e+02	-8.9163	-32.531240	0.000355	3.547127	1.201799	0.000142
1786	1.7761e+02	-8.8762	-32.406089	0.000314	3.141741	1.064451	0.000126
1787	1.7771e+02	-8.8409	-32.345532	0.000152	1.520197	0.515057	0.000061
1788	1.7781e+02	-8.8024	-32.280937	0.000162	1.621544	0.549394	0.000065
1789	1.7791e+02	-8.7687	-32.147712	0.000334	3.344434	1.133125	0.000134
1790	1.7801e+02	-8.7158	-32.066969	0.000203	2.026930	0.686742	0.000081
1791	1.7810e+02	-8.6741	-31.986226	0.000203	2.026930	0.686742	0.000081
1792	1.7820e+02	-8.6484	-31.848964	0.000345	3.445780	1.167462	0.000138
1793	1.7830e+02	-8.5987	-31.699590	0.000375	3.749820	1.270473	0.000150
1794	1.7840e+02	-8.5650	-31.639033	0.000152	1.520197	0.515057	0.000061
1795	1.7850e+02	-8.5217	-31.517919	0.000304	3.040395	1.030114	0.000122
1796	1.7860e+02	-8.4880	-31.421027	0.000243	2.432316	0.824091	0.000097
1797	1.7870e+02	-8.4367	-31.340285	0.000203	2.026930	0.686742	0.000081
1798	1.7880e+02	-8.4062	-31.198985	0.000355	3.547127	1.201799	0.000142
1799	1.7890e+02	-8.3597	-31.098057	0.000253	2.533662	0.858428	0.000101
1800	1.7900e+02	-8.3260	-31.013277	0.000213	2.128276	0.721079	0.000085
1801	1.7910e+02	-8.2794	-30.892163	0.000304	3.040395	1.030114	0.000122
1802	1.7920e+02	-8.2442	-30.819494	0.000182	1.824237	0.618068	0.000073
1803	1.7930e+02	-8.2024	-30.754900	0.000162	1.621544	0.549394	0.000065
1804	1.7940e+02	-8.1655	-30.609563	0.000365	3.648473	1.236136	0.000146
1805	1.7950e+02	-8.1270	-30.536895	0.000182	1.824237	0.618068	0.000073
1806	1.7960e+02	-8.0869	-30.399632	0.000345	3.445780	1.167462	0.000138
1807	1.7970e+02	-8.0500	-30.314852	0.000213	2.128276	0.721079	0.000085
1808	1.7980e+02	-8.0067	-30.209887	0.000264	2.635009	0.892765	0.000105
1809	1.7990e+02	-7.9682	-30.108958	0.000253	2.533662	0.858428	0.000101
1810	1.8000e+02	-7.9249	-29.995919	0.000284	2.837702	0.961439	0.000114
1811	1.8009e+02	-7.8832	-29.903064	0.000233	2.330969	0.789754	0.000093
1812	1.8019e+02	-7.8447	-29.790025	0.000284	2.837702	0.961439	0.000114
1813	1.8029e+02	-7.8110	-29.656799	0.000334	3.344434	1.133125	0.000134
1814	1.8039e+02	-7.7725	-29.523574	0.000334	3.344434	1.133125	0.000134
1815	1.8049e+02	-7.7180	-29.418608	0.000264	2.635009	0.892765	0.000105
1816	1.8059e+02	-7.6811	-29.309605	0.000274	2.736355	0.927102	0.000110
1817	1.8069e+02	-7.6538	-29.192529	0.000294	2.939048	0.995776	0.000118
1818	1.8079e+02	-7.6025	-29.123897	0.000172	1.722890	0.583731	0.000069
1819	1.8089e+02	-7.5607	-29.047192	0.000193	1.925583	0.652405	0.000077
1820	1.8099e+02	-7.5271	-28.942226	0.000264	2.635009	0.892765	0.000105
1821	1.8109e+02	-7.4902	-28.800926	0.000355	3.547127	1.201799	0.000142
1822	1.8119e+02	-7.4404	-28.712109	0.000223	2.229623	0.755417	0.000089
1823	1.8129e+02	-7.4100	-28.635404	0.000193	1.925583	0.652405	0.000077
1824	1.8139e+02	-7.3602	-28.550624	0.000213	2.128276	0.721079	0.000085
1825	1.8149e+02	-7.3281	-28.393176	0.000395	3.952513	1.339148	0.000158
1826	1.8159e+02	-7.2768	-28.320507	0.000182	1.824237	0.618068	0.000073
1827	1.8169e+02	-7.2463	-28.219579	0.000253	2.533662	0.858428	0.000101
1828	1.8179e+02	-7.2062	-28.094428	0.000314	3.141741	1.064451	0.000126
1829	1.8189e+02	-7.1677	-27.953128	0.000355	3.547127	1.201799	0.000142
1830	1.8199e+02	-7.1276	-27.876422	0.000193	1.925583	0.652405	0.000077
1831	1.8209e+02	-7.0971	-27.767420	0.000274	2.736355	0.927102	0.000110
1832	1.8218e+02	-7.0490	-27.646306	0.000304	3.040395	1.030114	0.000122
1833	1.8228e+02	-7.0057	-27.509043	0.000345	3.445780	1.167462	0.000138
1834	1.8238e+02	-6.9672	-27.436374	0.000182	1.824237	0.618068	0.000073
1835	1.8248e+02	-6.9287	-27.363706	0.000182	1.824237	0.618068	0.000073
1836	1.8258e+02	-6.8854	-27.250666	0.000284	2.837702	0.961439	0.000114
1837	1.8268e+02	-6.8501	-27.101292	0.000375	3.749820	1.270473	0.000150
1838	1.8278e+02	-6.8100	-27.024587	0.000193	1.925583	0.652405	0.000077
1839	1.8288e+02	-6.7667	-26.919621	0.000264	2.635009	0.892765	0.000105
1840	1.8298e+02	-6.7314	-26.822730	0.000243	2.432316	0.824091	0.000097
1841	1.8308e+02	-6.6913	-26.693541	0.000324	3.243087	1.098788	0.000130
1842	1.8318e+02	-6.6479	-26.628947	0.000162	1.621544	0.549394	0.000065
1843	1.8328e+02	-6.6110	-26.475536	0.000385	3.851166	1.304810	0.000154
1844	1.8338e+02	-6.5693	-26.414979	0.000152	1.520197	0.515057	0.000061
1845	1.8348e+02	-6.5324	-26.269642	0.000365	3.648473	1.236136	0.000146
1846	1.8358e+02	-6.4955	-26.148528	0.000304	3.040395	1.030114	0.000122
1847	1.8368e+02	-6.4538	-26.027414	0.000304	3.040395	1.030114	0.000122
1848	1.8378e+02	-6.4137	-25.942634	0.000213	2.128276	0.721079	0.000085
1849	1.8388e+02	-6.3736	-25.821520	0.000304	3.040395	1.030114	0.000122
1850	1.8398e+02	-6.3367	-25.668109	0.000385	3.851166	1.304810	0.000154
1851	1.8407e+02	-6.2918	-25.587366	0.000203	2.026930	0.686742	0.000081
1852	1.8417e+02	-6.2581	-25.534884	0.000132	1.317504	0.446383	0.000053
1853	1.8427e+02	-6.2132	-25.409732	0.000314	3.141741	1.064451	0.000126
1854	1.8437e+02	-6.1763	-25.292655	0.000294	2.939048	0.995776	0.000118
1855	1.8447e+02	-6.1250	-25.224024	0.000172	1.722890	0.583731	0.000069
1856	1.8457e+02	-6.0897	-25.062539	0.000405	4.053859	1.373485	0.000162
1857	1.8467e+02	-6.0496	-24.993907	0.000172	1.722890	0.583731	0.000069
1858	1.8477e+02	-6.0143	-24.872793	0.000304	3.040395	1.030114	0.000122
1859	1.8487e+02	-5.9790	-24.763791	0.000274	2.736355	0.927102	0.000110
1860	1.8497e+02	-5.9373	-24.630565	0.000334	3.344434	1.133125	0.000134
1861	1.8507e+02	-5.8956	-24.565971	0.000162	1.621544	0.549394	0.000065
1862	1.8517e+02	-5.8474	-24.420634	0.000365	3.648473	1.236136	0.000146
1863	1.8527e+02	-5.8137	-24.343929	0.000193	1.925583	0.652405	0.000077
1864	1.8537e+02	-5.7736	-24.210703	0.000334	3.344434	1.133125	0.000134
1865	1.8547e+02	-5.7335	-24.101700	0.000274	2.736355	0.927102	0.000110
1866	1.8557e+02	-5.6918	-23.996735	0.000264	2.635009	0.892765	0.000105
1867	1.8567e+02	-5.6501	-23.903881	0.000233	2.330969	0.789754	0.000093
1868	1.8577e+02	-5.6100	-23.762581	0.000355	3.547127	1.201799	0.000142
1869	1.8587e+02	-5.5779	-23.657615	0.000264	2.635009	0.892765	0.000105
1870	1.8597e+02	-5.5362	-23.532464	0.000314	3.141741	1.064451	0.000126
1871	1.8606e+02	-5.5009	-23.459796	0.000182	1.824237	0.618068	0.000073
1872	1.8616e+02	-5.4592	-23.338682	0.000304	3.040395	1.030114	0.000122
1873	1.8626e+02	-5.4319	-23.245828	0.000233	2.330969	0.789754	0.000093
1874	1.8636e+02	-5.3838	-23.128751	0.000294	2.939048	0.995776	0.000118
1875	1.8646e+02	-5.3501	-23.003599	0.000314	3.141741	1.064451	0.000126
1876	1.8656e+02	-5.2908	-22.902671	0.000253	2.533662	0.858428	0.000101
1877	1.8666e+02	-5.2587	-22.785594	0.000294	2.939048	0.995776	0.000118
1878	1.8676e+02	-5.2266	-22.668517	0.000294	2.939048	0.995776	0.000118
1879	1.8686e+02	-5.1769	-22.531255	0.000345	3.445780	1.167462	0.000138
1880	1.8696e+02	-5.1416	-22.466660	0.000162	1.621544	0.549394	0.000065
1881	1.8706e+02	-5.0999	-22.353621	0.000284	2.837702	0.961439	0.000114
1882	1.8716e+02	-5.0565	-22.248655	0.000264	2.635009	0.892765	0.000105
1883	1.8726e+02	-5.0245	-22.058910	0.000476	4.763285	1.613845	0.000191
1884	1.8736e+02	-4.9763	-21.994316	0.000162	1.621544	0.549394	0.000065
1885	1.8746e+02	-4.9362	-21.901461	0.000233	2.330969	0.789754	0.000093
1886	1.8756e+02	-4.8977	-21.760162	0.000355	3.547127	1.201799	0.000142
1887	1.8766e+02	-4.8560	-21.659233	0.000253	2.533662	0.858428	0.000101
1888	1.8776e+02	-4.8159	-21.566379	0.000233	2.330969	0.789754	0.000093
1889	1.8786e+02	-4.7726	-21.437191	0.000324	3.243087	1.098788	0.000130
1890	1.8796e+02	-4.7389	-21.372597	0.000162	1.621544	0.549394	0.000065
1891	1.8806e+02	-4.7004	-21.259557	0.000284	2.837702	0.961439	0.000114
1892	1.8815e+02	-4.6555	-21.134406	0.000314	3.141741	1.064451	0.000126
1893	1.8825e+02	-4.6298	-20.997143	0.000345	3.445780	1.167462	0.000138
1894	1.8835e+02	-4.5801	-20.851806	0.000365	3.648473	1.236136	0.000146
1895	1.8845e+02	-4.5416	-20.791249	0.000152	1.520197	0.515057	0.000061
1896	1.8855e+02	-4.5047	-20.666098	0.000314	3.141741	1.064451	0.000126
1897	1.8865e+02	-4.4582	-20.565169	0.000253	2.533662	0.858428	0.000101
1898	1.8875e+02	-4.4293	-20.448093	0.000294	2.939048	0.995776	0.000118
1899	1.8885e+02	-4.3860	-20.326978	0.000304	3.040395	1.030114	0.000122
1900	1.8895e+02	-4.3427	-20.197790	0.000324	3.243087	1.098788	0.000130
1901	1.8905e+02	-4.3058	-20.060527	0.000345	3.445780	1.167462	0.000138
1902	1.8915e+02	-4.2641	-20.012082	0.000122	1.216158	0.412045	0.000049
1903	1.8925e+02	-4.2272	-19.895005	0.000294	2.939048	0.995776	0.000118
1904	1.8935e+02	-4.1854	-19.781965	0.000284	2.837702	0.961439	0.000114
1905	1.8945e+02	-4.1437	-19.652777	0.000324	3.243087	1.098788	0.000130
1906	1.8955e+02	-4.0924	-19.543774	0.000274	2.736355	0.927102	0.000110
1907	1.8965e+02	-4.0667	-19.467069	0.000193	1.925583	0.652405	0.000077
1908	1.8975e+02	-4.0202	-19.333843	0.000334	3.344434	1.133125	0.000134
1909	1.8985e+02	-3.9817	-19.192543	0.000355	3.547127	1.201799	0.000142
1910	1.8995e+02	-3.9352	-19.059318	0.000334	3.344434	1.133125	0.000134
1911	1.9004e+02	-3.8999	-18.966464	0.000233	2.330969	0.789754	0.000093
1912	1.9014e+02	-3.8598	-18.829201	0.000345	3.445780	1.167462	0.000138
1913	1.9024e+02	-3.8277	-18.760570	0.000172	1.722890	0.583731	0.000069
1914	1.9034e+02	-3.7876	-18.599084	0.000405	4.053859	1.373485	0.000162
1915	1.9044e+02	-3.7443	-18.510267	0.000223	2.229623	0.755417	0.000089
1916	1.9054e+02	-3.6962	-18.377042	0.000334	3.344434	1.133125	0.000134
1917	1.9064e+02	-3.6673	-18.284188	0.000233	2.330969	0.789754	0.000093
1918	1.9074e+02	-3.6208	-18.175185	0.000274	2.736355	0.927102	0.000110
1919	1.9084e+02	-3.5919	-18.078294	0.000243	2.432316	0.824091	0.000097
1920	1.9094e+02	-3.5438	-17.941031	0.000345	3.445780	1.167462	0.000138
1921	1.9104e+02	-3.5069	-17.795694	0.000365	3.648473	1.236136	0.000146
1922	1.9114e+02	-3.4603	-17.698803	0.000243	2.432316	0.824091	0.000097
1923	1.9124e+02	-3.4266	-17.650357	0.000122	1.216158	0.412045	0.000049
1924	1.9134e+02	-3.3849	-17.468686	0.000456	4.560592	1.545170	0.000183
1925	1.9144e+02	-3.3416	-17.331424	0.000345	3.445780	1.167462	0.000138
1926	1.9154e+02	-3.3111	-17.274904	0.000142	1.418851	0.480720	0.000057
1927	1.9164e+02	-3.2582	-17.153790	0.000304	3.040395	1.030114	0.000122
1928	1.9174e+02	-3.2245	-17.012490	0.000355	3.547127	1.201799	0.000142
1929	1.9184e+02	-3.1924	-16.939822	0.000182	1.824237	0.618068	0.000073
1930	1.9194e+02	-3.1379	-16.830819	0.000274	2.736355	0.927102	0.000110
1931	1.9203e+02	-3.1122	-16.673371	0.000395	3.952513	1.339148	0.000158
1932	1.9213e+02	-3.0737	-16.568405	0.000264	2.635009	0.892765	0.000105
1933	1.9223e+02	-3.0288	-16.410957	0.000395	3.952513	1.339148	0.000158
1934	1.9233e+02	-2.9855	-16.334251	0.000193	1.925583	0.652405	0.000077
1935	1.9243e+02	-2.9422	-16.229286	0.000264	2.635009	0.892765	0.000105
1936	1.9253e+02	-2.9021	-16.104134	0.000314	3.141741	1.064451	0.000126
1937	1.9263e+02	-2.8716	-15.987058	0.000294	2.939048	0.995776	0.000118
1938	1.9273e+02	-2.8170	-15.886129	0.000253	2.533662	0.858428	0.000101
1939	1.9283e+02	-2.7898	-15.720607	0.000416	4.155206	1.407822	0.000166
1940	1.9293e+02	-2.7481	-15.664087	0.000142	1.418851	0.480720	0.000057
1941	1.9303e+02	-2.6999	-15.530861	0.000334	3.344434	1.133125	0.000134
1942	1.9313e+02	-2.6646	-15.417821	0.000284	2.837702	0.961439	0.000114
1943	1.9323e+02	-2.6229	-15.304782	0.000284	2.837702	0.961439	0.000114
1944	1.9333e+02	-2.5924	-15.207890	0.000243	2.432316	0.824091	0.000097
1945	1.9343e+02	-2.5491	-15.074665	0.000334	3.344434	1.133125	0.000134
1946	1.9353e+02	-2.5074	-14.949514	0.000314	3.141741	1.064451	0.000126
1947	1.9363e+02	-2.4705	-14.820325	0.000324	3.243087	1.098788	0.000130
1948	1.9373e+02	-2.4352	-14.723434	0.000243	2.432316	0.824091	0.000097
1949	1.9383e+02	-2.3903	-14.590209	0.000334	3.344434	1.133125	0.000134
1950	1.9393e+02	-2.3406	-14.489280	0.000253	2.533662	0.858428	0.000101
1951	1.9403e+02	-2.3117	-14.356055	0.000334	3.344434	1.133125	0.000134
1952	1.9412e+02	-2.2684	-14.267238	0.000223	2.229623	0.755417	0.000089
1953	1.9422e+02	-2.2331	-14.146124	0.000304	3.040395	1.030114	0.000122
1954	1.9432e+02	-2.1834	-14.020972	0.000314	3.141741	1.064451	0.000126
1955	1.9442e+02	-2.1513	-13.875636	0.000365	3.648473	1.236136	0.000146
1956	1.9452e+02	-2.1112	-13.790856	0.000213	2.128276	0.721079	0.000085
1957	1.9462e+02	-2.0695	-13.637445	0.000385	3.851166	1.304810	0.000154
1958	1.9472e+02	-2.0358	-13.552665	0.000213	2.128276	0.721079	0.000085
1959	1.9482e+02	-1.9876	-13.411365	0.000355	3.547127	1.201799	0.000142
1960	1.9492e+02	-1.9540	-13.318511	0.000233	2.330969	0.789754	0.000093
1961	1.9502e+02	-1.9058	-13.193360	0.000314	3.141741	1.064451	0.000126
1962	1.9512e+02	-1.8721	-13.076283	0.000294	2.939048	0.995776	0.000118
1963	1.9522e+02	-1.8304	-12.963243	0.000284	2.837702	0.961439	0.000114
1964	1.9532e+02	-1.7903	-12.830017	0.000334	3.344434	1.133125	0.000134
1965	1.9542e+02	-1.7454	-12.725052	0.000264	2.635009	0.892765	0.000105
1966	1.9552e+02	-1.7085	-12.612012	0.000284	2.837702	0.961439	0.000114
1967	1.9562e+02	-1.6684	-12.478787	0.000334	3.344434	1.133125	0.000134
1968	1.9572e+02	-1.6267	-12.373821	0.000264	2.635009	0.892765	0.000105
1969	1.9582e+02	-1.5850	-12.240596	0.000334	3.344434	1.133125	0.000134
1970	1.9592e+02	-1.5465	-12.139667	0.000253	2.533662	0.858428	0.000101
1971	1.9601e+02	-1.5208	-12.046813	0.000233	2.330969	0.789754	0.000093
1972	1.9611e+02	-1.4679	-11.889365	0.000395	3.952513	1.339148	0.000158
1973	1.9621e+02	-1.4406	-11.784399	0.000264	2.635009	0.892765	0.000105
1974	1.9631e+02	-1.3828	-11.643099	0.000355	3.547127	1.201799	0.000142
1975	1.9641e+02	-1.3540	-11.505837	0.000345	3.445780	1.167462	0.000138
1976	1.9651e+02	-1.3139	-11.380686	0.000314	3.141741	1.064451	0.000126
1977	1.9661e+02	-1.2754	-11.251497	0.000324	3.243087	1.098788	0.000130
1978	1.9671e+02	-1.2240	-11.178829	0.000182	1.824237	0.618068	0.000073
1979	1.9681e+02	-1.1968	-11.069826	0.000274	2.736355	0.927102	0.000110
1980	1.9691e+02	-1.1470	-10.920452	0.000375	3.749820	1.270473	0.000150
1981	1.9701e+02	-1.1149	-10.811450	0.000274	2.736355	0.927102	0.000110
1982	1.9711e+02	-1.0748	-10.714558	0.000243	2.432316	0.824091	0.000097
1983	1.9721e+02	-1.0395	-10.601518	0.000284	2.837702	0.961439	0.000114
1984	1.9731e+02	-0.9866	-10.452144	0.000375	3.749820	1.270473	0.000150
1985	1.9741e+02	-0.9545	-10.379476	0.000182	1.824237	0.618068	0.000073
1986	1.9751e+02	-0.9096	-10.258362	0.000304	3.040395	1.030114	0.000122
1987	1.9761e+02	-0.8775	-10.157434	0.000253	2.533662	0.858428	0.000101
1988	1.9771e+02	-0.8310	-10.024208	0.000334	3.344434	1.133125	0.000134
1989	1.9781e+02	-0.7973	-9.874834	0.000375	3.749820	1.270473	0.000150
1990	1.9791e+02	-0.7476	-9.749683	0.000314	3.141741	1.064451	0.000126
1991	1.9800e+02	-0.7139	-9.624532	0.000314	3.141741	1.064451	0.000126
1992	1.9810e+02	-0.6850	-9.491306	0.000334	3.344434	1.133125	0.000134
1993	1.9820e+02	-0.6401	-9.337895	0.000385	3.851166	1.304810	0.000154
1994	1.9830e+02	-0.5984	-9.249078	0.000223	2.229623	0.755417	0.000089
1995	1.9840e+02	-0.5519	-9.119890	0.000324	3.243087	1.098788	0.000130
1996	1.9850e+02	-0.5198	-9.010887	0.000274	2.736355	0.927102	0.000110
1997	1.9860e+02	-0.4716	-8.909959	0.000253	2.533662	0.858428	0.000101
1998	1.9870e+02	-0.4412	-8.768659	0.000355	3.547127	1.201799	0.000142
1999	1.9880e+02	-0.3866	-8.639470	0.000324	3.243087	1.098788	0.000130
2000	1.9890e+02	-0.3593	-8.554691	0.000213	2.128276	0.721079	0.000085
2001	1.9900e+02	-0.3225	-8.405317	0.000375	3.749820	1.270473	0.000150
2002	1.9910e+02	-0.2727	-8.292277	0.000284	2.837702	0.961439	0.000114
2003	1.9920e+02	-0.2390	-8.179237	0.000284	2.837702	0.961439	0.000114
2004	1.9930e+02	-0.1957	-8.062160	0.000294	2.939048	0.995776	0.000118
2005	1.9940e+02	-0.1524	-8.025826	0.000091	0.912118	0.309034	0.000037
2006	1.9950e+02	-0.1155	-7.852229	0.000436	4.357899	1.476496	0.000174
2007	1.9960e+02	-0.0738	-7.698818	0.000385	3.851166	1.304810	0.000154
2008	1.9970e+02	-0.0369	-7.569630	0.000324	3.243087	1.098788	0.000130
2009	1.9980e+02	0.0080	-7.452553	0.000324	3.243087	1.098788	0.000118

PMax (uC/cm2):	5.78e+01
Pr (uC/cm2):	2.99e+00
-Pr (uC/cm2):	-5.03e+00
PLoss (uC/cm2):	-5.06e+00
-Vc:	-1.01e+00
C (Max-Eff) (nF):	2.89e-01
K (Eff):	9.79e+02
Vert. (+/-Pr) Shift (uC/cm2):	-1.02e+00
Offset (uC/cm2):	2.42e+00

A (Loop Area - uC/cm2·Volts):	3.86e-02



Hysteresis Version: 5.48.1 - Radiant Technologies, Inc., 1999 - 9/12/24

