»»»»»»»»»»»»»»»»»»»»»»»»»»»»»»»»»»»» Hysteresis ««««««««««««««««««««««««««««««««««««
»»»  Executed Version:	5.48.1
»»»  Vision Version:	5.48.4 (R)
»»»  Vision Compiled:	9/18/24
»»»  Driver Version:	5.47.0
»»»  Windows Version:	Windows 8 or 8.1
»»»  Processor Information:	x86 (AMD or Intel) - 32 Processors
»»»  Tester Name:	PMF21124-494 (100V)
»»»  Tester S/N:	PMF21124-494
»»»  Internal Amp Type:	100V RevK 270k
»»»  Internal Amp S/N:	iAB2-596/K     
»»»  Execution Count:	1
»»»»»»»»»»»»»»»»»»»»»»»»»»»»»»»»»»»»»»»»»»««««««««««««««««««««««««««««««««««««««««««

Stored:	6/18/2025 - 18:59:9
Configured:	06/18/25 09:47:30 AM
Executed:	06/18/25 06:58:41 PM

»»»»»»»»»»»»»»»»»»»»»»»»»»»»»»»»»»» Sample Info ««««««««««««««««««««««««««««««««««««
Sample Name:	
Lot Name:	
Wafer Name:	
Die Row/Column:	0/0
Capacitor Number:	0
Sample Area (cm2):	1.00e-04
Sample Thickness (microns):	3.00e-01

Amplifier:	Internal

»»»»»»»»»»»»»»»»»»»»»»»»»»»»»»»»»»» Tester Info «««««««««««««««««««««««««««««««««««
Tester Name:	PMF21124-494 (100V)
Tester Serial Number:	PMF21124-494
Return Signal Amp. Level:	0.19 [Index: 3]

»»»»»»»»»»»»»»»»»»»»»»»»»»»»»»»» Hysteresis Info ««««««««««««««««««««««««««««««««««
Task Name:	Hyst-554
Volts:	20.00
Field:	666.67 (kV/cm)
DCBias:	0.00
DCField:	0.00 (kV/cm)
Hysteresis Period (ms):	2.00e+02
Preset:	Enabled
Preset Delay (ms):	1.00e+03
Profile:	Standard Bipolar

»»»»»»»»»»»»»»»»»»»»»»»»»»»»»»»»»»»»»» Data «««««««««««««««««««««««««««««««««««««««
Points:	2009

Valid Data

Point	Time (ms)	Drive Voltage	Measured Polarization (uC/cm2)	Capacitance (uF)	Normalized Capacitance (uF/cm2)	Dielectric Constant	Instantaneous Current (mA)
   1	0.0000e+00	0.0080	-2.492931	0.000233	2.330969	0.789754	0.000093
   2	9.9500e-02	0.0305	-2.400077	0.000233	2.330969	0.789754	0.000093
   3	1.9900e-01	0.0834	-2.331446	0.000172	1.722890	0.583731	0.000069
   4	2.9850e-01	0.1139	-2.206295	0.000314	3.141741	1.064451	0.000126
   5	3.9800e-01	0.1604	-2.129589	0.000193	1.925583	0.652405	0.000077
   6	4.9750e-01	0.1973	-2.064995	0.000162	1.621544	0.549394	0.000065
   7	5.9700e-01	0.2310	-1.988289	0.000193	1.925583	0.652405	0.000077
   8	6.9650e-01	0.2759	-1.830841	0.000395	3.952513	1.339148	0.000158
   9	7.9600e-01	0.3160	-1.806618	0.000061	0.608079	0.206023	0.000024
  10	8.9550e-01	0.3513	-1.677430	0.000324	3.243087	1.098788	0.000130
  11	9.9500e-01	0.3882	-1.580539	0.000243	2.432316	0.824091	0.000097
  12	1.0945e+00	0.4331	-1.463462	0.000294	2.939048	0.995776	0.000118
  13	1.1940e+00	0.4716	-1.378682	0.000213	2.128276	0.721079	0.000085
  14	1.2935e+00	0.5214	-1.213159	0.000416	4.155206	1.407822	0.000166
  15	1.3930e+00	0.5551	-1.108194	0.000264	2.635009	0.892765	0.000105
  16	1.4925e+00	0.5936	-0.999191	0.000274	2.736355	0.927102	0.000110
  17	1.5920e+00	0.6305	-0.926523	0.000182	1.824237	0.618068	0.000073
  18	1.6915e+00	0.6642	-0.793297	0.000334	3.344434	1.133125	0.000134
  19	1.7910e+00	0.7123	-0.708517	0.000213	2.128276	0.721079	0.000085
  20	1.8905e+00	0.7524	-0.599515	0.000274	2.736355	0.927102	0.000110
  21	1.9900e+00	0.7893	-0.470326	0.000324	3.243087	1.098788	0.000130
  22	2.0895e+00	0.8342	-0.429955	0.000101	1.013465	0.343371	0.000041
  23	2.1890e+00	0.8775	-0.337101	0.000233	2.330969	0.789754	0.000093
  24	2.2885e+00	0.9176	-0.276544	0.000152	1.520197	0.515057	0.000061
  25	2.3880e+00	0.9577	-0.147355	0.000324	3.243087	1.098788	0.000130
  26	2.4875e+00	0.9914	-0.050464	0.000243	2.432316	0.824091	0.000097
  27	2.5870e+00	1.0283	0.058538	0.000274	2.736355	0.927102	0.000110
  28	2.6865e+00	1.0668	0.163504	0.000264	2.635009	0.892765	0.000105
  29	2.7860e+00	1.1021	0.256358	0.000233	2.330969	0.789754	0.000093
  30	2.8855e+00	1.1486	0.357287	0.000253	2.533662	0.858428	0.000101
  31	2.9850e+00	1.1935	0.502623	0.000365	3.648473	1.236136	0.000146
  32	3.0845e+00	1.2321	0.611626	0.000274	2.736355	0.927102	0.000110
  33	3.1840e+00	1.2802	0.773111	0.000405	4.053859	1.373485	0.000162
  34	3.2835e+00	1.3155	0.857891	0.000213	2.128276	0.721079	0.000085
  35	3.3830e+00	1.3460	0.987080	0.000324	3.243087	1.098788	0.000130
  36	3.4825e+00	1.3941	1.063785	0.000193	1.925583	0.652405	0.000077
  37	3.5820e+00	1.4278	1.164714	0.000253	2.533662	0.858428	0.000101
  38	3.6815e+00	1.4695	1.301976	0.000345	3.445780	1.167462	0.000138
  39	3.7810e+00	1.5048	1.402905	0.000253	2.533662	0.858428	0.000101
  40	3.8805e+00	1.5545	1.451350	0.000122	1.216158	0.412045	0.000049
  41	3.9800e+00	1.5930	1.556316	0.000264	2.635009	0.892765	0.000105
  42	4.0795e+00	1.6443	1.681467	0.000314	3.141741	1.064451	0.000126
  43	4.1790e+00	1.6764	1.742024	0.000152	1.520197	0.515057	0.000061
  44	4.2785e+00	1.7133	1.838915	0.000243	2.432316	0.824091	0.000097
  45	4.3780e+00	1.7518	2.000401	0.000405	4.053859	1.373485	0.000162
  46	4.4775e+00	1.7871	2.060958	0.000152	1.520197	0.515057	0.000061
  47	4.5770e+00	1.8336	2.206295	0.000365	3.648473	1.236136	0.000146
  48	4.6765e+00	1.8753	2.303186	0.000243	2.432316	0.824091	0.000097
  49	4.7760e+00	1.9026	2.444486	0.000355	3.547127	1.201799	0.000142
  50	4.8755e+00	1.9475	2.549451	0.000264	2.635009	0.892765	0.000105
  51	4.9750e+00	1.9812	2.670565	0.000304	3.040395	1.030114	0.000122
  52	5.0745e+00	2.0261	2.783605	0.000284	2.837702	0.961439	0.000114
  53	5.1740e+00	2.0598	2.924905	0.000355	3.547127	1.201799	0.000142
  54	5.2735e+00	2.1096	3.013722	0.000223	2.229623	0.755417	0.000089
  55	5.3730e+00	2.1513	3.106576	0.000233	2.330969	0.789754	0.000093
  56	5.4725e+00	2.1834	3.239801	0.000334	3.344434	1.133125	0.000134
  57	5.5720e+00	2.2283	3.328618	0.000223	2.229623	0.755417	0.000089
  58	5.6715e+00	2.2764	3.445695	0.000294	2.939048	0.995776	0.000118
  59	5.7710e+00	2.3021	3.461844	0.000041	0.405386	0.137348	0.000016
  60	5.8705e+00	2.3566	3.574884	0.000284	2.837702	0.961439	0.000114
  61	5.9700e+00	2.3823	3.695998	0.000304	3.040395	1.030114	0.000122
  62	6.0695e+00	2.4224	3.829223	0.000334	3.344434	1.133125	0.000134
  63	6.1690e+00	2.4673	3.930152	0.000253	2.533662	0.858428	0.000101
  64	6.2685e+00	2.5106	4.035117	0.000264	2.635009	0.892765	0.000105
  65	6.3680e+00	2.5427	4.172380	0.000345	3.445780	1.167462	0.000138
  66	6.4675e+00	2.5956	4.216788	0.000111	1.114811	0.377708	0.000045
  67	6.5670e+00	2.6293	4.378274	0.000405	4.053859	1.373485	0.000162
  68	6.6665e+00	2.6775	4.543796	0.000416	4.155206	1.407822	0.000166
  69	6.7660e+00	2.6967	4.608390	0.000162	1.621544	0.549394	0.000065
  70	6.8655e+00	2.7448	4.786024	0.000446	4.459245	1.510833	0.000179
  71	6.9650e+00	2.7882	4.850619	0.000162	1.621544	0.549394	0.000065
  72	7.0645e+00	2.8299	4.955584	0.000264	2.635009	0.892765	0.000105
  73	7.1640e+00	2.8620	5.044401	0.000223	2.229623	0.755417	0.000089
  74	7.2635e+00	2.9085	5.193775	0.000375	3.749820	1.270473	0.000150
  75	7.3630e+00	2.9438	5.278555	0.000213	2.128276	0.721079	0.000085
  76	7.4625e+00	2.9775	5.355261	0.000193	1.925583	0.652405	0.000077
  77	7.5620e+00	3.0336	5.460226	0.000264	2.635009	0.892765	0.000105
  78	7.6615e+00	3.0657	5.569229	0.000274	2.736355	0.927102	0.000110
  79	7.7610e+00	3.1154	5.694380	0.000314	3.141741	1.064451	0.000126
  80	7.8605e+00	3.1411	5.775123	0.000203	2.026930	0.686742	0.000081
  81	7.9600e+00	3.1828	5.916422	0.000355	3.547127	1.201799	0.000142
  82	8.0595e+00	3.2341	6.041574	0.000314	3.141741	1.064451	0.000126
  83	8.1590e+00	3.2614	6.158651	0.000294	2.939048	0.995776	0.000118
  84	8.2585e+00	3.3031	6.251505	0.000233	2.330969	0.789754	0.000093
  85	8.3580e+00	3.3464	6.368582	0.000294	2.939048	0.995776	0.000118
  86	8.4575e+00	3.3865	6.517956	0.000375	3.749820	1.270473	0.000150
  87	8.5570e+00	3.4234	6.643107	0.000314	3.141741	1.064451	0.000126
  88	8.6565e+00	3.4651	6.748072	0.000264	2.635009	0.892765	0.000105
  89	8.7560e+00	3.4908	6.869186	0.000304	3.040395	1.030114	0.000122
  90	8.8555e+00	3.5325	7.026635	0.000395	3.952513	1.339148	0.000158
  91	8.9550e+00	3.5823	7.091229	0.000162	1.621544	0.549394	0.000065
  92	9.0545e+00	3.6304	7.228492	0.000345	3.445780	1.167462	0.000138
  93	9.1540e+00	3.6625	7.285011	0.000142	1.418851	0.480720	0.000057
  94	9.2535e+00	3.7026	7.365754	0.000203	2.026930	0.686742	0.000081
  95	9.3530e+00	3.7459	7.507054	0.000355	3.547127	1.201799	0.000142
  96	9.4525e+00	3.7796	7.595871	0.000223	2.229623	0.755417	0.000089
  97	9.5520e+00	3.8197	7.692762	0.000243	2.432316	0.824091	0.000097
  98	9.6515e+00	3.8598	7.850210	0.000395	3.952513	1.339148	0.000158
  99	9.7510e+00	3.9031	7.951139	0.000253	2.533662	0.858428	0.000101
 100	9.8505e+00	3.9448	8.043993	0.000233	2.330969	0.789754	0.000093
 101	9.9500e+00	3.9881	8.181256	0.000345	3.445780	1.167462	0.000138
 102	1.0050e+01	4.0266	8.322555	0.000355	3.547127	1.201799	0.000142
 103	1.0149e+01	4.0651	8.447707	0.000314	3.141741	1.064451	0.000126
 104	1.0248e+01	4.1052	8.576895	0.000324	3.243087	1.098788	0.000130
 105	1.0348e+01	4.1277	8.710120	0.000334	3.344434	1.133125	0.000134
 106	1.0447e+01	4.1822	8.815086	0.000264	2.635009	0.892765	0.000105
 107	1.0547e+01	4.2159	8.936200	0.000304	3.040395	1.030114	0.000122
 108	1.0646e+01	4.2608	9.065388	0.000324	3.243087	1.098788	0.000130
 109	1.0746e+01	4.2881	9.117871	0.000132	1.317504	0.446383	0.000053
 110	1.0845e+01	4.3427	9.230911	0.000284	2.837702	0.961439	0.000114
 111	1.0945e+01	4.3844	9.303579	0.000182	1.824237	0.618068	0.000073
 112	1.1044e+01	4.4229	9.444879	0.000355	3.547127	1.201799	0.000142
 113	1.1144e+01	4.4614	9.493325	0.000122	1.216158	0.412045	0.000049
 114	1.1243e+01	4.5047	9.662884	0.000426	4.256552	1.442159	0.000170
 115	1.1343e+01	4.5448	9.771887	0.000274	2.736355	0.927102	0.000110
 116	1.1443e+01	4.5769	9.893001	0.000304	3.040395	1.030114	0.000122
 117	1.1542e+01	4.6186	10.010078	0.000294	2.939048	0.995776	0.000118
 118	1.1642e+01	4.6619	10.131192	0.000304	3.040395	1.030114	0.000122
 119	1.1741e+01	4.6972	10.240195	0.000274	2.736355	0.927102	0.000110
 120	1.1841e+01	4.7341	10.405717	0.000416	4.155206	1.407822	0.000166
 121	1.1940e+01	4.7822	10.502609	0.000243	2.432316	0.824091	0.000097
 122	1.2040e+01	4.8159	10.639871	0.000345	3.445780	1.167462	0.000138
 123	1.2139e+01	4.8560	10.740800	0.000253	2.533662	0.858428	0.000101
 124	1.2239e+01	4.8977	10.853839	0.000284	2.837702	0.961439	0.000114
 125	1.2338e+01	4.9426	11.007251	0.000385	3.851166	1.304810	0.000154
 126	1.2438e+01	4.9779	11.100105	0.000233	2.330969	0.789754	0.000093
 127	1.2537e+01	5.0180	11.164699	0.000162	1.621544	0.549394	0.000065
 128	1.2636e+01	5.0630	11.261590	0.000243	2.432316	0.824091	0.000097
 129	1.2736e+01	5.0999	11.362519	0.000253	2.533662	0.858428	0.000101
 130	1.2835e+01	5.1335	11.479595	0.000294	2.939048	0.995776	0.000118
 131	1.2935e+01	5.1672	11.600710	0.000304	3.040395	1.030114	0.000122
 132	1.3034e+01	5.2138	11.709712	0.000274	2.736355	0.927102	0.000110
 133	1.3134e+01	5.2715	11.842938	0.000334	3.344434	1.133125	0.000134
 134	1.3233e+01	5.3020	11.960015	0.000294	2.939048	0.995776	0.000118
 135	1.3333e+01	5.3485	12.097277	0.000345	3.445780	1.167462	0.000138
 136	1.3432e+01	5.3774	12.218391	0.000304	3.040395	1.030114	0.000122
 137	1.3532e+01	5.4127	12.347580	0.000324	3.243087	1.098788	0.000130
 138	1.3632e+01	5.4512	12.452545	0.000264	2.635009	0.892765	0.000105
 139	1.3731e+01	5.4849	12.601919	0.000375	3.749820	1.270473	0.000150
 140	1.3831e+01	5.5330	12.690736	0.000223	2.229623	0.755417	0.000089
 141	1.3930e+01	5.5715	12.795702	0.000264	2.635009	0.892765	0.000105
 142	1.4030e+01	5.6068	12.957187	0.000405	4.053859	1.373485	0.000162
 143	1.4129e+01	5.6533	13.066190	0.000274	2.736355	0.927102	0.000110
 144	1.4229e+01	5.6918	13.159044	0.000233	2.330969	0.789754	0.000093
 145	1.4328e+01	5.7448	13.231712	0.000182	1.824237	0.618068	0.000073
 146	1.4428e+01	5.7784	13.332641	0.000253	2.533662	0.858428	0.000101
 147	1.4527e+01	5.8121	13.453755	0.000304	3.040395	1.030114	0.000122
 148	1.4627e+01	5.8522	13.558720	0.000264	2.635009	0.892765	0.000105
 149	1.4726e+01	5.8940	13.691946	0.000334	3.344434	1.133125	0.000134
 150	1.4825e+01	5.9260	13.792874	0.000253	2.533662	0.858428	0.000101
 151	1.4925e+01	5.9710	13.913988	0.000304	3.040395	1.030114	0.000122
 152	1.5024e+01	6.0143	14.059325	0.000365	3.648473	1.236136	0.000146
 153	1.5124e+01	6.0672	14.228885	0.000426	4.256552	1.442159	0.000170
 154	1.5223e+01	6.0945	14.341925	0.000284	2.837702	0.961439	0.000114
 155	1.5323e+01	6.1362	14.434779	0.000233	2.330969	0.789754	0.000093
 156	1.5422e+01	6.1779	14.568004	0.000334	3.344434	1.133125	0.000134
 157	1.5522e+01	6.2132	14.668933	0.000253	2.533662	0.858428	0.000101
 158	1.5621e+01	6.2501	14.786010	0.000294	2.939048	0.995776	0.000118
 159	1.5721e+01	6.2886	14.915198	0.000324	3.243087	1.098788	0.000130
 160	1.5820e+01	6.3303	15.020164	0.000264	2.635009	0.892765	0.000105
 161	1.5920e+01	6.3800	15.145315	0.000314	3.141741	1.064451	0.000126
 162	1.6020e+01	6.4153	15.254317	0.000274	2.736355	0.927102	0.000110
 163	1.6119e+01	6.4554	15.343134	0.000223	2.229623	0.755417	0.000089
 164	1.6218e+01	6.4875	15.423877	0.000203	2.026930	0.686742	0.000081
 165	1.6318e+01	6.5292	15.532880	0.000274	2.736355	0.927102	0.000110
 166	1.6418e+01	6.5677	15.637845	0.000264	2.635009	0.892765	0.000105
 167	1.6517e+01	6.6094	15.779145	0.000355	3.547127	1.201799	0.000142
 168	1.6616e+01	6.6495	15.900259	0.000304	3.040395	1.030114	0.000122
 169	1.6716e+01	6.6864	16.009262	0.000274	2.736355	0.927102	0.000110
 170	1.6816e+01	6.7346	16.130376	0.000304	3.040395	1.030114	0.000122
 171	1.6915e+01	6.7683	16.283787	0.000385	3.851166	1.304810	0.000154
 172	1.7015e+01	6.8180	16.388753	0.000264	2.635009	0.892765	0.000105
 173	1.7114e+01	6.8437	16.521978	0.000334	3.344434	1.133125	0.000134
 174	1.7213e+01	6.8902	16.630981	0.000274	2.736355	0.927102	0.000110
 175	1.7313e+01	6.9383	16.760169	0.000324	3.243087	1.098788	0.000130
 176	1.7413e+01	6.9624	16.897432	0.000345	3.445780	1.167462	0.000138
 177	1.7512e+01	7.0025	16.970100	0.000182	1.824237	0.618068	0.000073
 178	1.7611e+01	7.0474	17.111400	0.000355	3.547127	1.201799	0.000142
 179	1.7711e+01	7.0859	17.212328	0.000253	2.533662	0.858428	0.000101
 180	1.7811e+01	7.1292	17.284997	0.000182	1.824237	0.618068	0.000073
 181	1.7910e+01	7.1693	17.418222	0.000334	3.344434	1.133125	0.000134
 182	1.8009e+01	7.2094	17.535299	0.000294	2.939048	0.995776	0.000118
 183	1.8109e+01	7.2495	17.628153	0.000233	2.330969	0.789754	0.000093
 184	1.8209e+01	7.2896	17.765416	0.000345	3.445780	1.167462	0.000138
 185	1.8308e+01	7.3233	17.846159	0.000203	2.026930	0.686742	0.000081
 186	1.8407e+01	7.3618	17.967273	0.000304	3.040395	1.030114	0.000122
 187	1.8507e+01	7.4035	18.128758	0.000405	4.053859	1.373485	0.000162
 188	1.8607e+01	7.4436	18.237761	0.000274	2.736355	0.927102	0.000110
 189	1.8706e+01	7.4805	18.358875	0.000304	3.040395	1.030114	0.000122
 190	1.8805e+01	7.5287	18.471915	0.000284	2.837702	0.961439	0.000114
 191	1.8905e+01	7.5656	18.613214	0.000355	3.547127	1.201799	0.000142
 192	1.9005e+01	7.6041	18.706068	0.000233	2.330969	0.789754	0.000093
 193	1.9104e+01	7.6458	18.871591	0.000416	4.155206	1.407822	0.000166
 194	1.9203e+01	7.6971	18.988668	0.000294	2.939048	0.995776	0.000118
 195	1.9303e+01	7.7260	19.097671	0.000274	2.736355	0.927102	0.000110
 196	1.9402e+01	7.7613	19.194562	0.000243	2.432316	0.824091	0.000097
 197	1.9502e+01	7.8126	19.335862	0.000355	3.547127	1.201799	0.000142
 198	1.9602e+01	7.8479	19.404493	0.000172	1.722890	0.583731	0.000069
 199	1.9701e+01	7.8912	19.505421	0.000253	2.533662	0.858428	0.000101
 200	1.9800e+01	7.9313	19.622498	0.000294	2.939048	0.995776	0.000118
 201	1.9900e+01	7.9666	19.707278	0.000213	2.128276	0.721079	0.000085
 202	2.0000e+01	8.0147	19.836466	0.000324	3.243087	1.098788	0.000130
 203	2.0099e+01	8.0436	19.949506	0.000284	2.837702	0.961439	0.000114
 204	2.0198e+01	8.0901	20.086769	0.000345	3.445780	1.167462	0.000138
 205	2.0298e+01	8.1286	20.203846	0.000294	2.939048	0.995776	0.000118
 206	2.0398e+01	8.1623	20.328997	0.000314	3.141741	1.064451	0.000126
 207	2.0497e+01	8.2105	20.466260	0.000345	3.445780	1.167462	0.000138
 208	2.0596e+01	8.2442	20.615634	0.000375	3.749820	1.270473	0.000150
 209	2.0696e+01	8.2778	20.720599	0.000264	2.635009	0.892765	0.000105
 210	2.0796e+01	8.3212	20.841713	0.000304	3.040395	1.030114	0.000122
 211	2.0895e+01	8.3613	20.942642	0.000253	2.533662	0.858428	0.000101
 212	2.0994e+01	8.3998	21.063756	0.000304	3.040395	1.030114	0.000122
 213	2.1094e+01	8.4367	21.168721	0.000264	2.635009	0.892765	0.000105
 214	2.1194e+01	8.4832	21.330207	0.000405	4.053859	1.373485	0.000162
 215	2.1293e+01	8.5217	21.431135	0.000253	2.533662	0.858428	0.000101
 216	2.1392e+01	8.5586	21.532063	0.000253	2.533662	0.858428	0.000101
 217	2.1492e+01	8.6083	21.649140	0.000294	2.939048	0.995776	0.000118
 218	2.1591e+01	8.6420	21.750069	0.000253	2.533662	0.858428	0.000101
 219	2.1691e+01	8.6869	21.830812	0.000203	2.026930	0.686742	0.000081
 220	2.1791e+01	8.7206	21.972111	0.000355	3.547127	1.201799	0.000142
 221	2.1890e+01	8.7752	22.060928	0.000223	2.229623	0.755417	0.000089
 222	2.1989e+01	8.7992	22.182042	0.000304	3.040395	1.030114	0.000122
 223	2.2089e+01	8.8345	22.295082	0.000284	2.837702	0.961439	0.000114
 224	2.2189e+01	8.8778	22.468679	0.000436	4.357899	1.476496	0.000174
 225	2.2288e+01	8.9211	22.593830	0.000314	3.141741	1.064451	0.000126
 226	2.2387e+01	8.9516	22.718981	0.000314	3.141741	1.064451	0.000126
 227	2.2487e+01	8.9981	22.840095	0.000304	3.040395	1.030114	0.000122
 228	2.2587e+01	9.0334	22.973321	0.000334	3.344434	1.133125	0.000134
 229	2.2686e+01	9.0848	23.058101	0.000213	2.128276	0.721079	0.000085
 230	2.2785e+01	9.1185	23.154992	0.000243	2.432316	0.824091	0.000097
 231	2.2885e+01	9.1634	23.263995	0.000274	2.736355	0.927102	0.000110
 232	2.2985e+01	9.2019	23.433554	0.000426	4.256552	1.442159	0.000170
 233	2.3084e+01	9.2340	23.514297	0.000203	2.026930	0.686742	0.000081
 234	2.3183e+01	9.2805	23.647523	0.000334	3.344434	1.133125	0.000134
 235	2.3283e+01	9.3254	23.760562	0.000284	2.837702	0.961439	0.000114
 236	2.3383e+01	9.3559	23.841305	0.000203	2.026930	0.686742	0.000081
 237	2.3482e+01	9.4008	23.958382	0.000294	2.939048	0.995776	0.000118
 238	2.3581e+01	9.4409	24.043162	0.000213	2.128276	0.721079	0.000085
 239	2.3681e+01	9.4938	24.192536	0.000375	3.749820	1.270473	0.000150
 240	2.3780e+01	9.5195	24.289427	0.000243	2.432316	0.824091	0.000097
 241	2.3880e+01	9.5596	24.434764	0.000365	3.648473	1.236136	0.000146
 242	2.3980e+01	9.6029	24.616435	0.000456	4.560592	1.545170	0.000183
 243	2.4079e+01	9.6398	24.705252	0.000223	2.229623	0.755417	0.000089
 244	2.4178e+01	9.6687	24.810218	0.000264	2.635009	0.892765	0.000105
 245	2.4278e+01	9.7152	24.939406	0.000324	3.243087	1.098788	0.000130
 246	2.4378e+01	9.7489	25.036297	0.000243	2.432316	0.824091	0.000097
 247	2.4477e+01	9.8035	25.201820	0.000416	4.155206	1.407822	0.000166
 248	2.4576e+01	9.8356	25.294674	0.000233	2.330969	0.789754	0.000093
 249	2.4676e+01	9.8757	25.407714	0.000284	2.837702	0.961439	0.000114
 250	2.4776e+01	9.9142	25.540939	0.000334	3.344434	1.133125	0.000134
 251	2.4875e+01	9.9559	25.637831	0.000243	2.432316	0.824091	0.000097
 252	2.4974e+01	9.9896	25.775093	0.000345	3.445780	1.167462	0.000138
 253	2.5074e+01	10.0425	25.876022	0.000253	2.533662	0.858428	0.000101
 254	2.5174e+01	10.0810	25.993098	0.000294	2.939048	0.995776	0.000118
 255	2.5273e+01	10.1243	26.089990	0.000243	2.432316	0.824091	0.000097
 256	2.5372e+01	10.1660	26.198992	0.000274	2.736355	0.927102	0.000110
 257	2.5472e+01	10.2029	26.279735	0.000203	2.026930	0.686742	0.000081
 258	2.5572e+01	10.2334	26.465443	0.000466	4.661938	1.579507	0.000187
 259	2.5671e+01	10.2719	26.598669	0.000334	3.344434	1.133125	0.000134
 260	2.5770e+01	10.3200	26.679412	0.000203	2.026930	0.686742	0.000081
 261	2.5870e+01	10.3601	26.840897	0.000405	4.053859	1.373485	0.000162
 262	2.5970e+01	10.3922	26.949900	0.000274	2.736355	0.927102	0.000110
 263	2.6069e+01	10.4275	27.062939	0.000284	2.837702	0.961439	0.000114
 264	2.6169e+01	10.4837	27.208276	0.000365	3.648473	1.236136	0.000146
 265	2.6268e+01	10.5206	27.329390	0.000304	3.040395	1.030114	0.000122
 266	2.6367e+01	10.5559	27.466653	0.000345	3.445780	1.167462	0.000138
 267	2.6467e+01	10.5944	27.591804	0.000314	3.141741	1.064451	0.000126
 268	2.6567e+01	10.6377	27.660436	0.000172	1.722890	0.583731	0.000069
 269	2.6666e+01	10.6681	27.789624	0.000324	3.243087	1.098788	0.000130
 270	2.6765e+01	10.7066	27.898627	0.000274	2.736355	0.927102	0.000110
 271	2.6865e+01	10.7548	28.015703	0.000294	2.939048	0.995776	0.000118
 272	2.6965e+01	10.7901	28.072223	0.000142	1.418851	0.480720	0.000057
 273	2.7064e+01	10.8270	28.205449	0.000334	3.344434	1.133125	0.000134
 274	2.7163e+01	10.8703	28.314451	0.000274	2.736355	0.927102	0.000110
 275	2.7263e+01	10.9152	28.439603	0.000314	3.141741	1.064451	0.000126
 276	2.7363e+01	10.9537	28.609162	0.000426	4.256552	1.442159	0.000170
 277	2.7462e+01	10.9954	28.722202	0.000284	2.837702	0.961439	0.000114
 278	2.7561e+01	11.0259	28.847353	0.000314	3.141741	1.064451	0.000126
 279	2.7661e+01	11.0628	28.992690	0.000365	3.648473	1.236136	0.000146
 280	2.7761e+01	11.1205	29.081507	0.000223	2.229623	0.755417	0.000089
 281	2.7860e+01	11.1494	29.206658	0.000314	3.141741	1.064451	0.000126
 282	2.7959e+01	11.1959	29.327773	0.000304	3.040395	1.030114	0.000122
 283	2.8059e+01	11.2296	29.436775	0.000274	2.736355	0.927102	0.000110
 284	2.8159e+01	11.2697	29.553852	0.000294	2.939048	0.995776	0.000118
 285	2.8258e+01	11.3130	29.662855	0.000274	2.736355	0.927102	0.000110
 286	2.8358e+01	11.3516	29.804155	0.000355	3.547127	1.201799	0.000142
 287	2.8457e+01	11.3997	29.905083	0.000253	2.533662	0.858428	0.000101
 288	2.8556e+01	11.4318	30.001974	0.000243	2.432316	0.824091	0.000097
 289	2.8656e+01	11.4703	30.119051	0.000294	2.939048	0.995776	0.000118
 290	2.8756e+01	11.5072	30.211905	0.000233	2.330969	0.789754	0.000093
 291	2.8855e+01	11.5505	30.357242	0.000365	3.648473	1.236136	0.000146
 292	2.8954e+01	11.5954	30.450096	0.000233	2.330969	0.789754	0.000093
 293	2.9054e+01	11.6419	30.563136	0.000284	2.837702	0.961439	0.000114
 294	2.9154e+01	11.6676	30.716547	0.000385	3.851166	1.304810	0.000154
 295	2.9253e+01	11.7061	30.849773	0.000334	3.344434	1.133125	0.000134
 296	2.9352e+01	11.7526	30.995110	0.000365	3.648473	1.236136	0.000146
 297	2.9452e+01	11.7927	31.079889	0.000213	2.128276	0.721079	0.000085
 298	2.9552e+01	11.8344	31.205041	0.000314	3.141741	1.064451	0.000126
 299	2.9651e+01	11.8697	31.334229	0.000324	3.243087	1.098788	0.000130
 300	2.9750e+01	11.9050	31.419009	0.000213	2.128276	0.721079	0.000085
 301	2.9850e+01	11.9451	31.552234	0.000334	3.344434	1.133125	0.000134
 302	2.9950e+01	11.9852	31.673348	0.000304	3.040395	1.030114	0.000122
 303	3.0049e+01	12.0301	31.802537	0.000324	3.243087	1.098788	0.000130
 304	3.0148e+01	12.0735	31.907502	0.000264	2.635009	0.892765	0.000105
 305	3.0248e+01	12.1007	32.032654	0.000314	3.141741	1.064451	0.000126
 306	3.0348e+01	12.1473	32.125508	0.000233	2.330969	0.789754	0.000093
 307	3.0447e+01	12.1986	32.242585	0.000294	2.939048	0.995776	0.000118
 308	3.0547e+01	12.2419	32.319290	0.000193	1.925583	0.652405	0.000077
 309	3.0646e+01	12.2660	32.448478	0.000324	3.243087	1.098788	0.000130
 310	3.0745e+01	12.3109	32.581704	0.000334	3.344434	1.133125	0.000134
 311	3.0845e+01	12.3494	32.747227	0.000416	4.155206	1.407822	0.000166
 312	3.0945e+01	12.3863	32.827969	0.000203	2.026930	0.686742	0.000081
 313	3.1044e+01	12.4264	32.957158	0.000324	3.243087	1.098788	0.000130
 314	3.1143e+01	12.4713	33.102494	0.000365	3.648473	1.236136	0.000146
 315	3.1243e+01	12.5066	33.223609	0.000304	3.040395	1.030114	0.000122
 316	3.1343e+01	12.5563	33.344723	0.000304	3.040395	1.030114	0.000122
 317	3.1442e+01	12.5836	33.477948	0.000334	3.344434	1.133125	0.000134
 318	3.1541e+01	12.6301	33.550617	0.000182	1.824237	0.618068	0.000073
 319	3.1641e+01	12.6606	33.687879	0.000345	3.445780	1.167462	0.000138
 320	3.1741e+01	12.7039	33.821105	0.000334	3.344434	1.133125	0.000134
 321	3.1840e+01	12.7424	33.913959	0.000233	2.330969	0.789754	0.000093
 322	3.1939e+01	12.7922	34.051221	0.000345	3.445780	1.167462	0.000138
 323	3.2039e+01	12.8242	34.168298	0.000294	2.939048	0.995776	0.000118
 324	3.2139e+01	12.8676	34.289412	0.000304	3.040395	1.030114	0.000122
 325	3.2238e+01	12.8996	34.374192	0.000213	2.128276	0.721079	0.000085
 326	3.2337e+01	12.9462	34.446861	0.000182	1.824237	0.618068	0.000073
 327	3.2437e+01	12.9895	34.592198	0.000365	3.648473	1.236136	0.000146
 328	3.2536e+01	13.0183	34.725423	0.000334	3.344434	1.133125	0.000134
 329	3.2636e+01	13.0552	34.842500	0.000294	2.939048	0.995776	0.000118
 330	3.2736e+01	13.1018	34.951503	0.000274	2.736355	0.927102	0.000110
 331	3.2835e+01	13.1451	35.072617	0.000304	3.040395	1.030114	0.000122
 332	3.2934e+01	13.1820	35.201805	0.000324	3.243087	1.098788	0.000130
 333	3.3034e+01	13.2189	35.258325	0.000142	1.418851	0.480720	0.000057
 334	3.3133e+01	13.2670	35.431922	0.000436	4.357899	1.476496	0.000174
 335	3.3233e+01	13.2975	35.569184	0.000345	3.445780	1.167462	0.000138
 336	3.3333e+01	13.3488	35.653964	0.000213	2.128276	0.721079	0.000085
 337	3.3432e+01	13.3761	35.775078	0.000304	3.040395	1.030114	0.000122
 338	3.3532e+01	13.4258	35.900230	0.000314	3.141741	1.064451	0.000126
 339	3.3631e+01	13.4627	36.021344	0.000304	3.040395	1.030114	0.000122
 340	3.3730e+01	13.4996	36.106123	0.000213	2.128276	0.721079	0.000085
 341	3.3830e+01	13.5461	36.235312	0.000324	3.243087	1.098788	0.000130
 342	3.3929e+01	13.5798	36.348352	0.000284	2.837702	0.961439	0.000114
 343	3.4029e+01	13.6247	36.449280	0.000253	2.533662	0.858428	0.000101
 344	3.4129e+01	13.6600	36.534060	0.000213	2.128276	0.721079	0.000085
 345	3.4228e+01	13.6969	36.675360	0.000355	3.547127	1.201799	0.000142
 346	3.4328e+01	13.7435	36.804548	0.000324	3.243087	1.098788	0.000130
 347	3.4427e+01	13.7772	36.921625	0.000294	2.939048	0.995776	0.000118
 348	3.4526e+01	13.8189	37.030628	0.000274	2.736355	0.927102	0.000110
 349	3.4626e+01	13.8718	37.167890	0.000345	3.445780	1.167462	0.000138
 350	3.4725e+01	13.8991	37.280930	0.000284	2.837702	0.961439	0.000114
 351	3.4825e+01	13.9376	37.418193	0.000345	3.445780	1.167462	0.000138
 352	3.4925e+01	13.9777	37.535270	0.000294	2.939048	0.995776	0.000118
 353	3.5024e+01	14.0226	37.628124	0.000233	2.330969	0.789754	0.000093
 354	3.5123e+01	14.0531	37.757312	0.000324	3.243087	1.098788	0.000130
 355	3.5223e+01	14.1076	37.829980	0.000182	1.824237	0.618068	0.000073
 356	3.5322e+01	14.1461	37.967243	0.000345	3.445780	1.167462	0.000138
 357	3.5422e+01	14.1734	38.120654	0.000385	3.851166	1.304810	0.000154
 358	3.5522e+01	14.2167	38.229657	0.000274	2.736355	0.927102	0.000110
 359	3.5621e+01	14.2568	38.338660	0.000274	2.736355	0.927102	0.000110
 360	3.5721e+01	14.3033	38.407291	0.000172	1.722890	0.583731	0.000069
 361	3.5820e+01	14.3418	38.492071	0.000213	2.128276	0.721079	0.000085
 362	3.5919e+01	14.3755	38.641445	0.000375	3.749820	1.270473	0.000150
 363	3.6019e+01	14.4140	38.786782	0.000365	3.648473	1.236136	0.000146
 364	3.6118e+01	14.4606	38.932118	0.000365	3.648473	1.236136	0.000146
 365	3.6218e+01	14.5055	38.996713	0.000162	1.621544	0.549394	0.000065
 366	3.6318e+01	14.5392	39.178384	0.000456	4.560592	1.545170	0.000183
 367	3.6417e+01	14.5793	39.259126	0.000203	2.026930	0.686742	0.000081
 368	3.6517e+01	14.6194	39.376203	0.000294	2.939048	0.995776	0.000118
 369	3.6616e+01	14.6643	39.517503	0.000355	3.547127	1.201799	0.000142
 370	3.6715e+01	14.7028	39.638617	0.000304	3.040395	1.030114	0.000122
 371	3.6815e+01	14.7365	39.727434	0.000223	2.229623	0.755417	0.000089
 372	3.6914e+01	14.7766	39.836437	0.000274	2.736355	0.927102	0.000110
 373	3.7014e+01	14.8183	39.989848	0.000385	3.851166	1.304810	0.000154
 374	3.7114e+01	14.8568	40.090776	0.000253	2.533662	0.858428	0.000101
 375	3.7213e+01	14.8921	40.195742	0.000264	2.635009	0.892765	0.000105
 376	3.7313e+01	14.9354	40.308782	0.000284	2.837702	0.961439	0.000114
 377	3.7412e+01	14.9771	40.401636	0.000233	2.330969	0.789754	0.000093
 378	3.7511e+01	15.0236	40.534861	0.000334	3.344434	1.133125	0.000134
 379	3.7611e+01	15.0589	40.607530	0.000182	1.824237	0.618068	0.000073
 380	3.7711e+01	15.0990	40.773052	0.000416	4.155206	1.407822	0.000166
 381	3.7810e+01	15.1295	40.894166	0.000304	3.040395	1.030114	0.000122
 382	3.7910e+01	15.1744	40.987021	0.000233	2.330969	0.789754	0.000093
 383	3.8009e+01	15.2242	41.083912	0.000243	2.432316	0.824091	0.000097
 384	3.8108e+01	15.2611	41.253472	0.000426	4.256552	1.442159	0.000170
 385	3.8208e+01	15.2980	41.366511	0.000284	2.837702	0.961439	0.000114
 386	3.8307e+01	15.3349	41.495700	0.000324	3.243087	1.098788	0.000130
 387	3.8407e+01	15.3734	41.628925	0.000334	3.344434	1.133125	0.000134
 388	3.8507e+01	15.4167	41.733891	0.000264	2.635009	0.892765	0.000105
 389	3.8606e+01	15.4456	41.838856	0.000264	2.635009	0.892765	0.000105
 390	3.8706e+01	15.4969	41.955933	0.000294	2.939048	0.995776	0.000118
 391	3.8805e+01	15.5306	42.048787	0.000233	2.330969	0.789754	0.000093
 392	3.8904e+01	15.5771	42.190087	0.000355	3.547127	1.201799	0.000142
 393	3.9004e+01	15.6060	42.311201	0.000304	3.040395	1.030114	0.000122
 394	3.9103e+01	15.6509	42.412129	0.000253	2.533662	0.858428	0.000101
 395	3.9203e+01	15.6894	42.517095	0.000264	2.635009	0.892765	0.000105
 396	3.9303e+01	15.7311	42.650321	0.000334	3.344434	1.133125	0.000134
 397	3.9402e+01	15.7712	42.735100	0.000213	2.128276	0.721079	0.000085
 398	3.9502e+01	15.8113	42.852177	0.000294	2.939048	0.995776	0.000118
 399	3.9601e+01	15.8530	42.977328	0.000314	3.141741	1.064451	0.000126
 400	3.9700e+01	15.8979	43.078257	0.000253	2.533662	0.858428	0.000101
 401	3.9800e+01	15.9316	43.175148	0.000243	2.432316	0.824091	0.000097
 402	3.9900e+01	15.9733	43.308374	0.000334	3.344434	1.133125	0.000134
 403	3.9999e+01	16.0086	43.453711	0.000365	3.648473	1.236136	0.000146
 404	4.0099e+01	16.0520	43.534453	0.000203	2.026930	0.686742	0.000081
 405	4.0198e+01	16.0937	43.647493	0.000284	2.837702	0.961439	0.000114
 406	4.0297e+01	16.1322	43.792830	0.000365	3.648473	1.236136	0.000146
 407	4.0397e+01	16.1707	43.881647	0.000223	2.229623	0.755417	0.000089
 408	4.0496e+01	16.2011	44.026984	0.000365	3.648473	1.236136	0.000146
 409	4.0596e+01	16.2541	44.127912	0.000253	2.533662	0.858428	0.000101
 410	4.0696e+01	16.2782	44.236915	0.000274	2.736355	0.927102	0.000110
 411	4.0795e+01	16.3295	44.382252	0.000365	3.648473	1.236136	0.000146
 412	4.0895e+01	16.3728	44.458957	0.000193	1.925583	0.652405	0.000077
 413	4.0994e+01	16.4065	44.584109	0.000314	3.141741	1.064451	0.000126
 414	4.1093e+01	16.4626	44.761742	0.000446	4.459245	1.510833	0.000179
 415	4.1193e+01	16.4931	44.862671	0.000253	2.533662	0.858428	0.000101
 416	4.1292e+01	16.5284	44.955525	0.000233	2.330969	0.789754	0.000093
 417	4.1392e+01	16.5717	45.064528	0.000274	2.736355	0.927102	0.000110
 418	4.1492e+01	16.6166	45.230050	0.000416	4.155206	1.407822	0.000166
 419	4.1591e+01	16.6551	45.286570	0.000142	1.418851	0.480720	0.000057
 420	4.1691e+01	16.6888	45.427870	0.000355	3.547127	1.201799	0.000142
 421	4.1790e+01	16.7321	45.544947	0.000294	2.939048	0.995776	0.000118
 422	4.1889e+01	16.7690	45.666061	0.000304	3.040395	1.030114	0.000122
 423	4.1989e+01	16.8124	45.758915	0.000233	2.330969	0.789754	0.000093
 424	4.2089e+01	16.8412	45.920400	0.000405	4.053859	1.373485	0.000162
 425	4.2188e+01	16.8990	45.980957	0.000152	1.520197	0.515057	0.000061
 426	4.2288e+01	16.9279	46.166666	0.000466	4.661938	1.579507	0.000187
 427	4.2387e+01	16.9744	46.211074	0.000111	1.114811	0.377708	0.000045
 428	4.2486e+01	17.0081	46.360448	0.000375	3.749820	1.270473	0.000150
 429	4.2586e+01	17.0514	46.497711	0.000345	3.445780	1.167462	0.000138
 430	4.2685e+01	17.0979	46.590565	0.000233	2.330969	0.789754	0.000093
 431	4.2785e+01	17.1188	46.719753	0.000324	3.243087	1.098788	0.000130
 432	4.2885e+01	17.1653	46.852979	0.000334	3.344434	1.133125	0.000134
 433	4.2984e+01	17.2054	46.945833	0.000233	2.330969	0.789754	0.000093
 434	4.3084e+01	17.2407	47.010427	0.000162	1.621544	0.549394	0.000065
 435	4.3183e+01	17.2856	47.167875	0.000395	3.952513	1.339148	0.000158
 436	4.3282e+01	17.3225	47.293027	0.000314	3.141741	1.064451	0.000126
 437	4.3382e+01	17.3642	47.389918	0.000243	2.432316	0.824091	0.000097
 438	4.3481e+01	17.4027	47.527180	0.000345	3.445780	1.167462	0.000138
 439	4.3581e+01	17.4476	47.620035	0.000233	2.330969	0.789754	0.000093
 440	4.3681e+01	17.4910	47.773446	0.000385	3.851166	1.304810	0.000154
 441	4.3780e+01	17.5278	47.890523	0.000294	2.939048	0.995776	0.000118
 442	4.3880e+01	17.5615	47.983377	0.000233	2.330969	0.789754	0.000093
 443	4.3979e+01	17.6016	48.100454	0.000294	2.939048	0.995776	0.000118
 444	4.4078e+01	17.6466	48.201382	0.000253	2.533662	0.858428	0.000101
 445	4.4178e+01	17.6883	48.342682	0.000355	3.547127	1.201799	0.000142
 446	4.4278e+01	17.7300	48.435536	0.000233	2.330969	0.789754	0.000093
 447	4.4377e+01	17.7637	48.572799	0.000345	3.445780	1.167462	0.000138
 448	4.4477e+01	17.8038	48.685838	0.000284	2.837702	0.961439	0.000114
 449	4.4576e+01	17.8439	48.843287	0.000395	3.952513	1.339148	0.000158
 450	4.4675e+01	17.8856	48.928067	0.000213	2.128276	0.721079	0.000085
 451	4.4775e+01	17.9289	49.085515	0.000395	3.952513	1.339148	0.000158
 452	4.4874e+01	17.9610	49.154146	0.000172	1.722890	0.583731	0.000069
 453	4.4974e+01	18.0123	49.291409	0.000345	3.445780	1.167462	0.000138
 454	4.5074e+01	18.0460	49.380226	0.000223	2.229623	0.755417	0.000089
 455	4.5173e+01	18.0877	49.509414	0.000324	3.243087	1.098788	0.000130
 456	4.5273e+01	18.1294	49.586120	0.000193	1.925583	0.652405	0.000077
 457	4.5372e+01	18.1647	49.723382	0.000345	3.445780	1.167462	0.000138
 458	4.5471e+01	18.2000	49.820274	0.000243	2.432316	0.824091	0.000097
 459	4.5571e+01	18.2465	49.993870	0.000436	4.357899	1.476496	0.000174
 460	4.5670e+01	18.2802	50.050390	0.000142	1.418851	0.480720	0.000057
 461	4.5770e+01	18.3252	50.203801	0.000385	3.851166	1.304810	0.000154
 462	4.5870e+01	18.3620	50.296656	0.000233	2.330969	0.789754	0.000093
 463	4.5969e+01	18.4038	50.421807	0.000314	3.141741	1.064451	0.000126
 464	4.6069e+01	18.4423	50.514661	0.000233	2.330969	0.789754	0.000093
 465	4.6168e+01	18.4776	50.664035	0.000375	3.749820	1.270473	0.000150
 466	4.6267e+01	18.5321	50.769000	0.000264	2.635009	0.892765	0.000105
 467	4.6367e+01	18.5674	50.898189	0.000324	3.243087	1.098788	0.000130
 468	4.6467e+01	18.5915	51.047563	0.000375	3.749820	1.270473	0.000150
 469	4.6566e+01	18.6508	51.152528	0.000264	2.635009	0.892765	0.000105
 470	4.6666e+01	18.6797	51.184825	0.000081	0.810772	0.274697	0.000032
 471	4.6765e+01	18.7230	51.346311	0.000405	4.053859	1.373485	0.000162
 472	4.6864e+01	18.7615	51.451276	0.000264	2.635009	0.892765	0.000105
 473	4.6964e+01	18.8032	51.580465	0.000324	3.243087	1.098788	0.000130
 474	4.7063e+01	18.8449	51.701579	0.000304	3.040395	1.030114	0.000122
 475	4.7163e+01	18.8786	51.810581	0.000274	2.736355	0.927102	0.000110
 476	4.7263e+01	18.9235	51.923621	0.000284	2.837702	0.961439	0.000114
 477	4.7362e+01	18.9620	52.044735	0.000304	3.040395	1.030114	0.000122
 478	4.7462e+01	18.9925	52.173924	0.000324	3.243087	1.098788	0.000130
 479	4.7561e+01	19.0422	52.274852	0.000253	2.533662	0.858428	0.000101
 480	4.7660e+01	19.0791	52.412115	0.000345	3.445780	1.167462	0.000138
 481	4.7760e+01	19.1144	52.549377	0.000345	3.445780	1.167462	0.000138
 482	4.7859e+01	19.1577	52.654343	0.000264	2.635009	0.892765	0.000105
 483	4.7959e+01	19.1898	52.722974	0.000172	1.722890	0.583731	0.000069
 484	4.8059e+01	19.2428	52.864274	0.000355	3.547127	1.201799	0.000142
 485	4.8158e+01	19.2781	53.013648	0.000375	3.749820	1.270473	0.000150
 486	4.8258e+01	19.3246	53.078242	0.000162	1.621544	0.549394	0.000065
 487	4.8357e+01	19.3551	53.239728	0.000405	4.053859	1.373485	0.000162
 488	4.8456e+01	19.4016	53.332582	0.000233	2.330969	0.789754	0.000093
 489	4.8556e+01	19.4385	53.413324	0.000203	2.026930	0.686742	0.000081
 490	4.8656e+01	19.4770	53.554624	0.000355	3.547127	1.201799	0.000142
 491	4.8755e+01	19.5123	53.663627	0.000274	2.736355	0.927102	0.000110
 492	4.8855e+01	19.5620	53.792815	0.000324	3.243087	1.098788	0.000130
 493	4.8954e+01	19.5973	53.938152	0.000365	3.648473	1.236136	0.000146
 494	4.9053e+01	19.6470	53.994672	0.000142	1.418851	0.480720	0.000057
 495	4.9153e+01	19.6727	54.172306	0.000446	4.459245	1.510833	0.000179
 496	4.9252e+01	19.7305	54.253049	0.000203	2.026930	0.686742	0.000081
 497	4.9352e+01	19.7577	54.374163	0.000304	3.040395	1.030114	0.000122
 498	4.9452e+01	19.7946	54.495277	0.000304	3.040395	1.030114	0.000122
 499	4.9551e+01	19.8379	54.604279	0.000274	2.736355	0.927102	0.000110
 500	4.9651e+01	19.8700	54.721356	0.000294	2.939048	0.995776	0.000118
 501	4.9750e+01	19.9133	54.826322	0.000264	2.635009	0.892765	0.000105
 502	4.9849e+01	19.9567	54.903027	0.000193	1.925583	0.652405	0.000077
 503	4.9949e+01	20.0016	55.064513	0.000405	4.053859	1.373485	0.000162
 504	5.0048e+01	19.9647	55.036253	0.000071	0.709425	0.240360	-0.000028
 505	5.0148e+01	19.9198	54.975696	0.000152	1.520197	0.515057	-0.000061
 506	5.0248e+01	19.8652	54.858619	0.000294	2.939048	0.995776	-0.000118
 507	5.0347e+01	19.8363	54.749616	0.000274	2.736355	0.927102	-0.000110
 508	5.0447e+01	19.7978	54.672911	0.000193	1.925583	0.652405	-0.000077
 509	5.0546e+01	19.7529	54.632539	0.000101	1.013465	0.343371	-0.000041
 510	5.0645e+01	19.7128	54.531611	0.000253	2.533662	0.858428	-0.000101
 511	5.0745e+01	19.6695	54.487202	0.000111	1.114811	0.377708	-0.000045
 512	5.0844e+01	19.6358	54.410497	0.000193	1.925583	0.652405	-0.000077
 513	5.0944e+01	19.5909	54.313606	0.000243	2.432316	0.824091	-0.000097
 514	5.1044e+01	19.5524	54.200566	0.000284	2.837702	0.961439	-0.000114
 515	5.1143e+01	19.5203	54.119823	0.000203	2.026930	0.686742	-0.000081
 516	5.1242e+01	19.4754	54.091563	0.000071	0.709425	0.240360	-0.000028
 517	5.1342e+01	19.4449	53.994672	0.000243	2.432316	0.824091	-0.000097
 518	5.1441e+01	19.3952	53.913929	0.000203	2.026930	0.686742	-0.000081
 519	5.1541e+01	19.3599	53.817038	0.000243	2.432316	0.824091	-0.000097
 520	5.1641e+01	19.3198	53.724184	0.000233	2.330969	0.789754	-0.000093
 521	5.1740e+01	19.2861	53.663627	0.000152	1.520197	0.515057	-0.000061
 522	5.1840e+01	19.2428	53.526364	0.000345	3.445780	1.167462	-0.000138
 523	5.1939e+01	19.2075	53.473881	0.000132	1.317504	0.446383	-0.000053
 524	5.2038e+01	19.1529	53.340656	0.000334	3.344434	1.133125	-0.000134
 525	5.2138e+01	19.1273	53.276062	0.000162	1.621544	0.549394	-0.000065
 526	5.2237e+01	19.0743	53.239728	0.000091	0.912118	0.309034	-0.000037
 527	5.2337e+01	19.0374	53.142836	0.000243	2.432316	0.824091	-0.000097
 528	5.2437e+01	18.9909	53.049982	0.000233	2.330969	0.789754	-0.000093
 529	5.2536e+01	18.9620	52.945017	0.000264	2.635009	0.892765	-0.000105
 530	5.2636e+01	18.9219	52.836014	0.000274	2.736355	0.927102	-0.000110
 531	5.2735e+01	18.8770	52.819865	0.000041	0.405386	0.137348	-0.000016
 532	5.2834e+01	18.8433	52.670491	0.000375	3.749820	1.270473	-0.000150
 533	5.2934e+01	18.8032	52.601860	0.000172	1.722890	0.583731	-0.000069
 534	5.3033e+01	18.7615	52.504969	0.000243	2.432316	0.824091	-0.000097
 535	5.3133e+01	18.7198	52.424226	0.000203	2.026930	0.686742	-0.000081
 536	5.3233e+01	18.6813	52.323298	0.000253	2.533662	0.858428	-0.000101
 537	5.3332e+01	18.6396	52.250629	0.000182	1.824237	0.618068	-0.000073
 538	5.3431e+01	18.6043	52.133552	0.000294	2.939048	0.995776	-0.000118
 539	5.3531e+01	18.5674	52.052810	0.000203	2.026930	0.686742	-0.000081
 540	5.3630e+01	18.5289	51.980141	0.000182	1.824237	0.618068	-0.000073
 541	5.3730e+01	18.4872	51.899398	0.000203	2.026930	0.686742	-0.000081
 542	5.3830e+01	18.4519	51.782322	0.000294	2.939048	0.995776	-0.000118
 543	5.3929e+01	18.4006	51.681393	0.000253	2.533662	0.858428	-0.000101
 544	5.4029e+01	18.3637	51.616799	0.000162	1.621544	0.549394	-0.000065
 545	5.4128e+01	18.3203	51.515871	0.000253	2.533662	0.858428	-0.000101
 546	5.4227e+01	18.2818	51.402831	0.000284	2.837702	0.961439	-0.000114
 547	5.4327e+01	18.2353	51.330162	0.000182	1.824237	0.618068	-0.000073
 548	5.4426e+01	18.1984	51.221160	0.000274	2.736355	0.927102	-0.000110
 549	5.4526e+01	18.1647	51.116194	0.000264	2.635009	0.892765	-0.000105
 550	5.4626e+01	18.1246	51.035451	0.000203	2.026930	0.686742	-0.000081
 551	5.4725e+01	18.0813	50.995080	0.000101	1.013465	0.343371	-0.000041
 552	5.4825e+01	18.0460	50.833595	0.000405	4.053859	1.373485	-0.000162
 553	5.4924e+01	17.9947	50.764963	0.000172	1.722890	0.583731	-0.000069
 554	5.5023e+01	17.9610	50.664035	0.000253	2.533662	0.858428	-0.000101
 555	5.5123e+01	17.9193	50.575218	0.000223	2.229623	0.755417	-0.000089
 556	5.5222e+01	17.8792	50.441992	0.000334	3.344434	1.133125	-0.000134
 557	5.5322e+01	17.8471	50.373361	0.000172	1.722890	0.583731	-0.000069
 558	5.5422e+01	17.8054	50.268396	0.000264	2.635009	0.892765	-0.000105
 559	5.5521e+01	17.7717	50.175542	0.000233	2.330969	0.789754	-0.000093
 560	5.5620e+01	17.7204	50.098836	0.000193	1.925583	0.652405	-0.000077
 561	5.5720e+01	17.6931	50.010019	0.000223	2.229623	0.755417	-0.000089
 562	5.5819e+01	17.6450	49.884868	0.000314	3.141741	1.064451	-0.000126
 563	5.5919e+01	17.6016	49.787976	0.000243	2.432316	0.824091	-0.000097
 564	5.6019e+01	17.5631	49.691085	0.000243	2.432316	0.824091	-0.000097
 565	5.6118e+01	17.5295	49.598231	0.000233	2.330969	0.789754	-0.000093
 566	5.6218e+01	17.4893	49.505377	0.000233	2.330969	0.789754	-0.000093
 567	5.6317e+01	17.4412	49.424634	0.000203	2.026930	0.686742	-0.000081
 568	5.6416e+01	17.4059	49.275260	0.000375	3.749820	1.270473	-0.000150
 569	5.6516e+01	17.3674	49.198555	0.000193	1.925583	0.652405	-0.000077
 570	5.6615e+01	17.3257	49.129923	0.000172	1.722890	0.583731	-0.000069
 571	5.6715e+01	17.2792	49.024958	0.000264	2.635009	0.892765	-0.000105
 572	5.6815e+01	17.2503	48.928067	0.000243	2.432316	0.824091	-0.000097
 573	5.6914e+01	17.2006	48.802915	0.000314	3.141741	1.064451	-0.000126
 574	5.7014e+01	17.1669	48.693913	0.000274	2.736355	0.927102	-0.000110
 575	5.7113e+01	17.1316	48.649504	0.000111	1.114811	0.377708	-0.000045
 576	5.7212e+01	17.0883	48.512242	0.000345	3.445780	1.167462	-0.000138
 577	5.7312e+01	17.0482	48.427462	0.000213	2.128276	0.721079	-0.000085
 578	5.7411e+01	17.0049	48.350756	0.000193	1.925583	0.652405	-0.000077
 579	5.7511e+01	16.9712	48.253865	0.000243	2.432316	0.824091	-0.000097
 580	5.7611e+01	16.9231	48.124677	0.000324	3.243087	1.098788	-0.000130
 581	5.7710e+01	16.8781	48.011637	0.000284	2.837702	0.961439	-0.000114
 582	5.7809e+01	16.8460	47.934931	0.000193	1.925583	0.652405	-0.000077
 583	5.7909e+01	16.8124	47.842077	0.000233	2.330969	0.789754	-0.000093
 584	5.8008e+01	16.7690	47.769409	0.000182	1.824237	0.618068	-0.000073
 585	5.8108e+01	16.7338	47.688666	0.000203	2.026930	0.686742	-0.000081
 586	5.8208e+01	16.6856	47.583700	0.000264	2.635009	0.892765	-0.000105
 587	5.8307e+01	16.6519	47.434326	0.000375	3.749820	1.270473	-0.000150
 588	5.8407e+01	16.6086	47.369732	0.000162	1.621544	0.549394	-0.000065
 589	5.8506e+01	16.5637	47.256692	0.000284	2.837702	0.961439	-0.000114
 590	5.8605e+01	16.5316	47.175950	0.000203	2.026930	0.686742	-0.000081
 591	5.8705e+01	16.4931	47.042724	0.000334	3.344434	1.133125	-0.000134
 592	5.8804e+01	16.4530	46.974093	0.000172	1.722890	0.583731	-0.000069
 593	5.8904e+01	16.4033	46.881239	0.000233	2.330969	0.789754	-0.000093
 594	5.9004e+01	16.3744	46.800496	0.000203	2.026930	0.686742	-0.000081
 595	5.9103e+01	16.3391	46.695531	0.000264	2.635009	0.892765	-0.000105
 596	5.9203e+01	16.2942	46.582491	0.000284	2.837702	0.961439	-0.000114
 597	5.9302e+01	16.2477	46.481562	0.000253	2.533662	0.858428	-0.000101
 598	5.9401e+01	16.2044	46.368523	0.000284	2.837702	0.961439	-0.000114
 599	5.9501e+01	16.1739	46.251446	0.000294	2.939048	0.995776	-0.000118
 600	5.9600e+01	16.1290	46.223186	0.000071	0.709425	0.240360	-0.000028
 601	5.9700e+01	16.0872	46.065737	0.000395	3.952513	1.339148	-0.000158
 602	5.9800e+01	16.0503	46.001143	0.000162	1.621544	0.549394	-0.000065
 603	5.9899e+01	16.0070	45.875992	0.000314	3.141741	1.064451	-0.000126
 604	5.9998e+01	15.9717	45.787175	0.000223	2.229623	0.755417	-0.000089
 605	6.0098e+01	15.9364	45.641838	0.000365	3.648473	1.236136	-0.000146
 606	6.0197e+01	15.9028	45.536873	0.000264	2.635009	0.892765	-0.000105
 607	6.0297e+01	15.8498	45.480353	0.000142	1.418851	0.480720	-0.000057
 608	6.0397e+01	15.8097	45.371350	0.000274	2.736355	0.927102	-0.000110
 609	6.0496e+01	15.7712	45.262347	0.000274	2.736355	0.927102	-0.000110
 610	6.0596e+01	15.7359	45.181605	0.000203	2.026930	0.686742	-0.000081
 611	6.0695e+01	15.6958	45.092788	0.000223	2.229623	0.755417	-0.000089
 612	6.0794e+01	15.6525	44.995896	0.000243	2.432316	0.824091	-0.000097
 613	6.0894e+01	15.6252	44.911117	0.000213	2.128276	0.721079	-0.000085
 614	6.0993e+01	15.5771	44.814225	0.000243	2.432316	0.824091	-0.000097
 615	6.1093e+01	15.5306	44.656777	0.000395	3.952513	1.339148	-0.000158
 616	6.1193e+01	15.4873	44.580071	0.000193	1.925583	0.652405	-0.000077
 617	6.1292e+01	15.4520	44.450883	0.000324	3.243087	1.098788	-0.000130
 618	6.1392e+01	15.4167	44.329769	0.000304	3.040395	1.030114	-0.000122
 619	6.1491e+01	15.3734	44.236915	0.000233	2.330969	0.789754	-0.000093
 620	6.1590e+01	15.3429	44.164246	0.000182	1.824237	0.618068	-0.000073
 621	6.1690e+01	15.2899	44.039095	0.000314	3.141741	1.064451	-0.000126
 622	6.1789e+01	15.2450	43.926055	0.000284	2.837702	0.961439	-0.000114
 623	6.1889e+01	15.2178	43.817053	0.000274	2.736355	0.927102	-0.000110
 624	6.1989e+01	15.1744	43.728236	0.000223	2.229623	0.755417	-0.000089
 625	6.2088e+01	15.1359	43.635382	0.000233	2.330969	0.789754	-0.000093
 626	6.2188e+01	15.0926	43.510230	0.000314	3.141741	1.064451	-0.000126
 627	6.2287e+01	15.0541	43.425451	0.000213	2.128276	0.721079	-0.000085
 628	6.2386e+01	15.0108	43.344708	0.000203	2.026930	0.686742	-0.000081
 629	6.2486e+01	14.9755	43.223594	0.000304	3.040395	1.030114	-0.000122
 630	6.2586e+01	14.9322	43.175148	0.000122	1.216158	0.412045	-0.000049
 631	6.2685e+01	14.9049	43.066145	0.000274	2.736355	0.927102	-0.000110
 632	6.2785e+01	14.8520	42.965217	0.000253	2.533662	0.858428	-0.000101
 633	6.2884e+01	14.8071	42.852177	0.000284	2.837702	0.961439	-0.000114
 634	6.2983e+01	14.7782	42.698766	0.000385	3.851166	1.304810	-0.000154
 635	6.3083e+01	14.7317	42.589763	0.000274	2.736355	0.927102	-0.000110
 636	6.3182e+01	14.7060	42.480761	0.000274	2.736355	0.927102	-0.000110
 637	6.3282e+01	14.6563	42.383870	0.000243	2.432316	0.824091	-0.000097
 638	6.3382e+01	14.6210	42.242570	0.000355	3.547127	1.201799	-0.000142
 639	6.3481e+01	14.5793	42.149716	0.000233	2.330969	0.789754	-0.000093
 640	6.3581e+01	14.5408	42.105307	0.000111	1.114811	0.377708	-0.000045
 641	6.3680e+01	14.5071	41.964007	0.000355	3.547127	1.201799	-0.000142
 642	6.3779e+01	14.4606	41.867116	0.000243	2.432316	0.824091	-0.000097
 643	6.3879e+01	14.4204	41.786373	0.000203	2.026930	0.686742	-0.000081
 644	6.3978e+01	14.3852	41.673334	0.000284	2.837702	0.961439	-0.000114
 645	6.4078e+01	14.3354	41.576442	0.000243	2.432316	0.824091	-0.000097
 646	6.4177e+01	14.2889	41.507811	0.000172	1.722890	0.583731	-0.000069
 647	6.4277e+01	14.2600	41.394771	0.000284	2.837702	0.961439	-0.000114
 648	6.4376e+01	14.2231	41.305954	0.000223	2.229623	0.755417	-0.000089
 649	6.4476e+01	14.1862	41.196952	0.000274	2.736355	0.927102	-0.000110
 650	6.4576e+01	14.1349	41.096023	0.000253	2.533662	0.858428	-0.000101
 651	6.4675e+01	14.0964	41.007206	0.000223	2.229623	0.755417	-0.000089
 652	6.4775e+01	14.0611	40.902241	0.000264	2.635009	0.892765	-0.000105
 653	6.4874e+01	14.0194	40.805349	0.000243	2.432316	0.824091	-0.000097
 654	6.4974e+01	13.9745	40.627715	0.000446	4.459245	1.510833	-0.000179
 655	6.5073e+01	13.9520	40.526787	0.000253	2.533662	0.858428	-0.000101
 656	6.5172e+01	13.8975	40.433933	0.000233	2.330969	0.789754	-0.000093
 657	6.5272e+01	13.8542	40.333005	0.000253	2.533662	0.858428	-0.000101
 658	6.5371e+01	13.8157	40.179593	0.000385	3.851166	1.304810	-0.000154
 659	6.5471e+01	13.7836	40.127111	0.000132	1.317504	0.446383	-0.000053
 660	6.5570e+01	13.7435	39.997922	0.000324	3.243087	1.098788	-0.000130
 661	6.5670e+01	13.6969	39.884883	0.000284	2.837702	0.961439	-0.000114
 662	6.5769e+01	13.6633	39.792028	0.000233	2.330969	0.789754	-0.000093
 663	6.5869e+01	13.6328	39.695137	0.000243	2.432316	0.824091	-0.000097
 664	6.5969e+01	13.5895	39.598246	0.000243	2.432316	0.824091	-0.000097
 665	6.6068e+01	13.5333	39.485206	0.000284	2.837702	0.961439	-0.000114
 666	6.6168e+01	13.5076	39.368129	0.000294	2.939048	0.995776	-0.000118
 667	6.6267e+01	13.4595	39.347943	0.000051	0.506732	0.171686	-0.000020
 668	6.6367e+01	13.4178	39.186458	0.000405	4.053859	1.373485	-0.000162
 669	6.6466e+01	13.3857	39.105715	0.000203	2.026930	0.686742	-0.000081
 670	6.6566e+01	13.3264	38.964416	0.000355	3.547127	1.201799	-0.000142
 671	6.6665e+01	13.3055	38.859450	0.000264	2.635009	0.892765	-0.000105
 672	6.6764e+01	13.2622	38.754485	0.000264	2.635009	0.892765	-0.000105
 673	6.6864e+01	13.2237	38.653556	0.000253	2.533662	0.858428	-0.000101
 674	6.6963e+01	13.1868	38.520331	0.000334	3.344434	1.133125	-0.000134
 675	6.7063e+01	13.1403	38.403254	0.000294	2.939048	0.995776	-0.000118
 676	6.7162e+01	13.1146	38.310400	0.000233	2.330969	0.789754	-0.000093
 677	6.7262e+01	13.0617	38.177174	0.000334	3.344434	1.133125	-0.000134
 678	6.7362e+01	13.0183	38.072209	0.000264	2.635009	0.892765	-0.000105
 679	6.7461e+01	12.9847	37.910723	0.000405	4.053859	1.373485	-0.000162
 680	6.7561e+01	12.9430	37.850166	0.000152	1.520197	0.515057	-0.000061
 681	6.7660e+01	12.9109	37.769423	0.000203	2.026930	0.686742	-0.000081
 682	6.7760e+01	12.8563	37.652346	0.000294	2.939048	0.995776	-0.000118
 683	6.7859e+01	12.8226	37.531232	0.000304	3.040395	1.030114	-0.000122
 684	6.7959e+01	12.7922	37.498935	0.000081	0.810772	0.274697	-0.000032
 685	6.8058e+01	12.7504	37.381858	0.000294	2.939048	0.995776	-0.000118
 686	6.8157e+01	12.7151	37.289004	0.000233	2.330969	0.789754	-0.000093
 687	6.8257e+01	12.6606	37.175964	0.000284	2.837702	0.961439	-0.000114
 688	6.8356e+01	12.6317	37.066962	0.000274	2.736355	0.927102	-0.000110
 689	6.8456e+01	12.5868	36.957959	0.000274	2.736355	0.927102	-0.000110
 690	6.8555e+01	12.5483	36.820696	0.000345	3.445780	1.167462	-0.000138
 691	6.8655e+01	12.5146	36.675360	0.000365	3.648473	1.236136	-0.000146
 692	6.8754e+01	12.4649	36.570394	0.000264	2.635009	0.892765	-0.000105
 693	6.8854e+01	12.4312	36.505800	0.000162	1.621544	0.549394	-0.000065
 694	6.8954e+01	12.3927	36.352389	0.000385	3.851166	1.304810	-0.000154
 695	6.9053e+01	12.3590	36.247423	0.000264	2.635009	0.892765	-0.000105
 696	6.9153e+01	12.3061	36.150532	0.000243	2.432316	0.824091	-0.000097
 697	6.9252e+01	12.2740	36.037492	0.000284	2.837702	0.961439	-0.000114
 698	6.9352e+01	12.2275	35.936564	0.000253	2.533662	0.858428	-0.000101
 699	6.9451e+01	12.1890	35.839673	0.000243	2.432316	0.824091	-0.000097
 700	6.9550e+01	12.1473	35.710484	0.000324	3.243087	1.098788	-0.000130
 701	6.9650e+01	12.1152	35.613593	0.000243	2.432316	0.824091	-0.000097
 702	6.9749e+01	12.0654	35.544962	0.000172	1.722890	0.583731	-0.000069
 703	6.9849e+01	12.0382	35.460182	0.000213	2.128276	0.721079	-0.000085
 704	6.9948e+01	11.9916	35.330993	0.000324	3.243087	1.098788	-0.000130
 705	7.0048e+01	11.9515	35.209879	0.000304	3.040395	1.030114	-0.000122
 706	7.0147e+01	11.9098	35.125099	0.000213	2.128276	0.721079	-0.000085
 707	7.0247e+01	11.8713	35.032245	0.000233	2.330969	0.789754	-0.000093
 708	7.0347e+01	11.8312	34.878834	0.000385	3.851166	1.304810	-0.000154
 709	7.0446e+01	11.7959	34.741572	0.000345	3.445780	1.167462	-0.000138
 710	7.0546e+01	11.7510	34.636606	0.000264	2.635009	0.892765	-0.000105
 711	7.0645e+01	11.7109	34.539715	0.000243	2.432316	0.824091	-0.000097
 712	7.0745e+01	11.6692	34.434749	0.000264	2.635009	0.892765	-0.000105
 713	7.0844e+01	11.6259	34.297487	0.000345	3.445780	1.167462	-0.000138
 714	7.0944e+01	11.5890	34.188484	0.000274	2.736355	0.927102	-0.000110
 715	7.1043e+01	11.5521	34.095630	0.000233	2.330969	0.789754	-0.000093
 716	7.1142e+01	11.5120	33.998739	0.000243	2.432316	0.824091	-0.000097
 717	7.1242e+01	11.4735	33.926070	0.000182	1.824237	0.618068	-0.000073
 718	7.1341e+01	11.4398	33.800919	0.000314	3.141741	1.064451	-0.000126
 719	7.1441e+01	11.3852	33.704028	0.000243	2.432316	0.824091	-0.000097
 720	7.1540e+01	11.3532	33.586951	0.000294	2.939048	0.995776	-0.000118
 721	7.1640e+01	11.3114	33.502171	0.000213	2.128276	0.721079	-0.000085
 722	7.1740e+01	11.2794	33.413354	0.000223	2.229623	0.755417	-0.000089
 723	7.1839e+01	11.2280	33.243794	0.000426	4.256552	1.442159	-0.000170
 724	7.1939e+01	11.1975	33.179200	0.000162	1.621544	0.549394	-0.000065
 725	7.2038e+01	11.1510	33.074235	0.000264	2.635009	0.892765	-0.000105
 726	7.2138e+01	11.1141	32.932935	0.000355	3.547127	1.201799	-0.000142
 727	7.2237e+01	11.0788	32.807784	0.000314	3.141741	1.064451	-0.000126
 728	7.2337e+01	11.0339	32.662447	0.000365	3.648473	1.236136	-0.000146
 729	7.2436e+01	11.0034	32.549407	0.000284	2.837702	0.961439	-0.000114
 730	7.2535e+01	10.9537	32.424256	0.000314	3.141741	1.064451	-0.000126
 731	7.2635e+01	10.9200	32.323327	0.000253	2.533662	0.858428	-0.000101
 732	7.2734e+01	10.8719	32.238547	0.000213	2.128276	0.721079	-0.000085
 733	7.2834e+01	10.8366	32.089173	0.000375	3.749820	1.270473	-0.000150
 734	7.2933e+01	10.7933	32.008431	0.000203	2.026930	0.686742	-0.000081
 735	7.3033e+01	10.7516	31.903465	0.000264	2.635009	0.892765	-0.000105
 736	7.3132e+01	10.7227	31.798500	0.000264	2.635009	0.892765	-0.000105
 737	7.3232e+01	10.6810	31.721794	0.000193	1.925583	0.652405	-0.000077
 738	7.3332e+01	10.6409	31.596643	0.000314	3.141741	1.064451	-0.000126
 739	7.3431e+01	10.5863	31.503789	0.000233	2.330969	0.789754	-0.000093
 740	7.3531e+01	10.5575	31.414972	0.000223	2.229623	0.755417	-0.000089
 741	7.3630e+01	10.5157	31.297895	0.000294	2.939048	0.995776	-0.000118
 742	7.3730e+01	10.4756	31.160632	0.000345	3.445780	1.167462	-0.000138
 743	7.3829e+01	10.4291	31.055667	0.000264	2.635009	0.892765	-0.000105
 744	7.3928e+01	10.4067	30.954738	0.000253	2.533662	0.858428	-0.000101
 745	7.4028e+01	10.3569	30.801327	0.000385	3.851166	1.304810	-0.000154
 746	7.4127e+01	10.3088	30.668102	0.000334	3.344434	1.133125	-0.000134
 747	7.4227e+01	10.2783	30.587359	0.000203	2.026930	0.686742	-0.000081
 748	7.4326e+01	10.2398	30.462208	0.000314	3.141741	1.064451	-0.000126
 749	7.4426e+01	10.2013	30.369354	0.000233	2.330969	0.789754	-0.000093
 750	7.4525e+01	10.1532	30.256314	0.000284	2.837702	0.961439	-0.000114
 751	7.4625e+01	10.1227	30.110977	0.000365	3.648473	1.236136	-0.000146
 752	7.4725e+01	10.0698	30.018123	0.000233	2.330969	0.789754	-0.000093
 753	7.4824e+01	10.0393	29.941417	0.000193	1.925583	0.652405	-0.000077
 754	7.4924e+01	9.9960	29.880860	0.000152	1.520197	0.515057	-0.000061
 755	7.5023e+01	9.9591	29.727449	0.000385	3.851166	1.304810	-0.000154
 756	7.5123e+01	9.9142	29.683041	0.000111	1.114811	0.377708	-0.000045
 757	7.5222e+01	9.8757	29.525592	0.000395	3.952513	1.339148	-0.000158
 758	7.5322e+01	9.8436	29.428701	0.000243	2.432316	0.824091	-0.000097
 759	7.5421e+01	9.7987	29.299513	0.000324	3.243087	1.098788	-0.000130
 760	7.5520e+01	9.7602	29.214733	0.000213	2.128276	0.721079	-0.000085
 761	7.5620e+01	9.7233	29.085544	0.000324	3.243087	1.098788	-0.000130
 762	7.5719e+01	9.6815	28.972505	0.000284	2.837702	0.961439	-0.000114
 763	7.5819e+01	9.6446	28.871576	0.000253	2.533662	0.858428	-0.000101
 764	7.5918e+01	9.6045	28.702017	0.000426	4.256552	1.442159	-0.000170
 765	7.6018e+01	9.5548	28.609162	0.000233	2.330969	0.789754	-0.000093
 766	7.6118e+01	9.5227	28.471900	0.000345	3.445780	1.167462	-0.000138
 767	7.6217e+01	9.4698	28.366934	0.000264	2.635009	0.892765	-0.000105
 768	7.6317e+01	9.4393	28.274080	0.000233	2.330969	0.789754	-0.000093
 769	7.6416e+01	9.4040	28.152966	0.000304	3.040395	1.030114	-0.000122
 770	7.6516e+01	9.3623	28.076260	0.000193	1.925583	0.652405	-0.000077
 771	7.6615e+01	9.3238	27.995518	0.000203	2.026930	0.686742	-0.000081
 772	7.6715e+01	9.2789	27.866329	0.000324	3.243087	1.098788	-0.000130
 773	7.6814e+01	9.2324	27.745215	0.000304	3.040395	1.030114	-0.000122
 774	7.6913e+01	9.2019	27.644287	0.000253	2.533662	0.858428	-0.000101
 775	7.7013e+01	9.1570	27.555470	0.000223	2.229623	0.755417	-0.000089
 776	7.7112e+01	9.1249	27.438393	0.000294	2.939048	0.995776	-0.000118
 777	7.7212e+01	9.0784	27.305168	0.000334	3.344434	1.133125	-0.000134
 778	7.7311e+01	9.0543	27.216351	0.000223	2.229623	0.755417	-0.000089
 779	7.7411e+01	9.0030	27.087162	0.000324	3.243087	1.098788	-0.000130
 780	7.7510e+01	8.9661	26.929714	0.000395	3.952513	1.339148	-0.000158
 781	7.7610e+01	8.9147	26.844934	0.000213	2.128276	0.721079	-0.000085
 782	7.7710e+01	8.8874	26.727857	0.000294	2.939048	0.995776	-0.000118
 783	7.7809e+01	8.8441	26.594632	0.000334	3.344434	1.133125	-0.000134
 784	7.7909e+01	8.8040	26.477555	0.000294	2.939048	0.995776	-0.000118
 785	7.8008e+01	8.7639	26.400849	0.000193	1.925583	0.652405	-0.000077
 786	7.8108e+01	8.7174	26.231289	0.000426	4.256552	1.442159	-0.000170
 787	7.8207e+01	8.6741	26.194955	0.000091	0.912118	0.309034	-0.000037
 788	7.8306e+01	8.6404	26.110175	0.000213	2.128276	0.721079	-0.000085
 789	7.8406e+01	8.6083	25.956764	0.000385	3.851166	1.304810	-0.000154
 790	7.8505e+01	8.5666	25.847762	0.000274	2.736355	0.927102	-0.000110
 791	7.8605e+01	8.5201	25.742796	0.000264	2.635009	0.892765	-0.000105
 792	7.8704e+01	8.4800	25.666090	0.000193	1.925583	0.652405	-0.000077
 793	7.8804e+01	8.4367	25.524791	0.000355	3.547127	1.201799	-0.000142
 794	7.8903e+01	8.3982	25.399639	0.000314	3.141741	1.064451	-0.000126
 795	7.9003e+01	8.3677	25.318897	0.000203	2.026930	0.686742	-0.000081
 796	7.9103e+01	8.3244	25.185671	0.000334	3.344434	1.133125	-0.000134
 797	7.9202e+01	8.2907	25.056483	0.000324	3.243087	1.098788	-0.000130
 798	7.9302e+01	8.2425	24.890960	0.000416	4.155206	1.407822	-0.000166
 799	7.9401e+01	8.2040	24.785995	0.000264	2.635009	0.892765	-0.000105
 800	7.9501e+01	8.1720	24.676992	0.000274	2.736355	0.927102	-0.000110
 801	7.9600e+01	8.1206	24.563952	0.000284	2.837702	0.961439	-0.000114
 802	7.9700e+01	8.0853	24.467061	0.000243	2.432316	0.824091	-0.000097
 803	7.9799e+01	8.0436	24.337873	0.000324	3.243087	1.098788	-0.000130
 804	7.9898e+01	7.9955	24.240982	0.000243	2.432316	0.824091	-0.000097
 805	7.9998e+01	7.9698	24.156202	0.000213	2.128276	0.721079	-0.000085
 806	8.0097e+01	7.9265	24.035088	0.000304	3.040395	1.030114	-0.000122
 807	8.0197e+01	7.8832	23.966456	0.000172	1.722890	0.583731	-0.000069
 808	8.0296e+01	7.8447	23.873602	0.000233	2.330969	0.789754	-0.000093
 809	8.0396e+01	7.8030	23.720191	0.000385	3.851166	1.304810	-0.000154
 810	8.0496e+01	7.7693	23.599077	0.000304	3.040395	1.030114	-0.000122
 811	8.0595e+01	7.7212	23.498149	0.000253	2.533662	0.858428	-0.000101
 812	8.0695e+01	7.6939	23.409332	0.000223	2.229623	0.755417	-0.000089
 813	8.0794e+01	7.6378	23.280143	0.000324	3.243087	1.098788	-0.000130
 814	8.0894e+01	7.6073	23.163066	0.000294	2.939048	0.995776	-0.000118
 815	8.0993e+01	7.5624	23.050026	0.000284	2.837702	0.961439	-0.000114
 816	8.1093e+01	7.5190	22.924875	0.000314	3.141741	1.064451	-0.000126
 817	8.1192e+01	7.4805	22.803761	0.000304	3.040395	1.030114	-0.000122
 818	8.1291e+01	7.4517	22.662461	0.000355	3.547127	1.201799	-0.000142
 819	8.1391e+01	7.4035	22.521162	0.000355	3.547127	1.201799	-0.000142
 820	8.1490e+01	7.3698	22.416196	0.000264	2.635009	0.892765	-0.000105
 821	8.1590e+01	7.3362	22.291045	0.000314	3.141741	1.064451	-0.000126
 822	8.1689e+01	7.2880	22.206265	0.000213	2.128276	0.721079	-0.000085
 823	8.1789e+01	7.2479	22.077077	0.000324	3.243087	1.098788	-0.000130
 824	8.1888e+01	7.2094	22.036705	0.000101	1.013465	0.343371	-0.000041
 825	8.1988e+01	7.1693	21.964037	0.000182	1.824237	0.618068	-0.000073
 826	8.2088e+01	7.1260	21.834849	0.000324	3.243087	1.098788	-0.000130
 827	8.2187e+01	7.0795	21.705660	0.000324	3.243087	1.098788	-0.000130
 828	8.2287e+01	7.0458	21.592620	0.000284	2.837702	0.961439	-0.000114
 829	8.2386e+01	6.9993	21.459395	0.000334	3.344434	1.133125	-0.000134
 830	8.2486e+01	6.9640	21.330207	0.000324	3.243087	1.098788	-0.000130
 831	8.2585e+01	6.9191	21.221204	0.000274	2.736355	0.927102	-0.000110
 832	8.2684e+01	6.8918	21.075867	0.000365	3.648473	1.236136	-0.000146
 833	8.2784e+01	6.8549	20.995124	0.000203	2.026930	0.686742	-0.000081
 834	8.2883e+01	6.8164	20.882085	0.000284	2.837702	0.961439	-0.000114
 835	8.2983e+01	6.7683	20.740785	0.000355	3.547127	1.201799	-0.000142
 836	8.3082e+01	6.7314	20.571225	0.000426	4.256552	1.442159	-0.000170
 837	8.3182e+01	6.6929	20.498557	0.000182	1.824237	0.618068	-0.000073
 838	8.3281e+01	6.6576	20.357257	0.000355	3.547127	1.201799	-0.000142
 839	8.3381e+01	6.6191	20.215957	0.000355	3.547127	1.201799	-0.000142
 840	8.3481e+01	6.5725	20.143289	0.000182	1.824237	0.618068	-0.000073
 841	8.3580e+01	6.5260	20.058509	0.000213	2.128276	0.721079	-0.000085
 842	8.3680e+01	6.4907	19.973729	0.000213	2.128276	0.721079	-0.000085
 843	8.3779e+01	6.4474	19.848578	0.000314	3.141741	1.064451	-0.000126
 844	8.3879e+01	6.4089	19.751687	0.000243	2.432316	0.824091	-0.000097
 845	8.3978e+01	6.3736	19.650758	0.000253	2.533662	0.858428	-0.000101
 846	8.4078e+01	6.3255	19.525607	0.000314	3.141741	1.064451	-0.000126
 847	8.4177e+01	6.2886	19.428716	0.000243	2.432316	0.824091	-0.000097
 848	8.4276e+01	6.2517	19.295490	0.000334	3.344434	1.133125	-0.000134
 849	8.4376e+01	6.2132	19.178413	0.000294	2.939048	0.995776	-0.000118
 850	8.4475e+01	6.1683	19.049225	0.000324	3.243087	1.098788	-0.000130
 851	8.4575e+01	6.1362	18.928111	0.000304	3.040395	1.030114	-0.000122
 852	8.4674e+01	6.0945	18.790848	0.000345	3.445780	1.167462	-0.000138
 853	8.4774e+01	6.0496	18.673771	0.000294	2.939048	0.995776	-0.000118
 854	8.4874e+01	6.0111	18.540546	0.000334	3.344434	1.133125	-0.000134
 855	8.4973e+01	5.9854	18.423469	0.000294	2.939048	0.995776	-0.000118
 856	8.5073e+01	5.9341	18.286206	0.000345	3.445780	1.167462	-0.000138
 857	8.5172e+01	5.8907	18.165092	0.000304	3.040395	1.030114	-0.000122
 858	8.5272e+01	5.8554	18.108572	0.000142	1.418851	0.480720	-0.000057
 859	8.5371e+01	5.8089	17.999570	0.000274	2.736355	0.927102	-0.000110
 860	8.5471e+01	5.7768	17.910753	0.000223	2.229623	0.755417	-0.000089
 861	8.5570e+01	5.7448	17.761379	0.000375	3.749820	1.270473	-0.000150
 862	8.5669e+01	5.6998	17.668525	0.000233	2.330969	0.789754	-0.000093
 863	8.5769e+01	5.6501	17.555485	0.000284	2.837702	0.961439	-0.000114
 864	8.5868e+01	5.6212	17.434371	0.000304	3.040395	1.030114	-0.000122
 865	8.5968e+01	5.5747	17.373814	0.000152	1.520197	0.515057	-0.000061
 866	8.6067e+01	5.5298	17.212328	0.000405	4.053859	1.373485	-0.000162
 867	8.6167e+01	5.4977	17.119474	0.000233	2.330969	0.789754	-0.000093
 868	8.6266e+01	5.4608	16.986249	0.000334	3.344434	1.133125	-0.000134
 869	8.6366e+01	5.4191	16.881283	0.000264	2.635009	0.892765	-0.000105
 870	8.6466e+01	5.3870	16.731909	0.000375	3.749820	1.270473	-0.000150
 871	8.6565e+01	5.3405	16.578498	0.000385	3.851166	1.304810	-0.000154
 872	8.6665e+01	5.2940	16.437198	0.000355	3.547127	1.201799	-0.000142
 873	8.6764e+01	5.2635	16.303973	0.000334	3.344434	1.133125	-0.000134
 874	8.6864e+01	5.2122	16.259564	0.000111	1.114811	0.377708	-0.000045
 875	8.6963e+01	5.1817	16.146524	0.000284	2.837702	0.961439	-0.000114
 876	8.7063e+01	5.1384	16.065782	0.000203	2.026930	0.686742	-0.000081
 877	8.7162e+01	5.0854	15.960816	0.000264	2.635009	0.892765	-0.000105
 878	8.7261e+01	5.0598	15.843739	0.000294	2.939048	0.995776	-0.000118
 879	8.7361e+01	5.0132	15.698402	0.000365	3.648473	1.236136	-0.000146
 880	8.7460e+01	4.9795	15.573251	0.000314	3.141741	1.064451	-0.000126
 881	8.7560e+01	4.9330	15.476360	0.000243	2.432316	0.824091	-0.000097
 882	8.7659e+01	4.8945	15.379469	0.000243	2.432316	0.824091	-0.000097
 883	8.7759e+01	4.8528	15.278540	0.000253	2.533662	0.858428	-0.000101
 884	8.7859e+01	4.8079	15.149352	0.000324	3.243087	1.098788	-0.000130
 885	8.7958e+01	4.7758	14.983829	0.000416	4.155206	1.407822	-0.000166
 886	8.8058e+01	4.7357	14.882901	0.000253	2.533662	0.858428	-0.000101
 887	8.8157e+01	4.6972	14.790047	0.000233	2.330969	0.789754	-0.000093
 888	8.8257e+01	4.6587	14.652784	0.000345	3.445780	1.167462	-0.000138
 889	8.8356e+01	4.6218	14.531670	0.000304	3.040395	1.030114	-0.000122
 890	8.8456e+01	4.5737	14.362110	0.000426	4.256552	1.442159	-0.000170
 891	8.8555e+01	4.5448	14.281368	0.000203	2.026930	0.686742	-0.000081
 892	8.8654e+01	4.5143	14.144105	0.000345	3.445780	1.167462	-0.000138
 893	8.8754e+01	4.4598	14.051251	0.000233	2.330969	0.789754	-0.000093
 894	8.8853e+01	4.4197	13.986657	0.000162	1.621544	0.549394	-0.000065
 895	8.8953e+01	4.3924	13.845357	0.000355	3.547127	1.201799	-0.000142
 896	8.9052e+01	4.3411	13.732317	0.000284	2.837702	0.961439	-0.000114
 897	8.9152e+01	4.2945	13.574869	0.000395	3.952513	1.339148	-0.000158
 898	8.9251e+01	4.2576	13.469903	0.000264	2.635009	0.892765	-0.000105
 899	8.9351e+01	4.2175	13.364938	0.000264	2.635009	0.892765	-0.000105
 900	8.9451e+01	4.1870	13.247861	0.000294	2.939048	0.995776	-0.000118
 901	8.9550e+01	4.1453	13.146933	0.000253	2.533662	0.858428	-0.000101
 902	8.9650e+01	4.0972	12.989484	0.000395	3.952513	1.339148	-0.000158
 903	8.9749e+01	4.0635	12.880482	0.000274	2.736355	0.927102	-0.000110
 904	8.9849e+01	4.0202	12.807813	0.000182	1.824237	0.618068	-0.000073
 905	8.9948e+01	3.9769	12.674588	0.000334	3.344434	1.133125	-0.000134
 906	9.0047e+01	3.9384	12.581734	0.000233	2.330969	0.789754	-0.000093
 907	9.0147e+01	3.8999	12.412174	0.000426	4.256552	1.442159	-0.000170
 908	9.0246e+01	3.8598	12.291060	0.000304	3.040395	1.030114	-0.000122
 909	9.0346e+01	3.8165	12.214354	0.000193	1.925583	0.652405	-0.000077
 910	9.0445e+01	3.7828	12.077092	0.000345	3.445780	1.167462	-0.000138
 911	9.0545e+01	3.7491	11.968089	0.000274	2.736355	0.927102	-0.000110
 912	9.0644e+01	3.7042	11.846975	0.000304	3.040395	1.030114	-0.000122
 913	9.0744e+01	3.6673	11.762195	0.000213	2.128276	0.721079	-0.000085
 914	9.0844e+01	3.6256	11.624932	0.000345	3.445780	1.167462	-0.000138
 915	9.0943e+01	3.5903	11.515930	0.000274	2.736355	0.927102	-0.000110
 916	9.1043e+01	3.5454	11.423076	0.000233	2.330969	0.789754	-0.000093
 917	9.1142e+01	3.5085	11.265627	0.000395	3.952513	1.339148	-0.000158
 918	9.1242e+01	3.4651	11.172773	0.000233	2.330969	0.789754	-0.000093
 919	9.1341e+01	3.4154	11.051659	0.000304	3.040395	1.030114	-0.000122
 920	9.1441e+01	3.3753	10.902285	0.000375	3.749820	1.270473	-0.000150
 921	9.1540e+01	3.3416	10.849802	0.000132	1.317504	0.446383	-0.000053
 922	9.1639e+01	3.3031	10.708503	0.000355	3.547127	1.201799	-0.000142
 923	9.1739e+01	3.2630	10.591426	0.000294	2.939048	0.995776	-0.000118
 924	9.1838e+01	3.2309	10.470312	0.000304	3.040395	1.030114	-0.000122
 925	9.1938e+01	3.1860	10.296715	0.000436	4.357899	1.476496	-0.000174
 926	9.2037e+01	3.1363	10.179638	0.000294	2.939048	0.995776	-0.000118
 927	9.2137e+01	3.1058	10.078709	0.000253	2.533662	0.858428	-0.000101
 928	9.2237e+01	3.0641	9.985855	0.000233	2.330969	0.789754	-0.000093
 929	9.2336e+01	3.0208	9.909150	0.000193	1.925583	0.652405	-0.000077
 930	9.2436e+01	2.9855	9.792073	0.000294	2.939048	0.995776	-0.000118
 931	9.2535e+01	2.9357	9.674996	0.000294	2.939048	0.995776	-0.000118
 932	9.2635e+01	2.9053	9.574067	0.000253	2.533662	0.858428	-0.000101
 933	9.2734e+01	2.8684	9.412582	0.000405	4.053859	1.373485	-0.000162
 934	9.2834e+01	2.8283	9.307616	0.000264	2.635009	0.892765	-0.000105
 935	9.2933e+01	2.7946	9.234948	0.000182	1.824237	0.618068	-0.000073
 936	9.3032e+01	2.7513	9.109797	0.000314	3.141741	1.064451	-0.000126
 937	9.3132e+01	2.7063	8.952348	0.000395	3.952513	1.339148	-0.000158
 938	9.3231e+01	2.6662	8.855457	0.000243	2.432316	0.824091	-0.000097
 939	9.3331e+01	2.6229	8.722232	0.000334	3.344434	1.133125	-0.000134
 940	9.3430e+01	2.5924	8.645526	0.000193	1.925583	0.652405	-0.000077
 941	9.3530e+01	2.5443	8.475966	0.000426	4.256552	1.442159	-0.000170
 942	9.3629e+01	2.5058	8.318518	0.000395	3.952513	1.339148	-0.000158
 943	9.3729e+01	2.4689	8.245850	0.000182	1.824237	0.618068	-0.000073
 944	9.3829e+01	2.4288	8.096476	0.000375	3.749820	1.270473	-0.000150
 945	9.3928e+01	2.3855	8.048030	0.000122	1.216158	0.412045	-0.000049
 946	9.4028e+01	2.3486	7.886545	0.000405	4.053859	1.373485	-0.000162
 947	9.4127e+01	2.2989	7.777542	0.000274	2.736355	0.927102	-0.000110
 948	9.4227e+01	2.2764	7.696799	0.000203	2.026930	0.686742	-0.000081
 949	9.4326e+01	2.2331	7.535314	0.000405	4.053859	1.373485	-0.000162
 950	9.4425e+01	2.1850	7.454571	0.000203	2.026930	0.686742	-0.000081
 951	9.4525e+01	2.1417	7.349606	0.000264	2.635009	0.892765	-0.000105
 952	9.4624e+01	2.1128	7.188120	0.000405	4.053859	1.373485	-0.000162
 953	9.4724e+01	2.0711	7.091229	0.000243	2.432316	0.824091	-0.000097
 954	9.4823e+01	2.0358	7.006449	0.000213	2.128276	0.721079	-0.000085
 955	9.4923e+01	1.9892	6.877261	0.000324	3.243087	1.098788	-0.000130
 956	9.5022e+01	1.9427	6.739998	0.000345	3.445780	1.167462	-0.000138
 957	9.5122e+01	1.9042	6.626958	0.000284	2.837702	0.961439	-0.000114
 958	9.5222e+01	1.8593	6.501807	0.000314	3.141741	1.064451	-0.000126
 959	9.5321e+01	1.8320	6.368582	0.000334	3.344434	1.133125	-0.000134
 960	9.5421e+01	1.7791	6.263616	0.000264	2.635009	0.892765	-0.000105
 961	9.5520e+01	1.7518	6.150576	0.000284	2.837702	0.961439	-0.000114
 962	9.5620e+01	1.7117	6.053685	0.000243	2.432316	0.824091	-0.000097
 963	9.5719e+01	1.6764	5.912385	0.000355	3.547127	1.201799	-0.000142
 964	9.5819e+01	1.6363	5.799345	0.000284	2.837702	0.961439	-0.000114
 965	9.5918e+01	1.5882	5.682269	0.000294	2.939048	0.995776	-0.000118
 966	9.6017e+01	1.5545	5.585377	0.000243	2.432316	0.824091	-0.000097
 967	9.6117e+01	1.5048	5.419855	0.000416	4.155206	1.407822	-0.000166
 968	9.6216e+01	1.4647	5.367372	0.000132	1.317504	0.446383	-0.000053
 969	9.6316e+01	1.4294	5.185701	0.000456	4.560592	1.545170	-0.000183
 970	9.6415e+01	1.3845	5.072661	0.000284	2.837702	0.961439	-0.000114
 971	9.6515e+01	1.3620	4.963658	0.000274	2.736355	0.927102	-0.000110
 972	9.6615e+01	1.3074	4.862730	0.000253	2.533662	0.858428	-0.000101
 973	9.6714e+01	1.2706	4.761802	0.000253	2.533662	0.858428	-0.000101
 974	9.6814e+01	1.2304	4.620502	0.000355	3.547127	1.201799	-0.000142
 975	9.6913e+01	1.1952	4.519573	0.000253	2.533662	0.858428	-0.000101
 976	9.7013e+01	1.1550	4.410571	0.000274	2.736355	0.927102	-0.000110
 977	9.7112e+01	1.1101	4.285420	0.000314	3.141741	1.064451	-0.000126
 978	9.7212e+01	1.0716	4.148157	0.000345	3.445780	1.167462	-0.000138
 979	9.7311e+01	1.0331	4.002820	0.000365	3.648473	1.236136	-0.000146
 980	9.7410e+01	0.9914	3.869595	0.000334	3.344434	1.133125	-0.000134
 981	9.7510e+01	0.9609	3.821149	0.000122	1.216158	0.412045	-0.000049
 982	9.7609e+01	0.9224	3.687923	0.000334	3.344434	1.133125	-0.000134
 983	9.7709e+01	0.8711	3.578921	0.000274	2.736355	0.927102	-0.000110
 984	9.7808e+01	0.8294	3.486067	0.000233	2.330969	0.789754	-0.000093
 985	9.7908e+01	0.7877	3.352841	0.000334	3.344434	1.133125	-0.000134
 986	9.8007e+01	0.7524	3.247876	0.000264	2.635009	0.892765	-0.000105
 987	9.8107e+01	0.7107	3.106576	0.000355	3.547127	1.201799	-0.000142
 988	9.8207e+01	0.6754	3.009685	0.000243	2.432316	0.824091	-0.000097
 989	9.8306e+01	0.6305	2.888571	0.000304	3.040395	1.030114	-0.000122
 990	9.8406e+01	0.5871	2.747271	0.000355	3.547127	1.201799	-0.000142
 991	9.8505e+01	0.5535	2.638268	0.000274	2.736355	0.927102	-0.000110
 992	9.8605e+01	0.5101	2.529266	0.000274	2.736355	0.927102	-0.000110
 993	9.8704e+01	0.4732	2.416226	0.000284	2.837702	0.961439	-0.000114
 994	9.8803e+01	0.4331	2.295112	0.000304	3.040395	1.030114	-0.000122
 995	9.8903e+01	0.3946	2.173998	0.000304	3.040395	1.030114	-0.000122
 996	9.9002e+01	0.3545	2.012512	0.000405	4.053859	1.373485	-0.000162
 997	9.9102e+01	0.3241	1.891398	0.000304	3.040395	1.030114	-0.000122
 998	9.9201e+01	0.2759	1.818730	0.000182	1.824237	0.618068	-0.000073
 999	9.9301e+01	0.2406	1.697616	0.000304	3.040395	1.030114	-0.000122
1000	9.9400e+01	0.1925	1.560353	0.000345	3.445780	1.167462	-0.000138
1001	9.9500e+01	0.1572	1.475573	0.000213	2.128276	0.721079	-0.000085
1002	9.9600e+01	0.1171	1.346385	0.000324	3.243087	1.098788	-0.000130
1003	9.9699e+01	0.0786	1.237382	0.000274	2.736355	0.927102	-0.000110
1004	9.9799e+01	0.0369	1.096082	0.000355	3.547127	1.201799	-0.000142
1005	9.9898e+01	0.0048	0.995154	0.000253	2.533662	0.858428	-0.000101
1006	9.9998e+01	-0.0305	0.930560	0.000162	1.621544	0.549394	-0.000065
1007	1.0010e+02	-0.0706	0.789260	0.000355	3.547127	1.201799	-0.000142
1008	1.0020e+02	-0.1187	0.664109	0.000314	3.141741	1.064451	-0.000126
1009	1.0030e+02	-0.1620	0.547032	0.000294	2.939048	0.995776	-0.000118
1010	1.0040e+02	-0.1989	0.401695	0.000365	3.648473	1.236136	-0.000146
1011	1.0050e+02	-0.2374	0.272507	0.000324	3.243087	1.098788	-0.000130
1012	1.0059e+02	-0.2743	0.155430	0.000294	2.939048	0.995776	-0.000118
1013	1.0069e+02	-0.3241	0.062576	0.000233	2.330969	0.789754	-0.000093
1014	1.0079e+02	-0.3577	-0.074687	0.000345	3.445780	1.167462	-0.000138
1015	1.0089e+02	-0.3914	-0.167541	0.000233	2.330969	0.789754	-0.000093
1016	1.0099e+02	-0.4364	-0.345175	0.000446	4.459245	1.510833	-0.000179
1017	1.0109e+02	-0.4716	-0.425918	0.000203	2.026930	0.686742	-0.000081
1018	1.0119e+02	-0.5166	-0.555106	0.000324	3.243087	1.098788	-0.000130
1019	1.0129e+02	-0.5454	-0.651997	0.000243	2.432316	0.824091	-0.000097
1020	1.0139e+02	-0.6016	-0.761000	0.000274	2.736355	0.927102	-0.000110
1021	1.0149e+02	-0.6385	-0.845780	0.000213	2.128276	0.721079	-0.000085
1022	1.0159e+02	-0.6738	-1.031488	0.000466	4.661938	1.579507	-0.000187
1023	1.0169e+02	-0.7059	-1.120305	0.000223	2.229623	0.755417	-0.000089
1024	1.0179e+02	-0.7476	-1.277753	0.000395	3.952513	1.339148	-0.000158
1025	1.0189e+02	-0.7941	-1.370608	0.000233	2.330969	0.789754	-0.000093
1026	1.0199e+02	-0.8406	-1.499796	0.000324	3.243087	1.098788	-0.000130
1027	1.0209e+02	-0.8727	-1.624947	0.000314	3.141741	1.064451	-0.000126
1028	1.0219e+02	-0.9128	-1.685504	0.000152	1.520197	0.515057	-0.000061
1029	1.0229e+02	-0.9609	-1.842952	0.000395	3.952513	1.339148	-0.000158
1030	1.0239e+02	-0.9914	-1.927732	0.000213	2.128276	0.721079	-0.000085
1031	1.0248e+02	-1.0283	-2.036735	0.000274	2.736355	0.927102	-0.000110
1032	1.0258e+02	-1.0604	-2.157849	0.000304	3.040395	1.030114	-0.000122
1033	1.0268e+02	-1.1117	-2.270889	0.000284	2.837702	0.961439	-0.000114
1034	1.0278e+02	-1.1470	-2.420263	0.000375	3.749820	1.270473	-0.000150
1035	1.0288e+02	-1.1791	-2.533303	0.000284	2.837702	0.961439	-0.000114
1036	1.0298e+02	-1.2256	-2.662491	0.000324	3.243087	1.098788	-0.000130
1037	1.0308e+02	-1.2673	-2.799754	0.000345	3.445780	1.167462	-0.000138
1038	1.0318e+02	-1.3123	-2.880496	0.000203	2.026930	0.686742	-0.000081
1039	1.0328e+02	-1.3588	-3.013722	0.000334	3.344434	1.133125	-0.000134
1040	1.0338e+02	-1.3941	-3.159059	0.000365	3.648473	1.236136	-0.000146
1041	1.0348e+02	-1.4246	-3.312470	0.000385	3.851166	1.304810	-0.000154
1042	1.0358e+02	-1.4679	-3.356878	0.000111	1.114811	0.377708	-0.000045
1043	1.0368e+02	-1.5144	-3.510290	0.000385	3.851166	1.304810	-0.000154
1044	1.0378e+02	-1.5497	-3.627366	0.000294	2.939048	0.995776	-0.000118
1045	1.0388e+02	-1.5946	-3.712146	0.000213	2.128276	0.721079	-0.000085
1046	1.0398e+02	-1.6219	-3.849409	0.000345	3.445780	1.167462	-0.000138
1047	1.0408e+02	-1.6732	-3.954374	0.000264	2.635009	0.892765	-0.000105
1048	1.0418e+02	-1.7149	-4.059340	0.000264	2.635009	0.892765	-0.000105
1049	1.0428e+02	-1.7582	-4.164306	0.000264	2.635009	0.892765	-0.000105
1050	1.0438e+02	-1.7839	-4.265234	0.000253	2.533662	0.858428	-0.000101
1051	1.0447e+02	-1.8256	-4.430756	0.000416	4.155206	1.407822	-0.000166
1052	1.0457e+02	-1.8721	-4.539759	0.000274	2.736355	0.927102	-0.000110
1053	1.0467e+02	-1.9010	-4.640688	0.000253	2.533662	0.858428	-0.000101
1054	1.0477e+02	-1.9540	-4.790062	0.000375	3.749820	1.270473	-0.000150
1055	1.0487e+02	-2.0005	-4.886953	0.000243	2.432316	0.824091	-0.000097
1056	1.0497e+02	-2.0374	-5.032290	0.000365	3.648473	1.236136	-0.000146
1057	1.0507e+02	-2.0759	-5.113032	0.000203	2.026930	0.686742	-0.000081
1058	1.0517e+02	-2.1080	-5.205887	0.000233	2.330969	0.789754	-0.000093
1059	1.0527e+02	-2.1465	-5.399669	0.000486	4.864631	1.648182	-0.000195
1060	1.0537e+02	-2.1898	-5.468300	0.000172	1.722890	0.583731	-0.000069
1061	1.0547e+02	-2.2299	-5.621712	0.000385	3.851166	1.304810	-0.000154
1062	1.0557e+02	-2.2764	-5.742826	0.000304	3.040395	1.030114	-0.000122
1063	1.0567e+02	-2.3133	-5.815494	0.000182	1.824237	0.618068	-0.000073
1064	1.0577e+02	-2.3454	-5.952757	0.000345	3.445780	1.167462	-0.000138
1065	1.0587e+02	-2.3919	-6.118279	0.000416	4.155206	1.407822	-0.000166
1066	1.0597e+02	-2.4240	-6.158651	0.000101	1.013465	0.343371	-0.000041
1067	1.0607e+02	-2.4721	-6.263616	0.000264	2.635009	0.892765	-0.000105
1068	1.0617e+02	-2.5154	-6.441250	0.000446	4.459245	1.510833	-0.000179
1069	1.0627e+02	-2.5491	-6.582550	0.000355	3.547127	1.201799	-0.000142
1070	1.0637e+02	-2.5892	-6.663293	0.000203	2.026930	0.686742	-0.000081
1071	1.0647e+02	-2.6165	-6.800555	0.000345	3.445780	1.167462	-0.000138
1072	1.0656e+02	-2.6550	-6.909558	0.000274	2.736355	0.927102	-0.000110
1073	1.0666e+02	-2.7095	-7.046820	0.000345	3.445780	1.167462	-0.000138
1074	1.0676e+02	-2.7497	-7.119489	0.000182	1.824237	0.618068	-0.000073
1075	1.0686e+02	-2.7914	-7.264826	0.000365	3.648473	1.236136	-0.000146
1076	1.0696e+02	-2.8234	-7.365754	0.000253	2.533662	0.858428	-0.000101
1077	1.0706e+02	-2.8684	-7.454571	0.000223	2.229623	0.755417	-0.000089
1078	1.0716e+02	-2.9069	-7.636242	0.000456	4.560592	1.545170	-0.000183
1079	1.0726e+02	-2.9486	-7.716985	0.000203	2.026930	0.686742	-0.000081
1080	1.0736e+02	-2.9759	-7.830025	0.000284	2.837702	0.961439	-0.000114
1081	1.0746e+02	-3.0304	-7.955176	0.000314	3.141741	1.064451	-0.000126
1082	1.0756e+02	-3.0689	-8.092439	0.000345	3.445780	1.167462	-0.000138
1083	1.0766e+02	-3.1138	-8.205478	0.000284	2.837702	0.961439	-0.000114
1084	1.0776e+02	-3.1363	-8.282184	0.000193	1.925583	0.652405	-0.000077
1085	1.0786e+02	-3.1876	-8.395224	0.000284	2.837702	0.961439	-0.000114
1086	1.0796e+02	-3.2229	-8.508264	0.000284	2.837702	0.961439	-0.000114
1087	1.0806e+02	-3.2614	-8.669749	0.000405	4.053859	1.373485	-0.000162
1088	1.0816e+02	-3.3031	-8.770677	0.000253	2.533662	0.858428	-0.000101
1089	1.0826e+02	-3.3352	-8.871606	0.000253	2.533662	0.858428	-0.000101
1090	1.0836e+02	-3.3833	-9.016943	0.000365	3.648473	1.236136	-0.000146
1091	1.0845e+02	-3.4186	-9.129982	0.000284	2.837702	0.961439	-0.000114
1092	1.0855e+02	-3.4619	-9.263208	0.000334	3.344434	1.133125	-0.000134
1093	1.0865e+02	-3.5117	-9.364136	0.000253	2.533662	0.858428	-0.000101
1094	1.0875e+02	-3.5405	-9.461028	0.000243	2.432316	0.824091	-0.000097
1095	1.0885e+02	-3.5871	-9.602327	0.000355	3.547127	1.201799	-0.000142
1096	1.0895e+02	-3.6208	-9.723441	0.000304	3.040395	1.030114	-0.000122
1097	1.0905e+02	-3.6641	-9.836481	0.000284	2.837702	0.961439	-0.000114
1098	1.0915e+02	-3.6994	-9.888964	0.000132	1.317504	0.446383	-0.000053
1099	1.0925e+02	-3.7347	-10.054487	0.000416	4.155206	1.407822	-0.000166
1100	1.0935e+02	-3.7860	-10.155415	0.000253	2.533662	0.858428	-0.000101
1101	1.0945e+02	-3.8181	-10.260380	0.000264	2.635009	0.892765	-0.000105
1102	1.0955e+02	-3.8566	-10.320938	0.000152	1.520197	0.515057	-0.000061
1103	1.0965e+02	-3.9047	-10.462237	0.000355	3.547127	1.201799	-0.000142
1104	1.0975e+02	-3.9320	-10.579314	0.000294	2.939048	0.995776	-0.000118
1105	1.0985e+02	-3.9753	-10.760985	0.000456	4.560592	1.545170	-0.000183
1106	1.0995e+02	-4.0266	-10.894211	0.000334	3.344434	1.133125	-0.000134
1107	1.1005e+02	-4.0651	-10.995139	0.000253	2.533662	0.858428	-0.000101
1108	1.1015e+02	-4.0988	-11.132402	0.000345	3.445780	1.167462	-0.000138
1109	1.1025e+02	-4.1421	-11.229293	0.000243	2.432316	0.824091	-0.000097
1110	1.1035e+02	-4.1742	-11.330221	0.000253	2.533662	0.858428	-0.000101
1111	1.1044e+02	-4.2288	-11.467484	0.000345	3.445780	1.167462	-0.000138
1112	1.1054e+02	-4.2657	-11.572450	0.000264	2.635009	0.892765	-0.000105
1113	1.1064e+02	-4.3058	-11.689527	0.000294	2.939048	0.995776	-0.000118
1114	1.1074e+02	-4.3394	-11.798529	0.000274	2.736355	0.927102	-0.000110
1115	1.1084e+02	-4.3796	-11.907532	0.000274	2.736355	0.927102	-0.000110
1116	1.1094e+02	-4.4132	-11.996349	0.000223	2.229623	0.755417	-0.000089
1117	1.1104e+02	-4.4614	-12.157834	0.000405	4.053859	1.373485	-0.000162
1118	1.1114e+02	-4.4999	-12.242614	0.000213	2.128276	0.721079	-0.000085
1119	1.1124e+02	-4.5544	-12.339505	0.000243	2.432316	0.824091	-0.000097
1120	1.1134e+02	-4.5769	-12.488879	0.000375	3.749820	1.270473	-0.000150
1121	1.1144e+02	-4.6218	-12.561548	0.000182	1.824237	0.618068	-0.000073
1122	1.1154e+02	-4.6619	-12.727070	0.000416	4.155206	1.407822	-0.000166
1123	1.1164e+02	-4.6972	-12.844147	0.000294	2.939048	0.995776	-0.000118
1124	1.1174e+02	-4.7373	-12.937001	0.000233	2.330969	0.789754	-0.000093
1125	1.1184e+02	-4.7742	-13.074264	0.000345	3.445780	1.167462	-0.000138
1126	1.1194e+02	-4.8079	-13.199415	0.000314	3.141741	1.064451	-0.000126
1127	1.1204e+02	-4.8496	-13.364938	0.000416	4.155206	1.407822	-0.000166
1128	1.1214e+02	-4.8977	-13.429532	0.000162	1.621544	0.549394	-0.000065
1129	1.1224e+02	-4.9378	-13.542572	0.000284	2.837702	0.961439	-0.000114
1130	1.1234e+02	-4.9779	-13.687909	0.000365	3.648473	1.236136	-0.000146
1131	1.1244e+02	-5.0229	-13.764614	0.000193	1.925583	0.652405	-0.000077
1132	1.1253e+02	-5.0598	-13.909951	0.000365	3.648473	1.236136	-0.000146
1133	1.1263e+02	-5.0983	-14.006842	0.000243	2.432316	0.824091	-0.000097
1134	1.1273e+02	-5.1432	-14.127957	0.000304	3.040395	1.030114	-0.000122
1135	1.1283e+02	-5.1881	-14.257145	0.000324	3.243087	1.098788	-0.000130
1136	1.1293e+02	-5.2250	-14.317702	0.000152	1.520197	0.515057	-0.000061
1137	1.1303e+02	-5.2587	-14.426705	0.000274	2.736355	0.927102	-0.000110
1138	1.1313e+02	-5.2908	-14.547819	0.000304	3.040395	1.030114	-0.000122
1139	1.1323e+02	-5.3437	-14.685081	0.000345	3.445780	1.167462	-0.000138
1140	1.1333e+02	-5.3726	-14.826381	0.000355	3.547127	1.201799	-0.000142
1141	1.1343e+02	-5.4175	-14.927309	0.000253	2.533662	0.858428	-0.000101
1142	1.1353e+02	-5.4480	-15.040349	0.000284	2.837702	0.961439	-0.000114
1143	1.1363e+02	-5.4881	-15.197797	0.000395	3.952513	1.339148	-0.000158
1144	1.1373e+02	-5.5442	-15.310837	0.000284	2.837702	0.961439	-0.000114
1145	1.1383e+02	-5.5683	-15.395617	0.000213	2.128276	0.721079	-0.000085
1146	1.1393e+02	-5.6068	-15.520768	0.000314	3.141741	1.064451	-0.000126
1147	1.1403e+02	-5.6581	-15.613622	0.000233	2.330969	0.789754	-0.000093
1148	1.1413e+02	-5.6902	-15.714551	0.000253	2.533662	0.858428	-0.000101
1149	1.1423e+02	-5.7303	-15.847776	0.000334	3.344434	1.133125	-0.000134
1150	1.1433e+02	-5.7752	-15.940630	0.000233	2.330969	0.789754	-0.000093
1151	1.1442e+02	-5.8089	-16.057707	0.000294	2.939048	0.995776	-0.000118
1152	1.1452e+02	-5.8506	-16.215156	0.000395	3.952513	1.339148	-0.000158
1153	1.1462e+02	-5.8923	-16.279750	0.000162	1.621544	0.549394	-0.000065
1154	1.1472e+02	-5.9453	-16.417012	0.000345	3.445780	1.167462	-0.000138
1155	1.1482e+02	-5.9694	-16.477570	0.000152	1.520197	0.515057	-0.000061
1156	1.1492e+02	-6.0095	-16.626944	0.000375	3.749820	1.270473	-0.000150
1157	1.1502e+02	-6.0447	-16.772280	0.000365	3.648473	1.236136	-0.000146
1158	1.1512e+02	-6.1009	-16.901469	0.000324	3.243087	1.098788	-0.000130
1159	1.1522e+02	-6.1314	-17.026620	0.000314	3.141741	1.064451	-0.000126
1160	1.1532e+02	-6.1731	-17.091214	0.000162	1.621544	0.549394	-0.000065
1161	1.1542e+02	-6.2084	-17.196180	0.000264	2.635009	0.892765	-0.000105
1162	1.1552e+02	-6.2581	-17.341517	0.000365	3.648473	1.236136	-0.000146
1163	1.1562e+02	-6.2950	-17.438408	0.000243	2.432316	0.824091	-0.000097
1164	1.1572e+02	-6.3335	-17.559522	0.000304	3.040395	1.030114	-0.000122
1165	1.1582e+02	-6.3768	-17.704859	0.000365	3.648473	1.236136	-0.000146
1166	1.1592e+02	-6.4105	-17.825973	0.000304	3.040395	1.030114	-0.000122
1167	1.1602e+02	-6.4554	-17.890567	0.000162	1.621544	0.549394	-0.000065
1168	1.1612e+02	-6.4923	-18.019755	0.000324	3.243087	1.098788	-0.000130
1169	1.1622e+02	-6.5356	-18.152981	0.000334	3.344434	1.133125	-0.000134
1170	1.1632e+02	-6.5693	-18.229686	0.000193	1.925583	0.652405	-0.000077
1171	1.1642e+02	-6.6014	-18.350800	0.000304	3.040395	1.030114	-0.000122
1172	1.1651e+02	-6.6560	-18.459803	0.000274	2.736355	0.927102	-0.000110
1173	1.1661e+02	-6.6848	-18.568806	0.000274	2.736355	0.927102	-0.000110
1174	1.1671e+02	-6.7217	-18.714143	0.000365	3.648473	1.236136	-0.000146
1175	1.1681e+02	-6.7699	-18.819108	0.000264	2.635009	0.892765	-0.000105
1176	1.1691e+02	-6.8019	-18.964445	0.000365	3.648473	1.236136	-0.000146
1177	1.1701e+02	-6.8549	-19.053262	0.000223	2.229623	0.755417	-0.000089
1178	1.1711e+02	-6.8918	-19.178413	0.000314	3.141741	1.064451	-0.000126
1179	1.1721e+02	-6.9239	-19.295490	0.000294	2.939048	0.995776	-0.000118
1180	1.1731e+02	-6.9592	-19.412567	0.000294	2.939048	0.995776	-0.000118
1181	1.1741e+02	-7.0073	-19.549830	0.000345	3.445780	1.167462	-0.000138
1182	1.1751e+02	-7.0442	-19.618461	0.000172	1.722890	0.583731	-0.000069
1183	1.1761e+02	-7.0891	-19.755724	0.000345	3.445780	1.167462	-0.000138
1184	1.1771e+02	-7.1324	-19.888949	0.000334	3.344434	1.133125	-0.000134
1185	1.1781e+02	-7.1677	-19.977766	0.000223	2.229623	0.755417	-0.000089
1186	1.1791e+02	-7.2046	-20.090806	0.000284	2.837702	0.961439	-0.000114
1187	1.1801e+02	-7.2495	-20.191734	0.000253	2.533662	0.858428	-0.000101
1188	1.1811e+02	-7.2944	-20.288626	0.000243	2.432316	0.824091	-0.000097
1189	1.1821e+02	-7.3281	-20.425888	0.000345	3.445780	1.167462	-0.000138
1190	1.1831e+02	-7.3634	-20.559114	0.000334	3.344434	1.133125	-0.000134
1191	1.1841e+02	-7.4067	-20.696376	0.000345	3.445780	1.167462	-0.000138
1192	1.1850e+02	-7.4436	-20.817490	0.000304	3.040395	1.030114	-0.000122
1193	1.1860e+02	-7.4789	-20.886122	0.000172	1.722890	0.583731	-0.000069
1194	1.1870e+02	-7.5206	-20.995124	0.000274	2.736355	0.927102	-0.000110
1195	1.1880e+02	-7.5672	-21.140461	0.000365	3.648473	1.236136	-0.000146
1196	1.1890e+02	-7.6073	-21.225241	0.000213	2.128276	0.721079	-0.000085
1197	1.1900e+02	-7.6474	-21.354429	0.000324	3.243087	1.098788	-0.000130
1198	1.1910e+02	-7.6843	-21.398838	0.000111	1.114811	0.377708	-0.000045
1199	1.1920e+02	-7.7260	-21.600695	0.000507	5.067324	1.716856	-0.000203
1200	1.1930e+02	-7.7645	-21.689512	0.000223	2.229623	0.755417	-0.000089
1201	1.1940e+02	-7.8030	-21.794477	0.000264	2.635009	0.892765	-0.000105
1202	1.1950e+02	-7.8447	-21.931740	0.000345	3.445780	1.167462	-0.000138
1203	1.1960e+02	-7.8848	-22.012483	0.000203	2.026930	0.686742	-0.000081
1204	1.1970e+02	-7.9185	-22.129560	0.000294	2.939048	0.995776	-0.000118
1205	1.1980e+02	-7.9634	-22.258748	0.000324	3.243087	1.098788	-0.000130
1206	1.1990e+02	-8.0131	-22.387936	0.000324	3.243087	1.098788	-0.000130
1207	1.2000e+02	-8.0420	-22.505013	0.000294	2.939048	0.995776	-0.000118
1208	1.2010e+02	-8.0741	-22.626127	0.000304	3.040395	1.030114	-0.000122
1209	1.2020e+02	-8.1190	-22.723019	0.000243	2.432316	0.824091	-0.000097
1210	1.2030e+02	-8.1671	-22.836058	0.000284	2.837702	0.961439	-0.000114
1211	1.2039e+02	-8.2089	-22.949098	0.000284	2.837702	0.961439	-0.000114
1212	1.2049e+02	-8.2393	-23.021767	0.000182	1.824237	0.618068	-0.000073
1213	1.2059e+02	-8.2891	-23.163066	0.000355	3.547127	1.201799	-0.000142
1214	1.2069e+02	-8.3244	-23.268032	0.000264	2.635009	0.892765	-0.000105
1215	1.2079e+02	-8.3564	-23.405294	0.000345	3.445780	1.167462	-0.000138
1216	1.2089e+02	-8.4078	-23.498149	0.000233	2.330969	0.789754	-0.000093
1217	1.2099e+02	-8.4383	-23.611188	0.000284	2.837702	0.961439	-0.000114
1218	1.2109e+02	-8.4864	-23.732302	0.000304	3.040395	1.030114	-0.000122
1219	1.2119e+02	-8.5201	-23.817082	0.000213	2.128276	0.721079	-0.000085
1220	1.2129e+02	-8.5650	-23.934159	0.000294	2.939048	0.995776	-0.000118
1221	1.2139e+02	-8.5955	-24.055273	0.000304	3.040395	1.030114	-0.000122
1222	1.2149e+02	-8.6452	-24.180425	0.000314	3.141741	1.064451	-0.000126
1223	1.2159e+02	-8.6869	-24.293464	0.000284	2.837702	0.961439	-0.000114
1224	1.2169e+02	-8.7206	-24.426690	0.000334	3.344434	1.133125	-0.000134
1225	1.2179e+02	-8.7591	-24.531655	0.000264	2.635009	0.892765	-0.000105
1226	1.2189e+02	-8.7896	-24.628547	0.000243	2.432316	0.824091	-0.000097
1227	1.2199e+02	-8.8377	-24.729475	0.000253	2.533662	0.858428	-0.000101
1228	1.2209e+02	-8.8714	-24.842515	0.000284	2.837702	0.961439	-0.000114
1229	1.2219e+02	-8.9147	-24.971703	0.000324	3.243087	1.098788	-0.000130
1230	1.2229e+02	-8.9548	-25.064557	0.000233	2.330969	0.789754	-0.000093
1231	1.2239e+02	-8.9949	-25.185671	0.000304	3.040395	1.030114	-0.000122
1232	1.2248e+02	-9.0366	-25.306785	0.000304	3.040395	1.030114	-0.000122
1233	1.2258e+02	-9.0767	-25.407714	0.000253	2.533662	0.858428	-0.000101
1234	1.2268e+02	-9.1169	-25.520754	0.000284	2.837702	0.961439	-0.000114
1235	1.2278e+02	-9.1618	-25.625719	0.000264	2.635009	0.892765	-0.000105
1236	1.2288e+02	-9.1923	-25.791242	0.000416	4.155206	1.407822	-0.000166
1237	1.2298e+02	-9.2404	-25.880059	0.000223	2.229623	0.755417	-0.000089
1238	1.2308e+02	-9.2821	-25.960801	0.000203	2.026930	0.686742	-0.000081
1239	1.2318e+02	-9.3142	-26.126324	0.000416	4.155206	1.407822	-0.000166
1240	1.2328e+02	-9.3575	-26.207067	0.000203	2.026930	0.686742	-0.000081
1241	1.2338e+02	-9.3992	-26.332218	0.000314	3.141741	1.064451	-0.000126
1242	1.2348e+02	-9.4409	-26.445258	0.000284	2.837702	0.961439	-0.000114
1243	1.2358e+02	-9.4842	-26.598669	0.000385	3.851166	1.304810	-0.000154
1244	1.2368e+02	-9.5179	-26.687486	0.000223	2.229623	0.755417	-0.000089
1245	1.2378e+02	-9.5580	-26.760154	0.000182	1.824237	0.618068	-0.000073
1246	1.2388e+02	-9.5965	-26.877231	0.000294	2.939048	0.995776	-0.000118
1247	1.2398e+02	-9.6302	-27.022568	0.000365	3.648473	1.236136	-0.000146
1248	1.2408e+02	-9.6671	-27.119459	0.000243	2.432316	0.824091	-0.000097
1249	1.2418e+02	-9.7168	-27.208276	0.000223	2.229623	0.755417	-0.000089
1250	1.2428e+02	-9.7553	-27.341502	0.000334	3.344434	1.133125	-0.000134
1251	1.2438e+02	-9.7987	-27.458579	0.000294	2.939048	0.995776	-0.000118
1252	1.2447e+02	-9.8372	-27.551433	0.000233	2.330969	0.789754	-0.000093
1253	1.2457e+02	-9.8757	-27.668510	0.000294	2.939048	0.995776	-0.000118
1254	1.2467e+02	-9.9142	-27.781550	0.000284	2.837702	0.961439	-0.000114
1255	1.2477e+02	-9.9623	-27.878441	0.000243	2.432316	0.824091	-0.000097
1256	1.2487e+02	-9.9815	-27.971295	0.000233	2.330969	0.789754	-0.000093
1257	1.2497e+02	-10.0425	-28.116632	0.000365	3.648473	1.236136	-0.000146
1258	1.2507e+02	-10.0762	-28.241783	0.000314	3.141741	1.064451	-0.000126
1259	1.2517e+02	-10.1163	-28.302340	0.000152	1.520197	0.515057	-0.000061
1260	1.2527e+02	-10.1612	-28.439603	0.000345	3.445780	1.167462	-0.000138
1261	1.2537e+02	-10.1885	-28.548605	0.000274	2.736355	0.927102	-0.000110
1262	1.2547e+02	-10.2334	-28.673757	0.000314	3.141741	1.064451	-0.000126
1263	1.2557e+02	-10.2687	-28.758536	0.000213	2.128276	0.721079	-0.000085
1264	1.2567e+02	-10.3184	-28.883688	0.000314	3.141741	1.064451	-0.000126
1265	1.2577e+02	-10.3521	-29.016913	0.000334	3.344434	1.133125	-0.000134
1266	1.2587e+02	-10.3938	-29.117842	0.000253	2.533662	0.858428	-0.000101
1267	1.2597e+02	-10.4307	-29.194547	0.000193	1.925583	0.652405	-0.000077
1268	1.2607e+02	-10.4756	-29.347958	0.000385	3.851166	1.304810	-0.000154
1269	1.2617e+02	-10.5093	-29.428701	0.000203	2.026930	0.686742	-0.000081
1270	1.2627e+02	-10.5478	-29.545778	0.000294	2.939048	0.995776	-0.000118
1271	1.2636e+02	-10.5879	-29.646706	0.000253	2.533662	0.858428	-0.000101
1272	1.2646e+02	-10.6457	-29.759746	0.000284	2.837702	0.961439	-0.000114
1273	1.2656e+02	-10.6762	-29.876823	0.000294	2.939048	0.995776	-0.000118
1274	1.2666e+02	-10.7083	-29.925269	0.000122	1.216158	0.412045	-0.000049
1275	1.2676e+02	-10.7580	-30.110977	0.000466	4.661938	1.579507	-0.000187
1276	1.2686e+02	-10.8045	-30.203831	0.000233	2.330969	0.789754	-0.000093
1277	1.2696e+02	-10.8318	-30.292648	0.000223	2.229623	0.755417	-0.000089
1278	1.2706e+02	-10.8687	-30.429911	0.000345	3.445780	1.167462	-0.000138
1279	1.2716e+02	-10.9184	-30.587359	0.000395	3.952513	1.339148	-0.000158
1280	1.2726e+02	-10.9569	-30.688287	0.000253	2.533662	0.858428	-0.000101
1281	1.2736e+02	-10.9906	-30.740770	0.000132	1.317504	0.446383	-0.000053
1282	1.2746e+02	-11.0371	-30.857847	0.000294	2.939048	0.995776	-0.000118
1283	1.2756e+02	-11.0740	-30.987035	0.000324	3.243087	1.098788	-0.000130
1284	1.2766e+02	-11.1157	-31.059704	0.000182	1.824237	0.618068	-0.000073
1285	1.2776e+02	-11.1510	-31.196966	0.000345	3.445780	1.167462	-0.000138
1286	1.2786e+02	-11.2008	-31.293858	0.000243	2.432316	0.824091	-0.000097
1287	1.2796e+02	-11.2328	-31.398823	0.000264	2.635009	0.892765	-0.000105
1288	1.2806e+02	-11.2745	-31.528012	0.000324	3.243087	1.098788	-0.000130
1289	1.2816e+02	-11.3211	-31.620866	0.000233	2.330969	0.789754	-0.000093
1290	1.2826e+02	-11.3499	-31.733905	0.000284	2.837702	0.961439	-0.000114
1291	1.2835e+02	-11.3917	-31.887317	0.000385	3.851166	1.304810	-0.000154
1292	1.2845e+02	-11.4414	-31.976134	0.000223	2.229623	0.755417	-0.000089
1293	1.2855e+02	-11.4655	-32.052839	0.000193	1.925583	0.652405	-0.000077
1294	1.2865e+02	-11.5072	-32.190102	0.000345	3.445780	1.167462	-0.000138
1295	1.2875e+02	-11.5537	-32.335439	0.000365	3.648473	1.236136	-0.000146
1296	1.2885e+02	-11.5906	-32.484813	0.000375	3.749820	1.270473	-0.000150
1297	1.2895e+02	-11.6355	-32.553444	0.000172	1.722890	0.583731	-0.000069
1298	1.2905e+02	-11.6628	-32.662447	0.000274	2.736355	0.927102	-0.000110
1299	1.2915e+02	-11.7013	-32.739152	0.000193	1.925583	0.652405	-0.000077
1300	1.2925e+02	-11.7414	-32.832006	0.000233	2.330969	0.789754	-0.000093
1301	1.2935e+02	-11.7895	-32.961195	0.000324	3.243087	1.098788	-0.000130
1302	1.2945e+02	-11.8264	-33.029826	0.000172	1.722890	0.583731	-0.000069
1303	1.2955e+02	-11.8697	-33.150940	0.000304	3.040395	1.030114	-0.000122
1304	1.2965e+02	-11.8970	-33.255906	0.000264	2.635009	0.892765	-0.000105
1305	1.2975e+02	-11.9451	-33.377020	0.000304	3.040395	1.030114	-0.000122
1306	1.2985e+02	-11.9868	-33.498134	0.000304	3.040395	1.030114	-0.000122
1307	1.2995e+02	-12.0285	-33.611174	0.000284	2.837702	0.961439	-0.000114
1308	1.3005e+02	-12.0702	-33.756510	0.000365	3.648473	1.236136	-0.000146
1309	1.3015e+02	-12.1023	-33.817068	0.000152	1.520197	0.515057	-0.000061
1310	1.3025e+02	-12.1489	-33.954330	0.000345	3.445780	1.167462	-0.000138
1311	1.3034e+02	-12.1841	-34.031036	0.000193	1.925583	0.652405	-0.000077
1312	1.3044e+02	-12.2259	-34.228855	0.000497	4.965978	1.682519	-0.000199
1313	1.3054e+02	-12.2628	-34.321709	0.000233	2.330969	0.789754	-0.000093
1314	1.3064e+02	-12.2980	-34.418601	0.000243	2.432316	0.824091	-0.000097
1315	1.3074e+02	-12.3446	-34.523566	0.000264	2.635009	0.892765	-0.000105
1316	1.3084e+02	-12.3927	-34.620458	0.000243	2.432316	0.824091	-0.000097
1317	1.3094e+02	-12.4232	-34.713312	0.000233	2.330969	0.789754	-0.000093
1318	1.3104e+02	-12.4617	-34.854611	0.000355	3.547127	1.201799	-0.000142
1319	1.3114e+02	-12.5098	-34.923243	0.000172	1.722890	0.583731	-0.000069
1320	1.3124e+02	-12.5451	-35.024171	0.000253	2.533662	0.858428	-0.000101
1321	1.3134e+02	-12.5980	-35.104914	0.000203	2.026930	0.686742	-0.000081
1322	1.3144e+02	-12.6269	-35.217954	0.000284	2.837702	0.961439	-0.000114
1323	1.3154e+02	-12.6606	-35.326956	0.000274	2.736355	0.927102	-0.000110
1324	1.3164e+02	-12.7023	-35.456145	0.000324	3.243087	1.098788	-0.000130
1325	1.3174e+02	-12.7488	-35.577259	0.000304	3.040395	1.030114	-0.000122
1326	1.3184e+02	-12.7825	-35.670113	0.000233	2.330969	0.789754	-0.000093
1327	1.3194e+02	-12.8226	-35.771041	0.000253	2.533662	0.858428	-0.000101
1328	1.3204e+02	-12.8659	-35.916378	0.000365	3.648473	1.236136	-0.000146
1329	1.3214e+02	-12.9077	-36.005195	0.000223	2.229623	0.755417	-0.000089
1330	1.3224e+02	-12.9333	-36.134383	0.000324	3.243087	1.098788	-0.000130
1331	1.3234e+02	-12.9831	-36.283757	0.000375	3.749820	1.270473	-0.000150
1332	1.3243e+02	-13.0167	-36.352389	0.000172	1.722890	0.583731	-0.000069
1333	1.3253e+02	-13.0665	-36.461391	0.000274	2.736355	0.927102	-0.000110
1334	1.3263e+02	-13.1050	-36.546171	0.000213	2.128276	0.721079	-0.000085
1335	1.3273e+02	-13.1499	-36.683434	0.000345	3.445780	1.167462	-0.000138
1336	1.3283e+02	-13.1868	-36.772251	0.000223	2.229623	0.755417	-0.000089
1337	1.3293e+02	-13.2285	-36.889328	0.000294	2.939048	0.995776	-0.000118
1338	1.3303e+02	-13.2638	-36.978145	0.000223	2.229623	0.755417	-0.000089
1339	1.3313e+02	-13.3055	-37.083110	0.000264	2.635009	0.892765	-0.000105
1340	1.3323e+02	-13.3456	-37.196150	0.000284	2.837702	0.961439	-0.000114
1341	1.3333e+02	-13.3937	-37.317264	0.000304	3.040395	1.030114	-0.000122
1342	1.3343e+02	-13.4162	-37.430304	0.000284	2.837702	0.961439	-0.000114
1343	1.3353e+02	-13.4691	-37.498935	0.000172	1.722890	0.583731	-0.000069
1344	1.3363e+02	-13.4948	-37.664458	0.000416	4.155206	1.407822	-0.000166
1345	1.3373e+02	-13.5429	-37.773461	0.000274	2.736355	0.927102	-0.000110
1346	1.3383e+02	-13.5798	-37.878426	0.000264	2.635009	0.892765	-0.000105
1347	1.3393e+02	-13.6135	-37.991466	0.000284	2.837702	0.961439	-0.000114
1348	1.3403e+02	-13.6600	-38.140840	0.000375	3.749820	1.270473	-0.000150
1349	1.3413e+02	-13.6921	-38.274065	0.000334	3.344434	1.133125	-0.000134
1350	1.3423e+02	-13.7370	-38.358845	0.000213	2.128276	0.721079	-0.000085
1351	1.3432e+02	-13.7852	-38.435551	0.000193	1.925583	0.652405	-0.000077
1352	1.3442e+02	-13.8221	-38.524368	0.000223	2.229623	0.755417	-0.000089
1353	1.3452e+02	-13.8542	-38.625296	0.000253	2.533662	0.858428	-0.000101
1354	1.3462e+02	-13.9007	-38.762559	0.000345	3.445780	1.167462	-0.000138
1355	1.3472e+02	-13.9408	-38.835227	0.000182	1.824237	0.618068	-0.000073
1356	1.3482e+02	-13.9713	-38.964416	0.000324	3.243087	1.098788	-0.000130
1357	1.3492e+02	-14.0226	-39.041121	0.000193	1.925583	0.652405	-0.000077
1358	1.3502e+02	-14.0579	-39.138012	0.000243	2.432316	0.824091	-0.000097
1359	1.3512e+02	-14.0996	-39.259126	0.000304	3.040395	1.030114	-0.000122
1360	1.3522e+02	-14.1413	-39.339869	0.000203	2.026930	0.686742	-0.000081
1361	1.3532e+02	-14.1814	-39.513466	0.000436	4.357899	1.476496	-0.000174
1362	1.3542e+02	-14.2199	-39.590172	0.000193	1.925583	0.652405	-0.000077
1363	1.3552e+02	-14.2568	-39.735509	0.000365	3.648473	1.236136	-0.000146
1364	1.3562e+02	-14.2969	-39.860660	0.000314	3.141741	1.064451	-0.000126
1365	1.3572e+02	-14.3354	-39.945440	0.000213	2.128276	0.721079	-0.000085
1366	1.3582e+02	-14.3707	-40.054442	0.000274	2.736355	0.927102	-0.000110
1367	1.3592e+02	-14.4172	-40.183631	0.000324	3.243087	1.098788	-0.000130
1368	1.3602e+02	-14.4477	-40.308782	0.000314	3.141741	1.064451	-0.000126
1369	1.3612e+02	-14.4958	-40.405673	0.000243	2.432316	0.824091	-0.000097
1370	1.3622e+02	-14.5295	-40.454119	0.000122	1.216158	0.412045	-0.000049
1371	1.3631e+02	-14.5745	-40.603493	0.000375	3.749820	1.270473	-0.000150
1372	1.3641e+02	-14.6114	-40.655975	0.000132	1.317504	0.446383	-0.000053
1373	1.3651e+02	-14.6643	-40.769015	0.000284	2.837702	0.961439	-0.000114
1374	1.3661e+02	-14.6964	-40.865907	0.000243	2.432316	0.824091	-0.000097
1375	1.3671e+02	-14.7413	-40.950686	0.000213	2.128276	0.721079	-0.000085
1376	1.3681e+02	-14.7798	-41.083912	0.000334	3.344434	1.133125	-0.000134
1377	1.3691e+02	-14.8199	-41.217137	0.000334	3.344434	1.133125	-0.000134
1378	1.3701e+02	-14.8488	-41.314029	0.000243	2.432316	0.824091	-0.000097
1379	1.3711e+02	-14.8921	-41.487625	0.000436	4.357899	1.476496	-0.000174
1380	1.3721e+02	-14.9258	-41.584517	0.000243	2.432316	0.824091	-0.000097
1381	1.3731e+02	-14.9675	-41.709668	0.000314	3.141741	1.064451	-0.000126
1382	1.3741e+02	-15.0172	-41.818671	0.000274	2.736355	0.927102	-0.000110
1383	1.3751e+02	-15.0557	-41.923636	0.000264	2.635009	0.892765	-0.000105
1384	1.3761e+02	-15.0910	-41.996305	0.000182	1.824237	0.618068	-0.000073
1385	1.3771e+02	-15.1263	-42.117419	0.000304	3.040395	1.030114	-0.000122
1386	1.3781e+02	-15.1744	-42.218347	0.000253	2.533662	0.858428	-0.000101
1387	1.3791e+02	-15.2161	-42.303127	0.000213	2.128276	0.721079	-0.000085
1388	1.3801e+02	-15.2546	-42.395981	0.000233	2.330969	0.789754	-0.000093
1389	1.3811e+02	-15.2883	-42.488835	0.000233	2.330969	0.789754	-0.000093
1390	1.3821e+02	-15.3413	-42.577652	0.000223	2.229623	0.755417	-0.000089
1391	1.3831e+02	-15.3750	-42.731063	0.000385	3.851166	1.304810	-0.000154
1392	1.3840e+02	-15.4199	-42.827954	0.000243	2.432316	0.824091	-0.000097
1393	1.3850e+02	-15.4600	-42.920809	0.000233	2.330969	0.789754	-0.000093
1394	1.3860e+02	-15.4985	-43.029811	0.000274	2.736355	0.927102	-0.000110
1395	1.3870e+02	-15.5338	-43.134777	0.000264	2.635009	0.892765	-0.000105
1396	1.3880e+02	-15.5723	-43.276077	0.000355	3.547127	1.201799	-0.000142
1397	1.3890e+02	-15.6140	-43.360856	0.000213	2.128276	0.721079	-0.000085
1398	1.3900e+02	-15.6477	-43.526379	0.000416	4.155206	1.407822	-0.000166
1399	1.3910e+02	-15.6846	-43.615196	0.000223	2.229623	0.755417	-0.000089
1400	1.3920e+02	-15.7359	-43.756496	0.000355	3.547127	1.201799	-0.000142
1401	1.3930e+02	-15.7696	-43.865498	0.000274	2.736355	0.927102	-0.000110
1402	1.3940e+02	-15.8161	-43.966427	0.000253	2.533662	0.858428	-0.000101
1403	1.3950e+02	-15.8482	-44.035058	0.000172	1.722890	0.583731	-0.000069
1404	1.3960e+02	-15.8867	-44.204618	0.000426	4.256552	1.442159	-0.000170
1405	1.3970e+02	-15.9364	-44.257101	0.000132	1.317504	0.446383	-0.000053
1406	1.3980e+02	-15.9685	-44.366103	0.000274	2.736355	0.927102	-0.000110
1407	1.3990e+02	-16.0135	-44.406475	0.000101	1.013465	0.343371	-0.000041
1408	1.4000e+02	-16.0552	-44.567960	0.000405	4.053859	1.373485	-0.000162
1409	1.4010e+02	-16.0937	-44.652740	0.000213	2.128276	0.721079	-0.000085
1410	1.4020e+02	-16.1402	-44.765780	0.000284	2.837702	0.961439	-0.000114
1411	1.4029e+02	-16.1691	-44.862671	0.000243	2.432316	0.824091	-0.000097
1412	1.4039e+02	-16.2044	-44.987822	0.000314	3.141741	1.064451	-0.000126
1413	1.4049e+02	-16.2509	-45.104899	0.000294	2.939048	0.995776	-0.000118
1414	1.4059e+02	-16.2878	-45.230050	0.000314	3.141741	1.064451	-0.000126
1415	1.4069e+02	-16.3327	-45.322904	0.000233	2.330969	0.789754	-0.000093
1416	1.4079e+02	-16.3664	-45.395573	0.000182	1.824237	0.618068	-0.000073
1417	1.4089e+02	-16.4145	-45.569170	0.000436	4.357899	1.476496	-0.000174
1418	1.4099e+02	-16.4482	-45.653949	0.000213	2.128276	0.721079	-0.000085
1419	1.4109e+02	-16.4899	-45.758915	0.000264	2.635009	0.892765	-0.000105
1420	1.4119e+02	-16.5284	-45.884066	0.000314	3.141741	1.064451	-0.000126
1421	1.4129e+02	-16.5749	-45.984995	0.000253	2.533662	0.858428	-0.000101
1422	1.4139e+02	-16.6118	-46.081886	0.000243	2.432316	0.824091	-0.000097
1423	1.4149e+02	-16.6551	-46.118220	0.000091	0.912118	0.309034	-0.000037
1424	1.4159e+02	-16.6840	-46.255483	0.000345	3.445780	1.167462	-0.000138
1425	1.4169e+02	-16.7225	-46.324114	0.000172	1.722890	0.583731	-0.000069
1426	1.4179e+02	-16.7803	-46.433117	0.000274	2.736355	0.927102	-0.000110
1427	1.4189e+02	-16.8092	-46.521934	0.000223	2.229623	0.755417	-0.000089
1428	1.4199e+02	-16.8493	-46.639011	0.000294	2.939048	0.995776	-0.000118
1429	1.4209e+02	-16.8878	-46.752050	0.000284	2.837702	0.961439	-0.000114
1430	1.4219e+02	-16.9295	-46.893350	0.000355	3.547127	1.201799	-0.000142
1431	1.4228e+02	-16.9712	-47.014464	0.000304	3.040395	1.030114	-0.000122
1432	1.4238e+02	-17.0065	-47.131541	0.000294	2.939048	0.995776	-0.000118
1433	1.4248e+02	-17.0434	-47.212284	0.000203	2.026930	0.686742	-0.000081
1434	1.4258e+02	-17.0803	-47.365695	0.000385	3.851166	1.304810	-0.000154
1435	1.4268e+02	-17.1412	-47.430289	0.000162	1.621544	0.549394	-0.000065
1436	1.4278e+02	-17.1669	-47.559478	0.000324	3.243087	1.098788	-0.000130
1437	1.4288e+02	-17.2070	-47.636183	0.000193	1.925583	0.652405	-0.000077
1438	1.4298e+02	-17.2503	-47.765371	0.000324	3.243087	1.098788	-0.000130
1439	1.4308e+02	-17.2808	-47.858226	0.000233	2.330969	0.789754	-0.000093
1440	1.4318e+02	-17.3177	-47.934931	0.000193	1.925583	0.652405	-0.000077
1441	1.4328e+02	-17.3706	-48.047971	0.000284	2.837702	0.961439	-0.000114
1442	1.4338e+02	-17.4075	-48.128714	0.000203	2.026930	0.686742	-0.000081
1443	1.4348e+02	-17.4541	-48.217531	0.000223	2.229623	0.755417	-0.000089
1444	1.4358e+02	-17.4974	-48.379016	0.000405	4.053859	1.373485	-0.000162
1445	1.4368e+02	-17.5214	-48.475907	0.000243	2.432316	0.824091	-0.000097
1446	1.4378e+02	-17.5631	-48.576836	0.000253	2.533662	0.858428	-0.000101
1447	1.4388e+02	-17.6081	-48.693913	0.000294	2.939048	0.995776	-0.000118
1448	1.4398e+02	-17.6401	-48.786767	0.000233	2.330969	0.789754	-0.000093
1449	1.4408e+02	-17.6867	-48.924029	0.000345	3.445780	1.167462	-0.000138
1450	1.4418e+02	-17.7252	-49.033032	0.000274	2.736355	0.927102	-0.000110
1451	1.4428e+02	-17.7669	-49.170295	0.000345	3.445780	1.167462	-0.000138
1452	1.4437e+02	-17.7990	-49.255075	0.000213	2.128276	0.721079	-0.000085
1453	1.4447e+02	-17.8327	-49.327743	0.000182	1.824237	0.618068	-0.000073
1454	1.4457e+02	-17.8776	-49.473080	0.000365	3.648473	1.236136	-0.000146
1455	1.4467e+02	-17.9241	-49.525563	0.000132	1.317504	0.446383	-0.000053
1456	1.4477e+02	-17.9514	-49.614380	0.000223	2.229623	0.755417	-0.000089
1457	1.4487e+02	-18.0043	-49.747605	0.000334	3.344434	1.133125	-0.000134
1458	1.4497e+02	-18.0492	-49.836422	0.000223	2.229623	0.755417	-0.000089
1459	1.4507e+02	-18.0861	-49.921202	0.000213	2.128276	0.721079	-0.000085
1460	1.4517e+02	-18.1214	-50.074613	0.000385	3.851166	1.304810	-0.000154
1461	1.4527e+02	-18.1583	-50.127096	0.000132	1.317504	0.446383	-0.000053
1462	1.4537e+02	-18.2016	-50.272433	0.000365	3.648473	1.236136	-0.000146
1463	1.4547e+02	-18.2498	-50.357213	0.000213	2.128276	0.721079	-0.000085
1464	1.4557e+02	-18.2834	-50.482364	0.000314	3.141741	1.064451	-0.000126
1465	1.4567e+02	-18.3284	-50.595404	0.000284	2.837702	0.961439	-0.000114
1466	1.4577e+02	-18.3620	-50.724592	0.000324	3.243087	1.098788	-0.000130
1467	1.4587e+02	-18.4118	-50.841669	0.000294	2.939048	0.995776	-0.000118
1468	1.4597e+02	-18.4310	-50.970857	0.000324	3.243087	1.098788	-0.000130
1469	1.4607e+02	-18.4888	-51.083897	0.000284	2.837702	0.961439	-0.000114
1470	1.4617e+02	-18.5257	-51.152528	0.000172	1.722890	0.583731	-0.000069
1471	1.4626e+02	-18.5626	-51.261531	0.000274	2.736355	0.927102	-0.000110
1472	1.4636e+02	-18.6043	-51.370534	0.000274	2.736355	0.927102	-0.000110
1473	1.4646e+02	-18.6444	-51.402831	0.000081	0.810772	0.274697	-0.000032
1474	1.4656e+02	-18.6813	-51.540093	0.000345	3.445780	1.167462	-0.000138
1475	1.4666e+02	-18.7230	-51.596613	0.000142	1.418851	0.480720	-0.000057
1476	1.4676e+02	-18.7695	-51.729839	0.000334	3.344434	1.133125	-0.000134
1477	1.4686e+02	-18.7952	-51.814619	0.000213	2.128276	0.721079	-0.000085
1478	1.4696e+02	-18.8417	-51.959956	0.000365	3.648473	1.236136	-0.000146
1479	1.4706e+02	-18.8850	-52.044735	0.000213	2.128276	0.721079	-0.000085
1480	1.4716e+02	-18.9139	-52.133552	0.000223	2.229623	0.755417	-0.000089
1481	1.4726e+02	-18.9636	-52.270815	0.000345	3.445780	1.167462	-0.000138
1482	1.4736e+02	-19.0021	-52.363669	0.000233	2.330969	0.789754	-0.000093
1483	1.4746e+02	-19.0438	-52.557452	0.000486	4.864631	1.648182	-0.000195
1484	1.4756e+02	-19.0807	-52.638194	0.000203	2.026930	0.686742	-0.000081
1485	1.4766e+02	-19.1241	-52.718937	0.000203	2.026930	0.686742	-0.000081
1486	1.4776e+02	-19.1642	-52.844088	0.000314	3.141741	1.064451	-0.000126
1487	1.4786e+02	-19.2139	-52.924831	0.000203	2.026930	0.686742	-0.000081
1488	1.4796e+02	-19.2396	-53.090354	0.000416	4.155206	1.407822	-0.000166
1489	1.4806e+02	-19.2749	-53.134762	0.000111	1.114811	0.377708	-0.000045
1490	1.4816e+02	-19.3150	-53.231653	0.000243	2.432316	0.824091	-0.000097
1491	1.4825e+02	-19.3470	-53.292210	0.000152	1.520197	0.515057	-0.000061
1492	1.4835e+02	-19.3952	-53.393139	0.000253	2.533662	0.858428	-0.000101
1493	1.4845e+02	-19.4385	-53.502141	0.000274	2.736355	0.927102	-0.000110
1494	1.4855e+02	-19.4786	-53.586921	0.000213	2.128276	0.721079	-0.000085
1495	1.4865e+02	-19.5091	-53.691887	0.000264	2.635009	0.892765	-0.000105
1496	1.4875e+02	-19.5588	-53.837224	0.000365	3.648473	1.236136	-0.000146
1497	1.4885e+02	-19.5941	-53.982561	0.000365	3.648473	1.236136	-0.000146
1498	1.4895e+02	-19.6390	-54.111749	0.000324	3.243087	1.098788	-0.000130
1499	1.4905e+02	-19.6759	-54.188454	0.000193	1.925583	0.652405	-0.000077
1500	1.4915e+02	-19.7112	-54.309569	0.000304	3.040395	1.030114	-0.000122
1501	1.4925e+02	-19.7593	-54.430683	0.000304	3.040395	1.030114	-0.000122
1502	1.4935e+02	-19.7914	-54.543722	0.000284	2.837702	0.961439	-0.000114
1503	1.4945e+02	-19.8347	-54.664836	0.000304	3.040395	1.030114	-0.000122
1504	1.4955e+02	-19.8668	-54.741542	0.000193	1.925583	0.652405	-0.000077
1505	1.4965e+02	-19.9230	-54.866693	0.000314	3.141741	1.064451	-0.000126
1506	1.4975e+02	-19.9422	-54.995882	0.000324	3.243087	1.098788	-0.000130
1507	1.4985e+02	-19.9952	-55.064513	0.000172	1.722890	0.583731	-0.000069
1508	1.4995e+02	-19.9583	-55.028179	0.000091	0.912118	0.309034	0.000037
1509	1.5005e+02	-19.9085	-54.923213	0.000264	2.635009	0.892765	0.000105
1510	1.5015e+02	-19.8668	-54.886879	0.000091	0.912118	0.309034	0.000037
1511	1.5025e+02	-19.8331	-54.826322	0.000152	1.520197	0.515057	0.000061
1512	1.5034e+02	-19.7978	-54.777876	0.000122	1.216158	0.412045	0.000049
1513	1.5044e+02	-19.7513	-54.725393	0.000132	1.317504	0.446383	0.000053
1514	1.5054e+02	-19.7080	-54.652725	0.000182	1.824237	0.618068	0.000073
1515	1.5064e+02	-19.6759	-54.620428	0.000081	0.810772	0.274697	0.000032
1516	1.5074e+02	-19.6262	-54.584094	0.000091	0.912118	0.309034	0.000037
1517	1.5084e+02	-19.5941	-54.487202	0.000243	2.432316	0.824091	0.000097
1518	1.5094e+02	-19.5492	-54.442794	0.000111	1.114811	0.377708	0.000045
1519	1.5104e+02	-19.5203	-54.333791	0.000274	2.736355	0.927102	0.000110
1520	1.5114e+02	-19.4658	-54.269197	0.000162	1.621544	0.549394	0.000065
1521	1.5124e+02	-19.4401	-54.212677	0.000142	1.418851	0.480720	0.000057
1522	1.5134e+02	-19.4000	-54.131935	0.000203	2.026930	0.686742	0.000081
1523	1.5144e+02	-19.3631	-54.035043	0.000243	2.432316	0.824091	0.000097
1524	1.5154e+02	-19.3214	-53.962375	0.000182	1.824237	0.618068	0.000073
1525	1.5164e+02	-19.2813	-53.905855	0.000142	1.418851	0.480720	0.000057
1526	1.5174e+02	-19.2460	-53.796852	0.000274	2.736355	0.927102	0.000110
1527	1.5184e+02	-19.2027	-53.720147	0.000193	1.925583	0.652405	0.000077
1528	1.5194e+02	-19.1658	-53.647478	0.000182	1.824237	0.618068	0.000073
1529	1.5204e+02	-19.1016	-53.578847	0.000172	1.722890	0.583731	0.000069
1530	1.5214e+02	-19.0775	-53.562698	0.000041	0.405386	0.137348	0.000016
1531	1.5224e+02	-19.0342	-53.494067	0.000172	1.722890	0.583731	0.000069
1532	1.5233e+02	-18.9973	-53.364879	0.000324	3.243087	1.098788	0.000130
1533	1.5243e+02	-18.9524	-53.304322	0.000152	1.520197	0.515057	0.000061
1534	1.5253e+02	-18.9123	-53.223579	0.000203	2.026930	0.686742	0.000081
1535	1.5263e+02	-18.8738	-53.171096	0.000132	1.317504	0.446383	0.000053
1536	1.5273e+02	-18.8353	-53.138799	0.000081	0.810772	0.274697	0.000032
1537	1.5283e+02	-18.8032	-53.009611	0.000324	3.243087	1.098788	0.000130
1538	1.5293e+02	-18.7567	-52.949054	0.000152	1.520197	0.515057	0.000061
1539	1.5303e+02	-18.7278	-52.872348	0.000193	1.925583	0.652405	0.000077
1540	1.5313e+02	-18.6797	-52.747197	0.000314	3.141741	1.064451	0.000126
1541	1.5323e+02	-18.6428	-52.710863	0.000091	0.912118	0.309034	0.000037
1542	1.5333e+02	-18.6171	-52.622046	0.000223	2.229623	0.755417	0.000089
1543	1.5343e+02	-18.5594	-52.561489	0.000152	1.520197	0.515057	0.000061
1544	1.5353e+02	-18.5209	-52.420189	0.000355	3.547127	1.201799	0.000142
1545	1.5363e+02	-18.4792	-52.343483	0.000193	1.925583	0.652405	0.000077
1546	1.5373e+02	-18.4471	-52.262741	0.000203	2.026930	0.686742	0.000081
1547	1.5383e+02	-18.3989	-52.206221	0.000142	1.418851	0.480720	0.000057
1548	1.5393e+02	-18.3669	-52.125478	0.000203	2.026930	0.686742	0.000081
1549	1.5403e+02	-18.3171	-52.052810	0.000182	1.824237	0.618068	0.000073
1550	1.5413e+02	-18.2834	-51.968030	0.000213	2.128276	0.721079	0.000085
1551	1.5422e+02	-18.2433	-51.927658	0.000101	1.013465	0.343371	0.000041
1552	1.5432e+02	-18.2048	-51.806544	0.000304	3.040395	1.030114	0.000122
1553	1.5442e+02	-18.1535	-51.737913	0.000172	1.722890	0.583731	0.000069
1554	1.5452e+02	-18.1214	-51.653133	0.000213	2.128276	0.721079	0.000085
1555	1.5462e+02	-18.0829	-51.568353	0.000213	2.128276	0.721079	0.000085
1556	1.5472e+02	-18.0428	-51.503759	0.000162	1.621544	0.549394	0.000065
1557	1.5482e+02	-18.0123	-51.427054	0.000193	1.925583	0.652405	0.000077
1558	1.5492e+02	-17.9610	-51.293828	0.000334	3.344434	1.133125	0.000134
1559	1.5502e+02	-17.9193	-51.241345	0.000132	1.317504	0.446383	0.000053
1560	1.5512e+02	-17.8840	-51.128306	0.000284	2.837702	0.961439	0.000114
1561	1.5522e+02	-17.8519	-50.999117	0.000324	3.243087	1.098788	0.000130
1562	1.5532e+02	-17.8038	-50.910300	0.000223	2.229623	0.755417	0.000089
1563	1.5542e+02	-17.7685	-50.837632	0.000182	1.824237	0.618068	0.000073
1564	1.5552e+02	-17.7252	-50.809372	0.000071	0.709425	0.240360	0.000028
1565	1.5562e+02	-17.6851	-50.724592	0.000213	2.128276	0.721079	0.000085
1566	1.5572e+02	-17.6417	-50.623664	0.000253	2.533662	0.858428	0.000101
1567	1.5582e+02	-17.6016	-50.563107	0.000152	1.520197	0.515057	0.000061
1568	1.5592e+02	-17.5663	-50.522735	0.000101	1.013465	0.343371	0.000041
1569	1.5602e+02	-17.5198	-50.397584	0.000314	3.141741	1.064451	0.000126
1570	1.5612e+02	-17.4701	-50.328953	0.000172	1.722890	0.583731	0.000069
1571	1.5622e+02	-17.4444	-50.223987	0.000264	2.635009	0.892765	0.000105
1572	1.5631e+02	-17.4059	-50.151319	0.000182	1.824237	0.618068	0.000073
1573	1.5641e+02	-17.3626	-50.082687	0.000172	1.722890	0.583731	0.000069
1574	1.5651e+02	-17.3257	-49.981759	0.000253	2.533662	0.858428	0.000101
1575	1.5661e+02	-17.2920	-49.864682	0.000294	2.939048	0.995776	0.000118
1576	1.5671e+02	-17.2503	-49.832385	0.000081	0.810772	0.274697	0.000032
1577	1.5681e+02	-17.2006	-49.719345	0.000284	2.837702	0.961439	0.000114
1578	1.5691e+02	-17.1701	-49.618417	0.000253	2.533662	0.858428	0.000101
1579	1.5701e+02	-17.1252	-49.497303	0.000304	3.040395	1.030114	0.000122
1580	1.5711e+02	-17.0835	-49.452894	0.000111	1.114811	0.377708	0.000045
1581	1.5721e+02	-17.0466	-49.368114	0.000213	2.128276	0.721079	0.000085
1582	1.5731e+02	-17.0049	-49.242963	0.000314	3.141741	1.064451	0.000126
1583	1.5741e+02	-16.9696	-49.202592	0.000101	1.013465	0.343371	0.000041
1584	1.5751e+02	-16.9182	-49.125886	0.000193	1.925583	0.652405	0.000077
1585	1.5761e+02	-16.8910	-49.016884	0.000274	2.736355	0.927102	0.000110
1586	1.5771e+02	-16.8396	-48.964401	0.000132	1.317504	0.446383	0.000053
1587	1.5781e+02	-16.8011	-48.831175	0.000334	3.344434	1.133125	0.000134
1588	1.5791e+02	-16.7610	-48.750433	0.000203	2.026930	0.686742	0.000081
1589	1.5801e+02	-16.7370	-48.714098	0.000091	0.912118	0.309034	0.000037
1590	1.5811e+02	-16.6920	-48.568761	0.000365	3.648473	1.236136	0.000146
1591	1.5821e+02	-16.6455	-48.520316	0.000122	1.216158	0.412045	0.000049
1592	1.5830e+02	-16.6006	-48.415350	0.000264	2.635009	0.892765	0.000105
1593	1.5840e+02	-16.5733	-48.302311	0.000284	2.837702	0.961439	0.000114
1594	1.5850e+02	-16.5268	-48.209456	0.000233	2.330969	0.789754	0.000093
1595	1.5860e+02	-16.4867	-48.100454	0.000274	2.736355	0.927102	0.000110
1596	1.5870e+02	-16.4482	-48.015674	0.000213	2.128276	0.721079	0.000085
1597	1.5880e+02	-16.4017	-47.910708	0.000264	2.635009	0.892765	0.000105
1598	1.5890e+02	-16.3712	-47.834003	0.000193	1.925583	0.652405	0.000077
1599	1.5900e+02	-16.3343	-47.737112	0.000243	2.432316	0.824091	0.000097
1600	1.5910e+02	-16.2942	-47.684629	0.000132	1.317504	0.446383	0.000053
1601	1.5920e+02	-16.2541	-47.615997	0.000172	1.722890	0.583731	0.000069
1602	1.5930e+02	-16.2108	-47.531218	0.000213	2.128276	0.721079	0.000085
1603	1.5940e+02	-16.1691	-47.389918	0.000355	3.547127	1.201799	0.000142
1604	1.5950e+02	-16.1306	-47.301101	0.000223	2.229623	0.755417	0.000089
1605	1.5960e+02	-16.0969	-47.236507	0.000162	1.621544	0.549394	0.000065
1606	1.5970e+02	-16.0503	-47.159801	0.000193	1.925583	0.652405	0.000077
1607	1.5980e+02	-16.0070	-47.026576	0.000334	3.344434	1.133125	0.000134
1608	1.5990e+02	-15.9717	-46.961981	0.000162	1.621544	0.549394	0.000065
1609	1.6000e+02	-15.9268	-46.881239	0.000203	2.026930	0.686742	0.000081
1610	1.6010e+02	-15.8851	-46.788385	0.000233	2.330969	0.789754	0.000093
1611	1.6019e+02	-15.8578	-46.687456	0.000253	2.533662	0.858428	0.000101
1612	1.6029e+02	-15.8081	-46.598639	0.000223	2.229623	0.755417	0.000089
1613	1.6039e+02	-15.7728	-46.525971	0.000182	1.824237	0.618068	0.000073
1614	1.6049e+02	-15.7343	-46.384671	0.000355	3.547127	1.201799	0.000142
1615	1.6059e+02	-15.6926	-46.275668	0.000274	2.736355	0.927102	0.000110
1616	1.6069e+02	-15.6605	-46.251446	0.000061	0.608079	0.206023	0.000024
1617	1.6079e+02	-15.6108	-46.142443	0.000274	2.736355	0.927102	0.000110
1618	1.6089e+02	-15.5739	-46.077849	0.000162	1.621544	0.549394	0.000065
1619	1.6099e+02	-15.5306	-45.964809	0.000284	2.837702	0.961439	0.000114
1620	1.6109e+02	-15.4937	-45.875992	0.000223	2.229623	0.755417	0.000089
1621	1.6119e+02	-15.4616	-45.775064	0.000253	2.533662	0.858428	0.000101
1622	1.6129e+02	-15.4151	-45.702395	0.000182	1.824237	0.618068	0.000073
1623	1.6139e+02	-15.3686	-45.629727	0.000182	1.824237	0.618068	0.000073
1624	1.6149e+02	-15.3204	-45.504575	0.000314	3.141741	1.064451	0.000126
1625	1.6159e+02	-15.2932	-45.431907	0.000182	1.824237	0.618068	0.000073
1626	1.6169e+02	-15.2546	-45.322904	0.000274	2.736355	0.927102	0.000110
1627	1.6179e+02	-15.2178	-45.286570	0.000091	0.912118	0.309034	0.000037
1628	1.6189e+02	-15.1744	-45.157382	0.000324	3.243087	1.098788	0.000130
1629	1.6199e+02	-15.1311	-45.084713	0.000182	1.824237	0.618068	0.000073
1630	1.6209e+02	-15.0958	-44.959562	0.000314	3.141741	1.064451	0.000126
1631	1.6219e+02	-15.0573	-44.838448	0.000304	3.040395	1.030114	0.000122
1632	1.6228e+02	-15.0124	-44.749631	0.000223	2.229623	0.755417	0.000089
1633	1.6238e+02	-14.9739	-44.672926	0.000193	1.925583	0.652405	0.000077
1634	1.6248e+02	-14.9306	-44.563923	0.000274	2.736355	0.927102	0.000110
1635	1.6258e+02	-14.8905	-44.495292	0.000172	1.722890	0.583731	0.000069
1636	1.6268e+02	-14.8488	-44.434735	0.000152	1.520197	0.515057	0.000061
1637	1.6278e+02	-14.8135	-44.305546	0.000324	3.243087	1.098788	0.000130
1638	1.6288e+02	-14.7846	-44.200581	0.000264	2.635009	0.892765	0.000105
1639	1.6298e+02	-14.7301	-44.123875	0.000193	1.925583	0.652405	0.000077
1640	1.6308e+02	-14.6884	-44.031021	0.000233	2.330969	0.789754	0.000093
1641	1.6318e+02	-14.6466	-43.926055	0.000264	2.635009	0.892765	0.000105
1642	1.6328e+02	-14.6226	-43.845313	0.000203	2.026930	0.686742	0.000081
1643	1.6338e+02	-14.5696	-43.728236	0.000294	2.939048	0.995776	0.000118
1644	1.6348e+02	-14.5376	-43.643456	0.000213	2.128276	0.721079	0.000085
1645	1.6358e+02	-14.4910	-43.566750	0.000193	1.925583	0.652405	0.000077
1646	1.6368e+02	-14.4638	-43.481970	0.000213	2.128276	0.721079	0.000085
1647	1.6378e+02	-14.4188	-43.401228	0.000203	2.026930	0.686742	0.000081
1648	1.6388e+02	-14.3787	-43.300299	0.000253	2.533662	0.858428	0.000101
1649	1.6398e+02	-14.3386	-43.187260	0.000284	2.837702	0.961439	0.000114
1650	1.6408e+02	-14.2937	-43.070183	0.000294	2.939048	0.995776	0.000118
1651	1.6418e+02	-14.2504	-42.957143	0.000284	2.837702	0.961439	0.000114
1652	1.6427e+02	-14.2135	-42.904660	0.000132	1.317504	0.446383	0.000053
1653	1.6437e+02	-14.1734	-42.787583	0.000294	2.939048	0.995776	0.000118
1654	1.6447e+02	-14.1397	-42.666469	0.000304	3.040395	1.030114	0.000122
1655	1.6457e+02	-14.0980	-42.618023	0.000122	1.216158	0.412045	0.000049
1656	1.6467e+02	-14.0627	-42.541318	0.000193	1.925583	0.652405	0.000077
1657	1.6477e+02	-14.0178	-42.452501	0.000223	2.229623	0.755417	0.000089
1658	1.6487e+02	-13.9777	-42.335424	0.000294	2.939048	0.995776	0.000118
1659	1.6497e+02	-13.9408	-42.226421	0.000274	2.736355	0.927102	0.000110
1660	1.6507e+02	-13.9055	-42.169901	0.000142	1.418851	0.480720	0.000057
1661	1.6517e+02	-13.8606	-42.032639	0.000345	3.445780	1.167462	0.000138
1662	1.6527e+02	-13.8205	-41.943822	0.000223	2.229623	0.755417	0.000089
1663	1.6537e+02	-13.7804	-41.855005	0.000223	2.229623	0.755417	0.000089
1664	1.6547e+02	-13.7386	-41.762151	0.000233	2.330969	0.789754	0.000093
1665	1.6557e+02	-13.6969	-41.657185	0.000264	2.635009	0.892765	0.000105
1666	1.6567e+02	-13.6488	-41.584517	0.000182	1.824237	0.618068	0.000073
1667	1.6577e+02	-13.6167	-41.467440	0.000294	2.939048	0.995776	0.000118
1668	1.6587e+02	-13.5798	-41.366511	0.000253	2.533662	0.858428	0.000101
1669	1.6597e+02	-13.5317	-41.285769	0.000203	2.026930	0.686742	0.000081
1670	1.6607e+02	-13.4980	-41.160617	0.000314	3.141741	1.064451	0.000126
1671	1.6616e+02	-13.4595	-41.079875	0.000203	2.026930	0.686742	0.000081
1672	1.6626e+02	-13.4258	-40.999132	0.000203	2.026930	0.686742	0.000081
1673	1.6636e+02	-13.3841	-40.906278	0.000233	2.330969	0.789754	0.000093
1674	1.6646e+02	-13.3440	-40.789201	0.000294	2.939048	0.995776	0.000118
1675	1.6656e+02	-13.2975	-40.724607	0.000162	1.621544	0.549394	0.000065
1676	1.6666e+02	-13.2590	-40.668087	0.000142	1.418851	0.480720	0.000057
1677	1.6676e+02	-13.2333	-40.555047	0.000284	2.837702	0.961439	0.000114
1678	1.6686e+02	-13.1772	-40.393562	0.000405	4.053859	1.373485	0.000162
1679	1.6696e+02	-13.1467	-40.333005	0.000152	1.520197	0.515057	0.000061
1680	1.6706e+02	-13.1002	-40.248225	0.000213	2.128276	0.721079	0.000085
1681	1.6716e+02	-13.0617	-40.171519	0.000193	1.925583	0.652405	0.000077
1682	1.6726e+02	-13.0183	-40.066554	0.000264	2.635009	0.892765	0.000105
1683	1.6736e+02	-12.9750	-39.989848	0.000193	1.925583	0.652405	0.000077
1684	1.6746e+02	-12.9462	-39.864697	0.000314	3.141741	1.064451	0.000126
1685	1.6756e+02	-12.8916	-39.767806	0.000243	2.432316	0.824091	0.000097
1686	1.6766e+02	-12.8659	-39.662840	0.000264	2.635009	0.892765	0.000105
1687	1.6776e+02	-12.8258	-39.565949	0.000243	2.432316	0.824091	0.000097
1688	1.6786e+02	-12.7777	-39.448872	0.000294	2.939048	0.995776	0.000118
1689	1.6796e+02	-12.7440	-39.315646	0.000334	3.344434	1.133125	0.000134
1690	1.6806e+02	-12.7007	-39.267201	0.000122	1.216158	0.412045	0.000049
1691	1.6816e+02	-12.6670	-39.154161	0.000284	2.837702	0.961439	0.000114
1692	1.6825e+02	-12.6221	-39.053233	0.000253	2.533662	0.858428	0.000101
1693	1.6835e+02	-12.5916	-38.992676	0.000152	1.520197	0.515057	0.000061
1694	1.6845e+02	-12.5419	-38.891747	0.000253	2.533662	0.858428	0.000101
1695	1.6855e+02	-12.5066	-38.758522	0.000334	3.344434	1.133125	0.000134
1696	1.6865e+02	-12.4793	-38.673742	0.000213	2.128276	0.721079	0.000085
1697	1.6875e+02	-12.4200	-38.625296	0.000122	1.216158	0.412045	0.000049
1698	1.6885e+02	-12.3783	-38.516294	0.000274	2.736355	0.927102	0.000110
1699	1.6895e+02	-12.3366	-38.415365	0.000253	2.533662	0.858428	0.000101
1700	1.6905e+02	-12.3077	-38.362882	0.000132	1.317504	0.446383	0.000053
1701	1.6915e+02	-12.2595	-38.261954	0.000253	2.533662	0.858428	0.000101
1702	1.6925e+02	-12.2339	-38.112580	0.000375	3.749820	1.270473	0.000150
1703	1.6935e+02	-12.1890	-38.011652	0.000253	2.533662	0.858428	0.000101
1704	1.6945e+02	-12.1473	-37.874389	0.000345	3.445780	1.167462	0.000138
1705	1.6955e+02	-12.1087	-37.793646	0.000203	2.026930	0.686742	0.000081
1706	1.6965e+02	-12.0670	-37.688681	0.000264	2.635009	0.892765	0.000105
1707	1.6975e+02	-12.0221	-37.599864	0.000223	2.229623	0.755417	0.000089
1708	1.6985e+02	-11.9932	-37.498935	0.000253	2.533662	0.858428	0.000101
1709	1.6995e+02	-11.9435	-37.398007	0.000253	2.533662	0.858428	0.000101
1710	1.7005e+02	-11.9034	-37.317264	0.000203	2.026930	0.686742	0.000081
1711	1.7015e+02	-11.8665	-37.175964	0.000355	3.547127	1.201799	0.000142
1712	1.7024e+02	-11.8344	-37.099259	0.000193	1.925583	0.652405	0.000077
1713	1.7034e+02	-11.7927	-37.014479	0.000213	2.128276	0.721079	0.000085
1714	1.7044e+02	-11.7494	-36.945848	0.000172	1.722890	0.583731	0.000069
1715	1.7054e+02	-11.7061	-36.840882	0.000264	2.635009	0.892765	0.000105
1716	1.7064e+02	-11.6676	-36.748028	0.000233	2.330969	0.789754	0.000093
1717	1.7074e+02	-11.6275	-36.695545	0.000132	1.317504	0.446383	0.000053
1718	1.7084e+02	-11.5906	-36.538097	0.000395	3.952513	1.339148	0.000158
1719	1.7094e+02	-11.5489	-36.441206	0.000243	2.432316	0.824091	0.000097
1720	1.7104e+02	-11.5088	-36.356426	0.000213	2.128276	0.721079	0.000085
1721	1.7114e+02	-11.4687	-36.251460	0.000264	2.635009	0.892765	0.000105
1722	1.7124e+02	-11.4302	-36.094012	0.000395	3.952513	1.339148	0.000158
1723	1.7134e+02	-11.3949	-35.980972	0.000284	2.837702	0.961439	0.000114
1724	1.7144e+02	-11.3499	-35.932527	0.000122	1.216158	0.412045	0.000049
1725	1.7154e+02	-11.3050	-35.758930	0.000436	4.357899	1.476496	0.000174
1726	1.7164e+02	-11.2681	-35.682224	0.000193	1.925583	0.652405	0.000077
1727	1.7174e+02	-11.2409	-35.577259	0.000264	2.635009	0.892765	0.000105
1728	1.7184e+02	-11.1863	-35.492479	0.000213	2.128276	0.721079	0.000085
1729	1.7194e+02	-11.1510	-35.407699	0.000213	2.128276	0.721079	0.000085
1730	1.7204e+02	-11.1029	-35.314845	0.000233	2.330969	0.789754	0.000093
1731	1.7213e+02	-11.0644	-35.262362	0.000132	1.317504	0.446383	0.000053
1732	1.7223e+02	-11.0291	-35.141248	0.000304	3.040395	1.030114	0.000122
1733	1.7233e+02	-10.9954	-35.028208	0.000284	2.837702	0.961439	0.000114
1734	1.7243e+02	-10.9553	-34.955540	0.000182	1.824237	0.618068	0.000073
1735	1.7253e+02	-10.9072	-34.850574	0.000264	2.635009	0.892765	0.000105
1736	1.7263e+02	-10.8767	-34.753683	0.000243	2.432316	0.824091	0.000097
1737	1.7273e+02	-10.8254	-34.660829	0.000233	2.330969	0.789754	0.000093
1738	1.7283e+02	-10.8029	-34.527603	0.000334	3.344434	1.133125	0.000134
1739	1.7293e+02	-10.7628	-34.479158	0.000122	1.216158	0.412045	0.000049
1740	1.7303e+02	-10.7083	-34.337858	0.000355	3.547127	1.201799	0.000142
1741	1.7313e+02	-10.6714	-34.245004	0.000233	2.330969	0.789754	0.000093
1742	1.7323e+02	-10.6377	-34.087556	0.000395	3.952513	1.339148	0.000158
1743	1.7333e+02	-10.5960	-33.994701	0.000233	2.330969	0.789754	0.000093
1744	1.7343e+02	-10.5542	-33.853402	0.000355	3.547127	1.201799	0.000142
1745	1.7353e+02	-10.5093	-33.788808	0.000162	1.621544	0.549394	0.000065
1746	1.7363e+02	-10.4660	-33.695953	0.000233	2.330969	0.789754	0.000093
1747	1.7373e+02	-10.4291	-33.643471	0.000132	1.317504	0.446383	0.000053
1748	1.7383e+02	-10.3954	-33.518319	0.000314	3.141741	1.064451	0.000126
1749	1.7393e+02	-10.3521	-33.413354	0.000264	2.635009	0.892765	0.000105
1750	1.7403e+02	-10.3184	-33.292240	0.000304	3.040395	1.030114	0.000122
1751	1.7413e+02	-10.2655	-33.251869	0.000101	1.013465	0.343371	0.000041
1752	1.7422e+02	-10.2366	-33.159014	0.000233	2.330969	0.789754	0.000093
1753	1.7432e+02	-10.1949	-33.017715	0.000355	3.547127	1.201799	0.000142
1754	1.7442e+02	-10.1580	-32.920823	0.000243	2.432316	0.824091	0.000097
1755	1.7452e+02	-10.1147	-32.836044	0.000213	2.128276	0.721079	0.000085
1756	1.7462e+02	-10.0698	-32.706855	0.000324	3.243087	1.098788	0.000130
1757	1.7472e+02	-10.0313	-32.577667	0.000324	3.243087	1.098788	0.000130
1758	1.7482e+02	-10.0024	-32.448478	0.000324	3.243087	1.098788	0.000130
1759	1.7492e+02	-9.9639	-32.343513	0.000264	2.635009	0.892765	0.000105
1760	1.7502e+02	-9.9126	-32.226436	0.000294	2.939048	0.995776	0.000118
1761	1.7512e+02	-9.8757	-32.121470	0.000264	2.635009	0.892765	0.000105
1762	1.7522e+02	-9.8372	-32.036691	0.000213	2.128276	0.721079	0.000085
1763	1.7532e+02	-9.7890	-31.968059	0.000172	1.722890	0.583731	0.000069
1764	1.7542e+02	-9.7553	-31.867131	0.000253	2.533662	0.858428	0.000101
1765	1.7552e+02	-9.7200	-31.774277	0.000233	2.330969	0.789754	0.000093
1766	1.7562e+02	-9.6815	-31.689497	0.000213	2.128276	0.721079	0.000085
1767	1.7572e+02	-9.6382	-31.540123	0.000375	3.749820	1.270473	0.000150
1768	1.7582e+02	-9.5965	-31.463417	0.000193	1.925583	0.652405	0.000077
1769	1.7592e+02	-9.5628	-31.366526	0.000243	2.432316	0.824091	0.000097
1770	1.7602e+02	-9.5179	-31.277709	0.000223	2.229623	0.755417	0.000089
1771	1.7612e+02	-9.4746	-31.168706	0.000274	2.736355	0.927102	0.000110
1772	1.7621e+02	-9.4441	-31.051630	0.000294	2.939048	0.995776	0.000118
1773	1.7631e+02	-9.4056	-30.978961	0.000182	1.824237	0.618068	0.000073
1774	1.7641e+02	-9.3671	-30.813439	0.000416	4.155206	1.407822	0.000166
1775	1.7651e+02	-9.3222	-30.769030	0.000111	1.114811	0.377708	0.000045
1776	1.7661e+02	-9.2789	-30.619656	0.000375	3.749820	1.270473	0.000150
1777	1.7671e+02	-9.2420	-30.518728	0.000253	2.533662	0.858428	0.000101
1778	1.7681e+02	-9.2003	-30.357242	0.000405	4.053859	1.373485	0.000162
1779	1.7691e+02	-9.1554	-30.312834	0.000111	1.114811	0.377708	0.000045
1780	1.7701e+02	-9.1201	-30.187682	0.000314	3.141741	1.064451	0.000126
1781	1.7711e+02	-9.0832	-30.102903	0.000213	2.128276	0.721079	0.000085
1782	1.7721e+02	-9.0399	-30.006011	0.000243	2.432316	0.824091	0.000097
1783	1.7731e+02	-8.9997	-29.957566	0.000122	1.216158	0.412045	0.000049
1784	1.7741e+02	-8.9548	-29.796080	0.000405	4.053859	1.373485	0.000162
1785	1.7751e+02	-8.9131	-29.683041	0.000284	2.837702	0.961439	0.000114
1786	1.7761e+02	-8.8874	-29.618446	0.000162	1.621544	0.549394	0.000065
1787	1.7771e+02	-8.8425	-29.501369	0.000294	2.939048	0.995776	0.000118
1788	1.7781e+02	-8.8024	-29.372181	0.000324	3.243087	1.098788	0.000130
1789	1.7791e+02	-8.7671	-29.275290	0.000243	2.432316	0.824091	0.000097
1790	1.7801e+02	-8.7206	-29.174361	0.000253	2.533662	0.858428	0.000101
1791	1.7810e+02	-8.6885	-29.061322	0.000284	2.837702	0.961439	0.000114
1792	1.7820e+02	-8.6388	-28.940208	0.000304	3.040395	1.030114	0.000122
1793	1.7830e+02	-8.6019	-28.806982	0.000334	3.344434	1.133125	0.000134
1794	1.7840e+02	-8.5602	-28.738351	0.000172	1.722890	0.583731	0.000069
1795	1.7850e+02	-8.5185	-28.625311	0.000284	2.837702	0.961439	0.000114
1796	1.7860e+02	-8.4720	-28.520345	0.000264	2.635009	0.892765	0.000105
1797	1.7870e+02	-8.4383	-28.407306	0.000284	2.837702	0.961439	0.000114
1798	1.7880e+02	-8.4094	-28.314451	0.000233	2.330969	0.789754	0.000093
1799	1.7890e+02	-8.3564	-28.233709	0.000203	2.026930	0.686742	0.000081
1800	1.7900e+02	-8.3276	-28.128743	0.000264	2.635009	0.892765	0.000105
1801	1.7910e+02	-8.2810	-28.003592	0.000314	3.141741	1.064451	0.000126
1802	1.7920e+02	-8.2442	-27.914775	0.000223	2.229623	0.755417	0.000089
1803	1.7930e+02	-8.2024	-27.829995	0.000213	2.128276	0.721079	0.000085
1804	1.7940e+02	-8.1639	-27.684658	0.000365	3.648473	1.236136	0.000146
1805	1.7950e+02	-8.1174	-27.595841	0.000223	2.229623	0.755417	0.000089
1806	1.7960e+02	-8.0885	-27.462616	0.000334	3.344434	1.133125	0.000134
1807	1.7970e+02	-8.0388	-27.402059	0.000152	1.520197	0.515057	0.000061
1808	1.7980e+02	-8.0019	-27.276908	0.000314	3.141741	1.064451	0.000126
1809	1.7990e+02	-7.9586	-27.155794	0.000304	3.040395	1.030114	0.000122
1810	1.8000e+02	-7.9121	-27.050828	0.000264	2.635009	0.892765	0.000105
1811	1.8009e+02	-7.8816	-26.974122	0.000193	1.925583	0.652405	0.000077
1812	1.8019e+02	-7.8399	-26.820711	0.000385	3.851166	1.304810	0.000154
1813	1.8029e+02	-7.7966	-26.744006	0.000193	1.925583	0.652405	0.000077
1814	1.8039e+02	-7.7661	-26.626929	0.000294	2.939048	0.995776	0.000118
1815	1.8049e+02	-7.7212	-26.542149	0.000213	2.128276	0.721079	0.000085
1816	1.8059e+02	-7.6843	-26.433146	0.000274	2.736355	0.927102	0.000110
1817	1.8069e+02	-7.6442	-26.307995	0.000314	3.141741	1.064451	0.000126
1818	1.8079e+02	-7.6025	-26.194955	0.000284	2.837702	0.961439	0.000114
1819	1.8089e+02	-7.5656	-26.085953	0.000274	2.736355	0.927102	0.000110
1820	1.8099e+02	-7.5287	-26.013284	0.000182	1.824237	0.618068	0.000073
1821	1.8109e+02	-7.4918	-25.843724	0.000426	4.256552	1.442159	0.000170
1822	1.8119e+02	-7.4452	-25.779130	0.000162	1.621544	0.549394	0.000065
1823	1.8129e+02	-7.4116	-25.645905	0.000334	3.344434	1.133125	0.000134
1824	1.8139e+02	-7.3634	-25.569199	0.000193	1.925583	0.652405	0.000077
1825	1.8149e+02	-7.3233	-25.460197	0.000274	2.736355	0.927102	0.000110
1826	1.8159e+02	-7.2896	-25.363305	0.000243	2.432316	0.824091	0.000097
1827	1.8169e+02	-7.2495	-25.213931	0.000375	3.749820	1.270473	0.000150
1828	1.8179e+02	-7.2174	-25.121077	0.000233	2.330969	0.789754	0.000093
1829	1.8189e+02	-7.1677	-25.008037	0.000284	2.837702	0.961439	0.000114
1830	1.8199e+02	-7.1260	-24.915183	0.000233	2.330969	0.789754	0.000093
1831	1.8209e+02	-7.0907	-24.802143	0.000284	2.837702	0.961439	0.000114
1832	1.8218e+02	-7.0442	-24.701215	0.000253	2.533662	0.858428	0.000101
1833	1.8228e+02	-6.9993	-24.555878	0.000365	3.648473	1.236136	0.000146
1834	1.8238e+02	-6.9672	-24.450913	0.000264	2.635009	0.892765	0.000105
1835	1.8248e+02	-6.9239	-24.329799	0.000304	3.040395	1.030114	0.000122
1836	1.8258e+02	-6.8806	-24.253093	0.000193	1.925583	0.652405	0.000077
1837	1.8268e+02	-6.8453	-24.144090	0.000274	2.736355	0.927102	0.000110
1838	1.8278e+02	-6.8132	-24.027013	0.000294	2.939048	0.995776	0.000118
1839	1.8288e+02	-6.7699	-23.922048	0.000264	2.635009	0.892765	0.000105
1840	1.8298e+02	-6.7282	-23.857454	0.000162	1.621544	0.549394	0.000065
1841	1.8308e+02	-6.6897	-23.712117	0.000365	3.648473	1.236136	0.000146
1842	1.8318e+02	-6.6479	-23.651560	0.000152	1.520197	0.515057	0.000061
1843	1.8328e+02	-6.6110	-23.534483	0.000294	2.939048	0.995776	0.000118
1844	1.8338e+02	-6.5549	-23.461814	0.000182	1.824237	0.618068	0.000073
1845	1.8348e+02	-6.5244	-23.312440	0.000375	3.749820	1.270473	0.000150
1846	1.8358e+02	-6.4907	-23.187289	0.000314	3.141741	1.064451	0.000126
1847	1.8368e+02	-6.4490	-23.074249	0.000284	2.837702	0.961439	0.000114
1848	1.8378e+02	-6.4153	-22.973321	0.000253	2.533662	0.858428	0.000101
1849	1.8388e+02	-6.3640	-22.888541	0.000213	2.128276	0.721079	0.000085
1850	1.8398e+02	-6.3271	-22.791650	0.000243	2.432316	0.824091	0.000097
1851	1.8407e+02	-6.2902	-22.650350	0.000355	3.547127	1.201799	0.000142
1852	1.8417e+02	-6.2517	-22.513087	0.000345	3.445780	1.167462	0.000138
1853	1.8427e+02	-6.2196	-22.480790	0.000081	0.810772	0.274697	0.000032
1854	1.8437e+02	-6.1731	-22.327379	0.000385	3.851166	1.304810	0.000154
1855	1.8447e+02	-6.1282	-22.270859	0.000142	1.418851	0.480720	0.000057
1856	1.8457e+02	-6.0977	-22.077077	0.000486	4.864631	1.648182	0.000195
1857	1.8467e+02	-6.0592	-22.044780	0.000081	0.810772	0.274697	0.000032
1858	1.8477e+02	-6.0143	-21.879257	0.000416	4.155206	1.407822	0.000166
1859	1.8487e+02	-5.9710	-21.818700	0.000152	1.520197	0.515057	0.000061
1860	1.8497e+02	-5.9373	-21.665289	0.000385	3.851166	1.304810	0.000154
1861	1.8507e+02	-5.8988	-21.596658	0.000172	1.722890	0.583731	0.000069
1862	1.8517e+02	-5.8538	-21.515915	0.000203	2.026930	0.686742	0.000081
1863	1.8527e+02	-5.8089	-21.382689	0.000334	3.344434	1.133125	0.000134
1864	1.8537e+02	-5.7672	-21.249464	0.000334	3.344434	1.133125	0.000134
1865	1.8547e+02	-5.7351	-21.144498	0.000264	2.635009	0.892765	0.000105
1866	1.8557e+02	-5.6934	-21.047607	0.000243	2.432316	0.824091	0.000097
1867	1.8567e+02	-5.6453	-20.954753	0.000233	2.330969	0.789754	0.000093
1868	1.8577e+02	-5.6164	-20.797305	0.000395	3.952513	1.339148	0.000158
1869	1.8587e+02	-5.5763	-20.728673	0.000172	1.722890	0.583731	0.000069
1870	1.8597e+02	-5.5442	-20.575262	0.000385	3.851166	1.304810	0.000154
1871	1.8606e+02	-5.5025	-20.454148	0.000304	3.040395	1.030114	0.000122
1872	1.8616e+02	-5.4576	-20.389554	0.000162	1.621544	0.549394	0.000065
1873	1.8626e+02	-5.4223	-20.296700	0.000233	2.330969	0.789754	0.000093
1874	1.8636e+02	-5.3790	-20.159437	0.000345	3.445780	1.167462	0.000138
1875	1.8646e+02	-5.3357	-20.030249	0.000324	3.243087	1.098788	0.000130
1876	1.8656e+02	-5.3020	-19.913172	0.000294	2.939048	0.995776	0.000118
1877	1.8666e+02	-5.2603	-19.860689	0.000132	1.317504	0.446383	0.000053
1878	1.8676e+02	-5.2234	-19.707278	0.000385	3.851166	1.304810	0.000154
1879	1.8686e+02	-5.1785	-19.642684	0.000162	1.621544	0.549394	0.000065
1880	1.8696e+02	-5.1496	-19.545793	0.000243	2.432316	0.824091	0.000097
1881	1.8706e+02	-5.0918	-19.412567	0.000334	3.344434	1.133125	0.000134
1882	1.8716e+02	-5.0581	-19.255119	0.000395	3.952513	1.339148	0.000158
1883	1.8726e+02	-5.0100	-19.146116	0.000274	2.736355	0.927102	0.000110
1884	1.8736e+02	-4.9763	-19.049225	0.000243	2.432316	0.824091	0.000097
1885	1.8746e+02	-4.9314	-18.932148	0.000294	2.939048	0.995776	0.000118
1886	1.8756e+02	-4.9041	-18.831220	0.000253	2.533662	0.858428	0.000101
1887	1.8766e+02	-4.8576	-18.710106	0.000304	3.040395	1.030114	0.000122
1888	1.8776e+02	-4.8223	-18.609177	0.000253	2.533662	0.858428	0.000101
1889	1.8786e+02	-4.7790	-18.524397	0.000213	2.128276	0.721079	0.000085
1890	1.8796e+02	-4.7405	-18.383098	0.000355	3.547127	1.201799	0.000142
1891	1.8806e+02	-4.6972	-18.266021	0.000294	2.939048	0.995776	0.000118
1892	1.8815e+02	-4.6635	-18.140869	0.000314	3.141741	1.064451	0.000126
1893	1.8825e+02	-4.6170	-18.052052	0.000223	2.229623	0.755417	0.000089
1894	1.8835e+02	-4.5769	-17.951124	0.000253	2.533662	0.858428	0.000101
1895	1.8845e+02	-4.5384	-17.854233	0.000243	2.432316	0.824091	0.000097
1896	1.8855e+02	-4.4919	-17.741193	0.000284	2.837702	0.961439	0.000114
1897	1.8865e+02	-4.4534	-17.616042	0.000314	3.141741	1.064451	0.000126
1898	1.8875e+02	-4.4181	-17.494928	0.000304	3.040395	1.030114	0.000122
1899	1.8885e+02	-4.3796	-17.414185	0.000203	2.026930	0.686742	0.000081
1900	1.8895e+02	-4.3298	-17.256737	0.000395	3.952513	1.339148	0.000158
1901	1.8905e+02	-4.2977	-17.163883	0.000233	2.330969	0.789754	0.000093
1902	1.8915e+02	-4.2608	-17.042769	0.000304	3.040395	1.030114	0.000122
1903	1.8925e+02	-4.2175	-16.941840	0.000253	2.533662	0.858428	0.000101
1904	1.8935e+02	-4.1870	-16.808615	0.000334	3.344434	1.133125	0.000134
1905	1.8945e+02	-4.1437	-16.695575	0.000284	2.837702	0.961439	0.000114
1906	1.8955e+02	-4.1036	-16.562349	0.000334	3.344434	1.133125	0.000134
1907	1.8965e+02	-4.0603	-16.493718	0.000172	1.722890	0.583731	0.000069
1908	1.8975e+02	-4.0250	-16.400864	0.000233	2.330969	0.789754	0.000093
1909	1.8985e+02	-3.9897	-16.299936	0.000253	2.533662	0.858428	0.000101
1910	1.8995e+02	-3.9400	-16.154599	0.000365	3.648473	1.236136	0.000146
1911	1.9004e+02	-3.8951	-16.061745	0.000233	2.330969	0.789754	0.000093
1912	1.9014e+02	-3.8550	-15.928519	0.000334	3.344434	1.133125	0.000134
1913	1.9024e+02	-3.8165	-15.839702	0.000223	2.229623	0.755417	0.000089
1914	1.9034e+02	-3.7796	-15.746848	0.000233	2.330969	0.789754	0.000093
1915	1.9044e+02	-3.7379	-15.633808	0.000284	2.837702	0.961439	0.000114
1916	1.9054e+02	-3.6978	-15.512694	0.000304	3.040395	1.030114	0.000122
1917	1.9064e+02	-3.6609	-15.415803	0.000243	2.432316	0.824091	0.000097
1918	1.9074e+02	-3.6143	-15.262392	0.000385	3.851166	1.304810	0.000154
1919	1.9084e+02	-3.5774	-15.161463	0.000253	2.533662	0.858428	0.000101
1920	1.9094e+02	-3.5389	-15.028238	0.000334	3.344434	1.133125	0.000134
1921	1.9104e+02	-3.5004	-14.959606	0.000172	1.722890	0.583731	0.000069
1922	1.9114e+02	-3.4603	-14.818307	0.000355	3.547127	1.201799	0.000142
1923	1.9124e+02	-3.4234	-14.697193	0.000304	3.040395	1.030114	0.000122
1924	1.9134e+02	-3.3833	-14.563967	0.000334	3.344434	1.133125	0.000134
1925	1.9144e+02	-3.3384	-14.450927	0.000284	2.837702	0.961439	0.000114
1926	1.9154e+02	-3.2967	-14.345962	0.000264	2.635009	0.892765	0.000105
1927	1.9164e+02	-3.2630	-14.236959	0.000274	2.736355	0.927102	0.000110
1928	1.9174e+02	-3.2357	-14.131994	0.000264	2.635009	0.892765	0.000105
1929	1.9184e+02	-3.1844	-14.039140	0.000233	2.330969	0.789754	0.000093
1930	1.9194e+02	-3.1491	-13.918025	0.000304	3.040395	1.030114	0.000122
1931	1.9203e+02	-3.1010	-13.800949	0.000294	2.939048	0.995776	0.000118
1932	1.9213e+02	-3.0609	-13.695983	0.000264	2.635009	0.892765	0.000105
1933	1.9223e+02	-3.0208	-13.574869	0.000304	3.040395	1.030114	0.000122
1934	1.9233e+02	-2.9887	-13.473941	0.000253	2.533662	0.858428	0.000101
1935	1.9243e+02	-2.9438	-13.340715	0.000334	3.344434	1.133125	0.000134
1936	1.9253e+02	-2.9085	-13.207490	0.000334	3.344434	1.133125	0.000134
1937	1.9263e+02	-2.8620	-13.094450	0.000284	2.837702	0.961439	0.000114
1938	1.9273e+02	-2.8186	-12.965261	0.000324	3.243087	1.098788	0.000130
1939	1.9283e+02	-2.7930	-12.860296	0.000264	2.635009	0.892765	0.000105
1940	1.9293e+02	-2.7448	-12.767442	0.000233	2.330969	0.789754	0.000093
1941	1.9303e+02	-2.7047	-12.646328	0.000304	3.040395	1.030114	0.000122
1942	1.9313e+02	-2.6759	-12.549436	0.000243	2.432316	0.824091	0.000097
1943	1.9323e+02	-2.6197	-12.400062	0.000375	3.749820	1.270473	0.000150
1944	1.9333e+02	-2.5892	-12.291060	0.000274	2.736355	0.927102	0.000110
1945	1.9343e+02	-2.5443	-12.186094	0.000264	2.635009	0.892765	0.000105
1946	1.9353e+02	-2.4994	-12.093240	0.000233	2.330969	0.789754	0.000093
1947	1.9363e+02	-2.4689	-11.968089	0.000314	3.141741	1.064451	0.000126
1948	1.9373e+02	-2.4304	-11.863123	0.000264	2.635009	0.892765	0.000105
1949	1.9383e+02	-2.3839	-11.717786	0.000365	3.648473	1.236136	0.000146
1950	1.9393e+02	-2.3518	-11.624932	0.000233	2.330969	0.789754	0.000093
1951	1.9403e+02	-2.3005	-11.479595	0.000365	3.648473	1.236136	0.000146
1952	1.9412e+02	-2.2700	-11.410964	0.000172	1.722890	0.583731	0.000069
1953	1.9422e+02	-2.2443	-11.257553	0.000385	3.851166	1.304810	0.000154
1954	1.9432e+02	-2.1834	-11.176810	0.000203	2.026930	0.686742	0.000081
1955	1.9442e+02	-2.1593	-11.047622	0.000324	3.243087	1.098788	0.000130
1956	1.9452e+02	-2.1031	-10.950731	0.000243	2.432316	0.824091	0.000097
1957	1.9462e+02	-2.0646	-10.817505	0.000334	3.344434	1.133125	0.000134
1958	1.9472e+02	-2.0294	-10.688317	0.000324	3.243087	1.098788	0.000130
1959	1.9482e+02	-1.9892	-10.599500	0.000223	2.229623	0.755417	0.000089
1960	1.9492e+02	-1.9556	-10.462237	0.000345	3.445780	1.167462	0.000138
1961	1.9502e+02	-1.9090	-10.320938	0.000355	3.547127	1.201799	0.000142
1962	1.9512e+02	-1.8721	-10.195786	0.000314	3.141741	1.064451	0.000126
1963	1.9522e+02	-1.8304	-10.111006	0.000213	2.128276	0.721079	0.000085
1964	1.9532e+02	-1.7871	-9.985855	0.000314	3.141741	1.064451	0.000126
1965	1.9542e+02	-1.7438	-9.888964	0.000243	2.432316	0.824091	0.000097
1966	1.9552e+02	-1.7133	-9.763813	0.000314	3.141741	1.064451	0.000126
1967	1.9562e+02	-1.6716	-9.646736	0.000294	2.939048	0.995776	0.000118
1968	1.9572e+02	-1.6283	-9.537733	0.000274	2.736355	0.927102	0.000110
1969	1.9582e+02	-1.5946	-9.420656	0.000294	2.939048	0.995776	0.000118
1970	1.9592e+02	-1.5513	-9.299542	0.000304	3.040395	1.030114	0.000122
1971	1.9601e+02	-1.5112	-9.186502	0.000284	2.837702	0.961439	0.000114
1972	1.9611e+02	-1.4631	-9.057314	0.000324	3.243087	1.098788	0.000130
1973	1.9621e+02	-1.4246	-8.952348	0.000264	2.635009	0.892765	0.000105
1974	1.9631e+02	-1.3925	-8.831234	0.000304	3.040395	1.030114	0.000122
1975	1.9641e+02	-1.3556	-8.750492	0.000203	2.026930	0.686742	0.000081
1976	1.9651e+02	-1.3139	-8.609192	0.000355	3.547127	1.201799	0.000142
1977	1.9661e+02	-1.2657	-8.520375	0.000223	2.229623	0.755417	0.000089
1978	1.9671e+02	-1.2288	-8.354852	0.000416	4.155206	1.407822	0.000166
1979	1.9681e+02	-1.1919	-8.257961	0.000243	2.432316	0.824091	0.000097
1980	1.9691e+02	-1.1534	-8.120699	0.000345	3.445780	1.167462	0.000138
1981	1.9701e+02	-1.1133	-8.023807	0.000243	2.432316	0.824091	0.000097
1982	1.9711e+02	-1.0716	-7.939027	0.000213	2.128276	0.721079	0.000085
1983	1.9721e+02	-1.0411	-7.821950	0.000294	2.939048	0.995776	0.000118
1984	1.9731e+02	-0.9978	-7.676614	0.000365	3.648473	1.236136	0.000146
1985	1.9741e+02	-0.9577	-7.543388	0.000334	3.344434	1.133125	0.000134
1986	1.9751e+02	-0.9160	-7.474757	0.000172	1.722890	0.583731	0.000069
1987	1.9761e+02	-0.8663	-7.305197	0.000426	4.256552	1.442159	0.000170
1988	1.9771e+02	-0.8310	-7.216380	0.000223	2.229623	0.755417	0.000089
1989	1.9781e+02	-0.7893	-7.091229	0.000314	3.141741	1.064451	0.000126
1990	1.9791e+02	-0.7524	-6.953966	0.000345	3.445780	1.167462	0.000138
1991	1.9800e+02	-0.7107	-6.865149	0.000223	2.229623	0.755417	0.000089
1992	1.9810e+02	-0.6754	-6.752110	0.000284	2.837702	0.961439	0.000114
1993	1.9820e+02	-0.6401	-6.626958	0.000314	3.141741	1.064451	0.000126
1994	1.9830e+02	-0.5904	-6.526030	0.000253	2.533662	0.858428	0.000101
1995	1.9840e+02	-0.5567	-6.396842	0.000324	3.243087	1.098788	0.000130
1996	1.9850e+02	-0.5069	-6.275728	0.000304	3.040395	1.030114	0.000122
1997	1.9860e+02	-0.4604	-6.162688	0.000284	2.837702	0.961439	0.000114
1998	1.9870e+02	-0.4299	-6.049648	0.000284	2.837702	0.961439	0.000114
1999	1.9880e+02	-0.3930	-5.960831	0.000223	2.229623	0.755417	0.000089
2000	1.9890e+02	-0.3513	-5.811457	0.000375	3.749820	1.270473	0.000150
2001	1.9900e+02	-0.3112	-5.698417	0.000284	2.837702	0.961439	0.000114
2002	1.9910e+02	-0.2823	-5.545006	0.000385	3.851166	1.304810	0.000154
2003	1.9920e+02	-0.2358	-5.448115	0.000243	2.432316	0.824091	0.000097
2004	1.9930e+02	-0.1989	-5.359298	0.000223	2.229623	0.755417	0.000089
2005	1.9940e+02	-0.1460	-5.238184	0.000304	3.040395	1.030114	0.000122
2006	1.9950e+02	-0.1235	-5.092847	0.000365	3.648473	1.236136	0.000146
2007	1.9960e+02	-0.0786	-4.975770	0.000294	2.939048	0.995776	0.000118
2008	1.9970e+02	-0.0257	-4.866767	0.000274	2.736355	0.927102	0.000110
2009	1.9980e+02	0.0032	-4.745653	0.000274	2.736355	0.927102	0.000122

PMax (uC/cm2):	5.76e+01
Pr (uC/cm2):	3.49e+00
-Pr (uC/cm2):	-2.24e+00
PLoss (uC/cm2):	-2.25e+00
-Vc:	-1.17e+00
C (Max-Eff) (nF):	2.88e-01
K (Eff):	9.75e+02
Vert. (+/-Pr) Shift (uC/cm2):	6.21e-01
Offset (uC/cm2):	2.50e+00

A (Loop Area - uC/cm2·Volts):	4.71e-02



Hysteresis Version: 5.48.1 - Radiant Technologies, Inc., 1999 - 9/12/24

