»»»»»»»»»»»»»»»»»»»»»»»»»»»»»»»»»»»» Hysteresis ««««««««««««««««««««««««««««««««««««
»»»  Executed Version:	5.48.1
»»»  Vision Version:	5.48.4 (R)
»»»  Vision Compiled:	9/18/24
»»»  Driver Version:	5.47.0
»»»  Windows Version:	Windows 8 or 8.1
»»»  Processor Information:	x86 (AMD or Intel) - 32 Processors
»»»  Tester Name:	PMF21124-494 (100V)
»»»  Tester S/N:	PMF21124-494
»»»  Internal Amp Type:	100V RevK 270k
»»»  Internal Amp S/N:	iAB2-596/K     
»»»  Execution Count:	1
»»»»»»»»»»»»»»»»»»»»»»»»»»»»»»»»»»»»»»»»»»««««««««««««««««««««««««««««««««««««««««««

Stored:	6/18/2025 - 18:43:21
Configured:	06/18/25 09:47:30 AM
Executed:	06/18/25 06:42:53 PM

»»»»»»»»»»»»»»»»»»»»»»»»»»»»»»»»»»» Sample Info ««««««««««««««««««««««««««««««««««««
Sample Name:	
Lot Name:	
Wafer Name:	
Die Row/Column:	0/0
Capacitor Number:	0
Sample Area (cm2):	1.00e-04
Sample Thickness (microns):	3.00e-01

Amplifier:	Internal

»»»»»»»»»»»»»»»»»»»»»»»»»»»»»»»»»»» Tester Info «««««««««««««««««««««««««««««««««««
Tester Name:	PMF21124-494 (100V)
Tester Serial Number:	PMF21124-494
Return Signal Amp. Level:	0.19 [Index: 3]

»»»»»»»»»»»»»»»»»»»»»»»»»»»»»»»» Hysteresis Info ««««««««««««««««««««««««««««««««««
Task Name:	Hyst-554
Volts:	20.00
Field:	666.67 (kV/cm)
DCBias:	0.00
DCField:	0.00 (kV/cm)
Hysteresis Period (ms):	2.00e+02
Preset:	Enabled
Preset Delay (ms):	1.00e+03
Profile:	Standard Bipolar

»»»»»»»»»»»»»»»»»»»»»»»»»»»»»»»»»»»»»» Data «««««««««««««««««««««««««««««««««««««««
Points:	2009

Valid Data

Point	Time (ms)	Drive Voltage	Measured Polarization (uC/cm2)	Capacitance (uF)	Normalized Capacitance (uF/cm2)	Dielectric Constant	Instantaneous Current (mA)
   1	0.0000e+00	0.0032	-2.406133	0.000061	0.608237	0.206076	0.000024
   2	9.9500e-02	0.0353	-2.381910	0.000061	0.608237	0.206076	0.000024
   3	1.9900e-01	0.0738	-2.325390	0.000142	1.419221	0.480845	0.000057
   4	2.9850e-01	0.1091	-2.163905	0.000405	4.054917	1.373843	0.000162
   5	3.9800e-01	0.1572	-2.042791	0.000304	3.041187	1.030382	0.000122
   6	4.9750e-01	0.1909	-1.966085	0.000193	1.926085	0.652575	0.000077
   7	5.9700e-01	0.2374	-1.869194	0.000243	2.432950	0.824306	0.000097
   8	6.9650e-01	0.2727	-1.740006	0.000324	3.243933	1.099074	0.000130
   9	7.9600e-01	0.3112	-1.675411	0.000162	1.621967	0.549537	0.000065
  10	8.9550e-01	0.3545	-1.594669	0.000203	2.027458	0.686921	0.000081
  11	9.9500e-01	0.3962	-1.501814	0.000233	2.331577	0.789960	0.000093
  12	1.0945e+00	0.4364	-1.449332	0.000132	1.317848	0.446499	0.000053
  13	1.1940e+00	0.4700	-1.372626	0.000193	1.926085	0.652575	0.000077
  14	1.2935e+00	0.5134	-1.235364	0.000345	3.446679	1.167766	0.000138
  15	1.3930e+00	0.5567	-1.174806	0.000152	1.520594	0.515191	0.000061
  16	1.4925e+00	0.5984	-1.077915	0.000243	2.432950	0.824306	0.000097
  17	1.5920e+00	0.6353	-0.993135	0.000213	2.128831	0.721268	0.000085
  18	1.6915e+00	0.6722	-0.872021	0.000304	3.041187	1.030382	0.000122
  19	1.7910e+00	0.7107	-0.754944	0.000294	2.939815	0.996036	0.000118
  20	1.8905e+00	0.7556	-0.698424	0.000142	1.419221	0.480845	0.000057
  21	1.9900e+00	0.7861	-0.565199	0.000335	3.345306	1.133420	0.000134
  22	2.0895e+00	0.8374	-0.460233	0.000264	2.635696	0.892998	0.000105
  23	2.1890e+00	0.8775	-0.347194	0.000284	2.838442	0.961690	0.000114
  24	2.2885e+00	0.9096	-0.254340	0.000233	2.331577	0.789960	0.000093
  25	2.3880e+00	0.9513	-0.169560	0.000213	2.128831	0.721268	0.000085
  26	2.4875e+00	0.9930	-0.008074	0.000405	4.054917	1.373843	0.000162
  27	2.5870e+00	1.0251	0.052483	0.000152	1.520594	0.515191	0.000061
  28	2.6865e+00	1.0780	0.121114	0.000172	1.723340	0.583883	0.000069
  29	2.7860e+00	1.1101	0.189745	0.000172	1.723340	0.583883	0.000069
  30	2.8855e+00	1.1567	0.318934	0.000324	3.243933	1.099074	0.000130
  31	2.9850e+00	1.1984	0.375454	0.000142	1.419221	0.480845	0.000057
  32	3.0845e+00	1.2353	0.524828	0.000375	3.750798	1.270805	0.000150
  33	3.1840e+00	1.2673	0.549050	0.000061	0.608237	0.206076	0.000024
  34	3.2835e+00	1.3123	0.666127	0.000294	2.939815	0.996036	0.000118
  35	3.3830e+00	1.3556	0.750907	0.000213	2.128831	0.721268	0.000085
  36	3.4825e+00	1.3893	0.880096	0.000324	3.243933	1.099074	0.000130
  37	3.5820e+00	1.4214	0.956801	0.000193	1.926085	0.652575	0.000077
  38	3.6815e+00	1.4711	1.025432	0.000172	1.723340	0.583883	0.000069
  39	3.7810e+00	1.5176	1.199029	0.000436	4.359035	1.476881	0.000174
  40	3.8805e+00	1.5529	1.211141	0.000030	0.304119	0.103038	0.000012
  41	3.9800e+00	1.5818	1.348403	0.000345	3.446679	1.167766	0.000138
  42	4.0795e+00	1.6299	1.481629	0.000335	3.345306	1.133420	0.000134
  43	4.1790e+00	1.6652	1.602743	0.000304	3.041187	1.030382	0.000122
  44	4.2785e+00	1.7133	1.663300	0.000152	1.520594	0.515191	0.000061
  45	4.3780e+00	1.7502	1.768265	0.000264	2.635696	0.892998	0.000105
  46	4.4775e+00	1.7999	1.849008	0.000203	2.027458	0.686921	0.000081
  47	4.5770e+00	1.8336	1.945899	0.000243	2.432950	0.824306	0.000097
  48	4.6765e+00	1.8657	2.030679	0.000213	2.128831	0.721268	0.000085
  49	4.7760e+00	1.9251	2.151793	0.000304	3.041187	1.030382	0.000122
  50	4.8755e+00	1.9491	2.216388	0.000162	1.621967	0.549537	0.000065
  51	4.9750e+00	1.9876	2.321353	0.000264	2.635696	0.892998	0.000105
  52	5.0745e+00	2.0278	2.398059	0.000193	1.926085	0.652575	0.000077
  53	5.1740e+00	2.0630	2.503024	0.000264	2.635696	0.892998	0.000105
  54	5.2735e+00	2.1048	2.599915	0.000243	2.432950	0.824306	0.000097
  55	5.3730e+00	2.1545	2.692770	0.000233	2.331577	0.789960	0.000093
  56	5.4725e+00	2.1914	2.850218	0.000395	3.953544	1.339497	0.000158
  57	5.5720e+00	2.2315	2.979406	0.000324	3.243933	1.099074	0.000130
  58	5.6715e+00	2.2684	3.027852	0.000122	1.216475	0.412153	0.000049
  59	5.7710e+00	2.3101	3.144929	0.000294	2.939815	0.996036	0.000118
  60	5.8705e+00	2.3438	3.262006	0.000294	2.939815	0.996036	0.000118
  61	5.9700e+00	2.3935	3.399268	0.000345	3.446679	1.167766	0.000138
  62	6.0695e+00	2.4272	3.512308	0.000284	2.838442	0.961690	0.000114
  63	6.1690e+00	2.4769	3.584977	0.000182	1.824712	0.618229	0.000073
  64	6.2685e+00	2.5090	3.669756	0.000213	2.128831	0.721268	0.000085
  65	6.3680e+00	2.5443	3.766648	0.000243	2.432950	0.824306	0.000097
  66	6.4675e+00	2.5892	3.855465	0.000223	2.230204	0.755614	0.000089
  67	6.5670e+00	2.6261	3.940244	0.000213	2.128831	0.721268	0.000085
  68	6.6665e+00	2.6662	4.065396	0.000314	3.142560	1.064728	0.000126
  69	6.7660e+00	2.7079	4.178435	0.000284	2.838442	0.961690	0.000114
  70	6.8655e+00	2.7448	4.303587	0.000314	3.142560	1.064728	0.000126
  71	6.9650e+00	2.7882	4.384329	0.000203	2.027458	0.686921	0.000081
  72	7.0645e+00	2.8251	4.461035	0.000193	1.926085	0.652575	0.000077
  73	7.1640e+00	2.8603	4.610409	0.000375	3.750798	1.270805	0.000150
  74	7.2635e+00	2.9069	4.691152	0.000203	2.027458	0.686921	0.000081
  75	7.3630e+00	2.9438	4.832451	0.000355	3.548052	1.202113	0.000142
  76	7.4625e+00	2.9839	4.929343	0.000243	2.432950	0.824306	0.000097
  77	7.5620e+00	3.0288	5.042383	0.000284	2.838442	0.961690	0.000114
  78	7.6615e+00	3.0689	5.171571	0.000324	3.243933	1.099074	0.000130
  79	7.7610e+00	3.1090	5.268462	0.000243	2.432950	0.824306	0.000097
  80	7.8605e+00	3.1427	5.421873	0.000385	3.852171	1.305151	0.000154
  81	7.9600e+00	3.1924	5.474356	0.000132	1.317848	0.446499	0.000053
  82	8.0595e+00	3.2309	5.575284	0.000253	2.534323	0.858652	0.000101
  83	8.1590e+00	3.2662	5.643916	0.000172	1.723340	0.583883	0.000069
  84	8.2585e+00	3.3031	5.801364	0.000395	3.953544	1.339497	0.000158
  85	8.3580e+00	3.3480	5.865958	0.000162	1.621967	0.549537	0.000065
  86	8.4575e+00	3.3817	5.970924	0.000264	2.635696	0.892998	0.000105
  87	8.5570e+00	3.4266	6.079926	0.000274	2.737069	0.927344	0.000110
  88	8.6565e+00	3.4571	6.209115	0.000324	3.243933	1.099074	0.000130
  89	8.7560e+00	3.5052	6.338303	0.000324	3.243933	1.099074	0.000130
  90	8.8555e+00	3.5405	6.423083	0.000213	2.128831	0.721268	0.000085
  91	8.9550e+00	3.5758	6.524011	0.000253	2.534323	0.858652	0.000101
  92	9.0545e+00	3.6191	6.645125	0.000304	3.041187	1.030382	0.000122
  93	9.1540e+00	3.6641	6.762202	0.000294	2.939815	0.996036	0.000118
  94	9.2535e+00	3.7122	6.879279	0.000294	2.939815	0.996036	0.000118
  95	9.3530e+00	3.7298	6.988282	0.000274	2.737069	0.927344	0.000110
  96	9.4525e+00	3.7860	7.117470	0.000324	3.243933	1.099074	0.000130
  97	9.5520e+00	3.8245	7.254733	0.000345	3.446679	1.167766	0.000138
  98	9.6515e+00	3.8710	7.339513	0.000213	2.128831	0.721268	0.000085
  99	9.7510e+00	3.9015	7.444478	0.000264	2.635696	0.892998	0.000105
 100	9.8505e+00	3.9448	7.525221	0.000203	2.027458	0.686921	0.000081
 101	9.9500e+00	3.9801	7.646335	0.000304	3.041187	1.030382	0.000122
 102	1.0050e+01	4.0298	7.751301	0.000264	2.635696	0.892998	0.000105
 103	1.0149e+01	4.0651	7.860303	0.000274	2.737069	0.927344	0.000110
 104	1.0248e+01	4.0924	7.981417	0.000304	3.041187	1.030382	0.000122
 105	1.0348e+01	4.1341	8.074271	0.000233	2.331577	0.789960	0.000093
 106	1.0447e+01	4.1806	8.175200	0.000253	2.534323	0.858652	0.000101
 107	1.0547e+01	4.2159	8.280165	0.000264	2.635696	0.892998	0.000105
 108	1.0646e+01	4.2673	8.433577	0.000385	3.852171	1.305151	0.000154
 109	1.0746e+01	4.2977	8.514319	0.000203	2.027458	0.686921	0.000081
 110	1.0845e+01	4.3394	8.675805	0.000405	4.054917	1.373843	0.000162
 111	1.0945e+01	4.3747	8.772696	0.000243	2.432950	0.824306	0.000097
 112	1.1044e+01	4.4197	8.861513	0.000223	2.230204	0.755614	0.000089
 113	1.1144e+01	4.4598	8.978590	0.000294	2.939815	0.996036	0.000118
 114	1.1243e+01	4.4983	9.132001	0.000385	3.852171	1.305151	0.000154
 115	1.1343e+01	4.5368	9.220818	0.000223	2.230204	0.755614	0.000089
 116	1.1443e+01	4.5817	9.354044	0.000335	3.345306	1.133420	0.000134
 117	1.1542e+01	4.6218	9.410563	0.000142	1.419221	0.480845	0.000057
 118	1.1642e+01	4.6523	9.539752	0.000324	3.243933	1.099074	0.000130
 119	1.1741e+01	4.7004	9.685089	0.000365	3.649425	1.236459	0.000146
 120	1.1841e+01	4.7389	9.769868	0.000213	2.128831	0.721268	0.000085
 121	1.1940e+01	4.7790	9.870797	0.000253	2.534323	0.858652	0.000101
 122	1.2040e+01	4.8175	10.004022	0.000335	3.345306	1.133420	0.000134
 123	1.2139e+01	4.8608	10.113025	0.000274	2.737069	0.927344	0.000110
 124	1.2239e+01	4.9009	10.185693	0.000182	1.824712	0.618229	0.000073
 125	1.2338e+01	4.9330	10.347179	0.000405	4.054917	1.373843	0.000162
 126	1.2438e+01	4.9779	10.452144	0.000264	2.635696	0.892998	0.000105
 127	1.2537e+01	5.0196	10.577296	0.000314	3.142560	1.064728	0.000126
 128	1.2636e+01	5.0678	10.670150	0.000233	2.331577	0.789960	0.000093
 129	1.2736e+01	5.0950	10.799338	0.000324	3.243933	1.099074	0.000130
 130	1.2835e+01	5.1351	10.944675	0.000365	3.649425	1.236459	0.000146
 131	1.2935e+01	5.1672	11.049641	0.000264	2.635696	0.892998	0.000105
 132	1.3034e+01	5.2202	11.162680	0.000284	2.838442	0.961690	0.000114
 133	1.3134e+01	5.2635	11.324166	0.000405	4.054917	1.373843	0.000162
 134	1.3233e+01	5.2972	11.449317	0.000314	3.142560	1.064728	0.000126
 135	1.3333e+01	5.3437	11.513911	0.000162	1.621967	0.549537	0.000065
 136	1.3432e+01	5.3694	11.630988	0.000294	2.939815	0.996036	0.000118
 137	1.3532e+01	5.4223	11.719805	0.000223	2.230204	0.755614	0.000089
 138	1.3632e+01	5.4624	11.828808	0.000274	2.737069	0.927344	0.000110
 139	1.3731e+01	5.4961	11.957996	0.000324	3.243933	1.099074	0.000130
 140	1.3831e+01	5.5426	12.054887	0.000243	2.432950	0.824306	0.000097
 141	1.3930e+01	5.5795	12.196187	0.000355	3.548052	1.202113	0.000142
 142	1.4030e+01	5.6068	12.268856	0.000182	1.824712	0.618229	0.000073
 143	1.4129e+01	5.6581	12.394007	0.000314	3.142560	1.064728	0.000126
 144	1.4229e+01	5.6998	12.519158	0.000314	3.142560	1.064728	0.000126
 145	1.4328e+01	5.7383	12.603938	0.000213	2.128831	0.721268	0.000085
 146	1.4428e+01	5.7784	12.753312	0.000375	3.750798	1.270805	0.000150
 147	1.4527e+01	5.8218	12.862314	0.000274	2.737069	0.927344	0.000110
 148	1.4627e+01	5.8587	12.930946	0.000172	1.723340	0.583883	0.000069
 149	1.4726e+01	5.8972	13.039948	0.000274	2.737069	0.927344	0.000110
 150	1.4825e+01	5.9308	13.213545	0.000436	4.359035	1.476881	0.000174
 151	1.4925e+01	5.9694	13.322548	0.000274	2.737069	0.927344	0.000110
 152	1.5024e+01	6.0111	13.451736	0.000324	3.243933	1.099074	0.000130
 153	1.5124e+01	6.0608	13.560739	0.000274	2.737069	0.927344	0.000110
 154	1.5223e+01	6.0897	13.649556	0.000223	2.230204	0.755614	0.000089
 155	1.5323e+01	6.1298	13.766633	0.000294	2.939815	0.996036	0.000118
 156	1.5422e+01	6.1747	13.823153	0.000142	1.419221	0.480845	0.000057
 157	1.5522e+01	6.2132	13.968490	0.000365	3.649425	1.236459	0.000146
 158	1.5621e+01	6.2549	14.073455	0.000264	2.635696	0.892998	0.000105
 159	1.5721e+01	6.3046	14.178421	0.000264	2.635696	0.892998	0.000105
 160	1.5820e+01	6.3335	14.247052	0.000172	1.723340	0.583883	0.000069
 161	1.5920e+01	6.3720	14.368166	0.000304	3.041187	1.030382	0.000122
 162	1.6020e+01	6.4089	14.537726	0.000426	4.257662	1.442535	0.000170
 163	1.6119e+01	6.4458	14.622506	0.000213	2.128831	0.721268	0.000085
 164	1.6218e+01	6.4891	14.796102	0.000436	4.359035	1.476881	0.000174
 165	1.6318e+01	6.5244	14.860697	0.000162	1.621967	0.549537	0.000065
 166	1.6418e+01	6.5629	14.957588	0.000243	2.432950	0.824306	0.000097
 167	1.6517e+01	6.6078	15.054479	0.000243	2.432950	0.824306	0.000097
 168	1.6616e+01	6.6528	15.215965	0.000405	4.054917	1.373843	0.000162
 169	1.6716e+01	6.6800	15.333042	0.000294	2.939815	0.996036	0.000118
 170	1.6816e+01	6.7314	15.442044	0.000274	2.737069	0.927344	0.000110
 171	1.6915e+01	6.7634	15.587381	0.000365	3.649425	1.236459	0.000146
 172	1.7015e+01	6.8068	15.660050	0.000182	1.824712	0.618229	0.000073
 173	1.7114e+01	6.8485	15.744829	0.000213	2.128831	0.721268	0.000085
 174	1.7213e+01	6.8950	15.853832	0.000274	2.737069	0.927344	0.000110
 175	1.7313e+01	6.9239	15.918426	0.000162	1.621967	0.549537	0.000065
 176	1.7413e+01	6.9720	16.071837	0.000385	3.852171	1.305151	0.000154
 177	1.7512e+01	7.0105	16.180840	0.000274	2.737069	0.927344	0.000110
 178	1.7611e+01	7.0394	16.281768	0.000253	2.534323	0.858652	0.000101
 179	1.7711e+01	7.0859	16.378660	0.000243	2.432950	0.824306	0.000097
 180	1.7811e+01	7.1196	16.471514	0.000233	2.331577	0.789960	0.000093
 181	1.7910e+01	7.1677	16.588591	0.000294	2.939815	0.996036	0.000118
 182	1.8009e+01	7.2142	16.697593	0.000274	2.737069	0.927344	0.000110
 183	1.8109e+01	7.2495	16.834856	0.000345	3.446679	1.167766	0.000138
 184	1.8209e+01	7.2832	16.927710	0.000233	2.331577	0.789960	0.000093
 185	1.8308e+01	7.3297	17.105344	0.000446	4.460408	1.511227	0.000179
 186	1.8407e+01	7.3602	17.173975	0.000172	1.723340	0.583883	0.000069
 187	1.8507e+01	7.4100	17.311238	0.000345	3.446679	1.167766	0.000138
 188	1.8607e+01	7.4452	17.412166	0.000253	2.534323	0.858652	0.000101
 189	1.8706e+01	7.4789	17.529243	0.000294	2.939815	0.996036	0.000118
 190	1.8805e+01	7.5255	17.634209	0.000264	2.635696	0.892998	0.000105
 191	1.8905e+01	7.5688	17.751286	0.000294	2.939815	0.996036	0.000118
 192	1.9005e+01	7.6121	17.892586	0.000355	3.548052	1.202113	0.000142
 193	1.9104e+01	7.6410	17.953143	0.000152	1.520594	0.515191	0.000061
 194	1.9203e+01	7.6891	18.054071	0.000253	2.534323	0.858652	0.000101
 195	1.9303e+01	7.7292	18.163074	0.000274	2.737069	0.927344	0.000110
 196	1.9402e+01	7.7741	18.247854	0.000213	2.128831	0.721268	0.000085
 197	1.9502e+01	7.8126	18.401265	0.000385	3.852171	1.305151	0.000154
 198	1.9602e+01	7.8463	18.457785	0.000142	1.419221	0.480845	0.000057
 199	1.9701e+01	7.8832	18.615233	0.000395	3.953544	1.339497	0.000158
 200	1.9800e+01	7.9201	18.687901	0.000182	1.824712	0.618229	0.000073
 201	1.9900e+01	7.9602	18.796904	0.000274	2.737069	0.927344	0.000110
 202	2.0000e+01	8.0051	18.934167	0.000345	3.446679	1.167766	0.000138
 203	2.0099e+01	8.0356	19.031058	0.000243	2.432950	0.824306	0.000097
 204	2.0198e+01	8.0853	19.164283	0.000335	3.345306	1.133420	0.000134
 205	2.0298e+01	8.1238	19.257137	0.000233	2.331577	0.789960	0.000093
 206	2.0398e+01	8.1655	19.402474	0.000365	3.649425	1.236459	0.000146
 207	2.0497e+01	8.2008	19.515514	0.000284	2.838442	0.961690	0.000114
 208	2.0596e+01	8.2393	19.592220	0.000193	1.926085	0.652575	0.000077
 209	2.0696e+01	8.2827	19.733519	0.000355	3.548052	1.202113	0.000142
 210	2.0796e+01	8.3292	19.794077	0.000152	1.520594	0.515191	0.000061
 211	2.0895e+01	8.3597	19.911153	0.000294	2.939815	0.996036	0.000118
 212	2.0994e+01	8.4030	19.971710	0.000152	1.520594	0.515191	0.000061
 213	2.1094e+01	8.4479	20.096862	0.000314	3.142560	1.064728	0.000126
 214	2.1194e+01	8.4800	20.226050	0.000324	3.243933	1.099074	0.000130
 215	2.1293e+01	8.5169	20.314867	0.000223	2.230204	0.755614	0.000089
 216	2.1392e+01	8.5682	20.395610	0.000203	2.027458	0.686921	0.000081
 217	2.1492e+01	8.5923	20.536909	0.000355	3.548052	1.202113	0.000142
 218	2.1591e+01	8.6420	20.629764	0.000233	2.331577	0.789960	0.000093
 219	2.1691e+01	8.6821	20.762989	0.000335	3.345306	1.133420	0.000134
 220	2.1791e+01	8.7270	20.843732	0.000203	2.027458	0.686921	0.000081
 221	2.1890e+01	8.7591	20.985032	0.000355	3.548052	1.202113	0.000142
 222	2.1989e+01	8.7912	21.102109	0.000294	2.939815	0.996036	0.000118
 223	2.2089e+01	8.8441	21.243408	0.000355	3.548052	1.202113	0.000142
 224	2.2189e+01	8.8794	21.392782	0.000375	3.750798	1.270805	0.000150
 225	2.2288e+01	8.9211	21.441228	0.000122	1.216475	0.412153	0.000049
 226	2.2387e+01	8.9580	21.578491	0.000345	3.446679	1.167766	0.000138
 227	2.2487e+01	8.9949	21.723827	0.000365	3.649425	1.236459	0.000146
 228	2.2587e+01	9.0399	21.776310	0.000132	1.317848	0.446499	0.000053
 229	2.2686e+01	9.0880	21.877239	0.000253	2.534323	0.858652	0.000101
 230	2.2785e+01	9.1233	21.986241	0.000274	2.737069	0.927344	0.000110
 231	2.2885e+01	9.1634	22.131578	0.000365	3.649425	1.236459	0.000146
 232	2.2985e+01	9.2019	22.212321	0.000203	2.027458	0.686921	0.000081
 233	2.3084e+01	9.2404	22.301138	0.000223	2.230204	0.755614	0.000089
 234	2.3183e+01	9.2853	22.430326	0.000324	3.243933	1.099074	0.000130
 235	2.3283e+01	9.3270	22.539329	0.000274	2.737069	0.927344	0.000110
 236	2.3383e+01	9.3607	22.652369	0.000284	2.838442	0.961690	0.000114
 237	2.3482e+01	9.4088	22.733111	0.000203	2.027458	0.686921	0.000081
 238	2.3581e+01	9.4377	22.874411	0.000355	3.548052	1.202113	0.000142
 239	2.3681e+01	9.4794	22.979377	0.000264	2.635696	0.892998	0.000105
 240	2.3780e+01	9.5163	23.148936	0.000426	4.257662	1.442535	0.000170
 241	2.3880e+01	9.5596	23.274088	0.000314	3.142560	1.064728	0.000126
 242	2.3980e+01	9.5949	23.419424	0.000365	3.649425	1.236459	0.000146
 243	2.4079e+01	9.6334	23.532464	0.000284	2.838442	0.961690	0.000114
 244	2.4178e+01	9.6767	23.609170	0.000193	1.926085	0.652575	0.000077
 245	2.4278e+01	9.7233	23.762581	0.000385	3.852171	1.305151	0.000154
 246	2.4378e+01	9.7553	23.887732	0.000314	3.142560	1.064728	0.000126
 247	2.4477e+01	9.7970	24.000772	0.000284	2.838442	0.961690	0.000114
 248	2.4576e+01	9.8388	24.049218	0.000122	1.216475	0.412153	0.000049
 249	2.4676e+01	9.8837	24.133997	0.000213	2.128831	0.721268	0.000085
 250	2.4776e+01	9.9190	24.251074	0.000294	2.939815	0.996036	0.000118
 251	2.4875e+01	9.9527	24.303557	0.000132	1.317848	0.446499	0.000053
 252	2.4974e+01	9.9944	24.420634	0.000294	2.939815	0.996036	0.000118
 253	2.5074e+01	10.0329	24.578082	0.000395	3.953544	1.339497	0.000158
 254	2.5174e+01	10.0842	24.699196	0.000304	3.041187	1.030382	0.000122
 255	2.5273e+01	10.1179	24.820311	0.000304	3.041187	1.030382	0.000122
 256	2.5372e+01	10.1516	24.917202	0.000243	2.432950	0.824306	0.000097
 257	2.5472e+01	10.1965	25.030242	0.000284	2.838442	0.961690	0.000114
 258	2.5572e+01	10.2414	25.159430	0.000324	3.243933	1.099074	0.000130
 259	2.5671e+01	10.2703	25.288618	0.000324	3.243933	1.099074	0.000130
 260	2.5770e+01	10.3184	25.470289	0.000456	4.561781	1.545573	0.000183
 261	2.5870e+01	10.3537	25.591403	0.000304	3.041187	1.030382	0.000122
 262	2.5970e+01	10.3922	25.676183	0.000213	2.128831	0.721268	0.000085
 263	2.6069e+01	10.4259	25.821520	0.000365	3.649425	1.236459	0.000146
 264	2.6169e+01	10.4788	25.906300	0.000213	2.128831	0.721268	0.000085
 265	2.6268e+01	10.5174	26.023377	0.000294	2.939815	0.996036	0.000118
 266	2.6367e+01	10.5494	26.108157	0.000213	2.128831	0.721268	0.000085
 267	2.6467e+01	10.5927	26.180825	0.000182	1.824712	0.618229	0.000073
 268	2.6567e+01	10.6361	26.273679	0.000233	2.331577	0.789960	0.000093
 269	2.6666e+01	10.6826	26.423053	0.000375	3.750798	1.270805	0.000150
 270	2.6765e+01	10.7115	26.515908	0.000233	2.331577	0.789960	0.000093
 271	2.6865e+01	10.7500	26.665282	0.000375	3.750798	1.270805	0.000150
 272	2.6965e+01	10.7933	26.786396	0.000304	3.041187	1.030382	0.000122
 273	2.7064e+01	10.8334	26.871175	0.000213	2.128831	0.721268	0.000085
 274	2.7163e+01	10.8735	27.000364	0.000324	3.243933	1.099074	0.000130
 275	2.7263e+01	10.9088	27.101292	0.000253	2.534323	0.858652	0.000101
 276	2.7363e+01	10.9601	27.250666	0.000375	3.750798	1.270805	0.000150
 277	2.7462e+01	10.9858	27.323335	0.000182	1.824712	0.618229	0.000073
 278	2.7561e+01	11.0339	27.529229	0.000517	5.170019	1.751650	0.000207
 279	2.7661e+01	11.0660	27.662454	0.000335	3.345306	1.133420	0.000134
 280	2.7761e+01	11.1093	27.747234	0.000213	2.128831	0.721268	0.000085
 281	2.7860e+01	11.1478	27.896608	0.000375	3.750798	1.270805	0.000150
 282	2.7959e+01	11.1895	28.001573	0.000264	2.635696	0.892998	0.000105
 283	2.8059e+01	11.2296	28.062131	0.000152	1.520594	0.515191	0.000061
 284	2.8159e+01	11.2762	28.183245	0.000304	3.041187	1.030382	0.000122
 285	2.8258e+01	11.3195	28.272062	0.000223	2.230204	0.755614	0.000089
 286	2.8358e+01	11.3483	28.368953	0.000243	2.432950	0.824306	0.000097
 287	2.8457e+01	11.3965	28.534475	0.000416	4.156290	1.408189	0.000166
 288	2.8556e+01	11.4286	28.607144	0.000182	1.824712	0.618229	0.000073
 289	2.8656e+01	11.4687	28.736332	0.000324	3.243933	1.099074	0.000130
 290	2.8756e+01	11.5136	28.853409	0.000294	2.939815	0.996036	0.000118
 291	2.8855e+01	11.5537	28.982597	0.000324	3.243933	1.099074	0.000130
 292	2.8954e+01	11.5842	29.119860	0.000345	3.446679	1.167766	0.000138
 293	2.9054e+01	11.6371	29.232900	0.000284	2.838442	0.961690	0.000114
 294	2.9154e+01	11.6772	29.317680	0.000213	2.128831	0.721268	0.000085
 295	2.9253e+01	11.7109	29.438794	0.000304	3.041187	1.030382	0.000122
 296	2.9352e+01	11.7542	29.608354	0.000426	4.257662	1.442535	0.000170
 297	2.9452e+01	11.7911	29.765802	0.000395	3.953544	1.339497	0.000158
 298	2.9552e+01	11.8312	29.862693	0.000243	2.432950	0.824306	0.000097
 299	2.9651e+01	11.8681	29.975733	0.000284	2.838442	0.961690	0.000114
 300	2.9750e+01	11.9082	30.104921	0.000324	3.243933	1.099074	0.000130
 301	2.9850e+01	11.9563	30.209887	0.000264	2.635696	0.892998	0.000105
 302	2.9950e+01	11.9948	30.318889	0.000274	2.737069	0.927344	0.000110
 303	3.0049e+01	12.0366	30.411744	0.000233	2.331577	0.789960	0.000093
 304	3.0148e+01	12.0783	30.528820	0.000294	2.939815	0.996036	0.000118
 305	3.0248e+01	12.1055	30.621675	0.000233	2.331577	0.789960	0.000093
 306	3.0348e+01	12.1440	30.718566	0.000243	2.432950	0.824306	0.000097
 307	3.0447e+01	12.1761	30.815457	0.000243	2.432950	0.824306	0.000097
 308	3.0547e+01	12.2259	30.940608	0.000314	3.142560	1.064728	0.000126
 309	3.0646e+01	12.2692	31.085945	0.000365	3.649425	1.236459	0.000146
 310	3.0745e+01	12.3109	31.182836	0.000243	2.432950	0.824306	0.000097
 311	3.0845e+01	12.3510	31.295876	0.000284	2.838442	0.961690	0.000114
 312	3.0945e+01	12.3863	31.425065	0.000324	3.243933	1.099074	0.000130
 313	3.1044e+01	12.4344	31.530030	0.000264	2.635696	0.892998	0.000105
 314	3.1143e+01	12.4729	31.630959	0.000253	2.534323	0.858652	0.000101
 315	3.1243e+01	12.5002	31.780333	0.000375	3.750798	1.270805	0.000150
 316	3.1343e+01	12.5547	31.937781	0.000395	3.953544	1.339497	0.000158
 317	3.1442e+01	12.5868	31.998338	0.000152	1.520594	0.515191	0.000061
 318	3.1541e+01	12.6285	32.151749	0.000385	3.852171	1.305151	0.000154
 319	3.1641e+01	12.6702	32.244603	0.000233	2.331577	0.789960	0.000093
 320	3.1741e+01	12.7103	32.365717	0.000304	3.041187	1.030382	0.000122
 321	3.1840e+01	12.7537	32.482794	0.000294	2.939815	0.996036	0.000118
 322	3.1939e+01	12.7938	32.531240	0.000122	1.216475	0.412153	0.000049
 323	3.2039e+01	12.8194	32.704837	0.000436	4.359035	1.476881	0.000174
 324	3.2139e+01	12.8659	32.737134	0.000081	0.810983	0.274769	0.000032
 325	3.2238e+01	12.9044	32.858248	0.000304	3.041187	1.030382	0.000122
 326	3.2337e+01	12.9446	32.987436	0.000324	3.243933	1.099074	0.000130
 327	3.2437e+01	12.9863	33.072216	0.000213	2.128831	0.721268	0.000085
 328	3.2536e+01	13.0183	33.197367	0.000314	3.142560	1.064728	0.000126
 329	3.2636e+01	13.0681	33.282147	0.000213	2.128831	0.721268	0.000085
 330	3.2736e+01	13.1034	33.439595	0.000395	3.953544	1.339497	0.000158
 331	3.2835e+01	13.1355	33.552635	0.000284	2.838442	0.961690	0.000114
 332	3.2934e+01	13.1804	33.637415	0.000213	2.128831	0.721268	0.000085
 333	3.3034e+01	13.2253	33.778715	0.000355	3.548052	1.202113	0.000142
 334	3.3133e+01	13.2670	33.924052	0.000365	3.649425	1.236459	0.000146
 335	3.3233e+01	13.2943	34.041129	0.000294	2.939815	0.996036	0.000118
 336	3.3333e+01	13.3392	34.158205	0.000294	2.939815	0.996036	0.000118
 337	3.3432e+01	13.3889	34.275282	0.000294	2.939815	0.996036	0.000118
 338	3.3532e+01	13.4226	34.392359	0.000294	2.939815	0.996036	0.000118
 339	3.3631e+01	13.4756	34.497325	0.000264	2.635696	0.892998	0.000105
 340	3.3730e+01	13.4932	34.557882	0.000152	1.520594	0.515191	0.000061
 341	3.3830e+01	13.5494	34.654773	0.000243	2.432950	0.824306	0.000097
 342	3.3929e+01	13.5798	34.747627	0.000233	2.331577	0.789960	0.000093
 343	3.4029e+01	13.6247	34.868741	0.000304	3.041187	1.030382	0.000122
 344	3.4129e+01	13.6681	34.949484	0.000203	2.027458	0.686921	0.000081
 345	3.4228e+01	13.6985	35.078672	0.000324	3.243933	1.099074	0.000130
 346	3.4328e+01	13.7403	35.191712	0.000284	2.838442	0.961690	0.000114
 347	3.4427e+01	13.7707	35.300715	0.000274	2.737069	0.927344	0.000110
 348	3.4526e+01	13.8157	35.425866	0.000314	3.142560	1.064728	0.000126
 349	3.4626e+01	13.8558	35.522757	0.000243	2.432950	0.824306	0.000097
 350	3.4725e+01	13.8927	35.660020	0.000345	3.446679	1.167766	0.000138
 351	3.4825e+01	13.9360	35.805357	0.000365	3.649425	1.236459	0.000146
 352	3.4925e+01	13.9761	35.918397	0.000284	2.838442	0.961690	0.000114
 353	3.5024e+01	14.0338	36.031436	0.000284	2.838442	0.961690	0.000114
 354	3.5123e+01	14.0595	36.120253	0.000223	2.230204	0.755614	0.000089
 355	3.5223e+01	14.1012	36.217145	0.000243	2.432950	0.824306	0.000097
 356	3.5322e+01	14.1397	36.354407	0.000345	3.446679	1.167766	0.000138
 357	3.5422e+01	14.1766	36.487633	0.000335	3.345306	1.133420	0.000134
 358	3.5522e+01	14.2167	36.604710	0.000294	2.939815	0.996036	0.000118
 359	3.5621e+01	14.2584	36.649118	0.000112	1.115102	0.377807	0.000045
 360	3.5721e+01	14.2985	36.774269	0.000314	3.142560	1.064728	0.000126
 361	3.5820e+01	14.3418	36.830789	0.000142	1.419221	0.480845	0.000057
 362	3.5919e+01	14.3739	36.964015	0.000335	3.345306	1.133420	0.000134
 363	3.6019e+01	14.4253	37.068980	0.000264	2.635696	0.892998	0.000105
 364	3.6118e+01	14.4622	37.153760	0.000213	2.128831	0.721268	0.000085
 365	3.6218e+01	14.5007	37.282949	0.000324	3.243933	1.099074	0.000130
 366	3.6318e+01	14.5360	37.379840	0.000243	2.432950	0.824306	0.000097
 367	3.6417e+01	14.5809	37.480768	0.000253	2.534323	0.858652	0.000101
 368	3.6517e+01	14.6146	37.565548	0.000213	2.128831	0.721268	0.000085
 369	3.6616e+01	14.6563	37.690699	0.000314	3.142560	1.064728	0.000126
 370	3.6715e+01	14.6884	37.848148	0.000395	3.953544	1.339497	0.000158
 371	3.6815e+01	14.7445	37.973299	0.000314	3.142560	1.064728	0.000126
 372	3.6914e+01	14.7798	38.082301	0.000274	2.737069	0.927344	0.000110
 373	3.7014e+01	14.8183	38.171118	0.000223	2.230204	0.755614	0.000089
 374	3.7114e+01	14.8552	38.288195	0.000294	2.939815	0.996036	0.000118
 375	3.7213e+01	14.8953	38.381049	0.000233	2.331577	0.789960	0.000093
 376	3.7313e+01	14.9402	38.530423	0.000375	3.750798	1.270805	0.000150
 377	3.7412e+01	14.9739	38.611166	0.000203	2.027458	0.686921	0.000081
 378	3.7511e+01	15.0236	38.716132	0.000264	2.635696	0.892998	0.000105
 379	3.7611e+01	15.0493	38.748429	0.000081	0.810983	0.274769	0.000032
 380	3.7711e+01	15.0974	38.881654	0.000335	3.345306	1.133420	0.000134
 381	3.7810e+01	15.1311	38.958360	0.000193	1.926085	0.652575	0.000077
 382	3.7910e+01	15.1664	39.095622	0.000345	3.446679	1.167766	0.000138
 383	3.8009e+01	15.2129	39.168291	0.000182	1.824712	0.618229	0.000073
 384	3.8108e+01	15.2514	39.265182	0.000243	2.432950	0.824306	0.000097
 385	3.8208e+01	15.2851	39.406482	0.000355	3.548052	1.202113	0.000142
 386	3.8307e+01	15.3317	39.491262	0.000213	2.128831	0.721268	0.000085
 387	3.8407e+01	15.3718	39.640636	0.000375	3.750798	1.270805	0.000150
 388	3.8507e+01	15.4167	39.785973	0.000365	3.649425	1.236459	0.000146
 389	3.8606e+01	15.4552	39.874790	0.000223	2.230204	0.755614	0.000089
 390	3.8706e+01	15.4857	40.012052	0.000345	3.446679	1.167766	0.000138
 391	3.8805e+01	15.5402	40.153352	0.000355	3.548052	1.202113	0.000142
 392	3.8904e+01	15.5675	40.242169	0.000223	2.230204	0.755614	0.000089
 393	3.9004e+01	15.6140	40.343097	0.000253	2.534323	0.858652	0.000101
 394	3.9103e+01	15.6477	40.439989	0.000243	2.432950	0.824306	0.000097
 395	3.9203e+01	15.6926	40.557066	0.000294	2.939815	0.996036	0.000118
 396	3.9303e+01	15.7391	40.657994	0.000253	2.534323	0.858652	0.000101
 397	3.9402e+01	15.7760	40.742774	0.000213	2.128831	0.721268	0.000085
 398	3.9502e+01	15.8177	40.827554	0.000213	2.128831	0.721268	0.000085
 399	3.9601e+01	15.8530	40.952705	0.000314	3.142560	1.064728	0.000126
 400	3.9700e+01	15.8883	41.065745	0.000284	2.838442	0.961690	0.000114
 401	3.9800e+01	15.9316	41.150525	0.000213	2.128831	0.721268	0.000085
 402	3.9900e+01	15.9717	41.251453	0.000253	2.534323	0.858652	0.000101
 403	3.9999e+01	16.0086	41.384678	0.000335	3.345306	1.133420	0.000134
 404	4.0099e+01	16.0568	41.501755	0.000294	2.939815	0.996036	0.000118
 405	4.0198e+01	16.0921	41.590572	0.000223	2.230204	0.755614	0.000089
 406	4.0297e+01	16.1257	41.719761	0.000324	3.243933	1.099074	0.000130
 407	4.0397e+01	16.1755	41.897395	0.000446	4.460408	1.511227	0.000179
 408	4.0496e+01	16.2124	41.994286	0.000243	2.432950	0.824306	0.000097
 409	4.0596e+01	16.2557	42.099251	0.000264	2.635696	0.892998	0.000105
 410	4.0696e+01	16.2910	42.192106	0.000233	2.331577	0.789960	0.000093
 411	4.0795e+01	16.3279	42.325331	0.000335	3.345306	1.133420	0.000134
 412	4.0895e+01	16.3664	42.438371	0.000284	2.838442	0.961690	0.000114
 413	4.0994e+01	16.4145	42.543336	0.000264	2.635696	0.892998	0.000105
 414	4.1093e+01	16.4562	42.692710	0.000375	3.750798	1.270805	0.000150
 415	4.1193e+01	16.4883	42.716933	0.000061	0.608237	0.206076	0.000024
 416	4.1292e+01	16.5364	42.862270	0.000365	3.649425	1.236459	0.000146
 417	4.1392e+01	16.5669	42.922827	0.000152	1.520594	0.515191	0.000061
 418	4.1492e+01	16.6102	43.056053	0.000335	3.345306	1.133420	0.000134
 419	4.1591e+01	16.6567	43.112573	0.000142	1.419221	0.480845	0.000057
 420	4.1691e+01	16.6904	43.253872	0.000355	3.548052	1.202113	0.000142
 421	4.1790e+01	16.7305	43.379024	0.000314	3.142560	1.064728	0.000126
 422	4.1889e+01	16.7771	43.475915	0.000243	2.432950	0.824306	0.000097
 423	4.1989e+01	16.8092	43.633363	0.000395	3.953544	1.339497	0.000158
 424	4.2089e+01	16.8573	43.730254	0.000243	2.432950	0.824306	0.000097
 425	4.2188e+01	16.8910	43.859443	0.000324	3.243933	1.099074	0.000130
 426	4.2288e+01	16.9263	44.008817	0.000375	3.750798	1.270805	0.000150
 427	4.2387e+01	16.9728	44.109745	0.000253	2.534323	0.858652	0.000101
 428	4.2486e+01	17.0049	44.222785	0.000284	2.838442	0.961690	0.000114
 429	4.2586e+01	17.0498	44.351973	0.000324	3.243933	1.099074	0.000130
 430	4.2685e+01	17.0979	44.493273	0.000355	3.548052	1.202113	0.000142
 431	4.2785e+01	17.1252	44.569979	0.000193	1.926085	0.652575	0.000077
 432	4.2885e+01	17.1717	44.670907	0.000253	2.534323	0.858652	0.000101
 433	4.2984e+01	17.2038	44.779910	0.000274	2.737069	0.927344	0.000110
 434	4.3084e+01	17.2519	44.860652	0.000203	2.027458	0.686921	0.000081
 435	4.3183e+01	17.2888	44.945432	0.000213	2.128831	0.721268	0.000085
 436	4.3282e+01	17.3273	45.038286	0.000233	2.331577	0.789960	0.000093
 437	4.3382e+01	17.3706	45.191697	0.000385	3.852171	1.305151	0.000154
 438	4.3481e+01	17.4156	45.264366	0.000182	1.824712	0.618229	0.000073
 439	4.3581e+01	17.4428	45.429888	0.000416	4.156290	1.408189	0.000166
 440	4.3681e+01	17.4861	45.490445	0.000152	1.520594	0.515191	0.000061
 441	4.3780e+01	17.5375	45.643857	0.000385	3.852171	1.305151	0.000154
 442	4.3880e+01	17.5647	45.728637	0.000213	2.128831	0.721268	0.000085
 443	4.3979e+01	17.6081	45.906270	0.000446	4.460408	1.511227	0.000179
 444	4.4078e+01	17.6498	46.059682	0.000385	3.852171	1.305151	0.000154
 445	4.4178e+01	17.6786	46.160610	0.000253	2.534323	0.858652	0.000101
 446	4.4278e+01	17.7204	46.281724	0.000304	3.041187	1.030382	0.000122
 447	4.4377e+01	17.7685	46.322095	0.000101	1.013729	0.343461	0.000041
 448	4.4477e+01	17.8150	46.455321	0.000335	3.345306	1.133420	0.000134
 449	4.4576e+01	17.8519	46.588546	0.000335	3.345306	1.133420	0.000134
 450	4.4675e+01	17.8824	46.689475	0.000253	2.534323	0.858652	0.000101
 451	4.4775e+01	17.9289	46.786366	0.000243	2.432950	0.824306	0.000097
 452	4.4874e+01	17.9722	46.907480	0.000304	3.041187	1.030382	0.000122
 453	4.4974e+01	18.0059	47.020520	0.000284	2.838442	0.961690	0.000114
 454	4.5074e+01	18.0444	47.125485	0.000264	2.635696	0.892998	0.000105
 455	4.5173e+01	18.0813	47.194117	0.000172	1.723340	0.583883	0.000069
 456	4.5273e+01	18.1182	47.311194	0.000294	2.939815	0.996036	0.000118
 457	4.5372e+01	18.1744	47.460568	0.000375	3.750798	1.270805	0.000150
 458	4.5471e+01	18.2048	47.557459	0.000243	2.432950	0.824306	0.000097
 459	4.5571e+01	18.2465	47.666462	0.000274	2.737069	0.927344	0.000110
 460	4.5670e+01	18.2834	47.791613	0.000314	3.142560	1.064728	0.000126
 461	4.5770e+01	18.3316	47.916764	0.000314	3.142560	1.064728	0.000126
 462	4.5870e+01	18.3588	48.070175	0.000385	3.852171	1.305151	0.000154
 463	4.5969e+01	18.3989	48.215512	0.000365	3.649425	1.236459	0.000146
 464	4.6069e+01	18.4407	48.340663	0.000314	3.142560	1.064728	0.000126
 465	4.6168e+01	18.4743	48.437555	0.000243	2.432950	0.824306	0.000097
 466	4.6267e+01	18.5257	48.550594	0.000284	2.838442	0.961690	0.000114
 467	4.6367e+01	18.5626	48.679783	0.000324	3.243933	1.099074	0.000130
 468	4.6467e+01	18.6043	48.825120	0.000365	3.649425	1.236459	0.000146
 469	4.6566e+01	18.6444	48.869528	0.000112	1.115102	0.377807	0.000045
 470	4.6666e+01	18.6797	48.994679	0.000314	3.142560	1.064728	0.000126
 471	4.6765e+01	18.7310	49.055236	0.000152	1.520594	0.515191	0.000061
 472	4.6864e+01	18.7631	49.135979	0.000203	2.027458	0.686921	0.000081
 473	4.6964e+01	18.7984	49.281316	0.000365	3.649425	1.236459	0.000146
 474	4.7063e+01	18.8417	49.402430	0.000304	3.041187	1.030382	0.000122
 475	4.7163e+01	18.8818	49.450876	0.000122	1.216475	0.412153	0.000049
 476	4.7263e+01	18.9235	49.604287	0.000385	3.852171	1.305151	0.000154
 477	4.7362e+01	18.9588	49.705215	0.000253	2.534323	0.858652	0.000101
 478	4.7462e+01	19.0102	49.826329	0.000304	3.041187	1.030382	0.000122
 479	4.7561e+01	19.0390	49.975703	0.000375	3.750798	1.270805	0.000150
 480	4.7660e+01	19.0807	50.072595	0.000243	2.432950	0.824306	0.000097
 481	4.7760e+01	19.1160	50.250229	0.000446	4.460408	1.511227	0.000179
 482	4.7859e+01	19.1513	50.326934	0.000193	1.926085	0.652575	0.000077
 483	4.7959e+01	19.2043	50.468234	0.000355	3.548052	1.202113	0.000142
 484	4.8059e+01	19.2476	50.593385	0.000314	3.142560	1.064728	0.000126
 485	4.8158e+01	19.2765	50.657979	0.000162	1.621967	0.549537	0.000065
 486	4.8258e+01	19.3214	50.754870	0.000243	2.432950	0.824306	0.000097
 487	4.8357e+01	19.3503	50.867910	0.000284	2.838442	0.961690	0.000114
 488	4.8456e+01	19.3968	50.952690	0.000213	2.128831	0.721268	0.000085
 489	4.8556e+01	19.4337	51.077841	0.000314	3.142560	1.064728	0.000126
 490	4.8656e+01	19.4770	51.142436	0.000162	1.621967	0.549537	0.000065
 491	4.8755e+01	19.5171	51.255475	0.000284	2.838442	0.961690	0.000114
 492	4.8855e+01	19.5508	51.376589	0.000304	3.041187	1.030382	0.000122
 493	4.8954e+01	19.5973	51.473481	0.000243	2.432950	0.824306	0.000097
 494	4.9053e+01	19.6390	51.594595	0.000304	3.041187	1.030382	0.000122
 495	4.9153e+01	19.6823	51.679375	0.000213	2.128831	0.721268	0.000085
 496	4.9252e+01	19.7224	51.812600	0.000335	3.345306	1.133420	0.000134
 497	4.9352e+01	19.7545	51.909491	0.000243	2.432950	0.824306	0.000097
 498	4.9452e+01	19.7978	52.014457	0.000264	2.635696	0.892998	0.000105
 499	4.9551e+01	19.8347	52.155757	0.000355	3.548052	1.202113	0.000142
 500	4.9651e+01	19.8700	52.276871	0.000304	3.041187	1.030382	0.000122
 501	4.9750e+01	19.9182	52.393948	0.000294	2.939815	0.996036	0.000118
 502	4.9849e+01	19.9518	52.531210	0.000345	3.446679	1.167766	0.000138
 503	4.9949e+01	19.9887	52.632139	0.000253	2.534323	0.858652	0.000101
 504	5.0048e+01	19.9583	52.559470	0.000182	1.824712	0.618229	-0.000073
 505	5.0148e+01	19.9085	52.462579	0.000243	2.432950	0.824306	-0.000097
 506	5.0248e+01	19.8780	52.422208	0.000101	1.013729	0.343461	-0.000041
 507	5.0347e+01	19.8379	52.313205	0.000274	2.737069	0.927344	-0.000110
 508	5.0447e+01	19.8075	52.228425	0.000213	2.128831	0.721268	-0.000085
 509	5.0546e+01	19.7641	52.139608	0.000223	2.230204	0.755614	-0.000089
 510	5.0645e+01	19.7128	52.038680	0.000253	2.534323	0.858652	-0.000101
 511	5.0745e+01	19.6759	51.945826	0.000233	2.331577	0.789960	-0.000093
 512	5.0844e+01	19.6278	51.857009	0.000223	2.230204	0.755614	-0.000089
 513	5.0944e+01	19.5989	51.808563	0.000122	1.216475	0.412153	-0.000049
 514	5.1044e+01	19.5540	51.711672	0.000243	2.432950	0.824306	-0.000097
 515	5.1143e+01	19.5155	51.634966	0.000193	1.926085	0.652575	-0.000077
 516	5.1242e+01	19.4722	51.562298	0.000182	1.824712	0.618229	-0.000073
 517	5.1342e+01	19.4385	51.501741	0.000152	1.520594	0.515191	-0.000061
 518	5.1441e+01	19.3952	51.453295	0.000122	1.216475	0.412153	-0.000049
 519	5.1541e+01	19.3535	51.384664	0.000172	1.723340	0.583883	-0.000069
 520	5.1641e+01	19.3069	51.295847	0.000223	2.230204	0.755614	-0.000089
 521	5.1740e+01	19.2733	51.215104	0.000203	2.027458	0.686921	-0.000081
 522	5.1840e+01	19.2444	51.138398	0.000193	1.926085	0.652575	-0.000077
 523	5.1939e+01	19.2011	51.037470	0.000253	2.534323	0.858652	-0.000101
 524	5.2038e+01	19.1642	50.928467	0.000274	2.737069	0.927344	-0.000110
 525	5.2138e+01	19.1160	50.843687	0.000213	2.128831	0.721268	-0.000085
 526	5.2237e+01	19.0840	50.762945	0.000203	2.027458	0.686921	-0.000081
 527	5.2337e+01	19.0406	50.698351	0.000162	1.621967	0.549537	-0.000065
 528	5.2437e+01	18.9973	50.577237	0.000304	3.041187	1.030382	-0.000122
 529	5.2536e+01	18.9572	50.448048	0.000324	3.243933	1.099074	-0.000130
 530	5.2636e+01	18.9251	50.363268	0.000213	2.128831	0.721268	-0.000085
 531	5.2735e+01	18.8770	50.282526	0.000203	2.027458	0.686921	-0.000081
 532	5.2834e+01	18.8481	50.201783	0.000203	2.027458	0.686921	-0.000081
 533	5.2934e+01	18.7968	50.096817	0.000264	2.635696	0.892998	-0.000105
 534	5.3033e+01	18.7647	49.987815	0.000274	2.737069	0.927344	-0.000110
 535	5.3133e+01	18.7278	49.967629	0.000051	0.506865	0.171730	-0.000020
 536	5.3233e+01	18.6781	49.846515	0.000304	3.041187	1.030382	-0.000122
 537	5.3332e+01	18.6412	49.789995	0.000142	1.419221	0.480845	-0.000057
 538	5.3431e+01	18.5995	49.705215	0.000213	2.128831	0.721268	-0.000085
 539	5.3531e+01	18.5642	49.604287	0.000253	2.534323	0.858652	-0.000101
 540	5.3630e+01	18.5209	49.507396	0.000243	2.432950	0.824306	-0.000097
 541	5.3730e+01	18.4776	49.402430	0.000264	2.635696	0.892998	-0.000105
 542	5.3830e+01	18.4503	49.317650	0.000213	2.128831	0.721268	-0.000085
 543	5.3929e+01	18.4070	49.249019	0.000172	1.723340	0.583883	-0.000069
 544	5.4029e+01	18.3653	49.115793	0.000335	3.345306	1.133420	-0.000134
 545	5.4128e+01	18.3300	49.043125	0.000182	1.824712	0.618229	-0.000073
 546	5.4227e+01	18.2931	48.930085	0.000284	2.838442	0.961690	-0.000114
 547	5.4327e+01	18.2449	48.792823	0.000345	3.446679	1.167766	-0.000138
 548	5.4426e+01	18.2064	48.687857	0.000264	2.635696	0.892998	-0.000105
 549	5.4526e+01	18.1631	48.586929	0.000253	2.534323	0.858652	-0.000101
 550	5.4626e+01	18.1278	48.510223	0.000193	1.926085	0.652575	-0.000077
 551	5.4725e+01	18.0861	48.393146	0.000294	2.939815	0.996036	-0.000118
 552	5.4825e+01	18.0380	48.296255	0.000243	2.432950	0.824306	-0.000097
 553	5.4924e+01	17.9963	48.219549	0.000193	1.926085	0.652575	-0.000077
 554	5.5023e+01	17.9738	48.150918	0.000172	1.723340	0.583883	-0.000069
 555	5.5123e+01	17.9241	48.082287	0.000172	1.723340	0.583883	-0.000069
 556	5.5222e+01	17.8760	47.989433	0.000233	2.331577	0.789960	-0.000093
 557	5.5322e+01	17.8375	47.920801	0.000172	1.723340	0.583883	-0.000069
 558	5.5422e+01	17.8038	47.791613	0.000324	3.243933	1.099074	-0.000130
 559	5.5521e+01	17.7637	47.747204	0.000112	1.115102	0.377807	-0.000045
 560	5.5620e+01	17.7236	47.622053	0.000314	3.142560	1.064728	-0.000126
 561	5.5720e+01	17.6931	47.533236	0.000223	2.230204	0.755614	-0.000089
 562	5.5819e+01	17.6466	47.472679	0.000152	1.520594	0.515191	-0.000061
 563	5.5919e+01	17.6081	47.339454	0.000335	3.345306	1.133420	-0.000134
 564	5.6019e+01	17.5615	47.246600	0.000233	2.331577	0.789960	-0.000093
 565	5.6118e+01	17.5439	47.133560	0.000284	2.838442	0.961690	-0.000114
 566	5.6218e+01	17.4797	47.012446	0.000304	3.041187	1.030382	-0.000122
 567	5.6317e+01	17.4396	46.911517	0.000253	2.534323	0.858652	-0.000101
 568	5.6416e+01	17.4075	46.786366	0.000314	3.142560	1.064728	-0.000126
 569	5.6516e+01	17.3626	46.701586	0.000213	2.128831	0.721268	-0.000085
 570	5.6615e+01	17.3193	46.632955	0.000172	1.723340	0.583883	-0.000069
 571	5.6715e+01	17.2936	46.552212	0.000203	2.027458	0.686921	-0.000081
 572	5.6815e+01	17.2439	46.475507	0.000193	1.926085	0.652575	-0.000077
 573	5.6914e+01	17.2102	46.386690	0.000223	2.230204	0.755614	-0.000089
 574	5.7014e+01	17.1669	46.326133	0.000152	1.520594	0.515191	-0.000061
 575	5.7113e+01	17.1156	46.245390	0.000203	2.027458	0.686921	-0.000081
 576	5.7212e+01	17.0835	46.120239	0.000314	3.142560	1.064728	-0.000126
 577	5.7312e+01	17.0498	46.059682	0.000152	1.520594	0.515191	-0.000061
 578	5.7411e+01	17.0113	45.970865	0.000223	2.230204	0.755614	-0.000089
 579	5.7511e+01	16.9648	45.878011	0.000233	2.331577	0.789960	-0.000093
 580	5.7611e+01	16.9263	45.797268	0.000203	2.027458	0.686921	-0.000081
 581	5.7710e+01	16.8894	45.688265	0.000274	2.737069	0.927344	-0.000110
 582	5.7809e+01	16.8509	45.559077	0.000324	3.243933	1.099074	-0.000130
 583	5.7909e+01	16.8075	45.450074	0.000274	2.737069	0.927344	-0.000110
 584	5.8008e+01	16.7690	45.316849	0.000335	3.345306	1.133420	-0.000134
 585	5.8108e+01	16.7273	45.203809	0.000284	2.838442	0.961690	-0.000114
 586	5.8208e+01	16.6953	45.123066	0.000203	2.027458	0.686921	-0.000081
 587	5.8307e+01	16.6567	44.989841	0.000335	3.345306	1.133420	-0.000134
 588	5.8407e+01	16.6086	44.937358	0.000132	1.317848	0.446499	-0.000053
 589	5.8506e+01	16.5685	44.852578	0.000213	2.128831	0.721268	-0.000085
 590	5.8605e+01	16.5236	44.771835	0.000203	2.027458	0.686921	-0.000081
 591	5.8705e+01	16.4899	44.703204	0.000172	1.723340	0.583883	-0.000069
 592	5.8804e+01	16.4450	44.618424	0.000213	2.128831	0.721268	-0.000085
 593	5.8904e+01	16.4129	44.545756	0.000182	1.824712	0.618229	-0.000073
 594	5.9004e+01	16.3568	44.424642	0.000304	3.041187	1.030382	-0.000122
 595	5.9103e+01	16.3279	44.311602	0.000284	2.838442	0.961690	-0.000114
 596	5.9203e+01	16.3006	44.247008	0.000162	1.621967	0.549537	-0.000065
 597	5.9302e+01	16.2477	44.150116	0.000243	2.432950	0.824306	-0.000097
 598	5.9401e+01	16.2028	44.041114	0.000274	2.737069	0.927344	-0.000110
 599	5.9501e+01	16.1755	43.956334	0.000213	2.128831	0.721268	-0.000085
 600	5.9600e+01	16.1241	43.871554	0.000213	2.128831	0.721268	-0.000085
 601	5.9700e+01	16.0856	43.754477	0.000294	2.939815	0.996036	-0.000118
 602	5.9800e+01	16.0536	43.669697	0.000213	2.128831	0.721268	-0.000085
 603	5.9899e+01	16.0118	43.524360	0.000365	3.649425	1.236459	-0.000146
 604	5.9998e+01	15.9717	43.395172	0.000324	3.243933	1.099074	-0.000130
 605	6.0098e+01	15.9332	43.314429	0.000203	2.027458	0.686921	-0.000081
 606	6.0197e+01	15.8915	43.249835	0.000162	1.621967	0.549537	-0.000065
 607	6.0297e+01	15.8514	43.156981	0.000233	2.331577	0.789960	-0.000093
 608	6.0397e+01	15.8129	43.148907	0.000020	0.202746	0.068692	-0.000008
 609	6.0496e+01	15.7776	42.999533	0.000375	3.750798	1.270805	-0.000150
 610	6.0596e+01	15.7343	42.914753	0.000213	2.128831	0.721268	-0.000085
 611	6.0695e+01	15.6974	42.809787	0.000264	2.635696	0.892998	-0.000105
 612	6.0794e+01	15.6493	42.737119	0.000182	1.824712	0.618229	-0.000073
 613	6.0894e+01	15.6140	42.656376	0.000203	2.027458	0.686921	-0.000081
 614	6.0993e+01	15.5723	42.515076	0.000355	3.548052	1.202113	-0.000142
 615	6.1093e+01	15.5242	42.450482	0.000162	1.621967	0.549537	-0.000065
 616	6.1193e+01	15.4937	42.333405	0.000294	2.939815	0.996036	-0.000118
 617	6.1292e+01	15.4536	42.244588	0.000223	2.230204	0.755614	-0.000089
 618	6.1392e+01	15.4151	42.159809	0.000213	2.128831	0.721268	-0.000085
 619	6.1491e+01	15.3686	42.075029	0.000213	2.128831	0.721268	-0.000085
 620	6.1590e+01	15.3397	41.978137	0.000243	2.432950	0.824306	-0.000097
 621	6.1690e+01	15.3012	41.877209	0.000253	2.534323	0.858652	-0.000101
 622	6.1789e+01	15.2498	41.739946	0.000345	3.446679	1.167766	-0.000138
 623	6.1889e+01	15.2081	41.634981	0.000264	2.635696	0.892998	-0.000105
 624	6.1989e+01	15.1728	41.558275	0.000193	1.926085	0.652575	-0.000077
 625	6.2088e+01	15.1359	41.453310	0.000264	2.635696	0.892998	-0.000105
 626	6.2188e+01	15.0958	41.372567	0.000203	2.027458	0.686921	-0.000081
 627	6.2287e+01	15.0541	41.299899	0.000182	1.824712	0.618229	-0.000073
 628	6.2386e+01	15.0092	41.231267	0.000172	1.723340	0.583883	-0.000069
 629	6.2486e+01	14.9739	41.110153	0.000304	3.041187	1.030382	-0.000122
 630	6.2586e+01	14.9338	41.065745	0.000112	1.115102	0.377807	-0.000045
 631	6.2685e+01	14.8969	40.960779	0.000264	2.635696	0.892998	-0.000105
 632	6.2785e+01	14.8488	40.863888	0.000243	2.432950	0.824306	-0.000097
 633	6.2884e+01	14.8183	40.746811	0.000294	2.939815	0.996036	-0.000118
 634	6.2983e+01	14.7782	40.653957	0.000233	2.331577	0.789960	-0.000093
 635	6.3083e+01	14.7429	40.585326	0.000172	1.723340	0.583883	-0.000069
 636	6.3182e+01	14.6948	40.500546	0.000213	2.128831	0.721268	-0.000085
 637	6.3282e+01	14.6482	40.415766	0.000213	2.128831	0.721268	-0.000085
 638	6.3382e+01	14.6114	40.302726	0.000284	2.838442	0.961690	-0.000114
 639	6.3481e+01	14.5793	40.209872	0.000233	2.331577	0.789960	-0.000093
 640	6.3581e+01	14.5376	40.092795	0.000294	2.939815	0.996036	-0.000118
 641	6.3680e+01	14.5007	39.951495	0.000355	3.548052	1.202113	-0.000142
 642	6.3779e+01	14.4557	39.830381	0.000304	3.041187	1.030382	-0.000122
 643	6.3879e+01	14.4124	39.725416	0.000264	2.635696	0.892998	-0.000105
 644	6.3978e+01	14.3707	39.652747	0.000182	1.824712	0.618229	-0.000073
 645	6.4078e+01	14.3322	39.567967	0.000213	2.128831	0.721268	-0.000085
 646	6.4177e+01	14.2985	39.519522	0.000122	1.216475	0.412153	-0.000049
 647	6.4277e+01	14.2680	39.386296	0.000335	3.345306	1.133420	-0.000134
 648	6.4376e+01	14.2151	39.261145	0.000314	3.142560	1.064728	-0.000126
 649	6.4476e+01	14.1798	39.224811	0.000091	0.912356	0.309115	-0.000037
 650	6.4576e+01	14.1413	39.115808	0.000274	2.737069	0.927344	-0.000110
 651	6.4675e+01	14.0964	39.039103	0.000193	1.926085	0.652575	-0.000077
 652	6.4775e+01	14.0563	38.885691	0.000385	3.852171	1.305151	-0.000154
 653	6.4874e+01	14.0162	38.792837	0.000233	2.331577	0.789960	-0.000093
 654	6.4974e+01	13.9809	38.699983	0.000233	2.331577	0.789960	-0.000093
 655	6.5073e+01	13.9408	38.623278	0.000193	1.926085	0.652575	-0.000077
 656	6.5172e+01	13.9007	38.510238	0.000284	2.838442	0.961690	-0.000114
 657	6.5272e+01	13.8686	38.385087	0.000314	3.142560	1.064728	-0.000126
 658	6.5371e+01	13.8253	38.288195	0.000243	2.432950	0.824306	-0.000097
 659	6.5471e+01	13.7836	38.183230	0.000264	2.635696	0.892998	-0.000105
 660	6.5570e+01	13.7322	38.054041	0.000324	3.243933	1.099074	-0.000130
 661	6.5670e+01	13.6953	37.924853	0.000324	3.243933	1.099074	-0.000130
 662	6.5769e+01	13.6616	37.868333	0.000142	1.419221	0.480845	-0.000057
 663	6.5869e+01	13.6215	37.747219	0.000304	3.041187	1.030382	-0.000122
 664	6.5969e+01	13.5798	37.666476	0.000203	2.027458	0.686921	-0.000081
 665	6.6068e+01	13.5397	37.597845	0.000172	1.723340	0.583883	-0.000069
 666	6.6168e+01	13.4948	37.509028	0.000223	2.230204	0.755614	-0.000089
 667	6.6267e+01	13.4595	37.387914	0.000304	3.041187	1.030382	-0.000122
 668	6.6367e+01	13.4130	37.282949	0.000264	2.635696	0.892998	-0.000105
 669	6.6466e+01	13.3921	37.222392	0.000152	1.520594	0.515191	-0.000061
 670	6.6566e+01	13.3392	37.093203	0.000324	3.243933	1.099074	-0.000130
 671	6.6665e+01	13.3023	36.959978	0.000335	3.345306	1.133420	-0.000134
 672	6.6764e+01	13.2542	36.887309	0.000182	1.824712	0.618229	-0.000073
 673	6.6864e+01	13.2189	36.786381	0.000253	2.534323	0.858652	-0.000101
 674	6.6963e+01	13.1868	36.685452	0.000253	2.534323	0.858652	-0.000101
 675	6.7063e+01	13.1355	36.584524	0.000253	2.534323	0.858652	-0.000101
 676	6.7162e+01	13.1066	36.447261	0.000345	3.446679	1.167766	-0.000138
 677	6.7262e+01	13.0665	36.314036	0.000335	3.345306	1.133420	-0.000134
 678	6.7362e+01	13.0200	36.221182	0.000233	2.331577	0.789960	-0.000093
 679	6.7461e+01	12.9863	36.091993	0.000324	3.243933	1.099074	-0.000130
 680	6.7561e+01	12.9413	35.999139	0.000233	2.331577	0.789960	-0.000093
 681	6.7660e+01	12.9077	35.930508	0.000172	1.723340	0.583883	-0.000069
 682	6.7760e+01	12.8643	35.817468	0.000284	2.838442	0.961690	-0.000114
 683	6.7859e+01	12.8339	35.716540	0.000253	2.534323	0.858652	-0.000101
 684	6.7959e+01	12.7873	35.672131	0.000112	1.115102	0.377807	-0.000045
 685	6.8058e+01	12.7376	35.538906	0.000335	3.345306	1.133420	-0.000134
 686	6.8157e+01	12.7087	35.446052	0.000233	2.331577	0.789960	-0.000093
 687	6.8257e+01	12.6670	35.341086	0.000264	2.635696	0.892998	-0.000105
 688	6.8356e+01	12.6285	35.199786	0.000355	3.548052	1.202113	-0.000142
 689	6.8456e+01	12.5900	35.106932	0.000233	2.331577	0.789960	-0.000093
 690	6.8555e+01	12.5627	35.026190	0.000203	2.027458	0.686921	-0.000081
 691	6.8655e+01	12.4970	34.937373	0.000223	2.230204	0.755614	-0.000089
 692	6.8754e+01	12.4665	34.779924	0.000395	3.953544	1.339497	-0.000158
 693	6.8854e+01	12.4296	34.715330	0.000162	1.621967	0.549537	-0.000065
 694	6.8954e+01	12.3863	34.610365	0.000264	2.635696	0.892998	-0.000105
 695	6.9053e+01	12.3446	34.509436	0.000253	2.534323	0.858652	-0.000101
 696	6.9153e+01	12.3141	34.368137	0.000355	3.548052	1.202113	-0.000142
 697	6.9252e+01	12.2724	34.247022	0.000304	3.041187	1.030382	-0.000122
 698	6.9352e+01	12.2355	34.138020	0.000274	2.737069	0.927344	-0.000110
 699	6.9451e+01	12.1938	34.024980	0.000284	2.838442	0.961690	-0.000114
 700	6.9550e+01	12.1456	33.936163	0.000223	2.230204	0.755614	-0.000089
 701	6.9650e+01	12.1104	33.827160	0.000274	2.737069	0.927344	-0.000110
 702	6.9749e+01	12.0702	33.746418	0.000203	2.027458	0.686921	-0.000081
 703	6.9849e+01	12.0237	33.653564	0.000233	2.331577	0.789960	-0.000093
 704	6.9948e+01	11.9852	33.532449	0.000304	3.041187	1.030382	-0.000122
 705	7.0048e+01	11.9451	33.431521	0.000253	2.534323	0.858652	-0.000101
 706	7.0147e+01	11.9146	33.338667	0.000233	2.331577	0.789960	-0.000093
 707	7.0247e+01	11.8761	33.205441	0.000335	3.345306	1.133420	-0.000134
 708	7.0347e+01	11.8328	33.104513	0.000253	2.534323	0.858652	-0.000101
 709	7.0446e+01	11.7927	32.979362	0.000314	3.142560	1.064728	-0.000126
 710	7.0546e+01	11.7558	32.866322	0.000284	2.838442	0.961690	-0.000114
 711	7.0645e+01	11.7061	32.793654	0.000182	1.824712	0.618229	-0.000073
 712	7.0745e+01	11.6788	32.648317	0.000365	3.649425	1.236459	-0.000146
 713	7.0844e+01	11.6339	32.555463	0.000233	2.331577	0.789960	-0.000093
 714	7.0944e+01	11.5874	32.458571	0.000243	2.432950	0.824306	-0.000097
 715	7.1043e+01	11.5537	32.337457	0.000304	3.041187	1.030382	-0.000122
 716	7.1142e+01	11.5152	32.220380	0.000294	2.939815	0.996036	-0.000118
 717	7.1242e+01	11.4783	32.062932	0.000395	3.953544	1.339497	-0.000158
 718	7.1341e+01	11.4382	32.010449	0.000132	1.317848	0.446499	-0.000053
 719	7.1441e+01	11.3933	31.877224	0.000335	3.345306	1.133420	-0.000134
 720	7.1540e+01	11.3548	31.772258	0.000264	2.635696	0.892998	-0.000105
 721	7.1640e+01	11.3147	31.679404	0.000233	2.331577	0.789960	-0.000093
 722	7.1740e+01	11.2729	31.554253	0.000314	3.142560	1.064728	-0.000126
 723	7.1839e+01	11.2312	31.461399	0.000233	2.331577	0.789960	-0.000093
 724	7.1939e+01	11.1911	31.328173	0.000335	3.345306	1.133420	-0.000134
 725	7.2038e+01	11.1574	31.251468	0.000193	1.926085	0.652575	-0.000077
 726	7.2138e+01	11.1125	31.154576	0.000243	2.432950	0.824306	-0.000097
 727	7.2237e+01	11.0724	31.049611	0.000264	2.635696	0.892998	-0.000105
 728	7.2337e+01	11.0339	30.924460	0.000314	3.142560	1.064728	-0.000126
 729	7.2436e+01	10.9922	30.835643	0.000223	2.230204	0.755614	-0.000089
 730	7.2535e+01	10.9585	30.730677	0.000264	2.635696	0.892998	-0.000105
 731	7.2635e+01	10.9152	30.625712	0.000264	2.635696	0.892998	-0.000105
 732	7.2734e+01	10.8639	30.520746	0.000264	2.635696	0.892998	-0.000105
 733	7.2834e+01	10.8302	30.427892	0.000233	2.331577	0.789960	-0.000093
 734	7.2933e+01	10.7933	30.294667	0.000335	3.345306	1.133420	-0.000134
 735	7.3033e+01	10.7612	30.213924	0.000203	2.027458	0.686921	-0.000081
 736	7.3132e+01	10.7131	30.072624	0.000355	3.548052	1.202113	-0.000142
 737	7.3232e+01	10.6698	30.044364	0.000071	0.709610	0.240423	-0.000028
 738	7.3332e+01	10.6393	29.886916	0.000395	3.953544	1.339497	-0.000158
 739	7.3431e+01	10.5944	29.794062	0.000233	2.331577	0.789960	-0.000093
 740	7.3531e+01	10.5526	29.685059	0.000274	2.737069	0.927344	-0.000110
 741	7.3630e+01	10.5206	29.555871	0.000324	3.243933	1.099074	-0.000130
 742	7.3730e+01	10.4837	29.438794	0.000294	2.939815	0.996036	-0.000118
 743	7.3829e+01	10.4323	29.378237	0.000152	1.520594	0.515191	-0.000061
 744	7.3928e+01	10.3986	29.220788	0.000395	3.953544	1.339497	-0.000158
 745	7.4028e+01	10.3521	29.156194	0.000162	1.621967	0.549537	-0.000065
 746	7.4127e+01	10.3088	29.043154	0.000284	2.838442	0.961690	-0.000114
 747	7.4227e+01	10.2751	28.926078	0.000294	2.939815	0.996036	-0.000118
 748	7.4326e+01	10.2414	28.829186	0.000243	2.432950	0.824306	-0.000097
 749	7.4426e+01	10.1949	28.728258	0.000253	2.534323	0.858652	-0.000101
 750	7.4525e+01	10.1532	28.619255	0.000274	2.737069	0.927344	-0.000110
 751	7.4625e+01	10.1147	28.506215	0.000284	2.838442	0.961690	-0.000114
 752	7.4725e+01	10.0778	28.449696	0.000142	1.419221	0.480845	-0.000057
 753	7.4824e+01	10.0329	28.312433	0.000345	3.446679	1.167766	-0.000138
 754	7.4924e+01	9.9896	28.207467	0.000264	2.635696	0.892998	-0.000105
 755	7.5023e+01	9.9591	28.142873	0.000162	1.621967	0.549537	-0.000065
 756	7.5123e+01	9.9190	27.973314	0.000426	4.257662	1.442535	-0.000170
 757	7.5222e+01	9.8708	27.888534	0.000213	2.128831	0.721268	-0.000085
 758	7.5322e+01	9.8436	27.795680	0.000233	2.331577	0.789960	-0.000093
 759	7.5421e+01	9.8019	27.674565	0.000304	3.041187	1.030382	-0.000122
 760	7.5520e+01	9.7585	27.553451	0.000304	3.041187	1.030382	-0.000122
 761	7.5620e+01	9.7200	27.488857	0.000162	1.621967	0.549537	-0.000065
 762	7.5719e+01	9.6783	27.331409	0.000395	3.953544	1.339497	-0.000158
 763	7.5819e+01	9.6302	27.254703	0.000193	1.926085	0.652575	-0.000077
 764	7.5918e+01	9.6029	27.149738	0.000264	2.635696	0.892998	-0.000105
 765	7.6018e+01	9.5628	27.044772	0.000264	2.635696	0.892998	-0.000105
 766	7.6118e+01	9.5195	26.931733	0.000284	2.838442	0.961690	-0.000114
 767	7.6217e+01	9.4778	26.786396	0.000365	3.649425	1.236459	-0.000146
 768	7.6317e+01	9.4313	26.725839	0.000152	1.520594	0.515191	-0.000061
 769	7.6416e+01	9.3992	26.596650	0.000324	3.243933	1.099074	-0.000130
 770	7.6516e+01	9.3479	26.528019	0.000172	1.723340	0.583883	-0.000069
 771	7.6615e+01	9.3110	26.427091	0.000253	2.534323	0.858652	-0.000101
 772	7.6715e+01	9.2853	26.390756	0.000091	0.912356	0.309115	-0.000037
 773	7.6814e+01	9.2404	26.237345	0.000385	3.852171	1.305151	-0.000154
 774	7.6913e+01	9.1971	26.140454	0.000243	2.432950	0.824306	-0.000097
 775	7.7013e+01	9.1602	26.023377	0.000294	2.939815	0.996036	-0.000118
 776	7.7112e+01	9.1169	25.910337	0.000284	2.838442	0.961690	-0.000114
 777	7.7212e+01	9.0816	25.760963	0.000375	3.750798	1.270805	-0.000150
 778	7.7311e+01	9.0350	25.680220	0.000203	2.027458	0.686921	-0.000081
 779	7.7411e+01	9.0046	25.563143	0.000294	2.939815	0.996036	-0.000118
 780	7.7510e+01	8.9532	25.470289	0.000233	2.331577	0.789960	-0.000093
 781	7.7610e+01	8.9276	25.369361	0.000253	2.534323	0.858652	-0.000101
 782	7.7710e+01	8.8858	25.228061	0.000355	3.548052	1.202113	-0.000142
 783	7.7809e+01	8.8457	25.131170	0.000243	2.432950	0.824306	-0.000097
 784	7.7909e+01	8.8008	25.050427	0.000203	2.027458	0.686921	-0.000081
 785	7.8008e+01	8.7687	24.953536	0.000243	2.432950	0.824306	-0.000097
 786	7.8108e+01	8.7126	24.836459	0.000294	2.939815	0.996036	-0.000118
 787	7.8207e+01	8.6789	24.711308	0.000314	3.142560	1.064728	-0.000126
 788	7.8306e+01	8.6436	24.670936	0.000101	1.013729	0.343461	-0.000041
 789	7.8406e+01	8.6019	24.574045	0.000243	2.432950	0.824306	-0.000097
 790	7.8505e+01	8.5618	24.473117	0.000253	2.534323	0.858652	-0.000101
 791	7.8605e+01	8.5265	24.388337	0.000213	2.128831	0.721268	-0.000085
 792	7.8704e+01	8.4720	24.275297	0.000284	2.838442	0.961690	-0.000114
 793	7.8804e+01	8.4479	24.113812	0.000405	4.054917	1.373843	-0.000162
 794	7.8903e+01	8.3982	24.024995	0.000223	2.230204	0.755614	-0.000089
 795	7.9003e+01	8.3661	23.915992	0.000274	2.737069	0.927344	-0.000110
 796	7.9103e+01	8.3308	23.815064	0.000253	2.534323	0.858652	-0.000101
 797	7.9202e+01	8.2810	23.681838	0.000335	3.345306	1.133420	-0.000134
 798	7.9302e+01	8.2425	23.564761	0.000294	2.939815	0.996036	-0.000118
 799	7.9401e+01	8.2137	23.488056	0.000193	1.926085	0.652575	-0.000077
 800	7.9501e+01	8.1688	23.383090	0.000264	2.635696	0.892998	-0.000105
 801	7.9600e+01	8.1254	23.294273	0.000223	2.230204	0.755614	-0.000089
 802	7.9700e+01	8.0805	23.181233	0.000284	2.838442	0.961690	-0.000114
 803	7.9799e+01	8.0500	23.088379	0.000233	2.331577	0.789960	-0.000093
 804	7.9898e+01	8.0067	22.999562	0.000223	2.230204	0.755614	-0.000089
 805	7.9998e+01	7.9698	22.902671	0.000243	2.432950	0.824306	-0.000097
 806	8.0097e+01	7.9201	22.781557	0.000304	3.041187	1.030382	-0.000122
 807	8.0197e+01	7.8816	22.684666	0.000243	2.432950	0.824306	-0.000097
 808	8.0296e+01	7.8495	22.603923	0.000203	2.027458	0.686921	-0.000081
 809	8.0396e+01	7.8046	22.490883	0.000284	2.838442	0.961690	-0.000114
 810	8.0496e+01	7.7661	22.426289	0.000162	1.621967	0.549537	-0.000065
 811	8.0595e+01	7.7164	22.264804	0.000405	4.054917	1.373843	-0.000162
 812	8.0695e+01	7.6939	22.180024	0.000213	2.128831	0.721268	-0.000085
 813	8.0794e+01	7.6458	22.042761	0.000345	3.446679	1.167766	-0.000138
 814	8.0894e+01	7.6073	21.913573	0.000324	3.243933	1.099074	-0.000130
 815	8.0993e+01	7.5736	21.816682	0.000243	2.432950	0.824306	-0.000097
 816	8.1093e+01	7.5271	21.667308	0.000375	3.750798	1.270805	-0.000150
 817	8.1192e+01	7.4934	21.562342	0.000264	2.635696	0.892998	-0.000105
 818	8.1291e+01	7.4485	21.465451	0.000243	2.432950	0.824306	-0.000097
 819	8.1391e+01	7.4067	21.324151	0.000355	3.548052	1.202113	-0.000142
 820	8.1490e+01	7.3634	21.271668	0.000132	1.317848	0.446499	-0.000053
 821	8.1590e+01	7.3233	21.170740	0.000253	2.534323	0.858652	-0.000101
 822	8.1689e+01	7.2944	21.041551	0.000324	3.243933	1.099074	-0.000130
 823	8.1789e+01	7.2575	20.968883	0.000182	1.824712	0.618229	-0.000073
 824	8.1888e+01	7.2078	20.827583	0.000355	3.548052	1.202113	-0.000142
 825	8.1988e+01	7.1565	20.787212	0.000101	1.013729	0.343461	-0.000041
 826	8.2088e+01	7.1324	20.678209	0.000274	2.737069	0.927344	-0.000110
 827	8.2187e+01	7.0795	20.557095	0.000304	3.041187	1.030382	-0.000122
 828	8.2287e+01	7.0362	20.419833	0.000345	3.446679	1.167766	-0.000138
 829	8.2386e+01	7.0073	20.347164	0.000182	1.824712	0.618229	-0.000073
 830	8.2486e+01	6.9720	20.189716	0.000395	3.953544	1.339497	-0.000158
 831	8.2585e+01	6.9239	20.052453	0.000345	3.446679	1.167766	-0.000138
 832	8.2684e+01	6.8854	19.959599	0.000233	2.331577	0.789960	-0.000093
 833	8.2784e+01	6.8437	19.834448	0.000314	3.142560	1.064728	-0.000126
 834	8.2883e+01	6.8036	19.701222	0.000335	3.345306	1.133420	-0.000134
 835	8.2983e+01	6.7667	19.596257	0.000264	2.635696	0.892998	-0.000105
 836	8.3082e+01	6.7217	19.483217	0.000284	2.838442	0.961690	-0.000114
 837	8.3182e+01	6.6864	19.374214	0.000274	2.737069	0.927344	-0.000110
 838	8.3281e+01	6.6463	19.277323	0.000243	2.432950	0.824306	-0.000097
 839	8.3381e+01	6.6094	19.160246	0.000294	2.939815	0.996036	-0.000118
 840	8.3481e+01	6.5677	19.051244	0.000274	2.737069	0.927344	-0.000110
 841	8.3580e+01	6.5308	18.958389	0.000233	2.331577	0.789960	-0.000093
 842	8.3680e+01	6.4875	18.825164	0.000335	3.345306	1.133420	-0.000134
 843	8.3779e+01	6.4635	18.772681	0.000132	1.317848	0.446499	-0.000053
 844	8.3879e+01	6.4089	18.639456	0.000335	3.345306	1.133420	-0.000134
 845	8.3978e+01	6.3720	18.534490	0.000264	2.635696	0.892998	-0.000105
 846	8.4078e+01	6.3351	18.425488	0.000274	2.737069	0.927344	-0.000110
 847	8.4177e+01	6.2998	18.344745	0.000203	2.027458	0.686921	-0.000081
 848	8.4276e+01	6.2581	18.251891	0.000233	2.331577	0.789960	-0.000093
 849	8.4376e+01	6.2100	18.110591	0.000355	3.548052	1.202113	-0.000142
 850	8.4475e+01	6.1731	17.928920	0.000456	4.561781	1.545573	-0.000183
 851	8.4575e+01	6.1330	17.823954	0.000264	2.635696	0.892998	-0.000105
 852	8.4674e+01	6.0881	17.723026	0.000253	2.534323	0.858652	-0.000101
 853	8.4774e+01	6.0592	17.622097	0.000253	2.534323	0.858652	-0.000101
 854	8.4874e+01	6.0175	17.533281	0.000223	2.230204	0.755614	-0.000089
 855	8.4973e+01	5.9854	17.424278	0.000274	2.737069	0.927344	-0.000110
 856	8.5073e+01	5.9389	17.270867	0.000385	3.852171	1.305151	-0.000154
 857	8.5172e+01	5.8923	17.165901	0.000264	2.635696	0.892998	-0.000105
 858	8.5272e+01	5.8522	17.048824	0.000294	2.939815	0.996036	-0.000118
 859	8.5371e+01	5.8089	16.927710	0.000304	3.041187	1.030382	-0.000122
 860	8.5471e+01	5.7784	16.830819	0.000243	2.432950	0.824306	-0.000097
 861	8.5570e+01	5.7367	16.733928	0.000243	2.432950	0.824306	-0.000097
 862	8.5669e+01	5.6934	16.612814	0.000304	3.041187	1.030382	-0.000122
 863	8.5769e+01	5.6597	16.544182	0.000172	1.723340	0.583883	-0.000069
 864	8.5868e+01	5.6100	16.447291	0.000243	2.432950	0.824306	-0.000097
 865	8.5968e+01	5.5747	16.342325	0.000264	2.635696	0.892998	-0.000105
 866	8.6067e+01	5.5362	16.184877	0.000395	3.953544	1.339497	-0.000158
 867	8.6167e+01	5.4929	16.079912	0.000264	2.635696	0.892998	-0.000105
 868	8.6266e+01	5.4528	15.918426	0.000405	4.054917	1.373843	-0.000162
 869	8.6366e+01	5.4159	15.813461	0.000264	2.635696	0.892998	-0.000105
 870	8.6466e+01	5.3742	15.712532	0.000253	2.534323	0.858652	-0.000101
 871	8.6565e+01	5.3357	15.583344	0.000324	3.243933	1.099074	-0.000130
 872	8.6665e+01	5.2924	15.490490	0.000233	2.331577	0.789960	-0.000093
 873	8.6764e+01	5.2555	15.329004	0.000405	4.054917	1.373843	-0.000162
 874	8.6864e+01	5.2138	15.220002	0.000274	2.737069	0.927344	-0.000110
 875	8.6963e+01	5.1753	15.135222	0.000213	2.128831	0.721268	-0.000085
 876	8.7063e+01	5.1335	15.018145	0.000294	2.939815	0.996036	-0.000118
 877	8.7162e+01	5.0950	14.880882	0.000345	3.446679	1.167766	-0.000138
 878	8.7261e+01	5.0501	14.804177	0.000193	1.926085	0.652575	-0.000077
 879	8.7361e+01	5.0245	14.683063	0.000304	3.041187	1.030382	-0.000122
 880	8.7460e+01	4.9715	14.561949	0.000304	3.041187	1.030382	-0.000122
 881	8.7560e+01	4.9362	14.444872	0.000294	2.939815	0.996036	-0.000118
 882	8.7659e+01	4.8961	14.404500	0.000101	1.013729	0.343461	-0.000041
 883	8.7759e+01	4.8576	14.198606	0.000517	5.170019	1.751650	-0.000207
 884	8.7859e+01	4.8127	14.105752	0.000233	2.331577	0.789960	-0.000093
 885	8.7958e+01	4.7742	13.972527	0.000335	3.345306	1.133420	-0.000134
 886	8.8058e+01	4.7437	13.847376	0.000314	3.142560	1.064728	-0.000126
 887	8.8157e+01	4.7052	13.742410	0.000264	2.635696	0.892998	-0.000105
 888	8.8257e+01	4.6635	13.617259	0.000314	3.142560	1.064728	-0.000126
 889	8.8356e+01	4.6154	13.447699	0.000426	4.257662	1.442535	-0.000170
 890	8.8456e+01	4.5817	13.370994	0.000193	1.926085	0.652575	-0.000077
 891	8.8555e+01	4.5416	13.278139	0.000233	2.331577	0.789960	-0.000093
 892	8.8654e+01	4.4999	13.177211	0.000253	2.534323	0.858652	-0.000101
 893	8.8754e+01	4.4550	13.019763	0.000395	3.953544	1.339497	-0.000158
 894	8.8853e+01	4.4197	12.951131	0.000172	1.723340	0.583883	-0.000069
 895	8.8953e+01	4.3747	12.813869	0.000345	3.446679	1.167766	-0.000138
 896	8.9052e+01	4.3378	12.725052	0.000223	2.230204	0.755614	-0.000089
 897	8.9152e+01	4.2993	12.616049	0.000274	2.737069	0.927344	-0.000110
 898	8.9251e+01	4.2657	12.470712	0.000365	3.649425	1.236459	-0.000146
 899	8.9351e+01	4.2207	12.385932	0.000213	2.128831	0.721268	-0.000085
 900	8.9451e+01	4.1822	12.268856	0.000294	2.939815	0.996036	-0.000118
 901	8.9550e+01	4.1389	12.192150	0.000193	1.926085	0.652575	-0.000077
 902	8.9650e+01	4.1004	12.058924	0.000335	3.345306	1.133420	-0.000134
 903	8.9749e+01	4.0619	11.949922	0.000274	2.737069	0.927344	-0.000110
 904	8.9849e+01	4.0218	11.861105	0.000223	2.230204	0.755614	-0.000089
 905	8.9948e+01	3.9705	11.727879	0.000335	3.345306	1.133420	-0.000134
 906	9.0047e+01	3.9416	11.578505	0.000375	3.750798	1.270805	-0.000150
 907	9.0147e+01	3.9015	11.437206	0.000355	3.548052	1.202113	-0.000142
 908	9.0246e+01	3.8582	11.336277	0.000253	2.534323	0.858652	-0.000101
 909	9.0346e+01	3.8197	11.275720	0.000152	1.520594	0.515191	-0.000061
 910	9.0445e+01	3.7860	11.126346	0.000375	3.750798	1.270805	-0.000150
 911	9.0545e+01	3.7491	11.005232	0.000304	3.041187	1.030382	-0.000122
 912	9.0644e+01	3.7122	10.900266	0.000264	2.635696	0.892998	-0.000105
 913	9.0744e+01	3.6577	10.799338	0.000253	2.534323	0.858652	-0.000101
 914	9.0844e+01	3.6272	10.710521	0.000223	2.230204	0.755614	-0.000089
 915	9.0943e+01	3.5887	10.601518	0.000274	2.737069	0.927344	-0.000110
 916	9.1043e+01	3.5421	10.468293	0.000335	3.345306	1.133420	-0.000134
 917	9.1142e+01	3.5085	10.415810	0.000132	1.317848	0.446499	-0.000053
 918	9.1242e+01	3.4587	10.326993	0.000223	2.230204	0.755614	-0.000089
 919	9.1341e+01	3.4202	10.213953	0.000284	2.838442	0.961690	-0.000114
 920	9.1441e+01	3.3817	10.080728	0.000335	3.345306	1.133420	-0.000134
 921	9.1540e+01	3.3464	9.947502	0.000335	3.345306	1.133420	-0.000134
 922	9.1639e+01	3.3047	9.798128	0.000375	3.750798	1.270805	-0.000150
 923	9.1739e+01	3.2710	9.689126	0.000274	2.737069	0.927344	-0.000110
 924	9.1838e+01	3.2261	9.612420	0.000193	1.926085	0.652575	-0.000077
 925	9.1938e+01	3.1844	9.487269	0.000314	3.142560	1.064728	-0.000126
 926	9.2037e+01	3.1475	9.378266	0.000274	2.737069	0.927344	-0.000110
 927	9.2137e+01	3.1026	9.241004	0.000345	3.446679	1.167766	-0.000138
 928	9.2237e+01	3.0657	9.115852	0.000314	3.142560	1.064728	-0.000126
 929	9.2336e+01	3.0272	9.027036	0.000223	2.230204	0.755614	-0.000089
 930	9.2436e+01	2.9903	8.930144	0.000243	2.432950	0.824306	-0.000097
 931	9.2535e+01	2.9422	8.821142	0.000274	2.737069	0.927344	-0.000110
 932	9.2635e+01	2.9117	8.708102	0.000284	2.838442	0.961690	-0.000114
 933	9.2734e+01	2.8668	8.599099	0.000274	2.737069	0.927344	-0.000110
 934	9.2834e+01	2.8299	8.461837	0.000345	3.446679	1.167766	-0.000138
 935	9.2933e+01	2.7849	8.405317	0.000142	1.419221	0.480845	-0.000057
 936	9.3032e+01	2.7481	8.320537	0.000213	2.128831	0.721268	-0.000085
 937	9.3132e+01	2.7063	8.207497	0.000284	2.838442	0.961690	-0.000114
 938	9.3231e+01	2.6630	8.082346	0.000314	3.142560	1.064728	-0.000126
 939	9.3331e+01	2.6261	7.969306	0.000284	2.838442	0.961690	-0.000114
 940	9.3430e+01	2.5940	7.828006	0.000355	3.548052	1.202113	-0.000142
 941	9.3530e+01	2.5491	7.686706	0.000355	3.548052	1.202113	-0.000142
 942	9.3629e+01	2.5074	7.585778	0.000253	2.534323	0.858652	-0.000101
 943	9.3729e+01	2.4657	7.464664	0.000304	3.041187	1.030382	-0.000122
 944	9.3829e+01	2.4288	7.367773	0.000243	2.432950	0.824306	-0.000097
 945	9.3928e+01	2.3903	7.218399	0.000375	3.750798	1.270805	-0.000150
 946	9.4028e+01	2.3470	7.149767	0.000172	1.723340	0.583883	-0.000069
 947	9.4127e+01	2.2989	7.020579	0.000324	3.243933	1.099074	-0.000130
 948	9.4227e+01	2.2588	6.939836	0.000203	2.027458	0.686921	-0.000081
 949	9.4326e+01	2.2299	6.826797	0.000284	2.838442	0.961690	-0.000114
 950	9.4425e+01	2.1882	6.737980	0.000223	2.230204	0.755614	-0.000089
 951	9.4525e+01	2.1529	6.568420	0.000426	4.257662	1.442535	-0.000170
 952	9.4624e+01	2.1015	6.475566	0.000233	2.331577	0.789960	-0.000093
 953	9.4724e+01	2.0630	6.398860	0.000193	1.926085	0.652575	-0.000077
 954	9.4823e+01	2.0261	6.310043	0.000223	2.230204	0.755614	-0.000089
 955	9.4923e+01	1.9812	6.217189	0.000233	2.331577	0.789960	-0.000093
 956	9.5022e+01	1.9491	6.092038	0.000314	3.142560	1.064728	-0.000126
 957	9.5122e+01	1.9155	5.962849	0.000324	3.243933	1.099074	-0.000130
 958	9.5222e+01	1.8561	5.861921	0.000253	2.534323	0.858652	-0.000101
 959	9.5321e+01	1.8304	5.736770	0.000314	3.142560	1.064728	-0.000126
 960	9.5421e+01	1.7951	5.615656	0.000304	3.041187	1.030382	-0.000122
 961	9.5520e+01	1.7566	5.502616	0.000284	2.838442	0.961690	-0.000114
 962	9.5620e+01	1.7085	5.413799	0.000223	2.230204	0.755614	-0.000089
 963	9.5719e+01	1.6716	5.288648	0.000314	3.142560	1.064728	-0.000126
 964	9.5819e+01	1.6267	5.195794	0.000233	2.331577	0.789960	-0.000093
 965	9.5918e+01	1.5978	5.078717	0.000294	2.939815	0.996036	-0.000118
 966	9.6017e+01	1.5561	4.993937	0.000213	2.128831	0.721268	-0.000085
 967	9.6117e+01	1.5064	4.868786	0.000314	3.142560	1.064728	-0.000126
 968	9.6216e+01	1.4695	4.751709	0.000294	2.939815	0.996036	-0.000118
 969	9.6316e+01	1.4326	4.658855	0.000233	2.331577	0.789960	-0.000093
 970	9.6415e+01	1.3877	4.590223	0.000172	1.723340	0.583883	-0.000069
 971	9.6515e+01	1.3443	4.444886	0.000365	3.649425	1.236459	-0.000146
 972	9.6615e+01	1.2962	4.352032	0.000233	2.331577	0.789960	-0.000093
 973	9.6714e+01	1.2738	4.263215	0.000223	2.230204	0.755614	-0.000089
 974	9.6814e+01	1.2401	4.166324	0.000243	2.432950	0.824306	-0.000097
 975	9.6913e+01	1.1887	4.033099	0.000335	3.345306	1.133420	-0.000134
 976	9.7013e+01	1.1567	3.903910	0.000324	3.243933	1.099074	-0.000130
 977	9.7112e+01	1.1101	3.790870	0.000284	2.838442	0.961690	-0.000114
 978	9.7212e+01	1.0732	3.621311	0.000426	4.257662	1.442535	-0.000170
 979	9.7311e+01	1.0267	3.572865	0.000122	1.216475	0.412153	-0.000049
 980	9.7410e+01	0.9818	3.423491	0.000375	3.750798	1.270805	-0.000150
 981	9.7510e+01	0.9497	3.314488	0.000274	2.737069	0.927344	-0.000110
 982	9.7609e+01	0.9112	3.213560	0.000253	2.534323	0.858652	-0.000101
 983	9.7709e+01	0.8663	3.112632	0.000253	2.534323	0.858652	-0.000101
 984	9.7808e+01	0.8294	3.031889	0.000203	2.027458	0.686921	-0.000081
 985	9.7908e+01	0.7957	2.850218	0.000456	4.561781	1.545573	-0.000183
 986	9.8007e+01	0.7508	2.769475	0.000203	2.027458	0.686921	-0.000081
 987	9.8107e+01	0.7107	2.656435	0.000284	2.838442	0.961690	-0.000114
 988	9.8207e+01	0.6754	2.543396	0.000284	2.838442	0.961690	-0.000114
 989	9.8306e+01	0.6353	2.430356	0.000284	2.838442	0.961690	-0.000114
 990	9.8406e+01	0.5984	2.329427	0.000253	2.534323	0.858652	-0.000101
 991	9.8505e+01	0.5551	2.244647	0.000213	2.128831	0.721268	-0.000085
 992	9.8605e+01	0.5166	2.147756	0.000243	2.432950	0.824306	-0.000097
 993	9.8704e+01	0.4797	1.998382	0.000375	3.750798	1.270805	-0.000150
 994	9.8803e+01	0.4380	1.877268	0.000304	3.041187	1.030382	-0.000122
 995	9.8903e+01	0.3882	1.752117	0.000314	3.142560	1.064728	-0.000126
 996	9.9002e+01	0.3545	1.651189	0.000253	2.534323	0.858652	-0.000101
 997	9.9102e+01	0.3128	1.517963	0.000335	3.345306	1.133420	-0.000134
 998	9.9201e+01	0.2695	1.392812	0.000314	3.142560	1.064728	-0.000126
 999	9.9301e+01	0.2358	1.263623	0.000324	3.243933	1.099074	-0.000130
1000	9.9400e+01	0.1941	1.186918	0.000193	1.926085	0.652575	-0.000077
1001	9.9500e+01	0.1620	1.041581	0.000365	3.649425	1.236459	-0.000146
1002	9.9600e+01	0.1171	0.948727	0.000233	2.331577	0.789960	-0.000093
1003	9.9699e+01	0.0754	0.855873	0.000233	2.331577	0.789960	-0.000093
1004	9.9799e+01	0.0401	0.714573	0.000355	3.548052	1.202113	-0.000142
1005	9.9898e+01	-0.0064	0.645942	0.000172	1.723340	0.583883	-0.000069
1006	9.9998e+01	-0.0369	0.536939	0.000274	2.737069	0.927344	-0.000110
1007	1.0010e+02	-0.0786	0.431974	0.000264	2.635696	0.892998	-0.000105
1008	1.0020e+02	-0.1251	0.298748	0.000335	3.345306	1.133420	-0.000134
1009	1.0030e+02	-0.1492	0.205894	0.000233	2.331577	0.789960	-0.000093
1010	1.0040e+02	-0.1909	0.072668	0.000335	3.345306	1.133420	-0.000134
1011	1.0050e+02	-0.2310	-0.052483	0.000314	3.142560	1.064728	-0.000126
1012	1.0059e+02	-0.2775	-0.157448	0.000264	2.635696	0.892998	-0.000105
1013	1.0069e+02	-0.3112	-0.286637	0.000324	3.243933	1.099074	-0.000130
1014	1.0079e+02	-0.3561	-0.436011	0.000375	3.750798	1.270805	-0.000150
1015	1.0089e+02	-0.3850	-0.504642	0.000172	1.723340	0.583883	-0.000069
1016	1.0099e+02	-0.4380	-0.641905	0.000345	3.446679	1.167766	-0.000138
1017	1.0109e+02	-0.4749	-0.746870	0.000264	2.635696	0.892998	-0.000105
1018	1.0119e+02	-0.5166	-0.859910	0.000284	2.838442	0.961690	-0.000114
1019	1.0129e+02	-0.5583	-0.981024	0.000304	3.041187	1.030382	-0.000122
1020	1.0139e+02	-0.5920	-1.102138	0.000304	3.041187	1.030382	-0.000122
1021	1.0149e+02	-0.6305	-1.203066	0.000253	2.534323	0.858652	-0.000101
1022	1.0159e+02	-0.6802	-1.308032	0.000264	2.635696	0.892998	-0.000105
1023	1.0169e+02	-0.7171	-1.461443	0.000385	3.852171	1.305151	-0.000154
1024	1.0179e+02	-0.7572	-1.538149	0.000193	1.926085	0.652575	-0.000077
1025	1.0189e+02	-0.7957	-1.703671	0.000416	4.156290	1.408189	-0.000166
1026	1.0199e+02	-0.8310	-1.756154	0.000132	1.317848	0.446499	-0.000053
1027	1.0209e+02	-0.8711	-1.828822	0.000182	1.824712	0.618229	-0.000073
1028	1.0219e+02	-0.9048	-2.006456	0.000446	4.460408	1.511227	-0.000179
1029	1.0229e+02	-0.9641	-2.123533	0.000294	2.939815	0.996036	-0.000118
1030	1.0239e+02	-0.9834	-2.236573	0.000284	2.838442	0.961690	-0.000114
1031	1.0248e+02	-1.0347	-2.309242	0.000182	1.824712	0.618229	-0.000073
1032	1.0258e+02	-1.0732	-2.503024	0.000487	4.865900	1.648612	-0.000195
1033	1.0268e+02	-1.1101	-2.632213	0.000324	3.243933	1.099074	-0.000130
1034	1.0278e+02	-1.1518	-2.704881	0.000182	1.824712	0.618229	-0.000073
1035	1.0288e+02	-1.1952	-2.801772	0.000243	2.432950	0.824306	-0.000097
1036	1.0298e+02	-1.2240	-2.926923	0.000314	3.142560	1.064728	-0.000126
1037	1.0308e+02	-1.2689	-3.072260	0.000365	3.649425	1.236459	-0.000146
1038	1.0318e+02	-1.3203	-3.132817	0.000152	1.520594	0.515191	-0.000061
1039	1.0328e+02	-1.3636	-3.270080	0.000345	3.446679	1.167766	-0.000138
1040	1.0338e+02	-1.3925	-3.395231	0.000314	3.142560	1.064728	-0.000126
1041	1.0348e+02	-1.4326	-3.496160	0.000253	2.534323	0.858652	-0.000101
1042	1.0358e+02	-1.4711	-3.605162	0.000274	2.737069	0.927344	-0.000110
1043	1.0368e+02	-1.5144	-3.754536	0.000375	3.750798	1.270805	-0.000150
1044	1.0378e+02	-1.5545	-3.859502	0.000264	2.635696	0.892998	-0.000105
1045	1.0388e+02	-1.5930	-3.928133	0.000172	1.723340	0.583883	-0.000069
1046	1.0398e+02	-1.6219	-4.085581	0.000395	3.953544	1.339497	-0.000158
1047	1.0408e+02	-1.6684	-4.243030	0.000395	3.953544	1.339497	-0.000158
1048	1.0418e+02	-1.7117	-4.364144	0.000304	3.041187	1.030382	-0.000122
1049	1.0428e+02	-1.7518	-4.469109	0.000264	2.635696	0.892998	-0.000105
1050	1.0438e+02	-1.7871	-4.594260	0.000314	3.142560	1.064728	-0.000126
1051	1.0447e+02	-1.8288	-4.711337	0.000294	2.939815	0.996036	-0.000118
1052	1.0457e+02	-1.8721	-4.820340	0.000274	2.737069	0.927344	-0.000110
1053	1.0467e+02	-1.8994	-4.949528	0.000324	3.243933	1.099074	-0.000130
1054	1.0477e+02	-1.9524	-5.098902	0.000375	3.750798	1.270805	-0.000150
1055	1.0487e+02	-1.9828	-5.203868	0.000264	2.635696	0.892998	-0.000105
1056	1.0497e+02	-2.0310	-5.292685	0.000223	2.230204	0.755614	-0.000089
1057	1.0507e+02	-2.0695	-5.417836	0.000314	3.142560	1.064728	-0.000126
1058	1.0517e+02	-2.1064	-5.526839	0.000274	2.737069	0.927344	-0.000110
1059	1.0527e+02	-2.1545	-5.647953	0.000304	3.041187	1.030382	-0.000122
1060	1.0537e+02	-2.1818	-5.736770	0.000223	2.230204	0.755614	-0.000089
1061	1.0547e+02	-2.2299	-5.829624	0.000233	2.331577	0.789960	-0.000093
1062	1.0557e+02	-2.2668	-5.930552	0.000253	2.534323	0.858652	-0.000101
1063	1.0567e+02	-2.3101	-6.027444	0.000243	2.432950	0.824306	-0.000097
1064	1.0577e+02	-2.3470	-6.176818	0.000375	3.750798	1.270805	-0.000150
1065	1.0587e+02	-2.3919	-6.265635	0.000223	2.230204	0.755614	-0.000089
1066	1.0597e+02	-2.4336	-6.463454	0.000497	4.967273	1.682958	-0.000199
1067	1.0607e+02	-2.4609	-6.568420	0.000264	2.635696	0.892998	-0.000105
1068	1.0617e+02	-2.5010	-6.669348	0.000253	2.534323	0.858652	-0.000101
1069	1.0627e+02	-2.5475	-6.798537	0.000324	3.243933	1.099074	-0.000130
1070	1.0637e+02	-2.5860	-6.931762	0.000335	3.345306	1.133420	-0.000134
1071	1.0647e+02	-2.6245	-7.012505	0.000203	2.027458	0.686921	-0.000081
1072	1.0656e+02	-2.6743	-7.165916	0.000385	3.852171	1.305151	-0.000154
1073	1.0666e+02	-2.7079	-7.222436	0.000142	1.419221	0.480845	-0.000057
1074	1.0676e+02	-2.7545	-7.351624	0.000324	3.243933	1.099074	-0.000130
1075	1.0686e+02	-2.7866	-7.440441	0.000223	2.230204	0.755614	-0.000089
1076	1.0696e+02	-2.8202	-7.589815	0.000375	3.750798	1.270805	-0.000150
1077	1.0706e+02	-2.8732	-7.690744	0.000253	2.534323	0.858652	-0.000101
1078	1.0716e+02	-2.9117	-7.795709	0.000264	2.635696	0.892998	-0.000105
1079	1.0726e+02	-2.9486	-7.836080	0.000101	1.013729	0.343461	-0.000041
1080	1.0736e+02	-2.9871	-7.977380	0.000355	3.548052	1.202113	-0.000142
1081	1.0746e+02	-3.0224	-8.046012	0.000172	1.723340	0.583883	-0.000069
1082	1.0756e+02	-3.0657	-8.207497	0.000405	4.054917	1.373843	-0.000162
1083	1.0766e+02	-3.1058	-8.332648	0.000314	3.142560	1.064728	-0.000126
1084	1.0776e+02	-3.1443	-8.421465	0.000223	2.230204	0.755614	-0.000089
1085	1.0786e+02	-3.1876	-8.558728	0.000345	3.446679	1.167766	-0.000138
1086	1.0796e+02	-3.2213	-8.679842	0.000304	3.041187	1.030382	-0.000122
1087	1.0806e+02	-3.2582	-8.809030	0.000324	3.243933	1.099074	-0.000130
1088	1.0816e+02	-3.2951	-8.889773	0.000203	2.027458	0.686921	-0.000081
1089	1.0826e+02	-3.3480	-9.035110	0.000365	3.649425	1.236459	-0.000146
1090	1.0836e+02	-3.3849	-9.148150	0.000284	2.838442	0.961690	-0.000114
1091	1.0845e+02	-3.4186	-9.265227	0.000294	2.939815	0.996036	-0.000118
1092	1.0855e+02	-3.4603	-9.362118	0.000243	2.432950	0.824306	-0.000097
1093	1.0865e+02	-3.5036	-9.471120	0.000274	2.737069	0.927344	-0.000110
1094	1.0875e+02	-3.5421	-9.568012	0.000243	2.432950	0.824306	-0.000097
1095	1.0885e+02	-3.5887	-9.652792	0.000213	2.128831	0.721268	-0.000085
1096	1.0895e+02	-3.6208	-9.725460	0.000182	1.824712	0.618229	-0.000073
1097	1.0905e+02	-3.6657	-9.882908	0.000395	3.953544	1.339497	-0.000158
1098	1.0915e+02	-3.6994	-9.927317	0.000112	1.115102	0.377807	-0.000045
1099	1.0925e+02	-3.7411	-10.056505	0.000324	3.243933	1.099074	-0.000130
1100	1.0935e+02	-3.7860	-10.161471	0.000264	2.635696	0.892998	-0.000105
1101	1.0945e+02	-3.8149	-10.294696	0.000335	3.345306	1.133420	-0.000134
1102	1.0955e+02	-3.8598	-10.427922	0.000335	3.345306	1.133420	-0.000134
1103	1.0965e+02	-3.8871	-10.577296	0.000375	3.750798	1.270805	-0.000150
1104	1.0975e+02	-3.9432	-10.694373	0.000294	2.939815	0.996036	-0.000118
1105	1.0985e+02	-3.9849	-10.791264	0.000243	2.432950	0.824306	-0.000097
1106	1.0995e+02	-4.0202	-10.952749	0.000405	4.054917	1.373843	-0.000162
1107	1.1005e+02	-4.0571	-11.017343	0.000162	1.621967	0.549537	-0.000065
1108	1.1015e+02	-4.0956	-11.122309	0.000264	2.635696	0.892998	-0.000105
1109	1.1025e+02	-4.1389	-11.239386	0.000294	2.939815	0.996036	-0.000118
1110	1.1035e+02	-4.1838	-11.340314	0.000253	2.534323	0.858652	-0.000101
1111	1.1044e+02	-4.2239	-11.461428	0.000304	3.041187	1.030382	-0.000122
1112	1.1054e+02	-4.2608	-11.550245	0.000223	2.230204	0.755614	-0.000089
1113	1.1064e+02	-4.3009	-11.663285	0.000284	2.838442	0.961690	-0.000114
1114	1.1074e+02	-4.3362	-11.744028	0.000203	2.027458	0.686921	-0.000081
1115	1.1084e+02	-4.3828	-11.832845	0.000223	2.230204	0.755614	-0.000089
1116	1.1094e+02	-4.4197	-11.933773	0.000253	2.534323	0.858652	-0.000101
1117	1.1104e+02	-4.4566	-12.042776	0.000274	2.737069	0.927344	-0.000110
1118	1.1114e+02	-4.5015	-12.163890	0.000304	3.041187	1.030382	-0.000122
1119	1.1124e+02	-4.5432	-12.289041	0.000314	3.142560	1.064728	-0.000126
1120	1.1134e+02	-4.5785	-12.377858	0.000223	2.230204	0.755614	-0.000089
1121	1.1144e+02	-4.6009	-12.535306	0.000395	3.953544	1.339497	-0.000158
1122	1.1154e+02	-4.6571	-12.660458	0.000314	3.142560	1.064728	-0.000126
1123	1.1164e+02	-4.6972	-12.757349	0.000243	2.432950	0.824306	-0.000097
1124	1.1174e+02	-4.7325	-12.874426	0.000294	2.939815	0.996036	-0.000118
1125	1.1184e+02	-4.7838	-12.947094	0.000182	1.824712	0.618229	-0.000073
1126	1.1194e+02	-4.8191	-13.080320	0.000335	3.345306	1.133420	-0.000134
1127	1.1204e+02	-4.8592	-13.185285	0.000264	2.635696	0.892998	-0.000105
1128	1.1214e+02	-4.9009	-13.290251	0.000264	2.635696	0.892998	-0.000105
1129	1.1224e+02	-4.9378	-13.379068	0.000223	2.230204	0.755614	-0.000089
1130	1.1234e+02	-4.9844	-13.508256	0.000324	3.243933	1.099074	-0.000130
1131	1.1244e+02	-5.0100	-13.637445	0.000324	3.243933	1.099074	-0.000130
1132	1.1253e+02	-5.0533	-13.637445	-0.000000	-0.000000	-0.000000	0.000000
1133	1.1263e+02	-5.0983	-13.766633	0.000324	3.243933	1.099074	-0.000130
1134	1.1273e+02	-5.1400	-13.815078	0.000122	1.216475	0.412153	-0.000049
1135	1.1283e+02	-5.1833	-13.924081	0.000274	2.737069	0.927344	-0.000110
1136	1.1293e+02	-5.2234	-14.041158	0.000294	2.939815	0.996036	-0.000118
1137	1.1303e+02	-5.2539	-14.251089	0.000527	5.271392	1.785996	-0.000211
1138	1.1313e+02	-5.2892	-14.323758	0.000182	1.824712	0.618229	-0.000073
1139	1.1323e+02	-5.3277	-14.428723	0.000264	2.635696	0.892998	-0.000105
1140	1.1333e+02	-5.3742	-14.586171	0.000395	3.953544	1.339497	-0.000158
1141	1.1343e+02	-5.4175	-14.687100	0.000253	2.534323	0.858652	-0.000101
1142	1.1353e+02	-5.4560	-14.747657	0.000152	1.520594	0.515191	-0.000061
1143	1.1363e+02	-5.4929	-14.872808	0.000314	3.142560	1.064728	-0.000126
1144	1.1373e+02	-5.5394	-15.018145	0.000365	3.649425	1.236459	-0.000146
1145	1.1383e+02	-5.5747	-15.098888	0.000203	2.027458	0.686921	-0.000081
1146	1.1393e+02	-5.6100	-15.215965	0.000294	2.939815	0.996036	-0.000118
1147	1.1403e+02	-5.6549	-15.337079	0.000304	3.041187	1.030382	-0.000122
1148	1.1413e+02	-5.6918	-15.401673	0.000162	1.621967	0.549537	-0.000065
1149	1.1423e+02	-5.7351	-15.506638	0.000264	2.635696	0.892998	-0.000105
1150	1.1433e+02	-5.7768	-15.647938	0.000355	3.548052	1.202113	-0.000142
1151	1.1442e+02	-5.8137	-15.688309	0.000101	1.013729	0.343461	-0.000041
1152	1.1452e+02	-5.8522	-15.825572	0.000345	3.446679	1.167766	-0.000138
1153	1.1462e+02	-5.8972	-15.926500	0.000253	2.534323	0.858652	-0.000101
1154	1.1472e+02	-5.9308	-16.011280	0.000213	2.128831	0.721268	-0.000085
1155	1.1482e+02	-5.9694	-16.136432	0.000314	3.142560	1.064728	-0.000126
1156	1.1492e+02	-6.0079	-16.257546	0.000304	3.041187	1.030382	-0.000122
1157	1.1502e+02	-6.0480	-16.398845	0.000355	3.548052	1.202113	-0.000142
1158	1.1512e+02	-6.0929	-16.532071	0.000335	3.345306	1.133420	-0.000134
1159	1.1522e+02	-6.1250	-16.624925	0.000233	2.331577	0.789960	-0.000093
1160	1.1532e+02	-6.1779	-16.742002	0.000294	2.939815	0.996036	-0.000118
1161	1.1542e+02	-6.2164	-16.883302	0.000355	3.548052	1.202113	-0.000142
1162	1.1552e+02	-6.2501	-16.943859	0.000152	1.520594	0.515191	-0.000061
1163	1.1562e+02	-6.2902	-17.081121	0.000345	3.446679	1.167766	-0.000138
1164	1.1572e+02	-6.3271	-17.206273	0.000314	3.142560	1.064728	-0.000126
1165	1.1582e+02	-6.3688	-17.303164	0.000243	2.432950	0.824306	-0.000097
1166	1.1592e+02	-6.4153	-17.367758	0.000162	1.621967	0.549537	-0.000065
1167	1.1602e+02	-6.4490	-17.505021	0.000345	3.446679	1.167766	-0.000138
1168	1.1612e+02	-6.4843	-17.565578	0.000152	1.520594	0.515191	-0.000061
1169	1.1622e+02	-6.5260	-17.714952	0.000375	3.750798	1.270805	-0.000150
1170	1.1632e+02	-6.5677	-17.795694	0.000203	2.027458	0.686921	-0.000081
1171	1.1642e+02	-6.6062	-17.900660	0.000264	2.635696	0.892998	-0.000105
1172	1.1651e+02	-6.6624	-18.033885	0.000335	3.345306	1.133420	-0.000134
1173	1.1661e+02	-6.6848	-18.130777	0.000243	2.432950	0.824306	-0.000097
1174	1.1671e+02	-6.7330	-18.251891	0.000304	3.041187	1.030382	-0.000122
1175	1.1681e+02	-6.7683	-18.401265	0.000375	3.750798	1.270805	-0.000150
1176	1.1691e+02	-6.8100	-18.502193	0.000253	2.534323	0.858652	-0.000101
1177	1.1701e+02	-6.8469	-18.639456	0.000345	3.446679	1.167766	-0.000138
1178	1.1711e+02	-6.8870	-18.752496	0.000284	2.838442	0.961690	-0.000114
1179	1.1721e+02	-6.9287	-18.849387	0.000243	2.432950	0.824306	-0.000097
1180	1.1731e+02	-6.9640	-18.986649	0.000345	3.446679	1.167766	-0.000138
1181	1.1741e+02	-7.0057	-19.111801	0.000314	3.142560	1.064728	-0.000126
1182	1.1751e+02	-7.0426	-19.188506	0.000193	1.926085	0.652575	-0.000077
1183	1.1761e+02	-7.0843	-19.301546	0.000284	2.838442	0.961690	-0.000114
1184	1.1771e+02	-7.1292	-19.394400	0.000233	2.331577	0.789960	-0.000093
1185	1.1781e+02	-7.1741	-19.479180	0.000213	2.128831	0.721268	-0.000085
1186	1.1791e+02	-7.2062	-19.567997	0.000223	2.230204	0.755614	-0.000089
1187	1.1801e+02	-7.2447	-19.648740	0.000203	2.027458	0.686921	-0.000081
1188	1.1811e+02	-7.2977	-19.806188	0.000395	3.953544	1.339497	-0.000158
1189	1.1821e+02	-7.3233	-19.923265	0.000294	2.939815	0.996036	-0.000118
1190	1.1831e+02	-7.3698	-19.971710	0.000122	1.216475	0.412153	-0.000049
1191	1.1841e+02	-7.4132	-20.108973	0.000345	3.446679	1.167766	-0.000138
1192	1.1850e+02	-7.4420	-20.258347	0.000375	3.750798	1.270805	-0.000150
1193	1.1860e+02	-7.4805	-20.359276	0.000253	2.534323	0.858652	-0.000101
1194	1.1870e+02	-7.5206	-20.472315	0.000284	2.838442	0.961690	-0.000114
1195	1.1880e+02	-7.5656	-20.633801	0.000405	4.054917	1.373843	-0.000162
1196	1.1890e+02	-7.6025	-20.690321	0.000142	1.419221	0.480845	-0.000057
1197	1.1900e+02	-7.6506	-20.827583	0.000345	3.446679	1.167766	-0.000138
1198	1.1910e+02	-7.6859	-20.964846	0.000345	3.446679	1.167766	-0.000138
1199	1.1920e+02	-7.7164	-21.029440	0.000162	1.621967	0.549537	-0.000065
1200	1.1930e+02	-7.7565	-21.150554	0.000304	3.041187	1.030382	-0.000122
1201	1.1940e+02	-7.8094	-21.308002	0.000395	3.953544	1.339497	-0.000158
1202	1.1950e+02	-7.8367	-21.388745	0.000203	2.027458	0.686921	-0.000081
1203	1.1960e+02	-7.8816	-21.465451	0.000193	1.926085	0.652575	-0.000077
1204	1.1970e+02	-7.9169	-21.521971	0.000142	1.419221	0.480845	-0.000057
1205	1.1980e+02	-7.9634	-21.659233	0.000345	3.446679	1.167766	-0.000138
1206	1.1990e+02	-8.0131	-21.752087	0.000233	2.331577	0.789960	-0.000093
1207	1.2000e+02	-8.0420	-21.873201	0.000304	3.041187	1.030382	-0.000122
1208	1.2010e+02	-8.0805	-22.018538	0.000365	3.649425	1.236459	-0.000146
1209	1.2020e+02	-8.1238	-22.135615	0.000294	2.939815	0.996036	-0.000118
1210	1.2030e+02	-8.1655	-22.252692	0.000294	2.939815	0.996036	-0.000118
1211	1.2039e+02	-8.2040	-22.389955	0.000345	3.446679	1.167766	-0.000138
1212	1.2049e+02	-8.2393	-22.511069	0.000304	3.041187	1.030382	-0.000122
1213	1.2059e+02	-8.2859	-22.616034	0.000264	2.635696	0.892998	-0.000105
1214	1.2069e+02	-8.3292	-22.725037	0.000274	2.737069	0.927344	-0.000110
1215	1.2079e+02	-8.3597	-22.866337	0.000355	3.548052	1.202113	-0.000142
1216	1.2089e+02	-8.4046	-22.987451	0.000304	3.041187	1.030382	-0.000122
1217	1.2099e+02	-8.4399	-23.052045	0.000162	1.621967	0.549537	-0.000065
1218	1.2109e+02	-8.4848	-23.197382	0.000365	3.649425	1.236459	-0.000146
1219	1.2119e+02	-8.5233	-23.290236	0.000233	2.331577	0.789960	-0.000093
1220	1.2129e+02	-8.5666	-23.370979	0.000203	2.027458	0.686921	-0.000081
1221	1.2139e+02	-8.5987	-23.500167	0.000324	3.243933	1.099074	-0.000130
1222	1.2149e+02	-8.6436	-23.633393	0.000335	3.345306	1.133420	-0.000134
1223	1.2159e+02	-8.6821	-23.710098	0.000193	1.926085	0.652575	-0.000077
1224	1.2169e+02	-8.7174	-23.790841	0.000203	2.027458	0.686921	-0.000081
1225	1.2179e+02	-8.7639	-23.944252	0.000385	3.852171	1.305151	-0.000154
1226	1.2189e+02	-8.7912	-24.049218	0.000264	2.635696	0.892998	-0.000105
1227	1.2199e+02	-8.8281	-24.170332	0.000304	3.041187	1.030382	-0.000122
1228	1.2209e+02	-8.8794	-24.263186	0.000233	2.331577	0.789960	-0.000093
1229	1.2219e+02	-8.9227	-24.420634	0.000395	3.953544	1.339497	-0.000158
1230	1.2229e+02	-8.9612	-24.541748	0.000304	3.041187	1.030382	-0.000122
1231	1.2239e+02	-8.9981	-24.594231	0.000132	1.317848	0.446499	-0.000053
1232	1.2248e+02	-9.0334	-24.731494	0.000345	3.446679	1.167766	-0.000138
1233	1.2258e+02	-9.0816	-24.836459	0.000264	2.635696	0.892998	-0.000105
1234	1.2268e+02	-9.1201	-24.969685	0.000335	3.345306	1.133420	-0.000134
1235	1.2278e+02	-9.1570	-25.066576	0.000243	2.432950	0.824306	-0.000097
1236	1.2288e+02	-9.1987	-25.159430	0.000233	2.331577	0.789960	-0.000093
1237	1.2298e+02	-9.2420	-25.288618	0.000324	3.243933	1.099074	-0.000130
1238	1.2308e+02	-9.2741	-25.345138	0.000142	1.419221	0.480845	-0.000057
1239	1.2318e+02	-9.3222	-25.478364	0.000335	3.345306	1.133420	-0.000134
1240	1.2328e+02	-9.3543	-25.518735	0.000101	1.013729	0.343461	-0.000041
1241	1.2338e+02	-9.4040	-25.607552	0.000223	2.230204	0.755614	-0.000089
1242	1.2348e+02	-9.4409	-25.765000	0.000395	3.953544	1.339497	-0.000158
1243	1.2358e+02	-9.4698	-25.841706	0.000193	1.926085	0.652575	-0.000077
1244	1.2368e+02	-9.5099	-25.958783	0.000294	2.939815	0.996036	-0.000118
1245	1.2378e+02	-9.5612	-26.104120	0.000365	3.649425	1.236459	-0.000146
1246	1.2388e+02	-9.5949	-26.205048	0.000253	2.534323	0.858652	-0.000101
1247	1.2398e+02	-9.6382	-26.322125	0.000294	2.939815	0.996036	-0.000118
1248	1.2408e+02	-9.6655	-26.374608	0.000132	1.317848	0.446499	-0.000053
1249	1.2418e+02	-9.7136	-26.552242	0.000446	4.460408	1.511227	-0.000179
1250	1.2428e+02	-9.7473	-26.645096	0.000233	2.331577	0.789960	-0.000093
1251	1.2438e+02	-9.7922	-26.746024	0.000253	2.534323	0.858652	-0.000101
1252	1.2447e+02	-9.8372	-26.834841	0.000223	2.230204	0.755614	-0.000089
1253	1.2457e+02	-9.8660	-26.964030	0.000324	3.243933	1.099074	-0.000130
1254	1.2467e+02	-9.9222	-27.056884	0.000233	2.331577	0.789960	-0.000093
1255	1.2477e+02	-9.9607	-27.169924	0.000284	2.838442	0.961690	-0.000114
1256	1.2487e+02	-9.9912	-27.278926	0.000274	2.737069	0.927344	-0.000110
1257	1.2497e+02	-10.0425	-27.355632	0.000193	1.926085	0.652575	-0.000077
1258	1.2507e+02	-10.0746	-27.416189	0.000152	1.520594	0.515191	-0.000061
1259	1.2517e+02	-10.1291	-27.500969	0.000213	2.128831	0.721268	-0.000085
1260	1.2527e+02	-10.1500	-27.626120	0.000314	3.142560	1.064728	-0.000126
1261	1.2537e+02	-10.1949	-27.739160	0.000284	2.838442	0.961690	-0.000114
1262	1.2547e+02	-10.2350	-27.868348	0.000324	3.243933	1.099074	-0.000130
1263	1.2557e+02	-10.2735	-27.989462	0.000304	3.041187	1.030382	-0.000122
1264	1.2567e+02	-10.3184	-28.114613	0.000314	3.142560	1.064728	-0.000126
1265	1.2577e+02	-10.3489	-28.215542	0.000253	2.534323	0.858652	-0.000101
1266	1.2587e+02	-10.3874	-28.340693	0.000314	3.142560	1.064728	-0.000126
1267	1.2597e+02	-10.4387	-28.385101	0.000112	1.115102	0.377807	-0.000045
1268	1.2607e+02	-10.4837	-28.542550	0.000395	3.953544	1.339497	-0.000158
1269	1.2617e+02	-10.5157	-28.615218	0.000182	1.824712	0.618229	-0.000073
1270	1.2627e+02	-10.5494	-28.732295	0.000294	2.939815	0.996036	-0.000118
1271	1.2636e+02	-10.5927	-28.809001	0.000193	1.926085	0.652575	-0.000077
1272	1.2646e+02	-10.6248	-28.958375	0.000375	3.750798	1.270805	-0.000150
1273	1.2656e+02	-10.6794	-29.047192	0.000223	2.230204	0.755614	-0.000089
1274	1.2666e+02	-10.7115	-29.144083	0.000243	2.432950	0.824306	-0.000097
1275	1.2676e+02	-10.7516	-29.224826	0.000203	2.027458	0.686921	-0.000081
1276	1.2686e+02	-10.7949	-29.321717	0.000243	2.432950	0.824306	-0.000097
1277	1.2696e+02	-10.8318	-29.406497	0.000213	2.128831	0.721268	-0.000085
1278	1.2706e+02	-10.8719	-29.507425	0.000253	2.534323	0.858652	-0.000101
1279	1.2716e+02	-10.9088	-29.660836	0.000385	3.852171	1.305151	-0.000154
1280	1.2726e+02	-10.9505	-29.773876	0.000284	2.838442	0.961690	-0.000114
1281	1.2736e+02	-10.9874	-29.850582	0.000193	1.926085	0.652575	-0.000077
1282	1.2746e+02	-11.0323	-29.971696	0.000304	3.041187	1.030382	-0.000122
1283	1.2756e+02	-11.0628	-30.080698	0.000274	2.737069	0.927344	-0.000110
1284	1.2766e+02	-11.1157	-30.185664	0.000264	2.635696	0.892998	-0.000105
1285	1.2776e+02	-11.1542	-30.234110	0.000122	1.216475	0.412153	-0.000049
1286	1.2786e+02	-11.1911	-30.395595	0.000405	4.054917	1.373843	-0.000162
1287	1.2796e+02	-11.2296	-30.435966	0.000101	1.013729	0.343461	-0.000041
1288	1.2806e+02	-11.2762	-30.557080	0.000304	3.041187	1.030382	-0.000122
1289	1.2816e+02	-11.3082	-30.690306	0.000335	3.345306	1.133420	-0.000134
1290	1.2826e+02	-11.3483	-30.795271	0.000264	2.635696	0.892998	-0.000105
1291	1.2835e+02	-11.3884	-30.892163	0.000243	2.432950	0.824306	-0.000097
1292	1.2845e+02	-11.4382	-30.997128	0.000264	2.635696	0.892998	-0.000105
1293	1.2855e+02	-11.4767	-31.073834	0.000193	1.926085	0.652575	-0.000077
1294	1.2865e+02	-11.5168	-31.174762	0.000253	2.534323	0.858652	-0.000101
1295	1.2875e+02	-11.5537	-31.267616	0.000233	2.331577	0.789960	-0.000093
1296	1.2885e+02	-11.5794	-31.332210	0.000162	1.621967	0.549537	-0.000065
1297	1.2895e+02	-11.6307	-31.453325	0.000304	3.041187	1.030382	-0.000122
1298	1.2905e+02	-11.6644	-31.558290	0.000264	2.635696	0.892998	-0.000105
1299	1.2915e+02	-11.7157	-31.655181	0.000243	2.432950	0.824306	-0.000097
1300	1.2925e+02	-11.7446	-31.760147	0.000264	2.635696	0.892998	-0.000105
1301	1.2935e+02	-11.7895	-31.861075	0.000253	2.534323	0.858652	-0.000101
1302	1.2945e+02	-11.8280	-31.937781	0.000193	1.926085	0.652575	-0.000077
1303	1.2955e+02	-11.8713	-32.046783	0.000274	2.737069	0.927344	-0.000110
1304	1.2965e+02	-11.9034	-32.159823	0.000284	2.838442	0.961690	-0.000114
1305	1.2975e+02	-11.9563	-32.260752	0.000253	2.534323	0.858652	-0.000101
1306	1.2985e+02	-11.9916	-32.357643	0.000243	2.432950	0.824306	-0.000097
1307	1.2995e+02	-12.0269	-32.446460	0.000223	2.230204	0.755614	-0.000089
1308	1.3005e+02	-12.0654	-32.551425	0.000264	2.635696	0.892998	-0.000105
1309	1.3015e+02	-12.1039	-32.668502	0.000294	2.939815	0.996036	-0.000118
1310	1.3025e+02	-12.1585	-32.741171	0.000182	1.824712	0.618229	-0.000073
1311	1.3034e+02	-12.1874	-32.829988	0.000223	2.230204	0.755614	-0.000089
1312	1.3044e+02	-12.2355	-32.943028	0.000284	2.838442	0.961690	-0.000114
1313	1.3054e+02	-12.2692	-32.987436	0.000112	1.115102	0.377807	-0.000045
1314	1.3064e+02	-12.3045	-33.148922	0.000405	4.054917	1.373843	-0.000162
1315	1.3074e+02	-12.3414	-33.278110	0.000324	3.243933	1.099074	-0.000130
1316	1.3084e+02	-12.3895	-33.366927	0.000223	2.230204	0.755614	-0.000089
1317	1.3094e+02	-12.4280	-33.455744	0.000223	2.230204	0.755614	-0.000089
1318	1.3104e+02	-12.4585	-33.597044	0.000355	3.548052	1.202113	-0.000142
1319	1.3114e+02	-12.5050	-33.665675	0.000172	1.723340	0.583883	-0.000069
1320	1.3124e+02	-12.5419	-33.778715	0.000284	2.838442	0.961690	-0.000114
1321	1.3134e+02	-12.5836	-33.907903	0.000324	3.243933	1.099074	-0.000130
1322	1.3144e+02	-12.6253	-34.008831	0.000253	2.534323	0.858652	-0.000101
1323	1.3154e+02	-12.6702	-34.101686	0.000233	2.331577	0.789960	-0.000093
1324	1.3164e+02	-12.7055	-34.218763	0.000294	2.939815	0.996036	-0.000118
1325	1.3174e+02	-12.7488	-34.315654	0.000243	2.432950	0.824306	-0.000097
1326	1.3184e+02	-12.7745	-34.408508	0.000233	2.331577	0.789960	-0.000093
1327	1.3194e+02	-12.8258	-34.509436	0.000253	2.534323	0.858652	-0.000101
1328	1.3204e+02	-12.8563	-34.630550	0.000304	3.041187	1.030382	-0.000122
1329	1.3214e+02	-12.9061	-34.691107	0.000152	1.520594	0.515191	-0.000061
1330	1.3224e+02	-12.9413	-34.792036	0.000253	2.534323	0.858652	-0.000101
1331	1.3234e+02	-12.9766	-34.872779	0.000203	2.027458	0.686921	-0.000081
1332	1.3243e+02	-13.0151	-35.014078	0.000355	3.548052	1.202113	-0.000142
1333	1.3253e+02	-13.0552	-35.131155	0.000294	2.939815	0.996036	-0.000118
1334	1.3263e+02	-13.1050	-35.224009	0.000233	2.331577	0.789960	-0.000093
1335	1.3273e+02	-13.1387	-35.353198	0.000324	3.243933	1.099074	-0.000130
1336	1.3283e+02	-13.1852	-35.466237	0.000284	2.838442	0.961690	-0.000114
1337	1.3293e+02	-13.2205	-35.567166	0.000253	2.534323	0.858652	-0.000101
1338	1.3303e+02	-13.2590	-35.615611	0.000122	1.216475	0.412153	-0.000049
1339	1.3313e+02	-13.3055	-35.744800	0.000324	3.243933	1.099074	-0.000130
1340	1.3323e+02	-13.3440	-35.878025	0.000335	3.345306	1.133420	-0.000134
1341	1.3333e+02	-13.3793	-35.958768	0.000203	2.027458	0.686921	-0.000081
1342	1.3343e+02	-13.4194	-36.067771	0.000274	2.737069	0.927344	-0.000110
1343	1.3353e+02	-13.4611	-36.160625	0.000233	2.331577	0.789960	-0.000093
1344	1.3363e+02	-13.4964	-36.285776	0.000314	3.142560	1.064728	-0.000126
1345	1.3373e+02	-13.5526	-36.338259	0.000132	1.317848	0.446499	-0.000053
1346	1.3383e+02	-13.5830	-36.467447	0.000324	3.243933	1.099074	-0.000130
1347	1.3393e+02	-13.6280	-36.576450	0.000274	2.737069	0.927344	-0.000110
1348	1.3403e+02	-13.6488	-36.677378	0.000253	2.534323	0.858652	-0.000101
1349	1.3413e+02	-13.6953	-36.762158	0.000213	2.128831	0.721268	-0.000085
1350	1.3423e+02	-13.7386	-36.891346	0.000324	3.243933	1.099074	-0.000130
1351	1.3432e+02	-13.7852	-37.012460	0.000304	3.041187	1.030382	-0.000122
1352	1.3442e+02	-13.8173	-37.101277	0.000223	2.230204	0.755614	-0.000089
1353	1.3452e+02	-13.8574	-37.190094	0.000223	2.230204	0.755614	-0.000089
1354	1.3462e+02	-13.8959	-37.315246	0.000314	3.142560	1.064728	-0.000126
1355	1.3472e+02	-13.9360	-37.379840	0.000162	1.621967	0.549537	-0.000065
1356	1.3482e+02	-13.9761	-37.484805	0.000264	2.635696	0.892998	-0.000105
1357	1.3492e+02	-14.0210	-37.630142	0.000365	3.649425	1.236459	-0.000146
1358	1.3502e+02	-14.0611	-37.706848	0.000193	1.926085	0.652575	-0.000077
1359	1.3512e+02	-14.0980	-37.836036	0.000324	3.243933	1.099074	-0.000130
1360	1.3522e+02	-14.1381	-37.916779	0.000203	2.027458	0.686921	-0.000081
1361	1.3532e+02	-14.1798	-38.058079	0.000355	3.548052	1.202113	-0.000142
1362	1.3542e+02	-14.2231	-38.130747	0.000182	1.824712	0.618229	-0.000073
1363	1.3552e+02	-14.2536	-38.251861	0.000304	3.041187	1.030382	-0.000122
1364	1.3562e+02	-14.2969	-38.344715	0.000233	2.331577	0.789960	-0.000093
1365	1.3572e+02	-14.3434	-38.429495	0.000213	2.128831	0.721268	-0.000085
1366	1.3582e+02	-14.3755	-38.522349	0.000233	2.331577	0.789960	-0.000093
1367	1.3592e+02	-14.4204	-38.675760	0.000385	3.852171	1.305151	-0.000154
1368	1.3602e+02	-14.4590	-38.744392	0.000172	1.723340	0.583883	-0.000069
1369	1.3612e+02	-14.4910	-38.873580	0.000324	3.243933	1.099074	-0.000130
1370	1.3622e+02	-14.5392	-38.970471	0.000243	2.432950	0.824306	-0.000097
1371	1.3631e+02	-14.5745	-39.091585	0.000304	3.041187	1.030382	-0.000122
1372	1.3641e+02	-14.6130	-39.184439	0.000233	2.331577	0.789960	-0.000093
1373	1.3651e+02	-14.6482	-39.301516	0.000294	2.939815	0.996036	-0.000118
1374	1.3661e+02	-14.6996	-39.422630	0.000304	3.041187	1.030382	-0.000122
1375	1.3671e+02	-14.7349	-39.483188	0.000152	1.520594	0.515191	-0.000061
1376	1.3681e+02	-14.7798	-39.620450	0.000345	3.446679	1.167766	-0.000138
1377	1.3691e+02	-14.8215	-39.721379	0.000253	2.534323	0.858652	-0.000101
1378	1.3701e+02	-14.8600	-39.846530	0.000314	3.142560	1.064728	-0.000126
1379	1.3711e+02	-14.8985	-39.931310	0.000213	2.128831	0.721268	-0.000085
1380	1.3721e+02	-14.9402	-40.024164	0.000233	2.331577	0.789960	-0.000093
1381	1.3731e+02	-14.9835	-40.125092	0.000253	2.534323	0.858652	-0.000101
1382	1.3741e+02	-15.0092	-40.234095	0.000274	2.737069	0.927344	-0.000110
1383	1.3751e+02	-15.0541	-40.359246	0.000314	3.142560	1.064728	-0.000126
1384	1.3761e+02	-15.0910	-40.427877	0.000172	1.723340	0.583883	-0.000069
1385	1.3771e+02	-15.1247	-40.577251	0.000375	3.750798	1.270805	-0.000150
1386	1.3781e+02	-15.1760	-40.678180	0.000253	2.534323	0.858652	-0.000101
1387	1.3791e+02	-15.2194	-40.799294	0.000304	3.041187	1.030382	-0.000122
1388	1.3801e+02	-15.2563	-40.888111	0.000223	2.230204	0.755614	-0.000089
1389	1.3811e+02	-15.2883	-40.993076	0.000264	2.635696	0.892998	-0.000105
1390	1.3821e+02	-15.3252	-41.065745	0.000182	1.824712	0.618229	-0.000073
1391	1.3831e+02	-15.3702	-41.182822	0.000294	2.939815	0.996036	-0.000118
1392	1.3840e+02	-15.4103	-41.299899	0.000294	2.939815	0.996036	-0.000118
1393	1.3850e+02	-15.4488	-41.429087	0.000324	3.243933	1.099074	-0.000130
1394	1.3860e+02	-15.4969	-41.509830	0.000203	2.027458	0.686921	-0.000081
1395	1.3870e+02	-15.5338	-41.626907	0.000294	2.939815	0.996036	-0.000118
1396	1.3880e+02	-15.5787	-41.695538	0.000172	1.723340	0.583883	-0.000069
1397	1.3890e+02	-15.6092	-41.808578	0.000284	2.838442	0.961690	-0.000114
1398	1.3900e+02	-15.6557	-41.937766	0.000324	3.243933	1.099074	-0.000130
1399	1.3910e+02	-15.6974	-42.018509	0.000203	2.027458	0.686921	-0.000081
1400	1.3920e+02	-15.7359	-42.115400	0.000243	2.432950	0.824306	-0.000097
1401	1.3930e+02	-15.7776	-42.224403	0.000274	2.737069	0.927344	-0.000110
1402	1.3940e+02	-15.8113	-42.325331	0.000253	2.534323	0.858652	-0.000101
1403	1.3950e+02	-15.8482	-42.410111	0.000213	2.128831	0.721268	-0.000085
1404	1.3960e+02	-15.8851	-42.515076	0.000264	2.635696	0.892998	-0.000105
1405	1.3970e+02	-15.9332	-42.603893	0.000223	2.230204	0.755614	-0.000089
1406	1.3980e+02	-15.9605	-42.720970	0.000294	2.939815	0.996036	-0.000118
1407	1.3990e+02	-16.0118	-42.801713	0.000203	2.027458	0.686921	-0.000081
1408	1.4000e+02	-16.0439	-42.914753	0.000284	2.838442	0.961690	-0.000114
1409	1.4010e+02	-16.0905	-43.011644	0.000243	2.432950	0.824306	-0.000097
1410	1.4020e+02	-16.1354	-43.100461	0.000223	2.230204	0.755614	-0.000089
1411	1.4029e+02	-16.1691	-43.217538	0.000294	2.939815	0.996036	-0.000118
1412	1.4039e+02	-16.2156	-43.334615	0.000294	2.939815	0.996036	-0.000118
1413	1.4049e+02	-16.2573	-43.423432	0.000223	2.230204	0.755614	-0.000089
1414	1.4059e+02	-16.2926	-43.532435	0.000274	2.737069	0.927344	-0.000110
1415	1.4069e+02	-16.3311	-43.592992	0.000152	1.520594	0.515191	-0.000061
1416	1.4079e+02	-16.3696	-43.734291	0.000355	3.548052	1.202113	-0.000142
1417	1.4089e+02	-16.4145	-43.883665	0.000375	3.750798	1.270805	-0.000150
1418	1.4099e+02	-16.4482	-43.972482	0.000223	2.230204	0.755614	-0.000089
1419	1.4109e+02	-16.4899	-44.020928	0.000122	1.216475	0.412153	-0.000049
1420	1.4119e+02	-16.5236	-44.154154	0.000335	3.345306	1.133420	-0.000134
1421	1.4129e+02	-16.5653	-44.247008	0.000233	2.331577	0.789960	-0.000093
1422	1.4139e+02	-16.6038	-44.319676	0.000182	1.824712	0.618229	-0.000073
1423	1.4149e+02	-16.6455	-44.408493	0.000223	2.230204	0.755614	-0.000089
1424	1.4159e+02	-16.6904	-44.541719	0.000335	3.345306	1.133420	-0.000134
1425	1.4169e+02	-16.7305	-44.614387	0.000182	1.824712	0.618229	-0.000073
1426	1.4179e+02	-16.7851	-44.703204	0.000223	2.230204	0.755614	-0.000089
1427	1.4189e+02	-16.8059	-44.767798	0.000162	1.621967	0.549537	-0.000065
1428	1.4199e+02	-16.8493	-44.901024	0.000335	3.345306	1.133420	-0.000134
1429	1.4209e+02	-16.8894	-44.965618	0.000162	1.621967	0.549537	-0.000065
1430	1.4219e+02	-16.9327	-45.106918	0.000355	3.548052	1.202113	-0.000142
1431	1.4228e+02	-16.9680	-45.175549	0.000172	1.723340	0.583883	-0.000069
1432	1.4238e+02	-17.0033	-45.280514	0.000264	2.635696	0.892998	-0.000105
1433	1.4248e+02	-17.0418	-45.369331	0.000223	2.230204	0.755614	-0.000089
1434	1.4258e+02	-17.0899	-45.482371	0.000284	2.838442	0.961690	-0.000114
1435	1.4268e+02	-17.1204	-45.603485	0.000304	3.041187	1.030382	-0.000122
1436	1.4278e+02	-17.1669	-45.716525	0.000284	2.838442	0.961690	-0.000114
1437	1.4288e+02	-17.2006	-45.809379	0.000233	2.331577	0.789960	-0.000093
1438	1.4298e+02	-17.2455	-45.966828	0.000395	3.953544	1.339497	-0.000158
1439	1.4308e+02	-17.2872	-45.974902	0.000020	0.202746	0.068692	-0.000008
1440	1.4318e+02	-17.3257	-46.063719	0.000223	2.230204	0.755614	-0.000089
1441	1.4328e+02	-17.3722	-46.144461	0.000203	2.027458	0.686921	-0.000081
1442	1.4338e+02	-17.4075	-46.233278	0.000223	2.230204	0.755614	-0.000089
1443	1.4348e+02	-17.4541	-46.358430	0.000314	3.142560	1.064728	-0.000126
1444	1.4358e+02	-17.4813	-46.447247	0.000223	2.230204	0.755614	-0.000089
1445	1.4368e+02	-17.5198	-46.556249	0.000274	2.737069	0.927344	-0.000110
1446	1.4378e+02	-17.5631	-46.645066	0.000223	2.230204	0.755614	-0.000089
1447	1.4388e+02	-17.6049	-46.733883	0.000223	2.230204	0.755614	-0.000089
1448	1.4398e+02	-17.6514	-46.802515	0.000172	1.723340	0.583883	-0.000069
1449	1.4408e+02	-17.6947	-47.004371	0.000507	5.068646	1.717304	-0.000203
1450	1.4418e+02	-17.7284	-47.032631	0.000071	0.709610	0.240423	-0.000028
1451	1.4428e+02	-17.7733	-47.141634	0.000274	2.737069	0.927344	-0.000110
1452	1.4437e+02	-17.7925	-47.258711	0.000294	2.939815	0.996036	-0.000118
1453	1.4447e+02	-17.8439	-47.379825	0.000304	3.041187	1.030382	-0.000122
1454	1.4457e+02	-17.8792	-47.444419	0.000162	1.621967	0.549537	-0.000065
1455	1.4467e+02	-17.9289	-47.561496	0.000294	2.939815	0.996036	-0.000118
1456	1.4477e+02	-17.9594	-47.642239	0.000203	2.027458	0.686921	-0.000081
1457	1.4487e+02	-18.0011	-47.799687	0.000395	3.953544	1.339497	-0.000158
1458	1.4497e+02	-18.0428	-47.779501	-0.000051	-0.506865	-0.171730	0.000020
1459	1.4507e+02	-18.0861	-47.900616	0.000304	3.041187	1.030382	-0.000122
1460	1.4517e+02	-18.1230	-47.985395	0.000213	2.128831	0.721268	-0.000085
1461	1.4527e+02	-18.1615	-48.078250	0.000233	2.331577	0.789960	-0.000093
1462	1.4537e+02	-18.1968	-48.175141	0.000243	2.432950	0.824306	-0.000097
1463	1.4547e+02	-18.2449	-48.263958	0.000223	2.230204	0.755614	-0.000089
1464	1.4557e+02	-18.2931	-48.368923	0.000264	2.635696	0.892998	-0.000105
1465	1.4567e+02	-18.3235	-48.461777	0.000233	2.331577	0.789960	-0.000093
1466	1.4577e+02	-18.3637	-48.534446	0.000182	1.824712	0.618229	-0.000073
1467	1.4587e+02	-18.4086	-48.655560	0.000304	3.041187	1.030382	-0.000122
1468	1.4597e+02	-18.4471	-48.728228	0.000182	1.824712	0.618229	-0.000073
1469	1.4607e+02	-18.4743	-48.837231	0.000274	2.737069	0.927344	-0.000110
1470	1.4617e+02	-18.5128	-48.938159	0.000253	2.534323	0.858652	-0.000101
1471	1.4626e+02	-18.5626	-49.047162	0.000274	2.737069	0.927344	-0.000110
1472	1.4636e+02	-18.5995	-49.168276	0.000304	3.041187	1.030382	-0.000122
1473	1.4646e+02	-18.6412	-49.277279	0.000274	2.737069	0.927344	-0.000110
1474	1.4656e+02	-18.6877	-49.341873	0.000162	1.621967	0.549537	-0.000065
1475	1.4666e+02	-18.7246	-49.442801	0.000253	2.534323	0.858652	-0.000101
1476	1.4676e+02	-18.7583	-49.467024	0.000061	0.608237	0.206076	-0.000024
1477	1.4686e+02	-18.8032	-49.588138	0.000304	3.041187	1.030382	-0.000122
1478	1.4696e+02	-18.8417	-49.697141	0.000274	2.737069	0.927344	-0.000110
1479	1.4706e+02	-18.8738	-49.769809	0.000182	1.824712	0.618229	-0.000073
1480	1.4716e+02	-18.9155	-49.870738	0.000253	2.534323	0.858652	-0.000101
1481	1.4726e+02	-18.9620	-49.967629	0.000243	2.432950	0.824306	-0.000097
1482	1.4736e+02	-19.0053	-50.076632	0.000274	2.737069	0.927344	-0.000110
1483	1.4746e+02	-19.0503	-50.153337	0.000193	1.926085	0.652575	-0.000077
1484	1.4756e+02	-19.0904	-50.246191	0.000233	2.331577	0.789960	-0.000093
1485	1.4766e+02	-19.1128	-50.367305	0.000304	3.041187	1.030382	-0.000122
1486	1.4776e+02	-19.1658	-50.456122	0.000223	2.230204	0.755614	-0.000089
1487	1.4786e+02	-19.2011	-50.609534	0.000385	3.852171	1.305151	-0.000154
1488	1.4796e+02	-19.2412	-50.698351	0.000223	2.230204	0.755614	-0.000089
1489	1.4806e+02	-19.2668	-50.827539	0.000324	3.243933	1.099074	-0.000130
1490	1.4816e+02	-19.3037	-50.928467	0.000253	2.534323	0.858652	-0.000101
1491	1.4825e+02	-19.3567	-51.005173	0.000193	1.926085	0.652575	-0.000077
1492	1.4835e+02	-19.3968	-51.118213	0.000284	2.838442	0.961690	-0.000114
1493	1.4845e+02	-19.4465	-51.198955	0.000203	2.027458	0.686921	-0.000081
1494	1.4855e+02	-19.4834	-51.283735	0.000213	2.128831	0.721268	-0.000085
1495	1.4865e+02	-19.5251	-51.396775	0.000284	2.838442	0.961690	-0.000114
1496	1.4875e+02	-19.5636	-51.477518	0.000203	2.027458	0.686921	-0.000081
1497	1.4885e+02	-19.6021	-51.558261	0.000203	2.027458	0.686921	-0.000081
1498	1.4895e+02	-19.6294	-51.634966	0.000193	1.926085	0.652575	-0.000077
1499	1.4905e+02	-19.6743	-51.764154	0.000324	3.243933	1.099074	-0.000130
1500	1.4915e+02	-19.7160	-51.840860	0.000193	1.926085	0.652575	-0.000077
1501	1.4925e+02	-19.7513	-51.986197	0.000365	3.649425	1.236459	-0.000146
1502	1.4935e+02	-19.7962	-52.058865	0.000182	1.824712	0.618229	-0.000073
1503	1.4945e+02	-19.8363	-52.216314	0.000395	3.953544	1.339497	-0.000158
1504	1.4955e+02	-19.8716	-52.321279	0.000264	2.635696	0.892998	-0.000105
1505	1.4965e+02	-19.9198	-52.393948	0.000182	1.824712	0.618229	-0.000073
1506	1.4975e+02	-19.9551	-52.543322	0.000375	3.750798	1.270805	-0.000150
1507	1.4985e+02	-19.9968	-52.632139	0.000223	2.230204	0.755614	-0.000089
1508	1.4995e+02	-19.9599	-52.607916	0.000061	0.608237	0.206076	0.000024
1509	1.5005e+02	-19.9037	-52.587730	0.000051	0.506865	0.171730	0.000020
1510	1.5015e+02	-19.8700	-52.506987	0.000203	2.027458	0.686921	0.000081
1511	1.5025e+02	-19.8363	-52.397985	0.000274	2.737069	0.927344	0.000110
1512	1.5034e+02	-19.7882	-52.349539	0.000122	1.216475	0.412153	0.000049
1513	1.5044e+02	-19.7593	-52.268796	0.000203	2.027458	0.686921	0.000081
1514	1.5054e+02	-19.7176	-52.175942	0.000233	2.331577	0.789960	0.000093
1515	1.5064e+02	-19.6807	-52.119422	0.000142	1.419221	0.480845	0.000057
1516	1.5074e+02	-19.6390	-52.095200	0.000061	0.608237	0.206076	0.000024
1517	1.5084e+02	-19.6021	-52.010420	0.000213	2.128831	0.721268	0.000085
1518	1.5094e+02	-19.5540	-51.978123	0.000081	0.810983	0.274769	0.000032
1519	1.5104e+02	-19.5155	-51.889306	0.000223	2.230204	0.755614	0.000089
1520	1.5114e+02	-19.4722	-51.824711	0.000162	1.621967	0.549537	0.000065
1521	1.5124e+02	-19.4321	-51.816637	0.000020	0.202746	0.068692	0.000008
1522	1.5134e+02	-19.3888	-51.752043	0.000162	1.621967	0.549537	0.000065
1523	1.5144e+02	-19.3519	-51.707635	0.000112	1.115102	0.377807	0.000045
1524	1.5154e+02	-19.3166	-51.630929	0.000193	1.926085	0.652575	0.000077
1525	1.5164e+02	-19.2797	-51.517889	0.000284	2.838442	0.961690	0.000114
1526	1.5174e+02	-19.2428	-51.493666	0.000061	0.608237	0.206076	0.000024
1527	1.5184e+02	-19.1882	-51.429072	0.000162	1.621967	0.549537	0.000065
1528	1.5194e+02	-19.1577	-51.328144	0.000253	2.534323	0.858652	0.000101
1529	1.5204e+02	-19.1144	-51.255475	0.000182	1.824712	0.618229	0.000073
1530	1.5214e+02	-19.0791	-51.162621	0.000233	2.331577	0.789960	0.000093
1531	1.5224e+02	-19.0406	-51.029396	0.000335	3.345306	1.133420	0.000134
1532	1.5233e+02	-19.0021	-51.013247	0.000041	0.405492	0.137384	0.000016
1533	1.5243e+02	-18.9588	-50.944616	0.000172	1.723340	0.583883	0.000069
1534	1.5253e+02	-18.9283	-50.843687	0.000253	2.534323	0.858652	0.000101
1535	1.5263e+02	-18.8786	-50.819465	0.000061	0.608237	0.206076	0.000024
1536	1.5273e+02	-18.8353	-50.710462	0.000274	2.737069	0.927344	0.000110
1537	1.5283e+02	-18.8064	-50.641831	0.000172	1.723340	0.583883	0.000069
1538	1.5293e+02	-18.7599	-50.617608	0.000061	0.608237	0.206076	0.000024
1539	1.5303e+02	-18.7198	-50.544939	0.000182	1.824712	0.618229	0.000073
1540	1.5313e+02	-18.6797	-50.480345	0.000162	1.621967	0.549537	0.000065
1541	1.5323e+02	-18.6364	-50.427863	0.000132	1.317848	0.446499	0.000053
1542	1.5333e+02	-18.5931	-50.351157	0.000193	1.926085	0.652575	0.000077
1543	1.5343e+02	-18.5594	-50.294637	0.000142	1.419221	0.480845	0.000057
1544	1.5353e+02	-18.5177	-50.193709	0.000253	2.534323	0.858652	0.000101
1545	1.5363e+02	-18.4824	-50.100855	0.000233	2.331577	0.789960	0.000093
1546	1.5373e+02	-18.4439	-50.028186	0.000182	1.824712	0.618229	0.000073
1547	1.5383e+02	-18.4006	-49.955518	0.000182	1.824712	0.618229	0.000073
1548	1.5393e+02	-18.3604	-49.830366	0.000314	3.142560	1.064728	0.000126
1549	1.5403e+02	-18.3348	-49.769809	0.000152	1.520594	0.515191	0.000061
1550	1.5413e+02	-18.2899	-49.693104	0.000193	1.926085	0.652575	0.000077
1551	1.5422e+02	-18.2498	-49.612361	0.000203	2.027458	0.686921	0.000081
1552	1.5432e+02	-18.2032	-49.567953	0.000112	1.115102	0.377807	0.000045
1553	1.5442e+02	-18.1679	-49.475098	0.000233	2.331577	0.789960	0.000093
1554	1.5452e+02	-18.1262	-49.402430	0.000182	1.824712	0.618229	0.000073
1555	1.5462e+02	-18.0909	-49.386281	0.000041	0.405492	0.137384	0.000016
1556	1.5472e+02	-18.0412	-49.345910	0.000101	1.013729	0.343461	0.000041
1557	1.5482e+02	-18.0043	-49.301502	0.000112	1.115102	0.377807	0.000045
1558	1.5492e+02	-17.9610	-49.168276	0.000335	3.345306	1.133420	0.000134
1559	1.5502e+02	-17.9177	-49.031014	0.000345	3.446679	1.167766	0.000138
1560	1.5512e+02	-17.8824	-48.986605	0.000112	1.115102	0.377807	0.000045
1561	1.5522e+02	-17.8455	-48.942197	0.000112	1.115102	0.377807	0.000045
1562	1.5532e+02	-17.8102	-48.845305	0.000243	2.432950	0.824306	0.000097
1563	1.5542e+02	-17.7621	-48.772637	0.000182	1.824712	0.618229	0.000073
1564	1.5552e+02	-17.7188	-48.671708	0.000253	2.534323	0.858652	0.000101
1565	1.5562e+02	-17.6851	-48.566743	0.000264	2.635696	0.892998	0.000105
1566	1.5572e+02	-17.6498	-48.498112	0.000172	1.723340	0.583883	0.000069
1567	1.5582e+02	-17.6113	-48.421406	0.000193	1.926085	0.652575	0.000077
1568	1.5592e+02	-17.5647	-48.300292	0.000304	3.041187	1.030382	0.000122
1569	1.5602e+02	-17.5278	-48.219549	0.000203	2.027458	0.686921	0.000081
1570	1.5612e+02	-17.4926	-48.138807	0.000203	2.027458	0.686921	0.000081
1571	1.5622e+02	-17.4428	-48.126695	0.000030	0.304119	0.103038	0.000012
1572	1.5631e+02	-17.3995	-48.029804	0.000243	2.432950	0.824306	0.000097
1573	1.5641e+02	-17.3642	-47.940987	0.000223	2.230204	0.755614	0.000089
1574	1.5651e+02	-17.3257	-47.908690	0.000081	0.810983	0.274769	0.000032
1575	1.5661e+02	-17.2792	-47.803724	0.000264	2.635696	0.892998	0.000105
1576	1.5671e+02	-17.2487	-47.714907	0.000223	2.230204	0.755614	0.000089
1577	1.5681e+02	-17.2038	-47.654350	0.000152	1.520594	0.515191	0.000061
1578	1.5691e+02	-17.1733	-47.557459	0.000243	2.432950	0.824306	0.000097
1579	1.5701e+02	-17.1300	-47.472679	0.000213	2.128831	0.721268	0.000085
1580	1.5711e+02	-17.0819	-47.416159	0.000142	1.419221	0.480845	0.000057
1581	1.5721e+02	-17.0402	-47.295045	0.000304	3.041187	1.030382	0.000122
1582	1.5731e+02	-17.0065	-47.202191	0.000233	2.331577	0.789960	0.000093
1583	1.5741e+02	-16.9728	-47.109337	0.000233	2.331577	0.789960	0.000093
1584	1.5751e+02	-16.9263	-47.024557	0.000213	2.128831	0.721268	0.000085
1585	1.5761e+02	-16.8878	-46.935740	0.000223	2.230204	0.755614	0.000089
1586	1.5771e+02	-16.8541	-46.822700	0.000284	2.838442	0.961690	0.000114
1587	1.5781e+02	-16.8011	-46.725809	0.000243	2.432950	0.824306	0.000097
1588	1.5791e+02	-16.7674	-46.701586	0.000061	0.608237	0.206076	0.000024
1589	1.5801e+02	-16.7305	-46.612769	0.000223	2.230204	0.755614	0.000089
1590	1.5811e+02	-16.6904	-46.576435	0.000091	0.912356	0.309115	0.000037
1591	1.5821e+02	-16.6455	-46.499729	0.000193	1.926085	0.652575	0.000077
1592	1.5830e+02	-16.6070	-46.362467	0.000345	3.446679	1.167766	0.000138
1593	1.5840e+02	-16.5765	-46.330170	0.000081	0.810983	0.274769	0.000032
1594	1.5850e+02	-16.5236	-46.225204	0.000264	2.635696	0.892998	0.000105
1595	1.5860e+02	-16.4883	-46.116202	0.000274	2.737069	0.927344	0.000110
1596	1.5870e+02	-16.4466	-46.039496	0.000193	1.926085	0.652575	0.000077
1597	1.5880e+02	-16.4081	-45.970865	0.000172	1.723340	0.583883	0.000069
1598	1.5890e+02	-16.3696	-45.837639	0.000335	3.345306	1.133420	0.000134
1599	1.5900e+02	-16.3263	-45.797268	0.000101	1.013729	0.343461	0.000041
1600	1.5910e+02	-16.2910	-45.647894	0.000375	3.750798	1.270805	0.000150
1601	1.5920e+02	-16.2557	-45.563114	0.000213	2.128831	0.721268	0.000085
1602	1.5930e+02	-16.2220	-45.466223	0.000243	2.432950	0.824306	0.000097
1603	1.5940e+02	-16.1691	-45.373369	0.000233	2.331577	0.789960	0.000093
1604	1.5950e+02	-16.1322	-45.272440	0.000253	2.534323	0.858652	0.000101
1605	1.5960e+02	-16.0953	-45.215920	0.000142	1.419221	0.480845	0.000057
1606	1.5970e+02	-16.0503	-45.127103	0.000223	2.230204	0.755614	0.000089
1607	1.5980e+02	-16.0006	-45.094806	0.000081	0.810983	0.274769	0.000032
1608	1.5990e+02	-15.9717	-44.985804	0.000274	2.737069	0.927344	0.000110
1609	1.6000e+02	-15.9300	-44.933321	0.000132	1.317848	0.446499	0.000053
1610	1.6010e+02	-15.8867	-44.828355	0.000264	2.635696	0.892998	0.000105
1611	1.6019e+02	-15.8514	-44.763761	0.000162	1.621967	0.549537	0.000065
1612	1.6029e+02	-15.8065	-44.642647	0.000304	3.041187	1.030382	0.000122
1613	1.6039e+02	-15.7680	-44.582090	0.000152	1.520594	0.515191	0.000061
1614	1.6049e+02	-15.7247	-44.465013	0.000294	2.939815	0.996036	0.000118
1615	1.6059e+02	-15.6926	-44.384270	0.000203	2.027458	0.686921	0.000081
1616	1.6069e+02	-15.6557	-44.303528	0.000203	2.027458	0.686921	0.000081
1617	1.6079e+02	-15.6060	-44.210673	0.000233	2.331577	0.789960	0.000093
1618	1.6089e+02	-15.5803	-44.109745	0.000253	2.534323	0.858652	0.000101
1619	1.6099e+02	-15.5274	-43.984594	0.000314	3.142560	1.064728	0.000126
1620	1.6109e+02	-15.4857	-43.875591	0.000274	2.737069	0.927344	0.000110
1621	1.6119e+02	-15.4600	-43.823108	0.000132	1.317848	0.446499	0.000053
1622	1.6129e+02	-15.4167	-43.734291	0.000223	2.230204	0.755614	0.000089
1623	1.6139e+02	-15.3750	-43.633363	0.000253	2.534323	0.858652	0.000101
1624	1.6149e+02	-15.3236	-43.548583	0.000213	2.128831	0.721268	0.000085
1625	1.6159e+02	-15.2964	-43.492063	0.000142	1.419221	0.480845	0.000057
1626	1.6169e+02	-15.2514	-43.395172	0.000243	2.432950	0.824306	0.000097
1627	1.6179e+02	-15.2226	-43.286169	0.000274	2.737069	0.927344	0.000110
1628	1.6189e+02	-15.1680	-43.209464	0.000193	1.926085	0.652575	0.000077
1629	1.6199e+02	-15.1311	-43.148907	0.000152	1.520594	0.515191	0.000061
1630	1.6209e+02	-15.0926	-43.003570	0.000365	3.649425	1.236459	0.000146
1631	1.6219e+02	-15.0589	-42.914753	0.000223	2.230204	0.755614	0.000089
1632	1.6228e+02	-15.0124	-42.809787	0.000264	2.635696	0.892998	0.000105
1633	1.6238e+02	-14.9723	-42.720970	0.000223	2.230204	0.755614	0.000089
1634	1.6248e+02	-14.9386	-42.660413	0.000152	1.520594	0.515191	0.000061
1635	1.6258e+02	-14.9081	-42.531225	0.000324	3.243933	1.099074	0.000130
1636	1.6268e+02	-14.8600	-42.418185	0.000284	2.838442	0.961690	0.000114
1637	1.6278e+02	-14.8119	-42.341480	0.000193	1.926085	0.652575	0.000077
1638	1.6288e+02	-14.7798	-42.240551	0.000253	2.534323	0.858652	0.000101
1639	1.6298e+02	-14.7349	-42.099251	0.000355	3.548052	1.202113	0.000142
1640	1.6308e+02	-14.6932	-42.058880	0.000101	1.013729	0.343461	0.000041
1641	1.6318e+02	-14.6563	-41.929692	0.000324	3.243933	1.099074	0.000130
1642	1.6328e+02	-14.6162	-41.861060	0.000172	1.723340	0.583883	0.000069
1643	1.6338e+02	-14.5680	-41.792429	0.000172	1.723340	0.583883	0.000069
1644	1.6348e+02	-14.5360	-41.687464	0.000264	2.635696	0.892998	0.000105
1645	1.6358e+02	-14.4942	-41.622869	0.000162	1.621967	0.549537	0.000065
1646	1.6368e+02	-14.4541	-41.554238	0.000172	1.723340	0.583883	0.000069
1647	1.6378e+02	-14.4156	-41.453310	0.000253	2.534323	0.858652	0.000101
1648	1.6388e+02	-14.3739	-41.332196	0.000304	3.041187	1.030382	0.000122
1649	1.6398e+02	-14.3386	-41.279713	0.000132	1.317848	0.446499	0.000053
1650	1.6408e+02	-14.2985	-41.154562	0.000314	3.142560	1.064728	0.000126
1651	1.6418e+02	-14.2632	-41.089968	0.000162	1.621967	0.549537	0.000065
1652	1.6427e+02	-14.2183	-40.964816	0.000314	3.142560	1.064728	0.000126
1653	1.6437e+02	-14.1670	-40.904259	0.000152	1.520594	0.515191	0.000061
1654	1.6447e+02	-14.1461	-40.799294	0.000264	2.635696	0.892998	0.000105
1655	1.6457e+02	-14.0980	-40.726625	0.000182	1.824712	0.618229	0.000073
1656	1.6467e+02	-14.0643	-40.601474	0.000314	3.142560	1.064728	0.000126
1657	1.6477e+02	-14.0178	-40.476323	0.000314	3.142560	1.064728	0.000126
1658	1.6487e+02	-13.9777	-40.367320	0.000274	2.737069	0.927344	0.000110
1659	1.6497e+02	-13.9424	-40.335023	0.000081	0.810983	0.274769	0.000032
1660	1.6507e+02	-13.8991	-40.254280	0.000203	2.027458	0.686921	0.000081
1661	1.6517e+02	-13.8654	-40.157389	0.000243	2.432950	0.824306	0.000097
1662	1.6527e+02	-13.8317	-40.068572	0.000223	2.230204	0.755614	0.000089
1663	1.6537e+02	-13.7836	-40.024164	0.000112	1.115102	0.377807	0.000045
1664	1.6547e+02	-13.7338	-39.890938	0.000335	3.345306	1.133420	0.000134
1665	1.6557e+02	-13.6985	-39.773861	0.000294	2.939815	0.996036	0.000118
1666	1.6567e+02	-13.6665	-39.717341	0.000142	1.419221	0.480845	0.000057
1667	1.6577e+02	-13.6215	-39.652747	0.000162	1.621967	0.549537	0.000065
1668	1.6587e+02	-13.5814	-39.543745	0.000274	2.737069	0.927344	0.000110
1669	1.6597e+02	-13.5413	-39.446853	0.000243	2.432950	0.824306	0.000097
1670	1.6607e+02	-13.5012	-39.394371	0.000132	1.317848	0.446499	0.000053
1671	1.6616e+02	-13.4691	-39.273256	0.000304	3.041187	1.030382	0.000122
1672	1.6626e+02	-13.4162	-39.168291	0.000264	2.635696	0.892998	0.000105
1673	1.6636e+02	-13.3841	-39.063325	0.000264	2.635696	0.892998	0.000105
1674	1.6646e+02	-13.3424	-38.970471	0.000233	2.331577	0.789960	0.000093
1675	1.6656e+02	-13.3119	-38.869543	0.000253	2.534323	0.858652	0.000101
1676	1.6666e+02	-13.2590	-38.744392	0.000314	3.142560	1.064728	0.000126
1677	1.6676e+02	-13.2189	-38.708057	0.000091	0.912356	0.309115	0.000037
1678	1.6686e+02	-13.1852	-38.631352	0.000193	1.926085	0.652575	0.000077
1679	1.6696e+02	-13.1435	-38.518312	0.000284	2.838442	0.961690	0.000114
1680	1.6706e+02	-13.1002	-38.413347	0.000264	2.635696	0.892998	0.000105
1681	1.6716e+02	-13.0585	-38.377012	0.000091	0.912356	0.309115	0.000037
1682	1.6726e+02	-13.0328	-38.300307	0.000193	1.926085	0.652575	0.000077
1683	1.6736e+02	-12.9782	-38.183230	0.000294	2.939815	0.996036	0.000118
1684	1.6746e+02	-12.9381	-38.122673	0.000152	1.520594	0.515191	0.000061
1685	1.6756e+02	-12.9012	-37.989447	0.000335	3.345306	1.133420	0.000134
1686	1.6766e+02	-12.8708	-37.924853	0.000162	1.621967	0.549537	0.000065
1687	1.6776e+02	-12.8258	-37.795665	0.000324	3.243933	1.099074	0.000130
1688	1.6786e+02	-12.7793	-37.767405	0.000071	0.709610	0.240423	0.000028
1689	1.6796e+02	-12.7537	-37.609957	0.000395	3.953544	1.339497	0.000158
1690	1.6806e+02	-12.7055	-37.573622	0.000091	0.912356	0.309115	0.000037
1691	1.6816e+02	-12.6702	-37.424248	0.000375	3.750798	1.270805	0.000150
1692	1.6825e+02	-12.6237	-37.347543	0.000193	1.926085	0.652575	0.000077
1693	1.6835e+02	-12.5900	-37.250651	0.000243	2.432950	0.824306	0.000097
1694	1.6845e+02	-12.5451	-37.133575	0.000294	2.939815	0.996036	0.000118
1695	1.6855e+02	-12.5050	-37.073017	0.000152	1.520594	0.515191	0.000061
1696	1.6865e+02	-12.4713	-37.024572	0.000122	1.216475	0.412153	0.000049
1697	1.6875e+02	-12.4248	-36.915569	0.000274	2.737069	0.927344	0.000110
1698	1.6885e+02	-12.3847	-36.806567	0.000274	2.737069	0.927344	0.000110
1699	1.6895e+02	-12.3462	-36.770232	0.000091	0.912356	0.309115	0.000037
1700	1.6905e+02	-12.3061	-36.645081	0.000314	3.142560	1.064728	0.000126
1701	1.6915e+02	-12.2676	-36.511856	0.000335	3.345306	1.133420	0.000134
1702	1.6925e+02	-12.2194	-36.427076	0.000213	2.128831	0.721268	0.000085
1703	1.6935e+02	-12.1841	-36.362482	0.000162	1.621967	0.549537	0.000065
1704	1.6945e+02	-12.1521	-36.261553	0.000253	2.534323	0.858652	0.000101
1705	1.6955e+02	-12.1087	-36.168699	0.000233	2.331577	0.789960	0.000093
1706	1.6965e+02	-12.0686	-36.096031	0.000182	1.824712	0.618229	0.000073
1707	1.6975e+02	-12.0253	-35.966842	0.000324	3.243933	1.099074	0.000130
1708	1.6985e+02	-11.9852	-35.882062	0.000213	2.128831	0.721268	0.000085
1709	1.6995e+02	-11.9563	-35.773060	0.000274	2.737069	0.927344	0.000110
1710	1.7005e+02	-11.9034	-35.692317	0.000203	2.027458	0.686921	0.000081
1711	1.7015e+02	-11.8665	-35.591389	0.000253	2.534323	0.858652	0.000101
1712	1.7024e+02	-11.8344	-35.458163	0.000335	3.345306	1.133420	0.000134
1713	1.7034e+02	-11.7799	-35.417792	0.000101	1.013729	0.343461	0.000041
1714	1.7044e+02	-11.7542	-35.373383	0.000112	1.115102	0.377807	0.000045
1715	1.7054e+02	-11.7141	-35.308789	0.000162	1.621967	0.549537	0.000065
1716	1.7064e+02	-11.6612	-35.211898	0.000243	2.432950	0.824306	0.000097
1717	1.7074e+02	-11.6227	-35.094821	0.000294	2.939815	0.996036	0.000118
1718	1.7084e+02	-11.5874	-35.022153	0.000182	1.824712	0.618229	0.000073
1719	1.7094e+02	-11.5553	-34.933336	0.000223	2.230204	0.755614	0.000089
1720	1.7104e+02	-11.5136	-34.832407	0.000253	2.534323	0.858652	0.000101
1721	1.7114e+02	-11.4671	-34.796073	0.000091	0.912356	0.309115	0.000037
1722	1.7124e+02	-11.4366	-34.650736	0.000365	3.649425	1.236459	0.000146
1723	1.7134e+02	-11.3852	-34.525585	0.000314	3.142560	1.064728	0.000126
1724	1.7144e+02	-11.3483	-34.452916	0.000182	1.824712	0.618229	0.000073
1725	1.7154e+02	-11.3098	-34.368137	0.000213	2.128831	0.721268	0.000085
1726	1.7164e+02	-11.2778	-34.275282	0.000233	2.331577	0.789960	0.000093
1727	1.7174e+02	-11.2344	-34.174354	0.000253	2.534323	0.858652	0.000101
1728	1.7184e+02	-11.1927	-34.085537	0.000223	2.230204	0.755614	0.000089
1729	1.7194e+02	-11.1462	-34.020943	0.000162	1.621967	0.549537	0.000065
1730	1.7204e+02	-11.1077	-33.899829	0.000304	3.041187	1.030382	0.000122
1731	1.7213e+02	-11.0740	-33.798900	0.000253	2.534323	0.858652	0.000101
1732	1.7223e+02	-11.0323	-33.746418	0.000132	1.317848	0.446499	0.000053
1733	1.7233e+02	-10.9906	-33.609155	0.000345	3.446679	1.167766	0.000138
1734	1.7243e+02	-10.9569	-33.544561	0.000162	1.621967	0.549537	0.000065
1735	1.7253e+02	-10.9088	-33.427484	0.000294	2.939815	0.996036	0.000118
1736	1.7263e+02	-10.8719	-33.322518	0.000264	2.635696	0.892998	0.000105
1737	1.7273e+02	-10.8334	-33.270036	0.000132	1.317848	0.446499	0.000053
1738	1.7283e+02	-10.7949	-33.169107	0.000253	2.534323	0.858652	0.000101
1739	1.7293e+02	-10.7484	-33.031845	0.000345	3.446679	1.167766	0.000138
1740	1.7303e+02	-10.7195	-32.918805	0.000284	2.838442	0.961690	0.000114
1741	1.7313e+02	-10.6762	-32.878433	0.000101	1.013729	0.343461	0.000041
1742	1.7323e+02	-10.6361	-32.749245	0.000324	3.243933	1.099074	0.000130
1743	1.7333e+02	-10.5960	-32.688688	0.000152	1.520594	0.515191	0.000061
1744	1.7343e+02	-10.5494	-32.539314	0.000375	3.750798	1.270805	0.000150
1745	1.7353e+02	-10.5206	-32.486831	0.000132	1.317848	0.446499	0.000053
1746	1.7363e+02	-10.4692	-32.410126	0.000193	1.926085	0.652575	0.000077
1747	1.7373e+02	-10.4275	-32.272863	0.000345	3.446679	1.167766	0.000138
1748	1.7383e+02	-10.3938	-32.196158	0.000193	1.926085	0.652575	0.000077
1749	1.7393e+02	-10.3505	-32.103303	0.000233	2.331577	0.789960	0.000093
1750	1.7403e+02	-10.3184	-31.982189	0.000304	3.041187	1.030382	0.000122
1751	1.7413e+02	-10.2751	-31.897409	0.000213	2.128831	0.721268	0.000085
1752	1.7422e+02	-10.2366	-31.784370	0.000284	2.838442	0.961690	0.000114
1753	1.7432e+02	-10.1901	-31.683441	0.000253	2.534323	0.858652	0.000101
1754	1.7442e+02	-10.1612	-31.634996	0.000122	1.216475	0.412153	0.000049
1755	1.7452e+02	-10.1147	-31.457362	0.000446	4.460408	1.511227	0.000179
1756	1.7462e+02	-10.0826	-31.396805	0.000152	1.520594	0.515191	0.000061
1757	1.7472e+02	-10.0329	-31.328173	0.000172	1.723340	0.583883	0.000069
1758	1.7482e+02	-9.9976	-31.198985	0.000324	3.243933	1.099074	0.000130
1759	1.7492e+02	-9.9639	-31.106131	0.000233	2.331577	0.789960	0.000093
1760	1.7502e+02	-9.9110	-31.005202	0.000253	2.534323	0.858652	0.000101
1761	1.7512e+02	-9.8789	-30.916385	0.000223	2.230204	0.755614	0.000089
1762	1.7522e+02	-9.8356	-30.827568	0.000223	2.230204	0.755614	0.000089
1763	1.7532e+02	-9.7954	-30.722603	0.000264	2.635696	0.892998	0.000105
1764	1.7542e+02	-9.7585	-30.613600	0.000274	2.737069	0.927344	0.000110
1765	1.7552e+02	-9.7104	-30.528820	0.000213	2.128831	0.721268	0.000085
1766	1.7562e+02	-9.6767	-30.387521	0.000355	3.548052	1.202113	0.000142
1767	1.7572e+02	-9.6318	-30.314852	0.000182	1.824712	0.618229	0.000073
1768	1.7582e+02	-9.5917	-30.177590	0.000345	3.446679	1.167766	0.000138
1769	1.7592e+02	-9.5660	-30.117033	0.000152	1.520594	0.515191	0.000061
1770	1.7602e+02	-9.5179	-30.020141	0.000243	2.432950	0.824306	0.000097
1771	1.7612e+02	-9.4746	-29.923250	0.000243	2.432950	0.824306	0.000097
1772	1.7621e+02	-9.4281	-29.798099	0.000314	3.142560	1.064728	0.000126
1773	1.7631e+02	-9.3960	-29.705245	0.000233	2.331577	0.789960	0.000093
1774	1.7641e+02	-9.3623	-29.572019	0.000335	3.345306	1.133420	0.000134
1775	1.7651e+02	-9.3222	-29.523574	0.000122	1.216475	0.412153	0.000049
1776	1.7661e+02	-9.2853	-29.390348	0.000335	3.345306	1.133420	0.000134
1777	1.7671e+02	-9.2356	-29.321717	0.000172	1.723340	0.583883	0.000069
1778	1.7681e+02	-9.1987	-29.192529	0.000324	3.243933	1.099074	0.000130
1779	1.7691e+02	-9.1618	-29.119860	0.000182	1.824712	0.618229	0.000073
1780	1.7701e+02	-9.1120	-29.027006	0.000233	2.331577	0.789960	0.000093
1781	1.7711e+02	-9.0751	-28.905892	0.000304	3.041187	1.030382	0.000122
1782	1.7721e+02	-9.0318	-28.857446	0.000122	1.216475	0.412153	0.000049
1783	1.7731e+02	-8.9981	-28.732295	0.000314	3.142560	1.064728	0.000126
1784	1.7741e+02	-8.9580	-28.611181	0.000304	3.041187	1.030382	0.000122
1785	1.7751e+02	-8.9227	-28.498141	0.000284	2.838442	0.961690	0.000114
1786	1.7761e+02	-8.8730	-28.393176	0.000264	2.635696	0.892998	0.000105
1787	1.7771e+02	-8.8393	-28.272062	0.000304	3.041187	1.030382	0.000122
1788	1.7781e+02	-8.8024	-28.171133	0.000253	2.534323	0.858652	0.000101
1789	1.7791e+02	-8.7559	-28.098465	0.000182	1.824712	0.618229	0.000073
1790	1.7801e+02	-8.7190	-27.981388	0.000294	2.939815	0.996036	0.000118
1791	1.7810e+02	-8.6773	-27.880459	0.000253	2.534323	0.858652	0.000101
1792	1.7820e+02	-8.6372	-27.783568	0.000243	2.432950	0.824306	0.000097
1793	1.7830e+02	-8.6067	-27.690714	0.000233	2.331577	0.789960	0.000093
1794	1.7840e+02	-8.5762	-27.553451	0.000345	3.446679	1.167766	0.000138
1795	1.7850e+02	-8.5265	-27.480783	0.000182	1.824712	0.618229	0.000073
1796	1.7860e+02	-8.4816	-27.363706	0.000294	2.939815	0.996036	0.000118
1797	1.7870e+02	-8.4575	-27.242592	0.000304	3.041187	1.030382	0.000122
1798	1.7880e+02	-8.3998	-27.190109	0.000132	1.317848	0.446499	0.000053
1799	1.7890e+02	-8.3500	-27.085144	0.000264	2.635696	0.892998	0.000105
1800	1.7900e+02	-8.3260	-27.000364	0.000213	2.128831	0.721268	0.000085
1801	1.7910e+02	-8.2891	-26.911547	0.000223	2.230204	0.755614	0.000089
1802	1.7920e+02	-8.2458	-26.766210	0.000365	3.649425	1.236459	0.000146
1803	1.7930e+02	-8.2057	-26.653170	0.000284	2.838442	0.961690	0.000114
1804	1.7940e+02	-8.1655	-26.475536	0.000446	4.460408	1.511227	0.000179
1805	1.7950e+02	-8.1126	-26.419016	0.000142	1.419221	0.480845	0.000057
1806	1.7960e+02	-8.0789	-26.326162	0.000233	2.331577	0.789960	0.000093
1807	1.7970e+02	-8.0452	-26.164677	0.000405	4.054917	1.373843	0.000162
1808	1.7980e+02	-8.0019	-26.104120	0.000152	1.520594	0.515191	0.000061
1809	1.7990e+02	-7.9714	-25.983006	0.000304	3.041187	1.030382	0.000122
1810	1.8000e+02	-7.9281	-25.865929	0.000294	2.939815	0.996036	0.000118
1811	1.8009e+02	-7.8848	-25.756926	0.000274	2.737069	0.927344	0.000110
1812	1.8019e+02	-7.8383	-25.688295	0.000172	1.723340	0.583883	0.000069
1813	1.8029e+02	-7.8078	-25.583329	0.000264	2.635696	0.892998	0.000105
1814	1.8039e+02	-7.7581	-25.450104	0.000335	3.345306	1.133420	0.000134
1815	1.8049e+02	-7.7196	-25.397621	0.000132	1.317848	0.446499	0.000053
1816	1.8059e+02	-7.6811	-25.276507	0.000304	3.041187	1.030382	0.000122
1817	1.8069e+02	-7.6490	-25.195764	0.000203	2.027458	0.686921	0.000081
1818	1.8079e+02	-7.6009	-25.135207	0.000152	1.520594	0.515191	0.000061
1819	1.8089e+02	-7.5704	-25.038316	0.000243	2.432950	0.824306	0.000097
1820	1.8099e+02	-7.5174	-24.892979	0.000365	3.649425	1.236459	0.000146
1821	1.8109e+02	-7.4821	-24.783976	0.000274	2.737069	0.927344	0.000110
1822	1.8119e+02	-7.4420	-24.695159	0.000223	2.230204	0.755614	0.000089
1823	1.8129e+02	-7.4003	-24.586157	0.000274	2.737069	0.927344	0.000110
1824	1.8139e+02	-7.3586	-24.448894	0.000345	3.446679	1.167766	0.000138
1825	1.8149e+02	-7.3169	-24.376226	0.000182	1.824712	0.618229	0.000073
1826	1.8159e+02	-7.2800	-24.226852	0.000375	3.750798	1.270805	0.000150
1827	1.8169e+02	-7.2511	-24.154183	0.000182	1.824712	0.618229	0.000073
1828	1.8179e+02	-7.2094	-24.045180	0.000274	2.737069	0.927344	0.000110
1829	1.8189e+02	-7.1661	-23.956363	0.000223	2.230204	0.755614	0.000089
1830	1.8199e+02	-7.1228	-23.835249	0.000304	3.041187	1.030382	0.000122
1831	1.8209e+02	-7.0955	-23.742395	0.000233	2.331577	0.789960	0.000093
1832	1.8218e+02	-7.0506	-23.641467	0.000253	2.534323	0.858652	0.000101
1833	1.8228e+02	-7.0009	-23.536501	0.000264	2.635696	0.892998	0.000105
1834	1.8238e+02	-6.9704	-23.455759	0.000203	2.027458	0.686921	0.000081
1835	1.8248e+02	-6.9223	-23.358867	0.000243	2.432950	0.824306	0.000097
1836	1.8258e+02	-6.8966	-23.310422	0.000122	1.216475	0.412153	0.000049
1837	1.8268e+02	-6.8356	-23.144899	0.000416	4.156290	1.408189	0.000166
1838	1.8278e+02	-6.8036	-23.068194	0.000193	1.926085	0.652575	0.000077
1839	1.8288e+02	-6.7650	-22.959191	0.000274	2.737069	0.927344	0.000110
1840	1.8298e+02	-6.7346	-22.817891	0.000355	3.548052	1.202113	0.000142
1841	1.8308e+02	-6.6945	-22.733111	0.000213	2.128831	0.721268	0.000085
1842	1.8318e+02	-6.6544	-22.599886	0.000335	3.345306	1.133420	0.000134
1843	1.8328e+02	-6.5982	-22.535292	0.000162	1.621967	0.549537	0.000065
1844	1.8338e+02	-6.5725	-22.414178	0.000304	3.041187	1.030382	0.000122
1845	1.8348e+02	-6.5244	-22.341509	0.000182	1.824712	0.618229	0.000073
1846	1.8358e+02	-6.4875	-22.192135	0.000375	3.750798	1.270805	0.000150
1847	1.8368e+02	-6.4570	-22.107355	0.000213	2.128831	0.721268	0.000085
1848	1.8378e+02	-6.4185	-22.002390	0.000264	2.635696	0.892998	0.000105
1849	1.8388e+02	-6.3784	-21.917610	0.000213	2.128831	0.721268	0.000085
1850	1.8398e+02	-6.3415	-21.832830	0.000213	2.128831	0.721268	0.000085
1851	1.8407e+02	-6.2950	-21.739976	0.000233	2.331577	0.789960	0.000093
1852	1.8417e+02	-6.2581	-21.602713	0.000345	3.446679	1.167766	0.000138
1853	1.8427e+02	-6.2148	-21.534082	0.000172	1.723340	0.583883	0.000069
1854	1.8437e+02	-6.1683	-21.477562	0.000142	1.419221	0.480845	0.000057
1855	1.8447e+02	-6.1378	-21.364522	0.000284	2.838442	0.961690	0.000114
1856	1.8457e+02	-6.0897	-21.283780	0.000203	2.027458	0.686921	0.000081
1857	1.8467e+02	-6.0528	-21.186888	0.000243	2.432950	0.824306	0.000097
1858	1.8477e+02	-6.0191	-21.021366	0.000416	4.156290	1.408189	0.000166
1859	1.8487e+02	-5.9758	-20.884103	0.000345	3.446679	1.167766	0.000138
1860	1.8497e+02	-5.9373	-20.803360	0.000203	2.027458	0.686921	0.000081
1861	1.8507e+02	-5.8940	-20.718581	0.000213	2.128831	0.721268	0.000085
1862	1.8517e+02	-5.8571	-20.617652	0.000253	2.534323	0.858652	0.000101
1863	1.8527e+02	-5.8282	-20.472315	0.000365	3.649425	1.236459	0.000146
1864	1.8537e+02	-5.7704	-20.391573	0.000203	2.027458	0.686921	0.000081
1865	1.8547e+02	-5.7319	-20.302756	0.000223	2.230204	0.755614	0.000089
1866	1.8557e+02	-5.6902	-20.193753	0.000274	2.737069	0.927344	0.000110
1867	1.8567e+02	-5.6565	-20.092825	0.000253	2.534323	0.858652	0.000101
1868	1.8577e+02	-5.6132	-19.971710	0.000304	3.041187	1.030382	0.000122
1869	1.8587e+02	-5.5731	-19.874819	0.000243	2.432950	0.824306	0.000097
1870	1.8597e+02	-5.5330	-19.769854	0.000264	2.635696	0.892998	0.000105
1871	1.8606e+02	-5.4961	-19.705260	0.000162	1.621967	0.549537	0.000065
1872	1.8616e+02	-5.4640	-19.596257	0.000274	2.737069	0.927344	0.000110
1873	1.8626e+02	-5.4095	-19.519551	0.000193	1.926085	0.652575	0.000077
1874	1.8636e+02	-5.3790	-19.434771	0.000213	2.128831	0.721268	0.000085
1875	1.8646e+02	-5.3309	-19.301546	0.000335	3.345306	1.133420	0.000134
1876	1.8656e+02	-5.2972	-19.144098	0.000395	3.953544	1.339497	0.000158
1877	1.8666e+02	-5.2555	-19.091615	0.000132	1.317848	0.446499	0.000053
1878	1.8676e+02	-5.2105	-18.986649	0.000264	2.635696	0.892998	0.000105
1879	1.8686e+02	-5.1881	-18.865535	0.000304	3.041187	1.030382	0.000122
1880	1.8696e+02	-5.1416	-18.780755	0.000213	2.128831	0.721268	0.000085
1881	1.8706e+02	-5.1015	-18.663679	0.000294	2.939815	0.996036	0.000118
1882	1.8716e+02	-5.0630	-18.578899	0.000213	2.128831	0.721268	0.000085
1883	1.8726e+02	-5.0148	-18.469896	0.000274	2.737069	0.927344	0.000110
1884	1.8736e+02	-4.9827	-18.377042	0.000233	2.331577	0.789960	0.000093
1885	1.8746e+02	-4.9314	-18.227668	0.000375	3.750798	1.270805	0.000150
1886	1.8756e+02	-4.8977	-18.179222	0.000122	1.216475	0.412153	0.000049
1887	1.8766e+02	-4.8592	-18.029848	0.000375	3.750798	1.270805	0.000150
1888	1.8776e+02	-4.8223	-17.981403	0.000122	1.216475	0.412153	0.000049
1889	1.8786e+02	-4.7742	-17.864326	0.000294	2.939815	0.996036	0.000118
1890	1.8796e+02	-4.7373	-17.827991	0.000091	0.912356	0.309115	0.000037
1891	1.8806e+02	-4.7004	-17.718989	0.000274	2.737069	0.927344	0.000110
1892	1.8815e+02	-4.6587	-17.609986	0.000274	2.737069	0.927344	0.000110
1893	1.8825e+02	-4.6170	-17.505021	0.000264	2.635696	0.892998	0.000105
1894	1.8835e+02	-4.5769	-17.359684	0.000365	3.649425	1.236459	0.000146
1895	1.8845e+02	-4.5416	-17.274904	0.000213	2.128831	0.721268	0.000085
1896	1.8855e+02	-4.4999	-17.149753	0.000314	3.142560	1.064728	0.000126
1897	1.8865e+02	-4.4534	-17.060936	0.000223	2.230204	0.755614	0.000089
1898	1.8875e+02	-4.4197	-16.935784	0.000314	3.142560	1.064728	0.000126
1899	1.8885e+02	-4.3780	-16.822745	0.000284	2.838442	0.961690	0.000114
1900	1.8895e+02	-4.3346	-16.733928	0.000223	2.230204	0.755614	0.000089
1901	1.8905e+02	-4.2977	-16.628962	0.000264	2.635696	0.892998	0.000105
1902	1.8915e+02	-4.2576	-16.463440	0.000416	4.156290	1.408189	0.000166
1903	1.8925e+02	-4.2191	-16.386734	0.000193	1.926085	0.652575	0.000077
1904	1.8935e+02	-4.1838	-16.289843	0.000243	2.432950	0.824306	0.000097
1905	1.8945e+02	-4.1389	-16.213137	0.000193	1.926085	0.652575	0.000077
1906	1.8955e+02	-4.0988	-16.100097	0.000284	2.838442	0.961690	0.000114
1907	1.8965e+02	-4.0475	-15.987058	0.000284	2.838442	0.961690	0.000114
1908	1.8975e+02	-4.0154	-15.974946	0.000030	0.304119	0.103038	0.000012
1909	1.8985e+02	-3.9753	-15.813461	0.000405	4.054917	1.373843	0.000162
1910	1.8995e+02	-3.9352	-15.700421	0.000284	2.838442	0.961690	0.000114
1911	1.9004e+02	-3.9015	-15.639864	0.000152	1.520594	0.515191	0.000061
1912	1.9014e+02	-3.8694	-15.462230	0.000446	4.460408	1.511227	0.000179
1913	1.9024e+02	-3.8261	-15.324967	0.000345	3.446679	1.167766	0.000138
1914	1.9034e+02	-3.7860	-15.232113	0.000233	2.331577	0.789960	0.000093
1915	1.9044e+02	-3.7347	-15.086776	0.000365	3.649425	1.236459	0.000146
1916	1.9054e+02	-3.7106	-15.006034	0.000203	2.027458	0.686921	0.000081
1917	1.9064e+02	-3.6593	-14.876845	0.000324	3.243933	1.099074	0.000130
1918	1.9074e+02	-3.6288	-14.767843	0.000274	2.737069	0.927344	0.000110
1919	1.9084e+02	-3.5951	-14.687100	0.000203	2.027458	0.686921	0.000081
1920	1.9094e+02	-3.5373	-14.541763	0.000365	3.649425	1.236459	0.000146
1921	1.9104e+02	-3.5101	-14.456983	0.000213	2.128831	0.721268	0.000085
1922	1.9114e+02	-3.4700	-14.352018	0.000264	2.635696	0.892998	0.000105
1923	1.9124e+02	-3.4282	-14.271275	0.000203	2.027458	0.686921	0.000081
1924	1.9134e+02	-3.3849	-14.170346	0.000253	2.534323	0.858652	0.000101
1925	1.9144e+02	-3.3400	-14.085567	0.000213	2.128831	0.721268	0.000085
1926	1.9154e+02	-3.2999	-13.956378	0.000324	3.243933	1.099074	0.000130
1927	1.9164e+02	-3.2614	-13.895821	0.000152	1.520594	0.515191	0.000061
1928	1.9174e+02	-3.2213	-13.758559	0.000345	3.446679	1.167766	0.000138
1929	1.9184e+02	-3.1732	-13.661667	0.000243	2.432950	0.824306	0.000097
1930	1.9194e+02	-3.1507	-13.516330	0.000365	3.649425	1.236459	0.000146
1931	1.9203e+02	-3.1058	-13.379068	0.000345	3.446679	1.167766	0.000138
1932	1.9213e+02	-3.0609	-13.286214	0.000233	2.331577	0.789960	0.000093
1933	1.9223e+02	-3.0224	-13.177211	0.000274	2.737069	0.927344	0.000110
1934	1.9233e+02	-2.9807	-13.015726	0.000405	4.054917	1.373843	0.000162
1935	1.9243e+02	-2.9502	-12.959206	0.000142	1.419221	0.480845	0.000057
1936	1.9253e+02	-2.9117	-12.821943	0.000345	3.446679	1.167766	0.000138
1937	1.9263e+02	-2.8636	-12.708903	0.000284	2.838442	0.961690	0.000114
1938	1.9273e+02	-2.8267	-12.607975	0.000253	2.534323	0.858652	0.000101
1939	1.9283e+02	-2.7849	-12.494935	0.000284	2.838442	0.961690	0.000114
1940	1.9293e+02	-2.7416	-12.357672	0.000345	3.446679	1.167766	0.000138
1941	1.9303e+02	-2.7160	-12.280967	0.000193	1.926085	0.652575	0.000077
1942	1.9313e+02	-2.6614	-12.151779	0.000324	3.243933	1.099074	0.000130
1943	1.9323e+02	-2.6181	-12.091222	0.000152	1.520594	0.515191	0.000061
1944	1.9333e+02	-2.5876	-12.002405	0.000223	2.230204	0.755614	0.000089
1945	1.9343e+02	-2.5411	-11.921662	0.000203	2.027458	0.686921	0.000081
1946	1.9353e+02	-2.5106	-11.764214	0.000395	3.953544	1.339497	0.000158
1947	1.9363e+02	-2.4753	-11.643099	0.000304	3.041187	1.030382	0.000122
1948	1.9373e+02	-2.4320	-11.509874	0.000335	3.345306	1.133420	0.000134
1949	1.9383e+02	-2.3887	-11.368574	0.000355	3.548052	1.202113	0.000142
1950	1.9393e+02	-2.3534	-11.255534	0.000284	2.838442	0.961690	0.000114
1951	1.9403e+02	-2.3069	-11.170755	0.000213	2.128831	0.721268	0.000085
1952	1.9412e+02	-2.2684	-11.077900	0.000233	2.331577	0.789960	0.000093
1953	1.9422e+02	-2.2283	-10.968898	0.000274	2.737069	0.927344	0.000110
1954	1.9432e+02	-2.1882	-10.839709	0.000324	3.243933	1.099074	0.000130
1955	1.9442e+02	-2.1497	-10.714558	0.000314	3.142560	1.064728	0.000126
1956	1.9452e+02	-2.1048	-10.605556	0.000274	2.737069	0.927344	0.000110
1957	1.9462e+02	-2.0711	-10.500590	0.000264	2.635696	0.892998	0.000105
1958	1.9472e+02	-2.0342	-10.383513	0.000294	2.939815	0.996036	0.000118
1959	1.9482e+02	-1.9860	-10.266436	0.000294	2.939815	0.996036	0.000118
1960	1.9492e+02	-1.9524	-10.149359	0.000294	2.939815	0.996036	0.000118
1961	1.9502e+02	-1.9074	-10.044394	0.000264	2.635696	0.892998	0.000105
1962	1.9512e+02	-1.8673	-9.995948	0.000122	1.216475	0.412153	0.000049
1963	1.9522e+02	-1.8304	-9.850611	0.000365	3.649425	1.236459	0.000146
1964	1.9532e+02	-1.7887	-9.717386	0.000335	3.345306	1.133420	0.000134
1965	1.9542e+02	-1.7454	-9.547826	0.000426	4.257662	1.442535	0.000170
1966	1.9552e+02	-1.7085	-9.450935	0.000243	2.432950	0.824306	0.000097
1967	1.9562e+02	-1.6684	-9.354044	0.000243	2.432950	0.824306	0.000097
1968	1.9572e+02	-1.6347	-9.228892	0.000314	3.142560	1.064728	0.000126
1969	1.9582e+02	-1.5914	-9.119890	0.000274	2.737069	0.927344	0.000110
1970	1.9592e+02	-1.5561	-9.010887	0.000274	2.737069	0.927344	0.000110
1971	1.9601e+02	-1.5176	-8.905921	0.000264	2.635696	0.892998	0.000105
1972	1.9611e+02	-1.4647	-8.744436	0.000405	4.054917	1.373843	0.000162
1973	1.9621e+02	-1.4342	-8.631396	0.000284	2.838442	0.961690	0.000114
1974	1.9631e+02	-1.3925	-8.538542	0.000233	2.331577	0.789960	0.000093
1975	1.9641e+02	-1.3540	-8.385131	0.000385	3.852171	1.305151	0.000154
1976	1.9651e+02	-1.3074	-8.284203	0.000253	2.534323	0.858652	0.000101
1977	1.9661e+02	-1.2689	-8.163088	0.000304	3.041187	1.030382	0.000122
1978	1.9671e+02	-1.2272	-8.074271	0.000223	2.230204	0.755614	0.000089
1979	1.9681e+02	-1.1887	-7.945083	0.000324	3.243933	1.099074	0.000130
1980	1.9691e+02	-1.1567	-7.900675	0.000112	1.115102	0.377807	0.000045
1981	1.9701e+02	-1.1101	-7.763412	0.000345	3.446679	1.167766	0.000138
1982	1.9711e+02	-1.0684	-7.682669	0.000203	2.027458	0.686921	0.000081
1983	1.9721e+02	-1.0299	-7.581741	0.000253	2.534323	0.858652	0.000101
1984	1.9731e+02	-0.9930	-7.387958	0.000487	4.865900	1.648612	0.000195
1985	1.9741e+02	-0.9449	-7.282993	0.000264	2.635696	0.892998	0.000105
1986	1.9751e+02	-0.9160	-7.190139	0.000233	2.331577	0.789960	0.000093
1987	1.9761e+02	-0.8759	-7.077099	0.000284	2.838442	0.961690	0.000114
1988	1.9771e+02	-0.8342	-6.968096	0.000274	2.737069	0.927344	0.000110
1989	1.9781e+02	-0.7925	-6.814685	0.000385	3.852171	1.305151	0.000154
1990	1.9791e+02	-0.7572	-6.742017	0.000182	1.824712	0.618229	0.000073
1991	1.9800e+02	-0.7155	-6.612828	0.000324	3.243933	1.099074	0.000130
1992	1.9810e+02	-0.6706	-6.511900	0.000253	2.534323	0.858652	0.000101
1993	1.9820e+02	-0.6305	-6.390786	0.000304	3.041187	1.030382	0.000122
1994	1.9830e+02	-0.5952	-6.306006	0.000213	2.128831	0.721268	0.000085
1995	1.9840e+02	-0.5631	-6.188929	0.000294	2.939815	0.996036	0.000118
1996	1.9850e+02	-0.5005	-6.035518	0.000385	3.852171	1.305151	0.000154
1997	1.9860e+02	-0.4716	-5.958812	0.000193	1.926085	0.652575	0.000077
1998	1.9870e+02	-0.4347	-5.878070	0.000203	2.027458	0.686921	0.000081
1999	1.9880e+02	-0.3930	-5.801364	0.000193	1.926085	0.652575	0.000077
2000	1.9890e+02	-0.3513	-5.623730	0.000446	4.460408	1.511227	0.000179
2001	1.9900e+02	-0.3176	-5.522802	0.000253	2.534323	0.858652	0.000101
2002	1.9910e+02	-0.2711	-5.409762	0.000284	2.838442	0.961690	0.000114
2003	1.9920e+02	-0.2262	-5.276536	0.000335	3.345306	1.133420	0.000134
2004	1.9930e+02	-0.1893	-5.167534	0.000274	2.737069	0.927344	0.000110
2005	1.9940e+02	-0.1556	-5.026234	0.000355	3.548052	1.202113	0.000142
2006	1.9950e+02	-0.1203	-4.893009	0.000335	3.345306	1.133420	0.000134
2007	1.9960e+02	-0.0706	-4.779969	0.000284	2.838442	0.961690	0.000114
2008	1.9970e+02	-0.0401	-4.687115	0.000233	2.331577	0.789960	0.000093
2009	1.9980e+02	0.0000	-4.586186	0.000233	2.331577	0.789960	0.000101

PMax (uC/cm2):	5.51e+01
Pr (uC/cm2):	3.08e+00
-Pr (uC/cm2):	-2.16e+00
PLoss (uC/cm2):	-2.18e+00
-Vc:	-1.06e+00
C (Max-Eff) (nF):	2.75e-01
K (Eff):	9.33e+02
Vert. (+/-Pr) Shift (uC/cm2):	4.57e-01
Offset (uC/cm2):	2.42e+00

A (Loop Area - uC/cm2·Volts):	9.88e-03



Hysteresis Version: 5.48.1 - Radiant Technologies, Inc., 1999 - 9/12/24

