»»»»»»»»»»»»»»»»»»»»»»»»»»»»»»»»»»»» Hysteresis ««««««««««««««««««««««««««««««««««««
»»»  Executed Version:	5.48.1
»»»  Vision Version:	5.48.4 (R)
»»»  Vision Compiled:	9/18/24
»»»  Driver Version:	5.47.0
»»»  Windows Version:	Windows 8 or 8.1
»»»  Processor Information:	x86 (AMD or Intel) - 32 Processors
»»»  Tester Name:	PMF21124-494 (100V)
»»»  Tester S/N:	PMF21124-494
»»»  Internal Amp Type:	100V RevK 270k
»»»  Internal Amp S/N:	iAB2-596/K     
»»»  Execution Count:	1
»»»»»»»»»»»»»»»»»»»»»»»»»»»»»»»»»»»»»»»»»»««««««««««««««««««««««««««««««««««««««««««

Stored:	6/18/2025 - 18:47:15
Configured:	06/18/25 09:47:30 AM
Executed:	06/18/25 06:46:50 PM

»»»»»»»»»»»»»»»»»»»»»»»»»»»»»»»»»»» Sample Info ««««««««««««««««««««««««««««««««««««
Sample Name:	
Lot Name:	
Wafer Name:	
Die Row/Column:	0/0
Capacitor Number:	0
Sample Area (cm2):	1.00e-04
Sample Thickness (microns):	3.00e-01

Amplifier:	Internal

»»»»»»»»»»»»»»»»»»»»»»»»»»»»»»»»»»» Tester Info «««««««««««««««««««««««««««««««««««
Tester Name:	PMF21124-494 (100V)
Tester Serial Number:	PMF21124-494
Return Signal Amp. Level:	0.19 [Index: 3]

»»»»»»»»»»»»»»»»»»»»»»»»»»»»»»»» Hysteresis Info ««««««««««««««««««««««««««««««««««
Task Name:	Hyst-554
Volts:	20.00
Field:	666.67 (kV/cm)
DCBias:	0.00
DCField:	0.00 (kV/cm)
Hysteresis Period (ms):	2.00e+02
Preset:	Enabled
Preset Delay (ms):	1.00e+03
Profile:	Standard Bipolar

»»»»»»»»»»»»»»»»»»»»»»»»»»»»»»»»»»»»»» Data «««««««««««««««««««««««««««««««««««««««
Points:	2009

Valid Data

Point	Time (ms)	Drive Voltage	Measured Polarization (uC/cm2)	Capacitance (uF)	Normalized Capacitance (uF/cm2)	Dielectric Constant	Instantaneous Current (mA)
   1	0.0000e+00	0.0048	-2.176016	0.000142	1.418794	0.480700	0.000057
   2	9.9500e-02	0.0465	-2.119496	0.000142	1.418794	0.480700	0.000057
   3	1.9900e-01	0.0786	-2.010494	0.000274	2.736245	0.927065	0.000110
   4	2.9850e-01	0.1171	-1.917639	0.000233	2.330876	0.789722	0.000093
   5	3.9800e-01	0.1444	-1.881305	0.000091	0.912082	0.309022	0.000037
   6	4.9750e-01	0.2005	-1.731931	0.000375	3.749670	1.270422	0.000150
   7	5.9700e-01	0.2454	-1.655226	0.000193	1.925506	0.652379	0.000077
   8	6.9650e-01	0.2631	-1.574483	0.000203	2.026848	0.686715	0.000081
   9	7.9600e-01	0.3241	-1.449332	0.000314	3.141615	1.064408	0.000126
  10	8.9550e-01	0.3593	-1.332255	0.000294	2.938930	0.995736	0.000118
  11	9.9500e-01	0.3914	-1.251512	0.000203	2.026848	0.686715	0.000081
  12	1.0945e+00	0.4428	-1.077915	0.000436	4.357724	1.476437	0.000174
  13	1.1940e+00	0.4749	-0.960838	0.000294	2.938930	0.995736	0.000118
  14	1.2935e+00	0.5118	-0.843761	0.000294	2.938930	0.995736	0.000118
  15	1.3930e+00	0.5551	-0.771093	0.000182	1.824164	0.618043	0.000073
  16	1.4925e+00	0.5968	-0.629793	0.000355	3.546985	1.201751	0.000142
  17	1.5920e+00	0.6273	-0.565199	0.000162	1.621479	0.549372	0.000065
  18	1.6915e+00	0.6738	-0.452159	0.000284	2.837588	0.961401	0.000114
  19	1.7910e+00	0.7059	-0.359305	0.000233	2.330876	0.789722	0.000093
  20	1.8905e+00	0.7508	-0.302785	0.000142	1.418794	0.480700	0.000057
  21	1.9900e+00	0.7957	-0.181671	0.000304	3.040273	1.030072	0.000122
  22	2.0895e+00	0.8406	-0.100928	0.000203	2.026848	0.686715	0.000081
  23	2.1890e+00	0.8791	-0.012111	0.000223	2.229533	0.755386	0.000089
  24	2.2885e+00	0.9080	0.076706	0.000223	2.229533	0.755386	0.000089
  25	2.3880e+00	0.9545	0.197820	0.000304	3.040273	1.030072	0.000122
  26	2.4875e+00	0.9994	0.278562	0.000203	2.026848	0.686715	0.000081
  27	2.5870e+00	1.0299	0.387565	0.000274	2.736245	0.927065	0.000110
  28	2.6865e+00	1.0732	0.500605	0.000284	2.837588	0.961401	0.000114
  29	2.7860e+00	1.1149	0.654016	0.000385	3.851012	1.304758	0.000154
  30	2.8855e+00	1.1470	0.763019	0.000274	2.736245	0.927065	0.000110
  31	2.9850e+00	1.1919	0.867984	0.000263	2.634903	0.892729	0.000105
  32	3.0845e+00	1.2272	0.968913	0.000253	2.533560	0.858394	0.000101
  33	3.1840e+00	1.2706	1.110212	0.000355	3.546985	1.201751	0.000142
  34	3.2835e+00	1.3107	1.182881	0.000182	1.824164	0.618043	0.000073
  35	3.3830e+00	1.3524	1.316106	0.000334	3.344300	1.133079	0.000134
  36	3.4825e+00	1.3989	1.372626	0.000142	1.418794	0.480700	0.000057
  37	3.5820e+00	1.4246	1.473555	0.000253	2.533560	0.858394	0.000101
  38	3.6815e+00	1.4775	1.590631	0.000294	2.938930	0.995736	0.000118
  39	3.7810e+00	1.5128	1.679448	0.000223	2.229533	0.755386	0.000089
  40	3.8805e+00	1.5561	1.768265	0.000223	2.229533	0.755386	0.000089
  41	3.9800e+00	1.5930	1.849008	0.000203	2.026848	0.686715	0.000081
  42	4.0795e+00	1.6379	1.994345	0.000365	3.648327	1.236087	0.000146
  43	4.1790e+00	1.6780	2.091236	0.000243	2.432218	0.824058	0.000097
  44	4.2785e+00	1.7069	2.224462	0.000334	3.344300	1.133079	0.000134
  45	4.3780e+00	1.7614	2.309242	0.000213	2.128191	0.721051	0.000085
  46	4.4775e+00	1.7823	2.369799	0.000152	1.520136	0.515036	0.000061
  47	4.5770e+00	1.8352	2.547433	0.000446	4.459066	1.510773	0.000179
  48	4.6765e+00	1.8673	2.668547	0.000304	3.040273	1.030072	0.000122
  49	4.7760e+00	1.9122	2.753327	0.000213	2.128191	0.721051	0.000085
  50	4.8755e+00	1.9475	2.830032	0.000193	1.925506	0.652379	0.000077
  51	4.9750e+00	1.9876	3.003629	0.000436	4.357724	1.476437	0.000174
  52	5.0745e+00	2.0278	3.072260	0.000172	1.722821	0.583708	0.000069
  53	5.1740e+00	2.0695	3.197412	0.000314	3.141615	1.064408	0.000126
  54	5.2735e+00	2.1128	3.298340	0.000253	2.533560	0.858394	0.000101
  55	5.3730e+00	2.1417	3.334674	0.000091	0.912082	0.309022	0.000037
  56	5.4725e+00	2.1818	3.407343	0.000182	1.824164	0.618043	0.000073
  57	5.5720e+00	2.2299	3.548642	0.000355	3.546985	1.201751	0.000142
  58	5.6715e+00	2.2668	3.641496	0.000233	2.330876	0.789722	0.000093
  59	5.7710e+00	2.3037	3.734351	0.000233	2.330876	0.789722	0.000093
  60	5.8705e+00	2.3566	3.855465	0.000304	3.040273	1.030072	0.000122
  61	5.9700e+00	2.3935	3.968504	0.000284	2.837588	0.961401	0.000114
  62	6.0695e+00	2.4352	4.061359	0.000233	2.330876	0.789722	0.000093
  63	6.1690e+00	2.4769	4.170361	0.000274	2.736245	0.927065	0.000110
  64	6.2685e+00	2.5090	4.339921	0.000426	4.256382	1.442101	0.000170
  65	6.3680e+00	2.5395	4.444886	0.000263	2.634903	0.892729	0.000105
  66	6.4675e+00	2.5876	4.545815	0.000253	2.533560	0.858394	0.000101
  67	6.5670e+00	2.6309	4.634632	0.000223	2.229533	0.755386	0.000089
  68	6.6665e+00	2.6694	4.779969	0.000365	3.648327	1.236087	0.000146
  69	6.7660e+00	2.7047	4.856674	0.000193	1.925506	0.652379	0.000077
  70	6.8655e+00	2.7497	4.949528	0.000233	2.330876	0.789722	0.000093
  71	6.9650e+00	2.7849	5.054494	0.000263	2.634903	0.892729	0.000105
  72	7.0645e+00	2.8283	5.187719	0.000334	3.344300	1.133079	0.000134
  73	7.1640e+00	2.8603	5.236165	0.000122	1.216109	0.412029	0.000049
  74	7.2635e+00	2.9037	5.349205	0.000284	2.837588	0.961401	0.000114
  75	7.3630e+00	2.9454	5.393613	0.000111	1.114767	0.377693	0.000045
  76	7.4625e+00	2.9919	5.551062	0.000395	3.952354	1.339094	0.000158
  77	7.5620e+00	3.0176	5.631804	0.000203	2.026848	0.686715	0.000081
  78	7.6615e+00	3.0625	5.736770	0.000263	2.634903	0.892729	0.000105
  79	7.7610e+00	3.1026	5.861921	0.000314	3.141615	1.064408	0.000126
  80	7.8605e+00	3.1379	5.958812	0.000243	2.432218	0.824058	0.000097
  81	7.9600e+00	3.1844	6.120298	0.000405	4.053697	1.373430	0.000162
  82	8.0595e+00	3.2197	6.188929	0.000172	1.722821	0.583708	0.000069
  83	8.1590e+00	3.2662	6.342340	0.000385	3.851012	1.304758	0.000154
  84	8.2585e+00	3.3031	6.467491	0.000314	3.141615	1.064408	0.000126
  85	8.3580e+00	3.3416	6.544197	0.000193	1.925506	0.652379	0.000077
  86	8.4575e+00	3.3817	6.665311	0.000304	3.040273	1.030072	0.000122
  87	8.5570e+00	3.4250	6.794499	0.000324	3.242957	1.098744	0.000130
  88	8.6565e+00	3.4635	6.899465	0.000263	2.634903	0.892729	0.000105
  89	8.7560e+00	3.5069	6.960022	0.000152	1.520136	0.515036	0.000061
  90	8.8555e+00	3.5405	7.085173	0.000314	3.141615	1.064408	0.000126
  91	8.9550e+00	3.5887	7.222436	0.000345	3.445642	1.167415	0.000138
  92	9.0545e+00	3.6240	7.250696	0.000071	0.709397	0.240350	0.000028
  93	9.1540e+00	3.6625	7.371810	0.000304	3.040273	1.030072	0.000122
  94	9.2535e+00	3.7058	7.488887	0.000294	2.938930	0.995736	0.000118
  95	9.3530e+00	3.7443	7.561555	0.000182	1.824164	0.618043	0.000073
  96	9.4525e+00	3.7860	7.719004	0.000395	3.952354	1.339094	0.000158
  97	9.5520e+00	3.8149	7.811858	0.000233	2.330876	0.789722	0.000093
  98	9.6515e+00	3.8582	7.916823	0.000263	2.634903	0.892729	0.000105
  99	9.7510e+00	3.9047	8.037937	0.000304	3.040273	1.030072	0.000122
 100	9.8505e+00	3.9448	8.159051	0.000304	3.040273	1.030072	0.000122
 101	9.9500e+00	3.9817	8.296314	0.000345	3.445642	1.167415	0.000138
 102	1.0050e+01	4.0314	8.405317	0.000274	2.736245	0.927065	0.000110
 103	1.0149e+01	4.0619	8.550653	0.000365	3.648327	1.236087	0.000146
 104	1.0248e+01	4.1020	8.659656	0.000274	2.736245	0.927065	0.000110
 105	1.0348e+01	4.1405	8.760585	0.000253	2.533560	0.858394	0.000101
 106	1.0447e+01	4.1774	8.877661	0.000294	2.938930	0.995736	0.000118
 107	1.0547e+01	4.2159	8.962441	0.000213	2.128191	0.721051	0.000085
 108	1.0646e+01	4.2608	9.087593	0.000314	3.141615	1.064408	0.000126
 109	1.0746e+01	4.3090	9.212744	0.000314	3.141615	1.064408	0.000126
 110	1.0845e+01	4.3491	9.289449	0.000193	1.925506	0.652379	0.000077
 111	1.0945e+01	4.3828	9.390378	0.000253	2.533560	0.858394	0.000101
 112	1.1044e+01	4.4261	9.495343	0.000263	2.634903	0.892729	0.000105
 113	1.1144e+01	4.4566	9.612420	0.000294	2.938930	0.995736	0.000118
 114	1.1243e+01	4.4999	9.701237	0.000223	2.229533	0.755386	0.000089
 115	1.1343e+01	4.5384	9.854648	0.000385	3.851012	1.304758	0.000154
 116	1.1443e+01	4.5817	9.931354	0.000193	1.925506	0.652379	0.000077
 117	1.1542e+01	4.6266	10.032282	0.000253	2.533560	0.858394	0.000101
 118	1.1642e+01	4.6667	10.197805	0.000416	4.155039	1.407765	0.000166
 119	1.1741e+01	4.6940	10.367365	0.000426	4.256382	1.442101	0.000170
 120	1.1841e+01	4.7373	10.488479	0.000304	3.040273	1.030072	0.000122
 121	1.1940e+01	4.7774	10.581333	0.000233	2.330876	0.789722	0.000093
 122	1.2040e+01	4.8191	10.678224	0.000243	2.432218	0.824058	0.000097
 123	1.2139e+01	4.8528	10.795301	0.000294	2.938930	0.995736	0.000118
 124	1.2239e+01	4.8913	10.956786	0.000405	4.053697	1.373430	0.000162
 125	1.2338e+01	4.9346	11.017343	0.000152	1.520136	0.515036	0.000061
 126	1.2438e+01	4.9892	11.154606	0.000345	3.445642	1.167415	0.000138
 127	1.2537e+01	5.0180	11.223237	0.000172	1.722821	0.583708	0.000069
 128	1.2636e+01	5.0485	11.336277	0.000284	2.837588	0.961401	0.000114
 129	1.2736e+01	5.0902	11.417020	0.000203	2.026848	0.686715	0.000081
 130	1.2835e+01	5.1400	11.566394	0.000375	3.749670	1.270422	0.000150
 131	1.2935e+01	5.1753	11.643099	0.000193	1.925506	0.652379	0.000077
 132	1.3034e+01	5.2186	11.756139	0.000284	2.837588	0.961401	0.000114
 133	1.3134e+01	5.2523	11.877253	0.000304	3.040273	1.030072	0.000122
 134	1.3233e+01	5.3004	12.034702	0.000395	3.952354	1.339094	0.000158
 135	1.3333e+01	5.3325	12.115444	0.000203	2.026848	0.686715	0.000081
 136	1.3432e+01	5.3742	12.285004	0.000426	4.256382	1.442101	0.000170
 137	1.3532e+01	5.4159	12.394007	0.000274	2.736245	0.927065	0.000110
 138	1.3632e+01	5.4432	12.543381	0.000375	3.749670	1.270422	0.000150
 139	1.3731e+01	5.4945	12.684680	0.000355	3.546985	1.201751	0.000142
 140	1.3831e+01	5.5346	12.769460	0.000213	2.128191	0.721051	0.000085
 141	1.3930e+01	5.5763	12.882500	0.000284	2.837588	0.961401	0.000114
 142	1.4030e+01	5.6148	12.991503	0.000274	2.736245	0.927065	0.000110
 143	1.4129e+01	5.6501	13.100505	0.000274	2.736245	0.927065	0.000110
 144	1.4229e+01	5.6966	13.217582	0.000294	2.938930	0.995736	0.000118
 145	1.4328e+01	5.7367	13.302362	0.000213	2.128191	0.721051	0.000085
 146	1.4428e+01	5.7768	13.419439	0.000294	2.938930	0.995736	0.000118
 147	1.4527e+01	5.8121	13.504219	0.000213	2.128191	0.721051	0.000085
 148	1.4627e+01	5.8538	13.685890	0.000456	4.560409	1.545108	0.000183
 149	1.4726e+01	5.8827	13.726262	0.000101	1.013424	0.343357	0.000041
 150	1.4825e+01	5.9325	13.883710	0.000395	3.952354	1.339094	0.000158
 151	1.4925e+01	5.9677	13.924081	0.000101	1.013424	0.343357	0.000041
 152	1.5024e+01	6.0111	14.085567	0.000405	4.053697	1.373430	0.000162
 153	1.5124e+01	6.0672	14.263201	0.000446	4.459066	1.510773	0.000179
 154	1.5223e+01	6.0993	14.388352	0.000314	3.141615	1.064408	0.000126
 155	1.5323e+01	6.1362	14.469094	0.000203	2.026848	0.686715	0.000081
 156	1.5422e+01	6.1683	14.634617	0.000416	4.155039	1.407765	0.000166
 157	1.5522e+01	6.2148	14.739583	0.000263	2.634903	0.892729	0.000105
 158	1.5621e+01	6.2533	14.868771	0.000324	3.242957	1.098744	0.000130
 159	1.5721e+01	6.2918	14.981811	0.000284	2.837588	0.961401	0.000114
 160	1.5820e+01	6.3399	15.066591	0.000213	2.128191	0.721051	0.000085
 161	1.5920e+01	6.3752	15.203853	0.000345	3.445642	1.167415	0.000138
 162	1.6020e+01	6.4153	15.357264	0.000385	3.851012	1.304758	0.000154
 163	1.6119e+01	6.4570	15.369376	0.000030	0.304027	0.103007	0.000012
 164	1.6218e+01	6.4955	15.506638	0.000345	3.445642	1.167415	0.000138
 165	1.6318e+01	6.5276	15.615641	0.000274	2.736245	0.927065	0.000110
 166	1.6418e+01	6.5725	15.700421	0.000213	2.128191	0.721051	0.000085
 167	1.6517e+01	6.6126	15.833646	0.000334	3.344300	1.133079	0.000134
 168	1.6616e+01	6.6544	15.966872	0.000334	3.344300	1.133079	0.000134
 169	1.6716e+01	6.6832	16.075875	0.000274	2.736245	0.927065	0.000110
 170	1.6816e+01	6.7314	16.233323	0.000395	3.952354	1.339094	0.000158
 171	1.6915e+01	6.7667	16.342325	0.000274	2.736245	0.927065	0.000110
 172	1.7015e+01	6.8084	16.455365	0.000284	2.837588	0.961401	0.000114
 173	1.7114e+01	6.8533	16.580516	0.000314	3.141615	1.064408	0.000126
 174	1.7213e+01	6.8822	16.733928	0.000385	3.851012	1.304758	0.000154
 175	1.7313e+01	6.9223	16.834856	0.000253	2.533560	0.858394	0.000101
 176	1.7413e+01	6.9640	16.919636	0.000213	2.128191	0.721051	0.000085
 177	1.7512e+01	7.0073	17.089196	0.000426	4.256382	1.442101	0.000170
 178	1.7611e+01	7.0490	17.173975	0.000213	2.128191	0.721051	0.000085
 179	1.7711e+01	7.0907	17.287015	0.000284	2.837588	0.961401	0.000114
 180	1.7811e+01	7.1340	17.416204	0.000324	3.242957	1.098744	0.000130
 181	1.7910e+01	7.1709	17.464649	0.000122	1.216109	0.412029	0.000049
 182	1.8009e+01	7.2094	17.565578	0.000253	2.533560	0.858394	0.000101
 183	1.8109e+01	7.2495	17.686692	0.000304	3.040273	1.030072	0.000122
 184	1.8209e+01	7.2816	17.783583	0.000243	2.432218	0.824058	0.000097
 185	1.8308e+01	7.3297	17.932957	0.000375	3.749670	1.270422	0.000150
 186	1.8407e+01	7.3698	18.021774	0.000223	2.229533	0.755386	0.000089
 187	1.8507e+01	7.4100	18.130777	0.000274	2.736245	0.927065	0.000110
 188	1.8607e+01	7.4501	18.247854	0.000294	2.938930	0.995736	0.000118
 189	1.8706e+01	7.4918	18.377042	0.000324	3.242957	1.098744	0.000130
 190	1.8805e+01	7.5271	18.490082	0.000284	2.837588	0.961401	0.000114
 191	1.8905e+01	7.5704	18.643493	0.000385	3.851012	1.304758	0.000154
 192	1.9005e+01	7.6009	18.748458	0.000263	2.634903	0.892729	0.000105
 193	1.9104e+01	7.6442	18.877647	0.000324	3.242957	1.098744	0.000130
 194	1.9203e+01	7.6795	18.990687	0.000284	2.837588	0.961401	0.000114
 195	1.9303e+01	7.7292	19.103726	0.000284	2.837588	0.961401	0.000114
 196	1.9402e+01	7.7741	19.220803	0.000294	2.938930	0.995736	0.000118
 197	1.9502e+01	7.8094	19.313657	0.000233	2.330876	0.789722	0.000093
 198	1.9602e+01	7.8543	19.402474	0.000223	2.229533	0.755386	0.000089
 199	1.9701e+01	7.8832	19.523588	0.000304	3.040273	1.030072	0.000122
 200	1.9800e+01	7.9185	19.604331	0.000203	2.026848	0.686715	0.000081
 201	1.9900e+01	7.9634	19.717371	0.000284	2.837588	0.961401	0.000114
 202	2.0000e+01	8.0083	19.826374	0.000274	2.736245	0.927065	0.000110
 203	2.0099e+01	8.0436	19.951525	0.000314	3.141615	1.064408	0.000126
 204	2.0198e+01	8.0853	20.020156	0.000172	1.722821	0.583708	0.000069
 205	2.0298e+01	8.1238	20.145307	0.000314	3.141615	1.064408	0.000126
 206	2.0398e+01	8.1688	20.274496	0.000324	3.242957	1.098744	0.000130
 207	2.0497e+01	8.1992	20.403684	0.000324	3.242957	1.098744	0.000130
 208	2.0596e+01	8.2345	20.553058	0.000375	3.749670	1.270422	0.000150
 209	2.0696e+01	8.2843	20.694358	0.000355	3.546985	1.201751	0.000142
 210	2.0796e+01	8.3276	20.803360	0.000274	2.736245	0.927065	0.000110
 211	2.0895e+01	8.3597	20.896215	0.000233	2.330876	0.789722	0.000093
 212	2.0994e+01	8.3982	21.033477	0.000345	3.445642	1.167415	0.000138
 213	2.1094e+01	8.4367	21.118257	0.000213	2.128191	0.721051	0.000085
 214	2.1194e+01	8.4768	21.235334	0.000294	2.938930	0.995736	0.000118
 215	2.1293e+01	8.5265	21.303965	0.000172	1.722821	0.583708	0.000069
 216	2.1392e+01	8.5730	21.445265	0.000355	3.546985	1.201751	0.000142
 217	2.1492e+01	8.5987	21.497748	0.000132	1.317451	0.446365	0.000053
 218	2.1591e+01	8.6420	21.667308	0.000426	4.256382	1.442101	0.000170
 219	2.1691e+01	8.6805	21.748050	0.000203	2.026848	0.686715	0.000081
 220	2.1791e+01	8.7254	21.869164	0.000304	3.040273	1.030072	0.000122
 221	2.1890e+01	8.7655	21.937796	0.000172	1.722821	0.583708	0.000069
 222	2.1989e+01	8.8056	22.103318	0.000416	4.155039	1.407765	0.000166
 223	2.2089e+01	8.8361	22.184061	0.000203	2.026848	0.686715	0.000081
 224	2.2189e+01	8.8762	22.305175	0.000304	3.040273	1.030072	0.000122
 225	2.2288e+01	8.9115	22.430326	0.000314	3.141615	1.064408	0.000126
 226	2.2387e+01	8.9596	22.535292	0.000263	2.634903	0.892729	0.000105
 227	2.2487e+01	9.0030	22.696777	0.000405	4.053697	1.373430	0.000162
 228	2.2587e+01	9.0463	22.821928	0.000314	3.141615	1.064408	0.000126
 229	2.2686e+01	9.0751	22.926894	0.000263	2.634903	0.892729	0.000105
 230	2.2785e+01	9.1217	23.031859	0.000263	2.634903	0.892729	0.000105
 231	2.2885e+01	9.1602	23.108565	0.000193	1.925506	0.652379	0.000077
 232	2.2985e+01	9.2003	23.245828	0.000345	3.445642	1.167415	0.000138
 233	2.3084e+01	9.2452	23.338682	0.000233	2.330876	0.789722	0.000093
 234	2.3183e+01	9.2869	23.443647	0.000263	2.634903	0.892729	0.000105
 235	2.3283e+01	9.3222	23.544576	0.000253	2.533560	0.858394	0.000101
 236	2.3383e+01	9.3623	23.669727	0.000314	3.141615	1.064408	0.000126
 237	2.3482e+01	9.3976	23.750470	0.000203	2.026848	0.686715	0.000081
 238	2.3581e+01	9.4457	23.863509	0.000284	2.837588	0.961401	0.000114
 239	2.3681e+01	9.4794	23.988661	0.000314	3.141615	1.064408	0.000126
 240	2.3780e+01	9.5227	24.057292	0.000172	1.722821	0.583708	0.000069
 241	2.3880e+01	9.5564	24.210703	0.000385	3.851012	1.304758	0.000154
 242	2.3980e+01	9.5949	24.279334	0.000172	1.722821	0.583708	0.000069
 243	2.4079e+01	9.6334	24.396411	0.000294	2.938930	0.995736	0.000118
 244	2.4178e+01	9.6767	24.517525	0.000304	3.040273	1.030072	0.000122
 245	2.4278e+01	9.7200	24.662862	0.000365	3.648327	1.236087	0.000146
 246	2.4378e+01	9.7489	24.763791	0.000253	2.533560	0.858394	0.000101
 247	2.4477e+01	9.8035	24.929313	0.000416	4.155039	1.407765	0.000166
 248	2.4576e+01	9.8372	25.042353	0.000284	2.837588	0.961401	0.000114
 249	2.4676e+01	9.8708	25.171541	0.000324	3.242957	1.098744	0.000130
 250	2.4776e+01	9.9142	25.232098	0.000152	1.520136	0.515036	0.000061
 251	2.4875e+01	9.9591	25.333027	0.000253	2.533560	0.858394	0.000101
 252	2.4974e+01	9.9976	25.433955	0.000253	2.533560	0.858394	0.000101
 253	2.5074e+01	10.0313	25.563143	0.000324	3.242957	1.098744	0.000130
 254	2.5174e+01	10.0730	25.631775	0.000172	1.722821	0.583708	0.000069
 255	2.5273e+01	10.1195	25.756926	0.000314	3.141615	1.064408	0.000126
 256	2.5372e+01	10.1612	25.857854	0.000253	2.533560	0.858394	0.000101
 257	2.5472e+01	10.1933	25.950709	0.000233	2.330876	0.789722	0.000093
 258	2.5572e+01	10.2366	26.092008	0.000355	3.546985	1.201751	0.000142
 259	2.5671e+01	10.2655	26.168714	0.000193	1.925506	0.652379	0.000077
 260	2.5770e+01	10.3216	26.293865	0.000314	3.141615	1.064408	0.000126
 261	2.5870e+01	10.3521	26.414979	0.000304	3.040273	1.030072	0.000122
 262	2.5970e+01	10.3938	26.519945	0.000263	2.634903	0.892729	0.000105
 263	2.6069e+01	10.4371	26.677393	0.000395	3.952354	1.339094	0.000158
 264	2.6169e+01	10.4692	26.818693	0.000355	3.546985	1.201751	0.000142
 265	2.6268e+01	10.5190	26.915584	0.000243	2.432218	0.824058	0.000097
 266	2.6367e+01	10.5510	27.060921	0.000365	3.648327	1.236087	0.000146
 267	2.6467e+01	10.5927	27.153775	0.000233	2.330876	0.789722	0.000093
 268	2.6567e+01	10.6296	27.246629	0.000233	2.330876	0.789722	0.000093
 269	2.6666e+01	10.6794	27.375817	0.000324	3.242957	1.098744	0.000130
 270	2.6765e+01	10.7227	27.476746	0.000253	2.533560	0.858394	0.000101
 271	2.6865e+01	10.7371	27.537303	0.000152	1.520136	0.515036	0.000061
 272	2.6965e+01	10.7997	27.666491	0.000324	3.242957	1.098744	0.000130
 273	2.7064e+01	10.8302	27.787605	0.000304	3.040273	1.030072	0.000122
 274	2.7163e+01	10.8783	27.912756	0.000314	3.141615	1.064408	0.000126
 275	2.7263e+01	10.9120	27.989462	0.000193	1.925506	0.652379	0.000077
 276	2.7363e+01	10.9537	28.126725	0.000345	3.445642	1.167415	0.000138
 277	2.7462e+01	10.9938	28.243802	0.000294	2.938930	0.995736	0.000118
 278	2.7561e+01	11.0307	28.360879	0.000294	2.938930	0.995736	0.000118
 279	2.7661e+01	11.0644	28.413361	0.000132	1.317451	0.446365	0.000053
 280	2.7761e+01	11.1205	28.611181	0.000497	4.965779	1.682451	0.000199
 281	2.7860e+01	11.1526	28.756518	0.000365	3.648327	1.236087	0.000146
 282	2.7959e+01	11.1847	28.869558	0.000284	2.837588	0.961401	0.000114
 283	2.8059e+01	11.2296	28.998746	0.000324	3.242957	1.098744	0.000130
 284	2.8159e+01	11.2745	29.119860	0.000304	3.040273	1.030072	0.000122
 285	2.8258e+01	11.3147	29.216751	0.000243	2.432218	0.824058	0.000097
 286	2.8358e+01	11.3516	29.325754	0.000274	2.736245	0.927065	0.000110
 287	2.8457e+01	11.3933	29.434757	0.000274	2.736245	0.927065	0.000110
 288	2.8556e+01	11.4382	29.543759	0.000274	2.736245	0.927065	0.000110
 289	2.8656e+01	11.4767	29.672948	0.000324	3.242957	1.098744	0.000130
 290	2.8756e+01	11.5120	29.741579	0.000172	1.722821	0.583708	0.000069
 291	2.8855e+01	11.5537	29.842507	0.000253	2.533560	0.858394	0.000101
 292	2.8954e+01	11.5874	29.971696	0.000324	3.242957	1.098744	0.000130
 293	2.9054e+01	11.6355	30.064550	0.000233	2.330876	0.789722	0.000093
 294	2.9154e+01	11.6788	30.189701	0.000314	3.141615	1.064408	0.000126
 295	2.9253e+01	11.7109	30.302741	0.000284	2.837588	0.961401	0.000114
 296	2.9352e+01	11.7478	30.444041	0.000355	3.546985	1.201751	0.000142
 297	2.9452e+01	11.7943	30.540932	0.000243	2.432218	0.824058	0.000097
 298	2.9552e+01	11.8296	30.637823	0.000243	2.432218	0.824058	0.000097
 299	2.9651e+01	11.8649	30.795271	0.000395	3.952354	1.339094	0.000158
 300	2.9750e+01	11.9178	30.920423	0.000314	3.141615	1.064408	0.000126
 301	2.9850e+01	11.9515	31.013277	0.000233	2.330876	0.789722	0.000093
 302	2.9950e+01	11.9740	31.142465	0.000324	3.242957	1.098744	0.000130
 303	3.0049e+01	12.0285	31.291839	0.000375	3.749670	1.270422	0.000150
 304	3.0148e+01	12.0783	31.400842	0.000274	2.736245	0.927065	0.000110
 305	3.0248e+01	12.1136	31.530030	0.000324	3.242957	1.098744	0.000130
 306	3.0348e+01	12.1537	31.647107	0.000294	2.938930	0.995736	0.000118
 307	3.0447e+01	12.1954	31.756110	0.000274	2.736245	0.927065	0.000110
 308	3.0547e+01	12.2371	31.861075	0.000263	2.634903	0.892729	0.000105
 309	3.0646e+01	12.2676	31.957967	0.000243	2.432218	0.824058	0.000097
 310	3.0745e+01	12.3093	32.042746	0.000213	2.128191	0.721051	0.000085
 311	3.0845e+01	12.3462	32.192120	0.000375	3.749670	1.270422	0.000150
 312	3.0945e+01	12.3895	32.268826	0.000193	1.925506	0.652379	0.000077
 313	3.1044e+01	12.4280	32.402051	0.000334	3.344300	1.133079	0.000134
 314	3.1143e+01	12.4665	32.515091	0.000284	2.837588	0.961401	0.000114
 315	3.1243e+01	12.4922	32.611982	0.000243	2.432218	0.824058	0.000097
 316	3.1343e+01	12.5483	32.769431	0.000395	3.952354	1.339094	0.000158
 317	3.1442e+01	12.5916	32.878433	0.000274	2.736245	0.927065	0.000110
 318	3.1541e+01	12.6317	33.023770	0.000365	3.648327	1.236087	0.000146
 319	3.1641e+01	12.6622	33.156996	0.000334	3.344300	1.133079	0.000134
 320	3.1741e+01	12.7039	33.278110	0.000304	3.040273	1.030072	0.000122
 321	3.1840e+01	12.7537	33.415373	0.000345	3.445642	1.167415	0.000138
 322	3.1939e+01	12.7873	33.552635	0.000345	3.445642	1.167415	0.000138
 323	3.2039e+01	12.8178	33.629341	0.000193	1.925506	0.652379	0.000077
 324	3.2139e+01	12.8659	33.742380	0.000284	2.837588	0.961401	0.000114
 325	3.2238e+01	12.9028	33.839272	0.000243	2.432218	0.824058	0.000097
 326	3.2337e+01	12.9430	33.988646	0.000375	3.749670	1.270422	0.000150
 327	3.2437e+01	12.9879	34.053240	0.000162	1.621479	0.549372	0.000065
 328	3.2536e+01	13.0232	34.129946	0.000193	1.925506	0.652379	0.000077
 329	3.2636e+01	13.0681	34.242985	0.000284	2.837588	0.961401	0.000114
 330	3.2736e+01	13.1082	34.356025	0.000284	2.837588	0.961401	0.000114
 331	3.2835e+01	13.1451	34.465028	0.000274	2.736245	0.927065	0.000110
 332	3.2934e+01	13.1916	34.594216	0.000324	3.242957	1.098744	0.000130
 333	3.3034e+01	13.2285	34.695145	0.000253	2.533560	0.858394	0.000101
 334	3.3133e+01	13.2638	34.836444	0.000355	3.546985	1.201751	0.000142
 335	3.3233e+01	13.2991	34.989855	0.000385	3.851012	1.304758	0.000154
 336	3.3333e+01	13.3376	35.070598	0.000203	2.026848	0.686715	0.000081
 337	3.3432e+01	13.3809	35.228046	0.000395	3.952354	1.339094	0.000158
 338	3.3532e+01	13.4242	35.365309	0.000345	3.445642	1.167415	0.000138
 339	3.3631e+01	13.4595	35.458163	0.000233	2.330876	0.789722	0.000093
 340	3.3730e+01	13.4980	35.559092	0.000253	2.533560	0.858394	0.000101
 341	3.3830e+01	13.5365	35.692317	0.000334	3.344300	1.133079	0.000134
 342	3.3929e+01	13.5879	35.789208	0.000243	2.432218	0.824058	0.000097
 343	3.4029e+01	13.6231	35.894174	0.000263	2.634903	0.892729	0.000105
 344	3.4129e+01	13.6520	36.027399	0.000334	3.344300	1.133079	0.000134
 345	3.4228e+01	13.7034	36.112179	0.000213	2.128191	0.721051	0.000085
 346	3.4328e+01	13.7290	36.265590	0.000385	3.851012	1.304758	0.000154
 347	3.4427e+01	13.7820	36.370556	0.000263	2.634903	0.892729	0.000105
 348	3.4526e+01	13.8285	36.423039	0.000132	1.317451	0.446365	0.000053
 349	3.4626e+01	13.8638	36.548190	0.000314	3.141615	1.064408	0.000126
 350	3.4725e+01	13.8991	36.637007	0.000223	2.229533	0.755386	0.000089
 351	3.4825e+01	13.9392	36.729861	0.000233	2.330876	0.789722	0.000093
 352	3.4925e+01	13.9713	36.867124	0.000345	3.445642	1.167415	0.000138
 353	3.5024e+01	14.0226	36.996312	0.000324	3.242957	1.098744	0.000130
 354	3.5123e+01	14.0547	37.137612	0.000355	3.546985	1.201751	0.000142
 355	3.5223e+01	14.0948	37.286986	0.000375	3.749670	1.270422	0.000150
 356	3.5322e+01	14.1301	37.420211	0.000334	3.344300	1.133079	0.000134
 357	3.5422e+01	14.1830	37.496917	0.000193	1.925506	0.652379	0.000077
 358	3.5522e+01	14.2199	37.597845	0.000253	2.533560	0.858394	0.000101
 359	3.5621e+01	14.2520	37.727033	0.000324	3.242957	1.098744	0.000130
 360	3.5721e+01	14.2985	37.836036	0.000274	2.736245	0.927065	0.000110
 361	3.5820e+01	14.3386	37.928890	0.000233	2.330876	0.789722	0.000093
 362	3.5919e+01	14.3755	38.025782	0.000243	2.432218	0.824058	0.000097
 363	3.6019e+01	14.4172	38.150933	0.000314	3.141615	1.064408	0.000126
 364	3.6118e+01	14.4654	38.259935	0.000274	2.736245	0.927065	0.000110
 365	3.6218e+01	14.4926	38.336641	0.000193	1.925506	0.652379	0.000077
 366	3.6318e+01	14.5376	38.486015	0.000375	3.749670	1.270422	0.000150
 367	3.6417e+01	14.5680	38.574832	0.000223	2.229533	0.755386	0.000089
 368	3.6517e+01	14.6081	38.651538	0.000193	1.925506	0.652379	0.000077
 369	3.6616e+01	14.6643	38.752466	0.000253	2.533560	0.858394	0.000101
 370	3.6715e+01	14.6964	38.897803	0.000365	3.648327	1.236087	0.000146
 371	3.6815e+01	14.7397	38.986620	0.000223	2.229533	0.755386	0.000089
 372	3.6914e+01	14.7814	39.156180	0.000426	4.256382	1.442101	0.000170
 373	3.7014e+01	14.8167	39.257108	0.000253	2.533560	0.858394	0.000101
 374	3.7114e+01	14.8600	39.394371	0.000345	3.445642	1.167415	0.000138
 375	3.7213e+01	14.8985	39.483188	0.000223	2.229533	0.755386	0.000089
 376	3.7313e+01	14.9306	39.567967	0.000213	2.128191	0.721051	0.000085
 377	3.7412e+01	14.9755	39.705230	0.000345	3.445642	1.167415	0.000138
 378	3.7511e+01	15.0204	39.854604	0.000375	3.749670	1.270422	0.000150
 379	3.7611e+01	15.0509	39.931310	0.000193	1.925506	0.652379	0.000077
 380	3.7711e+01	15.0974	40.068572	0.000345	3.445642	1.167415	0.000138
 381	3.7810e+01	15.1311	40.153352	0.000213	2.128191	0.721051	0.000085
 382	3.7910e+01	15.1841	40.209872	0.000142	1.418794	0.480700	0.000057
 383	3.8009e+01	15.2161	40.367320	0.000395	3.952354	1.339094	0.000158
 384	3.8108e+01	15.2514	40.456137	0.000223	2.229533	0.755386	0.000089
 385	3.8208e+01	15.3044	40.569177	0.000284	2.837588	0.961401	0.000114
 386	3.8307e+01	15.3365	40.686254	0.000294	2.938930	0.995736	0.000118
 387	3.8407e+01	15.3734	40.722588	0.000091	0.912082	0.309022	0.000037
 388	3.8507e+01	15.4167	40.884074	0.000405	4.053697	1.373430	0.000162
 389	3.8606e+01	15.4584	40.989039	0.000263	2.634903	0.892729	0.000105
 390	3.8706e+01	15.4969	41.130339	0.000355	3.546985	1.201751	0.000142
 391	3.8805e+01	15.5258	41.207044	0.000193	1.925506	0.652379	0.000077
 392	3.8904e+01	15.5787	41.360456	0.000385	3.851012	1.304758	0.000154
 393	3.9004e+01	15.6140	41.465421	0.000263	2.634903	0.892729	0.000105
 394	3.9103e+01	15.6605	41.578461	0.000284	2.837588	0.961401	0.000114
 395	3.9203e+01	15.6910	41.651129	0.000182	1.824164	0.618043	0.000073
 396	3.9303e+01	15.7327	41.764169	0.000284	2.837588	0.961401	0.000114
 397	3.9402e+01	15.7696	41.865098	0.000253	2.533560	0.858394	0.000101
 398	3.9502e+01	15.8225	42.002360	0.000345	3.445642	1.167415	0.000138
 399	3.9601e+01	15.8562	42.115400	0.000284	2.837588	0.961401	0.000114
 400	3.9700e+01	15.8947	42.232477	0.000294	2.938930	0.995736	0.000118
 401	3.9800e+01	15.9284	42.301108	0.000172	1.722821	0.583708	0.000069
 402	3.9900e+01	15.9701	42.389925	0.000223	2.229533	0.755386	0.000089
 403	3.9999e+01	16.0151	42.511039	0.000304	3.040273	1.030072	0.000122
 404	4.0099e+01	16.0503	42.591782	0.000203	2.026848	0.686715	0.000081
 405	4.0198e+01	16.0969	42.696748	0.000263	2.634903	0.892729	0.000105
 406	4.0297e+01	16.1354	42.809787	0.000284	2.837588	0.961401	0.000114
 407	4.0397e+01	16.1723	42.914753	0.000263	2.634903	0.892729	0.000105
 408	4.0496e+01	16.2124	43.068164	0.000385	3.851012	1.304758	0.000154
 409	4.0596e+01	16.2525	43.185241	0.000294	2.938930	0.995736	0.000118
 410	4.0696e+01	16.2846	43.286169	0.000253	2.533560	0.858394	0.000101
 411	4.0795e+01	16.3327	43.411321	0.000314	3.141615	1.064408	0.000126
 412	4.0895e+01	16.3728	43.532435	0.000304	3.040273	1.030072	0.000122
 413	4.0994e+01	16.4113	43.621252	0.000223	2.229533	0.755386	0.000089
 414	4.1093e+01	16.4546	43.746403	0.000314	3.141615	1.064408	0.000126
 415	4.1193e+01	16.4851	43.843294	0.000243	2.432218	0.824058	0.000097
 416	4.1292e+01	16.5156	43.928074	0.000213	2.128191	0.721051	0.000085
 417	4.1392e+01	16.5669	44.049188	0.000304	3.040273	1.030072	0.000122
 418	4.1492e+01	16.6102	44.154154	0.000263	2.634903	0.892729	0.000105
 419	4.1591e+01	16.6487	44.259119	0.000263	2.634903	0.892729	0.000105
 420	4.1691e+01	16.6920	44.372159	0.000284	2.837588	0.961401	0.000114
 421	4.1790e+01	16.7338	44.448864	0.000193	1.925506	0.652379	0.000077
 422	4.1889e+01	16.7658	44.541719	0.000233	2.330876	0.789722	0.000093
 423	4.1989e+01	16.8043	44.687055	0.000365	3.648327	1.236087	0.000146
 424	4.2089e+01	16.8589	44.731464	0.000111	1.114767	0.377693	0.000045
 425	4.2188e+01	16.8958	44.868727	0.000345	3.445642	1.167415	0.000138
 426	4.2288e+01	16.9343	44.981766	0.000284	2.837588	0.961401	0.000114
 427	4.2387e+01	16.9664	45.119029	0.000345	3.445642	1.167415	0.000138
 428	4.2486e+01	17.0209	45.240143	0.000304	3.040273	1.030072	0.000122
 429	4.2586e+01	17.0562	45.401629	0.000405	4.053697	1.373430	0.000162
 430	4.2685e+01	17.0883	45.462186	0.000152	1.520136	0.515036	0.000061
 431	4.2785e+01	17.1252	45.595411	0.000334	3.344300	1.133079	0.000134
 432	4.2885e+01	17.1653	45.696339	0.000253	2.533560	0.858394	0.000101
 433	4.2984e+01	17.2038	45.797268	0.000253	2.533560	0.858394	0.000101
 434	4.3084e+01	17.2503	45.926456	0.000324	3.242957	1.098744	0.000130
 435	4.3183e+01	17.2856	46.059682	0.000334	3.344300	1.133079	0.000134
 436	4.3282e+01	17.3305	46.128313	0.000172	1.722821	0.583708	0.000069
 437	4.3382e+01	17.3642	46.273650	0.000365	3.648327	1.236087	0.000146
 438	4.3481e+01	17.4139	46.382652	0.000274	2.736245	0.927065	0.000110
 439	4.3581e+01	17.4492	46.455321	0.000182	1.824164	0.618043	0.000073
 440	4.3681e+01	17.4926	46.519915	0.000162	1.621479	0.549372	0.000065
 441	4.3780e+01	17.5246	46.645066	0.000314	3.141615	1.064408	0.000126
 442	4.3880e+01	17.5631	46.745995	0.000253	2.533560	0.858394	0.000101
 443	4.3979e+01	17.5984	46.842886	0.000243	2.432218	0.824058	0.000097
 444	4.4078e+01	17.6530	46.943814	0.000253	2.533560	0.858394	0.000101
 445	4.4178e+01	17.6931	47.121448	0.000446	4.459066	1.510773	0.000179
 446	4.4278e+01	17.7236	47.246600	0.000314	3.141615	1.064408	0.000126
 447	4.4377e+01	17.7556	47.359639	0.000284	2.837588	0.961401	0.000114
 448	4.4477e+01	17.8038	47.488828	0.000324	3.242957	1.098744	0.000130
 449	4.4576e+01	17.8439	47.618016	0.000324	3.242957	1.098744	0.000130
 450	4.4675e+01	17.8792	47.727019	0.000274	2.736245	0.927065	0.000110
 451	4.4775e+01	17.9273	47.823910	0.000243	2.432218	0.824058	0.000097
 452	4.4874e+01	17.9690	47.928875	0.000263	2.634903	0.892729	0.000105
 453	4.4974e+01	18.0043	48.049990	0.000304	3.040273	1.030072	0.000122
 454	4.5074e+01	18.0476	48.187252	0.000345	3.445642	1.167415	0.000138
 455	4.5173e+01	18.0813	48.276069	0.000223	2.229533	0.755386	0.000089
 456	4.5273e+01	18.1182	48.352775	0.000193	1.925506	0.652379	0.000077
 457	4.5372e+01	18.1631	48.506186	0.000385	3.851012	1.304758	0.000154
 458	4.5471e+01	18.2032	48.595003	0.000223	2.229533	0.755386	0.000089
 459	4.5571e+01	18.2417	48.647486	0.000132	1.317451	0.446365	0.000053
 460	4.5670e+01	18.2866	48.740340	0.000233	2.330876	0.789722	0.000093
 461	4.5770e+01	18.3284	48.901825	0.000405	4.053697	1.373430	0.000162
 462	4.5870e+01	18.3669	48.998716	0.000243	2.432218	0.824058	0.000097
 463	4.5969e+01	18.4102	49.127905	0.000324	3.242957	1.098744	0.000130
 464	4.6069e+01	18.4391	49.285353	0.000395	3.952354	1.339094	0.000158
 465	4.6168e+01	18.4904	49.382244	0.000243	2.432218	0.824058	0.000097
 466	4.6267e+01	18.5241	49.507396	0.000314	3.141615	1.064408	0.000126
 467	4.6367e+01	18.5674	49.576027	0.000172	1.722821	0.583708	0.000069
 468	4.6467e+01	18.6027	49.757698	0.000456	4.560409	1.545108	0.000183
 469	4.6566e+01	18.6364	49.814218	0.000142	1.418794	0.480700	0.000057
 470	4.6666e+01	18.6861	49.959555	0.000365	3.648327	1.236087	0.000146
 471	4.6765e+01	18.7182	50.064520	0.000263	2.634903	0.892729	0.000105
 472	4.6864e+01	18.7599	50.177560	0.000284	2.837588	0.961401	0.000114
 473	4.6964e+01	18.8000	50.282526	0.000263	2.634903	0.892729	0.000105
 474	4.7063e+01	18.8417	50.391528	0.000274	2.736245	0.927065	0.000110
 475	4.7163e+01	18.8770	50.540902	0.000375	3.749670	1.270422	0.000150
 476	4.7263e+01	18.9235	50.569162	0.000071	0.709397	0.240350	0.000028
 477	4.7362e+01	18.9492	50.690276	0.000304	3.040273	1.030072	0.000122
 478	4.7462e+01	18.9941	50.807353	0.000294	2.938930	0.995736	0.000118
 479	4.7561e+01	19.0358	50.920393	0.000284	2.837588	0.961401	0.000114
 480	4.7660e+01	19.0775	51.061693	0.000355	3.546985	1.201751	0.000142
 481	4.7760e+01	19.1225	51.166658	0.000263	2.634903	0.892729	0.000105
 482	4.7859e+01	19.1610	51.295847	0.000324	3.242957	1.098744	0.000130
 483	4.7959e+01	19.1946	51.433109	0.000345	3.445642	1.167415	0.000138
 484	4.8059e+01	19.2460	51.558261	0.000314	3.141615	1.064408	0.000126
 485	4.8158e+01	19.2813	51.679375	0.000304	3.040273	1.030072	0.000122
 486	4.8258e+01	19.3182	51.760117	0.000203	2.026848	0.686715	0.000081
 487	4.8357e+01	19.3551	51.909491	0.000375	3.749670	1.270422	0.000150
 488	4.8456e+01	19.3920	52.002345	0.000233	2.330876	0.789722	0.000093
 489	4.8556e+01	19.4417	52.087125	0.000213	2.128191	0.721051	0.000085
 490	4.8656e+01	19.4818	52.248611	0.000405	4.053697	1.373430	0.000162
 491	4.8755e+01	19.5187	52.325316	0.000193	1.925506	0.652379	0.000077
 492	4.8855e+01	19.5636	52.494876	0.000426	4.256382	1.442101	0.000170
 493	4.8954e+01	19.6037	52.579656	0.000213	2.128191	0.721051	0.000085
 494	4.9053e+01	19.6390	52.656361	0.000193	1.925506	0.652379	0.000077
 495	4.9153e+01	19.6759	52.749216	0.000233	2.330876	0.789722	0.000093
 496	4.9252e+01	19.7144	52.813810	0.000162	1.621479	0.549372	0.000065
 497	4.9352e+01	19.7577	52.971258	0.000395	3.952354	1.339094	0.000158
 498	4.9452e+01	19.7994	53.068149	0.000243	2.432218	0.824058	0.000097
 499	4.9551e+01	19.8347	53.181189	0.000284	2.837588	0.961401	0.000114
 500	4.9651e+01	19.8764	53.342675	0.000405	4.053697	1.373430	0.000162
 501	4.9750e+01	19.9214	53.467826	0.000314	3.141615	1.064408	0.000126
 502	4.9849e+01	19.9583	53.597014	0.000324	3.242957	1.098744	0.000130
 503	4.9949e+01	19.9871	53.722165	0.000314	3.141615	1.064408	0.000126
 504	5.0048e+01	19.9534	53.629311	0.000233	2.330876	0.789722	-0.000093
 505	5.0148e+01	19.9214	53.576828	0.000132	1.317451	0.446365	-0.000053
 506	5.0248e+01	19.8748	53.504160	0.000182	1.824164	0.618043	-0.000073
 507	5.0347e+01	19.8331	53.431491	0.000182	1.824164	0.618043	-0.000073
 508	5.0447e+01	19.8026	53.374972	0.000142	1.418794	0.480700	-0.000057
 509	5.0546e+01	19.7625	53.318452	0.000142	1.418794	0.480700	-0.000057
 510	5.0645e+01	19.7128	53.189263	0.000324	3.242957	1.098744	-0.000130
 511	5.0745e+01	19.6791	53.132743	0.000142	1.418794	0.480700	-0.000057
 512	5.0844e+01	19.6358	53.043926	0.000223	2.229533	0.755386	-0.000089
 513	5.0944e+01	19.5909	52.922812	0.000304	3.040273	1.030072	-0.000122
 514	5.1044e+01	19.5556	52.817847	0.000263	2.634903	0.892729	-0.000105
 515	5.1143e+01	19.5299	52.741141	0.000193	1.925506	0.652379	-0.000077
 516	5.1242e+01	19.4770	52.644250	0.000243	2.432218	0.824058	-0.000097
 517	5.1342e+01	19.4385	52.599842	0.000111	1.114767	0.377693	-0.000045
 518	5.1441e+01	19.3936	52.511025	0.000223	2.229533	0.755386	-0.000089
 519	5.1541e+01	19.3551	52.482765	0.000071	0.709397	0.240350	-0.000028
 520	5.1641e+01	19.3134	52.373762	0.000274	2.736245	0.927065	-0.000110
 521	5.1740e+01	19.2829	52.280908	0.000233	2.330876	0.789722	-0.000093
 522	5.1840e+01	19.2380	52.196128	0.000213	2.128191	0.721051	-0.000085
 523	5.1939e+01	19.2027	52.131534	0.000162	1.621479	0.549372	-0.000065
 524	5.2038e+01	19.1577	52.014457	0.000294	2.938930	0.995736	-0.000118
 525	5.2138e+01	19.1225	51.893343	0.000304	3.040273	1.030072	-0.000122
 526	5.2237e+01	19.0840	51.852971	0.000101	1.013424	0.343357	-0.000041
 527	5.2337e+01	19.0438	51.784340	0.000172	1.722821	0.583708	-0.000069
 528	5.2437e+01	19.0037	51.691486	0.000233	2.330876	0.789722	-0.000093
 529	5.2536e+01	18.9604	51.602669	0.000223	2.229533	0.755386	-0.000089
 530	5.2636e+01	18.9203	51.501741	0.000253	2.533560	0.858394	-0.000101
 531	5.2735e+01	18.8770	51.404849	0.000243	2.432218	0.824058	-0.000097
 532	5.2834e+01	18.8433	51.287772	0.000294	2.938930	0.995736	-0.000118
 533	5.2934e+01	18.8032	51.150510	0.000345	3.445642	1.167415	-0.000138
 534	5.3033e+01	18.7615	51.069767	0.000203	2.026848	0.686715	-0.000081
 535	5.3133e+01	18.7150	50.989024	0.000203	2.026848	0.686715	-0.000081
 536	5.3233e+01	18.6797	50.904245	0.000213	2.128191	0.721051	-0.000085
 537	5.3332e+01	18.6364	50.875985	0.000071	0.709397	0.240350	-0.000028
 538	5.3431e+01	18.6059	50.734685	0.000355	3.546985	1.201751	-0.000142
 539	5.3531e+01	18.5722	50.682202	0.000132	1.317451	0.446365	-0.000053
 540	5.3630e+01	18.5161	50.565125	0.000294	2.938930	0.995736	-0.000118
 541	5.3730e+01	18.4743	50.472271	0.000233	2.330876	0.789722	-0.000093
 542	5.3830e+01	18.4471	50.379417	0.000233	2.330876	0.789722	-0.000093
 543	5.3929e+01	18.4054	50.310786	0.000172	1.722821	0.583708	-0.000069
 544	5.4029e+01	18.3588	50.209857	0.000253	2.533560	0.858394	-0.000101
 545	5.4128e+01	18.3171	50.133152	0.000193	1.925506	0.652379	-0.000077
 546	5.4227e+01	18.2786	50.028186	0.000263	2.634903	0.892729	-0.000105
 547	5.4327e+01	18.2449	49.951480	0.000193	1.925506	0.652379	-0.000077
 548	5.4426e+01	18.2048	49.862664	0.000223	2.229533	0.755386	-0.000089
 549	5.4526e+01	18.1695	49.737512	0.000314	3.141615	1.064408	-0.000126
 550	5.4626e+01	18.1262	49.628510	0.000274	2.736245	0.927065	-0.000110
 551	5.4725e+01	18.0797	49.503358	0.000314	3.141615	1.064408	-0.000126
 552	5.4825e+01	18.0412	49.402430	0.000253	2.533560	0.858394	-0.000101
 553	5.4924e+01	18.0091	49.269205	0.000334	3.344300	1.133079	-0.000134
 554	5.5023e+01	17.9578	49.212685	0.000142	1.418794	0.480700	-0.000057
 555	5.5123e+01	17.9321	49.135979	0.000193	1.925506	0.652379	-0.000077
 556	5.5222e+01	17.8856	49.014865	0.000304	3.040273	1.030072	-0.000122
 557	5.5322e+01	17.8439	48.978531	0.000091	0.912082	0.309022	-0.000037
 558	5.5422e+01	17.8022	48.837231	0.000355	3.546985	1.201751	-0.000142
 559	5.5521e+01	17.7605	48.764563	0.000182	1.824164	0.618043	-0.000073
 560	5.5620e+01	17.7268	48.663634	0.000253	2.533560	0.858394	-0.000101
 561	5.5720e+01	17.6915	48.578854	0.000213	2.128191	0.721051	-0.000085
 562	5.5819e+01	17.6450	48.457740	0.000304	3.040273	1.030072	-0.000122
 563	5.5919e+01	17.6065	48.360849	0.000243	2.432218	0.824058	-0.000097
 564	5.6019e+01	17.5663	48.300292	0.000152	1.520136	0.515036	-0.000061
 565	5.6118e+01	17.5278	48.187252	0.000284	2.837588	0.961401	-0.000114
 566	5.6218e+01	17.4877	48.062101	0.000314	3.141615	1.064408	-0.000126
 567	5.6317e+01	17.4476	47.977321	0.000213	2.128191	0.721051	-0.000085
 568	5.6416e+01	17.4043	47.872356	0.000263	2.634903	0.892729	-0.000105
 569	5.6516e+01	17.3610	47.767390	0.000263	2.634903	0.892729	-0.000105
 570	5.6615e+01	17.3209	47.618016	0.000375	3.749670	1.270422	-0.000150
 571	5.6715e+01	17.2856	47.488828	0.000324	3.242957	1.098744	-0.000130
 572	5.6815e+01	17.2487	47.428271	0.000152	1.520136	0.515036	-0.000061
 573	5.6914e+01	17.2022	47.339454	0.000223	2.229533	0.755386	-0.000089
 574	5.7014e+01	17.1637	47.262748	0.000193	1.925506	0.652379	-0.000077
 575	5.7113e+01	17.1380	47.202191	0.000152	1.520136	0.515036	-0.000061
 576	5.7212e+01	17.0947	47.056854	0.000365	3.648327	1.236087	-0.000146
 577	5.7312e+01	17.0594	46.964000	0.000233	2.330876	0.789722	-0.000093
 578	5.7411e+01	17.0097	46.899406	0.000162	1.621479	0.549372	-0.000065
 579	5.7511e+01	16.9712	46.802515	0.000243	2.432218	0.824058	-0.000097
 580	5.7611e+01	16.9359	46.657178	0.000365	3.648327	1.236087	-0.000146
 581	5.7710e+01	16.8878	46.572398	0.000213	2.128191	0.721051	-0.000085
 582	5.7809e+01	16.8509	46.475507	0.000243	2.432218	0.824058	-0.000097
 583	5.7909e+01	16.8108	46.374578	0.000253	2.533560	0.858394	-0.000101
 584	5.8008e+01	16.7626	46.289798	0.000213	2.128191	0.721051	-0.000085
 585	5.8108e+01	16.7225	46.192907	0.000243	2.432218	0.824058	-0.000097
 586	5.8208e+01	16.6872	46.083904	0.000274	2.736245	0.927065	-0.000110
 587	5.8307e+01	16.6487	45.962790	0.000304	3.040273	1.030072	-0.000122
 588	5.8407e+01	16.6118	45.845713	0.000294	2.938930	0.995736	-0.000118
 589	5.8506e+01	16.5781	45.760934	0.000213	2.128191	0.721051	-0.000085
 590	5.8605e+01	16.5300	45.619634	0.000355	3.546985	1.201751	-0.000142
 591	5.8705e+01	16.4979	45.534854	0.000213	2.128191	0.721051	-0.000085
 592	5.8804e+01	16.4466	45.437963	0.000243	2.432218	0.824058	-0.000097
 593	5.8904e+01	16.4113	45.349146	0.000223	2.229533	0.755386	-0.000089
 594	5.9004e+01	16.3632	45.256292	0.000233	2.330876	0.789722	-0.000093
 595	5.9103e+01	16.3391	45.135178	0.000304	3.040273	1.030072	-0.000122
 596	5.9203e+01	16.2830	45.119029	0.000041	0.405370	0.137343	-0.000016
 597	5.9302e+01	16.2493	44.961581	0.000395	3.952354	1.339094	-0.000158
 598	5.9401e+01	16.2108	44.884875	0.000193	1.925506	0.652379	-0.000077
 599	5.9501e+01	16.1691	44.783947	0.000253	2.533560	0.858394	-0.000101
 600	5.9600e+01	16.1322	44.691093	0.000233	2.330876	0.789722	-0.000093
 601	5.9700e+01	16.0953	44.614387	0.000193	1.925506	0.652379	-0.000077
 602	5.9800e+01	16.0552	44.489236	0.000314	3.141615	1.064408	-0.000126
 603	5.9899e+01	16.0135	44.376196	0.000284	2.837588	0.961401	-0.000114
 604	5.9998e+01	15.9701	44.295453	0.000203	2.026848	0.686715	-0.000081
 605	6.0098e+01	15.9332	44.174339	0.000304	3.040273	1.030072	-0.000122
 606	6.0197e+01	15.9028	44.053225	0.000304	3.040273	1.030072	-0.000122
 607	6.0297e+01	15.8643	43.988631	0.000162	1.621479	0.549372	-0.000065
 608	6.0397e+01	15.8161	43.839257	0.000375	3.749670	1.270422	-0.000150
 609	6.0496e+01	15.7648	43.710069	0.000324	3.242957	1.098744	-0.000130
 610	6.0596e+01	15.7407	43.633363	0.000193	1.925506	0.652379	-0.000077
 611	6.0695e+01	15.7022	43.548583	0.000213	2.128191	0.721051	-0.000085
 612	6.0794e+01	15.6477	43.479952	0.000172	1.722821	0.583708	-0.000069
 613	6.0894e+01	15.6172	43.407283	0.000182	1.824164	0.618043	-0.000073
 614	6.0993e+01	15.5819	43.290207	0.000294	2.938930	0.995736	-0.000118
 615	6.1093e+01	15.5290	43.185241	0.000263	2.634903	0.892729	-0.000105
 616	6.1193e+01	15.4937	43.100461	0.000213	2.128191	0.721051	-0.000085
 617	6.1292e+01	15.4568	43.007607	0.000233	2.330876	0.789722	-0.000093
 618	6.1392e+01	15.4135	42.890530	0.000294	2.938930	0.995736	-0.000118
 619	6.1491e+01	15.3830	42.813825	0.000193	1.925506	0.652379	-0.000077
 620	6.1590e+01	15.3365	42.733082	0.000203	2.026848	0.686715	-0.000081
 621	6.1690e+01	15.2867	42.624079	0.000274	2.736245	0.927065	-0.000110
 622	6.1789e+01	15.2514	42.507002	0.000294	2.938930	0.995736	-0.000118
 623	6.1889e+01	15.2178	42.406074	0.000253	2.533560	0.858394	-0.000101
 624	6.1989e+01	15.1776	42.309183	0.000243	2.432218	0.824058	-0.000097
 625	6.2088e+01	15.1343	42.248625	0.000152	1.520136	0.515036	-0.000061
 626	6.2188e+01	15.1039	42.083103	0.000416	4.155039	1.407765	-0.000166
 627	6.2287e+01	15.0525	41.945840	0.000345	3.445642	1.167415	-0.000138
 628	6.2386e+01	15.0252	41.836838	0.000274	2.736245	0.927065	-0.000110
 629	6.2486e+01	14.9787	41.784355	0.000132	1.317451	0.446365	-0.000053
 630	6.2586e+01	14.9306	41.679389	0.000263	2.634903	0.892729	-0.000105
 631	6.2685e+01	14.8969	41.618832	0.000152	1.520136	0.515036	-0.000061
 632	6.2785e+01	14.8472	41.485607	0.000334	3.344300	1.133079	-0.000134
 633	6.2884e+01	14.8199	41.441198	0.000111	1.114767	0.377693	-0.000045
 634	6.2983e+01	14.7670	41.295861	0.000365	3.648327	1.236087	-0.000146
 635	6.3083e+01	14.7413	41.203007	0.000233	2.330876	0.789722	-0.000093
 636	6.3182e+01	14.6948	41.106116	0.000243	2.432218	0.824058	-0.000097
 637	6.3282e+01	14.6531	40.993076	0.000284	2.837588	0.961401	-0.000114
 638	6.3382e+01	14.6290	40.924445	0.000172	1.722821	0.583708	-0.000069
 639	6.3481e+01	14.5809	40.807368	0.000294	2.938930	0.995736	-0.000118
 640	6.3581e+01	14.5440	40.746811	0.000152	1.520136	0.515036	-0.000061
 641	6.3680e+01	14.5007	40.637808	0.000274	2.736245	0.927065	-0.000110
 642	6.3779e+01	14.4622	40.536880	0.000253	2.533560	0.858394	-0.000101
 643	6.3879e+01	14.4253	40.411729	0.000314	3.141615	1.064408	-0.000126
 644	6.3978e+01	14.3803	40.306763	0.000263	2.634903	0.892729	-0.000105
 645	6.4078e+01	14.3434	40.177575	0.000324	3.242957	1.098744	-0.000130
 646	6.4177e+01	14.3033	40.048387	0.000324	3.242957	1.098744	-0.000130
 647	6.4277e+01	14.2632	39.971681	0.000193	1.925506	0.652379	-0.000077
 648	6.4376e+01	14.2215	39.882864	0.000223	2.229533	0.755386	-0.000089
 649	6.4476e+01	14.1798	39.830381	0.000132	1.317451	0.446365	-0.000053
 650	6.4576e+01	14.1333	39.717341	0.000284	2.837588	0.961401	-0.000114
 651	6.4675e+01	14.1012	39.628524	0.000223	2.229533	0.755386	-0.000089
 652	6.4775e+01	14.0499	39.507410	0.000304	3.040273	1.030072	-0.000122
 653	6.4874e+01	14.0210	39.430705	0.000193	1.925506	0.652379	-0.000077
 654	6.4974e+01	13.9809	39.333813	0.000243	2.432218	0.824058	-0.000097
 655	6.5073e+01	13.9360	39.236922	0.000243	2.432218	0.824058	-0.000097
 656	6.5172e+01	13.8991	39.135994	0.000253	2.533560	0.858394	-0.000101
 657	6.5272e+01	13.8574	39.047177	0.000223	2.229533	0.755386	-0.000089
 658	6.5371e+01	13.8157	38.930100	0.000294	2.938930	0.995736	-0.000118
 659	6.5471e+01	13.7836	38.800912	0.000324	3.242957	1.098744	-0.000130
 660	6.5570e+01	13.7451	38.728243	0.000182	1.824164	0.618043	-0.000073
 661	6.5670e+01	13.7066	38.655575	0.000182	1.824164	0.618043	-0.000073
 662	6.5769e+01	13.6584	38.506201	0.000375	3.749670	1.270422	-0.000150
 663	6.5869e+01	13.6296	38.421421	0.000213	2.128191	0.721051	-0.000085
 664	6.5969e+01	13.5895	38.332604	0.000223	2.229533	0.755386	-0.000089
 665	6.6068e+01	13.5445	38.171118	0.000405	4.053697	1.373430	-0.000162
 666	6.6168e+01	13.5044	38.106524	0.000162	1.621479	0.549372	-0.000065
 667	6.6267e+01	13.4627	38.021744	0.000213	2.128191	0.721051	-0.000085
 668	6.6367e+01	13.4242	37.908705	0.000284	2.837588	0.961401	-0.000114
 669	6.6466e+01	13.3841	37.807776	0.000253	2.533560	0.858394	-0.000101
 670	6.6566e+01	13.3392	37.743182	0.000162	1.621479	0.549372	-0.000065
 671	6.6665e+01	13.3007	37.577659	0.000416	4.155039	1.407765	-0.000166
 672	6.6764e+01	13.2590	37.509028	0.000172	1.722821	0.583708	-0.000069
 673	6.6864e+01	13.2221	37.412137	0.000243	2.432218	0.824058	-0.000097
 674	6.6963e+01	13.1868	37.315246	0.000243	2.432218	0.824058	-0.000097
 675	6.7063e+01	13.1387	37.222392	0.000233	2.330876	0.789722	-0.000093
 676	6.7162e+01	13.1082	37.085129	0.000345	3.445642	1.167415	-0.000138
 677	6.7262e+01	13.0585	37.004386	0.000203	2.026848	0.686715	-0.000081
 678	6.7362e+01	13.0167	36.895384	0.000274	2.736245	0.927065	-0.000110
 679	6.7461e+01	12.9911	36.798492	0.000243	2.432218	0.824058	-0.000097
 680	6.7561e+01	12.9365	36.689490	0.000274	2.736245	0.927065	-0.000110
 681	6.7660e+01	12.9061	36.632970	0.000142	1.418794	0.480700	-0.000057
 682	6.7760e+01	12.8772	36.487633	0.000365	3.648327	1.236087	-0.000146
 683	6.7859e+01	12.8258	36.394779	0.000233	2.330876	0.789722	-0.000093
 684	6.7959e+01	12.7841	36.309999	0.000213	2.128191	0.721051	-0.000085
 685	6.8058e+01	12.7360	36.176773	0.000334	3.344300	1.133079	-0.000134
 686	6.8157e+01	12.7007	36.039511	0.000345	3.445642	1.167415	-0.000138
 687	6.8257e+01	12.6702	35.970879	0.000172	1.722821	0.583708	-0.000069
 688	6.8356e+01	12.6317	35.882062	0.000223	2.229533	0.755386	-0.000089
 689	6.8456e+01	12.5980	35.777097	0.000263	2.634903	0.892729	-0.000105
 690	6.8555e+01	12.5547	35.655983	0.000304	3.040273	1.030072	-0.000122
 691	6.8655e+01	12.5066	35.611574	0.000111	1.114767	0.377693	-0.000045
 692	6.8754e+01	12.4729	35.429903	0.000456	4.560409	1.545108	-0.000183
 693	6.8854e+01	12.4200	35.397606	0.000081	0.810739	0.274686	-0.000032
 694	6.8954e+01	12.3863	35.248232	0.000375	3.749670	1.270422	-0.000150
 695	6.9053e+01	12.3478	35.119044	0.000324	3.242957	1.098744	-0.000130
 696	6.9153e+01	12.2997	35.030227	0.000223	2.229533	0.755386	-0.000089
 697	6.9252e+01	12.2660	34.925261	0.000263	2.634903	0.892729	-0.000105
 698	6.9352e+01	12.2259	34.808184	0.000294	2.938930	0.995736	-0.000118
 699	6.9451e+01	12.1922	34.739553	0.000172	1.722821	0.583708	-0.000069
 700	6.9550e+01	12.1473	34.602290	0.000345	3.445642	1.167415	-0.000138
 701	6.9650e+01	12.1152	34.529622	0.000182	1.824164	0.618043	-0.000073
 702	6.9749e+01	12.0735	34.392359	0.000345	3.445642	1.167415	-0.000138
 703	6.9849e+01	12.0269	34.307580	0.000213	2.128191	0.721051	-0.000085
 704	6.9948e+01	11.9916	34.162243	0.000365	3.648327	1.236087	-0.000146
 705	7.0048e+01	11.9531	34.053240	0.000274	2.736245	0.927065	-0.000110
 706	7.0147e+01	11.9146	33.948274	0.000263	2.634903	0.892729	-0.000105
 707	7.0247e+01	11.8681	33.871569	0.000193	1.925506	0.652379	-0.000077
 708	7.0347e+01	11.8232	33.754492	0.000294	2.938930	0.995736	-0.000118
 709	7.0446e+01	11.7895	33.617229	0.000345	3.445642	1.167415	-0.000138
 710	7.0546e+01	11.7510	33.500152	0.000294	2.938930	0.995736	-0.000118
 711	7.0645e+01	11.7109	33.375001	0.000314	3.141615	1.064408	-0.000126
 712	7.0745e+01	11.6708	33.310407	0.000162	1.621479	0.549372	-0.000065
 713	7.0844e+01	11.6291	33.205441	0.000263	2.634903	0.892729	-0.000105
 714	7.0944e+01	11.6018	33.116624	0.000223	2.229533	0.755386	-0.000089
 715	7.1043e+01	11.5505	32.999548	0.000294	2.938930	0.995736	-0.000118
 716	7.1142e+01	11.5023	32.850174	0.000375	3.749670	1.270422	-0.000150
 717	7.1242e+01	11.4638	32.773468	0.000193	1.925506	0.652379	-0.000077
 718	7.1341e+01	11.4286	32.708874	0.000162	1.621479	0.549372	-0.000065
 719	7.1441e+01	11.4061	32.607945	0.000253	2.533560	0.858394	-0.000101
 720	7.1540e+01	11.3532	32.502980	0.000263	2.634903	0.892729	-0.000105
 721	7.1640e+01	11.3098	32.337457	0.000416	4.155039	1.407765	-0.000166
 722	7.1740e+01	11.2697	32.192120	0.000365	3.648327	1.236087	-0.000146
 723	7.1839e+01	11.2360	32.127526	0.000162	1.621479	0.549372	-0.000065
 724	7.1939e+01	11.1959	31.998338	0.000324	3.242957	1.098744	-0.000130
 725	7.2038e+01	11.1574	31.861075	0.000345	3.445642	1.167415	-0.000138
 726	7.2138e+01	11.1125	31.764184	0.000243	2.432218	0.824058	-0.000097
 727	7.2237e+01	11.0692	31.659218	0.000263	2.634903	0.892729	-0.000105
 728	7.2337e+01	11.0323	31.521956	0.000345	3.445642	1.167415	-0.000138
 729	7.2436e+01	11.0018	31.465436	0.000142	1.418794	0.480700	-0.000057
 730	7.2535e+01	10.9601	31.299913	0.000416	4.155039	1.407765	-0.000166
 731	7.2635e+01	10.9120	31.211096	0.000223	2.229533	0.755386	-0.000089
 732	7.2734e+01	10.8719	31.138428	0.000182	1.824164	0.618043	-0.000073
 733	7.2834e+01	10.8302	31.021351	0.000294	2.938930	0.995736	-0.000118
 734	7.2933e+01	10.7997	30.888126	0.000334	3.344300	1.133079	-0.000134
 735	7.3033e+01	10.7564	30.839680	0.000122	1.216109	0.412029	-0.000049
 736	7.3132e+01	10.7147	30.690306	0.000375	3.749670	1.270422	-0.000150
 737	7.3232e+01	10.6730	30.633786	0.000142	1.418794	0.480700	-0.000057
 738	7.3332e+01	10.6409	30.528820	0.000263	2.634903	0.892729	-0.000105
 739	7.3431e+01	10.5944	30.403669	0.000314	3.141615	1.064408	-0.000126
 740	7.3531e+01	10.5655	30.278518	0.000314	3.141615	1.064408	-0.000126
 741	7.3630e+01	10.5174	30.112995	0.000416	4.155039	1.407765	-0.000166
 742	7.3730e+01	10.4756	30.012067	0.000253	2.533560	0.858394	-0.000101
 743	7.3829e+01	10.4403	29.890953	0.000304	3.040273	1.030072	-0.000122
 744	7.3928e+01	10.3938	29.769839	0.000304	3.040273	1.030072	-0.000122
 745	7.4028e+01	10.3553	29.681022	0.000223	2.229533	0.755386	-0.000089
 746	7.4127e+01	10.3120	29.567982	0.000284	2.837588	0.961401	-0.000114
 747	7.4227e+01	10.2767	29.450905	0.000294	2.938930	0.995736	-0.000118
 748	7.4326e+01	10.2430	29.358051	0.000233	2.330876	0.789722	-0.000093
 749	7.4426e+01	10.1837	29.245011	0.000284	2.837588	0.961401	-0.000114
 750	7.4525e+01	10.1596	29.127934	0.000294	2.938930	0.995736	-0.000118
 751	7.4625e+01	10.1195	29.018932	0.000274	2.736245	0.927065	-0.000110
 752	7.4725e+01	10.0778	28.881669	0.000345	3.445642	1.167415	-0.000138
 753	7.4824e+01	10.0313	28.804963	0.000193	1.925506	0.652379	-0.000077
 754	7.4924e+01	9.9992	28.720184	0.000213	2.128191	0.721051	-0.000085
 755	7.5023e+01	9.9607	28.643478	0.000193	1.925506	0.652379	-0.000077
 756	7.5123e+01	9.9126	28.506215	0.000345	3.445642	1.167415	-0.000138
 757	7.5222e+01	9.8805	28.381064	0.000314	3.141615	1.064408	-0.000126
 758	7.5322e+01	9.8372	28.276099	0.000263	2.634903	0.892729	-0.000105
 759	7.5421e+01	9.7890	28.146910	0.000324	3.242957	1.098744	-0.000130
 760	7.5520e+01	9.7618	27.989462	0.000395	3.952354	1.339094	-0.000158
 761	7.5620e+01	9.7184	27.876422	0.000284	2.837588	0.961401	-0.000114
 762	7.5719e+01	9.6751	27.795680	0.000203	2.026848	0.686715	-0.000081
 763	7.5819e+01	9.6382	27.670528	0.000314	3.141615	1.064408	-0.000126
 764	7.5918e+01	9.5997	27.593823	0.000193	1.925506	0.652379	-0.000077
 765	7.6018e+01	9.5709	27.444449	0.000375	3.749670	1.270422	-0.000150
 766	7.6118e+01	9.5179	27.347557	0.000243	2.432218	0.824058	-0.000097
 767	7.6217e+01	9.4698	27.222406	0.000314	3.141615	1.064408	-0.000126
 768	7.6317e+01	9.4361	27.125515	0.000243	2.432218	0.824058	-0.000097
 769	7.6416e+01	9.4024	27.028624	0.000243	2.432218	0.824058	-0.000097
 770	7.6516e+01	9.3639	26.927695	0.000253	2.533560	0.858394	-0.000101
 771	7.6615e+01	9.3206	26.826767	0.000253	2.533560	0.858394	-0.000101
 772	7.6715e+01	9.2757	26.737950	0.000223	2.229533	0.755386	-0.000089
 773	7.6814e+01	9.2452	26.645096	0.000233	2.330876	0.789722	-0.000093
 774	7.6913e+01	9.1987	26.536093	0.000274	2.736245	0.927065	-0.000110
 775	7.7013e+01	9.1554	26.431128	0.000263	2.634903	0.892729	-0.000105
 776	7.7112e+01	9.1249	26.318088	0.000284	2.837588	0.961401	-0.000114
 777	7.7212e+01	9.0767	26.172751	0.000365	3.648327	1.236087	-0.000146
 778	7.7311e+01	9.0431	26.043563	0.000324	3.242957	1.098744	-0.000130
 779	7.7411e+01	9.0014	25.946671	0.000243	2.432218	0.824058	-0.000097
 780	7.7510e+01	8.9612	25.837669	0.000274	2.736245	0.927065	-0.000110
 781	7.7610e+01	8.9131	25.724629	0.000284	2.837588	0.961401	-0.000114
 782	7.7710e+01	8.8891	25.647923	0.000193	1.925506	0.652379	-0.000077
 783	7.7809e+01	8.8393	25.510661	0.000345	3.445642	1.167415	-0.000138
 784	7.7909e+01	8.8008	25.373398	0.000345	3.445642	1.167415	-0.000138
 785	7.8008e+01	8.7591	25.304767	0.000172	1.722821	0.583708	-0.000069
 786	7.8108e+01	8.7270	25.171541	0.000334	3.344300	1.133079	-0.000134
 787	7.8207e+01	8.6757	25.058502	0.000284	2.837588	0.961401	-0.000114
 788	7.8306e+01	8.6452	24.977759	0.000203	2.026848	0.686715	-0.000081
 789	7.8406e+01	8.6051	24.880868	0.000243	2.432218	0.824058	-0.000097
 790	7.8505e+01	8.5618	24.783976	0.000243	2.432218	0.824058	-0.000097
 791	7.8605e+01	8.5265	24.711308	0.000182	1.824164	0.618043	-0.000073
 792	7.8704e+01	8.4800	24.594231	0.000294	2.938930	0.995736	-0.000118
 793	7.8804e+01	8.4495	24.481191	0.000284	2.837588	0.961401	-0.000114
 794	7.8903e+01	8.3966	24.360077	0.000304	3.040273	1.030072	-0.000122
 795	7.9003e+01	8.3661	24.230889	0.000324	3.242957	1.098744	-0.000130
 796	7.9103e+01	8.3212	24.073440	0.000395	3.952354	1.339094	-0.000158
 797	7.9202e+01	8.2794	24.012883	0.000152	1.520136	0.515036	-0.000061
 798	7.9302e+01	8.2329	23.887732	0.000314	3.141615	1.064408	-0.000126
 799	7.9401e+01	8.2040	23.758544	0.000324	3.242957	1.098744	-0.000130
 800	7.9501e+01	8.1671	23.677801	0.000203	2.026848	0.686715	-0.000081
 801	7.9600e+01	8.1254	23.544576	0.000334	3.344300	1.133079	-0.000134
 802	7.9700e+01	8.0837	23.435573	0.000274	2.736245	0.927065	-0.000110
 803	7.9799e+01	8.0420	23.346756	0.000223	2.229533	0.755386	-0.000089
 804	7.9898e+01	8.0035	23.233716	0.000284	2.837588	0.961401	-0.000114
 805	7.9998e+01	7.9666	23.128751	0.000263	2.634903	0.892729	-0.000105
 806	8.0097e+01	7.9217	22.995525	0.000334	3.344300	1.133079	-0.000134
 807	8.0197e+01	7.8880	22.934968	0.000152	1.520136	0.515036	-0.000061
 808	8.0296e+01	7.8495	22.813854	0.000304	3.040273	1.030072	-0.000122
 809	8.0396e+01	7.8046	22.757334	0.000142	1.418794	0.480700	-0.000057
 810	8.0496e+01	7.7629	22.640257	0.000294	2.938930	0.995736	-0.000118
 811	8.0595e+01	7.7212	22.543366	0.000243	2.432218	0.824058	-0.000097
 812	8.0695e+01	7.6875	22.422252	0.000304	3.040273	1.030072	-0.000122
 813	8.0794e+01	7.6554	22.321323	0.000253	2.533560	0.858394	-0.000101
 814	8.0894e+01	7.6089	22.175987	0.000365	3.648327	1.236087	-0.000146
 815	8.0993e+01	7.5591	22.058910	0.000294	2.938930	0.995736	-0.000118
 816	8.1093e+01	7.5239	21.933758	0.000314	3.141615	1.064408	-0.000126
 817	8.1192e+01	7.4902	21.840904	0.000233	2.330876	0.789722	-0.000093
 818	8.1291e+01	7.4388	21.739976	0.000253	2.533560	0.858394	-0.000101
 819	8.1391e+01	7.4051	21.651159	0.000223	2.229533	0.755386	-0.000089
 820	8.1490e+01	7.3763	21.497748	0.000385	3.851012	1.304758	-0.000154
 821	8.1590e+01	7.3265	21.400857	0.000243	2.432218	0.824058	-0.000097
 822	8.1689e+01	7.2896	21.308002	0.000233	2.330876	0.789722	-0.000093
 823	8.1789e+01	7.2447	21.186888	0.000304	3.040273	1.030072	-0.000122
 824	8.1888e+01	7.1950	21.098071	0.000223	2.229533	0.755386	-0.000089
 825	8.1988e+01	7.1613	20.980994	0.000294	2.938930	0.995736	-0.000118
 826	8.2088e+01	7.1276	20.884103	0.000243	2.432218	0.824058	-0.000097
 827	8.2187e+01	7.0843	20.819509	0.000162	1.621479	0.549372	-0.000065
 828	8.2287e+01	7.0634	20.718581	0.000253	2.533560	0.858394	-0.000101
 829	8.2386e+01	7.0137	20.609578	0.000274	2.736245	0.927065	-0.000110
 830	8.2486e+01	6.9736	20.484427	0.000314	3.141615	1.064408	-0.000126
 831	8.2585e+01	6.9271	20.395610	0.000223	2.229533	0.755386	-0.000089
 832	8.2684e+01	6.8950	20.222013	0.000436	4.357724	1.476437	-0.000174
 833	8.2784e+01	6.8533	20.133196	0.000223	2.229533	0.755386	-0.000089
 834	8.2883e+01	6.8100	19.987859	0.000365	3.648327	1.236087	-0.000146
 835	8.2983e+01	6.7699	19.886931	0.000253	2.533560	0.858394	-0.000101
 836	8.3082e+01	6.7346	19.757742	0.000324	3.242957	1.098744	-0.000130
 837	8.3182e+01	6.6880	19.685074	0.000182	1.824164	0.618043	-0.000073
 838	8.3281e+01	6.6528	19.555886	0.000324	3.242957	1.098744	-0.000130
 839	8.3381e+01	6.6062	19.483217	0.000182	1.824164	0.618043	-0.000073
 840	8.3481e+01	6.5709	19.358066	0.000314	3.141615	1.064408	-0.000126
 841	8.3580e+01	6.5244	19.232915	0.000314	3.141615	1.064408	-0.000126
 842	8.3680e+01	6.4843	19.148135	0.000213	2.128191	0.721051	-0.000085
 843	8.3779e+01	6.4490	19.018946	0.000324	3.242957	1.098744	-0.000130
 844	8.3879e+01	6.4137	18.966464	0.000132	1.317451	0.446365	-0.000053
 845	8.3978e+01	6.3720	18.869572	0.000243	2.432218	0.824058	-0.000097
 846	8.4078e+01	6.3303	18.720198	0.000375	3.749670	1.270422	-0.000150
 847	8.4177e+01	6.2950	18.647530	0.000182	1.824164	0.618043	-0.000073
 848	8.4276e+01	6.2597	18.526416	0.000304	3.040273	1.030072	-0.000122
 849	8.4376e+01	6.2148	18.453747	0.000182	1.824164	0.618043	-0.000073
 850	8.4475e+01	6.1699	18.304373	0.000375	3.749670	1.270422	-0.000150
 851	8.4575e+01	6.1378	18.154999	0.000375	3.749670	1.270422	-0.000150
 852	8.4674e+01	6.0897	18.054071	0.000253	2.533560	0.858394	-0.000101
 853	8.4774e+01	6.0624	17.928920	0.000314	3.141615	1.064408	-0.000126
 854	8.4874e+01	6.0127	17.775509	0.000385	3.851012	1.304758	-0.000154
 855	8.4973e+01	5.9790	17.670543	0.000263	2.634903	0.892729	-0.000105
 856	8.5073e+01	5.9325	17.565578	0.000263	2.634903	0.892729	-0.000105
 857	8.5172e+01	5.8940	17.440426	0.000314	3.141615	1.064408	-0.000126
 858	8.5272e+01	5.8619	17.375832	0.000162	1.621479	0.549372	-0.000065
 859	8.5371e+01	5.8137	17.230495	0.000365	3.648327	1.236087	-0.000146
 860	8.5471e+01	5.7784	17.141678	0.000223	2.229533	0.755386	-0.000089
 861	8.5570e+01	5.7432	16.992304	0.000375	3.749670	1.270422	-0.000150
 862	8.5669e+01	5.6838	16.919636	0.000182	1.824164	0.618043	-0.000073
 863	8.5769e+01	5.6597	16.802559	0.000294	2.938930	0.995736	-0.000118
 864	8.5868e+01	5.6132	16.697593	0.000263	2.634903	0.892729	-0.000105
 865	8.5968e+01	5.5699	16.628962	0.000172	1.722821	0.583708	-0.000069
 866	8.6067e+01	5.5394	16.515922	0.000284	2.837588	0.961401	-0.000114
 867	8.6167e+01	5.4945	16.394808	0.000304	3.040273	1.030072	-0.000122
 868	8.6266e+01	5.4608	16.265620	0.000324	3.242957	1.098744	-0.000130
 869	8.6366e+01	5.4223	16.152580	0.000284	2.837588	0.961401	-0.000114
 870	8.6466e+01	5.3870	16.027429	0.000314	3.141615	1.064408	-0.000126
 871	8.6565e+01	5.3373	15.837684	0.000476	4.763094	1.613780	-0.000191
 872	8.6665e+01	5.2940	15.756941	0.000203	2.026848	0.686715	-0.000081
 873	8.6764e+01	5.2571	15.647938	0.000274	2.736245	0.927065	-0.000110
 874	8.6864e+01	5.2186	15.551047	0.000243	2.432218	0.824058	-0.000097
 875	8.6963e+01	5.1865	15.429933	0.000304	3.040273	1.030072	-0.000122
 876	8.7063e+01	5.1319	15.300744	0.000324	3.242957	1.098744	-0.000130
 877	8.7162e+01	5.0902	15.151370	0.000375	3.749670	1.270422	-0.000150
 878	8.7261e+01	5.0533	15.090813	0.000152	1.520136	0.515036	-0.000061
 879	8.7361e+01	5.0196	14.945477	0.000365	3.648327	1.236087	-0.000146
 880	8.7460e+01	4.9731	14.868771	0.000193	1.925506	0.652379	-0.000077
 881	8.7560e+01	4.9330	14.747657	0.000304	3.040273	1.030072	-0.000122
 882	8.7659e+01	4.9025	14.670951	0.000193	1.925506	0.652379	-0.000077
 883	8.7759e+01	4.8592	14.578097	0.000233	2.330876	0.789722	-0.000093
 884	8.7859e+01	4.8127	14.444872	0.000334	3.344300	1.133079	-0.000134
 885	8.7958e+01	4.7742	14.319720	0.000314	3.141615	1.064408	-0.000126
 886	8.8058e+01	4.7421	14.234941	0.000213	2.128191	0.721051	-0.000085
 887	8.8157e+01	4.6940	14.125938	0.000274	2.736245	0.927065	-0.000110
 888	8.8257e+01	4.6651	14.012898	0.000284	2.837588	0.961401	-0.000114
 889	8.8356e+01	4.6170	13.774707	0.000598	5.979203	2.025809	-0.000239
 890	8.8456e+01	4.5785	13.665704	0.000274	2.736245	0.927065	-0.000110
 891	8.8555e+01	4.5416	13.556702	0.000274	2.736245	0.927065	-0.000110
 892	8.8654e+01	4.5015	13.471922	0.000213	2.128191	0.721051	-0.000085
 893	8.8754e+01	4.4582	13.314474	0.000395	3.952354	1.339094	-0.000158
 894	8.8853e+01	4.4229	13.221620	0.000233	2.330876	0.789722	-0.000093
 895	8.8953e+01	4.3780	13.088394	0.000334	3.344300	1.133079	-0.000134
 896	8.9052e+01	4.3330	12.999577	0.000223	2.229533	0.755386	-0.000089
 897	8.9152e+01	4.2913	12.910760	0.000223	2.229533	0.755386	-0.000089
 898	8.9251e+01	4.2592	12.745238	0.000416	4.155039	1.407765	-0.000166
 899	8.9351e+01	4.2207	12.664495	0.000203	2.026848	0.686715	-0.000081
 900	8.9451e+01	4.1758	12.559529	0.000263	2.634903	0.892729	-0.000105
 901	8.9550e+01	4.1469	12.470712	0.000223	2.229533	0.755386	-0.000089
 902	8.9650e+01	4.1068	12.349598	0.000304	3.040273	1.030072	-0.000122
 903	8.9749e+01	4.0507	12.224447	0.000314	3.141615	1.064408	-0.000126
 904	8.9849e+01	4.0186	12.119481	0.000263	2.634903	0.892729	-0.000105
 905	8.9948e+01	3.9785	11.974145	0.000365	3.648327	1.236087	-0.000146
 906	9.0047e+01	3.9368	11.836882	0.000345	3.445642	1.167415	-0.000138
 907	9.0147e+01	3.8999	11.731916	0.000263	2.634903	0.892729	-0.000105
 908	9.0246e+01	3.8614	11.586580	0.000365	3.648327	1.236087	-0.000146
 909	9.0346e+01	3.8165	11.485651	0.000253	2.533560	0.858394	-0.000101
 910	9.0445e+01	3.7892	11.332240	0.000385	3.851012	1.304758	-0.000154
 911	9.0545e+01	3.7427	11.223237	0.000274	2.736245	0.927065	-0.000110
 912	9.0644e+01	3.6978	11.122309	0.000253	2.533560	0.858394	-0.000101
 913	9.0744e+01	3.6593	11.013306	0.000274	2.736245	0.927065	-0.000110
 914	9.0844e+01	3.6304	10.867969	0.000365	3.648327	1.236087	-0.000146
 915	9.0943e+01	3.5903	10.754930	0.000284	2.837588	0.961401	-0.000114
 916	9.1043e+01	3.5421	10.666113	0.000223	2.229533	0.755386	-0.000089
 917	9.1142e+01	3.5004	10.540961	0.000314	3.141615	1.064408	-0.000126
 918	9.1242e+01	3.4651	10.423884	0.000294	2.938930	0.995736	-0.000118
 919	9.1341e+01	3.4186	10.335067	0.000223	2.229533	0.755386	-0.000089
 920	9.1441e+01	3.3849	10.246251	0.000223	2.229533	0.755386	-0.000089
 921	9.1540e+01	3.3416	10.137248	0.000274	2.736245	0.927065	-0.000110
 922	9.1639e+01	3.3063	9.991911	0.000365	3.648327	1.236087	-0.000146
 923	9.1739e+01	3.2678	9.878871	0.000284	2.837588	0.961401	-0.000114
 924	9.1838e+01	3.2165	9.757757	0.000304	3.040273	1.030072	-0.000122
 925	9.1938e+01	3.1860	9.656829	0.000253	2.533560	0.858394	-0.000101
 926	9.2037e+01	3.1331	9.519566	0.000345	3.445642	1.167415	-0.000138
 927	9.2137e+01	3.1138	9.313672	0.000517	5.168463	1.751123	-0.000207
 928	9.2237e+01	3.0657	9.273301	0.000101	1.013424	0.343357	-0.000041
 929	9.2336e+01	3.0288	9.107778	0.000416	4.155039	1.407765	-0.000166
 930	9.2436e+01	2.9855	8.994738	0.000284	2.837588	0.961401	-0.000114
 931	9.2535e+01	2.9438	8.893810	0.000253	2.533560	0.858394	-0.000101
 932	9.2635e+01	2.9069	8.821142	0.000182	1.824164	0.618043	-0.000073
 933	9.2734e+01	2.8668	8.687916	0.000334	3.344300	1.133079	-0.000134
 934	9.2834e+01	2.8186	8.538542	0.000375	3.749670	1.270422	-0.000150
 935	9.2933e+01	2.7769	8.514319	0.000061	0.608055	0.206014	-0.000024
 936	9.3032e+01	2.7513	8.356871	0.000395	3.952354	1.339094	-0.000158
 937	9.3132e+01	2.7047	8.268054	0.000223	2.229533	0.755386	-0.000089
 938	9.3231e+01	2.6678	8.130791	0.000345	3.445642	1.167415	-0.000138
 939	9.3331e+01	2.6374	8.037937	0.000233	2.330876	0.789722	-0.000093
 940	9.3430e+01	2.5844	7.941046	0.000243	2.432218	0.824058	-0.000097
 941	9.3530e+01	2.5379	7.775523	0.000416	4.155039	1.407765	-0.000166
 942	9.3629e+01	2.5074	7.690744	0.000213	2.128191	0.721051	-0.000085
 943	9.3729e+01	2.4705	7.565592	0.000314	3.141615	1.064408	-0.000126
 944	9.3829e+01	2.4272	7.428330	0.000345	3.445642	1.167415	-0.000138
 945	9.3928e+01	2.3855	7.274919	0.000385	3.851012	1.304758	-0.000154
 946	9.4028e+01	2.3422	7.186102	0.000223	2.229533	0.755386	-0.000089
 947	9.4127e+01	2.3133	7.028653	0.000395	3.952354	1.339094	-0.000158
 948	9.4227e+01	2.2636	6.899465	0.000324	3.242957	1.098744	-0.000130
 949	9.4326e+01	2.2315	6.814685	0.000213	2.128191	0.721051	-0.000085
 950	9.4425e+01	2.1930	6.742017	0.000182	1.824164	0.618043	-0.000073
 951	9.4525e+01	2.1433	6.596680	0.000365	3.648327	1.236087	-0.000146
 952	9.4624e+01	2.1144	6.511900	0.000213	2.128191	0.721051	-0.000085
 953	9.4724e+01	2.0711	6.451343	0.000152	1.520136	0.515036	-0.000061
 954	9.4823e+01	2.0358	6.306006	0.000365	3.648327	1.236087	-0.000146
 955	9.4923e+01	1.9892	6.229300	0.000193	1.925506	0.652379	-0.000077
 956	9.5022e+01	1.9524	6.075889	0.000385	3.851012	1.304758	-0.000154
 957	9.5122e+01	1.9122	5.995147	0.000203	2.026848	0.686715	-0.000081
 958	9.5222e+01	1.8657	5.878070	0.000294	2.938930	0.995736	-0.000118
 959	9.5321e+01	1.8320	5.781178	0.000243	2.432218	0.824058	-0.000097
 960	9.5421e+01	1.7871	5.643916	0.000345	3.445642	1.167415	-0.000138
 961	9.5520e+01	1.7486	5.462245	0.000456	4.560409	1.545108	-0.000183
 962	9.5620e+01	1.7117	5.389576	0.000182	1.824164	0.618043	-0.000073
 963	9.5719e+01	1.6748	5.228091	0.000405	4.053697	1.373430	-0.000162
 964	9.5819e+01	1.6315	5.123125	0.000263	2.634903	0.892729	-0.000105
 965	9.5918e+01	1.5946	5.014123	0.000274	2.736245	0.927065	-0.000110
 966	9.6017e+01	1.5497	4.897046	0.000294	2.938930	0.995736	-0.000118
 967	9.6117e+01	1.5128	4.763820	0.000334	3.344300	1.133079	-0.000134
 968	9.6216e+01	1.4679	4.699226	0.000162	1.621479	0.549372	-0.000065
 969	9.6316e+01	1.4262	4.561963	0.000345	3.445642	1.167415	-0.000138
 970	9.6415e+01	1.3845	4.448924	0.000284	2.837588	0.961401	-0.000114
 971	9.6515e+01	1.3460	4.396441	0.000132	1.317451	0.446365	-0.000053
 972	9.6615e+01	1.3026	4.263215	0.000334	3.344300	1.133079	-0.000134
 973	9.6714e+01	1.2770	4.142101	0.000304	3.040273	1.030072	-0.000122
 974	9.6814e+01	1.2304	4.041173	0.000253	2.533560	0.858394	-0.000101
 975	9.6913e+01	1.1984	3.968504	0.000182	1.824164	0.618043	-0.000073
 976	9.7013e+01	1.1486	3.867576	0.000253	2.533560	0.858394	-0.000101
 977	9.7112e+01	1.1101	3.746462	0.000304	3.040273	1.030072	-0.000122
 978	9.7212e+01	1.0700	3.637459	0.000274	2.736245	0.927065	-0.000110
 979	9.7311e+01	1.0283	3.512308	0.000314	3.141615	1.064408	-0.000126
 980	9.7410e+01	1.0042	3.326600	0.000466	4.661751	1.579444	-0.000187
 981	9.7510e+01	0.9609	3.229709	0.000243	2.432218	0.824058	-0.000097
 982	9.7609e+01	0.9112	3.096483	0.000334	3.344300	1.133079	-0.000134
 983	9.7709e+01	0.8823	2.991518	0.000263	2.634903	0.892729	-0.000105
 984	9.7808e+01	0.8294	2.842144	0.000375	3.749670	1.270422	-0.000150
 985	9.7908e+01	0.7861	2.777549	0.000162	1.621479	0.549372	-0.000065
 986	9.8007e+01	0.7556	2.672584	0.000263	2.634903	0.892729	-0.000105
 987	9.8107e+01	0.7059	2.539358	0.000334	3.344300	1.133079	-0.000134
 988	9.8207e+01	0.6754	2.446504	0.000233	2.330876	0.789722	-0.000093
 989	9.8306e+01	0.6385	2.345576	0.000253	2.533560	0.858394	-0.000101
 990	9.8406e+01	0.5936	2.276945	0.000172	1.722821	0.583708	-0.000069
 991	9.8505e+01	0.5486	2.123533	0.000385	3.851012	1.304758	-0.000154
 992	9.8605e+01	0.5182	2.038754	0.000213	2.128191	0.721051	-0.000085
 993	9.8704e+01	0.4652	1.945899	0.000233	2.330876	0.789722	-0.000093
 994	9.8803e+01	0.4315	1.804600	0.000355	3.546985	1.201751	-0.000142
 995	9.8903e+01	0.3898	1.687523	0.000294	2.938930	0.995736	-0.000118
 996	9.9002e+01	0.3481	1.562372	0.000314	3.141615	1.064408	-0.000126
 997	9.9102e+01	0.3225	1.481629	0.000203	2.026848	0.686715	-0.000081
 998	9.9201e+01	0.2791	1.376663	0.000263	2.634903	0.892729	-0.000105
 999	9.9301e+01	0.2374	1.199029	0.000446	4.459066	1.510773	-0.000179
1000	9.9400e+01	0.1989	1.118287	0.000203	2.026848	0.686715	-0.000081
1001	9.9500e+01	0.1540	0.989098	0.000324	3.242957	1.098744	-0.000130
1002	9.9600e+01	0.1203	0.847799	0.000355	3.546985	1.201751	-0.000142
1003	9.9699e+01	0.0738	0.714573	0.000334	3.344300	1.133079	-0.000134
1004	9.9799e+01	0.0369	0.633830	0.000203	2.026848	0.686715	-0.000081
1005	9.9898e+01	0.0064	0.540976	0.000233	2.330876	0.789722	-0.000093
1006	9.9998e+01	-0.0401	0.399676	0.000355	3.546985	1.201751	-0.000142
1007	1.0010e+02	-0.0754	0.322971	0.000193	1.925506	0.652379	-0.000077
1008	1.0020e+02	-0.1203	0.222042	0.000253	2.533560	0.858394	-0.000101
1009	1.0030e+02	-0.1636	0.149374	0.000182	1.824164	0.618043	-0.000073
1010	1.0040e+02	-0.1957	0.064594	0.000213	2.128191	0.721051	-0.000085
1011	1.0050e+02	-0.2438	-0.060557	0.000314	3.141615	1.064408	-0.000126
1012	1.0059e+02	-0.2839	-0.193783	0.000334	3.344300	1.133079	-0.000134
1013	1.0069e+02	-0.3176	-0.282600	0.000223	2.229533	0.755386	-0.000089
1014	1.0079e+02	-0.3545	-0.431974	0.000375	3.749670	1.270422	-0.000150
1015	1.0089e+02	-0.4027	-0.508679	0.000193	1.925506	0.652379	-0.000077
1016	1.0099e+02	-0.4364	-0.637867	0.000324	3.242957	1.098744	-0.000130
1017	1.0109e+02	-0.4781	-0.791279	0.000385	3.851012	1.304758	-0.000154
1018	1.0119e+02	-0.5053	-0.940653	0.000375	3.749670	1.270422	-0.000150
1019	1.0129e+02	-0.5503	-1.077915	0.000345	3.445642	1.167415	-0.000138
1020	1.0139e+02	-0.5920	-1.174806	0.000243	2.432218	0.824058	-0.000097
1021	1.0149e+02	-0.6321	-1.287846	0.000284	2.837588	0.961401	-0.000114
1022	1.0159e+02	-0.6690	-1.396849	0.000274	2.736245	0.927065	-0.000110
1023	1.0169e+02	-0.7139	-1.517963	0.000304	3.040273	1.030072	-0.000122
1024	1.0179e+02	-0.7524	-1.647151	0.000324	3.242957	1.098744	-0.000130
1025	1.0189e+02	-0.7941	-1.699634	0.000132	1.317451	0.446365	-0.000053
1026	1.0199e+02	-0.8358	-1.828822	0.000324	3.242957	1.098744	-0.000130
1027	1.0209e+02	-0.8727	-1.885342	0.000142	1.418794	0.480700	-0.000057
1028	1.0219e+02	-0.9224	-2.054902	0.000426	4.256382	1.442101	-0.000170
1029	1.0229e+02	-0.9433	-2.147756	0.000233	2.330876	0.789722	-0.000093
1030	1.0239e+02	-0.9978	-2.232536	0.000213	2.128191	0.721051	-0.000085
1031	1.0248e+02	-1.0363	-2.414207	0.000456	4.560409	1.545108	-0.000183
1032	1.0258e+02	-1.0700	-2.482838	0.000172	1.722821	0.583708	-0.000069
1033	1.0268e+02	-1.1149	-2.632213	0.000375	3.749670	1.270422	-0.000150
1034	1.0278e+02	-1.1534	-2.761401	0.000324	3.242957	1.098744	-0.000130
1035	1.0288e+02	-1.1871	-2.838106	0.000193	1.925506	0.652379	-0.000077
1036	1.0298e+02	-1.2288	-3.003629	0.000416	4.155039	1.407765	-0.000166
1037	1.0308e+02	-1.2770	-3.116669	0.000284	2.837588	0.961401	-0.000114
1038	1.0318e+02	-1.3123	-3.282191	0.000416	4.155039	1.407765	-0.000166
1039	1.0328e+02	-1.3492	-3.395231	0.000284	2.837588	0.961401	-0.000114
1040	1.0338e+02	-1.3909	-3.544605	0.000375	3.749670	1.270422	-0.000150
1041	1.0348e+02	-1.4246	-3.641496	0.000243	2.432218	0.824058	-0.000097
1042	1.0358e+02	-1.4711	-3.762611	0.000304	3.040273	1.030072	-0.000122
1043	1.0368e+02	-1.5112	-3.903910	0.000355	3.546985	1.201751	-0.000142
1044	1.0378e+02	-1.5465	-3.948319	0.000111	1.114767	0.377693	-0.000045
1045	1.0388e+02	-1.5882	-4.033099	0.000213	2.128191	0.721051	-0.000085
1046	1.0398e+02	-1.6331	-4.174398	0.000355	3.546985	1.201751	-0.000142
1047	1.0408e+02	-1.6828	-4.307624	0.000334	3.344300	1.133079	-0.000134
1048	1.0418e+02	-1.7053	-4.347995	0.000101	1.013424	0.343357	-0.000041
1049	1.0428e+02	-1.7550	-4.537741	0.000476	4.763094	1.613780	-0.000191
1050	1.0438e+02	-1.7871	-4.654818	0.000294	2.938930	0.995736	-0.000118
1051	1.0447e+02	-1.8304	-4.755746	0.000253	2.533560	0.858394	-0.000101
1052	1.0457e+02	-1.8609	-4.864749	0.000274	2.736245	0.927065	-0.000110
1053	1.0467e+02	-1.9138	-4.985863	0.000304	3.040273	1.030072	-0.000122
1054	1.0477e+02	-1.9443	-5.098902	0.000284	2.837588	0.961401	-0.000114
1055	1.0487e+02	-1.9860	-5.256351	0.000395	3.952354	1.339094	-0.000158
1056	1.0497e+02	-2.0261	-5.385539	0.000324	3.242957	1.098744	-0.000130
1057	1.0507e+02	-2.0679	-5.514727	0.000324	3.242957	1.098744	-0.000130
1058	1.0517e+02	-2.1128	-5.615656	0.000253	2.533560	0.858394	-0.000101
1059	1.0527e+02	-2.1513	-5.752918	0.000345	3.445642	1.167415	-0.000138
1060	1.0537e+02	-2.1834	-5.902292	0.000375	3.749670	1.270422	-0.000150
1061	1.0547e+02	-2.2299	-5.966887	0.000162	1.621479	0.549372	-0.000065
1062	1.0557e+02	-2.2668	-6.088001	0.000304	3.040273	1.030072	-0.000122
1063	1.0567e+02	-2.3069	-6.192966	0.000263	2.634903	0.892729	-0.000105
1064	1.0577e+02	-2.3406	-6.297932	0.000263	2.634903	0.892729	-0.000105
1065	1.0587e+02	-2.3855	-6.435194	0.000345	3.445642	1.167415	-0.000138
1066	1.0597e+02	-2.4208	-6.532086	0.000243	2.432218	0.824058	-0.000097
1067	1.0607e+02	-2.4737	-6.620903	0.000223	2.229533	0.755386	-0.000089
1068	1.0617e+02	-2.5122	-6.762202	0.000355	3.546985	1.201751	-0.000142
1069	1.0627e+02	-2.5443	-6.895428	0.000334	3.344300	1.133079	-0.000134
1070	1.0637e+02	-2.5860	-7.032690	0.000345	3.445642	1.167415	-0.000138
1071	1.0647e+02	-2.6197	-7.113433	0.000203	2.026848	0.686715	-0.000081
1072	1.0656e+02	-2.6598	-7.226473	0.000284	2.837588	0.961401	-0.000114
1073	1.0666e+02	-2.6999	-7.371810	0.000365	3.648327	1.236087	-0.000146
1074	1.0676e+02	-2.7448	-7.557518	0.000466	4.661751	1.579444	-0.000187
1075	1.0686e+02	-2.7801	-7.630187	0.000182	1.824164	0.618043	-0.000073
1076	1.0696e+02	-2.8251	-7.771486	0.000355	3.546985	1.201751	-0.000142
1077	1.0706e+02	-2.8668	-7.888563	0.000294	2.938930	0.995736	-0.000118
1078	1.0716e+02	-2.9037	-7.985454	0.000243	2.432218	0.824058	-0.000097
1079	1.0726e+02	-2.9422	-8.102531	0.000294	2.938930	0.995736	-0.000118
1080	1.0736e+02	-2.9775	-8.203460	0.000253	2.533560	0.858394	-0.000101
1081	1.0746e+02	-3.0288	-8.320537	0.000294	2.938930	0.995736	-0.000118
1082	1.0756e+02	-3.0609	-8.389168	0.000172	1.722821	0.583708	-0.000069
1083	1.0766e+02	-3.1106	-8.530468	0.000355	3.546985	1.201751	-0.000142
1084	1.0776e+02	-3.1459	-8.663693	0.000334	3.344300	1.133079	-0.000134
1085	1.0786e+02	-3.1908	-8.764622	0.000253	2.533560	0.858394	-0.000101
1086	1.0796e+02	-3.2213	-8.857476	0.000233	2.330876	0.789722	-0.000093
1087	1.0806e+02	-3.2694	-8.982627	0.000314	3.141615	1.064408	-0.000126
1088	1.0816e+02	-3.2983	-9.111815	0.000324	3.242957	1.098744	-0.000130
1089	1.0826e+02	-3.3384	-9.257152	0.000365	3.648327	1.236087	-0.000146
1090	1.0836e+02	-3.3753	-9.382303	0.000314	3.141615	1.064408	-0.000126
1091	1.0845e+02	-3.4234	-9.487269	0.000263	2.634903	0.892729	-0.000105
1092	1.0855e+02	-3.4587	-9.652792	0.000416	4.155039	1.407765	-0.000166
1093	1.0865e+02	-3.5004	-9.761794	0.000274	2.736245	0.927065	-0.000110
1094	1.0875e+02	-3.5373	-9.903094	0.000355	3.546985	1.201751	-0.000142
1095	1.0885e+02	-3.5774	-9.971725	0.000172	1.722821	0.583708	-0.000069
1096	1.0895e+02	-3.6191	-10.076691	0.000263	2.634903	0.892729	-0.000105
1097	1.0905e+02	-3.6593	-10.205879	0.000324	3.242957	1.098744	-0.000130
1098	1.0915e+02	-3.6978	-10.290659	0.000213	2.128191	0.721051	-0.000085
1099	1.0925e+02	-3.7379	-10.415810	0.000314	3.141615	1.064408	-0.000126
1100	1.0935e+02	-3.7780	-10.553073	0.000345	3.445642	1.167415	-0.000138
1101	1.0945e+02	-3.8133	-10.645927	0.000233	2.330876	0.789722	-0.000093
1102	1.0955e+02	-3.8646	-10.779152	0.000334	3.344300	1.133079	-0.000134
1103	1.0965e+02	-3.8967	-10.859895	0.000203	2.026848	0.686715	-0.000081
1104	1.0975e+02	-3.9384	-10.993121	0.000334	3.344300	1.133079	-0.000134
1105	1.0985e+02	-3.9897	-11.094049	0.000253	2.533560	0.858394	-0.000101
1106	1.0995e+02	-4.0282	-11.247460	0.000385	3.851012	1.304758	-0.000154
1107	1.1005e+02	-4.0619	-11.360500	0.000284	2.837588	0.961401	-0.000114
1108	1.1015e+02	-4.1004	-11.505837	0.000365	3.648327	1.236087	-0.000146
1109	1.1025e+02	-4.1309	-11.590617	0.000213	2.128191	0.721051	-0.000085
1110	1.1035e+02	-4.1774	-11.752102	0.000405	4.053697	1.373430	-0.000162
1111	1.1044e+02	-4.2207	-11.824771	0.000182	1.824164	0.618043	-0.000073
1112	1.1054e+02	-4.2641	-11.925699	0.000253	2.533560	0.858394	-0.000101
1113	1.1064e+02	-4.3026	-12.018553	0.000233	2.330876	0.789722	-0.000093
1114	1.1074e+02	-4.3394	-12.119481	0.000253	2.533560	0.858394	-0.000101
1115	1.1084e+02	-4.3796	-12.256744	0.000345	3.445642	1.167415	-0.000138
1116	1.1094e+02	-4.4148	-12.365747	0.000274	2.736245	0.927065	-0.000110
1117	1.1104e+02	-4.4534	-12.498972	0.000334	3.344300	1.133079	-0.000134
1118	1.1114e+02	-4.5015	-12.559529	0.000152	1.520136	0.515036	-0.000061
1119	1.1124e+02	-4.5352	-12.668532	0.000274	2.736245	0.927065	-0.000110
1120	1.1134e+02	-4.5769	-12.809832	0.000355	3.546985	1.201751	-0.000142
1121	1.1144e+02	-4.6234	-12.947094	0.000345	3.445642	1.167415	-0.000138
1122	1.1154e+02	-4.6507	-13.031874	0.000213	2.128191	0.721051	-0.000085
1123	1.1164e+02	-4.7020	-13.152988	0.000304	3.040273	1.030072	-0.000122
1124	1.1174e+02	-4.7421	-13.241805	0.000223	2.229533	0.755386	-0.000089
1125	1.1184e+02	-4.7742	-13.387142	0.000365	3.648327	1.236087	-0.000146
1126	1.1194e+02	-4.8111	-13.492108	0.000263	2.634903	0.892729	-0.000105
1127	1.1204e+02	-4.8528	-13.617259	0.000314	3.141615	1.064408	-0.000126
1128	1.1214e+02	-4.8993	-13.770670	0.000385	3.851012	1.304758	-0.000154
1129	1.1224e+02	-4.9394	-13.867561	0.000243	2.432218	0.824058	-0.000097
1130	1.1234e+02	-4.9731	-14.008861	0.000355	3.546985	1.201751	-0.000142
1131	1.1244e+02	-5.0196	-14.069418	0.000152	1.520136	0.515036	-0.000061
1132	1.1253e+02	-5.0517	-14.150161	0.000203	2.026848	0.686715	-0.000081
1133	1.1263e+02	-5.0983	-14.291461	0.000355	3.546985	1.201751	-0.000142
1134	1.1273e+02	-5.1287	-14.372203	0.000203	2.026848	0.686715	-0.000081
1135	1.1283e+02	-5.1801	-14.501392	0.000324	3.242957	1.098744	-0.000130
1136	1.1293e+02	-5.2138	-14.658840	0.000395	3.952354	1.339094	-0.000158
1137	1.1303e+02	-5.2523	-14.707285	0.000122	1.216109	0.412029	-0.000049
1138	1.1313e+02	-5.3020	-14.804177	0.000243	2.432218	0.824058	-0.000097
1139	1.1323e+02	-5.3453	-14.929328	0.000314	3.141615	1.064408	-0.000126
1140	1.1333e+02	-5.3726	-15.042368	0.000284	2.837588	0.961401	-0.000114
1141	1.1343e+02	-5.4239	-15.159445	0.000294	2.938930	0.995736	-0.000118
1142	1.1353e+02	-5.4528	-15.264410	0.000263	2.634903	0.892729	-0.000105
1143	1.1363e+02	-5.4993	-15.361301	0.000243	2.432218	0.824058	-0.000097
1144	1.1373e+02	-5.5298	-15.490490	0.000324	3.242957	1.098744	-0.000130
1145	1.1383e+02	-5.5763	-15.660050	0.000426	4.256382	1.442101	-0.000170
1146	1.1393e+02	-5.6084	-15.744829	0.000213	2.128191	0.721051	-0.000085
1147	1.1403e+02	-5.6629	-15.869981	0.000314	3.141615	1.064408	-0.000126
1148	1.1413e+02	-5.6854	-15.974946	0.000263	2.634903	0.892729	-0.000105
1149	1.1423e+02	-5.7303	-16.051652	0.000193	1.925506	0.652379	-0.000077
1150	1.1433e+02	-5.7720	-16.176803	0.000314	3.141615	1.064408	-0.000126
1151	1.1442e+02	-5.8073	-16.209100	0.000081	0.810739	0.274686	-0.000032
1152	1.1452e+02	-5.8506	-16.338288	0.000324	3.242957	1.098744	-0.000130
1153	1.1462e+02	-5.8923	-16.447291	0.000274	2.736245	0.927065	-0.000110
1154	1.1472e+02	-5.9308	-16.576479	0.000324	3.242957	1.098744	-0.000130
1155	1.1482e+02	-5.9677	-16.661259	0.000213	2.128191	0.721051	-0.000085
1156	1.1492e+02	-6.0207	-16.746039	0.000213	2.128191	0.721051	-0.000085
1157	1.1502e+02	-6.0560	-16.907524	0.000405	4.053697	1.373430	-0.000162
1158	1.1512e+02	-6.1025	-17.024601	0.000294	2.938930	0.995736	-0.000118
1159	1.1522e+02	-6.1314	-17.117456	0.000233	2.330876	0.789722	-0.000093
1160	1.1532e+02	-6.1683	-17.234532	0.000294	2.938930	0.995736	-0.000118
1161	1.1542e+02	-6.2132	-17.379869	0.000365	3.648327	1.236087	-0.000146
1162	1.1552e+02	-6.2549	-17.513095	0.000334	3.344300	1.133079	-0.000134
1163	1.1562e+02	-6.2950	-17.605949	0.000233	2.330876	0.789722	-0.000093
1164	1.1572e+02	-6.3383	-17.702840	0.000243	2.432218	0.824058	-0.000097
1165	1.1582e+02	-6.3736	-17.852214	0.000375	3.749670	1.270422	-0.000150
1166	1.1592e+02	-6.4105	-17.941031	0.000223	2.229533	0.755386	-0.000089
1167	1.1602e+02	-6.4506	-18.005625	0.000162	1.621479	0.549372	-0.000065
1168	1.1612e+02	-6.4843	-18.098480	0.000233	2.330876	0.789722	-0.000093
1169	1.1622e+02	-6.5324	-18.195371	0.000243	2.432218	0.824058	-0.000097
1170	1.1632e+02	-6.5693	-18.336671	0.000355	3.546985	1.201751	-0.000142
1171	1.1642e+02	-6.6191	-18.405302	0.000172	1.722821	0.583708	-0.000069
1172	1.1651e+02	-6.6592	-18.566787	0.000405	4.053697	1.373430	-0.000162
1173	1.1661e+02	-6.6929	-18.679827	0.000284	2.837588	0.961401	-0.000114
1174	1.1671e+02	-6.7201	-18.732310	0.000132	1.317451	0.446365	-0.000053
1175	1.1681e+02	-6.7683	-18.877647	0.000365	3.648327	1.236087	-0.000146
1176	1.1691e+02	-6.8100	-18.990687	0.000284	2.837588	0.961401	-0.000114
1177	1.1701e+02	-6.8485	-19.063355	0.000182	1.824164	0.618043	-0.000073
1178	1.1711e+02	-6.8806	-19.228878	0.000416	4.155039	1.407765	-0.000166
1179	1.1721e+02	-6.9271	-19.317695	0.000223	2.229533	0.755386	-0.000089
1180	1.1731e+02	-6.9624	-19.458994	0.000355	3.546985	1.201751	-0.000142
1181	1.1741e+02	-7.0073	-19.580108	0.000304	3.040273	1.030072	-0.000122
1182	1.1751e+02	-7.0538	-19.689111	0.000274	2.736245	0.927065	-0.000110
1183	1.1761e+02	-7.0827	-19.806188	0.000294	2.938930	0.995736	-0.000118
1184	1.1771e+02	-7.1212	-19.866745	0.000152	1.520136	0.515036	-0.000061
1185	1.1781e+02	-7.1597	-19.999970	0.000334	3.344300	1.133079	-0.000134
1186	1.1791e+02	-7.2062	-20.080713	0.000203	2.026848	0.686715	-0.000081
1187	1.1801e+02	-7.2479	-20.181642	0.000253	2.533560	0.858394	-0.000101
1188	1.1811e+02	-7.2896	-20.282570	0.000253	2.533560	0.858394	-0.000101
1189	1.1821e+02	-7.3265	-20.395610	0.000284	2.837588	0.961401	-0.000114
1190	1.1831e+02	-7.3522	-20.508650	0.000284	2.837588	0.961401	-0.000114
1191	1.1841e+02	-7.4228	-20.601504	0.000233	2.330876	0.789722	-0.000093
1192	1.1850e+02	-7.4485	-20.714543	0.000284	2.837588	0.961401	-0.000114
1193	1.1860e+02	-7.4902	-20.847769	0.000334	3.344300	1.133079	-0.000134
1194	1.1870e+02	-7.5271	-20.952734	0.000263	2.634903	0.892729	-0.000105
1195	1.1880e+02	-7.5688	-21.122294	0.000426	4.256382	1.442101	-0.000170
1196	1.1890e+02	-7.5993	-21.194963	0.000182	1.824164	0.618043	-0.000073
1197	1.1900e+02	-7.6410	-21.348374	0.000385	3.851012	1.304758	-0.000154
1198	1.1910e+02	-7.6795	-21.461414	0.000284	2.837588	0.961401	-0.000114
1199	1.1920e+02	-7.7196	-21.562342	0.000253	2.533560	0.858394	-0.000101
1200	1.1930e+02	-7.7613	-21.719790	0.000395	3.952354	1.339094	-0.000158
1201	1.1940e+02	-7.7998	-21.796496	0.000193	1.925506	0.652379	-0.000077
1202	1.1950e+02	-7.8383	-21.893387	0.000243	2.432218	0.824058	-0.000097
1203	1.1960e+02	-7.8848	-21.966056	0.000182	1.824164	0.618043	-0.000073
1204	1.1970e+02	-7.9265	-22.075058	0.000274	2.736245	0.927065	-0.000110
1205	1.1980e+02	-7.9682	-22.159838	0.000213	2.128191	0.721051	-0.000085
1206	1.1990e+02	-8.0019	-22.293064	0.000334	3.344300	1.133079	-0.000134
1207	1.2000e+02	-8.0484	-22.389955	0.000243	2.432218	0.824058	-0.000097
1208	1.2010e+02	-8.0885	-22.515106	0.000314	3.141615	1.064408	-0.000126
1209	1.2020e+02	-8.1158	-22.660443	0.000365	3.648327	1.236087	-0.000146
1210	1.2030e+02	-8.1591	-22.757334	0.000243	2.432218	0.824058	-0.000097
1211	1.2039e+02	-8.2073	-22.866337	0.000274	2.736245	0.927065	-0.000110
1212	1.2049e+02	-8.2425	-22.943042	0.000193	1.925506	0.652379	-0.000077
1213	1.2059e+02	-8.2794	-23.108565	0.000416	4.155039	1.407765	-0.000166
1214	1.2069e+02	-8.3196	-23.213530	0.000263	2.634903	0.892729	-0.000105
1215	1.2079e+02	-8.3629	-23.370979	0.000395	3.952354	1.339094	-0.000158
1216	1.2089e+02	-8.4078	-23.471907	0.000253	2.533560	0.858394	-0.000101
1217	1.2099e+02	-8.4479	-23.572836	0.000253	2.533560	0.858394	-0.000101
1218	1.2109e+02	-8.4752	-23.710098	0.000345	3.445642	1.167415	-0.000138
1219	1.2119e+02	-8.5137	-23.770655	0.000152	1.520136	0.515036	-0.000061
1220	1.2129e+02	-8.5634	-23.907918	0.000345	3.445642	1.167415	-0.000138
1221	1.2139e+02	-8.6019	-23.992698	0.000213	2.128191	0.721051	-0.000085
1222	1.2149e+02	-8.6452	-24.057292	0.000162	1.621479	0.549372	-0.000065
1223	1.2159e+02	-8.6837	-24.194554	0.000345	3.445642	1.167415	-0.000138
1224	1.2169e+02	-8.7270	-24.295483	0.000253	2.533560	0.858394	-0.000101
1225	1.2179e+02	-8.7527	-24.396411	0.000253	2.533560	0.858394	-0.000101
1226	1.2189e+02	-8.7960	-24.521562	0.000314	3.141615	1.064408	-0.000126
1227	1.2199e+02	-8.8489	-24.638639	0.000294	2.938930	0.995736	-0.000118
1228	1.2209e+02	-8.8858	-24.763791	0.000314	3.141615	1.064408	-0.000126
1229	1.2219e+02	-8.9211	-24.909128	0.000365	3.648327	1.236087	-0.000146
1230	1.2229e+02	-8.9661	-24.969685	0.000152	1.520136	0.515036	-0.000061
1231	1.2239e+02	-8.9997	-25.082724	0.000284	2.837588	0.961401	-0.000114
1232	1.2248e+02	-9.0366	-25.232098	0.000375	3.749670	1.270422	-0.000150
1233	1.2258e+02	-9.0735	-25.361287	0.000324	3.242957	1.098744	-0.000130
1234	1.2268e+02	-9.1201	-25.546995	0.000466	4.661751	1.579444	-0.000187
1235	1.2278e+02	-9.1634	-25.607552	0.000152	1.520136	0.515036	-0.000061
1236	1.2288e+02	-9.1955	-25.724629	0.000294	2.938930	0.995736	-0.000118
1237	1.2298e+02	-9.2372	-25.841706	0.000294	2.938930	0.995736	-0.000118
1238	1.2308e+02	-9.2741	-25.910337	0.000172	1.722821	0.583708	-0.000069
1239	1.2318e+02	-9.3222	-25.962820	0.000132	1.317451	0.446365	-0.000053
1240	1.2328e+02	-9.3591	-26.116231	0.000385	3.851012	1.304758	-0.000154
1241	1.2338e+02	-9.3976	-26.233308	0.000294	2.938930	0.995736	-0.000118
1242	1.2348e+02	-9.4425	-26.334236	0.000253	2.533560	0.858394	-0.000101
1243	1.2358e+02	-9.4746	-26.414979	0.000203	2.026848	0.686715	-0.000081
1244	1.2368e+02	-9.5163	-26.552242	0.000345	3.445642	1.167415	-0.000138
1245	1.2378e+02	-9.5709	-26.637022	0.000213	2.128191	0.721051	-0.000085
1246	1.2388e+02	-9.6029	-26.758136	0.000304	3.040273	1.030072	-0.000122
1247	1.2398e+02	-9.6366	-26.891361	0.000334	3.344300	1.133079	-0.000134
1248	1.2408e+02	-9.6703	-26.964030	0.000182	1.824164	0.618043	-0.000073
1249	1.2418e+02	-9.7233	-27.145701	0.000456	4.560409	1.545108	-0.000183
1250	1.2428e+02	-9.7553	-27.250666	0.000263	2.634903	0.892729	-0.000105
1251	1.2438e+02	-9.7938	-27.351595	0.000253	2.533560	0.858394	-0.000101
1252	1.2447e+02	-9.8307	-27.476746	0.000314	3.141615	1.064408	-0.000126
1253	1.2457e+02	-9.8692	-27.585748	0.000274	2.736245	0.927065	-0.000110
1254	1.2467e+02	-9.9158	-27.775494	0.000476	4.763094	1.613780	-0.000191
1255	1.2477e+02	-9.9511	-27.832014	0.000142	1.418794	0.480700	-0.000057
1256	1.2487e+02	-9.9896	-27.920831	0.000223	2.229533	0.755386	-0.000089
1257	1.2497e+02	-10.0281	-28.033871	0.000284	2.837588	0.961401	-0.000114
1258	1.2507e+02	-10.0746	-28.094428	0.000152	1.520136	0.515036	-0.000061
1259	1.2517e+02	-10.1131	-28.263987	0.000426	4.256382	1.442101	-0.000170
1260	1.2527e+02	-10.1564	-28.320507	0.000142	1.418794	0.480700	-0.000057
1261	1.2537e+02	-10.1869	-28.445658	0.000314	3.141615	1.064408	-0.000126
1262	1.2547e+02	-10.2366	-28.562735	0.000294	2.938930	0.995736	-0.000118
1263	1.2557e+02	-10.2719	-28.647515	0.000213	2.128191	0.721051	-0.000085
1264	1.2567e+02	-10.3120	-28.760555	0.000284	2.837588	0.961401	-0.000114
1265	1.2577e+02	-10.3633	-28.873595	0.000284	2.837588	0.961401	-0.000114
1266	1.2587e+02	-10.4034	-28.978560	0.000263	2.634903	0.892729	-0.000105
1267	1.2597e+02	-10.4291	-29.095637	0.000294	2.938930	0.995736	-0.000118
1268	1.2607e+02	-10.4676	-29.220788	0.000314	3.141615	1.064408	-0.000126
1269	1.2617e+02	-10.5093	-29.313643	0.000233	2.330876	0.789722	-0.000093
1270	1.2627e+02	-10.5542	-29.442831	0.000324	3.242957	1.098744	-0.000130
1271	1.2636e+02	-10.5944	-29.551834	0.000274	2.736245	0.927065	-0.000110
1272	1.2646e+02	-10.6313	-29.705245	0.000385	3.851012	1.304758	-0.000154
1273	1.2656e+02	-10.6794	-29.781950	0.000193	1.925506	0.652379	-0.000077
1274	1.2666e+02	-10.7099	-29.919213	0.000345	3.445642	1.167415	-0.000138
1275	1.2676e+02	-10.7548	-29.983807	0.000162	1.621479	0.549372	-0.000065
1276	1.2686e+02	-10.7820	-30.064550	0.000203	2.026848	0.686715	-0.000081
1277	1.2696e+02	-10.8382	-30.145293	0.000203	2.026848	0.686715	-0.000081
1278	1.2706e+02	-10.8751	-30.226035	0.000203	2.026848	0.686715	-0.000081
1279	1.2716e+02	-10.9120	-30.326964	0.000253	2.533560	0.858394	-0.000101
1280	1.2726e+02	-10.9537	-30.472301	0.000365	3.648327	1.236087	-0.000146
1281	1.2736e+02	-10.9970	-30.557080	0.000213	2.128191	0.721051	-0.000085
1282	1.2746e+02	-11.0323	-30.706454	0.000375	3.749670	1.270422	-0.000150
1283	1.2756e+02	-11.0772	-30.791234	0.000213	2.128191	0.721051	-0.000085
1284	1.2766e+02	-11.1189	-30.900237	0.000274	2.736245	0.927065	-0.000110
1285	1.2776e+02	-11.1542	-31.005202	0.000263	2.634903	0.892729	-0.000105
1286	1.2786e+02	-11.1927	-31.106131	0.000253	2.533560	0.858394	-0.000101
1287	1.2796e+02	-11.2280	-31.198985	0.000233	2.330876	0.789722	-0.000093
1288	1.2806e+02	-11.2633	-31.324136	0.000314	3.141615	1.064408	-0.000126
1289	1.2816e+02	-11.3211	-31.485622	0.000405	4.053697	1.373430	-0.000162
1290	1.2826e+02	-11.3419	-31.594624	0.000274	2.736245	0.927065	-0.000110
1291	1.2835e+02	-11.3949	-31.691516	0.000243	2.432218	0.824058	-0.000097
1292	1.2845e+02	-11.4253	-31.816667	0.000314	3.141615	1.064408	-0.000126
1293	1.2855e+02	-11.4687	-31.933744	0.000294	2.938930	0.995736	-0.000118
1294	1.2865e+02	-11.5120	-31.974115	0.000101	1.013424	0.343357	-0.000041
1295	1.2875e+02	-11.5521	-32.062932	0.000223	2.229533	0.755386	-0.000089
1296	1.2885e+02	-11.5842	-32.155786	0.000233	2.330876	0.789722	-0.000093
1297	1.2895e+02	-11.6339	-32.256715	0.000253	2.533560	0.858394	-0.000101
1298	1.2905e+02	-11.6740	-32.341494	0.000213	2.128191	0.721051	-0.000085
1299	1.2915e+02	-11.7173	-32.478757	0.000345	3.445642	1.167415	-0.000138
1300	1.2925e+02	-11.7414	-32.607945	0.000324	3.242957	1.098744	-0.000130
1301	1.2935e+02	-11.7815	-32.672540	0.000162	1.621479	0.549372	-0.000065
1302	1.2945e+02	-11.8232	-32.777505	0.000263	2.634903	0.892729	-0.000105
1303	1.2955e+02	-11.8617	-32.902656	0.000314	3.141615	1.064408	-0.000126
1304	1.2965e+02	-11.9082	-33.007622	0.000263	2.634903	0.892729	-0.000105
1305	1.2975e+02	-11.9451	-33.132773	0.000314	3.141615	1.064408	-0.000126
1306	1.2985e+02	-11.9884	-33.225627	0.000233	2.330876	0.789722	-0.000093
1307	1.2995e+02	-12.0317	-33.354815	0.000324	3.242957	1.098744	-0.000130
1308	1.3005e+02	-12.0638	-33.467855	0.000284	2.837588	0.961401	-0.000114
1309	1.3015e+02	-12.1039	-33.556672	0.000223	2.229533	0.755386	-0.000089
1310	1.3025e+02	-12.1408	-33.641452	0.000213	2.128191	0.721051	-0.000085
1311	1.3034e+02	-12.1825	-33.738343	0.000243	2.432218	0.824058	-0.000097
1312	1.3044e+02	-12.2275	-33.831197	0.000233	2.330876	0.789722	-0.000093
1313	1.3054e+02	-12.2676	-33.924052	0.000233	2.330876	0.789722	-0.000093
1314	1.3064e+02	-12.3013	-34.029017	0.000263	2.634903	0.892729	-0.000105
1315	1.3074e+02	-12.3510	-34.142057	0.000284	2.837588	0.961401	-0.000114
1316	1.3084e+02	-12.3927	-34.230874	0.000223	2.229533	0.755386	-0.000089
1317	1.3094e+02	-12.4200	-34.351988	0.000304	3.040273	1.030072	-0.000122
1318	1.3104e+02	-12.4729	-34.412545	0.000152	1.520136	0.515036	-0.000061
1319	1.3114e+02	-12.5002	-34.533659	0.000304	3.040273	1.030072	-0.000122
1320	1.3124e+02	-12.5435	-34.630550	0.000243	2.432218	0.824058	-0.000097
1321	1.3134e+02	-12.5884	-34.739553	0.000274	2.736245	0.927065	-0.000110
1322	1.3144e+02	-12.6237	-34.864704	0.000314	3.141615	1.064408	-0.000126
1323	1.3154e+02	-12.6622	-34.989855	0.000314	3.141615	1.064408	-0.000126
1324	1.3164e+02	-12.7055	-35.090784	0.000253	2.533560	0.858394	-0.000101
1325	1.3174e+02	-12.7472	-35.195749	0.000263	2.634903	0.892729	-0.000105
1326	1.3184e+02	-12.7745	-35.288603	0.000233	2.330876	0.789722	-0.000093
1327	1.3194e+02	-12.8226	-35.417792	0.000324	3.242957	1.098744	-0.000130
1328	1.3204e+02	-12.8643	-35.506609	0.000223	2.229533	0.755386	-0.000089
1329	1.3214e+02	-12.9061	-35.591389	0.000213	2.128191	0.721051	-0.000085
1330	1.3224e+02	-12.9526	-35.660020	0.000172	1.722821	0.583708	-0.000069
1331	1.3234e+02	-12.9831	-35.801320	0.000355	3.546985	1.201751	-0.000142
1332	1.3243e+02	-13.0216	-35.821505	0.000051	0.506712	0.171679	-0.000020
1333	1.3253e+02	-13.0665	-35.922434	0.000253	2.533560	0.858394	-0.000101
1334	1.3263e+02	-13.1002	-36.063734	0.000355	3.546985	1.201751	-0.000142
1335	1.3273e+02	-13.1403	-36.156588	0.000233	2.330876	0.789722	-0.000093
1336	1.3283e+02	-13.1868	-36.253479	0.000243	2.432218	0.824058	-0.000097
1337	1.3293e+02	-13.2301	-36.362482	0.000274	2.736245	0.927065	-0.000110
1338	1.3303e+02	-13.2606	-36.443224	0.000203	2.026848	0.686715	-0.000081
1339	1.3313e+02	-13.3071	-36.600673	0.000395	3.952354	1.339094	-0.000158
1340	1.3323e+02	-13.3376	-36.693527	0.000233	2.330876	0.789722	-0.000093
1341	1.3333e+02	-13.3697	-36.806567	0.000284	2.837588	0.961401	-0.000114
1342	1.3343e+02	-13.4290	-36.879235	0.000182	1.824164	0.618043	-0.000073
1343	1.3353e+02	-13.4595	-37.008423	0.000324	3.242957	1.098744	-0.000130
1344	1.3363e+02	-13.4932	-37.125500	0.000294	2.938930	0.995736	-0.000118
1345	1.3373e+02	-13.5413	-37.222392	0.000243	2.432218	0.824058	-0.000097
1346	1.3383e+02	-13.5830	-37.359654	0.000345	3.445642	1.167415	-0.000138
1347	1.3393e+02	-13.6183	-37.412137	0.000132	1.317451	0.446365	-0.000053
1348	1.3403e+02	-13.6633	-37.504991	0.000233	2.330876	0.789722	-0.000093
1349	1.3413e+02	-13.7066	-37.565548	0.000152	1.520136	0.515036	-0.000061
1350	1.3423e+02	-13.7451	-37.634179	0.000172	1.722821	0.583708	-0.000069
1351	1.3432e+02	-13.7836	-37.751256	0.000294	2.938930	0.995736	-0.000118
1352	1.3442e+02	-13.8157	-37.880445	0.000324	3.242957	1.098744	-0.000130
1353	1.3452e+02	-13.8622	-37.949076	0.000172	1.722821	0.583708	-0.000069
1354	1.3462e+02	-13.9071	-38.062116	0.000284	2.837588	0.961401	-0.000114
1355	1.3472e+02	-13.9392	-38.219564	0.000395	3.952354	1.339094	-0.000158
1356	1.3482e+02	-13.9681	-38.292232	0.000182	1.824164	0.618043	-0.000073
1357	1.3492e+02	-14.0162	-38.437569	0.000365	3.648327	1.236087	-0.000146
1358	1.3502e+02	-14.0483	-38.550609	0.000284	2.837588	0.961401	-0.000114
1359	1.3512e+02	-14.0980	-38.667686	0.000294	2.938930	0.995736	-0.000118
1360	1.3522e+02	-14.1317	-38.764577	0.000243	2.432218	0.824058	-0.000097
1361	1.3532e+02	-14.1686	-38.889729	0.000314	3.141615	1.064408	-0.000126
1362	1.3542e+02	-14.2167	-38.990657	0.000253	2.533560	0.858394	-0.000101
1363	1.3552e+02	-14.2713	-39.035065	0.000111	1.114767	0.377693	-0.000045
1364	1.3562e+02	-14.3001	-39.180402	0.000365	3.648327	1.236087	-0.000146
1365	1.3572e+02	-14.3418	-39.253071	0.000182	1.824164	0.618043	-0.000073
1366	1.3582e+02	-14.3803	-39.333813	0.000203	2.026848	0.686715	-0.000081
1367	1.3592e+02	-14.4108	-39.450890	0.000294	2.938930	0.995736	-0.000118
1368	1.3602e+02	-14.4590	-39.567967	0.000294	2.938930	0.995736	-0.000118
1369	1.3612e+02	-14.4991	-39.612376	0.000111	1.114767	0.377693	-0.000045
1370	1.3622e+02	-14.5424	-39.745601	0.000334	3.344300	1.133079	-0.000134
1371	1.3631e+02	-14.5777	-39.866715	0.000304	3.040273	1.030072	-0.000122
1372	1.3641e+02	-14.6130	-39.979755	0.000284	2.837588	0.961401	-0.000114
1373	1.3651e+02	-14.6627	-40.072609	0.000233	2.330876	0.789722	-0.000093
1374	1.3661e+02	-14.6868	-40.209872	0.000345	3.445642	1.167415	-0.000138
1375	1.3671e+02	-14.7253	-40.310800	0.000253	2.533560	0.858394	-0.000101
1376	1.3681e+02	-14.7718	-40.448063	0.000345	3.445642	1.167415	-0.000138
1377	1.3691e+02	-14.8135	-40.528806	0.000203	2.026848	0.686715	-0.000081
1378	1.3701e+02	-14.8520	-40.662031	0.000334	3.344300	1.133079	-0.000134
1379	1.3711e+02	-14.8889	-40.758922	0.000243	2.432218	0.824058	-0.000097
1380	1.3721e+02	-14.9402	-40.880036	0.000304	3.040273	1.030072	-0.000122
1381	1.3731e+02	-14.9675	-40.952705	0.000182	1.824164	0.618043	-0.000073
1382	1.3741e+02	-15.0060	-41.061708	0.000274	2.736245	0.927065	-0.000110
1383	1.3751e+02	-15.0509	-41.126302	0.000162	1.621479	0.549372	-0.000065
1384	1.3761e+02	-15.0926	-41.207044	0.000203	2.026848	0.686715	-0.000081
1385	1.3771e+02	-15.1375	-41.320084	0.000284	2.837588	0.961401	-0.000114
1386	1.3781e+02	-15.1728	-41.400827	0.000203	2.026848	0.686715	-0.000081
1387	1.3791e+02	-15.2178	-41.517904	0.000294	2.938930	0.995736	-0.000118
1388	1.3801e+02	-15.2546	-41.667278	0.000375	3.749670	1.270422	-0.000150
1389	1.3811e+02	-15.2980	-41.695538	0.000071	0.709397	0.240350	-0.000028
1390	1.3821e+02	-15.3300	-41.808578	0.000284	2.837588	0.961401	-0.000114
1391	1.3831e+02	-15.3702	-41.982175	0.000436	4.357724	1.476437	-0.000174
1392	1.3840e+02	-15.4167	-42.095214	0.000284	2.837588	0.961401	-0.000114
1393	1.3850e+02	-15.4600	-42.188068	0.000233	2.330876	0.789722	-0.000093
1394	1.3860e+02	-15.4857	-42.345517	0.000395	3.952354	1.339094	-0.000158
1395	1.3870e+02	-15.5418	-42.434334	0.000223	2.229533	0.755386	-0.000089
1396	1.3880e+02	-15.5675	-42.535262	0.000253	2.533560	0.858394	-0.000101
1397	1.3890e+02	-15.6124	-42.620042	0.000213	2.128191	0.721051	-0.000085
1398	1.3900e+02	-15.6477	-42.712896	0.000233	2.330876	0.789722	-0.000093
1399	1.3910e+02	-15.6942	-42.854196	0.000355	3.546985	1.201751	-0.000142
1400	1.3920e+02	-15.7343	-42.971273	0.000294	2.938930	0.995736	-0.000118
1401	1.3930e+02	-15.7600	-43.068164	0.000243	2.432218	0.824058	-0.000097
1402	1.3940e+02	-15.8145	-43.140832	0.000182	1.824164	0.618043	-0.000073
1403	1.3950e+02	-15.8594	-43.217538	0.000193	1.925506	0.652379	-0.000077
1404	1.3960e+02	-15.8963	-43.326541	0.000274	2.736245	0.927065	-0.000110
1405	1.3970e+02	-15.9364	-43.423432	0.000243	2.432218	0.824058	-0.000097
1406	1.3980e+02	-15.9733	-43.516286	0.000233	2.330876	0.789722	-0.000093
1407	1.3990e+02	-16.0070	-43.649512	0.000334	3.344300	1.133079	-0.000134
1408	1.4000e+02	-16.0503	-43.734291	0.000213	2.128191	0.721051	-0.000085
1409	1.4010e+02	-16.0872	-43.859443	0.000314	3.141615	1.064408	-0.000126
1410	1.4020e+02	-16.1274	-43.988631	0.000324	3.242957	1.098744	-0.000130
1411	1.4029e+02	-16.1739	-44.113782	0.000314	3.141615	1.064408	-0.000126
1412	1.4039e+02	-16.1995	-44.214711	0.000253	2.533560	0.858394	-0.000101
1413	1.4049e+02	-16.2557	-44.368122	0.000385	3.851012	1.304758	-0.000154
1414	1.4059e+02	-16.2878	-44.428679	0.000152	1.520136	0.515036	-0.000061
1415	1.4069e+02	-16.3295	-44.545756	0.000294	2.938930	0.995736	-0.000118
1416	1.4079e+02	-16.3728	-44.646684	0.000253	2.533560	0.858394	-0.000101
1417	1.4089e+02	-16.4049	-44.739538	0.000233	2.330876	0.789722	-0.000093
1418	1.4099e+02	-16.4530	-44.836430	0.000243	2.432218	0.824058	-0.000097
1419	1.4109e+02	-16.4915	-44.913135	0.000193	1.925506	0.652379	-0.000077
1420	1.4119e+02	-16.5316	-45.010026	0.000243	2.432218	0.824058	-0.000097
1421	1.4129e+02	-16.5685	-45.098843	0.000223	2.229533	0.755386	-0.000089
1422	1.4139e+02	-16.6070	-45.203809	0.000263	2.634903	0.892729	-0.000105
1423	1.4149e+02	-16.6423	-45.276477	0.000182	1.824164	0.618043	-0.000073
1424	1.4159e+02	-16.6904	-45.417777	0.000355	3.546985	1.201751	-0.000142
1425	1.4169e+02	-16.7257	-45.530817	0.000284	2.837588	0.961401	-0.000114
1426	1.4179e+02	-16.7626	-45.643857	0.000284	2.837588	0.961401	-0.000114
1427	1.4189e+02	-16.8027	-45.773045	0.000324	3.242957	1.098744	-0.000130
1428	1.4199e+02	-16.8412	-45.878011	0.000263	2.634903	0.892729	-0.000105
1429	1.4209e+02	-16.8910	-45.974902	0.000243	2.432218	0.824058	-0.000097
1430	1.4219e+02	-16.9263	-46.091979	0.000294	2.938930	0.995736	-0.000118
1431	1.4228e+02	-16.9664	-46.172721	0.000203	2.026848	0.686715	-0.000081
1432	1.4238e+02	-17.0049	-46.318058	0.000365	3.648327	1.236087	-0.000146
1433	1.4248e+02	-17.0482	-46.378615	0.000152	1.520136	0.515036	-0.000061
1434	1.4258e+02	-17.0931	-46.503767	0.000314	3.141615	1.064408	-0.000126
1435	1.4268e+02	-17.1316	-46.608732	0.000263	2.634903	0.892729	-0.000105
1436	1.4278e+02	-17.1717	-46.673326	0.000162	1.621479	0.549372	-0.000065
1437	1.4288e+02	-17.2118	-46.770218	0.000243	2.432218	0.824058	-0.000097
1438	1.4298e+02	-17.2423	-46.854997	0.000213	2.128191	0.721051	-0.000085
1439	1.4308e+02	-17.2840	-46.951889	0.000243	2.432218	0.824058	-0.000097
1440	1.4318e+02	-17.3321	-47.048780	0.000243	2.432218	0.824058	-0.000097
1441	1.4328e+02	-17.3722	-47.153745	0.000263	2.634903	0.892729	-0.000105
1442	1.4338e+02	-17.3947	-47.270822	0.000294	2.938930	0.995736	-0.000118
1443	1.4348e+02	-17.4508	-47.363676	0.000233	2.330876	0.789722	-0.000093
1444	1.4358e+02	-17.4765	-47.488828	0.000314	3.141615	1.064408	-0.000126
1445	1.4368e+02	-17.5166	-47.593793	0.000263	2.634903	0.892729	-0.000105
1446	1.4378e+02	-17.5663	-47.686647	0.000233	2.330876	0.789722	-0.000093
1447	1.4388e+02	-17.6065	-47.815836	0.000324	3.242957	1.098744	-0.000130
1448	1.4398e+02	-17.6482	-47.908690	0.000233	2.330876	0.789722	-0.000093
1449	1.4408e+02	-17.6819	-48.013655	0.000263	2.634903	0.892729	-0.000105
1450	1.4418e+02	-17.7236	-48.098435	0.000213	2.128191	0.721051	-0.000085
1451	1.4428e+02	-17.7653	-48.163029	0.000162	1.621479	0.549372	-0.000065
1452	1.4437e+02	-17.8070	-48.292218	0.000324	3.242957	1.098744	-0.000130
1453	1.4447e+02	-17.8471	-48.393146	0.000253	2.533560	0.858394	-0.000101
1454	1.4457e+02	-17.8776	-48.490037	0.000243	2.432218	0.824058	-0.000097
1455	1.4467e+02	-17.9337	-48.550594	0.000152	1.520136	0.515036	-0.000061
1456	1.4477e+02	-17.9626	-48.655560	0.000263	2.634903	0.892729	-0.000105
1457	1.4487e+02	-18.0091	-48.748414	0.000233	2.330876	0.789722	-0.000093
1458	1.4497e+02	-18.0444	-48.849342	0.000253	2.533560	0.858394	-0.000101
1459	1.4507e+02	-18.0877	-48.930085	0.000203	2.026848	0.686715	-0.000081
1460	1.4517e+02	-18.1230	-49.026976	0.000243	2.432218	0.824058	-0.000097
1461	1.4527e+02	-18.1631	-49.144053	0.000294	2.938930	0.995736	-0.000118
1462	1.4537e+02	-18.2048	-49.337836	0.000486	4.864436	1.648116	-0.000195
1463	1.4547e+02	-18.2401	-49.382244	0.000111	1.114767	0.377693	-0.000045
1464	1.4557e+02	-18.2770	-49.475098	0.000233	2.330876	0.789722	-0.000093
1465	1.4567e+02	-18.3252	-49.555841	0.000203	2.026848	0.686715	-0.000081
1466	1.4577e+02	-18.3540	-49.705215	0.000375	3.749670	1.270422	-0.000150
1467	1.4587e+02	-18.3989	-49.753661	0.000122	1.216109	0.412029	-0.000049
1468	1.4597e+02	-18.4471	-49.907072	0.000385	3.851012	1.304758	-0.000154
1469	1.4607e+02	-18.4808	-50.008000	0.000253	2.533560	0.858394	-0.000101
1470	1.4617e+02	-18.5241	-50.104892	0.000243	2.432218	0.824058	-0.000097
1471	1.4626e+02	-18.5594	-50.197746	0.000233	2.330876	0.789722	-0.000093
1472	1.4636e+02	-18.5963	-50.274451	0.000193	1.925506	0.652379	-0.000077
1473	1.4646e+02	-18.6428	-50.343083	0.000172	1.722821	0.583708	-0.000069
1474	1.4656e+02	-18.6813	-50.411714	0.000172	1.722821	0.583708	-0.000069
1475	1.4666e+02	-18.7294	-50.500531	0.000223	2.229533	0.755386	-0.000089
1476	1.4676e+02	-18.7663	-50.637794	0.000345	3.445642	1.167415	-0.000138
1477	1.4686e+02	-18.7888	-50.702388	0.000162	1.621479	0.549372	-0.000065
1478	1.4696e+02	-18.8417	-50.859836	0.000395	3.952354	1.339094	-0.000158
1479	1.4706e+02	-18.8706	-50.972876	0.000284	2.837588	0.961401	-0.000114
1480	1.4716e+02	-18.9155	-51.057656	0.000213	2.128191	0.721051	-0.000085
1481	1.4726e+02	-18.9524	-51.110138	0.000132	1.317451	0.446365	-0.000053
1482	1.4736e+02	-19.0053	-51.243364	0.000334	3.344300	1.133079	-0.000134
1483	1.4746e+02	-19.0374	-51.372552	0.000324	3.242957	1.098744	-0.000130
1484	1.4756e+02	-19.0775	-51.425035	0.000132	1.317451	0.446365	-0.000053
1485	1.4766e+02	-19.1192	-51.530001	0.000263	2.634903	0.892729	-0.000105
1486	1.4776e+02	-19.1658	-51.630929	0.000253	2.533560	0.858394	-0.000101
1487	1.4786e+02	-19.2027	-51.707635	0.000193	1.925506	0.652379	-0.000077
1488	1.4796e+02	-19.2331	-51.840860	0.000334	3.344300	1.133079	-0.000134
1489	1.4806e+02	-19.2845	-51.909491	0.000172	1.722821	0.583708	-0.000069
1490	1.4816e+02	-19.3198	-51.978123	0.000172	1.722821	0.583708	-0.000069
1491	1.4825e+02	-19.3663	-52.111348	0.000334	3.344300	1.133079	-0.000134
1492	1.4835e+02	-19.3984	-52.167868	0.000142	1.418794	0.480700	-0.000057
1493	1.4845e+02	-19.4385	-52.276871	0.000274	2.736245	0.927065	-0.000110
1494	1.4855e+02	-19.4770	-52.353576	0.000193	1.925506	0.652379	-0.000077
1495	1.4865e+02	-19.5203	-52.482765	0.000324	3.242957	1.098744	-0.000130
1496	1.4875e+02	-19.5540	-52.587730	0.000263	2.634903	0.892729	-0.000105
1497	1.4885e+02	-19.5941	-52.688659	0.000253	2.533560	0.858394	-0.000101
1498	1.4895e+02	-19.6278	-52.773438	0.000213	2.128191	0.721051	-0.000085
1499	1.4905e+02	-19.6679	-52.902627	0.000324	3.242957	1.098744	-0.000130
1500	1.4915e+02	-19.7080	-52.999518	0.000243	2.432218	0.824058	-0.000097
1501	1.4925e+02	-19.7529	-53.056038	0.000142	1.418794	0.480700	-0.000057
1502	1.4935e+02	-19.8010	-53.144855	0.000223	2.229533	0.755386	-0.000089
1503	1.4945e+02	-19.8444	-53.294229	0.000375	3.749670	1.270422	-0.000150
1504	1.4955e+02	-19.8748	-53.415343	0.000304	3.040273	1.030072	-0.000122
1505	1.4965e+02	-19.9182	-53.479937	0.000162	1.621479	0.549372	-0.000065
1506	1.4975e+02	-19.9551	-53.572791	0.000233	2.330876	0.789722	-0.000093
1507	1.4985e+02	-20.0096	-53.722165	0.000375	3.749670	1.270422	-0.000150
1508	1.4995e+02	-19.9502	-53.629311	0.000233	2.330876	0.789722	0.000093
1509	1.5005e+02	-19.9085	-53.556643	0.000182	1.824164	0.618043	0.000073
1510	1.5015e+02	-19.8716	-53.520308	0.000091	0.912082	0.309022	0.000037
1511	1.5025e+02	-19.8363	-53.411306	0.000274	2.736245	0.927065	0.000110
1512	1.5034e+02	-19.7914	-53.366897	0.000111	1.114767	0.377693	0.000045
1513	1.5044e+02	-19.7529	-53.286155	0.000203	2.026848	0.686715	0.000081
1514	1.5054e+02	-19.7096	-53.225598	0.000152	1.520136	0.515036	0.000061
1515	1.5064e+02	-19.6743	-53.132743	0.000233	2.330876	0.789722	0.000093
1516	1.5074e+02	-19.6310	-53.084298	0.000122	1.216109	0.412029	0.000049
1517	1.5084e+02	-19.5925	-53.031815	0.000132	1.317451	0.446365	0.000053
1518	1.5094e+02	-19.5556	-52.955109	0.000193	1.925506	0.652379	0.000077
1519	1.5104e+02	-19.5203	-52.898590	0.000142	1.418794	0.480700	0.000057
1520	1.5114e+02	-19.4722	-52.785550	0.000284	2.837588	0.961401	0.000114
1521	1.5124e+02	-19.4305	-52.696733	0.000223	2.229533	0.755386	0.000089
1522	1.5134e+02	-19.3984	-52.644250	0.000132	1.317451	0.446365	0.000053
1523	1.5144e+02	-19.3519	-52.571582	0.000182	1.824164	0.618043	0.000073
1524	1.5154e+02	-19.3230	-52.539284	0.000081	0.810739	0.274686	0.000032
1525	1.5164e+02	-19.2781	-52.442393	0.000243	2.432218	0.824058	0.000097
1526	1.5174e+02	-19.2524	-52.369725	0.000182	1.824164	0.618043	0.000073
1527	1.5184e+02	-19.1979	-52.272834	0.000243	2.432218	0.824058	0.000097
1528	1.5194e+02	-19.1529	-52.220351	0.000132	1.317451	0.446365	0.000053
1529	1.5204e+02	-19.1112	-52.167868	0.000132	1.317451	0.446365	0.000053
1530	1.5214e+02	-19.0872	-52.022531	0.000365	3.648327	1.236087	0.000146
1531	1.5224e+02	-19.0438	-51.986197	0.000091	0.912082	0.309022	0.000037
1532	1.5233e+02	-18.9957	-51.933714	0.000132	1.317451	0.446365	0.000053
1533	1.5243e+02	-18.9508	-51.848934	0.000213	2.128191	0.721051	0.000085
1534	1.5253e+02	-18.9187	-51.743969	0.000263	2.634903	0.892729	0.000105
1535	1.5263e+02	-18.8802	-51.655152	0.000223	2.229533	0.755386	0.000089
1536	1.5273e+02	-18.8417	-51.618818	0.000091	0.912082	0.309022	0.000037
1537	1.5283e+02	-18.8000	-51.509815	0.000274	2.736245	0.927065	0.000110
1538	1.5293e+02	-18.7583	-51.437146	0.000182	1.824164	0.618043	0.000073
1539	1.5303e+02	-18.7230	-51.332181	0.000263	2.634903	0.892729	0.000105
1540	1.5313e+02	-18.6845	-51.291810	0.000101	1.013424	0.343357	0.000041
1541	1.5323e+02	-18.6412	-51.223178	0.000172	1.722821	0.583708	0.000069
1542	1.5333e+02	-18.6059	-51.134361	0.000223	2.229533	0.755386	0.000089
1543	1.5343e+02	-18.5754	-51.041507	0.000233	2.330876	0.789722	0.000093
1544	1.5353e+02	-18.5193	-51.005173	0.000091	0.912082	0.309022	0.000037
1545	1.5363e+02	-18.4824	-50.920393	0.000213	2.128191	0.721051	0.000085
1546	1.5373e+02	-18.4391	-50.867910	0.000132	1.317451	0.446365	0.000053
1547	1.5383e+02	-18.4038	-50.771019	0.000243	2.432218	0.824058	0.000097
1548	1.5393e+02	-18.3572	-50.678165	0.000233	2.330876	0.789722	0.000093
1549	1.5403e+02	-18.3155	-50.565125	0.000284	2.837588	0.961401	0.000114
1550	1.5413e+02	-18.2802	-50.496494	0.000172	1.722821	0.583708	0.000069
1551	1.5422e+02	-18.2465	-50.375380	0.000304	3.040273	1.030072	0.000122
1552	1.5432e+02	-18.2016	-50.330971	0.000111	1.114767	0.377693	0.000045
1553	1.5442e+02	-18.1695	-50.254266	0.000193	1.925506	0.652379	0.000077
1554	1.5452e+02	-18.1326	-50.157374	0.000243	2.432218	0.824058	0.000097
1555	1.5462e+02	-18.0909	-50.084706	0.000182	1.824164	0.618043	0.000073
1556	1.5472e+02	-18.0396	-50.020112	0.000162	1.621479	0.549372	0.000065
1557	1.5482e+02	-18.0059	-49.971666	0.000122	1.216109	0.412029	0.000049
1558	1.5492e+02	-17.9674	-49.846515	0.000314	3.141615	1.064408	0.000126
1559	1.5502e+02	-17.9145	-49.789995	0.000142	1.418794	0.480700	0.000057
1560	1.5512e+02	-17.8904	-49.709252	0.000203	2.026848	0.686715	0.000081
1561	1.5522e+02	-17.8471	-49.660807	0.000122	1.216109	0.412029	0.000049
1562	1.5532e+02	-17.8054	-49.555841	0.000263	2.634903	0.892729	0.000105
1563	1.5542e+02	-17.7669	-49.471061	0.000213	2.128191	0.721051	0.000085
1564	1.5552e+02	-17.7284	-49.426653	0.000111	1.114767	0.377693	0.000045
1565	1.5562e+02	-17.6802	-49.362059	0.000162	1.621479	0.549372	0.000065
1566	1.5572e+02	-17.6417	-49.232870	0.000324	3.242957	1.098744	0.000130
1567	1.5582e+02	-17.6081	-49.135979	0.000243	2.432218	0.824058	0.000097
1568	1.5592e+02	-17.5696	-49.087533	0.000122	1.216109	0.412029	0.000049
1569	1.5602e+02	-17.5278	-48.982568	0.000263	2.634903	0.892729	0.000105
1570	1.5612e+02	-17.4877	-48.901825	0.000203	2.026848	0.686715	0.000081
1571	1.5622e+02	-17.4476	-48.813008	0.000223	2.229533	0.755386	0.000089
1572	1.5631e+02	-17.4027	-48.760525	0.000132	1.317451	0.446365	0.000053
1573	1.5641e+02	-17.3594	-48.671708	0.000223	2.229533	0.755386	0.000089
1574	1.5651e+02	-17.3434	-48.558669	0.000284	2.837588	0.961401	0.000114
1575	1.5661e+02	-17.2952	-48.538483	0.000051	0.506712	0.171679	0.000020
1576	1.5671e+02	-17.2423	-48.385072	0.000385	3.851012	1.304758	0.000154
1577	1.5681e+02	-17.2086	-48.348738	0.000091	0.912082	0.309022	0.000037
1578	1.5691e+02	-17.1685	-48.280106	0.000172	1.722821	0.583708	0.000069
1579	1.5701e+02	-17.1268	-48.158992	0.000304	3.040273	1.030072	0.000122
1580	1.5711e+02	-17.0931	-48.106509	0.000132	1.317451	0.446365	0.000053
1581	1.5721e+02	-17.0450	-48.029804	0.000193	1.925506	0.652379	0.000077
1582	1.5731e+02	-16.9985	-47.932913	0.000243	2.432218	0.824058	0.000097
1583	1.5741e+02	-16.9599	-47.892541	0.000101	1.013424	0.343357	0.000041
1584	1.5751e+02	-16.9263	-47.791613	0.000253	2.533560	0.858394	0.000101
1585	1.5761e+02	-16.8862	-47.662425	0.000324	3.242957	1.098744	0.000130
1586	1.5771e+02	-16.8493	-47.601867	0.000152	1.520136	0.515036	0.000061
1587	1.5781e+02	-16.8092	-47.509013	0.000233	2.330876	0.789722	0.000093
1588	1.5791e+02	-16.7755	-47.408085	0.000253	2.533560	0.858394	0.000101
1589	1.5801e+02	-16.7193	-47.319268	0.000223	2.229533	0.755386	0.000089
1590	1.5811e+02	-16.6936	-47.238525	0.000203	2.026848	0.686715	0.000081
1591	1.5821e+02	-16.6487	-47.169894	0.000172	1.722821	0.583708	0.000069
1592	1.5830e+02	-16.6070	-47.032631	0.000345	3.445642	1.167415	0.000138
1593	1.5840e+02	-16.5814	-47.000334	0.000081	0.810739	0.274686	0.000032
1594	1.5850e+02	-16.5332	-46.887294	0.000284	2.837588	0.961401	0.000114
1595	1.5860e+02	-16.4979	-46.842886	0.000111	1.114767	0.377693	0.000045
1596	1.5870e+02	-16.4626	-46.741958	0.000253	2.533560	0.858394	0.000101
1597	1.5880e+02	-16.4145	-46.665252	0.000193	1.925506	0.652379	0.000077
1598	1.5890e+02	-16.3728	-46.592584	0.000182	1.824164	0.618043	0.000073
1599	1.5900e+02	-16.3279	-46.495692	0.000243	2.432218	0.824058	0.000097
1600	1.5910e+02	-16.2910	-46.459358	0.000091	0.912082	0.309022	0.000037
1601	1.5920e+02	-16.2509	-46.330170	0.000324	3.242957	1.098744	0.000130
1602	1.5930e+02	-16.2044	-46.257501	0.000182	1.824164	0.618043	0.000073
1603	1.5940e+02	-16.1626	-46.213093	0.000111	1.114767	0.377693	0.000045
1604	1.5950e+02	-16.1306	-46.047570	0.000416	4.155039	1.407765	0.000166
1605	1.5960e+02	-16.0889	-45.970865	0.000193	1.925506	0.652379	0.000077
1606	1.5970e+02	-16.0455	-45.886085	0.000213	2.128191	0.721051	0.000085
1607	1.5980e+02	-16.0135	-45.777082	0.000274	2.736245	0.927065	0.000110
1608	1.5990e+02	-15.9637	-45.708451	0.000172	1.722821	0.583708	0.000069
1609	1.6000e+02	-15.9381	-45.627708	0.000203	2.026848	0.686715	0.000081
1610	1.6010e+02	-15.8899	-45.506594	0.000304	3.040273	1.030072	0.000122
1611	1.6019e+02	-15.8546	-45.397591	0.000274	2.736245	0.927065	0.000110
1612	1.6029e+02	-15.8161	-45.320886	0.000193	1.925506	0.652379	0.000077
1613	1.6039e+02	-15.7760	-45.248217	0.000182	1.824164	0.618043	0.000073
1614	1.6049e+02	-15.7279	-45.147289	0.000253	2.533560	0.858394	0.000101
1615	1.6059e+02	-15.7006	-45.090769	0.000142	1.418794	0.480700	0.000057
1616	1.6069e+02	-15.6541	-44.985804	0.000263	2.634903	0.892729	0.000105
1617	1.6079e+02	-15.6092	-44.969655	0.000041	0.405370	0.137343	0.000016
1618	1.6089e+02	-15.5691	-44.860652	0.000274	2.736245	0.927065	0.000110
1619	1.6099e+02	-15.5290	-44.755687	0.000263	2.634903	0.892729	0.000105
1620	1.6109e+02	-15.4857	-44.687055	0.000172	1.722821	0.583708	0.000069
1621	1.6119e+02	-15.4616	-44.586127	0.000253	2.533560	0.858394	0.000101
1622	1.6129e+02	-15.4103	-44.501347	0.000213	2.128191	0.721051	0.000085
1623	1.6139e+02	-15.3718	-44.392345	0.000274	2.736245	0.927065	0.000110
1624	1.6149e+02	-15.3252	-44.255082	0.000345	3.445642	1.167415	0.000138
1625	1.6159e+02	-15.2964	-44.150116	0.000263	2.634903	0.892729	0.000105
1626	1.6169e+02	-15.2627	-44.037077	0.000284	2.837588	0.961401	0.000114
1627	1.6179e+02	-15.2210	-43.964408	0.000182	1.824164	0.618043	0.000073
1628	1.6189e+02	-15.1728	-43.891740	0.000182	1.824164	0.618043	0.000073
1629	1.6199e+02	-15.1375	-43.778700	0.000284	2.837588	0.961401	0.000114
1630	1.6209e+02	-15.0958	-43.685846	0.000233	2.330876	0.789722	0.000093
1631	1.6219e+02	-15.0573	-43.633363	0.000132	1.317451	0.446365	0.000053
1632	1.6228e+02	-15.0124	-43.528398	0.000263	2.634903	0.892729	0.000105
1633	1.6238e+02	-14.9771	-43.467840	0.000152	1.520136	0.515036	0.000061
1634	1.6248e+02	-14.9370	-43.354801	0.000284	2.837588	0.961401	0.000114
1635	1.6258e+02	-14.8905	-43.302318	0.000132	1.317451	0.446365	0.000053
1636	1.6268e+02	-14.8568	-43.197352	0.000263	2.634903	0.892729	0.000105
1637	1.6278e+02	-14.8199	-43.088350	0.000274	2.736245	0.927065	0.000110
1638	1.6288e+02	-14.7654	-43.031830	0.000142	1.418794	0.480700	0.000057
1639	1.6298e+02	-14.7333	-42.906679	0.000314	3.141615	1.064408	0.000126
1640	1.6308e+02	-14.6948	-42.797676	0.000274	2.736245	0.927065	0.000110
1641	1.6318e+02	-14.6547	-42.680599	0.000294	2.938930	0.995736	0.000118
1642	1.6328e+02	-14.6194	-42.607931	0.000182	1.824164	0.618043	0.000073
1643	1.6338e+02	-14.5761	-42.507002	0.000253	2.533560	0.858394	0.000101
1644	1.6348e+02	-14.5504	-42.430297	0.000193	1.925506	0.652379	0.000077
1645	1.6358e+02	-14.4991	-42.313220	0.000294	2.938930	0.995736	0.000118
1646	1.6368e+02	-14.4654	-42.224403	0.000223	2.229533	0.755386	0.000089
1647	1.6378e+02	-14.4156	-42.107326	0.000294	2.938930	0.995736	0.000118
1648	1.6388e+02	-14.3771	-42.010434	0.000243	2.432218	0.824058	0.000097
1649	1.6398e+02	-14.3418	-41.957952	0.000132	1.317451	0.446365	0.000053
1650	1.6408e+02	-14.2937	-41.812615	0.000365	3.648327	1.236087	0.000146
1651	1.6418e+02	-14.2616	-41.735909	0.000193	1.925506	0.652379	0.000077
1652	1.6427e+02	-14.2087	-41.671315	0.000162	1.621479	0.549372	0.000065
1653	1.6437e+02	-14.1846	-41.614795	0.000142	1.418794	0.480700	0.000057
1654	1.6447e+02	-14.1349	-41.489644	0.000314	3.141615	1.064408	0.000126
1655	1.6457e+02	-14.0980	-41.364493	0.000314	3.141615	1.064408	0.000126
1656	1.6467e+02	-14.0595	-41.295861	0.000172	1.722821	0.583708	0.000069
1657	1.6477e+02	-14.0210	-41.203007	0.000233	2.330876	0.789722	0.000093
1658	1.6487e+02	-13.9793	-41.077856	0.000314	3.141615	1.064408	0.000126
1659	1.6497e+02	-13.9424	-40.980965	0.000243	2.432218	0.824058	0.000097
1660	1.6507e+02	-13.8959	-40.859851	0.000304	3.040273	1.030072	0.000122
1661	1.6517e+02	-13.8606	-40.754885	0.000263	2.634903	0.892729	0.000105
1662	1.6527e+02	-13.8253	-40.674143	0.000203	2.026848	0.686715	0.000081
1663	1.6537e+02	-13.7755	-40.569177	0.000263	2.634903	0.892729	0.000105
1664	1.6547e+02	-13.7386	-40.496509	0.000182	1.824164	0.618043	0.000073
1665	1.6557e+02	-13.7001	-40.375395	0.000304	3.040273	1.030072	0.000122
1666	1.6567e+02	-13.6697	-40.250243	0.000314	3.141615	1.064408	0.000126
1667	1.6577e+02	-13.6151	-40.173538	0.000193	1.925506	0.652379	0.000077
1668	1.6587e+02	-13.5750	-40.125092	0.000122	1.216109	0.412029	0.000049
1669	1.6597e+02	-13.5413	-40.060498	0.000162	1.621479	0.549372	0.000065
1670	1.6607e+02	-13.4916	-39.943421	0.000294	2.938930	0.995736	0.000118
1671	1.6616e+02	-13.4579	-39.854604	0.000223	2.229533	0.755386	0.000089
1672	1.6626e+02	-13.4210	-39.749638	0.000263	2.634903	0.892729	0.000105
1673	1.6636e+02	-13.3825	-39.644673	0.000263	2.634903	0.892729	0.000105
1674	1.6646e+02	-13.3312	-39.531633	0.000284	2.837588	0.961401	0.000114
1675	1.6656e+02	-13.3007	-39.438779	0.000233	2.330876	0.789722	0.000093
1676	1.6666e+02	-13.2574	-39.297479	0.000355	3.546985	1.201751	0.000142
1677	1.6676e+02	-13.2269	-39.192514	0.000263	2.634903	0.892729	0.000105
1678	1.6686e+02	-13.1820	-39.107734	0.000213	2.128191	0.721051	0.000085
1679	1.6696e+02	-13.1547	-39.031028	0.000193	1.925506	0.652379	0.000077
1680	1.6706e+02	-13.1002	-38.942211	0.000223	2.229533	0.755386	0.000089
1681	1.6716e+02	-13.0665	-38.825134	0.000294	2.938930	0.995736	0.000118
1682	1.6726e+02	-13.0232	-38.716132	0.000274	2.736245	0.927065	0.000110
1683	1.6736e+02	-12.9879	-38.623278	0.000233	2.330876	0.789722	0.000093
1684	1.6746e+02	-12.9446	-38.534461	0.000223	2.229533	0.755386	0.000089
1685	1.6756e+02	-12.9077	-38.481978	0.000132	1.317451	0.446365	0.000053
1686	1.6766e+02	-12.8515	-38.389124	0.000233	2.330876	0.789722	0.000093
1687	1.6776e+02	-12.8114	-38.288195	0.000253	2.533560	0.858394	0.000101
1688	1.6786e+02	-12.7841	-38.203415	0.000213	2.128191	0.721051	0.000085
1689	1.6796e+02	-12.7376	-38.154970	0.000122	1.216109	0.412029	0.000049
1690	1.6806e+02	-12.6991	-38.013670	0.000355	3.546985	1.201751	0.000142
1691	1.6816e+02	-12.6638	-37.945039	0.000172	1.722821	0.583708	0.000069
1692	1.6825e+02	-12.6141	-37.827962	0.000294	2.938930	0.995736	0.000118
1693	1.6835e+02	-12.5884	-37.747219	0.000203	2.026848	0.686715	0.000081
1694	1.6845e+02	-12.5435	-37.613994	0.000334	3.344300	1.133079	0.000134
1695	1.6855e+02	-12.5146	-37.504991	0.000274	2.736245	0.927065	0.000110
1696	1.6865e+02	-12.4665	-37.412137	0.000233	2.330876	0.789722	0.000093
1697	1.6875e+02	-12.4232	-37.274874	0.000345	3.445642	1.167415	0.000138
1698	1.6885e+02	-12.3927	-37.194132	0.000203	2.026848	0.686715	0.000081
1699	1.6895e+02	-12.3510	-37.081092	0.000284	2.837588	0.961401	0.000114
1700	1.6905e+02	-12.3093	-37.008423	0.000182	1.824164	0.618043	0.000073
1701	1.6915e+02	-12.2676	-36.891346	0.000294	2.938930	0.995736	0.000118
1702	1.6925e+02	-12.2371	-36.863086	0.000071	0.709397	0.240350	0.000028
1703	1.6935e+02	-12.1809	-36.737935	0.000314	3.141615	1.064408	0.000126
1704	1.6945e+02	-12.1473	-36.689490	0.000122	1.216109	0.412029	0.000049
1705	1.6955e+02	-12.0959	-36.564338	0.000314	3.141615	1.064408	0.000126
1706	1.6965e+02	-12.0654	-36.491670	0.000182	1.824164	0.618043	0.000073
1707	1.6975e+02	-12.0285	-36.374593	0.000294	2.938930	0.995736	0.000118
1708	1.6985e+02	-11.9836	-36.338259	0.000091	0.912082	0.309022	0.000037
1709	1.6995e+02	-11.9403	-36.192922	0.000365	3.648327	1.236087	0.000146
1710	1.7005e+02	-11.9082	-36.132365	0.000152	1.520136	0.515036	0.000061
1711	1.7015e+02	-11.8729	-36.035474	0.000243	2.432218	0.824058	0.000097
1712	1.7024e+02	-11.8232	-35.857840	0.000446	4.459066	1.510773	0.000179
1713	1.7034e+02	-11.7831	-35.764986	0.000233	2.330876	0.789722	0.000093
1714	1.7044e+02	-11.7606	-35.700391	0.000162	1.621479	0.549372	0.000065
1715	1.7054e+02	-11.7189	-35.591389	0.000274	2.736245	0.927065	0.000110
1716	1.7064e+02	-11.6692	-35.482386	0.000274	2.736245	0.927065	0.000110
1717	1.7074e+02	-11.6323	-35.417792	0.000162	1.621479	0.549372	0.000065
1718	1.7084e+02	-11.5890	-35.256306	0.000405	4.053697	1.373430	0.000162
1719	1.7094e+02	-11.5569	-35.203824	0.000132	1.317451	0.446365	0.000053
1720	1.7104e+02	-11.5104	-35.094821	0.000274	2.736245	0.927065	0.000110
1721	1.7114e+02	-11.4703	-35.058487	0.000091	0.912082	0.309022	0.000037
1722	1.7124e+02	-11.4334	-34.945447	0.000284	2.837588	0.961401	0.000114
1723	1.7134e+02	-11.3884	-34.905076	0.000101	1.013424	0.343357	0.000041
1724	1.7144e+02	-11.3532	-34.767813	0.000345	3.445642	1.167415	0.000138
1725	1.7154e+02	-11.3114	-34.703219	0.000162	1.621479	0.549372	0.000065
1726	1.7164e+02	-11.2681	-34.578068	0.000314	3.141615	1.064408	0.000126
1727	1.7174e+02	-11.2296	-34.460991	0.000294	2.938930	0.995736	0.000118
1728	1.7184e+02	-11.1927	-34.424656	0.000091	0.912082	0.309022	0.000037
1729	1.7194e+02	-11.1526	-34.299505	0.000314	3.141615	1.064408	0.000126
1730	1.7204e+02	-11.1109	-34.162243	0.000345	3.445642	1.167415	0.000138
1731	1.7213e+02	-11.0820	-34.037091	0.000314	3.141615	1.064408	0.000126
1732	1.7223e+02	-11.0339	-33.976534	0.000152	1.520136	0.515036	0.000061
1733	1.7233e+02	-10.9874	-33.883680	0.000233	2.330876	0.789722	0.000093
1734	1.7243e+02	-10.9553	-33.766603	0.000294	2.938930	0.995736	0.000118
1735	1.7253e+02	-10.9136	-33.689898	0.000193	1.925506	0.652379	0.000077
1736	1.7263e+02	-10.8703	-33.576858	0.000284	2.837588	0.961401	0.000114
1737	1.7273e+02	-10.8302	-33.475930	0.000253	2.533560	0.858394	0.000101
1738	1.7283e+02	-10.7965	-33.366927	0.000274	2.736245	0.927065	0.000110
1739	1.7293e+02	-10.7516	-33.310407	0.000142	1.418794	0.480700	0.000057
1740	1.7303e+02	-10.7147	-33.278110	0.000081	0.810739	0.274686	0.000032
1741	1.7313e+02	-10.6746	-33.165070	0.000284	2.837588	0.961401	0.000114
1742	1.7323e+02	-10.6361	-33.064142	0.000253	2.533560	0.858394	0.000101
1743	1.7333e+02	-10.6088	-32.955139	0.000274	2.736245	0.927065	0.000110
1744	1.7343e+02	-10.5542	-32.878433	0.000193	1.925506	0.652379	0.000077
1745	1.7353e+02	-10.5157	-32.769431	0.000274	2.736245	0.927065	0.000110
1746	1.7363e+02	-10.4708	-32.696762	0.000182	1.824164	0.618043	0.000073
1747	1.7373e+02	-10.4371	-32.567574	0.000324	3.242957	1.098744	0.000130
1748	1.7383e+02	-10.3890	-32.442423	0.000314	3.141615	1.064408	0.000126
1749	1.7393e+02	-10.3521	-32.345532	0.000243	2.432218	0.824058	0.000097
1750	1.7403e+02	-10.3120	-32.244603	0.000253	2.533560	0.858394	0.000101
1751	1.7413e+02	-10.2751	-32.139638	0.000263	2.634903	0.892729	0.000105
1752	1.7422e+02	-10.2430	-32.034672	0.000263	2.634903	0.892729	0.000105
1753	1.7432e+02	-10.1981	-31.921632	0.000284	2.837588	0.961401	0.000114
1754	1.7442e+02	-10.1532	-31.873187	0.000122	1.216109	0.412029	0.000049
1755	1.7452e+02	-10.1131	-31.748035	0.000314	3.141615	1.064408	0.000126
1756	1.7462e+02	-10.0810	-31.647107	0.000253	2.533560	0.858394	0.000101
1757	1.7472e+02	-10.0377	-31.574439	0.000182	1.824164	0.618043	0.000073
1758	1.7482e+02	-9.9928	-31.481584	0.000233	2.330876	0.789722	0.000093
1759	1.7492e+02	-9.9478	-31.433139	0.000122	1.216109	0.412029	0.000049
1760	1.7502e+02	-9.9126	-31.344322	0.000223	2.229533	0.755386	0.000089
1761	1.7512e+02	-9.8789	-31.215134	0.000324	3.242957	1.098744	0.000130
1762	1.7522e+02	-9.8307	-31.126317	0.000223	2.229533	0.755386	0.000089
1763	1.7532e+02	-9.7954	-31.017314	0.000274	2.736245	0.927065	0.000110
1764	1.7542e+02	-9.7521	-30.956757	0.000152	1.520136	0.515036	0.000061
1765	1.7552e+02	-9.7136	-30.827568	0.000324	3.242957	1.098744	0.000130
1766	1.7562e+02	-9.6783	-30.714529	0.000284	2.837588	0.961401	0.000114
1767	1.7572e+02	-9.6366	-30.597452	0.000294	2.938930	0.995736	0.000118
1768	1.7582e+02	-9.5933	-30.464226	0.000334	3.344300	1.133079	0.000134
1769	1.7592e+02	-9.5548	-30.391558	0.000182	1.824164	0.618043	0.000073
1770	1.7602e+02	-9.5259	-30.286592	0.000263	2.634903	0.892729	0.000105
1771	1.7612e+02	-9.4794	-30.185664	0.000253	2.533560	0.858394	0.000101
1772	1.7621e+02	-9.4345	-30.072624	0.000284	2.837588	0.961401	0.000114
1773	1.7631e+02	-9.4040	-29.935361	0.000345	3.445642	1.167415	0.000138
1774	1.7641e+02	-9.3575	-29.854619	0.000203	2.026848	0.686715	0.000081
1775	1.7651e+02	-9.3174	-29.806173	0.000122	1.216109	0.412029	0.000049
1776	1.7661e+02	-9.2789	-29.709282	0.000243	2.432218	0.824058	0.000097
1777	1.7671e+02	-9.2436	-29.636613	0.000182	1.824164	0.618043	0.000073
1778	1.7681e+02	-9.2035	-29.531648	0.000263	2.634903	0.892729	0.000105
1779	1.7691e+02	-9.1618	-29.438794	0.000233	2.330876	0.789722	0.000093
1780	1.7701e+02	-9.1185	-29.313643	0.000314	3.141615	1.064408	0.000126
1781	1.7711e+02	-9.0816	-29.216751	0.000243	2.432218	0.824058	0.000097
1782	1.7721e+02	-9.0366	-29.131971	0.000213	2.128191	0.721051	0.000085
1783	1.7731e+02	-8.9997	-28.994709	0.000345	3.445642	1.167415	0.000138
1784	1.7741e+02	-8.9693	-28.865521	0.000324	3.242957	1.098744	0.000130
1785	1.7751e+02	-8.9260	-28.788815	0.000193	1.925506	0.652379	0.000077
1786	1.7761e+02	-8.8778	-28.655589	0.000334	3.344300	1.133079	0.000134
1787	1.7771e+02	-8.8409	-28.534475	0.000304	3.040273	1.030072	0.000122
1788	1.7781e+02	-8.7944	-28.465844	0.000172	1.722821	0.583708	0.000069
1789	1.7791e+02	-8.7607	-28.324544	0.000355	3.546985	1.201751	0.000142
1790	1.7801e+02	-8.7206	-28.235727	0.000223	2.229533	0.755386	0.000089
1791	1.7810e+02	-8.6757	-28.134799	0.000253	2.533560	0.858394	0.000101
1792	1.7820e+02	-8.6420	-28.009648	0.000314	3.141615	1.064408	0.000126
1793	1.7830e+02	-8.6035	-27.936979	0.000182	1.824164	0.618043	0.000073
1794	1.7840e+02	-8.5618	-27.880459	0.000142	1.418794	0.480700	0.000057
1795	1.7850e+02	-8.5121	-27.759345	0.000304	3.040273	1.030072	0.000122
1796	1.7860e+02	-8.4768	-27.662454	0.000243	2.432218	0.824058	0.000097
1797	1.7870e+02	-8.4415	-27.573637	0.000223	2.229533	0.755386	0.000089
1798	1.7880e+02	-8.3966	-27.472709	0.000253	2.533560	0.858394	0.000101
1799	1.7890e+02	-8.3613	-27.355632	0.000294	2.938930	0.995736	0.000118
1800	1.7900e+02	-8.3244	-27.262778	0.000233	2.330876	0.789722	0.000093
1801	1.7910e+02	-8.2794	-27.161849	0.000253	2.533560	0.858394	0.000101
1802	1.7920e+02	-8.2474	-27.016512	0.000365	3.648327	1.236087	0.000146
1803	1.7930e+02	-8.1976	-26.879250	0.000345	3.445642	1.167415	0.000138
1804	1.7940e+02	-8.1655	-26.746024	0.000334	3.344300	1.133079	0.000134
1805	1.7950e+02	-8.1238	-26.701616	0.000111	1.114767	0.377693	0.000045
1806	1.7960e+02	-8.0789	-26.568390	0.000334	3.344300	1.133079	0.000134
1807	1.7970e+02	-8.0484	-26.459388	0.000274	2.736245	0.927065	0.000110
1808	1.7980e+02	-8.0035	-26.342311	0.000294	2.938930	0.995736	0.000118
1809	1.7990e+02	-7.9650	-26.277717	0.000162	1.621479	0.549372	0.000065
1810	1.8000e+02	-7.9265	-26.087971	0.000476	4.763094	1.613780	0.000191
1811	1.8009e+02	-7.8848	-26.035488	0.000132	1.317451	0.446365	0.000053
1812	1.8019e+02	-7.8399	-25.966857	0.000172	1.722821	0.583708	0.000069
1813	1.8029e+02	-7.8014	-25.910337	0.000142	1.418794	0.480700	0.000057
1814	1.8039e+02	-7.7661	-25.797297	0.000284	2.837588	0.961401	0.000114
1815	1.8049e+02	-7.7244	-25.676183	0.000304	3.040273	1.030072	0.000122
1816	1.8059e+02	-7.6875	-25.555069	0.000304	3.040273	1.030072	0.000122
1817	1.8069e+02	-7.6490	-25.442029	0.000284	2.837588	0.961401	0.000114
1818	1.8079e+02	-7.6121	-25.349175	0.000233	2.330876	0.789722	0.000093
1819	1.8089e+02	-7.5591	-25.215950	0.000334	3.344300	1.133079	0.000134
1820	1.8099e+02	-7.5222	-25.046390	0.000426	4.256382	1.442101	0.000170
1821	1.8109e+02	-7.4854	-24.965647	0.000203	2.026848	0.686715	0.000081
1822	1.8119e+02	-7.4404	-24.872793	0.000233	2.330876	0.789722	0.000093
1823	1.8129e+02	-7.4051	-24.723419	0.000375	3.749670	1.270422	0.000150
1824	1.8139e+02	-7.3666	-24.622491	0.000253	2.533560	0.858394	0.000101
1825	1.8149e+02	-7.3233	-24.489265	0.000334	3.344300	1.133079	0.000134
1826	1.8159e+02	-7.2880	-24.380263	0.000274	2.736245	0.927065	0.000110
1827	1.8169e+02	-7.2447	-24.327780	0.000132	1.317451	0.446365	0.000053
1828	1.8179e+02	-7.2046	-24.150146	0.000446	4.459066	1.510773	0.000179
1829	1.8189e+02	-7.1597	-24.142072	0.000020	0.202685	0.068671	0.000008
1830	1.8199e+02	-7.1324	-24.045180	0.000243	2.432218	0.824058	0.000097
1831	1.8209e+02	-7.0843	-23.924066	0.000304	3.040273	1.030072	0.000122
1832	1.8218e+02	-7.0330	-23.847361	0.000193	1.925506	0.652379	0.000077
1833	1.8228e+02	-7.0073	-23.677801	0.000426	4.256382	1.442101	0.000170
1834	1.8238e+02	-6.9672	-23.605133	0.000182	1.824164	0.618043	0.000073
1835	1.8248e+02	-6.9175	-23.488056	0.000294	2.938930	0.995736	0.000118
1836	1.8258e+02	-6.8934	-23.387127	0.000253	2.533560	0.858394	0.000101
1837	1.8268e+02	-6.8469	-23.261976	0.000314	3.141615	1.064408	0.000126
1838	1.8278e+02	-6.7987	-23.120676	0.000355	3.546985	1.201751	0.000142
1839	1.8288e+02	-6.7602	-22.995525	0.000314	3.141615	1.064408	0.000126
1840	1.8298e+02	-6.7282	-22.898634	0.000243	2.432218	0.824058	0.000097
1841	1.8308e+02	-6.6848	-22.757334	0.000355	3.546985	1.201751	0.000142
1842	1.8318e+02	-6.6608	-22.660443	0.000243	2.432218	0.824058	0.000097
1843	1.8328e+02	-6.6143	-22.579700	0.000203	2.026848	0.686715	0.000081
1844	1.8338e+02	-6.5645	-22.470698	0.000274	2.736245	0.927065	0.000110
1845	1.8348e+02	-6.5356	-22.357658	0.000284	2.837588	0.961401	0.000114
1846	1.8358e+02	-6.4827	-22.284989	0.000182	1.824164	0.618043	0.000073
1847	1.8368e+02	-6.4490	-22.155801	0.000324	3.242957	1.098744	0.000130
1848	1.8378e+02	-6.4105	-22.066984	0.000223	2.229533	0.755386	0.000089
1849	1.8388e+02	-6.3752	-22.002390	0.000162	1.621479	0.549372	0.000065
1850	1.8398e+02	-6.3351	-21.881276	0.000304	3.040273	1.030072	0.000122
1851	1.8407e+02	-6.2870	-21.784384	0.000243	2.432218	0.824058	0.000097
1852	1.8417e+02	-6.2469	-21.679419	0.000263	2.634903	0.892729	0.000105
1853	1.8427e+02	-6.2228	-21.562342	0.000294	2.938930	0.995736	0.000118
1854	1.8437e+02	-6.1651	-21.408931	0.000385	3.851012	1.304758	0.000154
1855	1.8447e+02	-6.1410	-21.332225	0.000193	1.925506	0.652379	0.000077
1856	1.8457e+02	-6.0977	-21.231297	0.000253	2.533560	0.858394	0.000101
1857	1.8467e+02	-6.0560	-21.094034	0.000345	3.445642	1.167415	0.000138
1858	1.8477e+02	-6.0095	-20.960809	0.000334	3.344300	1.133079	0.000134
1859	1.8487e+02	-5.9822	-20.851806	0.000274	2.736245	0.927065	0.000110
1860	1.8497e+02	-5.9325	-20.758952	0.000233	2.330876	0.789722	0.000093
1861	1.8507e+02	-5.8940	-20.662061	0.000243	2.432218	0.824058	0.000097
1862	1.8517e+02	-5.8474	-20.516724	0.000365	3.648327	1.236087	0.000146
1863	1.8527e+02	-5.8105	-20.460204	0.000142	1.418794	0.480700	0.000057
1864	1.8537e+02	-5.7752	-20.395610	0.000162	1.621479	0.549372	0.000065
1865	1.8547e+02	-5.7319	-20.246236	0.000375	3.749670	1.270422	0.000150
1866	1.8557e+02	-5.6998	-20.141270	0.000263	2.634903	0.892729	0.000105
1867	1.8567e+02	-5.6549	-20.028230	0.000284	2.837588	0.961401	0.000114
1868	1.8577e+02	-5.6100	-19.895005	0.000334	3.344300	1.133079	0.000134
1869	1.8587e+02	-5.5747	-19.830411	0.000162	1.621479	0.549372	0.000065
1870	1.8597e+02	-5.5410	-19.725445	0.000263	2.634903	0.892729	0.000105
1871	1.8606e+02	-5.4897	-19.620480	0.000263	2.634903	0.892729	0.000105
1872	1.8616e+02	-5.4624	-19.491291	0.000324	3.242957	1.098744	0.000130
1873	1.8626e+02	-5.4159	-19.370177	0.000304	3.040273	1.030072	0.000122
1874	1.8636e+02	-5.3790	-19.232915	0.000345	3.445642	1.167415	0.000138
1875	1.8646e+02	-5.3421	-19.127949	0.000263	2.634903	0.892729	0.000105
1876	1.8656e+02	-5.2892	-19.022984	0.000263	2.634903	0.892729	0.000105
1877	1.8666e+02	-5.2571	-18.918018	0.000263	2.634903	0.892729	0.000105
1878	1.8676e+02	-5.2234	-18.829201	0.000223	2.229533	0.755386	0.000089
1879	1.8686e+02	-5.1656	-18.716161	0.000284	2.837588	0.961401	0.000114
1880	1.8696e+02	-5.1400	-18.631381	0.000213	2.128191	0.721051	0.000085
1881	1.8706e+02	-5.1015	-18.542564	0.000223	2.229533	0.755386	0.000089
1882	1.8716e+02	-5.0630	-18.453747	0.000223	2.229533	0.755386	0.000089
1883	1.8726e+02	-5.0100	-18.344745	0.000274	2.736245	0.927065	0.000110
1884	1.8736e+02	-4.9795	-18.203445	0.000355	3.546985	1.201751	0.000142
1885	1.8746e+02	-4.9394	-18.122702	0.000203	2.026848	0.686715	0.000081
1886	1.8756e+02	-4.9009	-18.029848	0.000233	2.330876	0.789722	0.000093
1887	1.8766e+02	-4.8624	-17.920846	0.000274	2.736245	0.927065	0.000110
1888	1.8776e+02	-4.8175	-17.803769	0.000294	2.938930	0.995736	0.000118
1889	1.8786e+02	-4.7806	-17.654395	0.000375	3.749670	1.270422	0.000150
1890	1.8796e+02	-4.7405	-17.601912	0.000132	1.317451	0.446365	0.000053
1891	1.8806e+02	-4.6988	-17.452538	0.000375	3.749670	1.270422	0.000150
1892	1.8815e+02	-4.6539	-17.291052	0.000405	4.053697	1.373430	0.000162
1893	1.8825e+02	-4.6170	-17.198198	0.000233	2.330876	0.789722	0.000093
1894	1.8835e+02	-4.5769	-17.097270	0.000253	2.533560	0.858394	0.000101
1895	1.8845e+02	-4.5336	-16.968082	0.000324	3.242957	1.098744	0.000130
1896	1.8855e+02	-4.5079	-16.895413	0.000182	1.824164	0.618043	0.000073
1897	1.8865e+02	-4.4582	-16.842930	0.000132	1.317451	0.446365	0.000053
1898	1.8875e+02	-4.4165	-16.705668	0.000345	3.445642	1.167415	0.000138
1899	1.8885e+02	-4.3731	-16.641074	0.000162	1.621479	0.549372	0.000065
1900	1.8895e+02	-4.3378	-16.503811	0.000345	3.445642	1.167415	0.000138
1901	1.8905e+02	-4.2977	-16.390771	0.000284	2.837588	0.961401	0.000114
1902	1.8915e+02	-4.2592	-16.326177	0.000162	1.621479	0.549372	0.000065
1903	1.8925e+02	-4.2143	-16.180840	0.000365	3.648327	1.236087	0.000146
1904	1.8935e+02	-4.1838	-16.071837	0.000274	2.736245	0.927065	0.000110
1905	1.8945e+02	-4.1485	-15.966872	0.000263	2.634903	0.892729	0.000105
1906	1.8955e+02	-4.1084	-15.878055	0.000223	2.229533	0.755386	0.000089
1907	1.8965e+02	-4.0635	-15.740792	0.000345	3.445642	1.167415	0.000138
1908	1.8975e+02	-4.0282	-15.647938	0.000233	2.330876	0.789722	0.000093
1909	1.8985e+02	-3.9801	-15.490490	0.000395	3.952354	1.339094	0.000158
1910	1.8995e+02	-3.9448	-15.377450	0.000284	2.837588	0.961401	0.000114
1911	1.9004e+02	-3.9063	-15.288633	0.000223	2.229533	0.755386	0.000089
1912	1.9014e+02	-3.8582	-15.175593	0.000284	2.837588	0.961401	0.000114
1913	1.9024e+02	-3.8149	-15.082739	0.000233	2.330876	0.789722	0.000093
1914	1.9034e+02	-3.7828	-14.957588	0.000314	3.141615	1.064408	0.000126
1915	1.9044e+02	-3.7395	-14.892994	0.000162	1.621479	0.549372	0.000065
1916	1.9054e+02	-3.6978	-14.828400	0.000162	1.621479	0.549372	0.000065
1917	1.9064e+02	-3.6625	-14.662877	0.000416	4.155039	1.407765	0.000166
1918	1.9074e+02	-3.6191	-14.574060	0.000223	2.229533	0.755386	0.000089
1919	1.9084e+02	-3.5871	-14.477169	0.000243	2.432218	0.824058	0.000097
1920	1.9094e+02	-3.5438	-14.372203	0.000263	2.634903	0.892729	0.000105
1921	1.9104e+02	-3.5069	-14.255126	0.000294	2.938930	0.995736	0.000118
1922	1.9114e+02	-3.4603	-14.138049	0.000294	2.938930	0.995736	0.000118
1923	1.9124e+02	-3.4234	-14.061344	0.000193	1.925506	0.652379	0.000077
1924	1.9134e+02	-3.3833	-13.907933	0.000385	3.851012	1.304758	0.000154
1925	1.9144e+02	-3.3448	-13.786819	0.000304	3.040273	1.030072	0.000122
1926	1.9154e+02	-3.3063	-13.685890	0.000253	2.533560	0.858394	0.000101
1927	1.9164e+02	-3.2646	-13.540553	0.000365	3.648327	1.236087	0.000146
1928	1.9174e+02	-3.2229	-13.435588	0.000263	2.634903	0.892729	0.000105
1929	1.9184e+02	-3.1844	-13.330622	0.000263	2.634903	0.892729	0.000105
1930	1.9194e+02	-3.1459	-13.241805	0.000223	2.229533	0.755386	0.000089
1931	1.9203e+02	-3.1042	-13.152988	0.000223	2.229533	0.755386	0.000089
1932	1.9213e+02	-3.0657	-13.031874	0.000304	3.040273	1.030072	0.000122
1933	1.9223e+02	-3.0272	-12.930946	0.000253	2.533560	0.858394	0.000101
1934	1.9233e+02	-2.9823	-12.842129	0.000223	2.229533	0.755386	0.000089
1935	1.9243e+02	-2.9470	-12.725052	0.000294	2.938930	0.995736	0.000118
1936	1.9253e+02	-2.9021	-12.632198	0.000233	2.330876	0.789722	0.000093
1937	1.9263e+02	-2.8652	-12.482824	0.000375	3.749670	1.270422	0.000150
1938	1.9273e+02	-2.8251	-12.365747	0.000294	2.938930	0.995736	0.000118
1939	1.9283e+02	-2.7898	-12.276930	0.000223	2.229533	0.755386	0.000089
1940	1.9293e+02	-2.7448	-12.184076	0.000233	2.330876	0.789722	0.000093
1941	1.9303e+02	-2.7031	-12.042776	0.000355	3.546985	1.201751	0.000142
1942	1.9313e+02	-2.6646	-11.921662	0.000304	3.040273	1.030072	0.000122
1943	1.9323e+02	-2.6293	-11.832845	0.000223	2.229533	0.755386	0.000089
1944	1.9333e+02	-2.5892	-11.695582	0.000345	3.445642	1.167415	0.000138
1945	1.9343e+02	-2.5491	-11.521985	0.000436	4.357724	1.476437	0.000174
1946	1.9353e+02	-2.5090	-11.441243	0.000203	2.026848	0.686715	0.000081
1947	1.9363e+02	-2.4625	-11.287832	0.000385	3.851012	1.304758	0.000154
1948	1.9373e+02	-2.4368	-11.263609	0.000061	0.608055	0.206014	0.000024
1949	1.9383e+02	-2.3711	-11.122309	0.000355	3.546985	1.201751	0.000142
1950	1.9393e+02	-2.3550	-11.013306	0.000274	2.736245	0.927065	0.000110
1951	1.9403e+02	-2.3133	-10.920452	0.000233	2.330876	0.789722	0.000093
1952	1.9412e+02	-2.2684	-10.803375	0.000294	2.938930	0.995736	0.000118
1953	1.9422e+02	-2.2299	-10.682261	0.000304	3.040273	1.030072	0.000122
1954	1.9432e+02	-2.1914	-10.593444	0.000223	2.229533	0.755386	0.000089
1955	1.9442e+02	-2.1449	-10.476367	0.000294	2.938930	0.995736	0.000118
1956	1.9452e+02	-2.1192	-10.363327	0.000284	2.837588	0.961401	0.000114
1957	1.9462e+02	-2.0598	-10.262399	0.000253	2.533560	0.858394	0.000101
1958	1.9472e+02	-2.0310	-10.165508	0.000243	2.432218	0.824058	0.000097
1959	1.9482e+02	-1.9925	-9.979800	0.000466	4.661751	1.579444	0.000187
1960	1.9492e+02	-1.9475	-9.903094	0.000193	1.925506	0.652379	0.000077
1961	1.9502e+02	-1.9058	-9.790054	0.000284	2.837588	0.961401	0.000114
1962	1.9512e+02	-1.8689	-9.612420	0.000446	4.459066	1.510773	0.000179
1963	1.9522e+02	-1.8433	-9.479195	0.000334	3.344300	1.133079	0.000134
1964	1.9532e+02	-1.7903	-9.386341	0.000233	2.330876	0.789722	0.000093
1965	1.9542e+02	-1.7518	-9.285412	0.000253	2.533560	0.858394	0.000101
1966	1.9552e+02	-1.7101	-9.160261	0.000314	3.141615	1.064408	0.000126
1967	1.9562e+02	-1.6620	-9.091630	0.000172	1.722821	0.583708	0.000069
1968	1.9572e+02	-1.6299	-8.934181	0.000395	3.952354	1.339094	0.000158
1969	1.9582e+02	-1.5882	-8.889773	0.000111	1.114767	0.377693	0.000045
1970	1.9592e+02	-1.5449	-8.776733	0.000284	2.837588	0.961401	0.000114
1971	1.9601e+02	-1.5112	-8.635433	0.000355	3.546985	1.201751	0.000142
1972	1.9611e+02	-1.4743	-8.498171	0.000345	3.445642	1.167415	0.000138
1973	1.9621e+02	-1.4374	-8.437614	0.000152	1.520136	0.515036	0.000061
1974	1.9631e+02	-1.3925	-8.272091	0.000416	4.155039	1.407765	0.000166
1975	1.9641e+02	-1.3540	-8.163088	0.000274	2.736245	0.927065	0.000110
1976	1.9651e+02	-1.3123	-8.066197	0.000243	2.432218	0.824058	0.000097
1977	1.9661e+02	-1.2706	-7.928935	0.000345	3.445642	1.167415	0.000138
1978	1.9671e+02	-1.2256	-7.807821	0.000304	3.040273	1.030072	0.000122
1979	1.9681e+02	-1.1952	-7.731115	0.000193	1.925506	0.652379	0.000077
1980	1.9691e+02	-1.1550	-7.565592	0.000416	4.155039	1.407765	0.000166
1981	1.9701e+02	-1.1101	-7.432367	0.000334	3.344300	1.133079	0.000134
1982	1.9711e+02	-1.0780	-7.282993	0.000375	3.749670	1.270422	0.000150
1983	1.9721e+02	-1.0315	-7.161879	0.000304	3.040273	1.030072	0.000122
1984	1.9731e+02	-0.9914	-7.044802	0.000294	2.938930	0.995736	0.000118
1985	1.9741e+02	-0.9513	-6.951948	0.000233	2.330876	0.789722	0.000093
1986	1.9751e+02	-0.9144	-6.879279	0.000182	1.824164	0.618043	0.000073
1987	1.9761e+02	-0.8679	-6.733942	0.000365	3.648327	1.236087	0.000146
1988	1.9771e+02	-0.8326	-6.633014	0.000253	2.533560	0.858394	0.000101
1989	1.9781e+02	-0.7877	-6.536123	0.000243	2.432218	0.824058	0.000097
1990	1.9791e+02	-0.7460	-6.406934	0.000324	3.242957	1.098744	0.000130
1991	1.9800e+02	-0.7107	-6.318117	0.000223	2.229533	0.755386	0.000089
1992	1.9810e+02	-0.6706	-6.201040	0.000294	2.938930	0.995736	0.000118
1993	1.9820e+02	-0.6401	-6.015332	0.000466	4.661751	1.579444	0.000187
1994	1.9830e+02	-0.5920	-5.946701	0.000172	1.722821	0.583708	0.000069
1995	1.9840e+02	-0.5535	-5.809438	0.000345	3.445642	1.167415	0.000138
1996	1.9850e+02	-0.5134	-5.700436	0.000274	2.736245	0.927065	0.000110
1997	1.9860e+02	-0.4732	-5.555099	0.000365	3.648327	1.236087	0.000146
1998	1.9870e+02	-0.4396	-5.421873	0.000334	3.344300	1.133079	0.000134
1999	1.9880e+02	-0.3995	-5.300759	0.000304	3.040273	1.030072	0.000122
2000	1.9890e+02	-0.3593	-5.187719	0.000284	2.837588	0.961401	0.000114
2001	1.9900e+02	-0.3257	-5.066605	0.000304	3.040273	1.030072	0.000122
2002	1.9910e+02	-0.2743	-4.945491	0.000304	3.040273	1.030072	0.000122
2003	1.9920e+02	-0.2294	-4.844563	0.000253	2.533560	0.858394	0.000101
2004	1.9930e+02	-0.1925	-4.755746	0.000223	2.229533	0.755386	0.000089
2005	1.9940e+02	-0.1604	-4.634632	0.000304	3.040273	1.030072	0.000122
2006	1.9950e+02	-0.1123	-4.517555	0.000294	2.938930	0.995736	0.000118
2007	1.9960e+02	-0.0802	-4.432775	0.000213	2.128191	0.721051	0.000085
2008	1.9970e+02	-0.0289	-4.263215	0.000426	4.256382	1.442101	0.000170
2009	1.9980e+02	0.0032	-4.190547	0.000426	4.256382	1.442101	0.000073

PMax (uC/cm2):	5.59e+01
Pr (uC/cm2):	2.69e+00
-Pr (uC/cm2):	-2.02e+00
PLoss (uC/cm2):	-2.01e+00
-Vc:	-9.59e-01
C (Max-Eff) (nF):	2.80e-01
K (Eff):	9.48e+02
Vert. (+/-Pr) Shift (uC/cm2):	3.37e-01
Offset (uC/cm2):	2.17e+00

A (Loop Area - uC/cm2·Volts):	-2.61e-02



Hysteresis Version: 5.48.1 - Radiant Technologies, Inc., 1999 - 9/12/24

